target,distractor,set,ans1,ans2,rep_loop2.thisRepN,rep_loop2.thisTrialN,rep_loop2.thisN,rep_loop2.thisIndex,flanker_prac_loop.thisRepN,flanker_prac_loop.thisTrialN,flanker_prac_loop.thisN,flanker_prac_loop.thisIndex,flanker_main_loop.thisRepN,flanker_main_loop.thisTrialN,flanker_main_loop.thisN,flanker_main_loop.thisIndex,fl_inst_resp.keys,mouse.x,mouse.y,mouse.leftButton,mouse.midButton,mouse.rightButton,mouse.started,mouse.stopped,sound_1.started,sound_1.stopped,no_text.started,no_text.stopped,yes_text.started,yes_text.stopped,mouse_2.x,mouse_2.y,mouse_2.leftButton,mouse_2.midButton,mouse_2.rightButton,mouse_2.started,mouse_2.stopped,back_2.started,back_2.stopped,main_prac,fl_cold,fl_colt,fl_set,fl_dcond,fl_tcond,fl_ans,fl_res,fl_corr,fl_rt,fix_fl.started,fix_fl.stopped,targ.started,targ.stopped,j_button.started,j_button.stopped,k_button.started,k_button.stopped,l_button.started,l_button.stopped,j_button2.started,j_button2.stopped,k_button2.started,k_button2.stopped,l_button2.started,l_button2.stopped,mainback.started,mainback.stopped,key_resp.keys,mouse_6.x,mouse_6.y,mouse_6.leftButton,mouse_6.midButton,mouse_6.rightButton,mouse_6.started,mouse_6.stopped,id*,age*,gender*,date,expName,psychopyVersion,frameRate,
,,,,,0,0,0,0,,,,,,,,,None,0.10925926,-0.2685185,0,0,0,1.03340380161535,None,27.57216025001835,None,78.92458940006327,None,78.92458940006327,None,-0.16574074,-0.119444445,0,0,0,0.013157449895516038,None,,,,,,,,,,,,,,,,,,,,,,,,,,,,,,,,,,,,,,,121,22,Female,2022-05-09_09h34.41.100,Boat,2022.1.1,59.968396651683264,
neutral,negative,2,k,k,,,,,0,0,0,16,,,,,,,,,,,,,,,,,,,,,,,,,,83.4771713000955,None,prac,1,1,2,negative,neutral,k,k,1,1.0333450000034645,85.51263160002418,86.5145575000206,86.49611080007162,None,85.51263160002418,None,85.51263160002418,None,85.51263160002418,None,87.5158015500987,None,87.5158015500987,None,87.5158015500987,None,,,,,,,,,,,121,22,Female,2022-05-09_09h34.41.100,Boat,2022.1.1,59.968396651683264,
positive,negative,2,l,j,,,,,0,1,1,14,,,,,,,,,,,,,,,,,,,,,,,,,,,,prac,2,2,2,negative,positive,j,l,0,0.8166081999661401,87.54794190009125,88.5627885001013,88.5286555000348,None,87.54794190009125,None,87.54794190009125,None,87.54794190009125,None,89.36436210002284,None,89.36436210002284,None,89.36436210002284,None,,,,,,,,,,,121,22,Female,2022-05-09_09h34.41.100,Boat,2022.1.1,59.968396651683264,
negative,neutral,2,j,l,,,,,0,2,2,12,,,,,,,,,,,,,,,,,,,,,,,,,,,,prac,1,1,2,neutral,negative,l,l,1,0.8232842000434175,90.39042290009093,91.40633820008952,91.3618808001047,None,90.39042290009093,None,90.39042290009093,None,90.39042290009093,None,92.18998995001894,None,92.18998995001894,None,92.18998995001894,None,,,,,,,,,,,121,22,Female,2022-05-09_09h34.41.100,Boat,2022.1.1,59.968396651683264,
negative,neutral,1,j,l,,,,,0,3,3,3,,,,,,,,,,,,,,,,,,,,,,,,,,,,prac,1,1,1,neutral,negative,l,l,1,2.1001675999723375,92.22136500000488,93.2289953000145,93.21209290006664,None,92.22136500000488,None,92.22136500000488,None,92.22136500000488,None,95.30917860008776,None,95.30917860008776,None,95.30917860008776,None,,,,,,,,,,,121,22,Female,2022-05-09_09h34.41.100,Boat,2022.1.1,59.968396651683264,
neutral,positive,1,k,k,,,,,0,4,4,4,,,,,,,,,,,,,,,,,,,,,,,,,,,,prac,2,2,1,positive,neutral,k,k,1,0.8268515000818297,96.34316630009562,97.3604627000168,97.31818220007699,None,96.34316630009562,None,96.34316630009562,None,96.34316630009562,None,98.14417105002795,None,98.14417105002795,None,98.14417105002795,None,,,,,,,,,,,121,22,Female,2022-05-09_09h34.41.100,Boat,2022.1.1,59.968396651683264,
positive,neutral,1,l,j,,,,,0,5,5,8,,,,,,,,,,,,,,,,,,,,,,,,,,,,prac,2,2,1,neutral,positive,j,j,1,0.662591699976474,98.16354810004123,99.18030780006666,99.14554370008409,None,98.16354810004123,None,98.16354810004123,None,98.16354810004123,None,99.81006775002461,None,99.81006775002461,None,99.81006775002461,None,,,,,,,,,,,121,22,Female,2022-05-09_09h34.41.100,Boat,2022.1.1,59.968396651683264,
negative,negative,1,j,l,,,,,0,6,6,0,,,,,,,,,,,,,,,,,,,,,,,,,,,,prac,2,2,1,negative,negative,l,l,1,0.7762888000579551,99.83216480002739,100.84548880008515,100.81039480003528,None,99.83216480002739,None,99.83216480002739,None,99.83216480002739,None,101.59048145005946,None,101.59048145005946,None,101.59048145005946,None,,,,,,,,,,,121,22,Female,2022-05-09_09h34.41.100,Boat,2022.1.1,59.968396651683264,
neutral,negative,1,k,k,,,,,0,7,7,7,,,,,,,,,,,,,,,,,,,,,,,,,,,,prac,2,2,1,negative,neutral,k,k,1,0.6084091999800876,101.61106360005215,102.61490210006014,102.57905800000299,None,101.61106360005215,None,101.61106360005215,None,101.61106360005215,None,103.200187750021,None,103.200187750021,None,103.200187750021,None,,,,,,,,,,,121,22,Female,2022-05-09_09h34.41.100,Boat,2022.1.1,59.968396651683264,
negative,positive,1,j,l,,,,,0,8,8,6,,,,,,,,,,,,,,,,,,,,,,,,,,,,prac,2,2,1,positive,negative,l,l,1,0.7778859999962151,103.2172833000077,104.23232350009494,104.19660910009407,None,103.2172833000077,None,103.2172833000077,None,103.2172833000077,None,104.97965305005201,None,104.97965305005201,None,104.97965305005201,None,,,,,,,,,,,121,22,Female,2022-05-09_09h34.41.100,Boat,2022.1.1,59.968396651683264,
neutral,positive,2,k,k,,,,,0,9,9,13,,,,,,,,,,,,,,,,,,,,,,,,,,,,prac,1,1,2,positive,neutral,k,k,1,0.8688862000126392,105.01062920002732,106.01422990008723,105.9966648000991,None,105.01062920002732,None,105.01062920002732,None,105.01062920002732,None,106.85139615004883,None,106.85139615004883,None,106.85139615004883,None,,,,,,,,,,,121,22,Female,2022-05-09_09h34.41.100,Boat,2022.1.1,59.968396651683264,
positive,neutral,2,l,j,,,,,0,10,10,17,,,,,,,,,,,,,,,,,,,,,,,,,,,,prac,2,2,2,neutral,positive,j,j,1,0.640553200035356,106.87827970006038,107.8808017000556,107.86302879999857,None,106.87827970006038,None,106.87827970006038,None,106.87827970006038,None,108.49496875002515,None,108.49496875002515,None,108.49496875002515,None,,,,,,,,,,,121,22,Female,2022-05-09_09h34.41.100,Boat,2022.1.1,59.968396651683264,
positive,negative,1,l,j,,,,,0,11,11,5,,,,,,,,,,,,,,,,,,,,,,,,,,,,prac,2,2,1,negative,positive,j,j,1,0.6469593000365421,108.51458370010369,109.52937910007313,109.49456220003776,None,108.51458370010369,None,108.51458370010369,None,108.51458370010369,None,110.14583125009668,None,110.14583125009668,None,110.14583125009668,None,,,,,,,,,,,121,22,Female,2022-05-09_09h34.41.100,Boat,2022.1.1,59.968396651683264,
positive,positive,2,l,j,,,,,0,12,12,11,,,,,,,,,,,,,,,,,,,,,,,,,,,,prac,2,2,2,positive,positive,j,j,1,0.729867700021714,110.17578540008981,111.18607230007183,111.16942380007822,None,110.17578540008981,None,110.17578540008981,None,110.17578540008981,None,111.87834275010974,None,111.87834275010974,None,111.87834275010974,None,,,,,,,,,,,121,22,Female,2022-05-09_09h34.41.100,Boat,2022.1.1,59.968396651683264,
negative,positive,2,j,l,,,,,0,13,13,15,,,,,,,,,,,,,,,,,,,,,,,,,,,,prac,1,1,2,positive,negative,l,l,1,0.6830227000173181,111.90045570000075,112.90718800004106,112.88652620010544,None,111.90045570000075,None,111.90045570000075,None,111.90045570000075,None,113.56496095003095,None,113.56496095003095,None,113.56496095003095,None,,,,,,,,,,,121,22,Female,2022-05-09_09h34.41.100,Boat,2022.1.1,59.968396651683264,
neutral,neutral,1,k,k,,,,,0,14,14,1,,,,,,,,,,,,,,,,,,,,,,,,,,,,prac,1,1,1,neutral,neutral,k,k,1,0.5909969999920577,113.58277080010157,114.59588830010034,114.55736780003645,None,113.58277080010157,None,113.58277080010157,None,113.58277080010157,None,115.1584536500508,None,115.1584536500508,None,115.1584536500508,None,,,,,,,,,,,121,22,Female,2022-05-09_09h34.41.100,Boat,2022.1.1,59.968396651683264,
positive,positive,1,l,j,,,,,0,15,15,2,,,,,,,,,,,,,,,,,,,,,,,,,,,,prac,2,2,1,positive,positive,j,j,1,0.7051253999816254,115.17801130004227,116.19585600006394,116.15269990009256,None,115.17801130004227,None,115.17801130004227,None,115.17801130004227,None,116.8647242500214,None,116.8647242500214,None,116.8647242500214,None,,,,,,,,,,,121,22,Female,2022-05-09_09h34.41.100,Boat,2022.1.1,59.968396651683264,
negative,negative,2,j,l,,,,,0,16,16,9,,,,,,,,,,,,,,,,,,,,,,,,,,,,prac,2,2,2,negative,negative,l,l,1,0.7096508999820799,116.88424650009256,117.89072420005687,117.86937260010745,None,116.88424650009256,None,116.88424650009256,None,116.88424650009256,None,118.57825745011215,None,118.57825745011215,None,118.57825745011215,None,,,,,,,,,,,121,22,Female,2022-05-09_09h34.41.100,Boat,2022.1.1,59.968396651683264,
neutral,neutral,2,k,k,,,,,0,17,17,10,,,,,,,,,,,,,,,,,,,,,,,,,,,,prac,2,2,2,neutral,neutral,k,k,1,0.5704636999871582,118.59782790008467,119.60929680010304,119.56828060001135,None,118.59782790008467,None,118.59782790008467,None,118.59782790008467,None,120.15046155008022,None,120.15046155008022,None,120.15046155008022,None,,,,,,,,,,,121,22,Female,2022-05-09_09h34.41.100,Boat,2022.1.1,59.968396651683264,
negative,negative,2,j,l,,,,,1,0,18,9,,,,,,,,,,,,,,,,,,,,,,,,,,,,prac,1,1,2,negative,negative,l,l,1,0.7842971000354737,120.17460720008239,121.17963250004686,121.16027460002806,None,120.17460720008239,None,120.17460720008239,None,120.17460720008239,None,121.94072655003984,None,121.94072655003984,None,121.94072655003984,None,,,,,,,,,,,121,22,Female,2022-05-09_09h34.41.100,Boat,2022.1.1,59.968396651683264,
positive,positive,1,l,j,,,,,1,1,19,2,,,,,,,,,,,,,,,,,,,,,,,,,,,,prac,2,2,1,positive,positive,j,j,1,0.6743974999990314,121.96183370007202,122.96275730000343,122.9443286000751,None,121.96183370007202,None,121.96183370007202,None,121.96183370007202,None,123.61512095001527,None,123.61512095001527,None,123.61512095001527,None,,,,,,,,,,,121,22,Female,2022-05-09_09h34.41.100,Boat,2022.1.1,59.968396651683264,
neutral,positive,1,k,k,,,,,1,2,20,4,,,,,,,,,,,,,,,,,,,,,,,,,,,,prac,1,1,1,positive,neutral,k,k,1,0.5619096999289468,123.64487320010085,124.65891320002265,124.63791220006533,None,123.64487320010085,None,123.64487320010085,None,123.64487320010085,None,125.17952055004426,None,125.17952055004426,None,125.17952055004426,None,,,,,,,,,,,121,22,Female,2022-05-09_09h34.41.100,Boat,2022.1.1,59.968396651683264,
positive,negative,1,l,j,,,,,1,3,21,5,,,,,,,,,,,,,,,,,,,,,,,,,,,,prac,1,1,1,negative,positive,j,j,1,1.0606692000292242,125.21200610010419,126.21611380006652,126.19807040004525,None,125.21200610010419,None,125.21200610010419,None,125.21200610010419,None,127.24477505006362,None,127.24477505006362,None,127.24477505006362,None,,,,,,,,,,,121,22,Female,2022-05-09_09h34.41.100,Boat,2022.1.1,59.968396651683264,
neutral,neutral,2,k,k,,,,,1,4,22,10,,,,,,,,,,,,,,,,,,,,,,,,,,,,prac,1,1,2,neutral,neutral,k,k,1,1.0260203999932855,127.26719340006821,128.26997230004054,128.25086430006195,None,127.26719340006821,None,127.26719340006821,None,127.26719340006821,None,129.2746184500633,None,129.2746184500633,None,129.2746184500633,None,,,,,,,,,,,121,22,Female,2022-05-09_09h34.41.100,Boat,2022.1.1,59.968396651683264,
neutral,positive,2,k,k,,,,,1,5,23,13,,,,,,,,,,,,,,,,,,,,,,,,,,,,prac,2,2,2,positive,neutral,k,k,1,0.57465839991346,129.29499810002744,130.2963516000891,130.27810160000809,None,129.29499810002744,None,129.29499810002744,None,129.29499810002744,None,130.84904475007207,None,130.84904475007207,None,130.84904475007207,None,,,,,,,,,,,121,22,Female,2022-05-09_09h34.41.100,Boat,2022.1.1,59.968396651683264,
positive,positive,2,l,j,,,,,1,6,24,11,,,,,,,,,,,,,,,,,,,,,,,,,,,,prac,1,1,2,positive,positive,j,j,1,0.6251707000192255,130.86846870009322,131.8740528000053,131.85331920010503,None,130.86846870009322,None,130.86846870009322,None,130.86846870009322,None,132.47850965007675,None,132.47850965007675,None,132.47850965007675,None,,,,,,,,,,,121,22,Female,2022-05-09_09h34.41.100,Boat,2022.1.1,59.968396651683264,
negative,negative,1,j,l,,,,,1,7,25,0,,,,,,,,,,,,,,,,,,,,,,,,,,,,prac,2,2,1,negative,negative,l,l,1,0.6603861999465153,132.49662370001897,133.49773260008078,133.47941880009603,None,132.49662370001897,None,132.49662370001897,None,132.49662370001897,None,134.14227375001647,None,134.14227375001647,None,134.14227375001647,None,,,,,,,,,,,121,22,Female,2022-05-09_09h34.41.100,Boat,2022.1.1,59.968396651683264,
negative,positive,1,j,l,,,,,1,8,26,6,,,,,,,,,,,,,,,,,,,,,,,,,,,,prac,2,2,1,positive,negative,l,l,1,0.6518856000620872,134.16188150004018,135.1625451000873,135.14431130001321,None,134.16188150004018,None,134.16188150004018,None,134.16188150004018,None,135.79500765001868,None,135.79500765001868,None,135.79500765001868,None,,,,,,,,,,,121,22,Female,2022-05-09_09h34.41.100,Boat,2022.1.1,59.968396651683264,
positive,neutral,1,l,j,,,,,1,9,27,8,,,,,,,,,,,,,,,,,,,,,,,,,,,,prac,1,1,1,neutral,positive,j,j,1,0.7666626999853179,135.8129577001091,136.82953810004983,136.79138240008615,None,135.8129577001091,None,135.8129577001091,None,135.8129577001091,None,137.56437285009306,None,137.56437285009306,None,137.56437285009306,None,,,,,,,,,,,121,22,Female,2022-05-09_09h34.41.100,Boat,2022.1.1,59.968396651683264,
negative,neutral,2,j,l,,,,,1,10,28,12,,,,,,,,,,,,,,,,,,,,,,,,,,,,prac,2,2,2,neutral,negative,l,l,1,1.2931208000518382,137.58421280002221,138.59631260007154,138.55780090007465,None,137.58421280002221,None,137.58421280002221,None,137.58421280002221,None,139.86177255001385,None,139.86177255001385,None,139.86177255001385,None,,,,,,,,,,,121,22,Female,2022-05-09_09h34.41.100,Boat,2022.1.1,59.968396651683264,
positive,negative,2,l,j,,,,,1,11,29,14,,,,,,,,,,,,,,,,,,,,,,,,,,,,prac,2,2,2,negative,positive,j,j,1,0.7509332000045106,139.8796149000991,140.89643260010052,140.85762360005174,None,139.8796149000991,None,139.8796149000991,None,139.8796149000991,None,141.6151441500755,None,141.6151441500755,None,141.6151441500755,None,,,,,,,,,,,121,22,Female,2022-05-09_09h34.41.100,Boat,2022.1.1,59.968396651683264,
neutral,neutral,1,k,k,,,,,1,12,30,1,,,,,,,,,,,,,,,,,,,,,,,,,,,,prac,2,2,1,neutral,neutral,k,k,1,0.5434781999792904,141.63188520004041,142.63261880003847,142.615183899994,None,141.63188520004041,None,141.63188520004041,None,141.63188520004041,None,143.16169585005846,None,143.16169585005846,None,143.16169585005846,None,,,,,,,,,,,121,22,Female,2022-05-09_09h34.41.100,Boat,2022.1.1,59.968396651683264,
neutral,negative,1,k,k,,,,,1,13,31,7,,,,,,,,,,,,,,,,,,,,,,,,,,,,prac,1,1,1,negative,neutral,k,k,1,0.5599138999823481,143.18115950003266,144.19528470002115,144.17503290006425,None,143.18115950003266,None,143.18115950003266,None,143.18115950003266,None,144.72622705004179,None,144.72622705004179,None,144.72622705004179,None,,,,,,,,,,,121,22,Female,2022-05-09_09h34.41.100,Boat,2022.1.1,59.968396651683264,
negative,positive,2,j,l,,,,,1,14,32,15,,,,,,,,,,,,,,,,,,,,,,,,,,,,prac,2,2,2,positive,negative,l,j,0,0.5825968000572175,144.74547650001477,145.76385680004023,145.7249579000054,None,144.74547650001477,None,144.74547650001477,None,144.74547650001477,None,146.31613430008292,None,146.31613430008292,None,146.31613430008292,None,,,,,,,,,,,121,22,Female,2022-05-09_09h34.41.100,Boat,2022.1.1,59.968396651683264,
neutral,negative,2,k,k,,,,,1,15,33,16,,,,,,,,,,,,,,,,,,,,,,,,,,,,prac,1,1,2,negative,neutral,k,k,1,0.7020566000137478,147.33281100005843,148.34420480008703,148.3246956000803,None,147.33281100005843,None,147.33281100005843,None,147.33281100005843,None,149.01973485001363,None,149.01973485001363,None,149.01973485001363,None,,,,,,,,,,,121,22,Female,2022-05-09_09h34.41.100,Boat,2022.1.1,59.968396651683264,
negative,neutral,1,j,l,,,,,1,16,34,3,,,,,,,,,,,,,,,,,,,,,,,,,,,,prac,2,2,1,neutral,negative,l,l,1,0.6444769999943674,149.04260080005042,150.04787650005892,150.0134370001033,None,149.04260080005042,None,149.04260080005042,None,149.04260080005042,None,150.66674475008622,None,150.66674475008622,None,150.66674475008622,None,,,,,,,,,,,121,22,Female,2022-05-09_09h34.41.100,Boat,2022.1.1,59.968396651683264,
positive,neutral,2,l,j,,,,,1,17,35,17,,,,,,,,,,,,,,,,,,,,,,,,,,,,prac,1,1,2,neutral,positive,j,j,1,0.6272133000893518,150.68361490010284,151.6965037001064,151.6614225000376,None,150.68361490010284,None,150.68361490010284,None,150.68361490010284,None,152.2970996499993,None,152.2970996499993,None,152.2970996499993,None,,,,,,,,,,,121,22,Female,2022-05-09_09h34.41.100,Boat,2022.1.1,59.968396651683264,
,,,,,,,,,,,,,,,,,,,,,,,,,,,,,,,,,,,,,,,,,,,,,,,,,,,,,,,,,,,,,,,,,,152.3129437000025,None,None,,,,,,,,121,22,Female,2022-05-09_09h34.41.100,Boat,2022.1.1,59.968396651683264,
,,,,,,,,,,,,,,,,,,,,,,,,,,,,,,,,,,,,,,,,,,,,,,,,,,,,,,,,,,,,,,,,,,,,,0.11203704,-0.4037037,1,0,0,0.006019850028678775,None,121,22,Female,2022-05-09_09h34.41.100,Boat,2022.1.1,59.968396651683264,
neutral,positive,2,k,k,,,,,,,,,0,0,0,13,,,,,,,,,,,,,,,,,,,,,,176.92576850007754,None,main,1,1,2,positive,neutral,k,k,1,0.6847271000733599,178.9488511000527,179.9654238000512,179.93063440010883,None,178.9488511000527,None,178.9488511000527,None,178.9488511000527,None,180.61187085006387,None,180.61187085006387,None,180.61187085006387,None,,,,,,,,,,,121,22,Female,2022-05-09_09h34.41.100,Boat,2022.1.1,59.968396651683264,
neutral,neutral,2,k,k,,,,,,,,,0,1,1,10,,,,,,,,,,,,,,,,,,,,,,,,main,2,2,2,neutral,neutral,k,k,1,0.5091155999107286,180.63554839999415,181.64494200004265,181.62519829999655,None,180.63554839999415,None,180.63554839999415,None,180.63554839999415,None,182.12647575009615,None,182.12647575009615,None,182.12647575009615,None,,,,,,,,,,,121,22,Female,2022-05-09_09h34.41.100,Boat,2022.1.1,59.968396651683264,
positive,negative,2,l,j,,,,,,,,,0,2,2,14,,,,,,,,,,,,,,,,,,,,,,,,main,1,1,2,negative,positive,j,j,1,0.613789499970153,182.14459460007492,183.15417360002175,183.1168835000135,None,182.14459460007492,None,182.14459460007492,None,182.14459460007492,None,183.74367745008786,None,183.74367745008786,None,183.74367745008786,None,,,,,,,,,,,121,22,Female,2022-05-09_09h34.41.100,Boat,2022.1.1,59.968396651683264,
negative,negative,2,j,l,,,,,,,,,0,3,3,9,,,,,,,,,,,,,,,,,,,,,,,,main,2,2,2,negative,negative,l,k,0,0.5231467999983579,183.76294889999554,184.76514370006043,184.7473825000925,None,183.76294889999554,None,183.76294889999554,None,183.76294889999554,None,185.27571499999613,None,185.27571499999613,None,185.27571499999613,None,,,,,,,,,,,121,22,Female,2022-05-09_09h34.41.100,Boat,2022.1.1,59.968396651683264,
positive,neutral,1,l,j,,,,,,,,,0,4,4,8,,,,,,,,,,,,,,,,,,,,,,,,main,2,2,1,neutral,positive,j,j,1,1.1734920999733731,186.28312350006308,187.2881795000285,187.2701685000211,None,186.28312350006308,None,186.28312350006308,None,186.28312350006308,None,188.4433069500141,None,188.4433069500141,None,188.4433069500141,None,,,,,,,,,,,121,22,Female,2022-05-09_09h34.41.100,Boat,2022.1.1,59.968396651683264,
negative,positive,2,j,l,,,,,,,,,0,5,5,15,,,,,,,,,,,,,,,,,,,,,,,,main,2,2,2,positive,negative,l,l,1,0.7556199999526143,188.4607869000174,189.47117520007305,189.43424130009953,None,188.4607869000174,None,188.4607869000174,None,188.4607869000174,None,190.1998726500664,None,190.1998726500664,None,190.1998726500664,None,,,,,,,,,,,121,22,Female,2022-05-09_09h34.41.100,Boat,2022.1.1,59.968396651683264,
neutral,neutral,1,k,k,,,,,,,,,0,6,6,1,,,,,,,,,,,,,,,,,,,,,,,,main,2,2,1,neutral,neutral,k,k,1,0.5778901999583468,190.22061660001054,191.23328460007906,191.19761330005713,None,190.22061660001054,None,190.22061660001054,None,190.22061660001054,None,191.78100305001718,None,191.78100305001718,None,191.78100305001718,None,,,,,,,,,,,121,22,Female,2022-05-09_09h34.41.100,Boat,2022.1.1,59.968396651683264,
negative,neutral,1,j,l,,,,,,,,,0,7,7,3,,,,,,,,,,,,,,,,,,,,,,,,main,1,1,1,neutral,negative,l,l,1,0.6241392000811175,191.79899330006447,192.8136221000459,192.77203310001642,None,191.79899330006447,None,191.79899330006447,None,191.79899330006447,None,193.40875775003806,None,193.40875775003806,None,193.40875775003806,None,,,,,,,,,,,121,22,Female,2022-05-09_09h34.41.100,Boat,2022.1.1,59.968396651683264,
positive,neutral,2,l,j,,,,,,,,,0,8,8,17,,,,,,,,,,,,,,,,,,,,,,,,main,2,2,2,neutral,positive,j,j,1,0.5639278000453487,193.4273556000553,194.43368800007738,194.3985964000458,None,193.4273556000553,None,193.4273556000553,None,193.4273556000553,None,194.97565695000813,None,194.97565695000813,None,194.97565695000813,None,,,,,,,,,,,121,22,Female,2022-05-09_09h34.41.100,Boat,2022.1.1,59.968396651683264,
negative,negative,1,j,l,,,,,,,,,0,9,9,0,,,,,,,,,,,,,,,,,,,,,,,,main,2,2,1,negative,negative,l,l,1,0.6372351000318304,194.99690320005175,196.01461690000724,195.97885130008217,None,194.99690320005175,None,194.99690320005175,None,194.99690320005175,None,196.6144414500799,None,196.6144414500799,None,196.6144414500799,None,,,,,,,,,,,121,22,Female,2022-05-09_09h34.41.100,Boat,2022.1.1,59.968396651683264,
positive,positive,1,l,j,,,,,,,,,0,10,10,2,,,,,,,,,,,,,,,,,,,,,,,,main,2,2,1,positive,positive,j,j,1,0.6022923999698833,196.63335210003424,197.63753680000082,197.61851470009424,None,196.63335210003424,None,196.63335210003424,None,196.63335210003424,None,198.21879605003633,None,198.21879605003633,None,198.21879605003633,None,,,,,,,,,,,121,22,Female,2022-05-09_09h34.41.100,Boat,2022.1.1,59.968396651683264,
positive,negative,1,l,j,,,,,,,,,0,11,11,5,,,,,,,,,,,,,,,,,,,,,,,,main,1,1,1,negative,positive,j,j,1,0.5877704999875277,198.23768550006207,199.24556070007384,199.22584770002868,None,198.23768550006207,None,198.23768550006207,None,198.23768550006207,None,199.81098745004275,None,199.81098745004275,None,199.81098745004275,None,,,,,,,,,,,121,22,Female,2022-05-09_09h34.41.100,Boat,2022.1.1,59.968396651683264,
positive,positive,2,l,j,,,,,,,,,0,12,12,11,,,,,,,,,,,,,,,,,,,,,,,,main,1,1,2,positive,positive,j,j,1,0.5569072000216693,199.8305560000008,200.8313557000365,200.81447169999592,None,199.8305560000008,None,199.8305560000008,None,199.8305560000008,None,201.37129865002353,None,201.37129865002353,None,201.37129865002353,None,,,,,,,,,,,121,22,Female,2022-05-09_09h34.41.100,Boat,2022.1.1,59.968396651683264,
negative,positive,1,j,l,,,,,,,,,0,13,13,6,,,,,,,,,,,,,,,,,,,,,,,,main,1,1,1,positive,negative,l,l,1,0.6470398000674322,201.387873700005,202.39819760003593,202.36224899999797,None,201.387873700005,None,201.387873700005,None,201.387873700005,None,203.019334450108,None,203.019334450108,None,203.019334450108,None,,,,,,,,,,,121,22,Female,2022-05-09_09h34.41.100,Boat,2022.1.1,59.968396651683264,
neutral,negative,2,k,k,,,,,,,,,0,14,14,16,,,,,,,,,,,,,,,,,,,,,,,,main,2,2,2,negative,neutral,k,k,1,0.5763980000047013,203.04272360005416,204.04854390001856,204.0144059000304,None,203.04272360005416,None,203.04272360005416,None,203.04272360005416,None,204.59886445009616,None,204.59886445009616,None,204.59886445009616,None,,,,,,,,,,,121,22,Female,2022-05-09_09h34.41.100,Boat,2022.1.1,59.968396651683264,
neutral,negative,1,k,k,,,,,,,,,0,15,15,7,,,,,,,,,,,,,,,,,,,,,,,,main,2,2,1,negative,neutral,k,k,1,0.6035739999497309,204.61681230005343,205.6335304999957,205.59800430003088,None,204.61681230005343,None,204.61681230005343,None,204.61681230005343,None,206.20275055009407,None,206.20275055009407,None,206.20275055009407,None,,,,,,,,,,,121,22,Female,2022-05-09_09h34.41.100,Boat,2022.1.1,59.968396651683264,
negative,neutral,2,j,l,,,,,,,,,0,16,16,12,,,,,,,,,,,,,,,,,,,,,,,,main,2,2,2,neutral,negative,l,l,1,0.7719481000676751,206.22630090010352,207.24716160004027,207.2055195000721,None,206.22630090010352,None,206.22630090010352,None,206.22630090010352,None,207.98024305000436,None,207.98024305000436,None,207.98024305000436,None,,,,,,,,,,,121,22,Female,2022-05-09_09h34.41.100,Boat,2022.1.1,59.968396651683264,
neutral,positive,1,k,k,,,,,,,,,0,17,17,4,,,,,,,,,,,,,,,,,,,,,,,,main,2,2,1,positive,neutral,k,k,1,0.9523116999771446,207.9992696000263,209.0163528000703,208.98140930000227,None,207.9992696000263,None,207.9992696000263,None,207.9992696000263,None,209.93501805011184,None,209.93501805011184,None,209.93501805011184,None,,,,,,,,,,,121,22,Female,2022-05-09_09h34.41.100,Boat,2022.1.1,59.968396651683264,
negative,negative,2,j,l,,,,,,,,,1,0,18,9,,,,,,,,,,,,,,,,,,,,,,,,main,2,2,2,negative,negative,l,l,1,0.6546476000221446,209.95353719999548,210.96520770003553,210.92984960007016,None,209.95353719999548,None,209.95353719999548,None,209.95353719999548,None,211.59382765004412,None,211.59382765004412,None,211.59382765004412,None,,,,,,,,,,,121,22,Female,2022-05-09_09h34.41.100,Boat,2022.1.1,59.968396651683264,
positive,negative,2,l,j,,,,,,,,,1,1,19,14,,,,,,,,,,,,,,,,,,,,,,,,main,2,2,2,negative,positive,j,j,1,0.6837271000258625,211.61332900007255,212.63149880000856,212.59279200003948,None,211.61332900007255,None,211.61332900007255,None,211.61332900007255,None,213.28012105005328,None,213.28012105005328,None,213.28012105005328,None,,,,,,,,,,,121,22,Female,2022-05-09_09h34.41.100,Boat,2022.1.1,59.968396651683264,
negative,neutral,2,j,l,,,,,,,,,1,2,20,12,,,,,,,,,,,,,,,,,,,,,,,,main,1,1,2,neutral,negative,l,l,1,0.6113555999472737,213.2980005000718,214.31473510002252,214.27609689999372,None,213.2980005000718,None,213.2980005000718,None,213.2980005000718,None,214.89584355007392,None,214.89584355007392,None,214.89584355007392,None,,,,,,,,,,,121,22,Female,2022-05-09_09h34.41.100,Boat,2022.1.1,59.968396651683264,
negative,positive,2,j,l,,,,,,,,,1,3,21,15,,,,,,,,,,,,,,,,,,,,,,,,main,2,2,2,positive,negative,l,l,1,0.600541100022383,214.91332920000423,215.91623060009442,215.88145660003647,None,214.91332920000423,None,214.91332920000423,None,214.91332920000423,None,216.4965010500513,None,216.4965010500513,None,216.4965010500513,None,,,,,,,,,,,121,22,Female,2022-05-09_09h34.41.100,Boat,2022.1.1,59.968396651683264,
negative,positive,1,j,l,,,,,,,,,1,4,22,6,,,,,,,,,,,,,,,,,,,,,,,,main,1,1,1,positive,negative,l,l,1,0.7535510000307113,216.5168558000587,217.52207450009882,217.50395020004362,None,216.5168558000587,None,216.5168558000587,None,216.5168558000587,None,218.2549606500892,None,218.2549606500892,None,218.2549606500892,None,,,,,,,,,,,121,22,Female,2022-05-09_09h34.41.100,Boat,2022.1.1,59.968396651683264,
neutral,negative,1,k,k,,,,,,,,,1,5,23,7,,,,,,,,,,,,,,,,,,,,,,,,main,2,2,1,negative,neutral,k,l,0,0.5134192000841722,218.27740400005132,219.28170260007028,219.2481667000102,None,218.27740400005132,None,218.27740400005132,None,218.27740400005132,None,219.77536250010598,None,219.77536250010598,None,219.77536250010598,None,,,,,,,,,,,121,22,Female,2022-05-09_09h34.41.100,Boat,2022.1.1,59.968396651683264,
positive,positive,1,l,j,,,,,,,,,1,6,24,2,,,,,,,,,,,,,,,,,,,,,,,,main,2,2,1,positive,positive,j,j,1,0.659885699977167,220.78487830003724,221.79822720005177,221.7804332000669,None,220.78487830003724,None,220.78487830003724,None,220.78487830003724,None,222.42991755004041,None,222.42991755004041,None,222.42991755004041,None,,,,,,,,,,,121,22,Female,2022-05-09_09h34.41.100,Boat,2022.1.1,59.968396651683264,
neutral,positive,1,k,k,,,,,,,,,1,7,25,4,,,,,,,,,,,,,,,,,,,,,,,,main,2,2,1,positive,neutral,k,k,1,0.5945876999758184,222.44975600007456,223.45176610001363,223.43335690000094,None,222.44975600007456,None,222.44975600007456,None,222.44975600007456,None,224.0296141500352,None,224.0296141500352,None,224.0296141500352,None,,,,,,,,,,,121,22,Female,2022-05-09_09h34.41.100,Boat,2022.1.1,59.968396651683264,
positive,neutral,2,l,j,,,,,,,,,1,8,26,17,,,,,,,,,,,,,,,,,,,,,,,,main,1,1,2,neutral,positive,j,j,1,0.5974099999293685,224.04720290005207,225.05059300002176,225.01529500004835,None,224.04720290005207,None,224.04720290005207,None,224.04720290005207,None,225.63002775001806,None,225.63002775001806,None,225.63002775001806,None,,,,,,,,,,,121,22,Female,2022-05-09_09h34.41.100,Boat,2022.1.1,59.968396651683264,
negative,negative,1,j,l,,,,,,,,,1,9,27,0,,,,,,,,,,,,,,,,,,,,,,,,main,2,2,1,negative,negative,l,l,1,0.7657033000141382,225.64903910004068,226.66298610006925,226.64322430000175,None,225.64903910004068,None,225.64903910004068,None,225.64903910004068,None,227.39723695009016,None,227.39723695009016,None,227.39723695009016,None,,,,,,,,,,,121,22,Female,2022-05-09_09h34.41.100,Boat,2022.1.1,59.968396651683264,
neutral,positive,2,k,k,,,,,,,,,1,10,28,13,,,,,,,,,,,,,,,,,,,,,,,,main,1,1,2,positive,neutral,k,k,1,0.5784634000156075,227.4171341001056,228.43214110005647,228.3966510000173,None,227.4171341001056,None,227.4171341001056,None,227.4171341001056,None,228.98036645001267,None,228.98036645001267,None,228.98036645001267,None,,,,,,,,,,,121,22,Female,2022-05-09_09h34.41.100,Boat,2022.1.1,59.968396651683264,
neutral,neutral,2,k,k,,,,,,,,,1,11,29,10,,,,,,,,,,,,,,,,,,,,,,,,main,1,1,2,neutral,neutral,k,k,1,0.5019833999685943,228.99944929999765,230.01548699999694,229.9816162000643,None,228.99944929999765,None,228.99944929999765,None,228.99944929999765,None,230.48469425002114,None,230.48469425002114,None,230.48469425002114,None,,,,,,,,,,,121,22,Female,2022-05-09_09h34.41.100,Boat,2022.1.1,59.968396651683264,
neutral,neutral,1,k,k,,,,,,,,,1,12,30,1,,,,,,,,,,,,,,,,,,,,,,,,main,2,2,1,neutral,neutral,k,k,1,0.5381308000069112,230.50468950008508,231.5135917000007,231.4923861999996,None,230.50468950008508,None,230.50468950008508,None,230.50468950008508,None,232.02857625004836,None,232.02857625004836,None,232.02857625004836,None,,,,,,,,,,,121,22,Female,2022-05-09_09h34.41.100,Boat,2022.1.1,59.968396651683264,
positive,positive,2,l,j,,,,,,,,,1,13,31,11,,,,,,,,,,,,,,,,,,,,,,,,main,1,1,2,positive,positive,j,j,1,0.5573446999769658,232.04736409999896,233.06155220000073,233.02037070004735,None,232.04736409999896,None,232.04736409999896,None,232.04736409999896,None,233.58861105001998,None,233.58861105001998,None,233.58861105001998,None,,,,,,,,,,,121,22,Female,2022-05-09_09h34.41.100,Boat,2022.1.1,59.968396651683264,
positive,negative,1,l,j,,,,,,,,,1,14,32,5,,,,,,,,,,,,,,,,,,,,,,,,main,1,1,1,negative,positive,j,j,1,0.6094793999800459,233.60837700008415,234.6152393000666,234.59679760003928,None,233.60837700008415,None,233.60837700008415,None,233.60837700008415,None,235.19837325005793,None,235.19837325005793,None,235.19837325005793,None,,,,,,,,,,,121,22,Female,2022-05-09_09h34.41.100,Boat,2022.1.1,59.968396651683264,
neutral,negative,2,k,k,,,,,,,,,1,15,33,16,,,,,,,,,,,,,,,,,,,,,,,,main,1,1,2,negative,neutral,k,k,1,0.6083943999838084,235.21860630006995,236.23199560004286,236.19326090009417,None,235.21860630006995,None,235.21860630006995,None,235.21860630006995,None,236.8113813500153,None,236.8113813500153,None,236.8113813500153,None,,,,,,,,,,,121,22,Female,2022-05-09_09h34.41.100,Boat,2022.1.1,59.968396651683264,
negative,neutral,1,j,l,,,,,,,,,1,16,34,3,,,,,,,,,,,,,,,,,,,,,,,,main,2,2,1,neutral,negative,l,l,1,0.7167520000366494,236.8325151000172,237.83224270003848,237.8153918000171,None,236.8325151000172,None,236.8325151000172,None,236.8325151000172,None,238.5324798500864,None,238.5324798500864,None,238.5324798500864,None,,,,,,,,,,,121,22,Female,2022-05-09_09h34.41.100,Boat,2022.1.1,59.968396651683264,
positive,neutral,1,l,j,,,,,,,,,1,17,35,8,,,,,,,,,,,,,,,,,,,,,,,,main,1,1,1,neutral,positive,j,j,1,0.7417565999785438,238.5503802000312,239.56480000005104,239.52676250005607,None,238.5503802000312,None,238.5503802000312,None,238.5503802000312,None,240.27865355005488,None,240.27865355005488,None,240.27865355005488,None,,,,,,,,,,,121,22,Female,2022-05-09_09h34.41.100,Boat,2022.1.1,59.968396651683264,
negative,negative,2,j,l,,,,,,,,,2,0,36,9,,,,,,,,,,,,,,,,,,,,,,,,main,2,2,2,negative,negative,l,l,1,0.7126756999641657,240.29558720008936,241.30084040004294,241.2653746000724,None,240.29558720008936,None,240.29558720008936,None,240.29558720008936,None,241.99403095010203,None,241.99403095010203,None,241.99403095010203,None,,,,,,,,,,,121,22,Female,2022-05-09_09h34.41.100,Boat,2022.1.1,59.968396651683264,
negative,neutral,1,j,l,,,,,,,,,2,1,37,3,,,,,,,,,,,,,,,,,,,,,,,,main,2,2,1,neutral,negative,l,l,1,0.5845391000621021,242.01427640009206,243.0229736000765,242.98526410001796,None,242.01427640009206,None,242.01427640009206,None,242.01427640009206,None,243.58071475008038,None,243.58071475008038,None,243.58071475008038,None,,,,,,,,,,,121,22,Female,2022-05-09_09h34.41.100,Boat,2022.1.1,59.968396651683264,
neutral,positive,2,k,k,,,,,,,,,2,2,38,13,,,,,,,,,,,,,,,,,,,,,,,,main,2,2,2,positive,neutral,k,k,1,0.539818000048399,243.6007791000884,244.61787680000998,244.5822613000637,None,243.6007791000884,None,243.6007791000884,None,243.6007791000884,None,245.12413185006008,None,245.12413185006008,None,245.12413185006008,None,,,,,,,,,,,121,22,Female,2022-05-09_09h34.41.100,Boat,2022.1.1,59.968396651683264,
negative,positive,2,j,l,,,,,,,,,2,3,39,15,,,,,,,,,,,,,,,,,,,,,,,,main,1,1,2,positive,negative,l,l,1,0.6295439000241458,245.14372000005096,246.14956950000487,246.11549160000868,None,245.14372000005096,None,245.14372000005096,None,245.14372000005096,None,246.7546770500252,None,246.7546770500252,None,246.7546770500252,None,,,,,,,,,,,121,22,Female,2022-05-09_09h34.41.100,Boat,2022.1.1,59.968396651683264,
positive,negative,2,l,j,,,,,,,,,2,4,40,14,,,,,,,,,,,,,,,,,,,,,,,,main,1,1,2,negative,positive,j,j,1,0.6458674999885261,246.7755513000302,247.78211170004215,247.74874330009334,None,246.7755513000302,None,246.7755513000302,None,246.7755513000302,None,248.40300855003298,None,248.40300855003298,None,248.40300855003298,None,,,,,,,,,,,121,22,Female,2022-05-09_09h34.41.100,Boat,2022.1.1,59.968396651683264,
negative,positive,1,j,l,,,,,,,,,2,5,41,6,,,,,,,,,,,,,,,,,,,,,,,,main,2,2,1,positive,negative,l,l,1,0.6656761999474838,248.42610200005583,249.42998250003438,249.41028210008517,None,248.42610200005583,None,248.42610200005583,None,248.42610200005583,None,250.07349635006395,None,250.07349635006395,None,250.07349635006395,None,,,,,,,,,,,121,22,Female,2022-05-09_09h34.41.100,Boat,2022.1.1,59.968396651683264,
neutral,negative,1,k,k,,,,,,,,,2,6,42,7,,,,,,,,,,,,,,,,,,,,,,,,main,1,1,1,negative,neutral,k,k,1,0.6509443999966606,250.09144510002807,251.1023198000621,251.06614920007996,None,250.09144510002807,None,250.09144510002807,None,250.09144510002807,None,251.7272725500865,None,251.7272725500865,None,251.7272725500865,None,,,,,,,,,,,121,22,Female,2022-05-09_09h34.41.100,Boat,2022.1.1,59.968396651683264,
neutral,negative,2,k,k,,,,,,,,,2,7,43,16,,,,,,,,,,,,,,,,,,,,,,,,main,2,2,2,negative,neutral,k,k,1,0.571331400074996,251.74786640005186,252.75297260005027,252.73501810000744,None,251.74786640005186,None,251.74786640005186,None,251.74786640005186,None,253.29874145004433,None,253.29874145004433,None,253.29874145004433,None,,,,,,,,,,,121,22,Female,2022-05-09_09h34.41.100,Boat,2022.1.1,59.968396651683264,
neutral,neutral,2,k,k,,,,,,,,,2,8,44,10,,,,,,,,,,,,,,,,,,,,,,,,main,2,2,2,neutral,neutral,k,k,1,0.509029500070028,253.31936459999997,254.3330297000939,254.2989679001039,None,253.31936459999997,None,253.31936459999997,None,253.31936459999997,None,254.81301435010974,None,254.81301435010974,None,254.81301435010974,None,,,,,,,,,,,121,22,Female,2022-05-09_09h34.41.100,Boat,2022.1.1,59.968396651683264,
positive,positive,1,l,j,,,,,,,,,2,9,45,2,,,,,,,,,,,,,,,,,,,,,,,,main,2,2,1,positive,positive,j,j,1,0.5810135999927297,254.83199690002948,255.8488609000342,255.8103456000099,None,254.83199690002948,None,254.83199690002948,None,254.83199690002948,None,256.3979202500544,None,256.3979202500544,None,256.3979202500544,None,,,,,,,,,,,121,22,Female,2022-05-09_09h34.41.100,Boat,2022.1.1,59.968396651683264,
negative,neutral,2,j,l,,,,,,,,,2,10,46,12,,,,,,,,,,,,,,,,,,,,,,,,main,1,1,2,neutral,negative,l,l,1,0.6273287000367418,256.4163916000398,257.41993860004004,257.39883840002585,None,256.4163916000398,None,256.4163916000398,None,256.4163916000398,None,258.029129750072,None,258.029129750072,None,258.029129750072,None,,,,,,,,,,,121,22,Female,2022-05-09_09h34.41.100,Boat,2022.1.1,59.968396651683264,
positive,negative,1,l,j,,,,,,,,,2,11,47,5,,,,,,,,,,,,,,,,,,,,,,,,main,2,2,1,negative,positive,j,j,1,0.6646056999452412,258.0500403000042,259.05377300002147,259.03546510008164,None,258.0500403000042,None,258.0500403000042,None,258.0500403000042,None,259.6977429500315,None,259.6977429500315,None,259.6977429500315,None,,,,,,,,,,,121,22,Female,2022-05-09_09h34.41.100,Boat,2022.1.1,59.968396651683264,
positive,neutral,1,l,j,,,,,,,,,2,12,48,8,,,,,,,,,,,,,,,,,,,,,,,,main,1,1,1,neutral,positive,j,j,1,0.5754359000129625,259.7165253000567,260.73097160004545,260.6890019000275,None,259.7165253000567,None,259.7165253000567,None,259.7165253000567,None,261.27775195005813,None,261.27775195005813,None,261.27775195005813,None,,,,,,,,,,,121,22,Female,2022-05-09_09h34.41.100,Boat,2022.1.1,59.968396651683264,
positive,positive,2,l,j,,,,,,,,,2,13,49,11,,,,,,,,,,,,,,,,,,,,,,,,main,2,2,2,positive,positive,j,j,1,0.5646938000572845,261.2983927000314,262.29999460000545,262.28297660010867,None,261.2983927000314,None,261.2983927000314,None,261.2983927000314,None,262.84452655001076,None,262.84452655001076,None,262.84452655001076,None,,,,,,,,,,,121,22,Female,2022-05-09_09h34.41.100,Boat,2022.1.1,59.968396651683264,
neutral,positive,1,k,k,,,,,,,,,2,14,50,4,,,,,,,,,,,,,,,,,,,,,,,,main,2,2,1,positive,neutral,k,k,1,0.608445500023663,262.86486660002265,263.8659663000144,263.8492153000552,None,262.86486660002265,None,262.86486660002265,None,262.86486660002265,None,264.45402085010426,None,264.45402085010426,None,264.45402085010426,None,,,,,,,,,,,121,22,Female,2022-05-09_09h34.41.100,Boat,2022.1.1,59.968396651683264,
positive,neutral,2,l,j,,,,,,,,,2,15,51,17,,,,,,,,,,,,,,,,,,,,,,,,main,2,2,2,neutral,positive,j,j,1,0.6630308000603691,264.4727999001043,265.4886908000335,265.4522366001038,None,264.4727999001043,None,264.4727999001043,None,264.4727999001043,None,266.1197667500004,None,266.1197667500004,None,266.1197667500004,None,,,,,,,,,,,121,22,Female,2022-05-09_09h34.41.100,Boat,2022.1.1,59.968396651683264,
negative,negative,1,j,l,,,,,,,,,2,16,52,0,,,,,,,,,,,,,,,,,,,,,,,,main,1,1,1,negative,negative,l,l,1,0.648992000031285,266.1382520000916,267.1439444000134,267.12423840002157,None,266.1382520000916,None,266.1382520000916,None,266.1382520000916,None,267.7726902500493,None,267.7726902500493,None,267.7726902500493,None,,,,,,,,,,,121,22,Female,2022-05-09_09h34.41.100,Boat,2022.1.1,59.968396651683264,
neutral,neutral,1,k,k,,,,,,,,,2,17,53,1,,,,,,,,,,,,,,,,,,,,,,,,main,2,2,1,neutral,neutral,k,k,1,0.5681633999338374,267.79407440009527,268.7972631000448,268.77726080000866,None,267.79407440009527,None,267.79407440009527,None,267.79407440009527,None,269.3442431500647,None,269.3442431500647,None,269.3442431500647,None,,,,,,,,,,,121,22,Female,2022-05-09_09h34.41.100,Boat,2022.1.1,59.968396651683264,
positive,positive,1,l,j,,,,,,,,,3,0,54,2,,,,,,,,,,,,,,,,,,,,,,,,main,2,2,1,positive,positive,j,j,1,0.601501900004223,269.3652148999972,270.36614060006104,270.347737000091,None,269.3652148999972,None,269.3652148999972,None,269.3652148999972,None,270.9479087500134,None,270.9479087500134,None,270.9479087500134,None,,,,,,,,,,,121,22,Female,2022-05-09_09h34.41.100,Boat,2022.1.1,59.968396651683264,
positive,negative,2,l,j,,,,,,,,,3,1,55,14,,,,,,,,,,,,,,,,,,,,,,,,main,1,1,2,negative,positive,j,j,1,0.7520982000278309,270.9695648000343,271.99431700003333,271.94686240004376,None,270.9695648000343,None,270.9695648000343,None,270.9695648000343,None,272.7042695500189,None,272.7042695500189,None,272.7042695500189,None,,,,,,,,,,,121,22,Female,2022-05-09_09h34.41.100,Boat,2022.1.1,59.968396651683264,
negative,positive,1,j,l,,,,,,,,,3,2,56,6,,,,,,,,,,,,,,,,,,,,,,,,main,2,2,1,positive,negative,l,l,1,0.7088434000033885,272.7226066000294,273.74443180009257,273.70442500000354,None,272.7226066000294,None,272.7226066000294,None,272.7226066000294,None,274.4160122500965,None,274.4160122500965,None,274.4160122500965,None,,,,,,,,,,,121,22,Female,2022-05-09_09h34.41.100,Boat,2022.1.1,59.968396651683264,
negative,positive,2,j,l,,,,,,,,,3,3,57,15,,,,,,,,,,,,,,,,,,,,,,,,main,2,2,2,positive,negative,l,l,1,0.7138161000330001,274.43567480007187,275.4569754000986,275.41752390004694,None,274.43567480007187,None,274.43567480007187,None,274.43567480007187,None,276.1327009500004,None,276.1327009500004,None,276.1327009500004,None,,,,,,,,,,,121,22,Female,2022-05-09_09h34.41.100,Boat,2022.1.1,59.968396651683264,
positive,negative,1,l,j,,,,,,,,,3,4,58,5,,,,,,,,,,,,,,,,,,,,,,,,main,2,2,1,negative,positive,j,j,1,0.6986798000289127,276.15161250007804,277.1524886999978,277.13460720004514,None,276.15161250007804,None,276.15161250007804,None,276.15161250007804,None,277.83382565001955,None,277.83382565001955,None,277.83382565001955,None,,,,,,,,,,,121,22,Female,2022-05-09_09h34.41.100,Boat,2022.1.1,59.968396651683264,
negative,negative,1,j,l,,,,,,,,,3,5,59,0,,,,,,,,,,,,,,,,,,,,,,,,main,2,2,1,negative,negative,l,l,1,0.7406376999570057,277.8541426000884,278.86096270009875,278.84037710004486,None,277.8541426000884,None,277.8541426000884,None,277.8541426000884,None,279.57875615006776,None,279.57875615006776,None,279.57875615006776,None,,,,,,,,,,,121,22,Female,2022-05-09_09h34.41.100,Boat,2022.1.1,59.968396651683264,
neutral,negative,2,k,k,,,,,,,,,3,6,60,16,,,,,,,,,,,,,,,,,,,,,,,,main,1,1,2,negative,neutral,k,k,1,0.591600599931553,279.5985140000703,280.6145897000097,280.5945595999947,None,279.5985140000703,None,279.5985140000703,None,279.5985140000703,None,281.1737685500178,None,281.1737685500178,None,281.1737685500178,None,,,,,,,,,,,121,22,Female,2022-05-09_09h34.41.100,Boat,2022.1.1,59.968396651683264,
neutral,positive,1,k,k,,,,,,,,,3,7,61,4,,,,,,,,,,,,,,,,,,,,,,,,main,1,1,1,positive,neutral,k,k,1,0.5642054000636563,281.1941402000375,282.211004300043,282.1706969999941,None,281.1941402000375,None,281.1941402000375,None,281.1941402000375,None,282.74006765007505,None,282.74006765007505,None,282.74006765007505,None,,,,,,,,,,,121,22,Female,2022-05-09_09h34.41.100,Boat,2022.1.1,59.968396651683264,
neutral,neutral,2,k,k,,,,,,,,,3,8,62,10,,,,,,,,,,,,,,,,,,,,,,,,main,2,2,2,neutral,neutral,k,k,1,0.5545478999847546,282.758902200032,283.7724939000327,283.7358511000639,None,282.758902200032,None,282.758902200032,None,282.758902200032,None,284.2979864499997,None,284.2979864499997,None,284.2979864499997,None,,,,,,,,,,,121,22,Female,2022-05-09_09h34.41.100,Boat,2022.1.1,59.968396651683264,
neutral,negative,1,k,k,,,,,,,,,3,9,63,7,,,,,,,,,,,,,,,,,,,,,,,,main,2,2,1,negative,neutral,k,k,1,0.5578395999036729,284.31513660005294,285.3442423000233,285.2973386000376,None,284.31513660005294,None,284.31513660005294,None,284.31513660005294,None,285.85904315006917,None,285.85904315006917,None,285.85904315006917,None,,,,,,,,,,,121,22,Female,2022-05-09_09h34.41.100,Boat,2022.1.1,59.968396651683264,
positive,positive,2,l,j,,,,,,,,,3,10,64,11,,,,,,,,,,,,,,,,,,,,,,,,main,2,2,2,positive,positive,j,j,1,0.56220080005005,285.8770797000034,286.88590079999994,286.8497264001053,None,285.8770797000034,None,285.8770797000034,None,285.8770797000034,None,287.42372035000005,None,287.42372035000005,None,287.42372035000005,None,,,,,,,,,,,121,22,Female,2022-05-09_09h34.41.100,Boat,2022.1.1,59.968396651683264,
neutral,neutral,1,k,k,,,,,,,,,3,11,65,1,,,,,,,,,,,,,,,,,,,,,,,,main,1,1,1,neutral,neutral,k,k,1,0.5899128000019118,287.4417809000006,288.4494966000784,288.4324717000127,None,287.4417809000006,None,287.4417809000006,None,287.4417809000006,None,289.0160552500514,None,289.0160552500514,None,289.0160552500514,None,,,,,,,,,,,121,22,Female,2022-05-09_09h34.41.100,Boat,2022.1.1,59.968396651683264,
negative,neutral,2,j,l,,,,,,,,,3,12,66,12,,,,,,,,,,,,,,,,,,,,,,,,main,2,2,2,neutral,negative,l,j,0,0.5438566000666469,289.0341690001078,290.03584310004953,290.01795160002075,None,289.0341690001078,None,289.0341690001078,None,289.0341690001078,None,290.5682127000764,None,290.5682127000764,None,290.5682127000764,None,,,,,,,,,,,121,22,Female,2022-05-09_09h34.41.100,Boat,2022.1.1,59.968396651683264,
negative,negative,2,j,l,,,,,,,,,3,13,67,9,,,,,,,,,,,,,,,,,,,,,,,,main,2,2,2,negative,negative,l,l,1,0.655792300007306,291.5862793000415,292.6005643000826,292.5648104000138,None,291.5862793000415,None,291.5862793000415,None,291.5862793000415,None,293.2274271500995,None,293.2274271500995,None,293.2274271500995,None,,,,,,,,,,,121,22,Female,2022-05-09_09h34.41.100,Boat,2022.1.1,59.968396651683264,
positive,neutral,2,l,j,,,,,,,,,3,14,68,17,,,,,,,,,,,,,,,,,,,,,,,,main,2,2,2,neutral,positive,j,j,1,0.5972083000233397,293.2485610001022,294.2503681000089,294.23320930008776,None,293.2485610001022,None,293.2485610001022,None,293.2485610001022,None,294.8286284500267,None,294.8286284500267,None,294.8286284500267,None,,,,,,,,,,,121,22,Female,2022-05-09_09h34.41.100,Boat,2022.1.1,59.968396651683264,
negative,neutral,1,j,l,,,,,,,,,3,15,69,3,,,,,,,,,,,,,,,,,,,,,,,,main,1,1,1,neutral,negative,l,l,1,0.6629946000175551,294.848880500067,295.85019920009654,295.81655360001605,None,294.848880500067,None,294.848880500067,None,294.848880500067,None,296.49413245005996,None,296.49413245005996,None,296.49413245005996,None,,,,,,,,,,,121,22,Female,2022-05-09_09h34.41.100,Boat,2022.1.1,59.968396651683264,
neutral,positive,2,k,k,,,,,,,,,3,16,70,13,,,,,,,,,,,,,,,,,,,,,,,,main,1,1,2,positive,neutral,k,k,1,0.5105423999484628,296.5154423000058,297.5192014001077,297.50027050008066,None,296.5154423000058,None,296.5154423000058,None,296.5154423000058,None,298.0078616500599,None,298.0078616500599,None,298.0078616500599,None,,,,,,,,,,,121,22,Female,2022-05-09_09h34.41.100,Boat,2022.1.1,59.968396651683264,
positive,neutral,1,l,j,,,,,,,,,3,17,71,8,,,,,,,,,,,,,,,,,,,,,,,,main,1,1,1,neutral,positive,j,j,1,0.6218790999846533,298.02587540005334,299.0413038000697,299.01440500002354,None,298.02587540005334,None,298.02587540005334,None,298.02587540005334,None,299.6327961500268,None,299.6327961500268,None,299.6327961500268,None,,,,,,,,,,,121,22,Female,2022-05-09_09h34.41.100,Boat,2022.1.1,59.968396651683264,
positive,neutral,1,l,j,,,,,,,,,4,0,72,8,,,,,,,,,,,,,,,,,,,,,,,,main,1,1,1,neutral,positive,j,j,1,0.4997351999627426,299.6517088999972,300.67468310007825,300.6332808000734,None,299.6517088999972,None,299.6517088999972,None,299.6517088999972,None,301.1355068500619,None,301.1355068500619,None,301.1355068500619,None,,,,,,,,,,,121,22,Female,2022-05-09_09h34.41.100,Boat,2022.1.1,59.968396651683264,
negative,negative,2,j,l,,,,,,,,,4,1,73,9,,,,,,,,,,,,,,,,,,,,,,,,main,1,1,2,negative,negative,l,l,1,0.630433400045149,301.15392780001275,302.1673207000131,302.13325300009456,None,301.15392780001275,None,301.15392780001275,None,301.15392780001275,None,302.76879245005546,None,302.76879245005546,None,302.76879245005546,None,,,,,,,,,,,121,22,Female,2022-05-09_09h34.41.100,Boat,2022.1.1,59.968396651683264,
negative,neutral,2,j,l,,,,,,,,,4,2,74,12,,,,,,,,,,,,,,,,,,,,,,,,main,1,1,2,neutral,negative,l,l,1,0.5265005000401288,302.78851209999993,303.79548630001955,303.7734575000359,None,302.78851209999993,None,302.78851209999993,None,302.78851209999993,None,304.30030225005464,None,304.30030225005464,None,304.30030225005464,None,,,,,,,,,,,121,22,Female,2022-05-09_09h34.41.100,Boat,2022.1.1,59.968396651683264,
negative,negative,1,j,l,,,,,,,,,4,3,75,0,,,,,,,,,,,,,,,,,,,,,,,,main,1,1,1,negative,negative,l,l,1,0.6366528000216931,304.3169987000292,305.3334846000653,305.2945400000317,None,304.3169987000292,None,304.3169987000292,None,304.3169987000292,None,305.93604145010465,None,305.93604145010465,None,305.93604145010465,None,,,,,,,,,,,121,22,Female,2022-05-09_09h34.41.100,Boat,2022.1.1,59.968396651683264,
negative,positive,1,j,l,,,,,,,,,4,4,76,6,,,,,,,,,,,,,,,,,,,,,,,,main,1,1,1,positive,negative,l,l,1,0.5310073000146076,305.96210730005987,306.96678980009165,306.9499768000096,None,305.96210730005987,None,305.96210730005987,None,305.96210730005987,None,307.47232755003495,None,307.47232755003495,None,307.47232755003495,None,,,,,,,,,,,121,22,Female,2022-05-09_09h34.41.100,Boat,2022.1.1,59.968396651683264,
positive,positive,1,l,j,,,,,,,,,4,5,77,2,,,,,,,,,,,,,,,,,,,,,,,,main,2,2,1,positive,positive,j,j,1,0.6725808999035507,307.4912183000706,308.49833289999515,308.4782504000468,None,307.4912183000706,None,307.4912183000706,None,307.4912183000706,None,309.1488910501124,None,309.1488910501124,None,309.1488910501124,None,,,,,,,,,,,121,22,Female,2022-05-09_09h34.41.100,Boat,2022.1.1,59.968396651683264,
positive,neutral,2,l,j,,,,,,,,,4,6,78,17,,,,,,,,,,,,,,,,,,,,,,,,main,2,2,2,neutral,positive,j,j,1,0.6041204999201,309.1672894000076,310.16684340010397,310.15038740006275,None,309.1672894000076,None,309.1672894000076,None,309.1672894000076,None,310.75534925002137,None,310.75534925002137,None,310.75534925002137,None,,,,,,,,,,,121,22,Female,2022-05-09_09h34.41.100,Boat,2022.1.1,59.968396651683264,
positive,negative,2,l,j,,,,,,,,,4,7,79,14,,,,,,,,,,,,,,,,,,,,,,,,main,1,1,2,negative,positive,j,j,1,0.5363027000566944,310.7733082000632,311.78378100006375,311.7487198000308,None,310.7733082000632,None,310.7733082000632,None,310.7733082000632,None,312.2962401500903,None,312.2962401500903,None,312.2962401500903,None,,,,,,,,,,,121,22,Female,2022-05-09_09h34.41.100,Boat,2022.1.1,59.968396651683264,
neutral,positive,2,k,k,,,,,,,,,4,8,80,13,,,,,,,,,,,,,,,,,,,,,,,,main,2,2,2,positive,neutral,k,k,1,0.6646734999958426,312.3137587000383,313.3176794000901,313.29974500008393,None,312.3137587000383,None,312.3137587000383,None,312.3137587000383,None,313.9621799500659,None,313.9621799500659,None,313.9621799500659,None,,,,,,,,,,,121,22,Female,2022-05-09_09h34.41.100,Boat,2022.1.1,59.968396651683264,
neutral,negative,2,k,k,,,,,,,,,4,9,81,16,,,,,,,,,,,,,,,,,,,,,,,,main,2,2,2,negative,neutral,k,k,1,0.519702999969013,313.9832359000575,314.983612800017,314.96693600004073,None,313.9832359000575,None,313.9832359000575,None,313.9832359000575,None,315.4837939500343,None,315.4837939500343,None,315.4837939500343,None,,,,,,,,,,,121,22,Female,2022-05-09_09h34.41.100,Boat,2022.1.1,59.968396651683264,
neutral,neutral,1,k,k,,,,,,,,,4,10,82,1,,,,,,,,,,,,,,,,,,,,,,,,main,1,1,1,neutral,neutral,k,k,1,0.5319915000582114,315.5030770000303,316.51876140001696,316.4836864999961,None,315.5030770000303,None,315.5030770000303,None,315.5030770000303,None,317.0192254500929,None,317.0192254500929,None,317.0192254500929,None,,,,,,,,,,,121,22,Female,2022-05-09_09h34.41.100,Boat,2022.1.1,59.968396651683264,
negative,neutral,1,j,l,,,,,,,,,4,11,83,3,,,,,,,,,,,,,,,,,,,,,,,,main,1,1,1,neutral,negative,l,l,1,0.6425183999817818,317.036884500063,318.0529233000707,318.0178253001068,None,317.036884500063,None,317.036884500063,None,317.036884500063,None,318.6653967500664,None,318.6653967500664,None,318.6653967500664,None,,,,,,,,,,,121,22,Female,2022-05-09_09h34.41.100,Boat,2022.1.1,59.968396651683264,
positive,negative,1,l,j,,,,,,,,,4,12,84,5,,,,,,,,,,,,,,,,,,,,,,,,main,2,2,1,negative,positive,j,j,1,0.7411135999718681,318.6845161000965,319.70026180008426,319.66617149999365,None,318.6845161000965,None,318.6845161000965,None,318.6845161000965,None,320.41044795010237,None,320.41044795010237,None,320.41044795010237,None,,,,,,,,,,,121,22,Female,2022-05-09_09h34.41.100,Boat,2022.1.1,59.968396651683264,
negative,positive,2,j,l,,,,,,,,,4,13,85,15,,,,,,,,,,,,,,,,,,,,,,,,main,1,1,2,positive,negative,l,l,1,0.5839772999752313,320.4331214000704,321.43787660007365,321.4020136001054,None,320.4331214000704,None,320.4331214000704,None,320.4331214000704,None,321.995880350098,None,321.995880350098,None,321.995880350098,None,,,,,,,,,,,121,22,Female,2022-05-09_09h34.41.100,Boat,2022.1.1,59.968396651683264,
positive,positive,2,l,j,,,,,,,,,4,14,86,11,,,,,,,,,,,,,,,,,,,,,,,,main,2,2,2,positive,positive,j,j,1,0.7192991999909282,322.01517650007736,323.016983800102,323.0002988000633,None,322.01517650007736,None,322.01517650007736,None,322.01517650007736,None,323.71734165002124,None,323.71734165002124,None,323.71734165002124,None,,,,,,,,,,,121,22,Female,2022-05-09_09h34.41.100,Boat,2022.1.1,59.968396651683264,
neutral,neutral,2,k,k,,,,,,,,,4,15,87,10,,,,,,,,,,,,,,,,,,,,,,,,main,2,2,2,neutral,neutral,k,k,1,0.5332623000722378,323.73773470008746,324.7587528000586,324.73174600000493,None,323.73773470008746,None,323.73773470008746,None,323.73773470008746,None,325.2564511500299,None,325.2564511500299,None,325.2564511500299,None,,,,,,,,,,,121,22,Female,2022-05-09_09h34.41.100,Boat,2022.1.1,59.968396651683264,
neutral,positive,1,k,k,,,,,,,,,4,16,88,4,,,,,,,,,,,,,,,,,,,,,,,,main,2,2,1,positive,neutral,k,k,1,0.5648027000715956,325.2741320000496,326.2839865999995,326.2484619000461,None,325.2741320000496,None,325.2741320000496,None,325.2741320000496,None,326.8236030500615,None,326.8236030500615,None,326.8236030500615,None,,,,,,,,,,,121,22,Female,2022-05-09_09h34.41.100,Boat,2022.1.1,59.968396651683264,
neutral,negative,1,k,k,,,,,,,,,4,17,89,7,,,,,,,,,,,,,,,,,,,,,,,,main,2,2,1,negative,neutral,k,k,1,0.5036603000480682,326.8448364000069,327.85353830002714,327.8172412000131,None,326.8448364000069,None,326.8448364000069,None,326.8448364000069,None,328.3292781500844,None,328.3292781500844,None,328.3292781500844,None,,,,,,,,,,,121,22,Female,2022-05-09_09h34.41.100,Boat,2022.1.1,59.968396651683264,
neutral,neutral,2,k,k,,,,,,,,,5,0,90,10,,,,,,,,,,,,,,,,,,,,,,,,main,2,2,2,neutral,neutral,k,k,1,0.5164942999836057,328.3492707000114,329.3589543000562,329.33402440010104,None,328.3492707000114,None,328.3492707000114,None,328.3492707000114,None,329.8491881499998,None,329.8491881499998,None,329.8491881499998,None,,,,,,,,,,,121,22,Female,2022-05-09_09h34.41.100,Boat,2022.1.1,59.968396651683264,
positive,negative,1,l,j,,,,,,,,,5,1,91,5,,,,,,,,,,,,,,,,,,,,,,,,main,1,1,1,negative,positive,j,j,1,0.6021386999636889,329.86590180010535,330.8682314000325,330.8508666000562,None,329.86590180010535,None,329.86590180010535,None,329.86590180010535,None,331.4527444500476,None,331.4527444500476,None,331.4527444500476,None,,,,,,,,,,,121,22,Female,2022-05-09_09h34.41.100,Boat,2022.1.1,59.968396651683264,
negative,neutral,2,j,l,,,,,,,,,5,2,92,12,,,,,,,,,,,,,,,,,,,,,,,,main,2,2,2,neutral,negative,l,l,1,0.6359697000589222,331.47137130005285,332.47887570003513,332.4588736000005,None,331.47137130005285,None,331.47137130005285,None,331.47137130005285,None,333.09221745000684,None,333.09221745000684,None,333.09221745000684,None,,,,,,,,,,,121,22,Female,2022-05-09_09h34.41.100,Boat,2022.1.1,59.968396651683264,
positive,positive,1,l,j,,,,,,,,,5,3,93,2,,,,,,,,,,,,,,,,,,,,,,,,main,1,1,1,positive,positive,j,j,1,0.5864474000409245,333.1168512000004,334.1323315000627,334.09078150009736,None,333.1168512000004,None,333.1168512000004,None,333.1168512000004,None,334.6828211500309,None,334.6828211500309,None,334.6828211500309,None,,,,,,,,,,,121,22,Female,2022-05-09_09h34.41.100,Boat,2022.1.1,59.968396651683264,
negative,neutral,1,j,l,,,,,,,,,5,4,94,3,,,,,,,,,,,,,,,,,,,,,,,,main,2,2,1,neutral,negative,l,l,1,0.5766943999333307,334.6988255000906,335.7018259000033,335.6840232000686,None,334.6988255000906,None,334.6988255000906,None,334.6988255000906,None,336.2623267500661,None,336.2623267500661,None,336.2623267500661,None,,,,,,,,,,,121,22,Female,2022-05-09_09h34.41.100,Boat,2022.1.1,59.968396651683264,
neutral,negative,2,k,k,,,,,,,,,5,5,95,16,,,,,,,,,,,,,,,,,,,,,,,,main,1,1,2,negative,neutral,k,k,1,0.55935330002103,336.2826614000369,337.28385030000936,337.26744740002323,None,336.2826614000369,None,336.2826614000369,None,336.2826614000369,None,337.82409545008557,None,337.82409545008557,None,337.82409545008557,None,,,,,,,,,,,121,22,Female,2022-05-09_09h34.41.100,Boat,2022.1.1,59.968396651683264,
positive,positive,2,l,j,,,,,,,,,5,6,96,11,,,,,,,,,,,,,,,,,,,,,,,,main,1,1,2,positive,positive,j,j,1,0.6379929999820888,337.84904580004513,338.85064930003136,338.83366450003814,None,337.84904580004513,None,337.84904580004513,None,337.84904580004513,None,339.46687025004064,None,339.46687025004064,None,339.46687025004064,None,,,,,,,,,,,121,22,Female,2022-05-09_09h34.41.100,Boat,2022.1.1,59.968396651683264,
negative,negative,2,j,l,,,,,,,,,5,7,97,9,,,,,,,,,,,,,,,,,,,,,,,,main,1,1,2,negative,negative,l,l,1,0.6192893000552431,339.4859274000628,340.5010709000053,340.46239740005694,None,339.4859274000628,None,339.4859274000628,None,339.4859274000628,None,341.09029405002946,None,341.09029405002946,None,341.09029405002946,None,,,,,,,,,,,121,22,Female,2022-05-09_09h34.41.100,Boat,2022.1.1,59.968396651683264,
neutral,neutral,1,k,k,,,,,,,,,5,8,98,1,,,,,,,,,,,,,,,,,,,,,,,,main,2,2,1,neutral,neutral,k,k,1,0.6009486000984907,341.11076599999797,342.1175516000949,342.0841360000195,None,341.11076599999797,None,341.11076599999797,None,341.11076599999797,None,342.6942753500538,None,342.6942753500538,None,342.6942753500538,None,,,,,,,,,,,121,22,Female,2022-05-09_09h34.41.100,Boat,2022.1.1,59.968396651683264,
positive,neutral,2,l,j,,,,,,,,,5,9,99,17,,,,,,,,,,,,,,,,,,,,,,,,main,2,2,2,neutral,positive,j,j,1,0.6521489999722689,342.7159084000159,343.7179016000591,343.69901660003234,None,342.7159084000159,None,342.7159084000159,None,342.7159084000159,None,344.3493786500534,None,344.3493786500534,None,344.3493786500534,None,,,,,,,,,,,121,22,Female,2022-05-09_09h34.41.100,Boat,2022.1.1,59.968396651683264,
negative,positive,2,j,l,,,,,,,,,5,10,100,15,,,,,,,,,,,,,,,,,,,,,,,,main,2,2,2,positive,negative,l,l,1,0.6256568999961019,344.36729530000594,345.3680869000964,345.3511450000806,None,344.36729530000594,None,344.36729530000594,None,344.36729530000594,None,345.97881095004266,None,345.97881095004266,None,345.97881095004266,None,,,,,,,,,,,121,22,Female,2022-05-09_09h34.41.100,Boat,2022.1.1,59.968396651683264,
neutral,negative,1,k,k,,,,,,,,,5,11,101,7,,,,,,,,,,,,,,,,,,,,,,,,main,2,2,1,negative,neutral,k,k,1,0.5603799999225885,346.00013669999316,347.017736800015,346.9824094000505,None,346.00013669999316,None,346.00013669999316,None,346.00013669999316,None,347.5408441500971,None,347.5408441500971,None,347.5408441500971,None,,,,,,,,,,,121,22,Female,2022-05-09_09h34.41.100,Boat,2022.1.1,59.968396651683264,
positive,negative,2,l,j,,,,,,,,,5,12,102,14,,,,,,,,,,,,,,,,,,,,,,,,main,2,2,2,negative,positive,j,j,1,0.5994747000513598,347.5583149000304,348.57350020005833,348.53509430005215,None,347.5583149000304,None,347.5583149000304,None,347.5583149000304,None,349.1437894500326,None,349.1437894500326,None,349.1437894500326,None,,,,,,,,,,,121,22,Female,2022-05-09_09h34.41.100,Boat,2022.1.1,59.968396651683264,
positive,neutral,1,l,j,,,,,,,,,5,13,103,8,,,,,,,,,,,,,,,,,,,,,,,,main,1,1,1,neutral,positive,j,j,1,0.7358162999153137,349.1637161000399,350.1678694000002,350.1509423000971,None,349.1637161000399,None,349.1637161000399,None,349.1637161000399,None,350.88327625007366,None,350.88327625007366,None,350.88327625007366,None,,,,,,,,,,,121,22,Female,2022-05-09_09h34.41.100,Boat,2022.1.1,59.968396651683264,
neutral,positive,1,k,k,,,,,,,,,5,14,104,4,,,,,,,,,,,,,,,,,,,,,,,,main,1,1,1,positive,neutral,k,k,1,0.6119807999348268,350.9020276000956,351.91777570010163,351.8791567001026,None,350.9020276000956,None,350.9020276000956,None,350.9020276000956,None,352.49981875005176,None,352.49981875005176,None,352.49981875005176,None,,,,,,,,,,,121,22,Female,2022-05-09_09h34.41.100,Boat,2022.1.1,59.968396651683264,
negative,positive,1,j,l,,,,,,,,,5,15,105,6,,,,,,,,,,,,,,,,,,,,,,,,main,1,1,1,positive,negative,l,l,1,0.6625324999913573,352.51878390007187,353.518297700095,353.5012676001061,None,352.51878390007187,None,352.51878390007187,None,352.51878390007187,None,354.16616485009433,None,354.16616485009433,None,354.16616485009433,None,,,,,,,,,,,121,22,Female,2022-05-09_09h34.41.100,Boat,2022.1.1,59.968396651683264,
neutral,positive,2,k,k,,,,,,,,,5,16,106,13,,,,,,,,,,,,,,,,,,,,,,,,main,2,2,2,positive,neutral,k,k,1,0.6119939000345767,354.1847378000384,355.185490300064,355.1680177000817,None,354.1847378000384,None,354.1847378000384,None,354.1847378000384,None,355.7820561500033,None,355.7820561500033,None,355.7820561500033,None,,,,,,,,,,,121,22,Female,2022-05-09_09h34.41.100,Boat,2022.1.1,59.968396651683264,
negative,negative,1,j,l,,,,,,,,,5,17,107,0,,,,,,,,,,,,,,,,,,,,,,,,main,2,2,1,negative,negative,l,l,1,0.6490496000042185,355.80092960002366,356.8080579000525,356.77250060008373,None,355.80092960002366,None,355.80092960002366,None,355.80092960002366,None,357.4323686500778,None,357.4323686500778,None,357.4323686500778,None,,,,,,,,,,,121,22,Female,2022-05-09_09h34.41.100,Boat,2022.1.1,59.968396651683264,
negative,positive,2,j,l,,,,,,,,,6,0,108,15,,,,,,,,,,,,,,,,,,,,,,,,main,1,1,2,positive,negative,l,l,1,0.6112585000228137,357.4537121000467,358.46831780008506,358.43444790004287,None,357.4537121000467,None,357.4537121000467,None,357.4537121000467,None,359.04935965009497,None,359.04935965009497,None,359.04935965009497,None,,,,,,,,,,,121,22,Female,2022-05-09_09h34.41.100,Boat,2022.1.1,59.968396651683264,
positive,negative,1,l,j,,,,,,,,,6,1,109,5,,,,,,,,,,,,,,,,,,,,,,,,main,1,1,1,negative,positive,j,j,1,0.6430288000265136,359.06827000004705,360.07115600002,360.0523970000213,None,359.06827000004705,None,359.06827000004705,None,359.06827000004705,None,360.69646685009354,None,360.69646685009354,None,360.69646685009354,None,,,,,,,,,,,121,22,Female,2022-05-09_09h34.41.100,Boat,2022.1.1,59.968396651683264,
positive,neutral,1,l,j,,,,,,,,,6,2,110,8,,,,,,,,,,,,,,,,,,,,,,,,main,1,1,1,neutral,positive,j,j,1,0.5030763999093324,360.71728520002216,361.74285750009585,361.69609270000365,None,360.71728520002216,None,360.71728520002216,None,360.71728520002216,None,362.20135935009455,None,362.20135935009455,None,362.20135935009455,None,,,,,,,,,,,121,22,Female,2022-05-09_09h34.41.100,Boat,2022.1.1,59.968396651683264,
neutral,negative,2,k,k,,,,,,,,,6,3,111,16,,,,,,,,,,,,,,,,,,,,,,,,main,2,2,2,negative,neutral,k,k,1,0.5744886000175029,362.2190064000897,363.231500599999,363.2098749000579,None,362.2190064000897,None,362.2190064000897,None,362.2190064000897,None,363.7799819500418,None,363.7799819500418,None,363.7799819500418,None,,,,,,,,,,,121,22,Female,2022-05-09_09h34.41.100,Boat,2022.1.1,59.968396651683264,
neutral,positive,2,k,k,,,,,,,,,6,4,112,13,,,,,,,,,,,,,,,,,,,,,,,,main,1,1,2,positive,neutral,k,k,1,0.537025099969469,363.7983413001057,364.8015434000408,364.7825514000142,None,363.7983413001057,None,363.7983413001057,None,363.7983413001057,None,365.31679885005576,None,365.31679885005576,None,365.31679885005576,None,,,,,,,,,,,121,22,Female,2022-05-09_09h34.41.100,Boat,2022.1.1,59.968396651683264,
negative,negative,1,j,l,,,,,,,,,6,5,113,0,,,,,,,,,,,,,,,,,,,,,,,,main,2,2,1,negative,negative,l,l,1,0.6215617000125349,365.33806390000973,366.3522189001087,366.31656400009524,None,365.33806390000973,None,365.33806390000973,None,365.33806390000973,None,366.9435148500837,None,366.9435148500837,None,366.9435148500837,None,,,,,,,,,,,121,22,Female,2022-05-09_09h34.41.100,Boat,2022.1.1,59.968396651683264,
positive,neutral,2,l,j,,,,,,,,,6,6,114,17,,,,,,,,,,,,,,,,,,,,,,,,main,2,2,2,neutral,positive,j,j,1,0.6198225999251008,366.96275440009777,367.9840619000606,367.94116370007396,None,366.96275440009777,None,366.96275440009777,None,366.96275440009777,None,368.56521905001716,None,368.56521905001716,None,368.56521905001716,None,,,,,,,,,,,121,22,Female,2022-05-09_09h34.41.100,Boat,2022.1.1,59.968396651683264,
positive,positive,1,l,j,,,,,,,,,6,7,115,2,,,,,,,,,,,,,,,,,,,,,,,,main,2,2,1,positive,positive,j,j,1,0.6117841999512166,368.5885757000651,369.60402830003295,369.5670611000387,None,368.5885757000651,None,368.5885757000651,None,368.5885757000651,None,370.182832249999,None,370.182832249999,None,370.182832249999,None,,,,,,,,,,,121,22,Female,2022-05-09_09h34.41.100,Boat,2022.1.1,59.968396651683264,
negative,neutral,2,j,l,,,,,,,,,6,8,116,12,,,,,,,,,,,,,,,,,,,,,,,,main,2,2,2,neutral,negative,l,l,1,0.6556581000331789,370.20068460004404,371.20146390004084,371.18364460009616,None,370.20068460004404,None,370.20068460004404,None,370.20068460004404,None,371.8417313500307,None,371.8417313500307,None,371.8417313500307,None,,,,,,,,,,,121,22,Female,2022-05-09_09h34.41.100,Boat,2022.1.1,59.968396651683264,
neutral,negative,1,k,k,,,,,,,,,6,9,117,7,,,,,,,,,,,,,,,,,,,,,,,,main,1,1,1,negative,neutral,k,k,1,0.5527666000416502,371.8633481001016,372.8766634000931,372.8351873001084,None,371.8633481001016,None,371.8633481001016,None,371.8633481001016,None,373.3968621500302,None,373.3968621500302,None,373.3968621500302,None,,,,,,,,,,,121,22,Female,2022-05-09_09h34.41.100,Boat,2022.1.1,59.968396651683264,
negative,positive,1,j,l,,,,,,,,,6,10,118,6,,,,,,,,,,,,,,,,,,,,,,,,main,2,2,1,positive,negative,l,l,1,0.6589192000683397,373.4177996000508,374.4198084000964,374.3852508000564,None,373.4177996000508,None,373.4177996000508,None,373.4177996000508,None,375.05706195007076,None,375.05706195007076,None,375.05706195007076,None,,,,,,,,,,,121,22,Female,2022-05-09_09h34.41.100,Boat,2022.1.1,59.968396651683264,
positive,negative,2,l,j,,,,,,,,,6,11,119,14,,,,,,,,,,,,,,,,,,,,,,,,main,2,2,2,negative,positive,j,j,1,0.6784187000012025,375.0749106000876,376.08585740008857,376.05193950003013,None,375.0749106000876,None,375.0749106000876,None,375.0749106000876,None,376.73707005006725,None,376.73707005006725,None,376.73707005006725,None,,,,,,,,,,,121,22,Female,2022-05-09_09h34.41.100,Boat,2022.1.1,59.968396651683264,
negative,negative,2,j,l,,,,,,,,,6,12,120,9,,,,,,,,,,,,,,,,,,,,,,,,main,2,2,2,negative,negative,l,l,1,0.710359700024128,376.75564370001666,377.7686912000645,377.7349326000549,None,376.75564370001666,None,376.75564370001666,None,376.75564370001666,None,378.45173375003503,None,378.45173375003503,None,378.45173375003503,None,,,,,,,,,,,121,22,Female,2022-05-09_09h34.41.100,Boat,2022.1.1,59.968396651683264,
neutral,neutral,1,k,k,,,,,,,,,6,13,121,1,,,,,,,,,,,,,,,,,,,,,,,,main,2,2,1,neutral,neutral,k,k,1,0.5523553000530228,378.46952100005,379.4688330000499,379.4519328000024,None,378.46952100005,None,378.46952100005,None,378.46952100005,None,380.0057447500061,None,380.0057447500061,None,380.0057447500061,None,,,,,,,,,,,121,22,Female,2022-05-09_09h34.41.100,Boat,2022.1.1,59.968396651683264,
neutral,neutral,2,k,k,,,,,,,,,6,14,122,10,,,,,,,,,,,,,,,,,,,,,,,,main,1,1,2,neutral,neutral,k,k,1,0.6975352000445127,380.0305779000046,381.0349663000088,381.01787370000966,None,380.0305779000046,None,380.0305779000046,None,380.0305779000046,None,381.70806885007767,None,381.70806885007767,None,381.70806885007767,None,,,,,,,,,,,121,22,Female,2022-05-09_09h34.41.100,Boat,2022.1.1,59.968396651683264,
negative,neutral,1,j,l,,,,,,,,,6,15,123,3,,,,,,,,,,,,,,,,,,,,,,,,main,1,1,1,neutral,negative,l,l,1,0.6390241000335664,381.72887360001914,382.73277280002367,382.71330220007803,None,381.72887360001914,None,381.72887360001914,None,381.72887360001914,None,383.3496194500243,None,383.3496194500243,None,383.3496194500243,None,,,,,,,,,,,121,22,Female,2022-05-09_09h34.41.100,Boat,2022.1.1,59.968396651683264,
neutral,positive,1,k,k,,,,,,,,,6,16,124,4,,,,,,,,,,,,,,,,,,,,,,,,main,1,1,1,positive,neutral,k,k,1,0.5431587999919429,383.3686755000381,384.37991340004373,384.3407373999944,None,383.3686755000381,None,383.3686755000381,None,383.3686755000381,None,384.89443435005376,None,384.89443435005376,None,384.89443435005376,None,,,,,,,,,,,121,22,Female,2022-05-09_09h34.41.100,Boat,2022.1.1,59.968396651683264,
positive,positive,2,l,j,,,,,,,,,6,17,125,11,,,,,,,,,,,,,,,,,,,,,,,,main,1,1,2,positive,positive,j,j,1,0.6035676000174135,384.91450070007704,385.9186714000534,385.901593000046,None,384.91450070007704,None,384.91450070007704,None,384.91450070007704,None,386.50165105003396,None,386.50165105003396,None,386.50165105003396,None,,,,,,,,,,,121,22,Female,2022-05-09_09h34.41.100,Boat,2022.1.1,59.968396651683264,
negative,positive,1,j,l,,,,,,,,,7,0,126,6,,,,,,,,,,,,,,,,,,,,,,,,main,2,2,1,positive,negative,l,l,1,0.6594597999937832,386.52045320009347,387.5238214000128,387.50547940004617,None,386.52045320009347,None,386.52045320009347,None,386.52045320009347,None,388.1646596500417,None,388.1646596500417,None,388.1646596500417,None,,,,,,,,,,,121,22,Female,2022-05-09_09h34.41.100,Boat,2022.1.1,59.968396651683264,
positive,neutral,1,l,j,,,,,,,,,7,1,127,8,,,,,,,,,,,,,,,,,,,,,,,,main,1,1,1,neutral,positive,j,j,1,0.6416831999085844,388.18256290000863,389.1861409000121,389.1687207000796,None,388.18256290000863,None,388.18256290000863,None,388.18256290000863,None,389.8079741500318,None,389.8079741500318,None,389.8079741500318,None,,,,,,,,,,,121,22,Female,2022-05-09_09h34.41.100,Boat,2022.1.1,59.968396651683264,
positive,positive,1,l,j,,,,,,,,,7,2,128,2,,,,,,,,,,,,,,,,,,,,,,,,main,1,1,1,positive,positive,j,j,1,0.5371375000104308,389.8265618000878,390.83406810008455,390.8136959000258,None,389.8265618000878,None,389.8265618000878,None,389.8265618000878,None,391.34958055007735,None,391.34958055007735,None,391.34958055007735,None,,,,,,,,,,,121,22,Female,2022-05-09_09h34.41.100,Boat,2022.1.1,59.968396651683264,
neutral,negative,1,k,k,,,,,,,,,7,3,129,7,,,,,,,,,,,,,,,,,,,,,,,,main,2,2,1,negative,neutral,k,k,1,0.612866900046356,391.36713700008113,392.3725603000494,392.3552028000122,None,391.36713700008113,None,391.36713700008113,None,391.36713700008113,None,392.9654581499984,None,392.9654581499984,None,392.9654581499984,None,,,,,,,,,,,121,22,Female,2022-05-09_09h34.41.100,Boat,2022.1.1,59.968396651683264,
negative,neutral,1,j,l,,,,,,,,,7,4,130,3,,,,,,,,,,,,,,,,,,,,,,,,main,1,1,1,neutral,negative,l,l,1,0.7023827000521123,392.98421340005007,393.9854774000123,393.968742200057,None,392.98421340005007,None,392.98421340005007,None,392.98421340005007,None,394.666542950063,None,394.666542950063,None,394.666542950063,None,,,,,,,,,,,121,22,Female,2022-05-09_09h34.41.100,Boat,2022.1.1,59.968396651683264,
neutral,positive,1,k,k,,,,,,,,,7,5,131,4,,,,,,,,,,,,,,,,,,,,,,,,main,2,2,1,positive,neutral,k,k,1,0.52982970001176,394.68726910010446,395.70785260002594,395.6687568000052,None,394.68726910010446,None,394.68726910010446,None,394.68726910010446,None,396.20221875000277,None,396.20221875000277,None,396.20221875000277,None,,,,,,,,,,,121,22,Female,2022-05-09_09h34.41.100,Boat,2022.1.1,59.968396651683264,
negative,neutral,2,j,l,,,,,,,,,7,6,132,12,,,,,,,,,,,,,,,,,,,,,,,,main,1,1,2,neutral,negative,l,l,1,0.559131299960427,396.220756100025,397.23795280000195,397.20222560002003,None,396.220756100025,None,396.220756100025,None,396.220756100025,None,397.76478115001225,None,397.76478115001225,None,397.76478115001225,None,,,,,,,,,,,121,22,Female,2022-05-09_09h34.41.100,Boat,2022.1.1,59.968396651683264,
neutral,negative,2,k,k,,,,,,,,,7,7,133,16,,,,,,,,,,,,,,,,,,,,,,,,main,1,1,2,negative,neutral,k,k,1,0.5273117000469938,397.78540240006987,398.7854409000138,398.76873580005486,None,397.78540240006987,None,397.78540240006987,None,397.78540240006987,None,399.29741875010075,None,399.29741875010075,None,399.29741875010075,None,,,,,,,,,,,121,22,Female,2022-05-09_09h34.41.100,Boat,2022.1.1,59.968396651683264,
negative,negative,2,j,l,,,,,,,,,7,8,134,9,,,,,,,,,,,,,,,,,,,,,,,,main,1,1,2,negative,negative,l,l,1,0.7085200999863446,399.31714200007264,400.3189517999999,400.3004951000912,None,399.31714200007264,None,399.31714200007264,None,399.31714200007264,None,401.00743075003845,None,401.00743075003845,None,401.00743075003845,None,,,,,,,,,,,121,22,Female,2022-05-09_09h34.41.100,Boat,2022.1.1,59.968396651683264,
neutral,neutral,1,k,k,,,,,,,,,7,9,135,1,,,,,,,,,,,,,,,,,,,,,,,,main,1,1,1,neutral,neutral,k,k,1,0.5326706999912858,401.02684250008315,402.0384134000633,402.0032491000602,None,401.02684250008315,None,401.02684250008315,None,401.02684250008315,None,402.5446872500237,None,402.5446872500237,None,402.5446872500237,None,,,,,,,,,,,121,22,Female,2022-05-09_09h34.41.100,Boat,2022.1.1,59.968396651683264,
neutral,positive,2,k,k,,,,,,,,,7,10,136,13,,,,,,,,,,,,,,,,,,,,,,,,main,1,1,2,positive,neutral,k,k,1,0.6052785000065342,402.56379010004457,403.5794521000935,403.540002200054,None,402.56379010004457,None,402.56379010004457,None,402.56379010004457,None,404.15219335011204,None,404.15219335011204,None,404.15219335011204,None,,,,,,,,,,,121,22,Female,2022-05-09_09h34.41.100,Boat,2022.1.1,59.968396651683264,
positive,negative,2,l,j,,,,,,,,,7,11,137,14,,,,,,,,,,,,,,,,,,,,,,,,main,1,1,2,negative,positive,j,j,1,0.6529347999021411,404.1703491000226,405.19383350003045,405.1523021000903,None,404.1703491000226,None,404.1703491000226,None,404.1703491000226,None,405.80749505010897,None,405.80749505010897,None,405.80749505010897,None,,,,,,,,,,,121,22,Female,2022-05-09_09h34.41.100,Boat,2022.1.1,59.968396651683264,
neutral,neutral,2,k,k,,,,,,,,,7,12,138,10,,,,,,,,,,,,,,,,,,,,,,,,main,1,1,2,neutral,neutral,k,k,1,0.5809423999162391,405.82549780001864,406.82608930009883,406.80790440004785,None,405.82549780001864,None,405.82549780001864,None,405.82549780001864,None,407.39057265010194,None,407.39057265010194,None,407.39057265010194,None,,,,,,,,,,,121,22,Female,2022-05-09_09h34.41.100,Boat,2022.1.1,59.968396651683264,
positive,positive,2,l,j,,,,,,,,,7,13,139,11,,,,,,,,,,,,,,,,,,,,,,,,main,2,2,2,positive,positive,j,j,1,0.6562424999428913,407.4121761000715,408.4245303000789,408.38600270007737,None,407.4121761000715,None,407.4121761000715,None,407.4121761000715,None,409.0509277500445,None,409.0509277500445,None,409.0509277500445,None,,,,,,,,,,,121,22,Female,2022-05-09_09h34.41.100,Boat,2022.1.1,59.968396651683264,
positive,neutral,2,l,j,,,,,,,,,7,14,140,17,,,,,,,,,,,,,,,,,,,,,,,,main,1,1,2,neutral,positive,j,j,1,0.519194099935703,409.0688354000449,410.06891480006743,410.0523466001032,None,409.0688354000449,None,409.0688354000449,None,409.0688354000449,None,410.5727624500636,None,410.5727624500636,None,410.5727624500636,None,,,,,,,,,,,121,22,Female,2022-05-09_09h34.41.100,Boat,2022.1.1,59.968396651683264,
negative,positive,2,j,l,,,,,,,,,7,15,141,15,,,,,,,,,,,,,,,,,,,,,,,,main,1,1,2,positive,negative,l,l,1,0.7439864000771195,410.59218120004516,411.60313260008115,411.5675437001046,None,410.59218120004516,None,410.59218120004516,None,410.59218120004516,None,412.3176590500865,None,412.3176590500865,None,412.3176590500865,None,,,,,,,,,,,121,22,Female,2022-05-09_09h34.41.100,Boat,2022.1.1,59.968396651683264,
negative,negative,1,j,l,,,,,,,,,7,16,142,0,,,,,,,,,,,,,,,,,,,,,,,,main,1,1,1,negative,negative,l,l,1,0.6769960999954492,412.3378513000207,413.3507380000083,413.33085290004965,None,412.3378513000207,None,412.3378513000207,None,412.3378513000207,None,413.9978618500521,None,413.9978618500521,None,413.9978618500521,None,,,,,,,,,,,121,22,Female,2022-05-09_09h34.41.100,Boat,2022.1.1,59.968396651683264,
positive,negative,1,l,j,,,,,,,,,7,17,143,5,,,,,,,,,,,,,,,,,,,,,,,,main,2,2,1,negative,positive,j,j,1,0.6323053000960499,414.020738500054,415.0472263999982,415.00050030008424,None,414.020738500054,None,414.020738500054,None,414.020738500054,None,415.63549875000024,None,415.63549875000024,None,415.63549875000024,None,,,,,,,,,,,121,22,Female,2022-05-09_09h34.41.100,Boat,2022.1.1,59.968396651683264,
negative,neutral,2,j,l,,,,,,,,,8,0,144,12,,,,,,,,,,,,,,,,,,,,,,,,main,2,2,2,neutral,negative,l,l,1,0.6816258999751881,415.6548826000653,416.65980610006955,416.6403989000246,None,415.6548826000653,None,415.6548826000653,None,415.6548826000653,None,417.31972195007836,None,417.31972195007836,None,417.31972195007836,None,,,,,,,,,,,121,22,Female,2022-05-09_09h34.41.100,Boat,2022.1.1,59.968396651683264,
neutral,positive,2,k,k,,,,,,,,,8,1,145,13,,,,,,,,,,,,,,,,,,,,,,,,main,2,2,2,positive,neutral,k,k,1,0.5623254999518394,417.3390309000388,418.3409985000035,418.3230736000696,None,417.3390309000388,None,417.3390309000388,None,417.3390309000388,None,418.8858237500302,None,418.8858237500302,None,418.8858237500302,None,,,,,,,,,,,121,22,Female,2022-05-09_09h34.41.100,Boat,2022.1.1,59.968396651683264,
neutral,negative,2,k,k,,,,,,,,,8,2,146,16,,,,,,,,,,,,,,,,,,,,,,,,main,1,1,2,negative,neutral,k,k,1,0.5648022999521345,418.9031049000332,419.9025407000445,419.8858650000766,None,418.9031049000332,None,418.9031049000332,None,418.9031049000332,None,420.4523405499989,None,420.4523405499989,None,420.4523405499989,None,,,,,,,,,,,121,22,Female,2022-05-09_09h34.41.100,Boat,2022.1.1,59.968396651683264,
neutral,positive,1,k,k,,,,,,,,,8,3,147,4,,,,,,,,,,,,,,,,,,,,,,,,main,1,1,1,positive,neutral,k,k,1,0.5573444000910968,420.47259610006586,421.48420820001047,421.46408510010224,None,420.47259610006586,None,420.47259610006586,None,420.47259610006586,None,422.01503885011186,None,422.01503885011186,None,422.01503885011186,None,,,,,,,,,,,121,22,Female,2022-05-09_09h34.41.100,Boat,2022.1.1,59.968396651683264,
negative,positive,1,j,l,,,,,,,,,8,4,148,6,,,,,,,,,,,,,,,,,,,,,,,,main,2,2,1,positive,negative,l,l,1,0.6173492999514565,422.0352507000789,423.03597450000234,423.0192945000017,None,422.0352507000789,None,422.0352507000789,None,422.0352507000789,None,423.6342694500694,None,423.6342694500694,None,423.6342694500694,None,,,,,,,,,,,121,22,Female,2022-05-09_09h34.41.100,Boat,2022.1.1,59.968396651683264,
positive,neutral,1,l,j,,,,,,,,,8,5,149,8,,,,,,,,,,,,,,,,,,,,,,,,main,1,1,1,neutral,positive,j,j,1,0.6639802999561653,423.6547642000951,424.66774330008775,424.6475913000759,None,423.6547642000951,None,423.6547642000951,None,423.6547642000951,None,425.3020066501107,None,425.3020066501107,None,425.3020066501107,None,,,,,,,,,,,121,22,Female,2022-05-09_09h34.41.100,Boat,2022.1.1,59.968396651683264,
negative,negative,1,j,l,,,,,,,,,8,6,150,0,,,,,,,,,,,,,,,,,,,,,,,,main,1,1,1,negative,negative,l,l,1,0.5578406999120489,425.3207562000025,426.3228679000167,426.3048213000875,None,425.3207562000025,None,425.3207562000025,None,425.3207562000025,None,426.8637252500979,None,426.8637252500979,None,426.8637252500979,None,,,,,,,,,,,121,22,Female,2022-05-09_09h34.41.100,Boat,2022.1.1,59.968396651683264,
positive,positive,1,l,j,,,,,,,,,8,7,151,2,,,,,,,,,,,,,,,,,,,,,,,,main,2,2,1,positive,positive,j,j,1,0.7263318999903277,426.88496240007225,427.90288690000307,427.864300700021,None,426.88496240007225,None,426.88496240007225,None,426.88496240007225,None,428.5899844500003,None,428.5899844500003,None,428.5899844500003,None,,,,,,,,,,,121,22,Female,2022-05-09_09h34.41.100,Boat,2022.1.1,59.968396651683264,
positive,positive,2,l,j,,,,,,,,,8,8,152,11,,,,,,,,,,,,,,,,,,,,,,,,main,2,2,2,positive,positive,j,j,1,0.5517475999658927,428.6145858000964,429.61987090006005,429.60305340006016,None,428.6145858000964,None,428.6145858000964,None,428.6145858000964,None,430.14771215009966,None,430.14771215009966,None,430.14771215009966,None,,,,,,,,,,,121,22,Female,2022-05-09_09h34.41.100,Boat,2022.1.1,59.968396651683264,
neutral,neutral,1,k,k,,,,,,,,,8,9,153,1,,,,,,,,,,,,,,,,,,,,,,,,main,2,2,1,neutral,neutral,k,k,1,0.5955306000541896,430.1681532000657,431.1693057999946,431.15054290008266,None,430.1681532000657,None,430.1681532000657,None,430.1681532000657,None,431.74396375005597,None,431.74396375005597,None,431.74396375005597,None,,,,,,,,,,,121,22,Female,2022-05-09_09h34.41.100,Boat,2022.1.1,59.968396651683264,
positive,negative,2,l,j,,,,,,,,,8,10,154,14,,,,,,,,,,,,,,,,,,,,,,,,main,1,1,2,negative,positive,j,j,1,0.6044620999600738,431.76593330001924,432.7802532000933,432.74098820006475,None,431.76593330001924,None,431.76593330001924,None,431.76593330001924,None,433.35314135006627,None,433.35314135006627,None,433.35314135006627,None,,,,,,,,,,,121,22,Female,2022-05-09_09h34.41.100,Boat,2022.1.1,59.968396651683264,
positive,neutral,2,l,j,,,,,,,,,8,11,155,17,,,,,,,,,,,,,,,,,,,,,,,,main,2,2,2,neutral,positive,j,j,1,0.4222260999958962,433.3723093000008,434.3758782000514,434.3574623001041,None,433.3723093000008,None,433.3723093000008,None,433.3723093000008,None,434.7792588500073,None,434.7792588500073,None,434.7792588500073,None,,,,,,,,,,,121,22,Female,2022-05-09_09h34.41.100,Boat,2022.1.1,59.968396651683264,
negative,negative,2,j,l,,,,,,,,,8,12,156,9,,,,,,,,,,,,,,,,,,,,,,,,main,1,1,2,negative,negative,l,l,1,0.5100609000073746,434.8021760000847,435.80414670007303,435.7697025000816,None,434.8021760000847,None,434.8021760000847,None,434.8021760000847,None,436.2903049500659,None,436.2903049500659,None,436.2903049500659,None,,,,,,,,,,,121,22,Female,2022-05-09_09h34.41.100,Boat,2022.1.1,59.968396651683264,
negative,positive,2,j,l,,,,,,,,,8,13,157,15,,,,,,,,,,,,,,,,,,,,,,,,main,1,1,2,positive,negative,l,l,1,0.4688313000369817,436.30994520010427,437.31840790004935,437.29788130009547,None,436.30994520010427,None,436.30994520010427,None,436.30994520010427,None,437.76248445010276,None,437.76248445010276,None,437.76248445010276,None,,,,,,,,,,,121,22,Female,2022-05-09_09h34.41.100,Boat,2022.1.1,59.968396651683264,
negative,neutral,1,j,l,,,,,,,,,8,14,158,3,,,,,,,,,,,,,,,,,,,,,,,,main,2,2,1,neutral,negative,l,l,1,0.5751751000061631,437.7818006000016,438.7844132001046,438.76450230006594,None,437.7818006000016,None,437.7818006000016,None,437.7818006000016,None,439.33989254999904,None,439.33989254999904,None,439.33989254999904,None,,,,,,,,,,,121,22,Female,2022-05-09_09h34.41.100,Boat,2022.1.1,59.968396651683264,
neutral,negative,1,k,k,,,,,,,,,8,15,159,7,,,,,,,,,,,,,,,,,,,,,,,,main,1,1,1,negative,neutral,k,l,0,0.5039673000574112,439.35934080008883,440.3730811000569,440.3370593000436,None,439.35934080008883,None,439.35934080008883,None,439.35934080008883,None,440.8527597000357,None,440.8527597000357,None,440.8527597000357,None,,,,,,,,,,,121,22,Female,2022-05-09_09h34.41.100,Boat,2022.1.1,59.968396651683264,
positive,negative,1,l,j,,,,,,,,,8,16,160,5,,,,,,,,,,,,,,,,,,,,,,,,main,1,1,1,negative,positive,j,j,1,0.6660700999200344,441.87328739999793,442.8910452000564,442.8543989000609,None,441.87328739999793,None,441.87328739999793,None,441.87328739999793,None,443.52302835006265,None,443.52302835006265,None,443.52302835006265,None,,,,,,,,,,,121,22,Female,2022-05-09_09h34.41.100,Boat,2022.1.1,59.968396651683264,
neutral,neutral,2,k,k,,,,,,,,,8,17,161,10,,,,,,,,,,,,,,,,,,,,,,,,main,1,1,2,neutral,neutral,k,k,1,0.5540107999695465,443.54246670007706,444.5578991000075,444.5204575000098,None,443.54246670007706,None,443.54246670007706,None,443.54246670007706,None,445.08152375007046,None,445.08152375007046,None,445.08152375007046,None,,,,,,,,,,,121,22,Female,2022-05-09_09h34.41.100,Boat,2022.1.1,59.968396651683264,
positive,neutral,1,l,j,,,,,,,,,9,0,162,8,,,,,,,,,,,,,,,,,,,,,,,,main,2,2,1,neutral,positive,j,j,1,0.5409744998905808,445.1023785000434,446.1173329000594,446.09785770007875,None,445.1023785000434,None,445.1023785000434,None,445.1023785000434,None,446.6256369501119,None,446.6256369501119,None,446.6256369501119,None,,,,,,,,,,,121,22,Female,2022-05-09_09h34.41.100,Boat,2022.1.1,59.968396651683264,
negative,negative,2,j,l,,,,,,,,,9,1,163,9,,,,,,,,,,,,,,,,,,,,,,,,main,2,2,2,negative,negative,l,k,0,0.47935460007283837,446.6434896000428,447.65561450005043,447.6196930001024,None,446.6434896000428,None,446.6434896000428,None,446.6434896000428,None,448.1126334000146,None,448.1126334000146,None,448.1126334000146,None,,,,,,,,,,,121,22,Female,2022-05-09_09h34.41.100,Boat,2022.1.1,59.968396651683264,
neutral,neutral,1,k,k,,,,,,,,,9,2,164,1,,,,,,,,,,,,,,,,,,,,,,,,main,1,1,1,neutral,neutral,k,k,1,0.6054750999901444,449.12475690001156,450.13128690002486,450.111493500066,None,449.12475690001156,None,449.12475690001156,None,449.12475690001156,None,450.7137482500169,None,450.7137482500169,None,450.7137482500169,None,,,,,,,,,,,121,22,Female,2022-05-09_09h34.41.100,Boat,2022.1.1,59.968396651683264,
positive,negative,2,l,j,,,,,,,,,9,3,165,14,,,,,,,,,,,,,,,,,,,,,,,,main,1,1,2,negative,positive,j,j,1,0.5807089000009,450.73467160004657,451.7364805000834,451.7200237000361,None,450.73467160004657,None,450.73467160004657,None,450.73467160004657,None,452.299080650066,None,452.299080650066,None,452.299080650066,None,,,,,,,,,,,121,22,Female,2022-05-09_09h34.41.100,Boat,2022.1.1,59.968396651683264,
positive,negative,1,l,j,,,,,,,,,9,4,166,5,,,,,,,,,,,,,,,,,,,,,,,,main,2,2,1,negative,positive,j,j,1,0.521034499979578,452.3188230000669,453.3224213999929,453.2870933000231,None,452.3188230000669,None,452.3188230000669,None,452.3188230000669,None,453.8202121500857,None,453.8202121500857,None,453.8202121500857,None,,,,,,,,,,,121,22,Female,2022-05-09_09h34.41.100,Boat,2022.1.1,59.968396651683264,
negative,positive,1,j,l,,,,,,,,,9,5,167,6,,,,,,,,,,,,,,,,,,,,,,,,main,1,1,1,positive,negative,l,l,1,0.7548253999557346,453.84075200010557,454.85955130006187,454.82007950008847,None,453.84075200010557,None,453.84075200010557,None,453.84075200010557,None,455.57981045006306,None,455.57981045006306,None,455.57981045006306,None,,,,,,,,,,,121,22,Female,2022-05-09_09h34.41.100,Boat,2022.1.1,59.968396651683264,
neutral,neutral,2,k,k,,,,,,,,,9,6,168,10,,,,,,,,,,,,,,,,,,,,,,,,main,2,2,2,neutral,neutral,k,k,1,0.5796951999654993,455.6015219000401,456.6200555000687,456.58141220000107,None,455.6015219000401,None,455.6015219000401,None,455.6015219000401,None,457.1622731500305,None,457.1622731500305,None,457.1622731500305,None,,,,,,,,,,,121,22,Female,2022-05-09_09h34.41.100,Boat,2022.1.1,59.968396651683264,
positive,neutral,2,l,j,,,,,,,,,9,7,169,17,,,,,,,,,,,,,,,,,,,,,,,,main,1,1,2,neutral,positive,j,j,1,0.6345729000167921,457.1818323000334,458.1868874001084,458.15343880001456,None,457.1818323000334,None,457.1818323000334,None,457.1818323000334,None,458.79901195000855,None,458.79901195000855,None,458.79901195000855,None,,,,,,,,,,,121,22,Female,2022-05-09_09h34.41.100,Boat,2022.1.1,59.968396651683264,
positive,positive,2,l,j,,,,,,,,,9,8,170,11,,,,,,,,,,,,,,,,,,,,,,,,main,1,1,2,positive,positive,j,j,1,0.5085855999495834,458.81873600010294,459.8284888000926,459.8013802000787,None,458.81873600010294,None,458.81873600010294,None,458.81873600010294,None,460.31101765003984,None,460.31101765003984,None,460.31101765003984,None,,,,,,,,,,,121,22,Female,2022-05-09_09h34.41.100,Boat,2022.1.1,59.968396651683264,
neutral,positive,1,k,k,,,,,,,,,9,9,171,4,,,,,,,,,,,,,,,,,,,,,,,,main,1,1,1,positive,neutral,k,k,1,0.6086502999532968,460.3293001001002,461.3445860000793,461.3035057000816,None,460.3293001001002,None,460.3293001001002,None,460.3293001001002,None,461.92123975008724,None,461.92123975008724,None,461.92123975008724,None,,,,,,,,,,,121,22,Female,2022-05-09_09h34.41.100,Boat,2022.1.1,59.968396651683264,
negative,positive,2,j,l,,,,,,,,,9,10,172,15,,,,,,,,,,,,,,,,,,,,,,,,main,2,2,2,positive,negative,l,l,1,0.6725473999977112,461.94140780007,462.9553390000947,462.92130700009875,None,461.94140780007,None,461.94140780007,None,461.94140780007,None,463.59809025002176,None,463.59809025002176,None,463.59809025002176,None,,,,,,,,,,,121,22,Female,2022-05-09_09h34.41.100,Boat,2022.1.1,59.968396651683264,
negative,neutral,1,j,l,,,,,,,,,9,11,173,3,,,,,,,,,,,,,,,,,,,,,,,,main,2,2,1,neutral,negative,l,l,1,0.6274811999173835,463.6188477000687,464.6250419000862,464.60497970005963,None,463.6188477000687,None,463.6188477000687,None,463.6188477000687,None,465.2289228500798,None,465.2289228500798,None,465.2289228500798,None,,,,,,,,,,,121,22,Female,2022-05-09_09h34.41.100,Boat,2022.1.1,59.968396651683264,
neutral,positive,2,k,k,,,,,,,,,9,12,174,13,,,,,,,,,,,,,,,,,,,,,,,,main,1,1,2,positive,neutral,k,k,1,0.596550100017339,465.24570760002825,466.2621966000879,466.2348113000626,None,465.24570760002825,None,465.24570760002825,None,465.24570760002825,None,466.82659585003273,None,466.82659585003273,None,466.82659585003273,None,,,,,,,,,,,121,22,Female,2022-05-09_09h34.41.100,Boat,2022.1.1,59.968396651683264,
negative,negative,1,j,l,,,,,,,,,9,13,175,0,,,,,,,,,,,,,,,,,,,,,,,,main,2,2,1,negative,negative,l,l,1,0.5643793999915943,466.8483101000311,467.8608624000335,467.8239057000028,None,466.8483101000311,None,466.8483101000311,None,466.8483101000311,None,468.39270525004247,None,468.39270525004247,None,468.39270525004247,None,,,,,,,,,,,121,22,Female,2022-05-09_09h34.41.100,Boat,2022.1.1,59.968396651683264,
neutral,negative,1,k,k,,,,,,,,,9,14,176,7,,,,,,,,,,,,,,,,,,,,,,,,main,2,2,1,negative,neutral,k,k,1,0.6289947999175638,468.4115689001046,469.42606750002597,469.3885032000253,None,468.4115689001046,None,468.4115689001046,None,468.4115689001046,None,470.0239303500624,None,470.0239303500624,None,470.0239303500624,None,,,,,,,,,,,121,22,Female,2022-05-09_09h34.41.100,Boat,2022.1.1,59.968396651683264,
neutral,negative,2,k,k,,,,,,,,,9,15,177,16,,,,,,,,,,,,,,,,,,,,,,,,main,1,1,2,negative,neutral,k,k,1,0.5281454999931157,470.0425967000192,471.0618680000771,471.02027440001257,None,470.0425967000192,None,470.0425967000192,None,470.0425967000192,None,471.5556091500679,None,471.5556091500679,None,471.5556091500679,None,,,,,,,,,,,121,22,Female,2022-05-09_09h34.41.100,Boat,2022.1.1,59.968396651683264,
positive,positive,1,l,j,,,,,,,,,9,16,178,2,,,,,,,,,,,,,,,,,,,,,,,,main,2,2,1,positive,positive,j,j,1,0.7001737999962643,471.57514510001056,472.5904114000732,472.5546058000764,None,471.57514510001056,None,471.57514510001056,None,471.57514510001056,None,473.25907985002266,None,473.25907985002266,None,473.25907985002266,None,,,,,,,,,,,121,22,Female,2022-05-09_09h34.41.100,Boat,2022.1.1,59.968396651683264,
negative,neutral,2,j,l,,,,,,,,,9,17,179,12,,,,,,,,,,,,,,,,,,,,,,,,main,2,2,2,neutral,negative,l,l,1,0.5509479999309406,473.27629890001845,474.2934459000826,474.25602329999674,None,473.27629890001845,None,473.27629890001845,None,473.27629890001845,None,474.8133519500028,None,474.8133519500028,None,474.8133519500028,None,,,,,,,,,,,121,22,Female,2022-05-09_09h34.41.100,Boat,2022.1.1,59.968396651683264,
neutral,negative,2,k,k,,,,,,,,,10,0,180,16,,,,,,,,,,,,,,,,,,,,,,,,main,2,2,2,negative,neutral,k,k,1,0.6443682999815792,474.8317521000281,475.83939530001953,475.8053677000571,None,474.8317521000281,None,474.8317521000281,None,474.8317521000281,None,476.4596754500875,None,476.4596754500875,None,476.4596754500875,None,,,,,,,,,,,121,22,Female,2022-05-09_09h34.41.100,Boat,2022.1.1,59.968396651683264,
neutral,negative,1,k,k,,,,,,,,,10,1,181,7,,,,,,,,,,,,,,,,,,,,,,,,main,2,2,1,negative,neutral,k,k,1,0.5280349999666214,476.4772953001084,477.49124800006393,477.4537661001086,None,476.4772953001084,None,476.4772953001084,None,476.4772953001084,None,477.9891045500757,None,477.9891045500757,None,477.9891045500757,None,,,,,,,,,,,121,22,Female,2022-05-09_09h34.41.100,Boat,2022.1.1,59.968396651683264,
positive,negative,2,l,j,,,,,,,,,10,2,182,14,,,,,,,,,,,,,,,,,,,,,,,,main,1,1,2,negative,positive,j,j,1,0.653419699985534,478.00968740007374,479.0264103000518,478.98979830008466,None,478.00968740007374,None,478.00968740007374,None,478.00968740007374,None,479.646995649999,None,479.646995649999,None,479.646995649999,None,,,,,,,,,,,121,22,Female,2022-05-09_09h34.41.100,Boat,2022.1.1,59.968396651683264,
neutral,positive,1,k,k,,,,,,,,,10,3,183,4,,,,,,,,,,,,,,,,,,,,,,,,main,2,2,1,positive,neutral,k,k,1,0.6940128999995068,479.66950370010454,480.67094270000234,480.65405430004466,None,479.66950370010454,None,479.66950370010454,None,479.66950370010454,None,481.34489425001664,None,481.34489425001664,None,481.34489425001664,None,,,,,,,,,,,121,22,Female,2022-05-09_09h34.41.100,Boat,2022.1.1,59.968396651683264,
positive,neutral,2,l,j,,,,,,,,,10,4,184,17,,,,,,,,,,,,,,,,,,,,,,,,main,1,1,2,neutral,positive,j,j,1,0.6089140999829397,481.3643834000686,482.37552870006766,482.33918830007315,None,481.3643834000686,None,481.3643834000686,None,481.3643834000686,None,482.95463735002556,None,482.95463735002556,None,482.95463735002556,None,,,,,,,,,,,121,22,Female,2022-05-09_09h34.41.100,Boat,2022.1.1,59.968396651683264,
negative,negative,1,j,l,,,,,,,,,10,5,185,0,,,,,,,,,,,,,,,,,,,,,,,,main,2,2,1,negative,negative,l,l,1,1.0856708999490365,482.9732547000749,483.9875168000581,483.95278260007035,None,482.9732547000749,None,482.9732547000749,None,482.9732547000749,None,485.04298025006426,None,485.04298025006426,None,485.04298025006426,None,,,,,,,,,,,121,22,Female,2022-05-09_09h34.41.100,Boat,2022.1.1,59.968396651683264,
negative,neutral,1,j,l,,,,,,,,,10,6,186,3,,,,,,,,,,,,,,,,,,,,,,,,main,1,1,1,neutral,negative,l,l,1,0.5550992999924347,485.0614108000882,486.08198720007204,486.03548400010914,None,485.0614108000882,None,485.0614108000882,None,485.0614108000882,None,486.6016114500584,None,486.6016114500584,None,486.6016114500584,None,,,,,,,,,,,121,22,Female,2022-05-09_09h34.41.100,Boat,2022.1.1,59.968396651683264,
positive,neutral,1,l,j,,,,,,,,,10,7,187,8,,,,,,,,,,,,,,,,,,,,,,,,main,1,1,1,neutral,positive,j,j,1,0.7157551000127569,486.62212360010017,487.62360020005144,487.6044677000027,None,486.62212360010017,None,486.62212360010017,None,486.62212360010017,None,488.3210340500576,None,488.3210340500576,None,488.3210340500576,None,,,,,,,,,,,121,22,Female,2022-05-09_09h34.41.100,Boat,2022.1.1,59.968396651683264,
negative,positive,2,j,l,,,,,,,,,10,8,188,15,,,,,,,,,,,,,,,,,,,,,,,,main,2,2,2,positive,negative,l,l,1,0.6461622000206262,488.34056000004057,489.3620062000118,489.3226141000632,None,488.34056000004057,None,488.34056000004057,None,488.34056000004057,None,489.9708377500996,None,489.9708377500996,None,489.9708377500996,None,,,,,,,,,,,121,22,Female,2022-05-09_09h34.41.100,Boat,2022.1.1,59.968396651683264,
positive,negative,1,l,j,,,,,,,,,10,9,189,5,,,,,,,,,,,,,,,,,,,,,,,,main,1,1,1,negative,positive,j,j,1,0.6664266000734642,489.98813860001974,490.9877069001086,490.97097290004604,None,489.98813860001974,None,489.98813860001974,None,489.98813860001974,None,491.63823475011156,None,491.63823475011156,None,491.63823475011156,None,,,,,,,,,,,121,22,Female,2022-05-09_09h34.41.100,Boat,2022.1.1,59.968396651683264,
negative,neutral,2,j,l,,,,,,,,,10,10,190,12,,,,,,,,,,,,,,,,,,,,,,,,main,2,2,2,neutral,negative,l,l,1,0.6506520999828354,491.6647800001083,492.68183580006007,492.6418291000882,None,491.6647800001083,None,491.6647800001083,None,491.6647800001083,None,493.292565450049,None,493.292565450049,None,493.292565450049,None,,,,,,,,,,,121,22,Female,2022-05-09_09h34.41.100,Boat,2022.1.1,59.968396651683264,
negative,negative,2,j,l,,,,,,,,,10,11,191,9,,,,,,,,,,,,,,,,,,,,,,,,main,1,1,2,negative,negative,l,l,1,-0.6636081000324339,493.31076200003736,None,None,None,493.31076200003736,None,493.31076200003736,None,493.31076200003736,None,493.6470096000703,None,493.6470096000703,None,493.6470096000703,None,,,,,,,,,,,121,22,Female,2022-05-09_09h34.41.100,Boat,2022.1.1,59.968396651683264,
negative,positive,1,j,l,,,,,,,,,10,12,192,6,,,,,,,,,,,,,,,,,,,,,,,,main,2,2,1,positive,negative,l,l,1,0.7712008999660611,496.6586913000792,497.6741003000643,497.6381708000554,None,496.6586913000792,None,496.6586913000792,None,496.6586913000792,None,498.4140800500521,None,498.4140800500521,None,498.4140800500521,None,,,,,,,,,,,121,22,Female,2022-05-09_09h34.41.100,Boat,2022.1.1,59.968396651683264,
positive,positive,2,l,j,,,,,,,,,10,13,193,11,,,,,,,,,,,,,,,,,,,,,,,,main,1,1,2,positive,positive,j,j,1,0.6167635000310838,498.4368139000144,499.455788900028,499.416079500108,None,498.4368139000144,None,498.4368139000144,None,498.4368139000144,None,500.0344499500701,None,500.0344499500701,None,500.0344499500701,None,,,,,,,,,,,121,22,Female,2022-05-09_09h34.41.100,Boat,2022.1.1,59.968396651683264,
neutral,positive,2,k,k,,,,,,,,,10,14,194,13,,,,,,,,,,,,,,,,,,,,,,,,main,1,1,2,positive,neutral,k,k,1,0.6084121000021696,500.0533284000121,501.05438490002416,501.0357987000607,None,500.0533284000121,None,500.0533284000121,None,500.0533284000121,None,501.64371765006797,None,501.64371765006797,None,501.64371765006797,None,,,,,,,,,,,121,22,Female,2022-05-09_09h34.41.100,Boat,2022.1.1,59.968396651683264,
positive,positive,1,l,j,,,,,,,,,10,15,195,2,,,,,,,,,,,,,,,,,,,,,,,,main,1,1,1,positive,positive,j,j,1,0.7157174000749364,501.6667298000539,502.6791452000616,502.6523065000074,None,501.6667298000539,None,501.6667298000539,None,501.6667298000539,None,503.3643472500611,None,503.3643472500611,None,503.3643472500611,None,,,,,,,,,,,121,22,Female,2022-05-09_09h34.41.100,Boat,2022.1.1,59.968396651683264,
neutral,neutral,2,k,k,,,,,,,,,10,16,196,10,,,,,,,,,,,,,,,,,,,,,,,,main,2,2,2,neutral,neutral,k,k,1,0.5651042000390589,503.383865000098,504.39928580005653,504.37917359999847,None,503.383865000098,None,503.383865000098,None,503.383865000098,None,504.9316175500629,None,504.9316175500629,None,504.9316175500629,None,,,,,,,,,,,121,22,Female,2022-05-09_09h34.41.100,Boat,2022.1.1,59.968396651683264,
neutral,neutral,1,k,k,,,,,,,,,10,17,197,1,,,,,,,,,,,,,,,,,,,,,,,,main,2,2,1,neutral,neutral,k,k,1,0.6783898000139743,504.94902380008716,505.9543602000922,505.93764370004646,None,504.94902380008716,None,504.94902380008716,None,504.94902380008716,None,506.61113315003456,None,506.61113315003456,None,506.61113315003456,None,,,,,,,,,,,121,22,Female,2022-05-09_09h34.41.100,Boat,2022.1.1,59.968396651683264,
positive,neutral,1,l,j,,,,,,,,,11,0,198,8,,,,,,,,,,,,,,,,,,,,,,,,main,2,2,1,neutral,positive,j,j,1,0.583522200002335,506.63007760001346,507.6382419000147,507.6046131000621,None,506.63007760001346,None,506.63007760001346,None,506.63007760001346,None,508.19850915004497,None,508.19850915004497,None,508.19850915004497,None,,,,,,,,,,,121,22,Female,2022-05-09_09h34.41.100,Boat,2022.1.1,59.968396651683264,
negative,negative,1,j,l,,,,,,,,,11,1,199,0,,,,,,,,,,,,,,,,,,,,,,,,main,1,1,1,negative,negative,l,l,1,0.6966282000066712,508.22061920003034,509.22185100009665,509.20511780004017,None,508.22061920003034,None,508.22061920003034,None,508.22061920003034,None,509.89741125002035,None,509.89741125002035,None,509.89741125002035,None,,,,,,,,,,,121,22,Female,2022-05-09_09h34.41.100,Boat,2022.1.1,59.968396651683264,
neutral,negative,2,k,k,,,,,,,,,11,2,200,16,,,,,,,,,,,,,,,,,,,,,,,,main,2,2,2,negative,neutral,k,k,1,0.5510132999625057,509.9168526000576,510.92385390005074,510.90584970009513,None,509.9168526000576,None,509.9168526000576,None,509.9168526000576,None,511.4521573500009,None,511.4521573500009,None,511.4521573500009,None,,,,,,,,,,,121,22,Female,2022-05-09_09h34.41.100,Boat,2022.1.1,59.968396651683264,
neutral,positive,1,k,k,,,,,,,,,11,3,201,4,,,,,,,,,,,,,,,,,,,,,,,,main,2,2,1,positive,neutral,k,k,1,0.5451967999106273,511.47104480001144,512.4721110000974,512.4546999000013,None,511.47104480001144,None,511.47104480001144,None,511.47104480001144,None,512.9995366499992,None,512.9995366499992,None,512.9995366499992,None,,,,,,,,,,,121,22,Female,2022-05-09_09h34.41.100,Boat,2022.1.1,59.968396651683264,
negative,positive,1,j,l,,,,,,,,,11,4,202,6,,,,,,,,,,,,,,,,,,,,,,,,main,2,2,1,positive,negative,l,l,1,0.7123805000446737,513.0195381999947,514.0272017000243,514.0092721000547,None,513.0195381999947,None,513.0195381999947,None,513.0195381999947,None,514.7148872500751,None,514.7148872500751,None,514.7148872500751,None,,,,,,,,,,,121,22,Female,2022-05-09_09h34.41.100,Boat,2022.1.1,59.968396651683264,
positive,positive,1,l,j,,,,,,,,,11,5,203,2,,,,,,,,,,,,,,,,,,,,,,,,main,1,1,1,positive,positive,j,j,1,0.5967458999948576,514.7350670000305,515.7407223000191,515.7055665000807,None,514.7350670000305,None,514.7350670000305,None,514.7350670000305,None,516.3148868500488,None,516.3148868500488,None,516.3148868500488,None,,,,,,,,,,,121,22,Female,2022-05-09_09h34.41.100,Boat,2022.1.1,59.968396651683264,
positive,negative,2,l,j,,,,,,,,,11,6,204,14,,,,,,,,,,,,,,,,,,,,,,,,main,1,1,2,negative,positive,j,j,1,0.6396272999700159,516.3355764000444,517.3398174000904,517.3048888000194,None,516.3355764000444,None,516.3355764000444,None,516.3355764000444,None,517.9554298500065,None,517.9554298500065,None,517.9554298500065,None,,,,,,,,,,,121,22,Female,2022-05-09_09h34.41.100,Boat,2022.1.1,59.968396651683264,
neutral,negative,1,k,k,,,,,,,,,11,7,205,7,,,,,,,,,,,,,,,,,,,,,,,,main,2,2,1,negative,neutral,k,k,1,0.5932523000519723,517.97407570004,518.989544800017,518.9549536000704,None,517.97407570004,None,517.97407570004,None,517.97407570004,None,519.552374850004,None,519.552374850004,None,519.552374850004,None,,,,,,,,,,,121,22,Female,2022-05-09_09h34.41.100,Boat,2022.1.1,59.968396651683264,
negative,negative,2,j,l,,,,,,,,,11,8,206,9,,,,,,,,,,,,,,,,,,,,,,,,main,2,2,2,negative,negative,l,l,1,0.7783595999935642,519.5714406000916,520.5739893000573,520.556485200068,None,519.5714406000916,None,519.5714406000916,None,519.5714406000916,None,521.3348030500114,None,521.3348030500114,None,521.3348030500114,None,,,,,,,,,,,121,22,Female,2022-05-09_09h34.41.100,Boat,2022.1.1,59.968396651683264,
negative,positive,2,j,l,,,,,,,,,11,9,207,15,,,,,,,,,,,,,,,,,,,,,,,,main,2,2,2,positive,negative,l,l,1,0.5780544000444934,521.3537937001092,522.3715250000823,522.3333226999966,None,521.3537937001092,None,521.3537937001092,None,521.3537937001092,None,522.915634350013,None,522.915634350013,None,522.915634350013,None,,,,,,,,,,,121,22,Female,2022-05-09_09h34.41.100,Boat,2022.1.1,59.968396651683264,
