target,distractor,set,ans1,ans2,rep_loop2.thisRepN,rep_loop2.thisTrialN,rep_loop2.thisN,rep_loop2.thisIndex,flanker_prac_loop.thisRepN,flanker_prac_loop.thisTrialN,flanker_prac_loop.thisN,flanker_prac_loop.thisIndex,flanker_main_loop.thisRepN,flanker_main_loop.thisTrialN,flanker_main_loop.thisN,flanker_main_loop.thisIndex,fl_inst_resp.keys,mouse.x,mouse.y,mouse.leftButton,mouse.midButton,mouse.rightButton,mouse.started,mouse.stopped,sound_1.started,sound_1.stopped,no_text.started,no_text.stopped,yes_text.started,yes_text.stopped,mouse_2.x,mouse_2.y,mouse_2.leftButton,mouse_2.midButton,mouse_2.rightButton,mouse_2.started,mouse_2.stopped,back_2.started,back_2.stopped,main_prac,fl_cold,fl_colt,fl_set,fl_dcond,fl_tcond,fl_ans,fl_res,fl_corr,fl_rt,fix_fl.started,fix_fl.stopped,targ.started,targ.stopped,j_button.started,j_button.stopped,k_button.started,k_button.stopped,l_button.started,l_button.stopped,j_button2.started,j_button2.stopped,k_button2.started,k_button2.stopped,l_button2.started,l_button2.stopped,mainback.started,mainback.stopped,key_resp.keys,mouse_6.x,mouse_6.y,mouse_6.leftButton,mouse_6.midButton,mouse_6.rightButton,mouse_6.started,mouse_6.stopped,id*,age*,gender*,date,expName,psychopyVersion,frameRate,
,,,,,0,0,0,0,,,,,,,,,None,-0.012037037,-0.4101852,0,0,0,1.024370958446525,None,27.454023719998077,None,79.48987759999,None,79.48987759999,None,-0.09537037,-0.07777778,0,0,0,0.012623319984413683,None,,,,,,,,,,,,,,,,,,,,,,,,,,,,,,,,,,,,,,,122,21,Female,2022-05-09_15h51.13.789,Boat,2022.1.1,60.13438833226163,
neutral,positive,2,k,k,,,,,0,0,0,13,,,,,,,,,,,,,,,,,,,,,,,,,,83.59137949999422,None,prac,2,2,2,positive,neutral,k,k,1,1.651596499956213,85.62303349992726,86.63279949990101,86.59337319992483,None,85.62303349992726,None,85.62303349992726,None,85.62303349992726,None,88.26734779996332,None,88.26734779996332,None,88.26734779996332,None,,,,,,,,,,,122,21,Female,2022-05-09_15h51.13.789,Boat,2022.1.1,60.13438833226163,
negative,negative,1,j,l,,,,,0,1,1,0,,,,,,,,,,,,,,,,,,,,,,,,,,,,prac,2,2,1,negative,negative,j,j,1,1.7013010000810027,89.28172229998745,90.2999550999375,90.26170669996645,None,89.28172229998745,None,89.28172229998745,None,89.28172229998745,None,91.97042879997753,None,91.97042879997753,None,91.97042879997753,None,,,,,,,,,,,122,21,Female,2022-05-09_15h51.13.789,Boat,2022.1.1,60.13438833226163,
neutral,negative,2,k,k,,,,,0,2,2,16,,,,,,,,,,,,,,,,,,,,,,,,,,,,prac,1,1,2,negative,neutral,k,k,1,0.9300182999577373,92.98195159994066,93.99796830001287,93.96265819994733,None,92.98195159994066,None,92.98195159994066,None,92.98195159994066,None,94.8942902199924,None,94.8942902199924,None,94.8942902199924,None,,,,,,,,,,,122,21,Female,2022-05-09_15h51.13.789,Boat,2022.1.1,60.13438833226163,
neutral,neutral,2,k,k,,,,,0,3,3,10,,,,,,,,,,,,,,,,,,,,,,,,,,,,prac,1,1,2,neutral,neutral,k,k,1,0.8122711000032723,94.91504959994927,95.92818960000295,95.88932919991203,None,94.91504959994927,None,94.91504959994927,None,94.91504959994927,None,96.7093632199103,None,96.7093632199103,None,96.7093632199103,None,,,,,,,,,,,122,21,Female,2022-05-09_15h51.13.789,Boat,2022.1.1,60.13438833226163,
negative,positive,1,j,l,,,,,0,4,4,6,,,,,,,,,,,,,,,,,,,,,,,,,,,,prac,1,1,1,positive,negative,j,j,1,0.8522924999706447,96.73330369999167,97.74392439995427,97.7085320999613,None,96.73330369999167,None,96.73330369999167,None,96.73330369999167,None,98.56682541989721,None,98.56682541989721,None,98.56682541989721,None,,,,,,,,,,,122,21,Female,2022-05-09_15h51.13.789,Boat,2022.1.1,60.13438833226163,
positive,negative,2,l,j,,,,,0,5,5,14,,,,,,,,,,,,,,,,,,,,,,,,,,,,prac,2,2,2,negative,positive,l,l,1,0.8811560999602079,98.5850075999042,99.59347939991858,99.57636619999539,None,98.5850075999042,None,98.5850075999042,None,98.5850075999042,None,100.44865711999591,None,100.44865711999591,None,100.44865711999591,None,,,,,,,,,,,122,21,Female,2022-05-09_15h51.13.789,Boat,2022.1.1,60.13438833226163,
neutral,negative,1,k,k,,,,,0,6,6,7,,,,,,,,,,,,,,,,,,,,,,,,,,,,prac,2,2,1,negative,neutral,k,k,1,0.6848178999498487,100.46727719996125,101.47223159996793,101.45214239996858,None,100.46727719996125,None,100.46727719996125,None,100.46727719996125,None,102.13713421998546,None,102.13713421998546,None,102.13713421998546,None,,,,,,,,,,,122,21,Female,2022-05-09_15h51.13.789,Boat,2022.1.1,60.13438833226163,
negative,negative,2,j,l,,,,,0,7,7,9,,,,,,,,,,,,,,,,,,,,,,,,,,,,prac,1,1,2,negative,negative,j,j,1,0.8296210000989959,102.1595476999646,103.16683389991522,103.14843549998477,None,102.1595476999646,None,102.1595476999646,None,102.1595476999646,None,103.97118611994665,None,103.97118611994665,None,103.97118611994665,None,,,,,,,,,,,122,21,Female,2022-05-09_15h51.13.789,Boat,2022.1.1,60.13438833226163,
negative,neutral,1,j,l,,,,,0,8,8,3,,,,,,,,,,,,,,,,,,,,,,,,,,,,prac,2,2,1,neutral,negative,j,j,1,0.8750523999333382,103.99243879993446,105.00024959992152,104.96159939991776,None,103.99243879993446,None,103.99243879993446,None,103.99243879993446,None,105.84618161991239,None,105.84618161991239,None,105.84618161991239,None,,,,,,,,,,,122,21,Female,2022-05-09_15h51.13.789,Boat,2022.1.1,60.13438833226163,
positive,positive,1,l,j,,,,,0,9,9,2,,,,,,,,,,,,,,,,,,,,,,,,,,,,prac,2,2,1,positive,positive,l,l,1,0.8427392999874428,105.86722639994696,106.88042709999718,106.84416209999472,None,105.86722639994696,None,105.86722639994696,None,105.86722639994696,None,107.69450761994813,None,107.69450761994813,None,107.69450761994813,None,,,,,,,,,,,122,21,Female,2022-05-09_15h51.13.789,Boat,2022.1.1,60.13438833226163,
negative,positive,2,j,l,,,,,0,10,10,15,,,,,,,,,,,,,,,,,,,,,,,,,,,,prac,2,2,2,positive,negative,j,j,1,0.8214270999887958,107.71225430001505,108.713134599966,108.6947719999589,None,107.71225430001505,None,107.71225430001505,None,107.71225430001505,None,109.51464861992281,None,109.51464861992281,None,109.51464861992281,None,,,,,,,,,,,122,21,Female,2022-05-09_15h51.13.789,Boat,2022.1.1,60.13438833226163,
neutral,neutral,1,k,k,,,,,0,11,11,1,,,,,,,,,,,,,,,,,,,,,,,,,,,,prac,1,1,1,neutral,neutral,k,k,1,0.6722685999702662,109.53674709994812,110.55179199995473,110.51422089990228,None,109.53674709994812,None,109.53674709994812,None,109.53674709994812,None,111.1929310199339,None,111.1929310199339,None,111.1929310199339,None,,,,,,,,,,,122,21,Female,2022-05-09_15h51.13.789,Boat,2022.1.1,60.13438833226163,
positive,negative,1,l,j,,,,,0,12,12,5,,,,,,,,,,,,,,,,,,,,,,,,,,,,prac,2,2,1,negative,positive,l,l,1,1.1799812000244856,111.21414599998388,112.2284604999004,112.19254660001025,None,111.21414599998388,None,111.21414599998388,None,111.21414599998388,None,113.37593621993437,None,113.37593621993437,None,113.37593621993437,None,,,,,,,,,,,122,21,Female,2022-05-09_15h51.13.789,Boat,2022.1.1,60.13438833226163,
negative,neutral,2,j,l,,,,,0,13,13,12,,,,,,,,,,,,,,,,,,,,,,,,,,,,prac,2,2,2,neutral,negative,j,j,1,0.9754945000167936,113.39629169995897,114.3968171000015,114.37934280000627,None,113.39629169995897,None,113.39629169995897,None,113.39629169995897,None,115.35603011993226,None,115.35603011993226,None,115.35603011993226,None,,,,,,,,,,,122,21,Female,2022-05-09_15h51.13.789,Boat,2022.1.1,60.13438833226163,
positive,neutral,2,l,j,,,,,0,14,14,17,,,,,,,,,,,,,,,,,,,,,,,,,,,,prac,2,2,2,neutral,positive,l,l,1,0.8960504999849945,115.37351129995659,116.39418930001557,116.3557566999225,None,115.37351129995659,None,115.37351129995659,None,115.37351129995659,None,117.25247121998109,None,117.25247121998109,None,117.25247121998109,None,,,,,,,,,,,122,21,Female,2022-05-09_15h51.13.789,Boat,2022.1.1,60.13438833226163,
neutral,positive,1,k,k,,,,,0,15,15,4,,,,,,,,,,,,,,,,,,,,,,,,,,,,prac,2,2,1,positive,neutral,k,k,1,0.8371878999751061,117.27645229990594,118.27774639998097,118.25985739997122,None,117.27645229990594,None,117.27645229990594,None,117.27645229990594,None,119.09355581994168,None,119.09355581994168,None,119.09355581994168,None,,,,,,,,,,,122,21,Female,2022-05-09_15h51.13.789,Boat,2022.1.1,60.13438833226163,
positive,neutral,1,l,j,,,,,0,16,16,8,,,,,,,,,,,,,,,,,,,,,,,,,,,,prac,2,2,1,neutral,positive,l,l,1,0.8763423999771476,119.11175429995637,120.11268629995175,120.09453719994053,None,119.11175429995637,None,119.11175429995637,None,119.11175429995637,None,120.97337972000241,None,120.97337972000241,None,120.97337972000241,None,,,,,,,,,,,122,21,Female,2022-05-09_15h51.13.789,Boat,2022.1.1,60.13438833226163,
positive,positive,2,l,j,,,,,0,17,17,11,,,,,,,,,,,,,,,,,,,,,,,,,,,,prac,1,1,2,positive,positive,l,l,1,0.9435694999992847,120.99157449998893,122.01110959996004,121.97231579991058,None,120.99157449998893,None,120.99157449998893,None,120.99157449998893,None,122.91684831993189,None,122.91684831993189,None,122.91684831993189,None,,,,,,,,,,,122,21,Female,2022-05-09_15h51.13.789,Boat,2022.1.1,60.13438833226163,
neutral,negative,2,k,k,,,,,1,0,18,16,,,,,,,,,,,,,,,,,,,,,,,,,,,,prac,1,1,2,negative,neutral,k,k,1,0.8941840999759734,122.94177239993587,123.9443882999476,123.92766919999849,None,122.94177239993587,None,122.94177239993587,None,122.94177239993587,None,124.81391982000787,None,124.81391982000787,None,124.81391982000787,None,,,,,,,,,,,122,21,Female,2022-05-09_15h51.13.789,Boat,2022.1.1,60.13438833226163,
positive,negative,1,l,j,,,,,1,1,19,5,,,,,,,,,,,,,,,,,,,,,,,,,,,,prac,1,1,1,negative,positive,l,l,1,0.9866752000525594,124.83347909990698,125.84916869993322,125.81122889998369,None,124.83347909990698,None,124.83347909990698,None,124.83347909990698,None,126.80340102000628,None,126.80340102000628,None,126.80340102000628,None,,,,,,,,,,,122,21,Female,2022-05-09_15h51.13.789,Boat,2022.1.1,60.13438833226163,
positive,negative,2,l,j,,,,,1,2,20,14,,,,,,,,,,,,,,,,,,,,,,,,,,,,prac,2,2,2,negative,positive,l,l,1,0.9378453000681475,126.8246450999286,127.83058059995528,127.81120220001321,None,126.8246450999286,None,126.8246450999286,None,126.8246450999286,None,128.74456851999275,None,128.74456851999275,None,128.74456851999275,None,,,,,,,,,,,122,21,Female,2022-05-09_15h51.13.789,Boat,2022.1.1,60.13438833226163,
positive,positive,2,l,j,,,,,1,3,21,11,,,,,,,,,,,,,,,,,,,,,,,,,,,,prac,2,2,2,positive,positive,l,l,1,1.039279600023292,128.76266679994296,129.77827269991394,129.73922509991098,None,128.76266679994296,None,128.76266679994296,None,128.76266679994296,None,130.78688962000888,None,130.78688962000888,None,130.78688962000888,None,,,,,,,,,,,122,21,Female,2022-05-09_15h51.13.789,Boat,2022.1.1,60.13438833226163,
negative,positive,1,j,l,,,,,1,4,22,6,,,,,,,,,,,,,,,,,,,,,,,,,,,,prac,1,1,1,positive,negative,j,j,1,0.8674386999337003,130.80912379990332,131.83089709992055,131.78682459995616,None,130.80912379990332,None,130.80912379990332,None,130.80912379990332,None,132.65733382001054,None,132.65733382001054,None,132.65733382001054,None,,,,,,,,,,,122,21,Female,2022-05-09_15h51.13.789,Boat,2022.1.1,60.13438833226163,
negative,negative,1,j,l,,,,,1,5,23,0,,,,,,,,,,,,,,,,,,,,,,,,,,,,prac,2,2,1,negative,negative,j,j,1,0.8407029999652877,132.67664109996986,133.67746249993797,133.65936339995824,None,132.67664109996986,None,132.67664109996986,None,132.67664109996986,None,134.49883512000088,None,134.49883512000088,None,134.49883512000088,None,,,,,,,,,,,122,21,Female,2022-05-09_15h51.13.789,Boat,2022.1.1,60.13438833226163,
negative,neutral,2,j,l,,,,,1,6,24,12,,,,,,,,,,,,,,,,,,,,,,,,,,,,prac,2,2,2,neutral,negative,j,j,1,0.9128355999710038,134.51610729994718,135.5299648999935,135.51185399992391,None,134.51610729994718,None,134.51610729994718,None,134.51610729994718,None,136.41353171993978,None,136.41353171993978,None,136.41353171993978,None,,,,,,,,,,,122,21,Female,2022-05-09_15h51.13.789,Boat,2022.1.1,60.13438833226163,
positive,neutral,1,l,j,,,,,1,7,25,8,,,,,,,,,,,,,,,,,,,,,,,,,,,,prac,2,2,1,neutral,positive,l,l,1,1.3414592000190169,136.4326107999077,137.4490013999166,137.41179459996056,None,136.4326107999077,None,136.4326107999077,None,136.4326107999077,None,138.75883801991586,None,138.75883801991586,None,138.75883801991586,None,,,,,,,,,,,122,21,Female,2022-05-09_15h51.13.789,Boat,2022.1.1,60.13438833226163,
negative,positive,2,j,l,,,,,1,8,26,15,,,,,,,,,,,,,,,,,,,,,,,,,,,,prac,2,2,2,positive,negative,j,j,1,0.9037878999952227,138.77802410000004,139.78265870001633,139.76424549997319,None,138.77802410000004,None,138.77802410000004,None,138.77802410000004,None,140.66371671995148,None,140.66371671995148,None,140.66371671995148,None,,,,,,,,,,,122,21,Female,2022-05-09_15h51.13.789,Boat,2022.1.1,60.13438833226163,
positive,positive,1,l,j,,,,,1,9,27,2,,,,,,,,,,,,,,,,,,,,,,,,,,,,prac,2,2,1,positive,positive,l,l,1,0.9907226000213996,140.68762270000298,141.70086769992486,141.66422689997125,None,140.68762270000298,None,140.68762270000298,None,140.68762270000298,None,142.65742492000572,None,142.65742492000572,None,142.65742492000572,None,,,,,,,,,,,122,21,Female,2022-05-09_15h51.13.789,Boat,2022.1.1,60.13438833226163,
neutral,neutral,1,k,k,,,,,1,10,28,1,,,,,,,,,,,,,,,,,,,,,,,,,,,,prac,2,2,1,neutral,neutral,k,k,1,0.85399990004953,142.67798369994853,143.67862419993617,143.6616099999519,None,142.67798369994853,None,142.67798369994853,None,142.67798369994853,None,144.5151405199431,None,144.5151405199431,None,144.5151405199431,None,,,,,,,,,,,122,21,Female,2022-05-09_15h51.13.789,Boat,2022.1.1,60.13438833226163,
neutral,positive,2,k,k,,,,,1,11,29,13,,,,,,,,,,,,,,,,,,,,,,,,,,,,prac,2,2,2,positive,neutral,k,k,1,0.8127937000244856,144.53371119999792,145.55163639993407,145.51598629995715,None,144.53371119999792,None,144.53371119999792,None,144.53371119999792,None,146.32959371991456,None,146.32959371991456,None,146.32959371991456,None,,,,,,,,,,,122,21,Female,2022-05-09_15h51.13.789,Boat,2022.1.1,60.13438833226163,
negative,negative,2,j,l,,,,,1,12,30,9,,,,,,,,,,,,,,,,,,,,,,,,,,,,prac,1,1,2,negative,negative,j,j,1,1.644928599940613,146.34909619996324,147.36169529997278,147.32316019991413,None,146.34909619996324,None,146.34909619996324,None,146.34909619996324,None,148.98310740001034,None,148.98310740001034,None,148.98310740001034,None,,,,,,,,,,,122,21,Female,2022-05-09_15h51.13.789,Boat,2022.1.1,60.13438833226163,
positive,neutral,2,l,j,,,,,1,13,31,17,,,,,,,,,,,,,,,,,,,,,,,,,,,,prac,1,1,2,neutral,positive,l,l,1,1.7606339999474585,149.99863719998393,151.01172479998786,150.99131259997375,None,149.99863719998393,None,149.99863719998393,None,149.99863719998393,None,152.74633349990472,None,152.74633349990472,None,152.74633349990472,None,,,,,,,,,,,122,21,Female,2022-05-09_15h51.13.789,Boat,2022.1.1,60.13438833226163,
negative,neutral,1,j,l,,,,,1,14,32,3,,,,,,,,,,,,,,,,,,,,,,,,,,,,prac,1,1,1,neutral,negative,j,j,1,1.3020021999254823,153.7638549999101,154.77411469991785,154.75280729995575,None,153.7638549999101,None,153.7638549999101,None,153.7638549999101,None,156.05179981992114,None,156.05179981992114,None,156.05179981992114,None,,,,,,,,,,,122,21,Female,2022-05-09_15h51.13.789,Boat,2022.1.1,60.13438833226163,
neutral,negative,1,k,k,,,,,1,15,33,7,,,,,,,,,,,,,,,,,,,,,,,,,,,,prac,1,1,1,negative,neutral,k,k,1,0.7447306999238208,156.07408099994063,157.08544089994393,157.04733769991435,None,156.07408099994063,None,156.07408099994063,None,156.07408099994063,None,157.797589719994,None,157.797589719994,None,157.797589719994,None,,,,,,,,,,,122,21,Female,2022-05-09_15h51.13.789,Boat,2022.1.1,60.13438833226163,
neutral,positive,1,k,k,,,,,1,16,34,4,,,,,,,,,,,,,,,,,,,,,,,,,,,,prac,1,1,1,positive,neutral,k,k,1,0.7587433999869972,157.81768109998666,158.82810809998773,158.8108898999635,None,157.81768109998666,None,157.81768109998666,None,157.81768109998666,None,159.56071101990528,None,159.56071101990528,None,159.56071101990528,None,,,,,,,,,,,122,21,Female,2022-05-09_15h51.13.789,Boat,2022.1.1,60.13438833226163,
neutral,neutral,2,k,k,,,,,1,17,35,10,,,,,,,,,,,,,,,,,,,,,,,,,,,,prac,2,2,2,neutral,neutral,k,k,1,0.7583183000097051,159.57916029996704,160.57907290000003,160.56157689995598,None,159.57916029996704,None,159.57916029996704,None,159.57916029996704,None,161.32218721997924,None,161.32218721997924,None,161.32218721997924,None,,,,,,,,,,,122,21,Female,2022-05-09_15h51.13.789,Boat,2022.1.1,60.13438833226163,
,,,,,,,,,,,,,,,,,,,,,,,,,,,,,,,,,,,,,,,,,,,,,,,,,,,,,,,,,,,,,,,,,,161.33442969992757,None,None,,,,,,,,122,21,Female,2022-05-09_15h51.13.789,Boat,2022.1.1,60.13438833226163,
,,,,,,,,,,,,,,,,,,,,,,,,,,,,,,,,,,,,,,,,,,,,,,,,,,,,,,,,,,,,,,,,,,,,,0.05462963,-0.23425926,1,0,0,0.006341719999909401,None,122,21,Female,2022-05-09_15h51.13.789,Boat,2022.1.1,60.13438833226163,
neutral,negative,1,k,k,,,,,,,,,0,0,0,7,,,,,,,,,,,,,,,,,,,,,,192.60733069991693,None,main,1,1,1,negative,neutral,k,k,1,1.0491868000244722,194.63027079997119,195.6330856999848,195.61440809990745,None,194.63027079997119,None,194.63027079997119,None,194.63027079997119,None,196.65779252001084,None,196.65779252001084,None,196.65779252001084,None,,,,,,,,,,,122,21,Female,2022-05-09_15h51.13.789,Boat,2022.1.1,60.13438833226163,
positive,negative,1,l,j,,,,,,,,,0,1,1,5,,,,,,,,,,,,,,,,,,,,,,,,main,2,2,1,negative,positive,l,l,1,1.022416300023906,196.68187949992716,197.68236929993145,197.6642947999062,None,196.68187949992716,None,196.68187949992716,None,196.68187949992716,None,198.68325831997208,None,198.68325831997208,None,198.68325831997208,None,,,,,,,,,,,122,21,Female,2022-05-09_15h51.13.789,Boat,2022.1.1,60.13438833226163,
positive,neutral,2,l,j,,,,,,,,,0,2,2,17,,,,,,,,,,,,,,,,,,,,,,,,main,2,2,2,neutral,positive,l,l,1,1.0717888999497518,198.70618759992067,199.71784709999338,199.68157909996808,None,198.70618759992067,None,198.70618759992067,None,198.70618759992067,None,200.76017431996297,None,200.76017431996297,None,200.76017431996297,None,,,,,,,,,,,122,21,Female,2022-05-09_15h51.13.789,Boat,2022.1.1,60.13438833226163,
negative,negative,2,j,l,,,,,,,,,0,3,3,9,,,,,,,,,,,,,,,,,,,,,,,,main,1,1,2,negative,negative,j,j,1,0.9246891000075266,200.77852369996253,201.79510749992914,201.75523499993142,None,200.77852369996253,None,200.77852369996253,None,200.77852369996253,None,202.68857721996028,None,202.68857721996028,None,202.68857721996028,None,,,,,,,,,,,122,21,Female,2022-05-09_15h51.13.789,Boat,2022.1.1,60.13438833226163,
negative,neutral,1,j,l,,,,,,,,,0,4,4,3,,,,,,,,,,,,,,,,,,,,,,,,main,2,2,1,neutral,negative,j,j,1,0.9766074999934062,202.70978759997524,203.72523119999096,203.68406629993115,None,202.70978759997524,None,202.70978759997524,None,202.70978759997524,None,204.66655741992872,None,204.66655741992872,None,204.66655741992872,None,,,,,,,,,,,122,21,Female,2022-05-09_15h51.13.789,Boat,2022.1.1,60.13438833226163,
neutral,neutral,1,k,k,,,,,,,,,0,5,5,1,,,,,,,,,,,,,,,,,,,,,,,,main,2,2,1,neutral,neutral,k,k,1,0.726389899966307,204.6851069999393,205.70194850000553,205.66430249996483,None,204.6851069999393,None,204.6851069999393,None,204.6851069999393,None,206.39638111996464,None,206.39638111996464,None,206.39638111996464,None,,,,,,,,,,,122,21,Female,2022-05-09_15h51.13.789,Boat,2022.1.1,60.13438833226163,
negative,positive,1,j,l,,,,,,,,,0,6,6,6,,,,,,,,,,,,,,,,,,,,,,,,main,2,2,1,positive,negative,j,j,1,0.8389123000670224,206.41461989993695,207.4189577999059,207.40047280001454,None,206.41461989993695,None,206.41461989993695,None,206.41461989993695,None,208.23941451997962,None,208.23941451997962,None,208.23941451997962,None,,,,,,,,,,,122,21,Female,2022-05-09_15h51.13.789,Boat,2022.1.1,60.13438833226163,
neutral,positive,2,k,k,,,,,,,,,0,7,7,13,,,,,,,,,,,,,,,,,,,,,,,,main,1,1,2,positive,neutral,k,k,1,0.728872999898158,208.26114919991232,209.26605709991418,209.22938159992918,None,208.26114919991232,None,208.26114919991232,None,208.26114919991232,None,209.96619081997778,None,209.96619081997778,None,209.96619081997778,None,,,,,,,,,,,122,21,Female,2022-05-09_15h51.13.789,Boat,2022.1.1,60.13438833226163,
negative,negative,1,j,l,,,,,,,,,0,8,8,0,,,,,,,,,,,,,,,,,,,,,,,,main,1,1,1,negative,negative,j,j,1,0.8011475999373943,209.9931082999101,210.99686389998533,210.97922749991994,None,209.9931082999101,None,209.9931082999101,None,209.9931082999101,None,211.77454891998786,None,211.77454891998786,None,211.77454891998786,None,,,,,,,,,,,122,21,Female,2022-05-09_15h51.13.789,Boat,2022.1.1,60.13438833226163,
neutral,negative,2,k,k,,,,,,,,,0,9,9,16,,,,,,,,,,,,,,,,,,,,,,,,main,1,1,2,negative,neutral,k,k,1,0.758393399999477,211.79517109994777,212.79984039999545,212.78211339993868,None,211.79517109994777,None,211.79517109994777,None,211.79517109994777,None,213.53379341994878,None,213.53379341994878,None,213.53379341994878,None,,,,,,,,,,,122,21,Female,2022-05-09_15h51.13.789,Boat,2022.1.1,60.13438833226163,
negative,positive,2,j,l,,,,,,,,,0,10,10,15,,,,,,,,,,,,,,,,,,,,,,,,main,1,1,2,positive,negative,j,j,1,0.7433006999781355,213.55795459996443,214.56302070000675,214.54487879993394,None,213.55795459996443,None,213.55795459996443,None,213.55795459996443,None,215.28060861991253,None,215.28060861991253,None,215.28060861991253,None,,,,,,,,,,,122,21,Female,2022-05-09_15h51.13.789,Boat,2022.1.1,60.13438833226163,
positive,negative,2,l,j,,,,,,,,,0,11,11,14,,,,,,,,,,,,,,,,,,,,,,,,main,2,2,2,negative,positive,l,l,1,0.7973023999948055,215.29913659999147,216.30286389996763,216.28390979999676,None,215.29913659999147,None,215.29913659999147,None,215.29913659999147,None,217.08012161997613,None,217.08012161997613,None,217.08012161997613,None,,,,,,,,,,,122,21,Female,2022-05-09_15h51.13.789,Boat,2022.1.1,60.13438833226163,
neutral,neutral,2,k,k,,,,,,,,,0,12,12,10,,,,,,,,,,,,,,,,,,,,,,,,main,1,1,2,neutral,neutral,k,k,1,0.7910862000426278,217.10083279991522,218.11399189999793,218.07861289998982,None,217.10083279991522,None,217.10083279991522,None,217.10083279991522,None,218.87628142000176,None,218.87628142000176,None,218.87628142000176,None,,,,,,,,,,,122,21,Female,2022-05-09_15h51.13.789,Boat,2022.1.1,60.13438833226163,
positive,neutral,1,l,j,,,,,,,,,0,13,13,8,,,,,,,,,,,,,,,,,,,,,,,,main,1,1,1,neutral,positive,l,j,0,0.942702499916777,218.89539029996376,219.91291650000494,219.8745005999226,None,218.89539029996376,None,218.89539029996376,None,218.89539029996376,None,220.8329822999658,None,220.8329822999658,None,220.8329822999658,None,,,,,,,,,,,122,21,Female,2022-05-09_15h51.13.789,Boat,2022.1.1,60.13438833226163,
positive,positive,2,l,j,,,,,,,,,0,14,14,11,,,,,,,,,,,,,,,,,,,,,,,,main,2,2,2,positive,positive,l,l,1,1.249968499992974,221.85081869992428,222.866105999914,222.83034419990145,None,221.85081869992428,None,221.85081869992428,None,221.85081869992428,None,224.08235411997885,None,224.08235411997885,None,224.08235411997885,None,,,,,,,,,,,122,21,Female,2022-05-09_15h51.13.789,Boat,2022.1.1,60.13438833226163,
positive,positive,1,l,j,,,,,,,,,0,15,15,2,,,,,,,,,,,,,,,,,,,,,,,,main,1,1,1,positive,positive,l,l,1,0.9320386000908911,224.10251739993691,225.1243342999369,225.0846673999913,None,224.10251739993691,None,224.10251739993691,None,224.10251739993691,None,226.0186193200061,None,226.0186193200061,None,226.0186193200061,None,,,,,,,,,,,122,21,Female,2022-05-09_15h51.13.789,Boat,2022.1.1,60.13438833226163,
neutral,positive,1,k,k,,,,,,,,,0,16,16,4,,,,,,,,,,,,,,,,,,,,,,,,main,1,1,1,positive,neutral,k,k,1,0.850511800032109,226.03695420001168,227.04937629995402,227.0133182000136,None,226.03695420001168,None,226.03695420001168,None,226.03695420001168,None,227.8733406199608,None,227.8733406199608,None,227.8733406199608,None,,,,,,,,,,,122,21,Female,2022-05-09_15h51.13.789,Boat,2022.1.1,60.13438833226163,
negative,neutral,2,j,l,,,,,,,,,0,17,17,12,,,,,,,,,,,,,,,,,,,,,,,,main,2,2,2,neutral,negative,j,j,1,0.9497553000692278,227.89596969995182,228.904058599961,228.86720929993317,None,227.89596969995182,None,227.89596969995182,None,227.89596969995182,None,229.82612921996042,None,229.82612921996042,None,229.82612921996042,None,,,,,,,,,,,122,21,Female,2022-05-09_15h51.13.789,Boat,2022.1.1,60.13438833226163,
negative,negative,1,j,l,,,,,,,,,1,0,18,0,,,,,,,,,,,,,,,,,,,,,,,,main,2,2,1,negative,negative,j,j,1,0.8301140000112355,229.84578759991564,230.8484222999541,230.83088889997452,None,229.84578759991564,None,229.84578759991564,None,229.84578759991564,None,231.65881901991088,None,231.65881901991088,None,231.65881901991088,None,,,,,,,,,,,122,21,Female,2022-05-09_15h51.13.789,Boat,2022.1.1,60.13438833226163,
positive,negative,1,l,j,,,,,,,,,1,1,19,5,,,,,,,,,,,,,,,,,,,,,,,,main,2,2,1,negative,positive,l,l,1,0.9029849000507966,231.67887780000456,232.69519210001454,232.65349810000043,None,231.67887780000456,None,231.67887780000456,None,231.67887780000456,None,233.5631937199505,None,233.5631937199505,None,233.5631937199505,None,,,,,,,,,,,122,21,Female,2022-05-09_15h51.13.789,Boat,2022.1.1,60.13438833226163,
negative,negative,2,j,l,,,,,,,,,1,2,20,9,,,,,,,,,,,,,,,,,,,,,,,,main,2,2,2,negative,negative,j,j,1,0.8472021000925452,233.58236539992504,234.59794309991412,234.56366999994498,None,233.58236539992504,None,233.58236539992504,None,233.58236539992504,None,235.41379962000065,None,235.41379962000065,None,235.41379962000065,None,,,,,,,,,,,122,21,Female,2022-05-09_15h51.13.789,Boat,2022.1.1,60.13438833226163,
positive,positive,1,l,j,,,,,,,,,1,3,21,2,,,,,,,,,,,,,,,,,,,,,,,,main,2,2,1,positive,positive,l,l,1,1.0641563000390306,235.43303710001055,236.4458169999998,236.42517750000115,None,235.43303710001055,None,235.43303710001055,None,235.43303710001055,None,237.4802331199171,None,237.4802331199171,None,237.4802331199171,None,,,,,,,,,,,122,21,Female,2022-05-09_15h51.13.789,Boat,2022.1.1,60.13438833226163,
positive,positive,2,l,j,,,,,,,,,1,4,22,11,,,,,,,,,,,,,,,,,,,,,,,,main,2,2,2,positive,positive,l,l,1,0.7180920999962837,237.50191939994693,238.51787159999367,238.48093039996456,None,237.50191939994693,None,237.50191939994693,None,237.50191939994693,None,239.20153721992392,None,239.20153721992392,None,239.20153721992392,None,,,,,,,,,,,122,21,Female,2022-05-09_15h51.13.789,Boat,2022.1.1,60.13438833226163,
positive,neutral,1,l,j,,,,,,,,,1,5,23,8,,,,,,,,,,,,,,,,,,,,,,,,main,1,1,1,neutral,positive,l,l,1,0.7269568999763578,239.22082309995312,240.23797319992445,240.20015369995963,None,239.22082309995312,None,239.22082309995312,None,239.22082309995312,None,240.93011821992695,None,240.93011821992695,None,240.93011821992695,None,,,,,,,,,,,122,21,Female,2022-05-09_15h51.13.789,Boat,2022.1.1,60.13438833226163,
neutral,negative,2,k,k,,,,,,,,,1,6,24,16,,,,,,,,,,,,,,,,,,,,,,,,main,2,2,2,negative,neutral,k,k,1,0.6906590000726283,240.9505138999084,241.9642367999768,241.93034379999153,None,240.9505138999084,None,240.9505138999084,None,240.9505138999084,None,242.62531691999175,None,242.62531691999175,None,242.62531691999175,None,,,,,,,,,,,122,21,Female,2022-05-09_15h51.13.789,Boat,2022.1.1,60.13438833226163,
negative,neutral,2,j,l,,,,,,,,,1,7,25,12,,,,,,,,,,,,,,,,,,,,,,,,main,1,1,2,neutral,negative,j,j,1,1.0144593000877649,242.64741259999573,243.66236690001097,243.6418365999125,None,242.64741259999573,None,242.64741259999573,None,242.64741259999573,None,244.643278619973,None,244.643278619973,None,244.643278619973,None,,,,,,,,,,,122,21,Female,2022-05-09_15h51.13.789,Boat,2022.1.1,60.13438833226163,
neutral,neutral,2,k,k,,,,,,,,,1,8,26,10,,,,,,,,,,,,,,,,,,,,,,,,main,1,1,2,neutral,neutral,k,k,1,0.7597158999415115,244.6640285999747,245.68047979997937,245.64496159995906,None,244.6640285999747,None,244.6640285999747,None,244.6640285999747,None,246.40408231993206,None,246.40408231993206,None,246.40408231993206,None,,,,,,,,,,,122,21,Female,2022-05-09_15h51.13.789,Boat,2022.1.1,60.13438833226163,
positive,negative,2,l,j,,,,,,,,,1,9,27,14,,,,,,,,,,,,,,,,,,,,,,,,main,1,1,2,negative,positive,l,l,1,0.8222833999898285,246.42506339994725,247.4319937999826,247.3971942999633,None,246.42506339994725,None,246.42506339994725,None,246.42506339994725,None,248.2304041199386,None,248.2304041199386,None,248.2304041199386,None,,,,,,,,,,,122,21,Female,2022-05-09_15h51.13.789,Boat,2022.1.1,60.13438833226163,
neutral,negative,1,k,k,,,,,,,,,1,10,28,7,,,,,,,,,,,,,,,,,,,,,,,,main,2,2,1,negative,neutral,k,k,1,0.7055515999672934,248.2487614999991,249.25182050000876,249.2336570000043,None,248.2487614999991,None,248.2487614999991,None,248.2487614999991,None,249.9398884199327,None,249.9398884199327,None,249.9398884199327,None,,,,,,,,,,,122,21,Female,2022-05-09_15h51.13.789,Boat,2022.1.1,60.13438833226163,
positive,neutral,2,l,j,,,,,,,,,1,11,29,17,,,,,,,,,,,,,,,,,,,,,,,,main,1,1,2,neutral,positive,l,l,1,0.7930412000278011,249.95684679993428,250.9671176999109,250.93135560001247,None,249.95684679993428,None,249.95684679993428,None,249.95684679993428,None,251.73287621990312,None,251.73287621990312,None,251.73287621990312,None,,,,,,,,,,,122,21,Female,2022-05-09_15h51.13.789,Boat,2022.1.1,60.13438833226163,
neutral,positive,1,k,k,,,,,,,,,1,12,30,4,,,,,,,,,,,,,,,,,,,,,,,,main,2,2,1,positive,neutral,k,k,1,0.7823091000318527,251.75332369992975,252.76457359991036,252.7293456000043,None,251.75332369992975,None,251.75332369992975,None,251.75332369992975,None,253.52021311991848,None,253.52021311991848,None,253.52021311991848,None,,,,,,,,,,,122,21,Female,2022-05-09_15h51.13.789,Boat,2022.1.1,60.13438833226163,
neutral,neutral,1,k,k,,,,,,,,,1,13,31,1,,,,,,,,,,,,,,,,,,,,,,,,main,1,1,1,neutral,neutral,k,k,1,0.6986193000338972,253.5372492999304,254.54998989996966,254.51416169991717,None,253.5372492999304,None,253.5372492999304,None,253.5372492999304,None,255.22142641991377,None,255.22142641991377,None,255.22142641991377,None,,,,,,,,,,,122,21,Female,2022-05-09_15h51.13.789,Boat,2022.1.1,60.13438833226163,
neutral,positive,2,k,k,,,,,,,,,1,14,32,13,,,,,,,,,,,,,,,,,,,,,,,,main,2,2,2,positive,neutral,k,k,1,0.6765055999858305,255.24345469998661,256.2511300999904,256.2144086000044,None,255.24345469998661,None,255.24345469998661,None,255.24345469998661,None,256.8974099199986,None,256.8974099199986,None,256.8974099199986,None,,,,,,,,,,,122,21,Female,2022-05-09_15h51.13.789,Boat,2022.1.1,60.13438833226163,
negative,positive,2,j,l,,,,,,,,,1,15,33,15,,,,,,,,,,,,,,,,,,,,,,,,main,2,2,2,positive,negative,j,j,1,0.8351111999945715,256.9190939000109,257.9344902000157,257.89722939999774,None,256.9190939000109,None,256.9190939000109,None,256.9190939000109,None,258.73772062000353,None,258.73772062000353,None,258.73772062000353,None,,,,,,,,,,,122,21,Female,2022-05-09_15h51.13.789,Boat,2022.1.1,60.13438833226163,
negative,neutral,1,j,l,,,,,,,,,1,16,34,3,,,,,,,,,,,,,,,,,,,,,,,,main,1,1,1,neutral,negative,j,j,1,1.165773200104013,258.76141409995034,259.78071119997185,259.743289200007,None,258.76141409995034,None,258.76141409995034,None,258.76141409995034,None,260.9068410199834,None,260.9068410199834,None,260.9068410199834,None,,,,,,,,,,,122,21,Female,2022-05-09_15h51.13.789,Boat,2022.1.1,60.13438833226163,
negative,positive,1,j,l,,,,,,,,,1,17,35,6,,,,,,,,,,,,,,,,,,,,,,,,main,2,2,1,positive,negative,j,j,1,-0.7079353999579325,260.92652109998744,None,None,None,260.92652109998744,None,260.92652109998744,None,260.92652109998744,None,261.21241049992386,None,261.21241049992386,None,261.21241049992386,None,,,,,,,,,,,122,21,Female,2022-05-09_15h51.13.789,Boat,2022.1.1,60.13438833226163,
positive,negative,1,l,j,,,,,,,,,2,0,36,5,,,,,,,,,,,,,,,,,,,,,,,,main,2,2,1,negative,positive,l,l,1,1.1140647999709472,264.23571169993374,265.2554117999971,265.2281086000148,None,264.23571169993374,None,264.23571169993374,None,264.23571169993374,None,266.331249419949,None,266.331249419949,None,266.331249419949,None,,,,,,,,,,,122,21,Female,2022-05-09_15h51.13.789,Boat,2022.1.1,60.13438833226163,
positive,neutral,2,l,j,,,,,,,,,2,1,37,17,,,,,,,,,,,,,,,,,,,,,,,,main,2,2,2,neutral,positive,l,l,1,0.7484315000474453,266.35255770001095,267.3591616000049,267.33724699995946,None,266.35255770001095,None,266.35255770001095,None,266.35255770001095,None,268.0839783200063,None,268.0839783200063,None,268.0839783200063,None,,,,,,,,,,,122,21,Female,2022-05-09_15h51.13.789,Boat,2022.1.1,60.13438833226163,
positive,neutral,1,l,j,,,,,,,,,2,2,38,8,,,,,,,,,,,,,,,,,,,,,,,,main,1,1,1,neutral,positive,l,l,1,1.3257580999052152,268.10369609994814,269.1130633999128,269.09226109995507,None,268.10369609994814,None,268.10369609994814,None,268.10369609994814,None,270.41119471995626,None,270.41119471995626,None,270.41119471995626,None,,,,,,,,,,,122,21,Female,2022-05-09_15h51.13.789,Boat,2022.1.1,60.13438833226163,
neutral,negative,2,k,k,,,,,,,,,2,3,39,16,,,,,,,,,,,,,,,,,,,,,,,,main,2,2,2,negative,neutral,k,k,1,0.722467599902302,270.4357732000062,271.44786859990563,271.43068889994174,None,270.4357732000062,None,270.4357732000062,None,270.4357732000062,None,272.13652671989985,None,272.13652671989985,None,272.13652671989985,None,,,,,,,,,,,122,21,Female,2022-05-09_15h51.13.789,Boat,2022.1.1,60.13438833226163,
neutral,neutral,2,k,k,,,,,,,,,2,4,40,10,,,,,,,,,,,,,,,,,,,,,,,,main,1,1,2,neutral,neutral,k,k,1,0.6223042999627069,272.16201580001507,273.16503339994233,273.1478746999055,None,272.16201580001507,None,272.16201580001507,None,272.16201580001507,None,273.76435721991584,None,273.76435721991584,None,273.76435721991584,None,,,,,,,,,,,122,21,Female,2022-05-09_15h51.13.789,Boat,2022.1.1,60.13438833226163,
neutral,positive,1,k,k,,,,,,,,,2,5,41,4,,,,,,,,,,,,,,,,,,,,,,,,main,2,2,1,positive,neutral,k,k,1,0.6583995999535546,273.783134499914,274.7994202999398,274.7646423999686,None,273.783134499914,None,273.783134499914,None,273.783134499914,None,275.4260248199571,None,275.4260248199571,None,275.4260248199571,None,,,,,,,,,,,122,21,Female,2022-05-09_15h51.13.789,Boat,2022.1.1,60.13438833226163,
negative,positive,2,j,l,,,,,,,,,2,6,42,15,,,,,,,,,,,,,,,,,,,,,,,,main,2,2,2,positive,negative,j,j,1,0.8529146000510082,275.44876639998984,276.46657599997707,276.4306346999947,None,275.44876639998984,None,275.44876639998984,None,275.44876639998984,None,277.2809191199485,None,277.2809191199485,None,277.2809191199485,None,,,,,,,,,,,122,21,Female,2022-05-09_15h51.13.789,Boat,2022.1.1,60.13438833226163,
negative,negative,2,j,l,,,,,,,,,2,7,43,9,,,,,,,,,,,,,,,,,,,,,,,,main,1,1,2,negative,negative,j,j,1,0.6015111000742763,277.3020741000073,278.319476799923,278.2829841999337,None,277.3020741000073,None,277.3020741000073,None,277.3020741000073,None,278.885849519982,None,278.885849519982,None,278.885849519982,None,,,,,,,,,,,122,21,Female,2022-05-09_15h51.13.789,Boat,2022.1.1,60.13438833226163,
negative,positive,1,j,l,,,,,,,,,2,8,44,6,,,,,,,,,,,,,,,,,,,,,,,,main,2,2,1,positive,negative,j,j,1,0.9092271999688819,278.9066550999414,279.9138407999417,279.8930070999777,None,278.9066550999414,None,278.9066550999414,None,278.9066550999414,None,280.7982469199924,None,280.7982469199924,None,280.7982469199924,None,,,,,,,,,,,122,21,Female,2022-05-09_15h51.13.789,Boat,2022.1.1,60.13438833226163,
neutral,negative,1,k,k,,,,,,,,,2,9,45,7,,,,,,,,,,,,,,,,,,,,,,,,main,2,2,1,negative,neutral,k,k,1,0.6752070999937132,280.81774629990105,281.83505120000336,281.7981695999624,None,280.81774629990105,None,280.81774629990105,None,280.81774629990105,None,282.47735831991304,None,282.47735831991304,None,282.47735831991304,None,,,,,,,,,,,122,21,Female,2022-05-09_15h51.13.789,Boat,2022.1.1,60.13438833226163,
neutral,neutral,1,k,k,,,,,,,,,2,10,46,1,,,,,,,,,,,,,,,,,,,,,,,,main,2,2,1,neutral,neutral,k,k,1,0.5808563999598846,282.49686359998304,283.5148523999378,283.4788966999622,None,282.49686359998304,None,282.49686359998304,None,282.49686359998304,None,284.06093471997883,None,284.06093471997883,None,284.06093471997883,None,,,,,,,,,,,122,21,Female,2022-05-09_15h51.13.789,Boat,2022.1.1,60.13438833226163,
positive,negative,2,l,j,,,,,,,,,2,11,47,14,,,,,,,,,,,,,,,,,,,,,,,,main,2,2,2,negative,positive,l,l,1,1.2697148999432102,284.0829770999262,285.0836460000137,285.06566299998667,None,284.0829770999262,None,284.0829770999262,None,284.0829770999262,None,286.3316344199702,None,286.3316344199702,None,286.3316344199702,None,,,,,,,,,,,122,21,Female,2022-05-09_15h51.13.789,Boat,2022.1.1,60.13438833226163,
negative,neutral,1,j,l,,,,,,,,,2,12,48,3,,,,,,,,,,,,,,,,,,,,,,,,main,2,2,1,neutral,negative,j,j,1,1.298408400034532,286.35193289991,287.36777259991504,287.3318244999973,None,286.35193289991,None,286.35193289991,None,286.35193289991,None,288.6333257199731,None,288.6333257199731,None,288.6333257199731,None,,,,,,,,,,,122,21,Female,2022-05-09_15h51.13.789,Boat,2022.1.1,60.13438833226163,
positive,positive,1,l,j,,,,,,,,,2,13,49,2,,,,,,,,,,,,,,,,,,,,,,,,main,2,2,1,positive,positive,l,l,1,0.8394489999627694,288.65350449993275,289.66491749999113,289.64750289998483,None,288.65350449993275,None,288.65350449993275,None,288.65350449993275,None,290.4765181199182,None,290.4765181199182,None,290.4765181199182,None,,,,,,,,,,,122,21,Female,2022-05-09_15h51.13.789,Boat,2022.1.1,60.13438833226163,
negative,negative,1,j,l,,,,,,,,,2,14,50,0,,,,,,,,,,,,,,,,,,,,,,,,main,2,2,1,negative,negative,j,j,1,0.8302979000145569,290.4982618999202,291.51493199996185,291.49626489996444,None,290.4982618999202,None,290.4982618999202,None,290.4982618999202,None,292.31157551996876,None,292.31157551996876,None,292.31157551996876,None,,,,,,,,,,,122,21,Female,2022-05-09_15h51.13.789,Boat,2022.1.1,60.13438833226163,
positive,positive,2,l,j,,,,,,,,,2,15,51,11,,,,,,,,,,,,,,,,,,,,,,,,main,1,1,2,positive,positive,l,l,1,0.8425584000069648,292.33021869999357,293.33222340000793,293.3146227999823,None,292.33021869999357,None,292.33021869999357,None,292.33021869999357,None,294.1511749199126,None,294.1511749199126,None,294.1511749199126,None,,,,,,,,,,,122,21,Female,2022-05-09_15h51.13.789,Boat,2022.1.1,60.13438833226163,
negative,neutral,2,j,l,,,,,,,,,2,16,52,12,,,,,,,,,,,,,,,,,,,,,,,,main,1,1,2,neutral,negative,j,j,1,0.8949503999901935,294.17561079992447,295.1960599999875,295.17622739996295,None,294.17561079992447,None,294.17561079992447,None,294.17561079992447,None,296.05279641994275,None,296.05279641994275,None,296.05279641994275,None,,,,,,,,,,,122,21,Female,2022-05-09_15h51.13.789,Boat,2022.1.1,60.13438833226163,
neutral,positive,2,k,k,,,,,,,,,2,17,53,13,,,,,,,,,,,,,,,,,,,,,,,,main,1,1,2,positive,neutral,k,k,1,0.6367411999963224,296.0775128999958,297.0978059999179,297.05489039991517,None,296.0775128999958,None,296.0775128999958,None,296.0775128999958,None,297.6938278200105,None,297.6938278200105,None,297.6938278200105,None,,,,,,,,,,,122,21,Female,2022-05-09_15h51.13.789,Boat,2022.1.1,60.13438833226163,
positive,neutral,2,l,j,,,,,,,,,3,0,54,17,,,,,,,,,,,,,,,,,,,,,,,,main,1,1,2,neutral,positive,l,l,1,1.8408247000770643,297.7139083999209,298.7150416999357,298.6978564999299,None,297.7139083999209,None,297.7139083999209,None,297.7139083999209,None,300.54753310000524,None,300.54753310000524,None,300.54753310000524,None,,,,,,,,,,,122,21,Female,2022-05-09_15h51.13.789,Boat,2022.1.1,60.13438833226163,
positive,negative,2,l,j,,,,,,,,,3,1,55,14,,,,,,,,,,,,,,,,,,,,,,,,main,1,1,2,negative,positive,l,l,1,0.6812199000269175,301.568250500015,302.5875774999149,302.5485496999463,None,301.568250500015,None,301.568250500015,None,301.568250500015,None,303.23368721990846,None,303.23368721990846,None,303.23368721990846,None,,,,,,,,,,,122,21,Female,2022-05-09_15h51.13.789,Boat,2022.1.1,60.13438833226163,
neutral,positive,2,k,k,,,,,,,,,3,2,56,13,,,,,,,,,,,,,,,,,,,,,,,,main,1,1,2,positive,neutral,k,k,1,0.7607707999413833,303.25388179998845,304.2655074999202,304.2437975999201,None,303.25388179998845,None,303.25388179998845,None,303.25388179998845,None,304.99774331995286,None,304.99774331995286,None,304.99774331995286,None,,,,,,,,,,,122,21,Female,2022-05-09_15h51.13.789,Boat,2022.1.1,60.13438833226163,
neutral,negative,2,k,k,,,,,,,,,3,3,57,16,,,,,,,,,,,,,,,,,,,,,,,,main,1,1,2,negative,neutral,k,k,1,0.6515089999884367,305.016122699948,306.03156369994394,305.99321240000427,None,305.016122699948,None,305.016122699948,None,305.016122699948,None,306.6515240200097,None,306.6515240200097,None,306.6515240200097,None,,,,,,,,,,,122,21,Female,2022-05-09_15h51.13.789,Boat,2022.1.1,60.13438833226163,
neutral,neutral,2,k,k,,,,,,,,,3,4,58,10,,,,,,,,,,,,,,,,,,,,,,,,main,2,2,2,neutral,neutral,k,k,1,0.6934313999954611,306.6759127000114,307.6804155999562,307.66052009991836,None,306.6759127000114,None,306.6759127000114,None,306.6759127000114,None,308.34834341995884,None,308.34834341995884,None,308.34834341995884,None,,,,,,,,,,,122,21,Female,2022-05-09_15h51.13.789,Boat,2022.1.1,60.13438833226163,
positive,neutral,1,l,j,,,,,,,,,3,5,59,8,,,,,,,,,,,,,,,,,,,,,,,,main,1,1,1,neutral,positive,l,l,1,1.1279596999520436,308.3696391999256,309.37131740001496,309.35293099994306,None,308.3696391999256,None,308.3696391999256,None,308.3696391999256,None,310.4805516198976,None,310.4805516198976,None,310.4805516198976,None,,,,,,,,,,,122,21,Female,2022-05-09_15h51.13.789,Boat,2022.1.1,60.13438833226163,
negative,neutral,1,j,l,,,,,,,,,3,6,60,3,,,,,,,,,,,,,,,,,,,,,,,,main,2,2,1,neutral,negative,j,j,1,0.760475100018084,310.49891109997407,311.5010100000072,311.4836823999649,None,310.49891109997407,None,310.49891109997407,None,310.49891109997407,None,312.2446015200112,None,312.2446015200112,None,312.2446015200112,None,,,,,,,,,,,122,21,Female,2022-05-09_15h51.13.789,Boat,2022.1.1,60.13438833226163,
neutral,positive,1,k,k,,,,,,,,,3,7,61,4,,,,,,,,,,,,,,,,,,,,,,,,main,2,2,1,positive,neutral,k,k,1,0.6649551999289542,312.2645545999985,313.2824943999294,313.26041200000327,None,312.2645545999985,None,312.2645545999985,None,312.2645545999985,None,313.9129676199518,None,313.9129676199518,None,313.9129676199518,None,,,,,,,,,,,122,21,Female,2022-05-09_15h51.13.789,Boat,2022.1.1,60.13438833226163,
negative,negative,1,j,l,,,,,,,,,3,8,62,0,,,,,,,,,,,,,,,,,,,,,,,,main,1,1,1,negative,negative,j,j,1,0.8919031000696123,313.9303765000077,314.9349918999942,314.91686559992377,None,313.9303765000077,None,313.9303765000077,None,313.9303765000077,None,315.80753001989797,None,315.80753001989797,None,315.80753001989797,None,,,,,,,,,,,122,21,Female,2022-05-09_15h51.13.789,Boat,2022.1.1,60.13438833226163,
neutral,neutral,1,k,k,,,,,,,,,3,9,63,1,,,,,,,,,,,,,,,,,,,,,,,,main,2,2,1,neutral,neutral,k,k,1,0.638929900014773,315.8314330999274,316.8332924999995,316.8159924999345,None,315.8314330999274,None,315.8314330999274,None,315.8314330999274,None,317.44858481991105,None,317.44858481991105,None,317.44858481991105,None,,,,,,,,,,,122,21,Female,2022-05-09_15h51.13.789,Boat,2022.1.1,60.13438833226163,
negative,positive,1,j,l,,,,,,,,,3,10,64,6,,,,,,,,,,,,,,,,,,,,,,,,main,1,1,1,positive,negative,j,j,1,0.6275388000067323,317.4673210999463,318.48586739995517,318.44901809992734,None,317.4673210999463,None,317.4673210999463,None,317.4673210999463,None,319.0799079199787,None,319.0799079199787,None,319.0799079199787,None,,,,,,,,,,,122,21,Female,2022-05-09_15h51.13.789,Boat,2022.1.1,60.13438833226163,
neutral,negative,1,k,k,,,,,,,,,3,11,65,7,,,,,,,,,,,,,,,,,,,,,,,,main,2,2,1,negative,neutral,k,k,1,0.5964147000340745,319.09875259990804,320.1235948000103,320.0768551999936,None,319.09875259990804,None,319.09875259990804,None,319.09875259990804,None,320.6794071199838,None,320.6794071199838,None,320.6794071199838,None,,,,,,,,,,,122,21,Female,2022-05-09_15h51.13.789,Boat,2022.1.1,60.13438833226163,
positive,negative,1,l,j,,,,,,,,,3,12,66,5,,,,,,,,,,,,,,,,,,,,,,,,main,2,2,1,negative,positive,l,j,0,0.7090603999095038,320.70277839992195,321.71543919993564,321.67712129990105,None,320.70277839992195,None,320.70277839992195,None,320.70277839992195,None,322.39828129997477,None,322.39828129997477,None,322.39828129997477,None,,,,,,,,,,,122,21,Female,2022-05-09_15h51.13.789,Boat,2022.1.1,60.13438833226163,
positive,positive,2,l,j,,,,,,,,,3,13,67,11,,,,,,,,,,,,,,,,,,,,,,,,main,2,2,2,positive,positive,l,l,1,1.4739154000999406,323.42076699994504,324.4289469999494,324.40794609999284,None,323.42076699994504,None,323.42076699994504,None,323.42076699994504,None,325.87764591991436,None,325.87764591991436,None,325.87764591991436,None,,,,,,,,,,,122,21,Female,2022-05-09_15h51.13.789,Boat,2022.1.1,60.13438833226163,
negative,neutral,2,j,l,,,,,,,,,3,14,68,12,,,,,,,,,,,,,,,,,,,,,,,,main,2,2,2,neutral,negative,j,j,1,0.8576736999675632,325.8976993999677,326.9016335000051,326.8824188999133,None,325.8976993999677,None,325.8976993999677,None,325.8976993999677,None,327.7393315199297,None,327.7393315199297,None,327.7393315199297,None,,,,,,,,,,,122,21,Female,2022-05-09_15h51.13.789,Boat,2022.1.1,60.13438833226163,
negative,negative,2,j,l,,,,,,,,,3,15,69,9,,,,,,,,,,,,,,,,,,,,,,,,main,2,2,2,negative,negative,j,j,1,1.2305482000811026,327.7579960000003,328.7676294000121,328.73233039991464,None,327.7579960000003,None,327.7579960000003,None,327.7579960000003,None,329.97175711998716,None,329.97175711998716,None,329.97175711998716,None,,,,,,,,,,,122,21,Female,2022-05-09_15h51.13.789,Boat,2022.1.1,60.13438833226163,
positive,positive,1,l,j,,,,,,,,,3,16,70,2,,,,,,,,,,,,,,,,,,,,,,,,main,1,1,1,positive,positive,l,l,1,1.1228712999727577,329.9975679999916,330.999154399964,330.9826217999216,None,329.9975679999916,None,329.9975679999916,None,329.9975679999916,None,332.0975816199789,None,332.0975816199789,None,332.0975816199789,None,,,,,,,,,,,122,21,Female,2022-05-09_15h51.13.789,Boat,2022.1.1,60.13438833226163,
negative,positive,2,j,l,,,,,,,,,3,17,71,15,,,,,,,,,,,,,,,,,,,,,,,,main,2,2,2,positive,negative,j,j,1,0.8196526999818161,332.1177069999976,333.1325070000021,333.0935949999839,None,332.1177069999976,None,332.1177069999976,None,332.1177069999976,None,333.92058341996744,None,333.92058341996744,None,333.92058341996744,None,,,,,,,,,,,122,21,Female,2022-05-09_15h51.13.789,Boat,2022.1.1,60.13438833226163,
neutral,negative,2,k,k,,,,,,,,,4,0,72,16,,,,,,,,,,,,,,,,,,,,,,,,main,1,1,2,negative,neutral,k,k,1,0.7141331000020728,333.9392357999459,334.9491681999061,334.9315358999884,None,333.9392357999459,None,333.9392357999459,None,333.9392357999459,None,335.63745812000707,None,335.63745812000707,None,335.63745812000707,None,,,,,,,,,,,122,21,Female,2022-05-09_15h51.13.789,Boat,2022.1.1,60.13438833226163,
neutral,neutral,2,k,k,,,,,,,,,4,1,73,10,,,,,,,,,,,,,,,,,,,,,,,,main,2,2,2,neutral,neutral,k,k,1,0.6266084000235423,335.65893879998475,336.6679694999475,336.6325898999348,None,335.65893879998475,None,335.65893879998475,None,335.65893879998475,None,337.26588941994123,None,337.26588941994123,None,337.26588941994123,None,,,,,,,,,,,122,21,Female,2022-05-09_15h51.13.789,Boat,2022.1.1,60.13438833226163,
positive,neutral,2,l,j,,,,,,,,,4,2,74,17,,,,,,,,,,,,,,,,,,,,,,,,main,1,1,2,neutral,positive,l,l,1,1.5179253000533208,337.28670149995014,338.3026869999012,338.265861999942,None,337.28670149995014,None,337.28670149995014,None,337.28670149995014,None,339.7959647999378,None,339.7959647999378,None,339.7959647999378,None,,,,,,,,,,,122,21,Female,2022-05-09_15h51.13.789,Boat,2022.1.1,60.13438833226163,
negative,positive,1,j,l,,,,,,,,,4,3,75,6,,,,,,,,,,,,,,,,,,,,,,,,main,1,1,1,positive,negative,j,j,1,0.9969517999561504,340.81925599998794,341.83342899999116,341.79917859996203,None,340.81925599998794,None,340.81925599998794,None,340.81925599998794,None,342.80004671995994,None,342.80004671995994,None,342.80004671995994,None,,,,,,,,,,,122,21,Female,2022-05-09_15h51.13.789,Boat,2022.1.1,60.13438833226163,
negative,negative,2,j,l,,,,,,,,,4,4,76,9,,,,,,,,,,,,,,,,,,,,,,,,main,1,1,2,negative,negative,j,j,1,1.2457428999477997,342.81832279998343,343.8359227000037,343.80058729997836,None,342.81832279998343,None,342.81832279998343,None,342.81832279998343,None,345.0492481199326,None,345.0492481199326,None,345.0492481199326,None,,,,,,,,,,,122,21,Female,2022-05-09_15h51.13.789,Boat,2022.1.1,60.13438833226163,
positive,neutral,1,l,j,,,,,,,,,4,5,77,8,,,,,,,,,,,,,,,,,,,,,,,,main,1,1,1,neutral,positive,l,l,1,2.064138500019908,345.06890279997606,346.0878347000107,346.0509403999895,None,345.06890279997606,None,345.06890279997606,None,345.06890279997606,None,348.1258998999838,None,348.1258998999838,None,348.1258998999838,None,,,,,,,,,,,122,21,Female,2022-05-09_15h51.13.789,Boat,2022.1.1,60.13438833226163,
neutral,positive,1,k,k,,,,,,,,,4,6,78,4,,,,,,,,,,,,,,,,,,,,,,,,main,2,2,1,positive,neutral,k,k,1,0.7810238000238314,349.136162999901,350.1500469999155,350.11476669996046,None,349.136162999901,None,349.136162999901,None,349.136162999901,None,350.90071891993284,None,350.90071891993284,None,350.90071891993284,None,,,,,,,,,,,122,21,Female,2022-05-09_15h51.13.789,Boat,2022.1.1,60.13438833226163,
positive,positive,2,l,j,,,,,,,,,4,7,79,11,,,,,,,,,,,,,,,,,,,,,,,,main,1,1,2,positive,positive,l,l,1,1.1892126000020653,350.9218837999506,351.9223326999927,351.9042714999523,None,350.9218837999506,None,350.9218837999506,None,350.9218837999506,None,353.0942197199911,None,353.0942197199911,None,353.0942197199911,None,,,,,,,,,,,122,21,Female,2022-05-09_15h51.13.789,Boat,2022.1.1,60.13438833226163,
neutral,negative,1,k,k,,,,,,,,,4,8,80,7,,,,,,,,,,,,,,,,,,,,,,,,main,2,2,1,negative,neutral,k,k,1,0.6463434000033885,353.1148639000021,354.12305840000045,354.086217999924,None,353.1148639000021,None,353.1148639000021,None,353.1148639000021,None,354.74392141995486,None,354.74392141995486,None,354.74392141995486,None,,,,,,,,,,,122,21,Female,2022-05-09_15h51.13.789,Boat,2022.1.1,60.13438833226163,
positive,negative,1,l,j,,,,,,,,,4,9,81,5,,,,,,,,,,,,,,,,,,,,,,,,main,2,2,1,negative,positive,l,l,1,0.8974580999929458,354.7619090999942,355.7685990999453,355.7328785000136,None,354.7619090999942,None,354.7619090999942,None,354.7619090999942,None,356.64323401998263,None,356.64323401998263,None,356.64323401998263,None,,,,,,,,,,,122,21,Female,2022-05-09_15h51.13.789,Boat,2022.1.1,60.13438833226163,
negative,neutral,1,j,l,,,,,,,,,4,10,82,3,,,,,,,,,,,,,,,,,,,,,,,,main,1,1,1,neutral,negative,j,j,1,0.964978100033477,356.66416119993664,357.66757559997495,357.64992449991405,None,356.66416119993664,None,356.66416119993664,None,356.66416119993664,None,358.6124289199943,None,358.6124289199943,None,358.6124289199943,None,,,,,,,,,,,122,21,Female,2022-05-09_15h51.13.789,Boat,2022.1.1,60.13438833226163,
negative,positive,2,j,l,,,,,,,,,4,11,83,15,,,,,,,,,,,,,,,,,,,,,,,,main,2,2,2,positive,negative,j,j,1,0.7584075999911875,358.63404439995065,359.649378699949,359.60716919996776,None,358.63404439995065,None,358.63404439995065,None,358.63404439995065,None,360.3704167199321,None,360.3704167199321,None,360.3704167199321,None,,,,,,,,,,,122,21,Female,2022-05-09_15h51.13.789,Boat,2022.1.1,60.13438833226163,
negative,negative,1,j,l,,,,,,,,,4,12,84,0,,,,,,,,,,,,,,,,,,,,,,,,main,1,1,1,negative,negative,j,j,1,0.7863450000295416,360.3920932000037,361.3999213000061,361.37858739995863,None,360.3920932000037,None,360.3920932000037,None,360.3920932000037,None,362.1630205200054,None,362.1630205200054,None,362.1630205200054,None,,,,,,,,,,,122,21,Female,2022-05-09_15h51.13.789,Boat,2022.1.1,60.13438833226163,
neutral,neutral,1,k,k,,,,,,,,,4,13,85,1,,,,,,,,,,,,,,,,,,,,,,,,main,2,2,1,neutral,neutral,k,k,1,0.6455265999538824,362.1825646999059,363.1837222999893,363.1661524999654,None,362.1825646999059,None,362.1825646999059,None,362.1825646999059,None,363.8120062199887,None,363.8120062199887,None,363.8120062199887,None,,,,,,,,,,,122,21,Female,2022-05-09_15h51.13.789,Boat,2022.1.1,60.13438833226163,
neutral,positive,2,k,k,,,,,,,,,4,14,86,13,,,,,,,,,,,,,,,,,,,,,,,,main,2,2,2,positive,neutral,k,k,1,0.6927154998993501,363.8310875999741,364.85140379995573,364.8107130000135,None,363.8310875999741,None,363.8310875999741,None,363.8310875999741,None,365.5074617199134,None,365.5074617199134,None,365.5074617199134,None,,,,,,,,,,,122,21,Female,2022-05-09_15h51.13.789,Boat,2022.1.1,60.13438833226163,
positive,negative,2,l,j,,,,,,,,,4,15,87,14,,,,,,,,,,,,,,,,,,,,,,,,main,2,2,2,negative,positive,l,l,1,1.559390899958089,365.5294843999436,366.54827219992876,366.506916299928,None,365.5294843999436,None,365.5294843999436,None,365.5294843999436,None,368.07620739995036,None,368.07620739995036,None,368.07620739995036,None,,,,,,,,,,,122,21,Female,2022-05-09_15h51.13.789,Boat,2022.1.1,60.13438833226163,
positive,positive,1,l,j,,,,,,,,,4,16,88,2,,,,,,,,,,,,,,,,,,,,,,,,main,1,1,1,positive,positive,l,l,1,0.820614599972032,369.08627480000723,370.1014591999119,370.0667471999768,None,369.08627480000723,None,369.08627480000723,None,369.08627480000723,None,370.89179591997527,None,370.89179591997527,None,370.89179591997527,None,,,,,,,,,,,122,21,Female,2022-05-09_15h51.13.789,Boat,2022.1.1,60.13438833226163,
negative,neutral,2,j,l,,,,,,,,,4,17,89,12,,,,,,,,,,,,,,,,,,,,,,,,main,2,2,2,neutral,negative,j,j,1,0.8484039000468329,370.9132151999511,371.9332405999303,371.89448499993887,None,370.9132151999511,None,370.9132151999511,None,370.9132151999511,None,372.744070519926,None,372.744070519926,None,372.744070519926,None,,,,,,,,,,,122,21,Female,2022-05-09_15h51.13.789,Boat,2022.1.1,60.13438833226163,
positive,negative,1,l,j,,,,,,,,,5,0,90,5,,,,,,,,,,,,,,,,,,,,,,,,main,1,1,1,negative,positive,l,l,1,0.9997725000139326,372.7654829999665,373.7667486999417,373.74872229993343,None,372.7654829999665,None,372.7654829999665,None,372.7654829999665,None,374.7453145199688,None,374.7453145199688,None,374.7453145199688,None,,,,,,,,,,,122,21,Female,2022-05-09_15h51.13.789,Boat,2022.1.1,60.13438833226163,
neutral,neutral,1,k,k,,,,,,,,,5,1,91,1,,,,,,,,,,,,,,,,,,,,,,,,main,1,1,1,neutral,neutral,k,k,1,0.6845196000067517,374.7654942999361,375.7672780000139,375.75018199998885,None,374.7654942999361,None,374.7654942999361,None,374.7654942999361,None,376.4334526199382,None,376.4334526199382,None,376.4334526199382,None,,,,,,,,,,,122,21,Female,2022-05-09_15h51.13.789,Boat,2022.1.1,60.13438833226163,
negative,negative,2,j,l,,,,,,,,,5,2,92,9,,,,,,,,,,,,,,,,,,,,,,,,main,2,2,2,negative,negative,j,j,1,0.8247231000568718,376.4535979999928,377.4678294999758,377.4317940999754,None,376.4535979999928,None,376.4535979999928,None,376.4535979999928,None,378.26228761998937,None,378.26228761998937,None,378.26228761998937,None,,,,,,,,,,,122,21,Female,2022-05-09_15h51.13.789,Boat,2022.1.1,60.13438833226163,
positive,neutral,1,l,j,,,,,,,,,5,3,93,8,,,,,,,,,,,,,,,,,,,,,,,,main,2,2,1,neutral,positive,l,j,0,0.7355279000476003,378.28197479993105,379.2999656999018,379.261456899927,None,378.28197479993105,None,378.28197479993105,None,378.28197479993105,None,380.0041895000031,None,380.0041895000031,None,380.0041895000031,None,,,,,,,,,,,122,21,Female,2022-05-09_15h51.13.789,Boat,2022.1.1,60.13438833226163,
negative,neutral,2,j,l,,,,,,,,,5,4,94,12,,,,,,,,,,,,,,,,,,,,,,,,main,2,2,2,neutral,negative,j,j,1,0.870913999970071,381.0202272000024,382.0447455999674,382.02476389997173,None,381.0202272000024,None,381.0202272000024,None,381.0202272000024,None,382.8753543199273,None,382.8753543199273,None,382.8753543199273,None,,,,,,,,,,,122,21,Female,2022-05-09_15h51.13.789,Boat,2022.1.1,60.13438833226163,
positive,negative,2,l,j,,,,,,,,,5,5,95,14,,,,,,,,,,,,,,,,,,,,,,,,main,2,2,2,negative,positive,l,l,1,0.8269707999425009,382.89894879993517,383.9115607999265,383.89153759996407,None,382.89894879993517,None,382.89894879993517,None,382.89894879993517,None,384.706509719952,None,384.706509719952,None,384.706509719952,None,,,,,,,,,,,122,21,Female,2022-05-09_15h51.13.789,Boat,2022.1.1,60.13438833226163,
negative,positive,1,j,l,,,,,,,,,5,6,96,6,,,,,,,,,,,,,,,,,,,,,,,,main,2,2,1,positive,negative,j,j,1,1.1812497000209987,384.7290115999058,385.7379534000065,385.7166488999501,None,384.7290115999058,None,384.7290115999058,None,384.7290115999058,None,386.89078481995966,None,386.89078481995966,None,386.89078481995966,None,,,,,,,,,,,122,21,Female,2022-05-09_15h51.13.789,Boat,2022.1.1,60.13438833226163,
positive,positive,2,l,j,,,,,,,,,5,7,97,11,,,,,,,,,,,,,,,,,,,,,,,,main,2,2,2,positive,positive,l,l,1,1.0620015000458807,386.9150482999394,387.9218407999724,387.88507339998614,None,386.9150482999394,None,386.9150482999394,None,386.9150482999394,None,388.9526625199942,None,388.9526625199942,None,388.9526625199942,None,,,,,,,,,,,122,21,Female,2022-05-09_15h51.13.789,Boat,2022.1.1,60.13438833226163,
neutral,negative,2,k,k,,,,,,,,,5,8,98,16,,,,,,,,,,,,,,,,,,,,,,,,main,1,1,2,negative,neutral,k,k,1,0.8358222999377176,388.9735739999451,389.9805809999816,389.961586899939,None,388.9735739999451,None,388.9735739999451,None,388.9735739999451,None,390.7944542199839,None,390.7944542199839,None,390.7944542199839,None,,,,,,,,,,,122,21,Female,2022-05-09_15h51.13.789,Boat,2022.1.1,60.13438833226163,
neutral,neutral,2,k,k,,,,,,,,,5,9,99,10,,,,,,,,,,,,,,,,,,,,,,,,main,1,1,2,neutral,neutral,k,k,1,0.7094984999857843,390.81377149990294,391.8363594999537,391.7899341000011,None,390.81377149990294,None,390.81377149990294,None,390.81377149990294,None,392.5045394198969,None,392.5045394198969,None,392.5045394198969,None,,,,,,,,,,,122,21,Female,2022-05-09_15h51.13.789,Boat,2022.1.1,60.13438833226163,
negative,neutral,1,j,l,,,,,,,,,5,10,100,3,,,,,,,,,,,,,,,,,,,,,,,,main,2,2,1,neutral,negative,j,j,1,0.8617112000938505,392.52596849994734,393.52814279997256,393.50849719997495,None,392.52596849994734,None,392.52596849994734,None,392.52596849994734,None,394.3701521200128,None,394.3701521200128,None,394.3701521200128,None,,,,,,,,,,,122,21,Female,2022-05-09_15h51.13.789,Boat,2022.1.1,60.13438833226163,
positive,positive,1,l,j,,,,,,,,,5,11,101,2,,,,,,,,,,,,,,,,,,,,,,,,main,1,1,1,positive,positive,l,l,1,0.9702976000262424,394.3972879999783,395.40472929994576,395.3683902999619,None,394.3972879999783,None,394.3972879999783,None,394.3972879999783,None,396.34448242001235,None,396.34448242001235,None,396.34448242001235,None,,,,,,,,,,,122,21,Female,2022-05-09_15h51.13.789,Boat,2022.1.1,60.13438833226163,
neutral,positive,1,k,k,,,,,,,,,5,12,102,4,,,,,,,,,,,,,,,,,,,,,,,,main,2,2,1,positive,neutral,k,k,1,0.8092909000115469,396.36552679992747,397.3685975999106,397.3504152999958,None,396.36552679992747,None,396.36552679992747,None,396.36552679992747,None,398.1541016199626,None,398.1541016199626,None,398.1541016199626,None,,,,,,,,,,,122,21,Female,2022-05-09_15h51.13.789,Boat,2022.1.1,60.13438833226163,
negative,negative,1,j,l,,,,,,,,,5,13,103,0,,,,,,,,,,,,,,,,,,,,,,,,main,1,1,1,negative,negative,j,j,1,0.8033185000531375,398.1745835999027,399.18160189990886,399.16182749997824,None,398.1745835999027,None,398.1745835999027,None,398.1745835999027,None,399.9630294200033,None,399.9630294200033,None,399.9630294200033,None,,,,,,,,,,,122,21,Female,2022-05-09_15h51.13.789,Boat,2022.1.1,60.13438833226163,
negative,positive,2,j,l,,,,,,,,,5,14,104,15,,,,,,,,,,,,,,,,,,,,,,,,main,2,2,2,positive,negative,j,j,1,1.117404600023292,399.98237179999705,400.9840228999965,400.9657197999768,None,399.98237179999705,None,399.98237179999705,None,399.98237179999705,None,402.0826743199723,None,402.0826743199723,None,402.0826743199723,None,,,,,,,,,,,122,21,Female,2022-05-09_15h51.13.789,Boat,2022.1.1,60.13438833226163,
positive,neutral,2,l,j,,,,,,,,,5,15,105,17,,,,,,,,,,,,,,,,,,,,,,,,main,2,2,2,neutral,positive,l,l,1,0.9209620000328869,402.10301540000364,403.11712469998747,403.07397719996516,None,402.10301540000364,None,402.10301540000364,None,402.10301540000364,None,404.0068894199794,None,404.0068894199794,None,404.0068894199794,None,,,,,,,,,,,122,21,Female,2022-05-09_15h51.13.789,Boat,2022.1.1,60.13438833226163,
neutral,negative,1,k,k,,,,,,,,,5,16,106,7,,,,,,,,,,,,,,,,,,,,,,,,main,2,2,1,negative,neutral,k,k,1,0.708243100089021,404.02760359994136,405.0453940000152,405.00597980001476,None,404.02760359994136,None,404.02760359994136,None,404.02760359994136,None,405.71713291993365,None,405.71713291993365,None,405.71713291993365,None,,,,,,,,,,,122,21,Female,2022-05-09_15h51.13.789,Boat,2022.1.1,60.13438833226163,
neutral,positive,2,k,k,,,,,,,,,5,17,107,13,,,,,,,,,,,,,,,,,,,,,,,,main,1,1,2,positive,neutral,k,k,1,0.6302942000329494,405.7354356999276,406.7521109000081,406.71743660001084,None,405.7354356999276,None,405.7354356999276,None,405.7354356999276,None,407.35041861992795,None,407.35041861992795,None,407.35041861992795,None,,,,,,,,,,,122,21,Female,2022-05-09_15h51.13.789,Boat,2022.1.1,60.13438833226163,
positive,positive,1,l,j,,,,,,,,,6,0,108,2,,,,,,,,,,,,,,,,,,,,,,,,main,1,1,1,positive,positive,l,j,0,0.8338416999904439,407.36970419995487,408.38561769993976,408.34561009996105,None,407.36970419995487,None,407.36970419995487,None,407.36970419995487,None,409.1918221999658,None,409.1918221999658,None,409.1918221999658,None,,,,,,,,,,,122,21,Female,2022-05-09_15h51.13.789,Boat,2022.1.1,60.13438833226163,
positive,neutral,2,l,j,,,,,,,,,6,1,109,17,,,,,,,,,,,,,,,,,,,,,,,,main,2,2,2,neutral,positive,l,l,1,1.6374265999766067,410.20512169995345,411.2198404999217,411.1844912999077,None,410.20512169995345,None,410.20512169995345,None,410.20512169995345,None,412.8312034999253,None,412.8312034999253,None,412.8312034999253,None,,,,,,,,,,,122,21,Female,2022-05-09_15h51.13.789,Boat,2022.1.1,60.13438833226163,
positive,negative,2,l,j,,,,,,,,,6,2,110,14,,,,,,,,,,,,,,,,,,,,,,,,main,2,2,2,negative,positive,l,l,1,0.6555209000362083,413.8542267999146,414.8705250999192,414.83424609992653,None,413.8542267999146,None,413.8542267999146,None,413.8542267999146,None,415.49532371992245,None,415.49532371992245,None,415.49532371992245,None,,,,,,,,,,,122,21,Female,2022-05-09_15h51.13.789,Boat,2022.1.1,60.13438833226163,
neutral,positive,2,k,k,,,,,,,,,6,3,111,13,,,,,,,,,,,,,,,,,,,,,,,,main,1,1,2,positive,neutral,k,k,1,0.7312541999854147,415.5143110000063,416.52938259998336,416.4902276999783,None,415.5143110000063,None,415.5143110000063,None,415.5143110000063,None,417.2305306199705,None,417.2305306199705,None,417.2305306199705,None,,,,,,,,,,,122,21,Female,2022-05-09_15h51.13.789,Boat,2022.1.1,60.13438833226163,
neutral,negative,1,k,k,,,,,,,,,6,4,112,7,,,,,,,,,,,,,,,,,,,,,,,,main,2,2,1,negative,neutral,k,k,1,0.7224453999660909,417.24985699995887,418.265897699981,418.24607009999454,None,417.24985699995887,None,417.24985699995887,None,417.24985699995887,None,418.9540030199569,None,418.9540030199569,None,418.9540030199569,None,,,,,,,,,,,122,21,Female,2022-05-09_15h51.13.789,Boat,2022.1.1,60.13438833226163,
neutral,neutral,2,k,k,,,,,,,,,6,5,113,10,,,,,,,,,,,,,,,,,,,,,,,,main,2,2,2,neutral,neutral,k,k,1,0.6203183999750763,418.97369149990845,419.98710909998044,419.95122319995426,None,418.97369149990845,None,418.97369149990845,None,418.97369149990845,None,420.5770410199184,None,420.5770410199184,None,420.5770410199184,None,,,,,,,,,,,122,21,Female,2022-05-09_15h51.13.789,Boat,2022.1.1,60.13438833226163,
negative,neutral,2,j,l,,,,,,,,,6,6,114,12,,,,,,,,,,,,,,,,,,,,,,,,main,1,1,2,neutral,negative,j,j,1,0.7820619000121951,420.6004648999078,421.60335300001316,421.5852137999609,None,420.6004648999078,None,420.6004648999078,None,420.6004648999078,None,422.36328761989716,None,422.36328761989716,None,422.36328761989716,None,,,,,,,,,,,122,21,Female,2022-05-09_15h51.13.789,Boat,2022.1.1,60.13438833226163,
negative,negative,1,j,l,,,,,,,,,6,7,115,0,,,,,,,,,,,,,,,,,,,,,,,,main,1,1,1,negative,negative,j,j,1,1.0131838000379503,422.3833568999544,423.3996084999526,423.37941139994655,None,422.3833568999544,None,422.3833568999544,None,422.3833568999544,None,424.37959291995503,None,424.37959291995503,None,424.37959291995503,None,,,,,,,,,,,122,21,Female,2022-05-09_15h51.13.789,Boat,2022.1.1,60.13438833226163,
neutral,neutral,1,k,k,,,,,,,,,6,8,116,1,,,,,,,,,,,,,,,,,,,,,,,,main,1,1,1,neutral,neutral,k,k,1,0.7664798999903724,424.40010169998277,425.40922809997573,425.37132699997164,None,424.40010169998277,None,424.40010169998277,None,424.40010169998277,None,426.1491292199353,None,426.1491292199353,None,426.1491292199353,None,,,,,,,,,,,122,21,Female,2022-05-09_15h51.13.789,Boat,2022.1.1,60.13438833226163,
negative,positive,1,j,l,,,,,,,,,6,9,117,6,,,,,,,,,,,,,,,,,,,,,,,,main,1,1,1,positive,negative,j,j,1,0.8195145999779925,426.1666088999482,427.1703011000063,427.1523309999611,None,426.1666088999482,None,426.1666088999482,None,426.1666088999482,None,427.9700864199549,None,427.9700864199549,None,427.9700864199549,None,,,,,,,,,,,122,21,Female,2022-05-09_15h51.13.789,Boat,2022.1.1,60.13438833226163,
positive,negative,1,l,j,,,,,,,,,6,10,118,5,,,,,,,,,,,,,,,,,,,,,,,,main,1,1,1,negative,positive,l,l,1,0.9021483000833541,427.98841539991554,429.00203269999474,428.96682239999063,None,427.98841539991554,None,427.98841539991554,None,427.98841539991554,None,429.8753887199564,None,429.8753887199564,None,429.8753887199564,None,,,,,,,,,,,122,21,Female,2022-05-09_15h51.13.789,Boat,2022.1.1,60.13438833226163,
negative,neutral,1,j,l,,,,,,,,,6,11,119,3,,,,,,,,,,,,,,,,,,,,,,,,main,1,1,1,neutral,negative,j,j,1,0.8041524000000209,429.89845029998105,430.91785969992634,430.89761019998696,None,429.89845029998105,None,429.89845029998105,None,429.89845029998105,None,431.68306231999304,None,431.68306231999304,None,431.68306231999304,None,,,,,,,,,,,122,21,Female,2022-05-09_15h51.13.789,Boat,2022.1.1,60.13438833226163,
negative,negative,2,j,l,,,,,,,,,6,12,120,9,,,,,,,,,,,,,,,,,,,,,,,,main,1,1,2,negative,negative,j,j,1,0.8319276999682188,431.7027797999326,432.7207233000081,432.6848122999072,None,431.7027797999326,None,431.7027797999326,None,431.7027797999326,None,433.51792191993445,None,433.51792191993445,None,433.51792191993445,None,,,,,,,,,,,122,21,Female,2022-05-09_15h51.13.789,Boat,2022.1.1,60.13438833226163,
negative,positive,2,j,l,,,,,,,,,6,13,121,15,,,,,,,,,,,,,,,,,,,,,,,,main,1,1,2,positive,negative,j,j,1,0.8810953000793234,433.5371662999969,434.55132189998403,434.51283839996904,None,433.5371662999969,None,433.5371662999969,None,433.5371662999969,None,435.4011896199081,None,435.4011896199081,None,435.4011896199081,None,,,,,,,,,,,122,21,Female,2022-05-09_15h51.13.789,Boat,2022.1.1,60.13438833226163,
neutral,negative,2,k,k,,,,,,,,,6,14,122,16,,,,,,,,,,,,,,,,,,,,,,,,main,2,2,2,negative,neutral,k,k,1,0.8926869999850169,435.42087589995936,436.425015399931,436.4067208999768,None,435.42087589995936,None,435.42087589995936,None,435.42087589995936,None,437.29884442000184,None,437.29884442000184,None,437.29884442000184,None,,,,,,,,,,,122,21,Female,2022-05-09_15h51.13.789,Boat,2022.1.1,60.13438833226163,
positive,neutral,1,l,j,,,,,,,,,6,15,123,8,,,,,,,,,,,,,,,,,,,,,,,,main,2,2,1,neutral,positive,l,l,1,1.856360600097105,437.31665369996335,438.3193811000092,438.3018968999386,None,437.31665369996335,None,437.31665369996335,None,437.31665369996335,None,440.16630729997996,None,440.16630729997996,None,440.16630729997996,None,,,,,,,,,,,122,21,Female,2022-05-09_15h51.13.789,Boat,2022.1.1,60.13438833226163,
positive,positive,2,l,j,,,,,,,,,6,16,124,11,,,,,,,,,,,,,,,,,,,,,,,,main,1,1,2,positive,positive,l,l,1,0.7272363000083715,441.1878202999942,442.18938929995056,442.17066969990265,None,441.1878202999942,None,441.1878202999942,None,441.1878202999942,None,442.90010132000316,None,442.90010132000316,None,442.90010132000316,None,,,,,,,,,,,122,21,Female,2022-05-09_15h51.13.789,Boat,2022.1.1,60.13438833226163,
neutral,positive,1,k,k,,,,,,,,,6,17,125,4,,,,,,,,,,,,,,,,,,,,,,,,main,1,1,1,positive,neutral,k,k,1,0.8018704999703914,442.9207887999946,443.9361475999467,443.90139119990636,None,442.9207887999946,None,442.9207887999946,None,442.9207887999946,None,444.7044058199972,None,444.7044058199972,None,444.7044058199972,None,,,,,,,,,,,122,21,Female,2022-05-09_15h51.13.789,Boat,2022.1.1,60.13438833226163,
positive,positive,1,l,j,,,,,,,,,7,0,126,2,,,,,,,,,,,,,,,,,,,,,,,,main,2,2,1,positive,positive,l,l,1,0.7780258000129834,444.7310156999156,445.7364939999534,445.7014817999443,None,444.7310156999156,None,444.7310156999156,None,444.7310156999156,None,446.485512419953,None,446.485512419953,None,446.485512419953,None,,,,,,,,,,,122,21,Female,2022-05-09_15h51.13.789,Boat,2022.1.1,60.13438833226163,
positive,negative,2,l,j,,,,,,,,,7,1,127,14,,,,,,,,,,,,,,,,,,,,,,,,main,2,2,2,negative,positive,l,l,1,0.7292319000698626,446.5073413999053,447.52076489990577,447.4848803000059,None,446.5073413999053,None,446.5073413999053,None,446.5073413999053,None,448.2188786199549,None,448.2188786199549,None,448.2188786199549,None,,,,,,,,,,,122,21,Female,2022-05-09_15h51.13.789,Boat,2022.1.1,60.13438833226163,
negative,negative,1,j,l,,,,,,,,,7,2,128,0,,,,,,,,,,,,,,,,,,,,,,,,main,1,1,1,negative,negative,j,j,1,0.8524710000492632,448.239408699912,449.24176359991543,449.2237030999968,None,448.239408699912,None,448.239408699912,None,448.239408699912,None,450.073692619917,None,450.073692619917,None,450.073692619917,None,,,,,,,,,,,122,21,Female,2022-05-09_15h51.13.789,Boat,2022.1.1,60.13438833226163,
positive,positive,2,l,j,,,,,,,,,7,3,129,11,,,,,,,,,,,,,,,,,,,,,,,,main,1,1,2,positive,positive,l,l,1,0.8652540999464691,450.09476509992965,451.11267979990225,451.0734539999394,None,450.09476509992965,None,450.09476509992965,None,450.09476509992965,None,451.9430431199726,None,451.9430431199726,None,451.9430431199726,None,,,,,,,,,,,122,21,Female,2022-05-09_15h51.13.789,Boat,2022.1.1,60.13438833226163,
negative,neutral,1,j,l,,,,,,,,,7,4,130,3,,,,,,,,,,,,,,,,,,,,,,,,main,1,1,1,neutral,negative,j,j,1,1.408137800055556,451.96520119998604,452.98027069994714,452.9400718999095,None,451.96520119998604,None,451.96520119998604,None,451.96520119998604,None,454.3535354199121,None,454.3535354199121,None,454.3535354199121,None,,,,,,,,,,,122,21,Female,2022-05-09_15h51.13.789,Boat,2022.1.1,60.13438833226163,
negative,positive,2,j,l,,,,,,,,,7,5,131,15,,,,,,,,,,,,,,,,,,,,,,,,main,2,2,2,positive,negative,j,j,1,0.8704276999924332,454.37399489991367,455.3895820999751,455.35277289990336,None,454.37399489991367,None,454.37399489991367,None,454.37399489991367,None,456.2283274199581,None,456.2283274199581,None,456.2283274199581,None,,,,,,,,,,,122,21,Female,2022-05-09_15h51.13.789,Boat,2022.1.1,60.13438833226163,
neutral,positive,1,k,k,,,,,,,,,7,6,132,4,,,,,,,,,,,,,,,,,,,,,,,,main,2,2,1,positive,neutral,k,k,1,0.8683083000360057,456.25076149997767,457.26895339996554,457.2266254000133,None,456.25076149997767,None,456.25076149997767,None,456.25076149997767,None,458.099167319946,None,458.099167319946,None,458.099167319946,None,,,,,,,,,,,122,21,Female,2022-05-09_15h51.13.789,Boat,2022.1.1,60.13438833226163,
neutral,neutral,2,k,k,,,,,,,,,7,7,133,10,,,,,,,,,,,,,,,,,,,,,,,,main,1,1,2,neutral,neutral,k,k,1,0.6217469000257552,458.11904339992907,459.12977489992045,459.09042699995916,None,458.11904339992907,None,458.11904339992907,None,458.11904339992907,None,459.722980319988,None,459.722980319988,None,459.722980319988,None,,,,,,,,,,,122,21,Female,2022-05-09_15h51.13.789,Boat,2022.1.1,60.13438833226163,
negative,negative,2,j,l,,,,,,,,,7,8,134,9,,,,,,,,,,,,,,,,,,,,,,,,main,1,1,2,negative,negative,j,j,1,0.7922045999439433,459.7478173999116,460.7664137999527,460.7259525000118,None,459.7478173999116,None,459.7478173999116,None,459.7478173999116,None,461.5191513199825,None,461.5191513199825,None,461.5191513199825,None,,,,,,,,,,,122,21,Female,2022-05-09_15h51.13.789,Boat,2022.1.1,60.13438833226163,
neutral,negative,1,k,k,,,,,,,,,7,9,135,7,,,,,,,,,,,,,,,,,,,,,,,,main,1,1,1,negative,neutral,k,k,1,0.8360483999131247,461.53680759994313,462.5417664999841,462.52352509996854,None,461.53680759994313,None,461.53680759994313,None,461.53680759994313,None,463.35861351992935,None,463.35861351992935,None,463.35861351992935,None,,,,,,,,,,,122,21,Female,2022-05-09_15h51.13.789,Boat,2022.1.1,60.13438833226163,
neutral,negative,2,k,k,,,,,,,,,7,10,136,16,,,,,,,,,,,,,,,,,,,,,,,,main,2,2,2,negative,neutral,k,k,1,0.6413551999721676,463.38105349999387,464.38796129997354,464.3522376999026,None,463.38105349999387,None,463.38105349999387,None,463.38105349999387,None,465.00203581992537,None,465.00203581992537,None,465.00203581992537,None,,,,,,,,,,,122,21,Female,2022-05-09_15h51.13.789,Boat,2022.1.1,60.13438833226163,
positive,neutral,1,l,j,,,,,,,,,7,11,137,8,,,,,,,,,,,,,,,,,,,,,,,,main,1,1,1,neutral,positive,l,l,1,1.7143250999506563,465.0200419999892,466.0340789000038,466.0135475000134,None,465.0200419999892,None,465.0200419999892,None,465.0200419999892,None,467.72478149994276,None,467.72478149994276,None,467.72478149994276,None,,,,,,,,,,,122,21,Female,2022-05-09_15h51.13.789,Boat,2022.1.1,60.13438833226163,
negative,neutral,2,j,l,,,,,,,,,7,12,138,12,,,,,,,,,,,,,,,,,,,,,,,,main,1,1,2,neutral,negative,j,j,1,1.1009559000376612,468.7391388999531,469.7511588999769,469.7305186999729,None,468.7391388999531,None,468.7391388999531,None,468.7391388999531,None,470.8238292199094,None,470.8238292199094,None,470.8238292199094,None,,,,,,,,,,,122,21,Female,2022-05-09_15h51.13.789,Boat,2022.1.1,60.13438833226163,
neutral,positive,2,k,k,,,,,,,,,7,13,139,13,,,,,,,,,,,,,,,,,,,,,,,,main,1,1,2,positive,neutral,k,k,1,0.9342534000752494,470.8473837999627,471.8592183999717,471.8208084999351,None,470.8473837999627,None,470.8473837999627,None,470.8473837999627,None,472.7619111199165,None,472.7619111199165,None,472.7619111199165,None,,,,,,,,,,,122,21,Female,2022-05-09_15h51.13.789,Boat,2022.1.1,60.13438833226163,
negative,positive,1,j,l,,,,,,,,,7,14,140,6,,,,,,,,,,,,,,,,,,,,,,,,main,1,1,1,positive,negative,j,j,1,0.819331799983047,472.7817914999323,473.7939229999902,473.76617540000007,None,472.7817914999323,None,472.7817914999323,None,472.7817914999323,None,474.58443961991,None,474.58443961991,None,474.58443961991,None,,,,,,,,,,,122,21,Female,2022-05-09_15h51.13.789,Boat,2022.1.1,60.13438833226163,
positive,negative,1,l,j,,,,,,,,,7,15,141,5,,,,,,,,,,,,,,,,,,,,,,,,main,2,2,1,negative,positive,l,l,1,0.9465207000030205,474.60278069996275,475.60247279994655,475.58521339995787,None,474.60278069996275,None,474.60278069996275,None,474.60278069996275,None,476.5343147199601,None,476.5343147199601,None,476.5343147199601,None,,,,,,,,,,,122,21,Female,2022-05-09_15h51.13.789,Boat,2022.1.1,60.13438833226163,
positive,neutral,2,l,j,,,,,,,,,7,16,142,17,,,,,,,,,,,,,,,,,,,,,,,,main,1,1,2,neutral,positive,l,l,1,0.8800613998901099,476.55278699996416,477.5537203999702,477.5355430999771,None,476.55278699996416,None,476.55278699996416,None,476.55278699996416,None,478.4175813199254,None,478.4175813199254,None,478.4175813199254,None,,,,,,,,,,,122,21,Female,2022-05-09_15h51.13.789,Boat,2022.1.1,60.13438833226163,
neutral,neutral,1,k,k,,,,,,,,,7,17,143,1,,,,,,,,,,,,,,,,,,,,,,,,main,1,1,1,neutral,neutral,k,k,1,0.6741754999384284,478.43750859994907,479.4486957999179,479.4279720999766,None,478.43750859994907,None,478.43750859994907,None,478.43750859994907,None,480.09626551996917,None,480.09626551996917,None,480.09626551996917,None,,,,,,,,,,,122,21,Female,2022-05-09_15h51.13.789,Boat,2022.1.1,60.13438833226163,
negative,negative,1,j,l,,,,,,,,,8,0,144,0,,,,,,,,,,,,,,,,,,,,,,,,main,2,2,1,negative,negative,j,j,1,0.8158978999126703,480.1158868999919,481.1192313999636,481.1008010999067,None,480.1158868999919,None,480.1158868999919,None,480.1158868999919,None,481.9147223199252,None,481.9147223199252,None,481.9147223199252,None,,,,,,,,,,,122,21,Female,2022-05-09_15h51.13.789,Boat,2022.1.1,60.13438833226163,
negative,positive,2,j,l,,,,,,,,,8,1,145,15,,,,,,,,,,,,,,,,,,,,,,,,main,1,1,2,positive,negative,j,j,1,0.7899174999911338,481.93363290000707,482.95242909993976,482.91416529996786,None,481.93363290000707,None,481.93363290000707,None,481.93363290000707,None,483.7061907199677,None,483.7061907199677,None,483.7061907199677,None,,,,,,,,,,,122,21,Female,2022-05-09_15h51.13.789,Boat,2022.1.1,60.13438833226163,
neutral,positive,1,k,k,,,,,,,,,8,2,146,4,,,,,,,,,,,,,,,,,,,,,,,,main,2,2,1,positive,neutral,k,k,1,1.2436264000134543,483.72601829993073,484.7473852999974,484.7074257999193,None,483.72601829993073,None,483.72601829993073,None,483.72601829993073,None,485.95258881989866,None,485.95258881989866,None,485.95258881989866,None,,,,,,,,,,,122,21,Female,2022-05-09_15h51.13.789,Boat,2022.1.1,60.13438833226163,
negative,neutral,2,j,l,,,,,,,,,8,3,147,12,,,,,,,,,,,,,,,,,,,,,,,,main,2,2,2,neutral,negative,j,j,1,0.7792898999759927,485.9744354999857,486.98468349990435,486.96355019998737,None,485.9744354999857,None,485.9744354999857,None,485.9744354999857,None,487.73444821999874,None,487.73444821999874,None,487.73444821999874,None,,,,,,,,,,,122,21,Female,2022-05-09_15h51.13.789,Boat,2022.1.1,60.13438833226163,
negative,neutral,1,j,l,,,,,,,,,8,4,148,3,,,,,,,,,,,,,,,,,,,,,,,,main,1,1,1,neutral,negative,j,j,1,0.8503654999658465,487.75602560001425,488.7806131999241,488.7333149999613,None,487.75602560001425,None,487.75602560001425,None,487.75602560001425,None,489.5898070199182,None,489.5898070199182,None,489.5898070199182,None,,,,,,,,,,,122,21,Female,2022-05-09_15h51.13.789,Boat,2022.1.1,60.13438833226163,
neutral,negative,1,k,k,,,,,,,,,8,5,149,7,,,,,,,,,,,,,,,,,,,,,,,,main,1,1,1,negative,neutral,k,k,1,0.6406893000239506,489.607924999902,490.61639280000236,490.597039999906,None,489.607924999902,None,489.607924999902,None,489.607924999902,None,491.23476871999446,None,491.23476871999446,None,491.23476871999446,None,,,,,,,,,,,122,21,Female,2022-05-09_15h51.13.789,Boat,2022.1.1,60.13438833226163,
positive,negative,1,l,j,,,,,,,,,8,6,150,5,,,,,,,,,,,,,,,,,,,,,,,,main,2,2,1,negative,positive,l,l,1,0.8943194999592379,491.2529419999337,492.2542076999089,492.23601669992786,None,491.2529419999337,None,491.2529419999337,None,491.2529419999337,None,493.1316460199887,None,493.1316460199887,None,493.1316460199887,None,,,,,,,,,,,122,21,Female,2022-05-09_15h51.13.789,Boat,2022.1.1,60.13438833226163,
neutral,negative,2,k,k,,,,,,,,,8,7,151,16,,,,,,,,,,,,,,,,,,,,,,,,main,1,1,2,negative,neutral,k,k,1,0.735761700081639,493.15259740001056,494.169092600001,494.1269673999632,None,493.15259740001056,None,493.15259740001056,None,493.15259740001056,None,494.87086841999553,None,494.87086841999553,None,494.87086841999553,None,,,,,,,,,,,122,21,Female,2022-05-09_15h51.13.789,Boat,2022.1.1,60.13438833226163,
positive,neutral,2,l,j,,,,,,,,,8,8,152,17,,,,,,,,,,,,,,,,,,,,,,,,main,1,1,2,neutral,positive,l,l,1,0.9423184000188485,494.88895579997916,495.90535409993026,495.8692672000034,None,494.88895579997916,None,494.88895579997916,None,494.88895579997916,None,496.81633731990587,None,496.81633731990587,None,496.81633731990587,None,,,,,,,,,,,122,21,Female,2022-05-09_15h51.13.789,Boat,2022.1.1,60.13438833226163,
neutral,neutral,1,k,k,,,,,,,,,8,9,153,1,,,,,,,,,,,,,,,,,,,,,,,,main,2,2,1,neutral,neutral,k,k,1,0.7535693000536412,496.8364753999049,497.8408064999385,497.8230513999006,None,496.8364753999049,None,496.8364753999049,None,496.8364753999049,None,498.5721549199661,None,498.5721549199661,None,498.5721549199661,None,,,,,,,,,,,122,21,Female,2022-05-09_15h51.13.789,Boat,2022.1.1,60.13438833226163,
negative,negative,2,j,l,,,,,,,,,8,10,154,9,,,,,,,,,,,,,,,,,,,,,,,,main,1,1,2,negative,negative,j,j,1,0.7201331999385729,498.59111889998894,499.60274110001046,499.5687700000126,None,498.59111889998894,None,498.59111889998894,None,498.59111889998894,None,500.2969441199675,None,500.2969441199675,None,500.2969441199675,None,,,,,,,,,,,122,21,Female,2022-05-09_15h51.13.789,Boat,2022.1.1,60.13438833226163,
neutral,neutral,2,k,k,,,,,,,,,8,11,155,10,,,,,,,,,,,,,,,,,,,,,,,,main,2,2,2,neutral,neutral,k,k,1,0.7605445999652147,500.3185931999469,501.3305041999556,501.3109509999631,None,500.3185931999469,None,500.3185931999469,None,500.3185931999469,None,502.05994221998844,None,502.05994221998844,None,502.05994221998844,None,,,,,,,,,,,122,21,Female,2022-05-09_15h51.13.789,Boat,2022.1.1,60.13438833226163,
positive,positive,1,l,j,,,,,,,,,8,12,156,2,,,,,,,,,,,,,,,,,,,,,,,,main,1,1,1,positive,positive,l,l,1,0.8741710000904277,502.0787433999358,503.0920042999787,503.05463279993273,None,502.0787433999358,None,502.0787433999358,None,502.0787433999358,None,503.9357767199399,None,503.9357767199399,None,503.9357767199399,None,,,,,,,,,,,122,21,Female,2022-05-09_15h51.13.789,Boat,2022.1.1,60.13438833226163,
positive,negative,2,l,j,,,,,,,,,8,13,157,14,,,,,,,,,,,,,,,,,,,,,,,,main,1,1,2,negative,positive,l,l,1,0.815410399925895,503.95496879995335,504.97103719995357,504.9348374999827,None,503.95496879995335,None,503.95496879995335,None,503.95496879995335,None,505.7524297198979,None,505.7524297198979,None,505.7524297198979,None,,,,,,,,,,,122,21,Female,2022-05-09_15h51.13.789,Boat,2022.1.1,60.13438833226163,
positive,positive,2,l,j,,,,,,,,,8,14,158,11,,,,,,,,,,,,,,,,,,,,,,,,main,2,2,2,positive,positive,l,l,1,0.7676562999840826,505.7792490000138,506.7867440999253,506.75170149991754,None,505.7792490000138,None,505.7792490000138,None,505.7792490000138,None,507.52333971997723,None,507.52333971997723,None,507.52333971997723,None,,,,,,,,,,,122,21,Female,2022-05-09_15h51.13.789,Boat,2022.1.1,60.13438833226163,
negative,positive,1,j,l,,,,,,,,,8,15,159,6,,,,,,,,,,,,,,,,,,,,,,,,main,1,1,1,positive,negative,j,j,1,0.8163011000724509,507.54620300000533,508.55656049994286,508.52008809999097,None,507.54620300000533,None,507.54620300000533,None,507.54620300000533,None,509.3453880199231,None,509.3453880199231,None,509.3453880199231,None,,,,,,,,,,,122,21,Female,2022-05-09_15h51.13.789,Boat,2022.1.1,60.13438833226163,
positive,neutral,1,l,j,,,,,,,,,8,16,160,8,,,,,,,,,,,,,,,,,,,,,,,,main,2,2,1,neutral,positive,l,l,1,0.9036639999831095,509.36457829992287,510.3864804999903,510.3439634999959,None,509.36457829992287,None,509.36457829992287,None,509.36457829992287,None,511.2517219199799,None,511.2517219199799,None,511.2517219199799,None,,,,,,,,,,,122,21,Female,2022-05-09_15h51.13.789,Boat,2022.1.1,60.13438833226163,
neutral,positive,2,k,k,,,,,,,,,8,17,161,13,,,,,,,,,,,,,,,,,,,,,,,,main,1,1,2,positive,neutral,k,k,1,0.7876128000207245,511.268931999919,512.2857151000062,512.2433804000029,None,511.268931999919,None,511.268931999919,None,511.268931999919,None,513.042545520002,None,513.042545520002,None,513.042545520002,None,,,,,,,,,,,122,21,Female,2022-05-09_15h51.13.789,Boat,2022.1.1,60.13438833226163,
neutral,negative,2,k,k,,,,,,,,,9,0,162,16,,,,,,,,,,,,,,,,,,,,,,,,main,1,1,2,negative,neutral,k,k,1,1.2318249000236392,513.0630073999055,514.0687422999181,514.0477951999055,None,513.0630073999055,None,513.0630073999055,None,513.0630073999055,None,515.2746015199227,None,515.2746015199227,None,515.2746015199227,None,,,,,,,,,,,122,21,Female,2022-05-09_15h51.13.789,Boat,2022.1.1,60.13438833226163,
negative,positive,1,j,l,,,,,,,,,9,1,163,6,,,,,,,,,,,,,,,,,,,,,,,,main,1,1,1,positive,negative,j,j,1,0.8587799000088125,515.2967152999481,516.3176931999624,516.2766046999022,None,515.2967152999481,None,515.2967152999481,None,515.2967152999481,None,517.136590119917,None,517.136590119917,None,517.136590119917,None,,,,,,,,,,,122,21,Female,2022-05-09_15h51.13.789,Boat,2022.1.1,60.13438833226163,
negative,neutral,2,j,l,,,,,,,,,9,2,164,12,,,,,,,,,,,,,,,,,,,,,,,,main,2,2,2,neutral,negative,j,j,1,0.8300810999935493,517.1572602000087,518.1593916999409,518.1409838999389,None,517.1572602000087,None,517.1572602000087,None,517.1572602000087,None,518.9700925200013,None,518.9700925200013,None,518.9700925200013,None,,,,,,,,,,,122,21,Female,2022-05-09_15h51.13.789,Boat,2022.1.1,60.13438833226163,
positive,positive,1,l,j,,,,,,,,,9,3,165,2,,,,,,,,,,,,,,,,,,,,,,,,main,1,1,1,positive,positive,l,l,1,0.8643602000083774,518.9893889999948,520.0050595999928,519.9699874999933,None,518.9893889999948,None,518.9893889999948,None,518.9893889999948,None,520.8372340200003,None,520.8372340200003,None,520.8372340200003,None,,,,,,,,,,,122,21,Female,2022-05-09_15h51.13.789,Boat,2022.1.1,60.13438833226163,
negative,neutral,1,j,l,,,,,,,,,9,4,166,3,,,,,,,,,,,,,,,,,,,,,,,,main,1,1,1,neutral,negative,j,j,1,0.8177169000264257,520.856965099927,521.8588764999295,521.8409023999702,None,520.856965099927,None,520.856965099927,None,520.856965099927,None,522.6592652199324,None,522.6592652199324,None,522.6592652199324,None,,,,,,,,,,,122,21,Female,2022-05-09_15h51.13.789,Boat,2022.1.1,60.13438833226163,
positive,neutral,1,l,j,,,,,,,,,9,5,167,8,,,,,,,,,,,,,,,,,,,,,,,,main,2,2,1,neutral,positive,l,l,1,0.9343664000043646,522.6836145999841,523.6877006000141,523.67001849995,None,522.6836145999841,None,522.6836145999841,None,522.6836145999841,None,524.598015019903,None,524.598015019903,None,524.598015019903,None,,,,,,,,,,,122,21,Female,2022-05-09_15h51.13.789,Boat,2022.1.1,60.13438833226163,
negative,negative,2,j,l,,,,,,,,,9,6,168,9,,,,,,,,,,,,,,,,,,,,,,,,main,1,1,2,negative,negative,j,j,1,1.2880016999552026,524.619143399992,525.6268732999451,525.5907924999483,None,524.619143399992,None,524.619143399992,None,524.619143399992,None,526.8872766199056,None,526.8872766199056,None,526.8872766199056,None,,,,,,,,,,,122,21,Female,2022-05-09_15h51.13.789,Boat,2022.1.1,60.13438833226163,
negative,positive,2,j,l,,,,,,,,,9,7,169,15,,,,,,,,,,,,,,,,,,,,,,,,main,2,2,2,positive,negative,j,j,1,0.6954550000373274,526.9071169999661,527.9209898000117,527.8853684999049,None,526.9071169999661,None,526.9071169999661,None,526.9071169999661,None,528.5864891199162,None,528.5864891199162,None,528.5864891199162,None,,,,,,,,,,,122,21,Female,2022-05-09_15h51.13.789,Boat,2022.1.1,60.13438833226163,
positive,neutral,2,l,j,,,,,,,,,9,8,170,17,,,,,,,,,,,,,,,,,,,,,,,,main,1,1,2,neutral,positive,l,j,0,0.6695280000567436,528.6067186999135,529.623720799922,529.5867722999537,None,528.6067186999135,None,528.6067186999135,None,528.6067186999135,None,530.2679831999121,None,530.2679831999121,None,530.2679831999121,None,,,,,,,,,,,122,21,Female,2022-05-09_15h51.13.789,Boat,2022.1.1,60.13438833226163,
neutral,negative,1,k,k,,,,,,,,,9,9,171,7,,,,,,,,,,,,,,,,,,,,,,,,main,1,1,1,negative,neutral,k,k,1,0.9813923999899998,531.2892910999944,532.2980286999373,532.2768996999366,None,531.2892910999944,None,531.2892910999944,None,531.2892910999944,None,533.2549004199682,None,533.2549004199682,None,533.2549004199682,None,,,,,,,,,,,122,21,Female,2022-05-09_15h51.13.789,Boat,2022.1.1,60.13438833226163,
neutral,positive,2,k,k,,,,,,,,,9,10,172,13,,,,,,,,,,,,,,,,,,,,,,,,main,2,2,2,positive,neutral,k,k,1,1.2039205000037327,533.2759500999236,534.2955617000116,534.256087699905,None,533.2759500999236,None,533.2759500999236,None,533.2759500999236,None,535.4636774199316,None,535.4636774199316,None,535.4636774199316,None,,,,,,,,,,,122,21,Female,2022-05-09_15h51.13.789,Boat,2022.1.1,60.13438833226163,
positive,negative,1,l,j,,,,,,,,,9,11,173,5,,,,,,,,,,,,,,,,,,,,,,,,main,2,2,1,negative,positive,l,l,1,0.8860330000752583,535.4852383999387,536.4908338999376,536.4549686999526,None,535.4852383999387,None,535.4852383999387,None,535.4852383999387,None,537.3521045199595,None,537.3521045199595,None,537.3521045199595,None,,,,,,,,,,,122,21,Female,2022-05-09_15h51.13.789,Boat,2022.1.1,60.13438833226163,
neutral,positive,1,k,k,,,,,,,,,9,12,174,4,,,,,,,,,,,,,,,,,,,,,,,,main,1,1,1,positive,neutral,k,k,1,0.6732216000091285,537.3717667999445,538.3910913999425,538.3537048000144,None,537.3717667999445,None,537.3717667999445,None,537.3717667999445,None,539.0283770199167,None,539.0283770199167,None,539.0283770199167,None,,,,,,,,,,,122,21,Female,2022-05-09_15h51.13.789,Boat,2022.1.1,60.13438833226163,
neutral,neutral,2,k,k,,,,,,,,,9,13,175,10,,,,,,,,,,,,,,,,,,,,,,,,main,2,2,2,neutral,neutral,k,k,1,0.6431815000250936,539.0488626000006,540.0535715000005,540.0321868999163,None,539.0488626000006,None,539.0488626000006,None,539.0488626000006,None,540.6739528200123,None,540.6739528200123,None,540.6739528200123,None,,,,,,,,,,,122,21,Female,2022-05-09_15h51.13.789,Boat,2022.1.1,60.13438833226163,
positive,negative,2,l,j,,,,,,,,,9,14,176,14,,,,,,,,,,,,,,,,,,,,,,,,main,2,2,2,negative,positive,l,l,1,0.9881409999215975,540.6919495000038,541.7036998999538,541.665149700013,None,540.6919495000038,None,540.6919495000038,None,540.6919495000038,None,542.6655984199606,None,542.6655984199606,None,542.6655984199606,None,,,,,,,,,,,122,21,Female,2022-05-09_15h51.13.789,Boat,2022.1.1,60.13438833226163,
positive,positive,2,l,j,,,,,,,,,9,15,177,11,,,,,,,,,,,,,,,,,,,,,,,,main,1,1,2,positive,positive,l,l,1,0.6997037000255659,542.686489499989,543.703755699913,543.6820705999853,None,542.686489499989,None,542.686489499989,None,542.686489499989,None,544.368982719956,None,544.368982719956,None,544.368982719956,None,,,,,,,,,,,122,21,Female,2022-05-09_15h51.13.789,Boat,2022.1.1,60.13438833226163,
neutral,neutral,1,k,k,,,,,,,,,9,16,178,1,,,,,,,,,,,,,,,,,,,,,,,,main,2,2,1,neutral,neutral,k,k,1,0.7376579999690875,544.3871017999481,545.3888421999291,545.3707343999995,None,544.3871017999481,None,544.3871017999481,None,544.3871017999481,None,546.1075624199584,None,546.1075624199584,None,546.1075624199584,None,,,,,,,,,,,122,21,Female,2022-05-09_15h51.13.789,Boat,2022.1.1,60.13438833226163,
negative,negative,1,j,l,,,,,,,,,9,17,179,0,,,,,,,,,,,,,,,,,,,,,,,,main,2,2,1,negative,negative,j,j,1,0.869797799969092,546.1274094999535,547.138021199964,547.1199575999053,None,546.1274094999535,None,546.1274094999535,None,546.1274094999535,None,547.9820218199166,None,547.9820218199166,None,547.9820218199166,None,,,,,,,,,,,122,21,Female,2022-05-09_15h51.13.789,Boat,2022.1.1,60.13438833226163,
negative,negative,1,j,l,,,,,,,,,10,0,180,0,,,,,,,,,,,,,,,,,,,,,,,,main,1,1,1,negative,negative,j,j,1,0.7966632000170648,548.002749599982,549.0195252000121,548.9988768999465,None,548.002749599982,None,548.002749599982,None,548.002749599982,None,549.7829987199511,None,549.7829987199511,None,549.7829987199511,None,,,,,,,,,,,122,21,Female,2022-05-09_15h51.13.789,Boat,2022.1.1,60.13438833226163,
neutral,negative,2,k,k,,,,,,,,,10,1,181,16,,,,,,,,,,,,,,,,,,,,,,,,main,2,2,2,negative,neutral,k,k,1,0.7961557999951765,549.8027156000026,550.8203416999895,550.7825060999021,None,549.8027156000026,None,549.8027156000026,None,549.8027156000026,None,551.5821083199698,None,551.5821083199698,None,551.5821083199698,None,,,,,,,,,,,122,21,Female,2022-05-09_15h51.13.789,Boat,2022.1.1,60.13438833226163,
positive,negative,2,l,j,,,,,,,,,10,2,182,14,,,,,,,,,,,,,,,,,,,,,,,,main,2,2,2,negative,positive,l,l,1,0.8074143000412732,551.6026501999004,552.6206696999725,552.582212899928,None,551.6026501999004,None,551.6026501999004,None,551.6026501999004,None,553.3902739199111,None,553.3902739199111,None,553.3902739199111,None,,,,,,,,,,,122,21,Female,2022-05-09_15h51.13.789,Boat,2022.1.1,60.13438833226163,
negative,neutral,2,j,l,,,,,,,,,10,3,183,12,,,,,,,,,,,,,,,,,,,,,,,,main,1,1,2,neutral,negative,j,l,0,0.8993707000045106,553.4094893999863,554.4192502999213,554.3990840999177,None,553.4094893999863,None,553.4094893999863,None,553.4094893999863,None,555.2975858999416,None,555.2975858999416,None,555.2975858999416,None,,,,,,,,,,,122,21,Female,2022-05-09_15h51.13.789,Boat,2022.1.1,60.13438833226163,
positive,negative,1,l,j,,,,,,,,,10,4,184,5,,,,,,,,,,,,,,,,,,,,,,,,main,1,1,1,negative,positive,l,l,1,1.0057550000492483,556.306574499933,557.320585599984,557.2991274999222,None,556.306574499933,None,556.306574499933,None,556.306574499933,None,558.2984264199622,None,558.2984264199622,None,558.2984264199622,None,,,,,,,,,,,122,21,Female,2022-05-09_15h51.13.789,Boat,2022.1.1,60.13438833226163,
neutral,positive,1,k,k,,,,,,,,,10,5,185,4,,,,,,,,,,,,,,,,,,,,,,,,main,1,1,1,positive,neutral,k,k,1,0.5789272000547498,558.3198977999855,559.3373585999943,559.3022006999236,None,558.3198977999855,None,558.3198977999855,None,558.3198977999855,None,559.8808144199429,None,559.8808144199429,None,559.8808144199429,None,,,,,,,,,,,122,21,Female,2022-05-09_15h51.13.789,Boat,2022.1.1,60.13438833226163,
positive,neutral,1,l,j,,,,,,,,,10,6,186,8,,,,,,,,,,,,,,,,,,,,,,,,main,2,2,1,neutral,positive,l,l,1,0.9117050999775529,559.90294239996,560.9041433999082,560.886663799989,None,559.90294239996,None,559.90294239996,None,559.90294239996,None,561.7929152199067,None,561.7929152199067,None,561.7929152199067,None,,,,,,,,,,,122,21,Female,2022-05-09_15h51.13.789,Boat,2022.1.1,60.13438833226163,
positive,positive,1,l,j,,,,,,,,,10,7,187,2,,,,,,,,,,,,,,,,,,,,,,,,main,2,2,1,positive,positive,l,l,1,0.9701487000565976,561.815782199963,562.8197075999342,562.79932859994,None,561.815782199963,None,561.815782199963,None,561.815782199963,None,563.7670077199582,None,563.7670077199582,None,563.7670077199582,None,,,,,,,,,,,122,21,Female,2022-05-09_15h51.13.789,Boat,2022.1.1,60.13438833226163,
neutral,positive,2,k,k,,,,,,,,,10,8,188,13,,,,,,,,,,,,,,,,,,,,,,,,main,2,2,2,positive,neutral,k,k,1,0.7845492999767885,563.7861358999508,564.790637099999,564.7725004999666,None,563.7861358999508,None,563.7861358999508,None,563.7861358999508,None,565.5542506199563,None,565.5542506199563,None,565.5542506199563,None,,,,,,,,,,,122,21,Female,2022-05-09_15h51.13.789,Boat,2022.1.1,60.13438833226163,
neutral,negative,1,k,k,,,,,,,,,10,9,189,7,,,,,,,,,,,,,,,,,,,,,,,,main,1,1,1,negative,neutral,k,k,1,0.6459512000437826,565.5748523999937,566.5818884999026,566.5614961999236,None,565.5748523999937,None,565.5748523999937,None,565.5748523999937,None,567.2042013199534,None,567.2042013199534,None,567.2042013199534,None,,,,,,,,,,,122,21,Female,2022-05-09_15h51.13.789,Boat,2022.1.1,60.13438833226163,
neutral,neutral,2,k,k,,,,,,,,,10,10,190,10,,,,,,,,,,,,,,,,,,,,,,,,main,2,2,2,neutral,neutral,k,k,1,0.5838741000043228,567.222909300006,568.2268106999109,568.2067498000106,None,567.222909300006,None,567.222909300006,None,567.222909300006,None,568.791036719922,None,568.791036719922,None,568.791036719922,None,,,,,,,,,,,122,21,Female,2022-05-09_15h51.13.789,Boat,2022.1.1,60.13438833226163,
negative,positive,1,j,l,,,,,,,,,10,11,191,6,,,,,,,,,,,,,,,,,,,,,,,,main,1,1,1,positive,negative,j,j,1,0.776034599984996,568.8097310999874,569.8115025999723,569.7930775999557,None,568.8097310999874,None,568.8097310999874,None,568.8097310999874,None,570.5701182199409,None,570.5701182199409,None,570.5701182199409,None,,,,,,,,,,,122,21,Female,2022-05-09_15h51.13.789,Boat,2022.1.1,60.13438833226163,
positive,neutral,2,l,j,,,,,,,,,10,12,192,17,,,,,,,,,,,,,,,,,,,,,,,,main,1,1,2,neutral,positive,l,l,1,1.2806608999380842,570.5894972999813,571.6051707000006,571.5695824999129,None,570.5894972999813,None,570.5894972999813,None,570.5894972999813,None,572.8539752200013,None,572.8539752200013,None,572.8539752200013,None,,,,,,,,,,,122,21,Female,2022-05-09_15h51.13.789,Boat,2022.1.1,60.13438833226163,
negative,positive,2,j,l,,,,,,,,,10,13,193,15,,,,,,,,,,,,,,,,,,,,,,,,main,1,1,2,positive,negative,j,j,1,0.8318205999676138,572.8738798999693,573.889266599901,573.8540508999722,None,572.8738798999693,None,572.8738798999693,None,572.8738798999693,None,574.685577719938,None,574.685577719938,None,574.685577719938,None,,,,,,,,,,,122,21,Female,2022-05-09_15h51.13.789,Boat,2022.1.1,60.13438833226163,
negative,neutral,1,j,l,,,,,,,,,10,14,194,3,,,,,,,,,,,,,,,,,,,,,,,,main,2,2,1,neutral,negative,j,j,1,0.8561151999747381,574.7171498999232,575.7204878999619,575.6999485999113,None,574.7171498999232,None,574.7171498999232,None,574.7171498999232,None,576.5505359199597,None,576.5505359199597,None,576.5505359199597,None,,,,,,,,,,,122,21,Female,2022-05-09_15h51.13.789,Boat,2022.1.1,60.13438833226163,
negative,negative,2,j,l,,,,,,,,,10,15,195,9,,,,,,,,,,,,,,,,,,,,,,,,main,1,1,2,negative,negative,j,j,1,1.3326362000079826,576.5695092999376,577.574147199979,577.5557253999868,None,576.5695092999376,None,576.5695092999376,None,576.5695092999376,None,578.8863398199901,None,578.8863398199901,None,578.8863398199901,None,,,,,,,,,,,122,21,Female,2022-05-09_15h51.13.789,Boat,2022.1.1,60.13438833226163,
positive,positive,2,l,j,,,,,,,,,10,16,196,11,,,,,,,,,,,,,,,,,,,,,,,,main,2,2,2,positive,positive,l,l,1,0.8490425000200048,578.9073251999216,579.9243522000033,579.8878564999904,None,578.9073251999216,None,578.9073251999216,None,578.9073251999216,None,580.7375815199921,None,580.7375815199921,None,580.7375815199921,None,,,,,,,,,,,122,21,Female,2022-05-09_15h51.13.789,Boat,2022.1.1,60.13438833226163,
neutral,neutral,1,k,k,,,,,,,,,10,17,197,1,,,,,,,,,,,,,,,,,,,,,,,,main,2,2,1,neutral,neutral,k,k,1,0.6302389999618754,580.7583837999264,581.7714807000011,581.7493481999263,None,580.7583837999264,None,580.7583837999264,None,580.7583837999264,None,582.3713024199242,None,582.3713024199242,None,582.3713024199242,None,,,,,,,,,,,122,21,Female,2022-05-09_15h51.13.789,Boat,2022.1.1,60.13438833226163,
neutral,neutral,2,k,k,,,,,,,,,11,0,198,10,,,,,,,,,,,,,,,,,,,,,,,,main,1,1,2,neutral,neutral,k,k,1,0.708921100012958,582.3922641999088,583.4039943999378,583.3830535999732,None,582.3922641999088,None,582.3922641999088,None,582.3922641999088,None,584.0849661199609,None,584.0849661199609,None,584.0849661199609,None,,,,,,,,,,,122,21,Female,2022-05-09_15h51.13.789,Boat,2022.1.1,60.13438833226163,
positive,negative,2,l,j,,,,,,,,,11,1,199,14,,,,,,,,,,,,,,,,,,,,,,,,main,1,1,2,negative,positive,l,l,1,0.9132447000592947,584.1041969999205,585.1190643999726,585.099410399911,None,584.1041969999205,None,584.1041969999205,None,584.1041969999205,None,586.0008423199179,None,586.0008423199179,None,586.0008423199179,None,,,,,,,,,,,122,21,Female,2022-05-09_15h51.13.789,Boat,2022.1.1,60.13438833226163,
positive,positive,1,l,j,,,,,,,,,11,2,200,2,,,,,,,,,,,,,,,,,,,,,,,,main,2,2,1,positive,positive,l,l,1,1.0238358000060543,586.0207037999062,587.0222461000085,587.0048581999727,None,586.0207037999062,None,586.0207037999062,None,586.0207037999062,None,588.0281820199452,None,588.0281820199452,None,588.0281820199452,None,,,,,,,,,,,122,21,Female,2022-05-09_15h51.13.789,Boat,2022.1.1,60.13438833226163,
neutral,positive,2,k,k,,,,,,,,,11,3,201,13,,,,,,,,,,,,,,,,,,,,,,,,main,2,2,2,positive,neutral,k,k,1,1.431507800007239,588.0535451999167,589.0651582999853,589.0263842999702,None,588.0535451999167,None,588.0535451999167,None,588.0535451999167,None,590.4640087200096,None,590.4640087200096,None,590.4640087200096,None,,,,,,,,,,,122,21,Female,2022-05-09_15h51.13.789,Boat,2022.1.1,60.13438833226163,
negative,positive,2,j,l,,,,,,,,,11,4,202,15,,,,,,,,,,,,,,,,,,,,,,,,main,2,2,2,positive,negative,j,j,1,0.7729515999089926,590.4836110000033,591.4882996999659,591.471499599982,None,590.4836110000033,None,590.4836110000033,None,590.4836110000033,None,592.2384389200015,None,592.2384389200015,None,592.2384389200015,None,,,,,,,,,,,122,21,Female,2022-05-09_15h51.13.789,Boat,2022.1.1,60.13438833226163,
neutral,negative,1,k,k,,,,,,,,,11,5,203,7,,,,,,,,,,,,,,,,,,,,,,,,main,2,2,1,negative,neutral,k,k,1,0.6525894000660628,592.2590227999026,593.270869,593.2502880999818,None,592.2590227999026,None,592.2590227999026,None,592.2590227999026,None,593.8951128199697,None,593.8951128199697,None,593.8951128199697,None,,,,,,,,,,,122,21,Female,2022-05-09_15h51.13.789,Boat,2022.1.1,60.13438833226163,
positive,neutral,2,l,j,,,,,,,,,11,6,204,17,,,,,,,,,,,,,,,,,,,,,,,,main,1,1,2,neutral,positive,l,l,1,1.130055099958554,593.913805799908,594.9182158999611,594.8963880999945,None,593.913805799908,None,593.913805799908,None,593.913805799908,None,596.0265970199835,None,596.0265970199835,None,596.0265970199835,None,,,,,,,,,,,122,21,Female,2022-05-09_15h51.13.789,Boat,2022.1.1,60.13438833226163,
positive,negative,1,l,j,,,,,,,,,11,7,205,5,,,,,,,,,,,,,,,,,,,,,,,,main,1,1,1,negative,positive,l,l,1,0.8622450999682769,596.0480240999022,597.06559439993,597.0263628999237,None,596.0480240999022,None,596.0480240999022,None,596.0480240999022,None,597.8913365199696,None,597.8913365199696,None,597.8913365199696,None,,,,,,,,,,,122,21,Female,2022-05-09_15h51.13.789,Boat,2022.1.1,60.13438833226163,
negative,neutral,2,j,l,,,,,,,,,11,8,206,12,,,,,,,,,,,,,,,,,,,,,,,,main,1,1,2,neutral,negative,j,j,1,0.9460602999897674,597.9094583999831,598.9336861999473,598.8832363999682,None,597.9094583999831,None,597.9094583999831,None,597.9094583999831,None,599.84007241996,None,599.84007241996,None,599.84007241996,None,,,,,,,,,,,122,21,Female,2022-05-09_15h51.13.789,Boat,2022.1.1,60.13438833226163,
negative,positive,1,j,l,,,,,,,,,11,9,207,6,,,,,,,,,,,,,,,,,,,,,,,,main,2,2,1,positive,negative,j,j,1,0.9731900000479072,599.8604457000038,600.8741001000162,600.8545286000008,None,599.8604457000038,None,599.8604457000038,None,599.8604457000038,None,601.8170566199115,None,601.8170566199115,None,601.8170566199115,None,,,,,,,,,,,122,21,Female,2022-05-09_15h51.13.789,Boat,2022.1.1,60.13438833226163,
neutral,positive,1,k,k,,,,,,,,,11,10,208,4,,,,,,,,,,,,,,,,,,,,,,,,main,1,1,1,positive,neutral,k,k,1,1.2868001000024378,601.8371717999689,602.8547006999142,602.8333368999884,None,601.8371717999689,None,601.8371717999689,None,601.8371717999689,None,604.1054286200088,None,604.1054286200088,None,604.1054286200088,None,,,,,,,,,,,122,21,Female,2022-05-09_15h51.13.789,Boat,2022.1.1,60.13438833226163,
