target,distractor,set,ans1,ans2,rep_loop2.thisRepN,rep_loop2.thisTrialN,rep_loop2.thisN,rep_loop2.thisIndex,flanker_prac_loop.thisRepN,flanker_prac_loop.thisTrialN,flanker_prac_loop.thisN,flanker_prac_loop.thisIndex,flanker_main_loop.thisRepN,flanker_main_loop.thisTrialN,flanker_main_loop.thisN,flanker_main_loop.thisIndex,fl_inst_resp.keys,mouse.x,mouse.y,mouse.leftButton,mouse.midButton,mouse.rightButton,mouse.started,mouse.stopped,sound_1.started,sound_1.stopped,no_text.started,no_text.stopped,yes_text.started,yes_text.stopped,mouse_2.x,mouse_2.y,mouse_2.leftButton,mouse_2.midButton,mouse_2.rightButton,mouse_2.started,mouse_2.stopped,back_2.started,back_2.stopped,main_prac,fl_cold,fl_colt,fl_set,fl_dcond,fl_tcond,fl_ans,fl_res,fl_corr,fl_rt,fix_fl.started,fix_fl.stopped,targ.started,targ.stopped,j_button.started,j_button.stopped,k_button.started,k_button.stopped,l_button.started,l_button.stopped,j_button2.started,j_button2.stopped,k_button2.started,k_button2.stopped,l_button2.started,l_button2.stopped,mainback.started,mainback.stopped,key_resp.keys,mouse_6.x,mouse_6.y,mouse_6.leftButton,mouse_6.midButton,mouse_6.rightButton,mouse_6.started,mouse_6.stopped,id*,age*,gender*,date,expName,psychopyVersion,frameRate,
,,,,,0,0,0,0,,,,,,,,,None,-0.02962963,-0.42222223,0,0,0,1.0264073015423492,None,34.01206205008784,None,84.09761860000435,None,84.09761860000435,None,-0.11574074,-0.087037034,0,0,0,0.01315015007276088,None,,,,,,,,,,,,,,,,,,,,,,,,,,,,,,,,,,,,,,,123,19,Female,2022-05-09_20h15.39.694,Boat,2022.1.1,60.11324133252905,
positive,positive,2,l,j,,,,,0,0,0,11,,,,,,,,,,,,,,,,,,,,,,,,,,91.01568670000415,None,prac,1,1,2,positive,positive,j,j,1,2.279962099972181,93.04012370004784,94.05331530002877,94.0174590999959,None,93.04012370004784,None,93.04012370004784,None,93.04012370004784,None,96.32126830006018,None,96.32126830006018,None,96.32126830006018,None,,,,,,,,,,,123,19,Female,2022-05-09_20h15.39.694,Boat,2022.1.1,60.11324133252905,
positive,positive,1,l,j,,,,,0,1,1,2,,,,,,,,,,,,,,,,,,,,,,,,,,,,prac,1,1,1,positive,positive,j,l,0,1.109578299918212,97.33863530005328,98.35510680009611,98.31919150007889,None,97.33863530005328,None,97.33863530005328,None,97.33863530005328,None,99.44170060008764,None,99.44170060008764,None,99.44170060008764,None,,,,,,,,,,,123,19,Female,2022-05-09_20h15.39.694,Boat,2022.1.1,60.11324133252905,
negative,negative,1,j,l,,,,,0,2,2,0,,,,,,,,,,,,,,,,,,,,,,,,,,,,prac,2,2,1,negative,negative,l,l,1,0.9613473999779671,100.45431110006757,101.46887260000221,101.43364600010682,None,100.45431110006757,None,100.45431110006757,None,100.45431110006757,None,102.3992414500448,None,102.3992414500448,None,102.3992414500448,None,,,,,,,,,,,123,19,Female,2022-05-09_20h15.39.694,Boat,2022.1.1,60.11324133252905,
neutral,positive,1,k,k,,,,,0,3,3,4,,,,,,,,,,,,,,,,,,,,,,,,,,,,prac,1,1,1,positive,neutral,k,k,1,0.8940329999895766,102.42069020005874,103.43544930010103,103.39634890004527,None,102.42069020005874,None,102.42069020005874,None,102.42069020005874,None,104.2992010501097,None,104.2992010501097,None,104.2992010501097,None,,,,,,,,,,,123,19,Female,2022-05-09_20h15.39.694,Boat,2022.1.1,60.11324133252905,
positive,neutral,1,l,j,,,,,0,4,4,8,,,,,,,,,,,,,,,,,,,,,,,,,,,,prac,2,2,1,neutral,positive,j,j,1,0.6579119999660179,104.32003960001748,105.33531720004976,105.30208400008269,None,104.32003960001748,None,104.32003960001748,None,104.32003960001748,None,105.96063645001269,None,105.96063645001269,None,105.96063645001269,None,,,,,,,,,,,123,19,Female,2022-05-09_20h15.39.694,Boat,2022.1.1,60.11324133252905,
neutral,neutral,2,k,k,,,,,0,5,5,10,,,,,,,,,,,,,,,,,,,,,,,,,,,,prac,2,2,2,neutral,neutral,k,k,1,0.8208438999718055,105.98032740002964,106.99128020007629,106.95551440003328,None,105.98032740002964,None,105.98032740002964,None,105.98032740002964,None,107.7834259500145,None,107.7834259500145,None,107.7834259500145,None,,,,,,,,,,,123,19,Female,2022-05-09_20h15.39.694,Boat,2022.1.1,60.11324133252905,
negative,positive,2,j,l,,,,,0,6,6,15,,,,,,,,,,,,,,,,,,,,,,,,,,,,prac,2,2,2,positive,negative,l,l,1,0.7737775999121368,107.80349210009445,108.80638120009098,108.7882460000692,None,107.80349210009445,None,107.80349210009445,None,107.80349210009445,None,109.56064175002976,None,109.56064175002976,None,109.56064175002976,None,,,,,,,,,,,123,19,Female,2022-05-09_20h15.39.694,Boat,2022.1.1,60.11324133252905,
negative,negative,2,j,l,,,,,0,7,7,9,,,,,,,,,,,,,,,,,,,,,,,,,,,,prac,1,1,2,negative,negative,l,l,1,0.7312299000332132,109.5808331000153,110.59699640003964,110.55643300001975,None,109.5808331000153,None,109.5808331000153,None,109.5808331000153,None,111.29483235002263,None,111.29483235002263,None,111.29483235002263,None,,,,,,,,,,,123,19,Female,2022-05-09_20h15.39.694,Boat,2022.1.1,60.11324133252905,
neutral,positive,2,k,k,,,,,0,8,8,13,,,,,,,,,,,,,,,,,,,,,,,,,,,,prac,1,1,2,positive,neutral,k,k,1,0.6638289999682456,111.31466680008452,112.3353766000364,112.29693599999882,None,111.31466680008452,None,111.31466680008452,None,111.31466680008452,None,112.9611026500701,None,112.9611026500701,None,112.9611026500701,None,,,,,,,,,,,123,19,Female,2022-05-09_20h15.39.694,Boat,2022.1.1,60.11324133252905,
positive,negative,2,l,j,,,,,0,9,9,14,,,,,,,,,,,,,,,,,,,,,,,,,,,,prac,2,2,2,negative,positive,j,j,1,0.6952230999013409,112.9807570000412,113.99383660010062,113.96927220001817,None,112.9807570000412,None,112.9807570000412,None,112.9807570000412,None,114.65791325006867,None,114.65791325006867,None,114.65791325006867,None,,,,,,,,,,,123,19,Female,2022-05-09_20h15.39.694,Boat,2022.1.1,60.11324133252905,
positive,negative,1,l,j,,,,,0,10,10,5,,,,,,,,,,,,,,,,,,,,,,,,,,,,prac,1,1,1,negative,positive,j,j,1,1.5432997000170872,114.67576070001815,115.69699930003844,115.65749340003822,None,114.67576070001815,None,114.67576070001815,None,114.67576070001815,None,117.21007210004609,None,117.21007210004609,None,117.21007210004609,None,,,,,,,,,,,123,19,Female,2022-05-09_20h15.39.694,Boat,2022.1.1,60.11324133252905,
positive,neutral,2,l,j,,,,,0,11,11,17,,,,,,,,,,,,,,,,,,,,,,,,,,,,prac,1,1,2,neutral,positive,j,j,1,2.1278514999430627,118.22190690005664,119.23804980004206,119.2023077000631,None,118.22190690005664,None,118.22190690005664,None,118.22190690005664,None,121.33700520009734,None,121.33700520009734,None,121.33700520009734,None,,,,,,,,,,,123,19,Female,2022-05-09_20h15.39.694,Boat,2022.1.1,60.11324133252905,
neutral,negative,2,k,k,,,,,0,12,12,16,,,,,,,,,,,,,,,,,,,,,,,,,,,,prac,1,1,2,negative,neutral,k,k,1,2.3897126000374556,122.35515519999899,123.36923360009678,123.35078189999331,None,122.35515519999899,None,122.35515519999899,None,122.35515519999899,None,125.73608060006518,None,125.73608060006518,None,125.73608060006518,None,,,,,,,,,,,123,19,Female,2022-05-09_20h15.39.694,Boat,2022.1.1,60.11324133252905,
negative,positive,1,j,l,,,,,0,13,13,6,,,,,,,,,,,,,,,,,,,,,,,,,,,,prac,1,1,1,positive,negative,l,l,1,0.7359289000742137,126.75508510007057,127.76882610004395,127.73334320005961,None,126.75508510007057,None,126.75508510007057,None,126.75508510007057,None,128.47391915010522,None,128.47391915010522,None,128.47391915010522,None,,,,,,,,,,,123,19,Female,2022-05-09_20h15.39.694,Boat,2022.1.1,60.11324133252905,
negative,neutral,1,j,l,,,,,0,14,14,3,,,,,,,,,,,,,,,,,,,,,,,,,,,,prac,1,1,1,neutral,negative,l,l,1,0.6494520000414923,128.49461370008066,129.50303170003463,129.48606130003463,None,128.49461370008066,None,128.49461370008066,None,128.49461370008066,None,130.12815765003907,None,130.12815765003907,None,130.12815765003907,None,,,,,,,,,,,123,19,Female,2022-05-09_20h15.39.694,Boat,2022.1.1,60.11324133252905,
neutral,neutral,1,k,k,,,,,0,15,15,1,,,,,,,,,,,,,,,,,,,,,,,,,,,,prac,1,1,1,neutral,neutral,k,k,1,0.595676299999468,130.15110410004854,131.1529655000195,131.13502040004823,None,130.15110410004854,None,130.15110410004854,None,130.15110410004854,None,131.72875055010664,None,131.72875055010664,None,131.72875055010664,None,,,,,,,,,,,123,19,Female,2022-05-09_20h15.39.694,Boat,2022.1.1,60.11324133252905,
neutral,negative,1,k,k,,,,,0,16,16,7,,,,,,,,,,,,,,,,,,,,,,,,,,,,prac,1,1,1,negative,neutral,k,k,1,0.6241435999982059,131.74892610008828,132.76478950004093,132.72497310000472,None,131.74892610008828,None,131.74892610008828,None,131.74892610008828,None,133.35364615001018,None,133.35364615001018,None,133.35364615001018,None,,,,,,,,,,,123,19,Female,2022-05-09_20h15.39.694,Boat,2022.1.1,60.11324133252905,
negative,neutral,2,j,l,,,,,0,17,17,12,,,,,,,,,,,,,,,,,,,,,,,,,,,,prac,1,1,2,neutral,negative,l,l,1,0.6664842000463977,133.37121940008365,134.3888626000844,134.3531431000447,None,133.37121940008365,None,133.37121940008365,None,133.37121940008365,None,135.02031535006827,None,135.02031535006827,None,135.02031535006827,None,,,,,,,,,,,123,19,Female,2022-05-09_20h15.39.694,Boat,2022.1.1,60.11324133252905,
neutral,positive,1,k,k,,,,,1,0,18,4,,,,,,,,,,,,,,,,,,,,,,,,,,,,prac,1,1,1,positive,neutral,k,k,1,0.6725209000287578,135.0422063000733,136.05278400005773,136.03498650004622,None,135.0422063000733,None,135.0422063000733,None,135.0422063000733,None,136.69873365006643,None,136.69873365006643,None,136.69873365006643,None,,,,,,,,,,,123,19,Female,2022-05-09_20h15.39.694,Boat,2022.1.1,60.11324133252905,
positive,negative,2,l,j,,,,,1,1,19,14,,,,,,,,,,,,,,,,,,,,,,,,,,,,prac,2,2,2,negative,positive,j,j,1,1.3974224999547005,136.71868620009627,137.73629200004507,137.6975676000584,None,136.71868620009627,None,136.71868620009627,None,136.71868620009627,None,139.09898405001732,None,139.09898405001732,None,139.09898405001732,None,,,,,,,,,,,123,19,Female,2022-05-09_20h15.39.694,Boat,2022.1.1,60.11324133252905,
positive,neutral,2,l,j,,,,,1,2,20,17,,,,,,,,,,,,,,,,,,,,,,,,,,,,prac,1,1,2,neutral,positive,j,j,1,0.6913788999663666,139.11892170005012,140.12363770010415,140.0864387000911,None,139.11892170005012,None,139.11892170005012,None,139.11892170005012,None,140.79076555002248,None,140.79076555002248,None,140.79076555002248,None,,,,,,,,,,,123,19,Female,2022-05-09_20h15.39.694,Boat,2022.1.1,60.11324133252905,
neutral,neutral,2,k,k,,,,,1,3,21,10,,,,,,,,,,,,,,,,,,,,,,,,,,,,prac,2,2,2,neutral,neutral,k,k,1,0.6364593000616878,140.81263930001296,141.8190616000211,141.80161040008534,None,140.81263930001296,None,140.81263930001296,None,140.81263930001296,None,142.43102435002803,None,142.43102435002803,None,142.43102435002803,None,,,,,,,,,,,123,19,Female,2022-05-09_20h15.39.694,Boat,2022.1.1,60.11324133252905,
positive,positive,2,l,j,,,,,1,4,22,11,,,,,,,,,,,,,,,,,,,,,,,,,,,,prac,2,2,2,positive,positive,j,j,1,0.7545610000379384,142.45194850000553,143.45314610004425,143.4358457000926,None,142.45194850000553,None,142.45194850000553,None,142.45194850000553,None,144.18680965007516,None,144.18680965007516,None,144.18680965007516,None,,,,,,,,,,,123,19,Female,2022-05-09_20h15.39.694,Boat,2022.1.1,60.11324133252905,
neutral,negative,2,k,k,,,,,1,5,23,16,,,,,,,,,,,,,,,,,,,,,,,,,,,,prac,2,2,2,negative,neutral,k,k,1,0.6376474000280723,144.2057022000663,145.22582160006277,145.18530960008502,None,144.2057022000663,None,144.2057022000663,None,144.2057022000663,None,145.82797385010636,None,145.82797385010636,None,145.82797385010636,None,,,,,,,,,,,123,19,Female,2022-05-09_20h15.39.694,Boat,2022.1.1,60.11324133252905,
negative,neutral,1,j,l,,,,,1,6,24,3,,,,,,,,,,,,,,,,,,,,,,,,,,,,prac,2,2,1,neutral,negative,l,l,1,0.6011275000637397,145.8469836000586,146.85091220005415,146.8312556000892,None,145.8469836000586,None,145.8469836000586,None,145.8469836000586,None,147.43149665001548,None,147.43149665001548,None,147.43149665001548,None,,,,,,,,,,,123,19,Female,2022-05-09_20h15.39.694,Boat,2022.1.1,60.11324133252905,
negative,negative,1,j,l,,,,,1,7,25,0,,,,,,,,,,,,,,,,,,,,,,,,,,,,prac,2,2,1,negative,negative,l,l,1,0.6467955000698566,147.45186200004537,148.46972420008387,148.43387050007004,None,147.45186200004537,None,147.45186200004537,None,147.45186200004537,None,149.08159834999825,None,149.08159834999825,None,149.08159834999825,None,,,,,,,,,,,123,19,Female,2022-05-09_20h15.39.694,Boat,2022.1.1,60.11324133252905,
positive,negative,1,l,j,,,,,1,8,26,5,,,,,,,,,,,,,,,,,,,,,,,,,,,,prac,1,1,1,negative,positive,j,j,1,0.6329087000340223,149.09935900010169,150.10465620004106,150.08635580004193,None,149.09935900010169,None,149.09935900010169,None,149.09935900010169,None,150.71609705003212,None,150.71609705003212,None,150.71609705003212,None,,,,,,,,,,,123,19,Female,2022-05-09_20h15.39.694,Boat,2022.1.1,60.11324133252905,
positive,positive,1,l,j,,,,,1,9,27,2,,,,,,,,,,,,,,,,,,,,,,,,,,,,prac,2,2,1,positive,positive,j,j,1,0.7007991999853402,150.73567760002334,151.75432680000085,151.71518930001184,None,150.73567760002334,None,150.73567760002334,None,150.73567760002334,None,152.41960185001372,None,152.41960185001372,None,152.41960185001372,None,,,,,,,,,,,123,19,Female,2022-05-09_20h15.39.694,Boat,2022.1.1,60.11324133252905,
neutral,neutral,1,k,k,,,,,1,10,28,1,,,,,,,,,,,,,,,,,,,,,,,,,,,,prac,2,2,1,neutral,neutral,k,k,1,0.5588081000605598,152.43762100010645,153.453202100005,153.4329596000025,None,152.43762100010645,None,152.43762100010645,None,152.43762100010645,None,153.98205075009028,None,153.98205075009028,None,153.98205075009028,None,,,,,,,,,,,123,19,Female,2022-05-09_20h15.39.694,Boat,2022.1.1,60.11324133252905,
neutral,positive,2,k,k,,,,,1,11,29,13,,,,,,,,,,,,,,,,,,,,,,,,,,,,prac,1,1,2,positive,neutral,k,k,1,0.5187373999506235,154.00197530002333,155.00847190001514,154.9898003000999,None,154.00197530002333,None,154.00197530002333,None,154.00197530002333,None,155.5034952500486,None,155.5034952500486,None,155.5034952500486,None,,,,,,,,,,,123,19,Female,2022-05-09_20h15.39.694,Boat,2022.1.1,60.11324133252905,
negative,negative,2,j,l,,,,,1,12,30,9,,,,,,,,,,,,,,,,,,,,,,,,,,,,prac,2,2,2,negative,negative,l,l,1,1.6777002000017092,155.5217206000816,156.53230050008278,156.49221310007852,None,155.5217206000816,None,155.5217206000816,None,155.5217206000816,None,158.1914875000948,None,158.1914875000948,None,158.1914875000948,None,,,,,,,,,,,123,19,Female,2022-05-09_20h15.39.694,Boat,2022.1.1,60.11324133252905,
neutral,negative,1,k,k,,,,,1,13,31,7,,,,,,,,,,,,,,,,,,,,,,,,,,,,prac,2,2,1,negative,neutral,k,k,1,0.8440639999462292,159.20546690002084,160.20962640002836,160.19273630005773,None,159.20546690002084,None,159.20546690002084,None,159.20546690002084,None,161.0354882500018,None,161.0354882500018,None,161.0354882500018,None,,,,,,,,,,,123,19,Female,2022-05-09_20h15.39.694,Boat,2022.1.1,60.11324133252905,
negative,positive,1,j,l,,,,,1,14,32,6,,,,,,,,,,,,,,,,,,,,,,,,,,,,prac,2,2,1,positive,negative,l,l,1,1.0362904999637976,161.0540032000281,162.06886460003443,162.04827870009467,None,161.0540032000281,None,161.0540032000281,None,161.0540032000281,None,163.07023995000637,None,163.07023995000637,None,163.07023995000637,None,,,,,,,,,,,123,19,Female,2022-05-09_20h15.39.694,Boat,2022.1.1,60.11324133252905,
negative,positive,2,j,l,,,,,1,15,33,15,,,,,,,,,,,,,,,,,,,,,,,,,,,,prac,2,2,2,positive,negative,l,l,1,0.658654100028798,163.0991279000882,164.10376550001092,164.07003810000606,None,163.0991279000882,None,163.0991279000882,None,163.0991279000882,None,164.7362930500298,None,164.7362930500298,None,164.7362930500298,None,,,,,,,,,,,123,19,Female,2022-05-09_20h15.39.694,Boat,2022.1.1,60.11324133252905,
positive,neutral,1,l,j,,,,,1,16,34,8,,,,,,,,,,,,,,,,,,,,,,,,,,,,prac,1,1,1,neutral,positive,j,j,1,0.7703693999210373,164.75464090006426,165.773754700087,165.7366249000188,None,164.75464090006426,None,164.75464090006426,None,164.75464090006426,None,166.51068905011053,None,166.51068905011053,None,166.51068905011053,None,,,,,,,,,,,123,19,Female,2022-05-09_20h15.39.694,Boat,2022.1.1,60.11324133252905,
negative,neutral,2,j,l,,,,,1,17,35,12,,,,,,,,,,,,,,,,,,,,,,,,,,,,prac,2,2,2,neutral,negative,l,l,1,0.7520225000334904,166.52798340003937,167.53836700005922,167.5034147000406,None,166.52798340003937,None,166.52798340003937,None,166.52798340003937,None,168.26443095008145,None,168.26443095008145,None,168.26443095008145,None,,,,,,,,,,,123,19,Female,2022-05-09_20h15.39.694,Boat,2022.1.1,60.11324133252905,
,,,,,,,,,,,,,,,,,,,,,,,,,,,,,,,,,,,,,,,,,,,,,,,,,,,,,,,,,,,,,,,,,,168.27938790002372,None,None,,,,,,,,123,19,Female,2022-05-09_20h15.39.694,Boat,2022.1.1,60.11324133252905,
,,,,,,,,,,,,,,,,,,,,,,,,,,,,,,,,,,,,,,,,,,,,,,,,,,,,,,,,,,,,,,,,,,,,,0.06759259,-0.26296297,1,0,0,0.0067611499689519405,None,123,19,Female,2022-05-09_20h15.39.694,Boat,2022.1.1,60.11324133252905,
negative,negative,2,j,l,,,,,,,,,0,0,0,9,,,,,,,,,,,,,,,,,,,,,,190.51555030001327,None,main,2,2,2,negative,negative,l,l,1,0.7928796999622136,192.53875710000284,193.53818660008255,193.52116450003814,None,192.53875710000284,None,192.53875710000284,None,192.53875710000284,None,194.30818855009275,None,194.30818855009275,None,194.30818855009275,None,,,,,,,,,,,123,19,Female,2022-05-09_20h15.39.694,Boat,2022.1.1,60.11324133252905,
positive,positive,2,l,j,,,,,,,,,0,1,1,11,,,,,,,,,,,,,,,,,,,,,,,,main,1,1,2,positive,positive,j,j,1,0.8787856000708416,194.33248330000788,195.34040370001458,195.30385640007444,None,194.33248330000788,None,194.33248330000788,None,194.33248330000788,None,196.19211725009373,None,196.19211725009373,None,196.19211725009373,None,,,,,,,,,,,123,19,Female,2022-05-09_20h15.39.694,Boat,2022.1.1,60.11324133252905,
neutral,neutral,2,k,k,,,,,,,,,0,2,2,10,,,,,,,,,,,,,,,,,,,,,,,,main,2,2,2,neutral,neutral,k,k,1,1.2471560999983922,196.2106139000971,197.21586330002174,197.19489150005393,None,196.2106139000971,None,196.2106139000971,None,196.2106139000971,None,198.44148355004145,None,198.44148355004145,None,198.44148355004145,None,,,,,,,,,,,123,19,Female,2022-05-09_20h15.39.694,Boat,2022.1.1,60.11324133252905,
negative,neutral,2,j,l,,,,,,,,,0,3,3,12,,,,,,,,,,,,,,,,,,,,,,,,main,1,1,2,neutral,negative,l,l,1,0.6349453000584617,198.46405629999936,199.47081890003756,199.45327880000696,None,198.46405629999936,None,198.46405629999936,None,198.46405629999936,None,200.08103975005216,None,200.08103975005216,None,200.08103975005216,None,,,,,,,,,,,123,19,Female,2022-05-09_20h15.39.694,Boat,2022.1.1,60.11324133252905,
neutral,neutral,1,k,k,,,,,,,,,0,4,4,1,,,,,,,,,,,,,,,,,,,,,,,,main,2,2,1,neutral,neutral,k,k,1,0.6382497999584302,200.1032484000316,201.12073510000482,201.0827756000217,None,200.1032484000316,None,200.1032484000316,None,200.1032484000316,None,201.72077054999536,None,201.72077054999536,None,201.72077054999536,None,,,,,,,,,,,123,19,Female,2022-05-09_20h15.39.694,Boat,2022.1.1,60.11324133252905,
neutral,negative,1,k,k,,,,,,,,,0,5,5,7,,,,,,,,,,,,,,,,,,,,,,,,main,2,2,1,negative,neutral,k,k,1,0.5880122999660671,201.7425324000651,202.7491524000652,202.72892480005976,None,201.7425324000651,None,201.7425324000651,None,201.7425324000651,None,203.31371255001287,None,203.31371255001287,None,203.31371255001287,None,,,,,,,,,,,123,19,Female,2022-05-09_20h15.39.694,Boat,2022.1.1,60.11324133252905,
negative,negative,1,j,l,,,,,,,,,0,6,6,0,,,,,,,,,,,,,,,,,,,,,,,,main,2,2,1,negative,negative,l,l,1,0.6889110999181867,203.333792700083,204.34019570006058,204.32224120001774,None,203.333792700083,None,203.333792700083,None,203.333792700083,None,205.00487775009825,None,205.00487775009825,None,205.00487775009825,None,,,,,,,,,,,123,19,Female,2022-05-09_20h15.39.694,Boat,2022.1.1,60.11324133252905,
positive,negative,1,l,j,,,,,,,,,0,7,7,5,,,,,,,,,,,,,,,,,,,,,,,,main,2,2,1,negative,positive,j,j,1,0.6081002000719309,205.0241203000769,206.03917720005848,206.00251140003093,None,205.0241203000769,None,205.0241203000769,None,205.0241203000769,None,206.61707985008834,None,206.61707985008834,None,206.61707985008834,None,,,,,,,,,,,123,19,Female,2022-05-09_20h15.39.694,Boat,2022.1.1,60.11324133252905,
negative,positive,2,j,l,,,,,,,,,0,8,8,15,,,,,,,,,,,,,,,,,,,,,,,,main,1,1,2,positive,negative,l,l,1,0.6107086999109015,206.63746970007196,207.65408690006007,207.61612560006324,None,206.63746970007196,None,206.63746970007196,None,206.63746970007196,None,208.2316988500883,None,208.2316988500883,None,208.2316988500883,None,,,,,,,,,,,123,19,Female,2022-05-09_20h15.39.694,Boat,2022.1.1,60.11324133252905,
positive,neutral,1,l,j,,,,,,,,,0,9,9,8,,,,,,,,,,,,,,,,,,,,,,,,main,1,1,1,neutral,positive,j,j,1,0.6757733999984339,208.25326450006105,209.25434780004434,209.2370896000648,None,208.25326450006105,None,208.25326450006105,None,208.25326450006105,None,209.9099113500328,None,209.9099113500328,None,209.9099113500328,None,,,,,,,,,,,123,19,Female,2022-05-09_20h15.39.694,Boat,2022.1.1,60.11324133252905,
positive,negative,2,l,j,,,,,,,,,0,10,10,14,,,,,,,,,,,,,,,,,,,,,,,,main,1,1,2,negative,positive,j,j,1,0.7421923000365496,209.93071400001645,210.93781040003523,210.90265740000177,None,209.93071400001645,None,209.93071400001645,None,209.93071400001645,None,211.6552216500626,None,211.6552216500626,None,211.6552216500626,None,,,,,,,,,,,123,19,Female,2022-05-09_20h15.39.694,Boat,2022.1.1,60.11324133252905,
neutral,positive,1,k,k,,,,,,,,,0,11,11,4,,,,,,,,,,,,,,,,,,,,,,,,main,1,1,1,positive,neutral,k,k,1,0.5355005000019446,211.67544060002547,212.68780270009302,212.65312520007137,None,211.67544060002547,None,211.67544060002547,None,211.67544060002547,None,213.19413595009829,None,213.19413595009829,None,213.19413595009829,None,,,,,,,,,,,123,19,Female,2022-05-09_20h15.39.694,Boat,2022.1.1,60.11324133252905,
negative,neutral,1,j,l,,,,,,,,,0,12,12,3,,,,,,,,,,,,,,,,,,,,,,,,main,2,2,1,neutral,negative,l,l,1,0.5039025000296533,213.21223390009254,214.22412110003643,214.18884010007605,None,213.21223390009254,None,213.21223390009254,None,213.21223390009254,None,214.7006785500911,None,214.7006785500911,None,214.7006785500911,None,,,,,,,,,,,123,19,Female,2022-05-09_20h15.39.694,Boat,2022.1.1,60.11324133252905,
neutral,negative,2,k,k,,,,,,,,,0,13,13,16,,,,,,,,,,,,,,,,,,,,,,,,main,2,2,2,negative,neutral,k,k,1,0.5176947999279946,214.72018190007657,215.73247710010037,215.69394220004324,None,214.72018190007657,None,214.72018190007657,None,214.72018190007657,None,216.22127355010016,None,216.22127355010016,None,216.22127355010016,None,,,,,,,,,,,123,19,Female,2022-05-09_20h15.39.694,Boat,2022.1.1,60.11324133252905,
positive,neutral,2,l,j,,,,,,,,,0,14,14,17,,,,,,,,,,,,,,,,,,,,,,,,main,2,2,2,neutral,positive,j,j,1,0.55051850003656,216.24225690006278,217.26060710009187,217.22330970002804,None,216.24225690006278,None,216.24225690006278,None,216.24225690006278,None,217.77438844999998,None,217.77438844999998,None,217.77438844999998,None,,,,,,,,,,,123,19,Female,2022-05-09_20h15.39.694,Boat,2022.1.1,60.11324133252905,
positive,positive,1,l,j,,,,,,,,,0,15,15,2,,,,,,,,,,,,,,,,,,,,,,,,main,2,2,1,positive,positive,j,j,1,0.8228863999247551,217.79325640003663,218.81109750003088,218.77344570006244,None,217.79325640003663,None,217.79325640003663,None,217.79325640003663,None,219.60185475010658,None,219.60185475010658,None,219.60185475010658,None,,,,,,,,,,,123,19,Female,2022-05-09_20h15.39.694,Boat,2022.1.1,60.11324133252905,
negative,positive,1,j,l,,,,,,,,,0,16,16,6,,,,,,,,,,,,,,,,,,,,,,,,main,2,2,1,positive,negative,l,l,1,0.5658712000586092,219.61986209999304,220.63748290005606,220.5947319000261,None,219.61986209999304,None,219.61986209999304,None,219.61986209999304,None,221.16950055005728,None,221.16950055005728,None,221.16950055005728,None,,,,,,,,,,,123,19,Female,2022-05-09_20h15.39.694,Boat,2022.1.1,60.11324133252905,
neutral,positive,2,k,k,,,,,,,,,0,17,17,13,,,,,,,,,,,,,,,,,,,,,,,,main,2,2,2,positive,neutral,k,k,1,0.5564397999551147,221.19010920007713,222.19219550001435,222.17323300009593,None,221.19010920007713,None,221.19010920007713,None,221.19010920007713,None,222.73013035001932,None,222.73013035001932,None,222.73013035001932,None,,,,,,,,,,,123,19,Female,2022-05-09_20h15.39.694,Boat,2022.1.1,60.11324133252905,
negative,negative,1,j,l,,,,,,,,,1,0,18,0,,,,,,,,,,,,,,,,,,,,,,,,main,1,1,1,negative,negative,l,l,1,0.6225139999296516,222.7522846000502,223.75508850009646,223.73815480002668,None,222.7522846000502,None,222.7522846000502,None,222.7522846000502,None,224.35471915003146,None,224.35471915003146,None,224.35471915003146,None,,,,,,,,,,,123,19,Female,2022-05-09_20h15.39.694,Boat,2022.1.1,60.11324133252905,
neutral,negative,2,k,k,,,,,,,,,1,1,19,16,,,,,,,,,,,,,,,,,,,,,,,,main,2,2,2,negative,neutral,k,k,1,0.5911063000094146,224.37275179999415,225.37673330004327,225.35784740000963,None,224.37275179999415,None,224.37275179999415,None,224.37275179999415,None,225.9502961500897,None,225.9502961500897,None,225.9502961500897,None,,,,,,,,,,,123,19,Female,2022-05-09_20h15.39.694,Boat,2022.1.1,60.11324133252905,
positive,negative,1,l,j,,,,,,,,,1,2,20,5,,,,,,,,,,,,,,,,,,,,,,,,main,2,2,1,negative,positive,j,j,1,1.0879604000365362,225.97018330008723,226.97393870004453,226.95477920002304,None,225.97018330008723,None,225.97018330008723,None,225.97018330008723,None,228.03904105004622,None,228.03904105004622,None,228.03904105004622,None,,,,,,,,,,,123,19,Female,2022-05-09_20h15.39.694,Boat,2022.1.1,60.11324133252905,
negative,neutral,1,j,l,,,,,,,,,1,3,21,3,,,,,,,,,,,,,,,,,,,,,,,,main,1,1,1,neutral,negative,l,j,0,-0.7194224999984726,228.05733550002333,None,None,None,228.05733550002333,None,228.05733550002333,None,228.05733550002333,None,228.33705490001012,None,228.33705490001012,None,228.33705490001012,None,,,,,,,,,,,123,19,Female,2022-05-09_20h15.39.694,Boat,2022.1.1,60.11324133252905,
negative,positive,1,j,l,,,,,,,,,1,4,22,6,,,,,,,,,,,,,,,,,,,,,,,,main,2,2,1,positive,negative,l,l,1,0.7892342999111861,231.35908429999836,232.3730050000595,232.35478540009353,None,231.35908429999836,None,231.35908429999836,None,231.35908429999836,None,233.1329300500569,None,233.1329300500569,None,233.1329300500569,None,,,,,,,,,,,123,19,Female,2022-05-09_20h15.39.694,Boat,2022.1.1,60.11324133252905,
neutral,neutral,2,k,k,,,,,,,,,1,5,23,10,,,,,,,,,,,,,,,,,,,,,,,,main,1,1,2,neutral,neutral,k,k,1,0.5903840999817476,233.15150020003784,234.15575730009004,234.13847660005558,None,233.15150020003784,None,233.15150020003784,None,233.15150020003784,None,234.72495994999773,None,234.72495994999773,None,234.72495994999773,None,,,,,,,,,,,123,19,Female,2022-05-09_20h15.39.694,Boat,2022.1.1,60.11324133252905,
neutral,negative,1,k,k,,,,,,,,,1,6,24,7,,,,,,,,,,,,,,,,,,,,,,,,main,2,2,1,negative,neutral,k,k,1,0.8198048999765888,234.74361610005144,235.75956060003955,235.72194250009488,None,234.74361610005144,None,234.74361610005144,None,234.74361610005144,None,236.54817815000425,None,236.54817815000425,None,236.54817815000425,None,,,,,,,,,,,123,19,Female,2022-05-09_20h15.39.694,Boat,2022.1.1,60.11324133252905,
positive,neutral,1,l,j,,,,,,,,,1,7,25,8,,,,,,,,,,,,,,,,,,,,,,,,main,1,1,1,neutral,positive,j,j,1,0.5958107999758795,236.56816780008376,237.57379000005312,237.55585900007281,None,236.56816780008376,None,236.56816780008376,None,236.56816780008376,None,238.14722705007298,None,238.14722705007298,None,238.14722705007298,None,,,,,,,,,,,123,19,Female,2022-05-09_20h15.39.694,Boat,2022.1.1,60.11324133252905,
negative,neutral,2,j,l,,,,,,,,,1,8,26,12,,,,,,,,,,,,,,,,,,,,,,,,main,2,2,2,neutral,negative,l,l,1,0.6897242999402806,238.16861460008658,239.17322830006015,239.15497640008107,None,238.16861460008658,None,238.16861460008658,None,238.16861460008658,None,239.83891615007306,None,239.83891615007306,None,239.83891615007306,None,,,,,,,,,,,123,19,Female,2022-05-09_20h15.39.694,Boat,2022.1.1,60.11324133252905,
positive,positive,2,l,j,,,,,,,,,1,9,27,11,,,,,,,,,,,,,,,,,,,,,,,,main,1,1,2,positive,positive,j,j,1,0.6425406000344083,239.85862559999805,240.8708436000161,240.8289333001012,None,239.85862559999805,None,239.85862559999805,None,239.85862559999805,None,241.48537545002765,None,241.48537545002765,None,241.48537545002765,None,,,,,,,,,,,123,19,Female,2022-05-09_20h15.39.694,Boat,2022.1.1,60.11324133252905,
positive,negative,2,l,j,,,,,,,,,1,10,28,14,,,,,,,,,,,,,,,,,,,,,,,,main,2,2,2,negative,positive,j,j,1,1.251914200023748,241.50447710009757,242.51088760001585,242.49276700010523,None,241.50447710009757,None,241.50447710009757,None,241.50447710009757,None,243.7384655500413,None,243.7384655500413,None,243.7384655500413,None,,,,,,,,,,,123,19,Female,2022-05-09_20h15.39.694,Boat,2022.1.1,60.11324133252905,
positive,neutral,2,l,j,,,,,,,,,1,11,29,17,,,,,,,,,,,,,,,,,,,,,,,,main,1,1,2,neutral,positive,j,j,1,0.7404880999820307,243.75931450002827,244.77321560005657,244.73296120006125,None,243.75931450002827,None,243.75931450002827,None,243.75931450002827,None,245.4825445500086,None,245.4825445500086,None,245.4825445500086,None,,,,,,,,,,,123,19,Female,2022-05-09_20h15.39.694,Boat,2022.1.1,60.11324133252905,
neutral,positive,2,k,k,,,,,,,,,1,12,30,13,,,,,,,,,,,,,,,,,,,,,,,,main,2,2,2,positive,neutral,k,k,1,0.6951963999308646,245.51042160007637,246.52932580001652,246.49253690009937,None,245.51042160007637,None,245.51042160007637,None,245.51042160007637,None,247.18209195000819,None,247.18209195000819,None,247.18209195000819,None,,,,,,,,,,,123,19,Female,2022-05-09_20h15.39.694,Boat,2022.1.1,60.11324133252905,
negative,positive,2,j,l,,,,,,,,,1,13,31,15,,,,,,,,,,,,,,,,,,,,,,,,main,2,2,2,positive,negative,l,l,1,0.7697052999865264,247.20228500000667,248.21333940001205,248.18655040010344,None,247.20228500000667,None,247.20228500000667,None,247.20228500000667,None,248.9553113500937,None,248.9553113500937,None,248.9553113500937,None,,,,,,,,,,,123,19,Female,2022-05-09_20h15.39.694,Boat,2022.1.1,60.11324133252905,
positive,positive,1,l,j,,,,,,,,,1,14,32,2,,,,,,,,,,,,,,,,,,,,,,,,main,2,2,1,positive,positive,j,j,1,0.6550809000618756,248.9744241000153,249.99462300003506,249.95597680006176,None,248.9744241000153,None,248.9744241000153,None,248.9744241000153,None,250.61477155009052,None,250.61477155009052,None,250.61477155009052,None,,,,,,,,,,,123,19,Female,2022-05-09_20h15.39.694,Boat,2022.1.1,60.11324133252905,
neutral,neutral,1,k,k,,,,,,,,,1,15,33,1,,,,,,,,,,,,,,,,,,,,,,,,main,2,2,1,neutral,neutral,k,k,1,0.5597653000149876,250.63708450004924,251.64255470002536,251.62402630003635,None,250.63708450004924,None,250.63708450004924,None,250.63708450004924,None,252.17556045009988,None,252.17556045009988,None,252.17556045009988,None,,,,,,,,,,,123,19,Female,2022-05-09_20h15.39.694,Boat,2022.1.1,60.11324133252905,
negative,negative,2,j,l,,,,,,,,,1,16,34,9,,,,,,,,,,,,,,,,,,,,,,,,main,2,2,2,negative,negative,l,l,1,0.6229844000190496,252.19517790002283,253.2063591000624,253.17204160010442,None,252.19517790002283,None,252.19517790002283,None,252.19517790002283,None,253.8031709500705,None,253.8031709500705,None,253.8031709500705,None,,,,,,,,,,,123,19,Female,2022-05-09_20h15.39.694,Boat,2022.1.1,60.11324133252905,
neutral,positive,1,k,k,,,,,,,,,1,17,35,4,,,,,,,,,,,,,,,,,,,,,,,,main,2,2,1,positive,neutral,k,k,1,0.7802138000261039,253.82289970002603,254.83916070009582,254.80377700005192,None,253.82289970002603,None,253.82289970002603,None,253.82289970002603,None,255.58650685000467,None,255.58650685000467,None,255.58650685000467,None,,,,,,,,,,,123,19,Female,2022-05-09_20h15.39.694,Boat,2022.1.1,60.11324133252905,
positive,neutral,2,l,j,,,,,,,,,2,0,36,17,,,,,,,,,,,,,,,,,,,,,,,,main,1,1,2,neutral,positive,j,j,1,0.5757390999933705,255.60615690005943,256.6219804000575,256.58379520010203,None,255.60615690005943,None,255.60615690005943,None,255.60615690005943,None,257.1669638500665,None,257.1669638500665,None,257.1669638500665,None,,,,,,,,,,,123,19,Female,2022-05-09_20h15.39.694,Boat,2022.1.1,60.11324133252905,
negative,positive,2,j,l,,,,,,,,,2,1,37,15,,,,,,,,,,,,,,,,,,,,,,,,main,1,1,2,positive,negative,l,l,1,0.7412831999827176,257.1834150000941,258.2060452000005,258.1618504000362,None,257.1834150000941,None,257.1834150000941,None,257.1834150000941,None,258.90885115010894,None,258.90885115010894,None,258.90885115010894,None,,,,,,,,,,,123,19,Female,2022-05-09_20h15.39.694,Boat,2022.1.1,60.11324133252905,
positive,negative,2,l,j,,,,,,,,,2,2,38,14,,,,,,,,,,,,,,,,,,,,,,,,main,1,1,2,negative,positive,j,j,1,0.6378851999761537,258.92671180004254,259.9405586000066,259.90580609999597,None,258.92671180004254,None,258.92671180004254,None,258.92671180004254,None,260.5503792500007,None,260.5503792500007,None,260.5503792500007,None,,,,,,,,,,,123,19,Female,2022-05-09_20h15.39.694,Boat,2022.1.1,60.11324133252905,
neutral,neutral,2,k,k,,,,,,,,,2,3,39,10,,,,,,,,,,,,,,,,,,,,,,,,main,2,2,2,neutral,neutral,k,k,1,0.4879820999922231,260.5707226000959,261.5737848000135,261.5562288000947,None,260.5707226000959,None,260.5707226000959,None,260.5707226000959,None,262.04060315006643,None,262.04060315006643,None,262.04060315006643,None,,,,,,,,,,,123,19,Female,2022-05-09_20h15.39.694,Boat,2022.1.1,60.11324133252905,
positive,positive,2,l,j,,,,,,,,,2,4,40,11,,,,,,,,,,,,,,,,,,,,,,,,main,2,2,2,positive,positive,j,j,1,0.6632214999990538,262.05871160002425,263.0726454000687,263.0327245000517,None,262.05871160002425,None,262.05871160002425,None,262.05871160002425,None,263.70554835003566,None,263.70554835003566,None,263.70554835003566,None,,,,,,,,,,,123,19,Female,2022-05-09_20h15.39.694,Boat,2022.1.1,60.11324133252905,
negative,negative,1,j,l,,,,,,,,,2,5,41,0,,,,,,,,,,,,,,,,,,,,,,,,main,1,1,1,negative,negative,l,l,1,0.6403075000271201,263.726438300102,264.73970800009556,264.70570210006554,None,263.726438300102,None,263.726438300102,None,263.726438300102,None,265.3482308501028,None,265.3482308501028,None,265.3482308501028,None,,,,,,,,,,,123,19,Female,2022-05-09_20h15.39.694,Boat,2022.1.1,60.11324133252905,
neutral,negative,1,k,k,,,,,,,,,2,6,42,7,,,,,,,,,,,,,,,,,,,,,,,,main,1,1,1,negative,neutral,k,k,1,0.5819045000243932,265.36961630010046,266.38911340001505,266.35001980001107,None,265.36961630010046,None,265.36961630010046,None,265.36961630010046,None,266.9350491500576,None,266.9350491500576,None,266.9350491500576,None,,,,,,,,,,,123,19,Female,2022-05-09_20h15.39.694,Boat,2022.1.1,60.11324133252905,
negative,neutral,1,j,l,,,,,,,,,2,7,43,3,,,,,,,,,,,,,,,,,,,,,,,,main,1,1,1,neutral,negative,l,l,1,0.7757771000033244,266.9548091000179,267.967006699997,267.92831020010635,None,266.9548091000179,None,266.9548091000179,None,266.9548091000179,None,268.71434715009525,None,268.71434715009525,None,268.71434715009525,None,,,,,,,,,,,123,19,Female,2022-05-09_20h15.39.694,Boat,2022.1.1,60.11324133252905,
negative,negative,2,j,l,,,,,,,,,2,8,44,9,,,,,,,,,,,,,,,,,,,,,,,,main,1,1,2,negative,negative,l,l,1,0.7838352000107989,268.735092200106,269.7561988000525,269.71715120004956,None,268.735092200106,None,268.735092200106,None,268.735092200106,None,270.50139775002606,None,270.50139775002606,None,270.50139775002606,None,,,,,,,,,,,123,19,Female,2022-05-09_20h15.39.694,Boat,2022.1.1,60.11324133252905,
negative,positive,1,j,l,,,,,,,,,2,9,45,6,,,,,,,,,,,,,,,,,,,,,,,,main,2,2,1,positive,negative,l,l,1,0.64001970004756,270.5214080000296,271.53824690007605,271.51779490010813,None,270.5214080000296,None,270.5214080000296,None,270.5214080000296,None,272.1424220500397,None,272.1424220500397,None,272.1424220500397,None,,,,,,,,,,,123,19,Female,2022-05-09_20h15.39.694,Boat,2022.1.1,60.11324133252905,
neutral,neutral,1,k,k,,,,,,,,,2,10,46,1,,,,,,,,,,,,,,,,,,,,,,,,main,2,2,1,neutral,neutral,k,k,1,0.6485293000005186,272.162388500059,273.16251060005743,273.14576530002523,None,272.162388500059,None,272.162388500059,None,272.162388500059,None,273.7929361500195,None,273.7929361500195,None,273.7929361500195,None,,,,,,,,,,,123,19,Female,2022-05-09_20h15.39.694,Boat,2022.1.1,60.11324133252905,
neutral,negative,2,k,k,,,,,,,,,2,11,47,16,,,,,,,,,,,,,,,,,,,,,,,,main,1,1,2,negative,neutral,k,k,1,0.6787592000328004,273.8140907000052,274.82322120002937,274.78895170008764,None,273.8140907000052,None,273.8140907000052,None,273.8140907000052,None,275.47481395005013,None,275.47481395005013,None,275.47481395005013,None,,,,,,,,,,,123,19,Female,2022-05-09_20h15.39.694,Boat,2022.1.1,60.11324133252905,
negative,neutral,2,j,l,,,,,,,,,2,12,48,12,,,,,,,,,,,,,,,,,,,,,,,,main,2,2,2,neutral,negative,l,l,1,0.6492227000417188,275.4956861000974,276.49672130006365,276.47851939999964,None,275.4956861000974,None,275.4956861000974,None,275.4956861000974,None,277.12779025003545,None,277.12779025003545,None,277.12779025003545,None,,,,,,,,,,,123,19,Female,2022-05-09_20h15.39.694,Boat,2022.1.1,60.11324133252905,
neutral,positive,1,k,k,,,,,,,,,2,13,49,4,,,,,,,,,,,,,,,,,,,,,,,,main,2,2,1,positive,neutral,k,k,1,0.6443846999900416,277.1471843000036,278.16178530000616,278.1260132000316,None,277.1471843000036,None,277.1471843000036,None,277.1471843000036,None,278.7748217500397,None,278.7748217500397,None,278.7748217500397,None,,,,,,,,,,,123,19,Female,2022-05-09_20h15.39.694,Boat,2022.1.1,60.11324133252905,
neutral,positive,2,k,k,,,,,,,,,2,14,50,13,,,,,,,,,,,,,,,,,,,,,,,,main,2,2,2,positive,neutral,k,k,1,0.6296535000437871,278.79401569999754,279.8058526000241,279.7727015001001,None,278.79401569999754,None,278.79401569999754,None,278.79401569999754,None,280.40722555007085,None,280.40722555007085,None,280.40722555007085,None,,,,,,,,,,,123,19,Female,2022-05-09_20h15.39.694,Boat,2022.1.1,60.11324133252905,
positive,positive,1,l,j,,,,,,,,,2,15,51,2,,,,,,,,,,,,,,,,,,,,,,,,main,1,1,1,positive,positive,j,j,1,0.6897710999473929,280.4257045000559,281.4401356000453,281.40367040003184,None,280.4257045000559,None,280.4257045000559,None,280.4257045000559,None,282.1011894500465,None,282.1011894500465,None,282.1011894500465,None,,,,,,,,,,,123,19,Female,2022-05-09_20h15.39.694,Boat,2022.1.1,60.11324133252905,
positive,neutral,1,l,j,,,,,,,,,2,16,52,8,,,,,,,,,,,,,,,,,,,,,,,,main,2,2,1,neutral,positive,j,j,1,1.2163297000806779,282.12155979999807,283.1297802000772,283.1111106000608,None,282.12155979999807,None,282.12155979999807,None,282.12155979999807,None,284.31972535004604,None,284.31972535004604,None,284.31972535004604,None,,,,,,,,,,,123,19,Female,2022-05-09_20h15.39.694,Boat,2022.1.1,60.11324133252905,
positive,negative,1,l,j,,,,,,,,,2,17,53,5,,,,,,,,,,,,,,,,,,,,,,,,main,2,2,1,negative,positive,j,j,1,0.6442964000161737,284.3399343000492,285.3507205999922,285.3126623000717,None,284.3399343000492,None,284.3399343000492,None,284.3399343000492,None,285.9664845500723,None,285.9664845500723,None,285.9664845500723,None,,,,,,,,,,,123,19,Female,2022-05-09_20h15.39.694,Boat,2022.1.1,60.11324133252905,
neutral,positive,1,k,k,,,,,,,,,3,0,54,4,,,,,,,,,,,,,,,,,,,,,,,,main,1,1,1,positive,neutral,k,k,1,0.5806447000941262,285.9881547000259,286.9895889000036,286.9712786000455,None,285.9881547000259,None,285.9881547000259,None,285.9881547000259,None,287.5512619500863,None,287.5512619500863,None,287.5512619500863,None,,,,,,,,,,,123,19,Female,2022-05-09_20h15.39.694,Boat,2022.1.1,60.11324133252905,
negative,neutral,2,j,l,,,,,,,,,3,1,55,12,,,,,,,,,,,,,,,,,,,,,,,,main,2,2,2,neutral,negative,l,l,1,0.6028316000010818,287.57023300009314,288.58383810007945,288.54430730000604,None,287.57023300009314,None,287.57023300009314,None,287.57023300009314,None,289.156141650083,None,289.156141650083,None,289.156141650083,None,,,,,,,,,,,123,19,Female,2022-05-09_20h15.39.694,Boat,2022.1.1,60.11324133252905,
positive,neutral,1,l,j,,,,,,,,,3,2,56,8,,,,,,,,,,,,,,,,,,,,,,,,main,1,1,1,neutral,positive,j,j,1,0.6988226999528706,289.1753441001056,290.19331810006406,290.1563476000447,None,289.1753441001056,None,289.1753441001056,None,289.1753441001056,None,290.85740445010595,None,290.85740445010595,None,290.85740445010595,None,,,,,,,,,,,123,19,Female,2022-05-09_20h15.39.694,Boat,2022.1.1,60.11324133252905,
negative,positive,1,j,l,,,,,,,,,3,3,57,6,,,,,,,,,,,,,,,,,,,,,,,,main,2,2,1,positive,negative,l,l,1,0.7180605999892578,290.87741050007753,291.8964443000732,291.8596652999986,None,290.87741050007753,None,290.87741050007753,None,290.87741050007753,None,292.5772486500558,None,292.5772486500558,None,292.5772486500558,None,,,,,,,,,,,123,19,Female,2022-05-09_20h15.39.694,Boat,2022.1.1,60.11324133252905,
positive,positive,2,l,j,,,,,,,,,3,4,58,11,,,,,,,,,,,,,,,,,,,,,,,,main,1,1,2,positive,positive,j,j,1,0.7012723999796435,292.5977095999988,293.6096721000504,293.5730757000856,None,292.5977095999988,None,292.5977095999988,None,292.5977095999988,None,294.2841622500331,None,294.2841622500331,None,294.2841622500331,None,,,,,,,,,,,123,19,Female,2022-05-09_20h15.39.694,Boat,2022.1.1,60.11324133252905,
neutral,neutral,2,k,k,,,,,,,,,3,5,59,10,,,,,,,,,,,,,,,,,,,,,,,,main,2,2,2,neutral,neutral,k,k,1,0.5946189000969753,294.30528560001403,295.30644310009666,295.2876810000744,None,294.30528560001403,None,294.30528560001403,None,294.30528560001403,None,295.88157625010933,None,295.88157625010933,None,295.88157625010933,None,,,,,,,,,,,123,19,Female,2022-05-09_20h15.39.694,Boat,2022.1.1,60.11324133252905,
positive,neutral,2,l,j,,,,,,,,,3,6,60,17,,,,,,,,,,,,,,,,,,,,,,,,main,2,2,2,neutral,positive,j,j,1,0.5810800000326708,295.90036800003145,296.9092756001046,296.8730347000528,None,295.90036800003145,None,295.90036800003145,None,295.90036800003145,None,297.465654850041,None,297.465654850041,None,297.465654850041,None,,,,,,,,,,,123,19,Female,2022-05-09_20h15.39.694,Boat,2022.1.1,60.11324133252905,
neutral,negative,1,k,k,,,,,,,,,3,7,61,7,,,,,,,,,,,,,,,,,,,,,,,,main,2,2,1,negative,neutral,k,k,1,0.514756300020963,297.48335080000106,298.4952736000996,298.45814760006033,None,297.48335080000106,None,297.48335080000106,None,297.48335080000106,None,298.9826254500425,None,298.9826254500425,None,298.9826254500425,None,,,,,,,,,,,123,19,Female,2022-05-09_20h15.39.694,Boat,2022.1.1,60.11324133252905,
neutral,positive,2,k,k,,,,,,,,,3,8,62,13,,,,,,,,,,,,,,,,,,,,,,,,main,1,1,2,positive,neutral,k,k,1,0.6043282001046464,299.0008473000489,300.02217300003394,299.9809389000293,None,299.0008473000489,None,299.0008473000489,None,299.0008473000489,None,300.5887873500236,None,300.5887873500236,None,300.5887873500236,None,,,,,,,,,,,123,19,Female,2022-05-09_20h15.39.694,Boat,2022.1.1,60.11324133252905,
negative,negative,2,j,l,,,,,,,,,3,9,63,9,,,,,,,,,,,,,,,,,,,,,,,,main,2,2,2,negative,negative,l,l,1,0.6488195999991149,300.6099831000902,301.6276400000788,301.5898507999955,None,300.6099831000902,None,300.6099831000902,None,300.6099831000902,None,302.2419036500272,None,302.2419036500272,None,302.2419036500272,None,,,,,,,,,,,123,19,Female,2022-05-09_20h15.39.694,Boat,2022.1.1,60.11324133252905,
negative,negative,1,j,l,,,,,,,,,3,10,64,0,,,,,,,,,,,,,,,,,,,,,,,,main,1,1,1,negative,negative,l,l,1,0.7001246999716386,302.26020720007364,303.2637873000931,303.245641500107,None,302.26020720007364,None,302.26020720007364,None,302.26020720007364,None,303.9444987500668,None,303.9444987500668,None,303.9444987500668,None,,,,,,,,,,,123,19,Female,2022-05-09_20h15.39.694,Boat,2022.1.1,60.11324133252905,
negative,neutral,1,j,l,,,,,,,,,3,11,65,3,,,,,,,,,,,,,,,,,,,,,,,,main,2,2,1,neutral,negative,l,l,1,0.6561510000610724,303.96354170003906,304.97311330004595,304.95574630005285,None,303.96354170003906,None,303.96354170003906,None,303.96354170003906,None,305.604051250068,None,305.604051250068,None,305.604051250068,None,,,,,,,,,,,123,19,Female,2022-05-09_20h15.39.694,Boat,2022.1.1,60.11324133252905,
positive,positive,1,l,j,,,,,,,,,3,12,66,2,,,,,,,,,,,,,,,,,,,,,,,,main,2,2,1,positive,positive,j,j,1,0.593316699960269,305.6252955000382,306.6298447001027,306.6113250000635,None,305.6252955000382,None,305.6252955000382,None,305.6252955000382,None,307.20208975001003,None,307.20208975001003,None,307.20208975001003,None,,,,,,,,,,,123,19,Female,2022-05-09_20h15.39.694,Boat,2022.1.1,60.11324133252905,
neutral,neutral,1,k,k,,,,,,,,,3,13,67,1,,,,,,,,,,,,,,,,,,,,,,,,main,2,2,1,neutral,neutral,k,k,1,0.8217996000312269,307.22203160007484,308.23540690005757,308.21483100007754,None,307.22203160007484,None,307.22203160007484,None,307.22203160007484,None,309.02471855006877,None,309.02471855006877,None,309.02471855006877,None,,,,,,,,,,,123,19,Female,2022-05-09_20h15.39.694,Boat,2022.1.1,60.11324133252905,
positive,negative,1,l,j,,,,,,,,,3,14,68,5,,,,,,,,,,,,,,,,,,,,,,,,main,2,2,1,negative,positive,j,k,0,0.5621460999827832,309.04563790000975,310.05566770001315,310.0350070000859,None,309.04563790000975,None,309.04563790000975,None,309.04563790000975,None,310.59667760005686,None,310.59667760005686,None,310.59667760005686,None,,,,,,,,,,,123,19,Female,2022-05-09_20h15.39.694,Boat,2022.1.1,60.11324133252905,
negative,positive,2,j,l,,,,,,,,,3,15,69,15,,,,,,,,,,,,,,,,,,,,,,,,main,2,2,2,positive,negative,l,l,1,0.770294199930504,311.61052230000496,312.6251713000238,312.58989770000335,None,311.61052230000496,None,311.61052230000496,None,311.61052230000496,None,313.36587205008834,None,313.36587205008834,None,313.36587205008834,None,,,,,,,,,,,123,19,Female,2022-05-09_20h15.39.694,Boat,2022.1.1,60.11324133252905,
positive,negative,2,l,j,,,,,,,,,3,16,70,14,,,,,,,,,,,,,,,,,,,,,,,,main,1,1,2,negative,positive,j,j,1,0.7337921999860555,313.3860433000373,314.39629200007766,314.35683629999403,None,313.3860433000373,None,313.3860433000373,None,313.3860433000373,None,315.1028807500028,None,315.1028807500028,None,315.1028807500028,None,,,,,,,,,,,123,19,Female,2022-05-09_20h15.39.694,Boat,2022.1.1,60.11324133252905,
neutral,negative,2,k,k,,,,,,,,,3,17,71,16,,,,,,,,,,,,,,,,,,,,,,,,main,2,2,2,negative,neutral,k,k,1,0.6964983000652865,315.12186000007205,316.1266233000206,316.1064424000215,None,315.12186000007205,None,315.12186000007205,None,315.12186000007205,None,316.8015408499981,None,316.8015408499981,None,316.8015408499981,None,,,,,,,,,,,123,19,Female,2022-05-09_20h15.39.694,Boat,2022.1.1,60.11324133252905,
neutral,neutral,1,k,k,,,,,,,,,4,0,72,1,,,,,,,,,,,,,,,,,,,,,,,,main,2,2,1,neutral,neutral,k,k,1,0.6678191999671981,316.8221820000326,317.839803900104,317.79754010005854,None,316.8221820000326,None,316.8221820000326,None,316.8221820000326,None,318.4722994499956,None,318.4722994499956,None,318.4722994499956,None,,,,,,,,,,,123,19,Female,2022-05-09_20h15.39.694,Boat,2022.1.1,60.11324133252905,
neutral,negative,2,k,k,,,,,,,,,4,1,73,16,,,,,,,,,,,,,,,,,,,,,,,,main,1,1,2,negative,neutral,k,k,1,0.7023990000598133,318.490101100062,319.4923202000791,319.4742723000236,None,318.490101100062,None,318.490101100062,None,318.490101100062,None,320.17658375009194,None,320.17658375009194,None,320.17658375009194,None,,,,,,,,,,,123,19,Female,2022-05-09_20h15.39.694,Boat,2022.1.1,60.11324133252905,
positive,negative,1,l,j,,,,,,,,,4,2,74,5,,,,,,,,,,,,,,,,,,,,,,,,main,2,2,1,negative,positive,j,j,1,0.6263056000461802,320.1961363001028,321.2111774000805,321.17473660001997,None,320.1961363001028,None,320.1961363001028,None,320.1961363001028,None,321.8064352500136,None,321.8064352500136,None,321.8064352500136,None,,,,,,,,,,,123,19,Female,2022-05-09_20h15.39.694,Boat,2022.1.1,60.11324133252905,
negative,neutral,1,j,l,,,,,,,,,4,3,75,3,,,,,,,,,,,,,,,,,,,,,,,,main,2,2,1,neutral,negative,l,l,1,1.1949211000464857,321.82518370007165,322.83466910000425,322.81389420002233,None,321.82518370007165,None,321.82518370007165,None,321.82518370007165,None,324.0029587500379,None,324.0029587500379,None,324.0029587500379,None,,,,,,,,,,,123,19,Female,2022-05-09_20h15.39.694,Boat,2022.1.1,60.11324133252905,
neutral,positive,2,k,k,,,,,,,,,4,4,76,13,,,,,,,,,,,,,,,,,,,,,,,,main,1,1,2,positive,neutral,k,k,1,0.6615639000665396,324.025481000077,325.0407999000745,325.00687010004185,None,324.025481000077,None,324.025481000077,None,324.025481000077,None,325.6690404500463,None,325.6690404500463,None,325.6690404500463,None,,,,,,,,,,,123,19,Female,2022-05-09_20h15.39.694,Boat,2022.1.1,60.11324133252905,
neutral,negative,1,k,k,,,,,,,,,4,5,77,7,,,,,,,,,,,,,,,,,,,,,,,,main,1,1,1,negative,neutral,k,k,1,0.6089571999618784,325.69045270001516,326.69188640010543,326.6737140000332,None,325.69045270001516,None,325.69045270001516,None,325.69045270001516,None,327.2835234500584,None,327.2835234500584,None,327.2835234500584,None,,,,,,,,,,,123,19,Female,2022-05-09_20h15.39.694,Boat,2022.1.1,60.11324133252905,
positive,negative,2,l,j,,,,,,,,,4,6,78,14,,,,,,,,,,,,,,,,,,,,,,,,main,2,2,2,negative,positive,j,j,1,0.7114541999762878,327.30541780008934,328.31554280000273,328.2879264000803,None,327.30541780008934,None,327.30541780008934,None,327.30541780008934,None,328.9960285500041,None,328.9960285500041,None,328.9960285500041,None,,,,,,,,,,,123,19,Female,2022-05-09_20h15.39.694,Boat,2022.1.1,60.11324133252905,
negative,negative,2,j,l,,,,,,,,,4,7,79,9,,,,,,,,,,,,,,,,,,,,,,,,main,1,1,2,negative,negative,l,l,1,0.6431308999890462,329.01935110008344,330.03199990000576,329.9905167000834,None,329.01935110008344,None,329.01935110008344,None,329.01935110008344,None,330.6415484500234,None,330.6415484500234,None,330.6415484500234,None,,,,,,,,,,,123,19,Female,2022-05-09_20h15.39.694,Boat,2022.1.1,60.11324133252905,
positive,positive,1,l,j,,,,,,,,,4,8,80,2,,,,,,,,,,,,,,,,,,,,,,,,main,2,2,1,positive,positive,j,j,1,0.6566297999816015,330.66249610006344,331.67214450007305,331.65192940004636,None,330.66249610006344,None,330.66249610006344,None,330.66249610006344,None,332.30307885006766,None,332.30307885006766,None,332.30307885006766,None,,,,,,,,,,,123,19,Female,2022-05-09_20h15.39.694,Boat,2022.1.1,60.11324133252905,
positive,neutral,2,l,j,,,,,,,,,4,9,81,17,,,,,,,,,,,,,,,,,,,,,,,,main,1,1,2,neutral,positive,j,j,1,0.6499019999755546,332.3221034000162,333.3279680000851,333.30842500005383,None,332.3221034000162,None,332.3221034000162,None,332.3221034000162,None,333.95517115007385,None,333.95517115007385,None,333.95517115007385,None,,,,,,,,,,,123,19,Female,2022-05-09_20h15.39.694,Boat,2022.1.1,60.11324133252905,
negative,positive,1,j,l,,,,,,,,,4,10,82,6,,,,,,,,,,,,,,,,,,,,,,,,main,2,2,1,positive,negative,l,l,1,0.6635640000458807,333.97562810010277,334.97933770006057,334.9607165000634,None,333.97562810010277,None,333.97562810010277,None,333.97562810010277,None,335.6226072500343,None,335.6226072500343,None,335.6226072500343,None,,,,,,,,,,,123,19,Female,2022-05-09_20h15.39.694,Boat,2022.1.1,60.11324133252905,
neutral,neutral,2,k,k,,,,,,,,,4,11,83,10,,,,,,,,,,,,,,,,,,,,,,,,main,2,2,2,neutral,neutral,k,k,1,0.6326755000045523,335.6412219000049,336.6554371000966,336.61338150000665,None,335.6412219000049,None,335.6412219000049,None,335.6412219000049,None,337.25669675009556,None,337.25669675009556,None,337.25669675009556,None,,,,,,,,,,,123,19,Female,2022-05-09_20h15.39.694,Boat,2022.1.1,60.11324133252905,
positive,positive,2,l,j,,,,,,,,,4,12,84,11,,,,,,,,,,,,,,,,,,,,,,,,main,1,1,2,positive,positive,j,j,1,0.6710623999824747,337.28455380001105,338.29081630008295,338.27402630005963,None,337.28455380001105,None,337.28455380001105,None,337.28455380001105,None,338.93427515010114,None,338.93427515010114,None,338.93427515010114,None,,,,,,,,,,,123,19,Female,2022-05-09_20h15.39.694,Boat,2022.1.1,60.11324133252905,
negative,neutral,2,j,l,,,,,,,,,4,13,85,12,,,,,,,,,,,,,,,,,,,,,,,,main,2,2,2,neutral,negative,l,l,1,1.3060576999559999,338.9572629000759,339.96107010007836,339.9426455000648,None,338.9572629000759,None,338.9572629000759,None,338.9572629000759,None,341.2413143500802,None,341.2413143500802,None,341.2413143500802,None,,,,,,,,,,,123,19,Female,2022-05-09_20h15.39.694,Boat,2022.1.1,60.11324133252905,
neutral,positive,1,k,k,,,,,,,,,4,14,86,4,,,,,,,,,,,,,,,,,,,,,,,,main,2,2,1,positive,neutral,k,k,1,0.7097104999702424,341.26252950006165,342.26477110001724,342.2454519000603,None,341.26252950006165,None,341.26252950006165,None,341.26252950006165,None,342.9559298500302,None,342.9559298500302,None,342.9559298500302,None,,,,,,,,,,,123,19,Female,2022-05-09_20h15.39.694,Boat,2022.1.1,60.11324133252905,
negative,negative,1,j,l,,,,,,,,,4,15,87,0,,,,,,,,,,,,,,,,,,,,,,,,main,2,2,1,negative,negative,l,l,1,0.7473119999049231,342.97703350009397,343.9798452000832,343.96069140010513,None,342.97703350009397,None,342.97703350009397,None,342.97703350009397,None,344.7060858500539,None,344.7060858500539,None,344.7060858500539,None,,,,,,,,,,,123,19,Female,2022-05-09_20h15.39.694,Boat,2022.1.1,60.11324133252905,
negative,positive,2,j,l,,,,,,,,,4,16,88,15,,,,,,,,,,,,,,,,,,,,,,,,main,1,1,2,positive,negative,l,l,1,0.8544288999401033,344.7262158000376,345.73959000001196,345.7190057000844,None,344.7262158000376,None,344.7262158000376,None,344.7262158000376,None,346.56584725008577,None,346.56584725008577,None,346.56584725008577,None,,,,,,,,,,,123,19,Female,2022-05-09_20h15.39.694,Boat,2022.1.1,60.11324133252905,
positive,neutral,1,l,j,,,,,,,,,4,17,89,8,,,,,,,,,,,,,,,,,,,,,,,,main,1,1,1,neutral,positive,j,j,1,0.7388671999797225,346.58782120002434,347.60889160004444,347.569125500042,None,346.58782120002434,None,346.58782120002434,None,346.58782120002434,None,348.30739665,None,348.30739665,None,348.30739665,None,,,,,,,,,,,123,19,Female,2022-05-09_20h15.39.694,Boat,2022.1.1,60.11324133252905,
neutral,neutral,1,k,k,,,,,,,,,5,0,90,1,,,,,,,,,,,,,,,,,,,,,,,,main,2,2,1,neutral,neutral,k,k,1,0.5196827000472695,348.3258655000245,349.3292742000194,349.31111980008427,None,348.3258655000245,None,348.3258655000245,None,348.3258655000245,None,349.83123815004944,None,349.83123815004944,None,349.83123815004944,None,,,,,,,,,,,123,19,Female,2022-05-09_20h15.39.694,Boat,2022.1.1,60.11324133252905,
neutral,negative,1,k,k,,,,,,,,,5,1,91,7,,,,,,,,,,,,,,,,,,,,,,,,main,2,2,1,negative,neutral,k,k,1,0.5864123000064865,349.85229050007183,350.85927270003594,350.82436319999397,None,349.85229050007183,None,349.85229050007183,None,349.85229050007183,None,351.4193669500877,None,351.4193669500877,None,351.4193669500877,None,,,,,,,,,,,123,19,Female,2022-05-09_20h15.39.694,Boat,2022.1.1,60.11324133252905,
negative,negative,1,j,l,,,,,,,,,5,2,92,0,,,,,,,,,,,,,,,,,,,,,,,,main,2,2,1,negative,negative,l,l,1,0.7324374000309035,351.4387610000558,352.4520814000862,352.4135481000412,None,351.4387610000558,None,351.4387610000558,None,351.4387610000558,None,353.15471285003,None,353.15471285003,None,353.15471285003,None,,,,,,,,,,,123,19,Female,2022-05-09_20h15.39.694,Boat,2022.1.1,60.11324133252905,
neutral,positive,2,k,k,,,,,,,,,5,3,93,13,,,,,,,,,,,,,,,,,,,,,,,,main,1,1,2,positive,neutral,k,k,1,0.6661781000439078,353.1741109000286,354.1907460000366,354.148200500058,None,353.1741109000286,None,353.1741109000286,None,353.1741109000286,None,354.8238536500488,None,354.8238536500488,None,354.8238536500488,None,,,,,,,,,,,123,19,Female,2022-05-09_20h15.39.694,Boat,2022.1.1,60.11324133252905,
negative,negative,2,j,l,,,,,,,,,5,4,94,9,,,,,,,,,,,,,,,,,,,,,,,,main,2,2,2,negative,negative,l,l,1,0.7785905000055209,354.84262730006594,355.86016760009807,355.82441790006123,None,354.84262730006594,None,354.84262730006594,None,354.84262730006594,None,356.60630925003204,None,356.60630925003204,None,356.60630925003204,None,,,,,,,,,,,123,19,Female,2022-05-09_20h15.39.694,Boat,2022.1.1,60.11324133252905,
positive,positive,2,l,j,,,,,,,,,5,5,95,11,,,,,,,,,,,,,,,,,,,,,,,,main,1,1,2,positive,positive,j,j,1,0.7003760000225157,356.6254231000785,357.6277004000731,357.60910680005327,None,356.6254231000785,None,356.6254231000785,None,356.6254231000785,None,358.30947695000793,None,358.30947695000793,None,358.30947695000793,None,,,,,,,,,,,123,19,Female,2022-05-09_20h15.39.694,Boat,2022.1.1,60.11324133252905,
negative,positive,2,j,l,,,,,,,,,5,6,96,15,,,,,,,,,,,,,,,,,,,,,,,,main,2,2,2,positive,negative,l,l,1,0.7002726999344304,358.328993900097,359.3471264000982,359.3108027999988,None,358.328993900097,None,358.328993900097,None,358.328993900097,None,360.01448755004674,None,360.01448755004674,None,360.01448755004674,None,,,,,,,,,,,123,19,Female,2022-05-09_20h15.39.694,Boat,2022.1.1,60.11324133252905,
positive,neutral,1,l,j,,,,,,,,,5,7,97,8,,,,,,,,,,,,,,,,,,,,,,,,main,2,2,1,neutral,positive,j,j,1,0.6072417000541463,360.0354590000352,361.0454290000489,361.0078761000186,None,360.0354590000352,None,360.0354590000352,None,360.0354590000352,None,361.62444725007515,None,361.62444725007515,None,361.62444725007515,None,,,,,,,,,,,123,19,Female,2022-05-09_20h15.39.694,Boat,2022.1.1,60.11324133252905,
positive,positive,1,l,j,,,,,,,,,5,8,98,2,,,,,,,,,,,,,,,,,,,,,,,,main,2,2,1,positive,positive,j,j,1,0.6274185000220314,361.64314930001274,362.6595524000004,362.62081630004104,None,361.64314930001274,None,361.64314930001274,None,361.64314930001274,None,363.25504355008013,None,363.25504355008013,None,363.25504355008013,None,,,,,,,,,,,123,19,Female,2022-05-09_20h15.39.694,Boat,2022.1.1,60.11324133252905,
positive,neutral,2,l,j,,,,,,,,,5,9,99,17,,,,,,,,,,,,,,,,,,,,,,,,main,1,1,2,neutral,positive,j,j,1,0.728554799919948,363.27471000002697,364.291287500062,364.2492114000488,None,363.27471000002697,None,363.27471000002697,None,363.27471000002697,None,364.9869482500129,None,364.9869482500129,None,364.9869482500129,None,,,,,,,,,,,123,19,Female,2022-05-09_20h15.39.694,Boat,2022.1.1,60.11324133252905,
negative,neutral,1,j,l,,,,,,,,,5,10,100,3,,,,,,,,,,,,,,,,,,,,,,,,main,1,1,1,neutral,negative,l,l,1,0.7119344000238925,365.00680910004303,366.01147260004655,365.9916010000743,None,365.00680910004303,None,365.00680910004303,None,365.00680910004303,None,366.70227575002934,None,366.70227575002934,None,366.70227575002934,None,,,,,,,,,,,123,19,Female,2022-05-09_20h15.39.694,Boat,2022.1.1,60.11324133252905,
negative,neutral,2,j,l,,,,,,,,,5,11,101,12,,,,,,,,,,,,,,,,,,,,,,,,main,2,2,2,neutral,negative,l,l,1,0.7792130999732763,366.7234633000335,367.7249165000394,367.7075606000144,None,366.7234633000335,None,366.7234633000335,None,366.7234633000335,None,368.4842387501034,None,368.4842387501034,None,368.4842387501034,None,,,,,,,,,,,123,19,Female,2022-05-09_20h15.39.694,Boat,2022.1.1,60.11324133252905,
positive,negative,2,l,j,,,,,,,,,5,12,102,14,,,,,,,,,,,,,,,,,,,,,,,,main,2,2,2,negative,positive,j,j,1,0.6323965999763459,368.5029128000606,369.510348000098,369.4745300000068,None,368.5029128000606,None,368.5029128000606,None,368.5029128000606,None,370.1194190500886,None,370.1194190500886,None,370.1194190500886,None,,,,,,,,,,,123,19,Female,2022-05-09_20h15.39.694,Boat,2022.1.1,60.11324133252905,
neutral,positive,1,k,k,,,,,,,,,5,13,103,4,,,,,,,,,,,,,,,,,,,,,,,,main,1,1,1,positive,neutral,k,k,1,0.6428002000320703,370.13787510001566,371.14126420009416,371.1221555999946,None,370.13787510001566,None,370.13787510001566,None,370.13787510001566,None,371.76511955008607,None,371.76511955008607,None,371.76511955008607,None,,,,,,,,,,,123,19,Female,2022-05-09_20h15.39.694,Boat,2022.1.1,60.11324133252905,
negative,positive,1,j,l,,,,,,,,,5,14,104,6,,,,,,,,,,,,,,,,,,,,,,,,main,2,2,1,positive,negative,l,l,1,0.6398087999550626,371.78503740008455,372.795950800064,372.758162900107,None,371.78503740008455,None,371.78503740008455,None,371.78503740008455,None,373.4066215500119,None,373.4066215500119,None,373.4066215500119,None,,,,,,,,,,,123,19,Female,2022-05-09_20h15.39.694,Boat,2022.1.1,60.11324133252905,
positive,negative,1,l,j,,,,,,,,,5,15,105,5,,,,,,,,,,,,,,,,,,,,,,,,main,2,2,1,negative,positive,j,j,1,0.5743564000586048,373.4253852000693,374.4255841000704,374.408124800073,None,373.4253852000693,None,373.4253852000693,None,373.4253852000693,None,374.9847553500789,None,374.9847553500789,None,374.9847553500789,None,,,,,,,,,,,123,19,Female,2022-05-09_20h15.39.694,Boat,2022.1.1,60.11324133252905,
neutral,negative,2,k,k,,,,,,,,,5,16,106,16,,,,,,,,,,,,,,,,,,,,,,,,main,1,1,2,negative,neutral,k,k,1,0.6674877000041306,375.0067223000806,376.01245939999353,375.9752015999984,None,375.0067223000806,None,375.0067223000806,None,375.0067223000806,None,376.654881150031,None,376.654881150031,None,376.654881150031,None,,,,,,,,,,,123,19,Female,2022-05-09_20h15.39.694,Boat,2022.1.1,60.11324133252905,
neutral,neutral,2,k,k,,,,,,,,,5,17,107,10,,,,,,,,,,,,,,,,,,,,,,,,main,1,1,2,neutral,neutral,k,k,1,0.5602872000308707,376.6748696001014,377.6902373000048,377.64873960008845,None,376.6748696001014,None,376.6748696001014,None,376.6748696001014,None,378.21747955008175,None,378.21747955008175,None,378.21747955008175,None,,,,,,,,,,,123,19,Female,2022-05-09_20h15.39.694,Boat,2022.1.1,60.11324133252905,
negative,negative,1,j,l,,,,,,,,,6,0,108,0,,,,,,,,,,,,,,,,,,,,,,,,main,2,2,1,negative,negative,l,l,1,0.6669907999457791,378.23853130009957,379.2426007000031,379.22472930001095,None,378.23853130009957,None,378.23853130009957,None,378.23853130009957,None,379.8888056500931,None,379.8888056500931,None,379.8888056500931,None,,,,,,,,,,,123,19,Female,2022-05-09_20h15.39.694,Boat,2022.1.1,60.11324133252905,
positive,neutral,2,l,j,,,,,,,,,6,1,109,17,,,,,,,,,,,,,,,,,,,,,,,,main,2,2,2,neutral,positive,j,j,1,1.1220068999100477,379.9091651000781,380.90940760006197,380.89198970003054,None,379.9091651000781,None,379.9091651000781,None,379.9091651000781,None,382.0152798500261,None,382.0152798500261,None,382.0152798500261,None,,,,,,,,,,,123,19,Female,2022-05-09_20h15.39.694,Boat,2022.1.1,60.11324133252905,
neutral,positive,2,k,k,,,,,,,,,6,2,110,13,,,,,,,,,,,,,,,,,,,,,,,,main,1,1,2,positive,neutral,k,k,1,0.6493988999864087,382.0390180000104,383.0457224000711,383.0090754000703,None,382.0390180000104,None,382.0390180000104,None,382.0390180000104,None,383.66832825009476,None,383.66832825009476,None,383.66832825009476,None,,,,,,,,,,,123,19,Female,2022-05-09_20h15.39.694,Boat,2022.1.1,60.11324133252905,
negative,neutral,2,j,l,,,,,,,,,6,3,111,12,,,,,,,,,,,,,,,,,,,,,,,,main,1,1,2,neutral,negative,l,l,1,0.6700808999594301,383.6899996000575,384.70811110001523,384.670213400037,None,383.6899996000575,None,383.6899996000575,None,383.6899996000575,None,385.34036755006525,None,385.34036755006525,None,385.34036755006525,None,,,,,,,,,,,123,19,Female,2022-05-09_20h15.39.694,Boat,2022.1.1,60.11324133252905,
neutral,neutral,1,k,k,,,,,,,,,6,4,112,1,,,,,,,,,,,,,,,,,,,,,,,,main,1,1,1,neutral,neutral,k,k,1,0.6777556999586523,385.3597255999921,386.3613863000646,386.34241200005636,None,385.3597255999921,None,385.3597255999921,None,385.3597255999921,None,387.02249505001816,None,387.02249505001816,None,387.02249505001816,None,,,,,,,,,,,123,19,Female,2022-05-09_20h15.39.694,Boat,2022.1.1,60.11324133252905,
neutral,neutral,2,k,k,,,,,,,,,6,5,113,10,,,,,,,,,,,,,,,,,,,,,,,,main,1,1,2,neutral,neutral,k,k,1,0.5903299000347033,387.04119510005694,388.0432842000155,388.0254885000177,None,387.04119510005694,None,387.04119510005694,None,387.04119510005694,None,388.6149919500225,None,388.6149919500225,None,388.6149919500225,None,,,,,,,,,,,123,19,Female,2022-05-09_20h15.39.694,Boat,2022.1.1,60.11324133252905,
neutral,positive,1,k,k,,,,,,,,,6,6,114,4,,,,,,,,,,,,,,,,,,,,,,,,main,1,1,1,positive,neutral,k,k,1,0.7526980999391526,388.63991310005076,389.64223550003953,389.6252597999992,None,388.63991310005076,None,388.63991310005076,None,388.63991310005076,None,390.3722751500667,None,390.3722751500667,None,390.3722751500667,None,,,,,,,,,,,123,19,Female,2022-05-09_20h15.39.694,Boat,2022.1.1,60.11324133252905,
neutral,negative,1,k,k,,,,,,,,,6,7,115,7,,,,,,,,,,,,,,,,,,,,,,,,main,2,2,1,negative,neutral,k,k,1,0.5794385999906808,390.3907267000759,391.39235040009953,391.35828620009124,None,390.3907267000759,None,390.3907267000759,None,390.3907267000759,None,391.9537045500823,None,391.9537045500823,None,391.9537045500823,None,,,,,,,,,,,123,19,Female,2022-05-09_20h15.39.694,Boat,2022.1.1,60.11324133252905,
positive,negative,1,l,j,,,,,,,,,6,8,116,5,,,,,,,,,,,,,,,,,,,,,,,,main,2,2,1,negative,positive,j,j,1,0.683562200050801,391.97538290009834,392.9867763000075,392.96664640004747,None,391.97538290009834,None,391.97538290009834,None,391.97538290009834,None,393.6406038500485,None,393.6406038500485,None,393.6406038500485,None,,,,,,,,,,,123,19,Female,2022-05-09_20h15.39.694,Boat,2022.1.1,60.11324133252905,
neutral,negative,2,k,k,,,,,,,,,6,9,117,16,,,,,,,,,,,,,,,,,,,,,,,,main,1,1,2,negative,neutral,k,k,1,0.6518793000141159,393.65958770003635,394.6861883000238,394.6394467999926,None,393.65958770003635,None,393.65958770003635,None,393.65958770003635,None,395.29508135005597,None,395.29508135005597,None,395.29508135005597,None,,,,,,,,,,,123,19,Female,2022-05-09_20h15.39.694,Boat,2022.1.1,60.11324133252905,
positive,negative,2,l,j,,,,,,,,,6,10,118,14,,,,,,,,,,,,,,,,,,,,,,,,main,1,1,2,negative,positive,j,j,1,0.6615348999621347,395.31330350006465,396.3298008000711,396.29345140000805,None,395.31330350006465,None,395.31330350006465,None,395.31330350006465,None,396.95911125004056,None,396.95911125004056,None,396.95911125004056,None,,,,,,,,,,,123,19,Female,2022-05-09_20h15.39.694,Boat,2022.1.1,60.11324133252905,
negative,positive,1,j,l,,,,,,,,,6,11,119,6,,,,,,,,,,,,,,,,,,,,,,,,main,1,1,1,positive,negative,l,l,1,1.25222769996617,396.97913079999853,397.9935220000334,397.95849089999683,None,396.97913079999853,None,396.97913079999853,None,396.97913079999853,None,399.2152688500122,None,399.2152688500122,None,399.2152688500122,None,,,,,,,,,,,123,19,Female,2022-05-09_20h15.39.694,Boat,2022.1.1,60.11324133252905,
positive,positive,1,l,j,,,,,,,,,6,12,120,2,,,,,,,,,,,,,,,,,,,,,,,,main,1,1,1,positive,positive,j,j,1,0.6972793999593705,399.23429680010304,400.24523020000197,400.20920240005944,None,399.23429680010304,None,399.23429680010304,None,399.23429680010304,None,400.91396895007927,None,400.91396895007927,None,400.91396895007927,None,,,,,,,,,,,123,19,Female,2022-05-09_20h15.39.694,Boat,2022.1.1,60.11324133252905,
positive,positive,2,l,j,,,,,,,,,6,13,121,11,,,,,,,,,,,,,,,,,,,,,,,,main,1,1,2,positive,positive,j,j,1,0.5158531999913976,400.93538770009764,401.9432556000538,401.90890370006673,None,400.93538770009764,None,400.93538770009764,None,400.93538770009764,None,402.4341267500189,None,402.4341267500189,None,402.4341267500189,None,,,,,,,,,,,123,19,Female,2022-05-09_20h15.39.694,Boat,2022.1.1,60.11324133252905,
negative,negative,2,j,l,,,,,,,,,6,14,122,9,,,,,,,,,,,,,,,,,,,,,,,,main,2,2,2,negative,negative,l,l,1,0.6559012999059632,402.4531859999988,403.4640570000047,403.42707810003776,None,402.4531859999988,None,402.4531859999988,None,402.4531859999988,None,404.0908183500054,None,404.0908183500054,None,404.0908183500054,None,,,,,,,,,,,123,19,Female,2022-05-09_20h15.39.694,Boat,2022.1.1,60.11324133252905,
negative,neutral,1,j,l,,,,,,,,,6,15,123,3,,,,,,,,,,,,,,,,,,,,,,,,main,1,1,1,neutral,negative,l,l,1,0.8259232999989763,404.1129752000561,405.12954490003176,405.09253390005324,None,404.1129752000561,None,404.1129752000561,None,404.1129752000561,None,405.9223823499982,None,405.9223823499982,None,405.9223823499982,None,,,,,,,,,,,123,19,Female,2022-05-09_20h15.39.694,Boat,2022.1.1,60.11324133252905,
negative,positive,2,j,l,,,,,,,,,6,16,124,15,,,,,,,,,,,,,,,,,,,,,,,,main,2,2,2,positive,negative,l,l,1,0.7957626000279561,405.942724200082,406.9484299001051,406.930145499995,None,405.942724200082,None,405.942724200082,None,405.942724200082,None,407.7217320500989,None,407.7217320500989,None,407.7217320500989,None,,,,,,,,,,,123,19,Female,2022-05-09_20h15.39.694,Boat,2022.1.1,60.11324133252905,
positive,neutral,1,l,j,,,,,,,,,6,17,125,8,,,,,,,,,,,,,,,,,,,,,,,,main,1,1,1,neutral,positive,j,j,1,0.6586177999852225,407.7408882000018,408.7700448000105,408.72301700001117,None,407.7408882000018,None,407.7408882000018,None,407.7408882000018,None,409.3815985500463,None,409.3815985500463,None,409.3815985500463,None,,,,,,,,,,,123,19,Female,2022-05-09_20h15.39.694,Boat,2022.1.1,60.11324133252905,
neutral,neutral,1,k,k,,,,,,,,,7,0,126,1,,,,,,,,,,,,,,,,,,,,,,,,main,1,1,1,neutral,neutral,k,k,1,0.6359329000115395,409.4042773999972,410.40848070010543,410.3903391000349,None,409.4042773999972,None,409.4042773999972,None,409.4042773999972,None,411.0214650500915,None,411.0214650500915,None,411.0214650500915,None,,,,,,,,,,,123,19,Female,2022-05-09_20h15.39.694,Boat,2022.1.1,60.11324133252905,
positive,negative,1,l,j,,,,,,,,,7,1,127,5,,,,,,,,,,,,,,,,,,,,,,,,main,1,1,1,negative,positive,j,j,1,0.6271064999746159,411.04194360005204,412.0422850000905,412.02475250000134,None,411.04194360005204,None,411.04194360005204,None,411.04194360005204,None,412.6511944500147,None,412.6511944500147,None,412.6511944500147,None,,,,,,,,,,,123,19,Female,2022-05-09_20h15.39.694,Boat,2022.1.1,60.11324133252905,
negative,positive,2,j,l,,,,,,,,,7,2,128,15,,,,,,,,,,,,,,,,,,,,,,,,main,2,2,2,positive,negative,l,l,1,0.7263878000667319,412.6718515000539,413.68135850003455,413.6445698000025,None,412.6718515000539,None,412.6718515000539,None,412.6718515000539,None,414.3798946501105,None,414.3798946501105,None,414.3798946501105,None,,,,,,,,,,,123,19,Female,2022-05-09_20h15.39.694,Boat,2022.1.1,60.11324133252905,
positive,neutral,2,l,j,,,,,,,,,7,3,129,17,,,,,,,,,,,,,,,,,,,,,,,,main,2,2,2,neutral,positive,j,j,1,0.857922299997881,414.39871140010655,415.40923119999934,415.39067720004823,None,414.39871140010655,None,414.39871140010655,None,414.39871140010655,None,416.24130285010904,None,416.24130285010904,None,416.24130285010904,None,,,,,,,,,,,123,19,Female,2022-05-09_20h15.39.694,Boat,2022.1.1,60.11324133252905,
positive,neutral,1,l,j,,,,,,,,,7,4,130,8,,,,,,,,,,,,,,,,,,,,,,,,main,1,1,1,neutral,positive,j,j,1,0.7438407000154257,416.26028530008625,417.27565359999426,417.25409709999803,None,416.26028530008625,None,416.26028530008625,None,416.26028530008625,None,417.99018925001144,None,417.99018925001144,None,417.99018925001144,None,,,,,,,,,,,123,19,Female,2022-05-09_20h15.39.694,Boat,2022.1.1,60.11324133252905,
positive,negative,2,l,j,,,,,,,,,7,5,131,14,,,,,,,,,,,,,,,,,,,,,,,,main,2,2,2,negative,positive,j,j,1,0.5669320999877527,418.00647040002514,419.0108484000666,418.99271490005776,None,418.00647040002514,None,418.00647040002514,None,418.00647040002514,None,419.5575912500848,None,419.5575912500848,None,419.5575912500848,None,,,,,,,,,,,123,19,Female,2022-05-09_20h15.39.694,Boat,2022.1.1,60.11324133252905,
negative,neutral,1,j,l,,,,,,,,,7,6,132,3,,,,,,,,,,,,,,,,,,,,,,,,main,1,1,1,neutral,negative,l,l,1,0.6257196000078693,419.5782120000804,420.59272920002695,420.559040900087,None,419.5782120000804,None,419.5782120000804,None,419.5782120000804,None,421.1879163500038,None,421.1879163500038,None,421.1879163500038,None,,,,,,,,,,,123,19,Female,2022-05-09_20h15.39.694,Boat,2022.1.1,60.11324133252905,
positive,positive,1,l,j,,,,,,,,,7,7,133,2,,,,,,,,,,,,,,,,,,,,,,,,main,2,2,1,positive,positive,j,j,1,0.608993100002408,421.21004400006495,422.2257252000272,422.18695580004714,None,421.21004400006495,None,421.21004400006495,None,421.21004400006495,None,422.7999983500107,None,422.7999983500107,None,422.7999983500107,None,,,,,,,,,,,123,19,Female,2022-05-09_20h15.39.694,Boat,2022.1.1,60.11324133252905,
neutral,positive,1,k,k,,,,,,,,,7,8,134,4,,,,,,,,,,,,,,,,,,,,,,,,main,2,2,1,positive,neutral,k,k,1,0.6845013999845833,422.8189483000897,423.82448900002055,423.8038278000895,None,422.8189483000897,None,422.8189483000897,None,422.8189483000897,None,424.48759735006604,None,424.48759735006604,None,424.48759735006604,None,,,,,,,,,,,123,19,Female,2022-05-09_20h15.39.694,Boat,2022.1.1,60.11324133252905,
negative,neutral,2,j,l,,,,,,,,,7,9,135,12,,,,,,,,,,,,,,,,,,,,,,,,main,2,2,2,neutral,negative,l,l,1,0.6008619000203907,424.50709880003706,425.5126934000291,425.4944832000183,None,424.50709880003706,None,424.50709880003706,None,424.50709880003706,None,426.0872135500307,None,426.0872135500307,None,426.0872135500307,None,,,,,,,,,,,123,19,Female,2022-05-09_20h15.39.694,Boat,2022.1.1,60.11324133252905,
neutral,neutral,2,k,k,,,,,,,,,7,10,136,10,,,,,,,,,,,,,,,,,,,,,,,,main,1,1,2,neutral,neutral,k,k,1,0.6259331000037491,426.11369380005635,427.1291331000393,427.09308780007996,None,426.11369380005635,None,426.11369380005635,None,426.11369380005635,None,427.72172985008217,None,427.72172985008217,None,427.72172985008217,None,,,,,,,,,,,123,19,Female,2022-05-09_20h15.39.694,Boat,2022.1.1,60.11324133252905,
neutral,negative,2,k,k,,,,,,,,,7,11,137,16,,,,,,,,,,,,,,,,,,,,,,,,main,1,1,2,negative,neutral,k,k,1,0.6344018999952823,427.7423269000137,428.75930080004036,428.7205811000895,None,427.7423269000137,None,427.7423269000137,None,427.7423269000137,None,429.3587571500451,None,429.3587571500451,None,429.3587571500451,None,,,,,,,,,,,123,19,Female,2022-05-09_20h15.39.694,Boat,2022.1.1,60.11324133252905,
neutral,negative,1,k,k,,,,,,,,,7,12,138,7,,,,,,,,,,,,,,,,,,,,,,,,main,2,2,1,negative,neutral,k,k,1,1.010048700030893,429.37705750006717,430.37720240000635,430.35945250000805,None,429.37705750006717,None,429.37705750006717,None,429.37705750006717,None,431.37208475001387,None,431.37208475001387,None,431.37208475001387,None,,,,,,,,,,,123,19,Female,2022-05-09_20h15.39.694,Boat,2022.1.1,60.11324133252905,
positive,positive,2,l,j,,,,,,,,,7,13,139,11,,,,,,,,,,,,,,,,,,,,,,,,main,2,2,2,positive,positive,j,j,1,0.6805187000427395,431.3923372999998,432.39599420002196,432.37720910005737,None,431.3923372999998,None,431.3923372999998,None,431.3923372999998,None,433.0569130500429,None,433.0569130500429,None,433.0569130500429,None,,,,,,,,,,,123,19,Female,2022-05-09_20h15.39.694,Boat,2022.1.1,60.11324133252905,
negative,positive,1,j,l,,,,,,,,,7,14,140,6,,,,,,,,,,,,,,,,,,,,,,,,main,2,2,1,positive,negative,l,l,1,0.7693912000395358,433.074565500021,434.0809298000531,434.0627399000805,None,433.074565500021,None,433.074565500021,None,433.074565500021,None,434.8280691500171,None,434.8280691500171,None,434.8280691500171,None,,,,,,,,,,,123,19,Female,2022-05-09_20h15.39.694,Boat,2022.1.1,60.11324133252905,
negative,negative,1,j,l,,,,,,,,,7,15,141,0,,,,,,,,,,,,,,,,,,,,,,,,main,2,2,1,negative,negative,l,l,1,0.7187979000154883,434.8458868000889,435.85929980000947,435.821104300092,None,434.8458868000889,None,434.8458868000889,None,434.8458868000889,None,436.54844745007574,None,436.54844745007574,None,436.54844745007574,None,,,,,,,,,,,123,19,Female,2022-05-09_20h15.39.694,Boat,2022.1.1,60.11324133252905,
neutral,positive,2,k,k,,,,,,,,,7,16,142,13,,,,,,,,,,,,,,,,,,,,,,,,main,2,2,2,positive,neutral,k,k,1,0.5815466999774799,436.5705827000784,437.58398690004833,437.54624670010526,None,436.5705827000784,None,436.5705827000784,None,436.5705827000784,None,438.1315757501055,None,438.1315757501055,None,438.1315757501055,None,,,,,,,,,,,123,19,Female,2022-05-09_20h15.39.694,Boat,2022.1.1,60.11324133252905,
negative,negative,2,j,l,,,,,,,,,7,17,143,9,,,,,,,,,,,,,,,,,,,,,,,,main,2,2,2,negative,negative,l,l,1,0.6931101999944076,438.1560775000835,439.1624527000822,439.12612150004134,None,438.1560775000835,None,438.1560775000835,None,438.1560775000835,None,439.82969665006965,None,439.82969665006965,None,439.82969665006965,None,,,,,,,,,,,123,19,Female,2022-05-09_20h15.39.694,Boat,2022.1.1,60.11324133252905,
neutral,negative,2,k,k,,,,,,,,,8,0,144,16,,,,,,,,,,,,,,,,,,,,,,,,main,2,2,2,negative,neutral,k,k,1,0.6598745998926461,439.8479152000509,440.86206070007756,440.8261118000373,None,439.8479152000509,None,439.8479152000509,None,439.8479152000509,None,441.49287665010195,None,441.49287665010195,None,441.49287665010195,None,,,,,,,,,,,123,19,Female,2022-05-09_20h15.39.694,Boat,2022.1.1,60.11324133252905,
neutral,positive,1,k,k,,,,,,,,,8,1,145,4,,,,,,,,,,,,,,,,,,,,,,,,main,2,2,1,positive,neutral,k,k,1,0.57000639999751,441.5110362000996,442.5204642000608,442.4815541000571,None,441.5110362000996,None,441.5110362000996,None,441.5110362000996,None,443.0648973500705,None,443.0648973500705,None,443.0648973500705,None,,,,,,,,,,,123,19,Female,2022-05-09_20h15.39.694,Boat,2022.1.1,60.11324133252905,
negative,neutral,1,j,l,,,,,,,,,8,2,146,3,,,,,,,,,,,,,,,,,,,,,,,,main,1,1,1,neutral,negative,l,l,1,1.5861315000802279,443.0859414000297,444.0930318000028,444.05747050000355,None,443.0859414000297,None,443.0859414000297,None,443.0859414000297,None,445.6605684000533,None,445.6605684000533,None,445.6605684000533,None,,,,,,,,,,,123,19,Female,2022-05-09_20h15.39.694,Boat,2022.1.1,60.11324133252905,
negative,negative,2,j,l,,,,,,,,,8,3,147,9,,,,,,,,,,,,,,,,,,,,,,,,main,1,1,2,negative,negative,l,l,1,0.7289574999595061,446.67904290009756,447.6807318000356,447.6624939000467,None,446.67904290009756,None,446.67904290009756,None,446.67904290009756,None,448.3930148500134,None,448.3930148500134,None,448.3930148500134,None,,,,,,,,,,,123,19,Female,2022-05-09_20h15.39.694,Boat,2022.1.1,60.11324133252905,
positive,neutral,2,l,j,,,,,,,,,8,4,148,17,,,,,,,,,,,,,,,,,,,,,,,,main,2,2,2,neutral,positive,j,j,1,0.7434995999792591,448.41173000005074,449.42429550003726,449.4043147000484,None,448.41173000005074,None,448.41173000005074,None,448.41173000005074,None,450.14021015007745,None,450.14021015007745,None,450.14021015007745,None,,,,,,,,,,,123,19,Female,2022-05-09_20h15.39.694,Boat,2022.1.1,60.11324133252905,
positive,negative,1,l,j,,,,,,,,,8,5,149,5,,,,,,,,,,,,,,,,,,,,,,,,main,1,1,1,negative,positive,j,j,1,0.6159699000418186,450.1614106000634,451.17115950002335,451.1494620000012,None,450.1614106000634,None,450.1614106000634,None,450.1614106000634,None,451.7592696500127,None,451.7592696500127,None,451.7592696500127,None,,,,,,,,,,,123,19,Female,2022-05-09_20h15.39.694,Boat,2022.1.1,60.11324133252905,
neutral,positive,2,k,k,,,,,,,,,8,6,150,13,,,,,,,,,,,,,,,,,,,,,,,,main,1,1,2,positive,neutral,k,k,1,0.6996287999209017,451.7787758000195,452.7807954000309,452.76217450003605,None,451.7787758000195,None,451.7787758000195,None,451.7787758000195,None,453.461187150015,None,453.461187150015,None,453.461187150015,None,,,,,,,,,,,123,19,Female,2022-05-09_20h15.39.694,Boat,2022.1.1,60.11324133252905,
positive,neutral,1,l,j,,,,,,,,,8,7,151,8,,,,,,,,,,,,,,,,,,,,,,,,main,1,1,1,neutral,positive,j,j,1,0.6379274000646546,453.4810279000085,454.4983566000592,454.45994050009176,None,453.4810279000085,None,453.4810279000085,None,453.4810279000085,None,455.10409475004997,None,455.10409475004997,None,455.10409475004997,None,,,,,,,,,,,123,19,Female,2022-05-09_20h15.39.694,Boat,2022.1.1,60.11324133252905,
negative,neutral,2,j,l,,,,,,,,,8,8,152,12,,,,,,,,,,,,,,,,,,,,,,,,main,1,1,2,neutral,negative,l,l,1,0.754006200004369,455.1253090000246,456.14314180007204,456.10437320009805,None,455.1253090000246,None,455.1253090000246,None,455.1253090000246,None,456.85973265002247,None,456.85973265002247,None,456.85973265002247,None,,,,,,,,,,,123,19,Female,2022-05-09_20h15.39.694,Boat,2022.1.1,60.11324133252905,
negative,negative,1,j,l,,,,,,,,,8,9,153,0,,,,,,,,,,,,,,,,,,,,,,,,main,1,1,1,negative,negative,l,l,1,0.6240516999969259,456.8787300999975,457.8975289000664,457.8594063000055,None,456.8787300999975,None,456.8787300999975,None,456.8787300999975,None,458.48720405009806,None,458.48720405009806,None,458.48720405009806,None,,,,,,,,,,,123,19,Female,2022-05-09_20h15.39.694,Boat,2022.1.1,60.11324133252905,
positive,positive,2,l,j,,,,,,,,,8,10,154,11,,,,,,,,,,,,,,,,,,,,,,,,main,1,1,2,positive,positive,j,j,1,0.6545995000051335,458.5057712000562,459.5125705000246,459.4767084000632,None,458.5057712000562,None,458.5057712000562,None,458.5057712000562,None,460.14329465004846,None,460.14329465004846,None,460.14329465004846,None,,,,,,,,,,,123,19,Female,2022-05-09_20h15.39.694,Boat,2022.1.1,60.11324133252905,
neutral,neutral,1,k,k,,,,,,,,,8,11,155,1,,,,,,,,,,,,,,,,,,,,,,,,main,2,2,1,neutral,neutral,k,k,1,0.6880841000238433,460.16522950003855,461.1767213999992,461.15824280004017,None,460.16522950003855,None,460.16522950003855,None,460.16522950003855,None,461.8357455500285,None,461.8357455500285,None,461.8357455500285,None,,,,,,,,,,,123,19,Female,2022-05-09_20h15.39.694,Boat,2022.1.1,60.11324133252905,
neutral,negative,1,k,k,,,,,,,,,8,12,156,7,,,,,,,,,,,,,,,,,,,,,,,,main,2,2,1,negative,neutral,k,k,1,0.6173839999828488,461.85495530010667,462.86172899999656,462.8434949000366,None,461.85495530010667,None,461.85495530010667,None,461.85495530010667,None,463.45614365002837,None,463.45614365002837,None,463.45614365002837,None,,,,,,,,,,,123,19,Female,2022-05-09_20h15.39.694,Boat,2022.1.1,60.11324133252905,
neutral,neutral,2,k,k,,,,,,,,,8,13,157,10,,,,,,,,,,,,,,,,,,,,,,,,main,2,2,2,neutral,neutral,k,k,1,0.6047438000096008,463.4755703000119,464.49510350008495,464.45546840003226,None,463.4755703000119,None,463.4755703000119,None,463.4755703000119,None,465.0605181500199,None,465.0605181500199,None,465.0605181500199,None,,,,,,,,,,,123,19,Female,2022-05-09_20h15.39.694,Boat,2022.1.1,60.11324133252905,
negative,positive,2,j,l,,,,,,,,,8,14,158,15,,,,,,,,,,,,,,,,,,,,,,,,main,2,2,2,positive,negative,l,l,1,0.6435992000624537,465.08198140002787,466.1006771000102,466.0597604000941,None,465.08198140002787,None,465.08198140002787,None,465.08198140002787,None,466.7091147500672,None,466.7091147500672,None,466.7091147500672,None,,,,,,,,,,,123,19,Female,2022-05-09_20h15.39.694,Boat,2022.1.1,60.11324133252905,
positive,positive,1,l,j,,,,,,,,,8,15,159,2,,,,,,,,,,,,,,,,,,,,,,,,main,2,2,1,positive,positive,j,j,1,1.1066570000257343,466.72980580001604,467.73432470008265,467.7163260000525,None,466.72980580001604,None,466.72980580001604,None,466.72980580001604,None,468.82023715010143,None,468.82023715010143,None,468.82023715010143,None,,,,,,,,,,,123,19,Female,2022-05-09_20h15.39.694,Boat,2022.1.1,60.11324133252905,
positive,negative,2,l,j,,,,,,,,,8,16,160,14,,,,,,,,,,,,,,,,,,,,,,,,main,2,2,2,negative,positive,j,j,1,0.6445550000062212,468.8426135000773,469.8502088000532,469.81478110002354,None,468.8426135000773,None,468.8426135000773,None,468.8426135000773,None,470.4651767500094,None,470.4651767500094,None,470.4651767500094,None,,,,,,,,,,,123,19,Female,2022-05-09_20h15.39.694,Boat,2022.1.1,60.11324133252905,
negative,positive,1,j,l,,,,,,,,,8,17,161,6,,,,,,,,,,,,,,,,,,,,,,,,main,1,1,1,positive,negative,l,l,1,0.6711704999906942,470.48423180007376,471.4924581000814,471.4719585001003,None,470.48423180007376,None,470.48423180007376,None,470.48423180007376,None,472.14181455007054,None,472.14181455007054,None,472.14181455007054,None,,,,,,,,,,,123,19,Female,2022-05-09_20h15.39.694,Boat,2022.1.1,60.11324133252905,
neutral,positive,2,k,k,,,,,,,,,9,0,162,13,,,,,,,,,,,,,,,,,,,,,,,,main,1,1,2,positive,neutral,k,k,1,0.5030572999967262,472.1621557000326,473.1778056001058,473.14235680003185,None,472.1621557000326,None,472.1621557000326,None,472.1621557000326,None,473.6476484500221,None,473.6476484500221,None,473.6476484500221,None,,,,,,,,,,,123,19,Female,2022-05-09_20h15.39.694,Boat,2022.1.1,60.11324133252905,
neutral,neutral,2,k,k,,,,,,,,,9,1,163,10,,,,,,,,,,,,,,,,,,,,,,,,main,1,1,2,neutral,neutral,k,k,1,0.5394930000184104,473.668559200014,474.6770575999981,474.65838150004856,None,473.668559200014,None,473.668559200014,None,473.668559200014,None,475.19219035006824,None,475.19219035006824,None,475.19219035006824,None,,,,,,,,,,,123,19,Female,2022-05-09_20h15.39.694,Boat,2022.1.1,60.11324133252905,
positive,neutral,2,l,j,,,,,,,,,9,2,164,17,,,,,,,,,,,,,,,,,,,,,,,,main,2,2,2,neutral,positive,j,j,1,0.6425485999789089,475.21240340010263,476.2312271000119,476.19316810008604,None,475.21240340010263,None,475.21240340010263,None,475.21240340010263,None,476.8385601500398,None,476.8385601500398,None,476.8385601500398,None,,,,,,,,,,,123,19,Female,2022-05-09_20h15.39.694,Boat,2022.1.1,60.11324133252905,
positive,negative,1,l,j,,,,,,,,,9,3,165,5,,,,,,,,,,,,,,,,,,,,,,,,main,1,1,1,negative,positive,j,l,0,0.6031859000213444,476.8589575000806,477.86359240009915,477.8448475000914,None,476.8589575000806,None,476.8589575000806,None,476.8589575000806,None,478.449605800095,None,478.449605800095,None,478.449605800095,None,,,,,,,,,,,123,19,Female,2022-05-09_20h15.39.694,Boat,2022.1.1,60.11324133252905,
positive,positive,1,l,j,,,,,,,,,9,4,166,2,,,,,,,,,,,,,,,,,,,,,,,,main,1,1,1,positive,positive,j,j,1,0.7302669000346214,479.4641349000158,480.4801925000502,480.4441328000976,None,479.4641349000158,None,479.4641349000158,None,479.4641349000158,None,481.1761993500753,None,481.1761993500753,None,481.1761993500753,None,,,,,,,,,,,123,19,Female,2022-05-09_20h15.39.694,Boat,2022.1.1,60.11324133252905,
negative,negative,2,j,l,,,,,,,,,9,5,167,9,,,,,,,,,,,,,,,,,,,,,,,,main,2,2,2,negative,negative,l,l,1,0.6633265999844298,481.1977758000139,482.2148856000276,482.1783739000093,None,481.1977758000139,None,481.1977758000139,None,481.1977758000139,None,482.84378925004273,None,482.84378925004273,None,482.84378925004273,None,,,,,,,,,,,123,19,Female,2022-05-09_20h15.39.694,Boat,2022.1.1,60.11324133252905,
positive,neutral,1,l,j,,,,,,,,,9,6,168,8,,,,,,,,,,,,,,,,,,,,,,,,main,1,1,1,neutral,positive,j,j,1,0.7581632999936119,482.86521360010374,483.8778546000831,483.8563640000066,None,482.86521360010374,None,482.86521360010374,None,482.86521360010374,None,484.60711155008755,None,484.60711155008755,None,484.60711155008755,None,,,,,,,,,,,123,19,Female,2022-05-09_20h15.39.694,Boat,2022.1.1,60.11324133252905,
negative,positive,1,j,l,,,,,,,,,9,7,169,6,,,,,,,,,,,,,,,,,,,,,,,,main,2,2,1,positive,negative,l,l,1,0.6817601000657305,484.626010100008,485.64272520004306,485.62190290004946,None,484.626010100008,None,484.626010100008,None,484.626010100008,None,486.2909375500516,None,486.2909375500516,None,486.2909375500516,None,,,,,,,,,,,123,19,Female,2022-05-09_20h15.39.694,Boat,2022.1.1,60.11324133252905,
negative,neutral,1,j,l,,,,,,,,,9,8,170,3,,,,,,,,,,,,,,,,,,,,,,,,main,2,2,1,neutral,negative,l,l,1,0.9141386999981478,486.31019830005243,487.3112371000461,487.29386620002333,None,486.31019830005243,None,486.31019830005243,None,486.31019830005243,None,488.2086355500272,None,488.2086355500272,None,488.2086355500272,None,,,,,,,,,,,123,19,Female,2022-05-09_20h15.39.694,Boat,2022.1.1,60.11324133252905,
positive,positive,2,l,j,,,,,,,,,9,9,171,11,,,,,,,,,,,,,,,,,,,,,,,,main,1,1,2,positive,positive,j,j,1,1.1395925000542775,488.2293694000691,489.24470580008347,489.20924450003076,None,488.2293694000691,None,488.2293694000691,None,488.2293694000691,None,490.3533824500977,None,490.3533824500977,None,490.3533824500977,None,,,,,,,,,,,123,19,Female,2022-05-09_20h15.39.694,Boat,2022.1.1,60.11324133252905,
neutral,positive,1,k,k,,,,,,,,,9,10,172,4,,,,,,,,,,,,,,,,,,,,,,,,main,1,1,1,positive,neutral,k,j,0,-0.7253385999938473,490.3725444000447,None,None,None,490.3725444000447,None,490.3725444000447,None,490.3725444000447,None,490.63521440001205,None,490.63521440001205,None,490.63521440001205,None,,,,,,,,,,,123,19,Female,2022-05-09_20h15.39.694,Boat,2022.1.1,60.11324133252905,
negative,negative,1,j,l,,,,,,,,,9,11,173,0,,,,,,,,,,,,,,,,,,,,,,,,main,2,2,1,negative,negative,l,l,1,0.7131680999882519,493.64849970000796,494.6608075000113,494.64281600003596,None,493.64849970000796,None,493.64849970000796,None,493.64849970000796,None,495.3441355500021,None,495.3441355500021,None,495.3441355500021,None,,,,,,,,,,,123,19,Female,2022-05-09_20h15.39.694,Boat,2022.1.1,60.11324133252905,
neutral,negative,2,k,k,,,,,,,,,9,12,174,16,,,,,,,,,,,,,,,,,,,,,,,,main,2,2,2,negative,neutral,k,k,1,0.7054804000072181,495.36666860000696,496.37617250008043,496.35326640005223,None,495.36666860000696,None,495.36666860000696,None,495.36666860000696,None,497.05614525001727,None,497.05614525001727,None,497.05614525001727,None,,,,,,,,,,,123,19,Female,2022-05-09_20h15.39.694,Boat,2022.1.1,60.11324133252905,
negative,neutral,2,j,l,,,,,,,,,9,13,175,12,,,,,,,,,,,,,,,,,,,,,,,,main,2,2,2,neutral,negative,l,l,1,0.6830889000557363,497.0779444000218,498.0827562001068,498.06331700005103,None,497.0779444000218,None,497.0779444000218,None,497.0779444000218,None,498.74178845008134,None,498.74178845008134,None,498.74178845008134,None,,,,,,,,,,,123,19,Female,2022-05-09_20h15.39.694,Boat,2022.1.1,60.11324133252905,
neutral,negative,1,k,k,,,,,,,,,9,14,176,7,,,,,,,,,,,,,,,,,,,,,,,,main,2,2,1,negative,neutral,k,k,1,0.624428000068292,498.7628723999951,499.76684840000235,499.7478816000512,None,498.7628723999951,None,498.7628723999951,None,498.7628723999951,None,500.3711022500996,None,500.3711022500996,None,500.3711022500996,None,,,,,,,,,,,123,19,Female,2022-05-09_20h15.39.694,Boat,2022.1.1,60.11324133252905,
neutral,neutral,1,k,k,,,,,,,,,9,15,177,1,,,,,,,,,,,,,,,,,,,,,,,,main,1,1,1,neutral,neutral,k,k,1,0.6494641000172123,500.3917931000469,501.39613340003416,501.37860140006524,None,500.3917931000469,None,500.3917931000469,None,500.3917931000469,None,502.02368345010325,None,502.02368345010325,None,502.02368345010325,None,,,,,,,,,,,123,19,Female,2022-05-09_20h15.39.694,Boat,2022.1.1,60.11324133252905,
negative,positive,2,j,l,,,,,,,,,9,16,178,15,,,,,,,,,,,,,,,,,,,,,,,,main,1,1,2,positive,negative,l,l,1,0.7722887999843806,502.0425282000797,503.05040320008993,503.0320987000596,None,502.0425282000797,None,502.0425282000797,None,502.0425282000797,None,503.79651555003363,None,503.79651555003363,None,503.79651555003363,None,,,,,,,,,,,123,19,Female,2022-05-09_20h15.39.694,Boat,2022.1.1,60.11324133252905,
positive,negative,2,l,j,,,,,,,,,9,17,179,14,,,,,,,,,,,,,,,,,,,,,,,,main,1,1,2,negative,positive,j,j,1,0.7581027999985963,503.8167571000522,504.83453970006667,504.796454400057,None,503.8167571000522,None,503.8167571000522,None,503.8167571000522,None,505.5596291500027,None,505.5596291500027,None,505.5596291500027,None,,,,,,,,,,,123,19,Female,2022-05-09_20h15.39.694,Boat,2022.1.1,60.11324133252905,
positive,negative,1,l,j,,,,,,,,,10,0,180,5,,,,,,,,,,,,,,,,,,,,,,,,main,2,2,1,negative,positive,j,j,1,0.5941826000344008,505.57897170004435,506.5856741000898,506.56669670005795,None,505.57897170004435,None,505.57897170004435,None,505.57897170004435,None,507.15554305006515,None,507.15554305006515,None,507.15554305006515,None,,,,,,,,,,,123,19,Female,2022-05-09_20h15.39.694,Boat,2022.1.1,60.11324133252905,
neutral,negative,1,k,k,,,,,,,,,10,1,181,7,,,,,,,,,,,,,,,,,,,,,,,,main,1,1,1,negative,neutral,k,k,1,1.2573853000067174,507.1773000000976,508.1813511000946,508.1627625999972,None,507.1773000000976,None,507.1773000000976,None,507.1773000000976,None,509.4169794500689,None,509.4169794500689,None,509.4169794500689,None,,,,,,,,,,,123,19,Female,2022-05-09_20h15.39.694,Boat,2022.1.1,60.11324133252905,
negative,positive,2,j,l,,,,,,,,,10,2,182,15,,,,,,,,,,,,,,,,,,,,,,,,main,2,2,2,positive,negative,l,l,1,0.6666691000573337,509.43688880000263,510.4508482000092,510.4139508000808,None,509.43688880000263,None,509.43688880000263,None,509.43688880000263,None,511.0878189501003,None,511.0878189501003,None,511.0878189501003,None,,,,,,,,,,,123,19,Female,2022-05-09_20h15.39.694,Boat,2022.1.1,60.11324133252905,
negative,neutral,2,j,l,,,,,,,,,10,3,183,12,,,,,,,,,,,,,,,,,,,,,,,,main,2,2,2,neutral,negative,l,l,1,0.6297116000205278,511.1097342000576,512.1183433000697,512.0809106000233,None,511.1097342000576,None,511.1097342000576,None,511.1097342000576,None,512.7202224500128,None,512.7202224500128,None,512.7202224500128,None,,,,,,,,,,,123,19,Female,2022-05-09_20h15.39.694,Boat,2022.1.1,60.11324133252905,
negative,negative,2,j,l,,,,,,,,,10,4,184,9,,,,,,,,,,,,,,,,,,,,,,,,main,2,2,2,negative,negative,l,l,1,0.5642739000031725,512.7418764000759,513.7442627000855,513.727662499994,None,512.7418764000759,None,512.7418764000759,None,512.7418764000759,None,514.2866832500207,None,514.2866832500207,None,514.2866832500207,None,,,,,,,,,,,123,19,Female,2022-05-09_20h15.39.694,Boat,2022.1.1,60.11324133252905,
neutral,positive,2,k,k,,,,,,,,,10,5,185,13,,,,,,,,,,,,,,,,,,,,,,,,main,2,2,2,positive,neutral,k,k,1,0.6536400999175385,514.3066678000614,515.3279897000175,515.2889058000874,None,514.3066678000614,None,514.3066678000614,None,514.3066678000614,None,515.9432177500915,None,515.9432177500915,None,515.9432177500915,None,,,,,,,,,,,123,19,Female,2022-05-09_20h15.39.694,Boat,2022.1.1,60.11324133252905,
positive,neutral,2,l,j,,,,,,,,,10,6,186,17,,,,,,,,,,,,,,,,,,,,,,,,main,1,1,2,neutral,positive,j,j,1,0.5921398000791669,515.9637653999962,516.9783253000351,516.9431485000532,None,515.9637653999962,None,515.9637653999962,None,515.9637653999962,None,517.5394092500559,None,517.5394092500559,None,517.5394092500559,None,,,,,,,,,,,123,19,Female,2022-05-09_20h15.39.694,Boat,2022.1.1,60.11324133252905,
negative,negative,1,j,l,,,,,,,,,10,7,187,0,,,,,,,,,,,,,,,,,,,,,,,,main,1,1,1,negative,negative,l,l,1,0.6928490999853238,517.5616098000901,518.5659917000448,518.5469316000817,None,517.5616098000901,None,517.5616098000901,None,517.5616098000901,None,519.2349805500475,None,519.2349805500475,None,519.2349805500475,None,,,,,,,,,,,123,19,Female,2022-05-09_20h15.39.694,Boat,2022.1.1,60.11324133252905,
neutral,neutral,1,k,k,,,,,,,,,10,8,188,1,,,,,,,,,,,,,,,,,,,,,,,,main,2,2,1,neutral,neutral,k,k,1,1.0280617999378592,519.2562602000544,520.2633268000791,520.2450194000266,None,519.2562602000544,None,519.2562602000544,None,519.2562602000544,None,521.2635039500077,None,521.2635039500077,None,521.2635039500077,None,,,,,,,,,,,123,19,Female,2022-05-09_20h15.39.694,Boat,2022.1.1,60.11324133252905,
positive,neutral,1,l,j,,,,,,,,,10,9,189,8,,,,,,,,,,,,,,,,,,,,,,,,main,2,2,1,neutral,positive,j,j,1,0.6935804999666288,521.2844083000673,522.2971335001057,522.2619656000752,None,521.2844083000673,None,521.2844083000673,None,521.2844083000673,None,522.9611578500247,None,522.9611578500247,None,522.9611578500247,None,,,,,,,,,,,123,19,Female,2022-05-09_20h15.39.694,Boat,2022.1.1,60.11324133252905,
positive,negative,2,l,j,,,,,,,,,10,10,190,14,,,,,,,,,,,,,,,,,,,,,,,,main,2,2,2,negative,positive,j,j,1,0.6171958999475464,522.9808835000731,523.9966322000837,523.9601905000163,None,522.9808835000731,None,522.9808835000731,None,522.9808835000731,None,524.5809454500326,None,524.5809454500326,None,524.5809454500326,None,,,,,,,,,,,123,19,Female,2022-05-09_20h15.39.694,Boat,2022.1.1,60.11324133252905,
neutral,neutral,2,k,k,,,,,,,,,10,11,191,10,,,,,,,,,,,,,,,,,,,,,,,,main,1,1,2,neutral,neutral,k,k,1,0.669406299944967,524.5994196000975,525.616943800007,525.5806125000818,None,524.5994196000975,None,524.5994196000975,None,524.5994196000975,None,526.2540939500672,None,526.2540939500672,None,526.2540939500672,None,,,,,,,,,,,123,19,Female,2022-05-09_20h15.39.694,Boat,2022.1.1,60.11324133252905,
neutral,negative,2,k,k,,,,,,,,,10,12,192,16,,,,,,,,,,,,,,,,,,,,,,,,main,2,2,2,negative,neutral,k,k,1,0.6311147999949753,526.2746288001072,527.279917200096,527.2620748000918,None,526.2746288001072,None,526.2746288001072,None,526.2746288001072,None,527.8891520500532,None,527.8891520500532,None,527.8891520500532,None,,,,,,,,,,,123,19,Female,2022-05-09_20h15.39.694,Boat,2022.1.1,60.11324133252905,
negative,positive,1,j,l,,,,,,,,,10,13,193,6,,,,,,,,,,,,,,,,,,,,,,,,main,2,2,1,positive,negative,l,l,1,0.7347769000334665,527.911170400097,528.9130656000925,528.8953308000928,None,527.911170400097,None,527.911170400097,None,527.911170400097,None,529.6267190500279,None,529.6267190500279,None,529.6267190500279,None,,,,,,,,,,,123,19,Female,2022-05-09_20h15.39.694,Boat,2022.1.1,60.11324133252905,
negative,neutral,1,j,l,,,,,,,,,10,14,194,3,,,,,,,,,,,,,,,,,,,,,,,,main,2,2,1,neutral,negative,l,l,1,0.6631427999818698,529.6451671000104,530.6447638000827,530.6279782000929,None,529.6451671000104,None,529.6451671000104,None,529.6451671000104,None,531.2933702500653,None,531.2933702500653,None,531.2933702500653,None,,,,,,,,,,,123,19,Female,2022-05-09_20h15.39.694,Boat,2022.1.1,60.11324133252905,
positive,positive,1,l,j,,,,,,,,,10,15,195,2,,,,,,,,,,,,,,,,,,,,,,,,main,2,2,1,positive,positive,j,j,1,0.6582792999688536,531.3140891999938,532.3232855000533,532.3017663999926,None,531.3140891999938,None,531.3140891999938,None,531.3140891999938,None,532.9571647500037,None,532.9571647500037,None,532.9571647500037,None,,,,,,,,,,,123,19,Female,2022-05-09_20h15.39.694,Boat,2022.1.1,60.11324133252905,
positive,positive,2,l,j,,,,,,,,,10,16,196,11,,,,,,,,,,,,,,,,,,,,,,,,main,1,1,2,positive,positive,j,j,1,0.5945751999970526,532.9771996000782,533.9859532000264,533.9482792000053,None,532.9771996000782,None,532.9771996000782,None,532.9771996000782,None,534.554045750096,None,534.554045750096,None,534.554045750096,None,,,,,,,,,,,123,19,Female,2022-05-09_20h15.39.694,Boat,2022.1.1,60.11324133252905,
neutral,positive,1,k,k,,,,,,,,,10,17,197,4,,,,,,,,,,,,,,,,,,,,,,,,main,2,2,1,positive,neutral,k,k,1,0.6980315999826416,534.572239000001,535.5768843000988,535.5563952000812,None,534.572239000001,None,534.572239000001,None,534.572239000001,None,536.2547311500297,None,536.2547311500297,None,536.2547311500297,None,,,,,,,,,,,123,19,Female,2022-05-09_20h15.39.694,Boat,2022.1.1,60.11324133252905,
neutral,negative,1,k,k,,,,,,,,,11,0,198,7,,,,,,,,,,,,,,,,,,,,,,,,main,2,2,1,negative,neutral,k,k,1,0.5891978000290692,536.2762834000168,537.2952778000617,537.2562399000162,None,536.2762834000168,None,536.2762834000168,None,536.2762834000168,None,537.8450764500652,None,537.8450764500652,None,537.8450764500652,None,,,,,,,,,,,123,19,Female,2022-05-09_20h15.39.694,Boat,2022.1.1,60.11324133252905,
negative,neutral,2,j,l,,,,,,,,,11,1,199,12,,,,,,,,,,,,,,,,,,,,,,,,main,2,2,2,neutral,negative,l,l,1,0.80965940002352,537.8646736000665,538.8783254000591,538.8402196000097,None,537.8646736000665,None,537.8646736000665,None,537.8646736000665,None,539.6588348501012,None,539.6588348501012,None,539.6588348501012,None,,,,,,,,,,,123,19,Female,2022-05-09_20h15.39.694,Boat,2022.1.1,60.11324133252905,
neutral,positive,1,k,k,,,,,,,,,11,2,200,4,,,,,,,,,,,,,,,,,,,,,,,,main,2,2,1,positive,neutral,k,k,1,0.7136756000109017,539.6778213999933,540.6795434000669,540.6620240000775,None,539.6778213999933,None,539.6778213999933,None,539.6778213999933,None,541.3762126500136,None,541.3762126500136,None,541.3762126500136,None,,,,,,,,,,,123,19,Female,2022-05-09_20h15.39.694,Boat,2022.1.1,60.11324133252905,
negative,positive,1,j,l,,,,,,,,,11,3,201,6,,,,,,,,,,,,,,,,,,,,,,,,main,2,2,1,positive,negative,l,l,1,0.7852462000446394,541.3944734000834,542.4023354999954,542.3653867000248,None,541.3944734000834,None,541.3944734000834,None,541.3944734000834,None,543.1617547500995,None,543.1617547500995,None,543.1617547500995,None,,,,,,,,,,,123,19,Female,2022-05-09_20h15.39.694,Boat,2022.1.1,60.11324133252905,
negative,negative,1,j,l,,,,,,,,,11,4,202,0,,,,,,,,,,,,,,,,,,,,,,,,main,2,2,1,negative,negative,l,l,1,1.1156354000559077,543.1831936000381,544.1996884000255,544.1625462000957,None,543.1831936000381,None,543.1831936000381,None,543.1831936000381,None,545.2810952500789,None,545.2810952500789,None,545.2810952500789,None,,,,,,,,,,,123,19,Female,2022-05-09_20h15.39.694,Boat,2022.1.1,60.11324133252905,
positive,negative,1,l,j,,,,,,,,,11,5,203,5,,,,,,,,,,,,,,,,,,,,,,,,main,1,1,1,negative,positive,j,j,1,0.7105637000640854,545.3016236000694,546.3117568000453,546.2906667999923,None,545.3016236000694,None,545.3016236000694,None,545.3016236000694,None,546.9953765500453,None,546.9953765500453,None,546.9953765500453,None,,,,,,,,,,,123,19,Female,2022-05-09_20h15.39.694,Boat,2022.1.1,60.11324133252905,
positive,negative,2,l,j,,,,,,,,,11,6,204,14,,,,,,,,,,,,,,,,,,,,,,,,main,2,2,2,negative,positive,j,j,1,0.5836285999976099,547.017585500027,548.0347870000405,547.9981286000693,None,547.017585500027,None,547.017585500027,None,547.017585500027,None,548.5793892500573,None,548.5793892500573,None,548.5793892500573,None,,,,,,,,,,,123,19,Female,2022-05-09_20h15.39.694,Boat,2022.1.1,60.11324133252905,
negative,negative,2,j,l,,,,,,,,,11,7,205,9,,,,,,,,,,,,,,,,,,,,,,,,main,2,2,2,negative,negative,l,l,1,0.7607150000985712,548.6013497000095,549.6097493000561,549.589638800011,None,548.6013497000095,None,548.6013497000095,None,548.6013497000095,None,550.3451875500963,None,550.3451875500963,None,550.3451875500963,None,,,,,,,,,,,123,19,Female,2022-05-09_20h15.39.694,Boat,2022.1.1,60.11324133252905,
positive,neutral,2,l,j,,,,,,,,,11,8,206,17,,,,,,,,,,,,,,,,,,,,,,,,main,2,2,2,neutral,positive,j,j,1,1.1240684000076726,550.364633899997,551.3757741000736,551.3516386999981,None,550.364633899997,None,550.364633899997,None,550.364633899997,None,552.4732392500504,None,552.4732392500504,None,552.4732392500504,None,,,,,,,,,,,123,19,Female,2022-05-09_20h15.39.694,Boat,2022.1.1,60.11324133252905,
positive,positive,1,l,j,,,,,,,,,11,9,207,2,,,,,,,,,,,,,,,,,,,,,,,,main,1,1,1,positive,positive,j,j,1,0.6810866000596434,552.4956872001057,553.5016094000312,553.4826382000465,None,552.4956872001057,None,552.4956872001057,None,552.4956872001057,None,554.1593346500653,None,554.1593346500653,None,554.1593346500653,None,,,,,,,,,,,123,19,Female,2022-05-09_20h15.39.694,Boat,2022.1.1,60.11324133252905,
neutral,neutral,1,k,k,,,,,,,,,11,10,208,1,,,,,,,,,,,,,,,,,,,,,,,,main,1,1,1,neutral,neutral,k,k,1,0.9680115999653935,554.1771707000444,555.190125000081,555.1700805000728,None,554.1771707000444,None,554.1771707000444,None,554.1771707000444,None,556.1294489500928,None,556.1294489500928,None,556.1294489500928,None,,,,,,,,,,,123,19,Female,2022-05-09_20h15.39.694,Boat,2022.1.1,60.11324133252905,
