target,distractor,set,ans1,ans2,rep_loop2.thisRepN,rep_loop2.thisTrialN,rep_loop2.thisN,rep_loop2.thisIndex,flanker_prac_loop.thisRepN,flanker_prac_loop.thisTrialN,flanker_prac_loop.thisN,flanker_prac_loop.thisIndex,flanker_main_loop.thisRepN,flanker_main_loop.thisTrialN,flanker_main_loop.thisN,flanker_main_loop.thisIndex,fl_inst_resp.keys,mouse.x,mouse.y,mouse.leftButton,mouse.midButton,mouse.rightButton,mouse.started,mouse.stopped,sound_1.started,sound_1.stopped,no_text.started,no_text.stopped,yes_text.started,yes_text.stopped,mouse_2.x,mouse_2.y,mouse_2.leftButton,mouse_2.midButton,mouse_2.rightButton,mouse_2.started,mouse_2.stopped,back_2.started,back_2.stopped,main_prac,fl_cold,fl_colt,fl_set,fl_dcond,fl_tcond,fl_ans,fl_res,fl_corr,fl_rt,fix_fl.started,fix_fl.stopped,targ.started,targ.stopped,j_button.started,j_button.stopped,k_button.started,k_button.stopped,l_button.started,l_button.stopped,j_button2.started,j_button2.stopped,k_button2.started,k_button2.stopped,l_button2.started,l_button2.stopped,mainback.started,mainback.stopped,key_resp.keys,mouse_6.x,mouse_6.y,mouse_6.leftButton,mouse_6.midButton,mouse_6.rightButton,mouse_6.started,mouse_6.stopped,id*,age*,gender*,date,expName,psychopyVersion,frameRate,
,,,,,0,0,0,0,,,,,,,,,None,-0.325,0.20185184,0,0,0,0.9990977159468457,None,25.470477359963116,None,78.83836479997262,None,78.83836479997262,None,0.098148145,-0.037962962,0,0,0,0.01215985999442637,None,,,,,,,,,,,,,,,,,,,,,,,,,,,,,,,,,,,,,,,124,30,Male,2022-05-10_09h46.26.554,Boat,2022.1.1,59.973899355749886,
,,,,,1,0,1,0,,,,,,,,,None,0.1,-0.053703703,0,0,0,None,None,None,None,80.30436139996164,None,80.30436139996164,None,0.09907407,-0.058333334,0,0,0,0.013876360026188195,None,,,,,,,,,,,,,,,,,,,,,,,,,,,,,,,,,,,,,,,124,30,Male,2022-05-10_09h46.26.554,Boat,2022.1.1,59.973899355749886,
,,,,,2,0,2,0,,,,,,,,,None,0.09259259,-0.041666668,0,0,0,None,None,None,None,81.44031909992918,None,81.44031909992918,None,-0.09907407,-0.036111113,0,0,0,0.013361059944145381,None,,,,,,,,,,,,,,,,,,,,,,,,,,,,,,,,,,,,,,,124,30,Male,2022-05-10_09h46.26.554,Boat,2022.1.1,59.973899355749886,
neutral,negative,1,k,k,,,,,0,0,0,7,,,,,,,,,,,,,,,,,,,,,,,,,,84.02571760001592,None,prac,2,2,1,negative,neutral,k,k,1,1.3907651000190526,86.05610109993722,87.05923889996484,87.03943739994429,None,86.05610109993722,None,86.05610109993722,None,86.05610109993722,None,88.41762045993237,None,88.41762045993237,None,88.41762045993237,None,,,,,,,,,,,124,30,Male,2022-05-10_09h46.26.554,Boat,2022.1.1,59.973899355749886,
neutral,negative,2,k,k,,,,,0,1,1,16,,,,,,,,,,,,,,,,,,,,,,,,,,,,prac,2,2,2,negative,neutral,k,k,1,1.2625053999945521,88.44459299999289,89.46004749997519,89.42515499994624,None,88.44459299999289,None,88.44459299999289,None,88.44459299999289,None,90.68349225994898,None,90.68349225994898,None,90.68349225994898,None,,,,,,,,,,,124,30,Male,2022-05-10_09h46.26.554,Boat,2022.1.1,59.973899355749886,
negative,negative,2,j,l,,,,,0,2,2,9,,,,,,,,,,,,,,,,,,,,,,,,,,,,prac,1,1,2,negative,negative,j,j,1,0.995816900045611,90.71032059995923,91.73497200000565,91.70837230002508,None,90.71032059995923,None,90.71032059995923,None,90.71032059995923,None,92.68012685993453,None,92.68012685993453,None,92.68012685993453,None,,,,,,,,,,,124,30,Male,2022-05-10_09h46.26.554,Boat,2022.1.1,59.973899355749886,
positive,negative,2,l,j,,,,,0,3,3,14,,,,,,,,,,,,,,,,,,,,,,,,,,,,prac,2,2,2,negative,positive,l,l,1,0.8298194999806583,92.70532019995153,93.71253629995044,93.69535589998122,None,92.70532019995153,None,92.70532019995153,None,92.70532019995153,None,94.51176145999925,None,94.51176145999925,None,94.51176145999925,None,,,,,,,,,,,124,30,Male,2022-05-10_09h46.26.554,Boat,2022.1.1,59.973899355749886,
neutral,neutral,1,k,k,,,,,0,4,4,1,,,,,,,,,,,,,,,,,,,,,,,,,,,,prac,2,2,1,neutral,neutral,k,k,1,0.8790729999309406,94.53970879991539,95.55147589999251,95.52666119998321,None,94.53970879991539,None,94.53970879991539,None,94.53970879991539,None,96.39422845992958,None,96.39422845992958,None,96.39422845992958,None,,,,,,,,,,,124,30,Male,2022-05-10_09h46.26.554,Boat,2022.1.1,59.973899355749886,
positive,positive,1,l,j,,,,,0,5,5,2,,,,,,,,,,,,,,,,,,,,,,,,,,,,prac,2,2,1,positive,positive,l,l,1,2.100078899995424,96.42454499995802,97.44197099993471,97.42160709993914,None,96.42454499995802,None,96.42454499995802,None,96.42454499995802,None,99.52490299998317,None,99.52490299998317,None,99.52490299998317,None,,,,,,,,,,,124,30,Male,2022-05-10_09h46.26.554,Boat,2022.1.1,59.973899355749886,
negative,neutral,2,j,l,,,,,0,6,6,12,,,,,,,,,,,,,,,,,,,,,,,,,,,,prac,1,1,2,neutral,negative,j,j,1,0.9691076000453904,100.55512669996824,101.56015559996013,101.5417711000191,None,100.55512669996824,None,100.55512669996824,None,100.55512669996824,None,102.4987194599933,None,102.4987194599933,None,102.4987194599933,None,,,,,,,,,,,124,30,Male,2022-05-10_09h46.26.554,Boat,2022.1.1,59.973899355749886,
positive,neutral,1,l,j,,,,,0,7,7,8,,,,,,,,,,,,,,,,,,,,,,,,,,,,prac,2,2,1,neutral,positive,l,l,1,1.7370146000757813,102.51668100000825,103.5351921999827,103.4933250999311,None,102.51668100000825,None,102.51668100000825,None,102.51668100000825,None,105.24452599999495,None,105.24452599999495,None,105.24452599999495,None,,,,,,,,,,,124,30,Male,2022-05-10_09h46.26.554,Boat,2022.1.1,59.973899355749886,
positive,neutral,2,l,j,,,,,0,8,8,17,,,,,,,,,,,,,,,,,,,,,,,,,,,,prac,1,1,2,neutral,positive,l,l,1,0.8675645999610424,106.2558894000249,107.2767452999251,107.25503389991354,None,106.2558894000249,None,106.2558894000249,None,106.2558894000249,None,108.10722105997847,None,108.10722105997847,None,108.10722105997847,None,,,,,,,,,,,124,30,Male,2022-05-10_09h46.26.554,Boat,2022.1.1,59.973899355749886,
negative,negative,1,j,l,,,,,0,9,9,0,,,,,,,,,,,,,,,,,,,,,,,,,,,,prac,2,2,1,negative,negative,j,j,1,1.151084900018759,108.12725189991761,109.12719029991422,109.11049899994396,None,108.12725189991761,None,108.12725189991761,None,108.12725189991761,None,110.26115255990298,None,110.26115255990298,None,110.26115255990298,None,,,,,,,,,,,124,30,Male,2022-05-10_09h46.26.554,Boat,2022.1.1,59.973899355749886,
positive,positive,2,l,j,,,,,0,10,10,11,,,,,,,,,,,,,,,,,,,,,,,,,,,,prac,2,2,2,positive,positive,l,l,1,0.9234098999295384,110.28790009999648,111.3053425999824,111.28312839998398,None,110.28790009999648,None,110.28790009999648,None,110.28790009999648,None,112.18755585992476,None,112.18755585992476,None,112.18755585992476,None,,,,,,,,,,,124,30,Male,2022-05-10_09h46.26.554,Boat,2022.1.1,59.973899355749886,
negative,neutral,1,j,l,,,,,0,11,11,3,,,,,,,,,,,,,,,,,,,,,,,,,,,,prac,2,2,1,neutral,negative,j,j,1,1.4036806999938563,112.20787319994997,113.21028340002522,113.19378099997994,None,112.20787319994997,None,112.20787319994997,None,112.20787319994997,None,114.59361505998531,None,114.59361505998531,None,114.59361505998531,None,,,,,,,,,,,124,30,Male,2022-05-10_09h46.26.554,Boat,2022.1.1,59.973899355749886,
negative,positive,2,j,l,,,,,0,12,12,15,,,,,,,,,,,,,,,,,,,,,,,,,,,,prac,1,1,2,positive,negative,j,j,1,1.0704804999986663,114.6221182999434,115.63858349993825,115.61874109995551,None,114.6221182999434,None,114.6221182999434,None,114.6221182999434,None,116.66841086001368,None,116.66841086001368,None,116.66841086001368,None,,,,,,,,,,,124,30,Male,2022-05-10_09h46.26.554,Boat,2022.1.1,59.973899355749886,
negative,positive,1,j,l,,,,,0,13,13,6,,,,,,,,,,,,,,,,,,,,,,,,,,,,prac,1,1,1,positive,negative,j,j,1,0.8640640999656171,116.69395929994062,117.71232409996446,117.67540129995905,None,116.69395929994062,None,116.69395929994062,None,116.69395929994062,None,118.53399665992474,None,118.53399665992474,None,118.53399665992474,None,,,,,,,,,,,124,30,Male,2022-05-10_09h46.26.554,Boat,2022.1.1,59.973899355749886,
neutral,positive,1,k,k,,,,,0,14,14,4,,,,,,,,,,,,,,,,,,,,,,,,,,,,prac,1,1,1,positive,neutral,k,k,1,0.8764200999867171,118.5601527999388,119.56861790001858,119.54361079994123,None,118.5601527999388,None,118.5601527999388,None,118.5601527999388,None,120.4112140599289,None,120.4112140599289,None,120.4112140599289,None,,,,,,,,,,,124,30,Male,2022-05-10_09h46.26.554,Boat,2022.1.1,59.973899355749886,
positive,negative,1,l,j,,,,,0,15,15,5,,,,,,,,,,,,,,,,,,,,,,,,,,,,prac,1,1,1,negative,positive,l,l,1,0.9154198999749497,120.43788919993676,121.45999599993229,121.44058880000375,None,120.43788919993676,None,120.43788919993676,None,120.43788919993676,None,122.32888595993863,None,122.32888595993863,None,122.32888595993863,None,,,,,,,,,,,124,30,Male,2022-05-10_09h46.26.554,Boat,2022.1.1,59.973899355749886,
neutral,positive,2,k,k,,,,,0,16,16,13,,,,,,,,,,,,,,,,,,,,,,,,,,,,prac,1,1,2,positive,neutral,k,k,1,0.8223243999527767,122.34657789999619,123.35873709991574,123.33876880002208,None,122.34657789999619,None,122.34657789999619,None,122.34657789999619,None,124.15519755998393,None,124.15519755998393,None,124.15519755998393,None,,,,,,,,,,,124,30,Male,2022-05-10_09h46.26.554,Boat,2022.1.1,59.973899355749886,
neutral,neutral,2,k,k,,,,,0,17,17,10,,,,,,,,,,,,,,,,,,,,,,,,,,,,prac,2,2,2,neutral,neutral,k,k,1,0.7018526999745518,124.18006559996866,125.19225839991122,125.17216309998184,None,124.18006559996866,None,124.18006559996866,None,124.18006559996866,None,125.85949575995328,None,125.85949575995328,None,125.85949575995328,None,,,,,,,,,,,124,30,Male,2022-05-10_09h46.26.554,Boat,2022.1.1,59.973899355749886,
negative,negative,1,j,l,,,,,1,0,18,0,,,,,,,,,,,,,,,,,,,,,,,,,,,,prac,1,1,1,negative,negative,j,j,1,0.7953028000192717,125.87612399994396,126.89573519991245,126.85823639994487,None,125.87612399994396,None,125.87612399994396,None,125.87612399994396,None,127.65778805991867,None,127.65778805991867,None,127.65778805991867,None,,,,,,,,,,,124,30,Male,2022-05-10_09h46.26.554,Boat,2022.1.1,59.973899355749886,
negative,neutral,1,j,l,,,,,1,1,19,3,,,,,,,,,,,,,,,,,,,,,,,,,,,,prac,2,2,1,neutral,negative,j,j,1,0.6614178000018001,127.67589489999227,128.69397709995974,128.65553450002335,None,127.67589489999227,None,127.67589489999227,None,127.67589489999227,None,129.32206935995492,None,129.32206935995492,None,129.32206935995492,None,,,,,,,,,,,124,30,Male,2022-05-10_09h46.26.554,Boat,2022.1.1,59.973899355749886,
negative,positive,2,j,l,,,,,1,2,20,15,,,,,,,,,,,,,,,,,,,,,,,,,,,,prac,1,1,2,positive,negative,j,j,1,0.9066428999649361,129.33948169997893,130.34582789998967,130.32821249996778,None,129.33948169997893,None,129.33948169997893,None,129.33948169997893,None,131.22820655991092,None,131.22820655991092,None,131.22820655991092,None,,,,,,,,,,,124,30,Male,2022-05-10_09h46.26.554,Boat,2022.1.1,59.973899355749886,
positive,neutral,1,l,j,,,,,1,3,21,8,,,,,,,,,,,,,,,,,,,,,,,,,,,,prac,2,2,1,neutral,positive,l,l,1,0.9332690999144688,131.249418899999,132.27254429995082,132.22538309998345,None,131.249418899999,None,131.249418899999,None,131.249418899999,None,133.1646199600189,None,133.1646199600189,None,133.1646199600189,None,,,,,,,,,,,124,30,Male,2022-05-10_09h46.26.554,Boat,2022.1.1,59.973899355749886,
positive,negative,2,l,j,,,,,1,4,22,14,,,,,,,,,,,,,,,,,,,,,,,,,,,,prac,1,1,2,negative,positive,l,l,1,0.7779959000181407,133.18850559997372,134.20915489993058,134.167382500018,None,133.18850559997372,None,133.18850559997372,None,133.18850559997372,None,134.9470810599276,None,134.9470810599276,None,134.9470810599276,None,,,,,,,,,,,124,30,Male,2022-05-10_09h46.26.554,Boat,2022.1.1,59.973899355749886,
negative,positive,1,j,l,,,,,1,5,23,6,,,,,,,,,,,,,,,,,,,,,,,,,,,,prac,2,2,1,positive,negative,j,j,1,0.8653457999462262,134.96479879994877,135.9722810999956,135.952264499967,None,134.96479879994877,None,134.96479879994877,None,134.96479879994877,None,136.8147153599537,None,136.8147153599537,None,136.8147153599537,None,,,,,,,,,,,124,30,Male,2022-05-10_09h46.26.554,Boat,2022.1.1,59.973899355749886,
negative,neutral,2,j,l,,,,,1,6,24,12,,,,,,,,,,,,,,,,,,,,,,,,,,,,prac,2,2,2,neutral,negative,j,j,1,0.7500747001031414,136.8320472999476,137.8465395999374,137.81059639994055,None,136.8320472999476,None,136.8320472999476,None,136.8320472999476,None,138.56827395992588,None,138.56827395992588,None,138.56827395992588,None,,,,,,,,,,,124,30,Male,2022-05-10_09h46.26.554,Boat,2022.1.1,59.973899355749886,
neutral,neutral,1,k,k,,,,,1,7,25,1,,,,,,,,,,,,,,,,,,,,,,,,,,,,prac,2,2,1,neutral,neutral,k,k,1,0.8052088000113145,138.5864299000241,139.6057708999142,139.55914459994528,None,138.5864299000241,None,138.5864299000241,None,138.5864299000241,None,140.37614125992405,None,140.37614125992405,None,140.37614125992405,None,,,,,,,,,,,124,30,Male,2022-05-10_09h46.26.554,Boat,2022.1.1,59.973899355749886,
positive,negative,1,l,j,,,,,1,8,26,5,,,,,,,,,,,,,,,,,,,,,,,,,,,,prac,1,1,1,negative,positive,l,l,1,1.0977253000019118,140.39428759994917,141.3960726999212,141.37767409998924,None,140.39428759994917,None,140.39428759994917,None,140.39428759994917,None,142.47626445990755,None,142.47626445990755,None,142.47626445990755,None,,,,,,,,,,,124,30,Male,2022-05-10_09h46.26.554,Boat,2022.1.1,59.973899355749886,
positive,positive,1,l,j,,,,,1,9,27,2,,,,,,,,,,,,,,,,,,,,,,,,,,,,prac,2,2,1,positive,positive,l,l,1,0.7275980999693274,142.49758109997492,143.5132961999625,143.47767860000022,None,142.49758109997492,None,142.49758109997492,None,142.49758109997492,None,144.2078016599524,None,144.2078016599524,None,144.2078016599524,None,,,,,,,,,,,124,30,Male,2022-05-10_09h46.26.554,Boat,2022.1.1,59.973899355749886,
negative,negative,2,j,l,,,,,1,10,28,9,,,,,,,,,,,,,,,,,,,,,,,,,,,,prac,1,1,2,negative,negative,j,j,1,0.8643266999861225,144.22704949998297,145.2339023000095,145.19668249995448,None,144.22704949998297,None,144.22704949998297,None,144.22704949998297,None,146.0750075599761,None,146.0750075599761,None,146.0750075599761,None,,,,,,,,,,,124,30,Male,2022-05-10_09h46.26.554,Boat,2022.1.1,59.973899355749886,
positive,positive,2,l,j,,,,,1,11,29,11,,,,,,,,,,,,,,,,,,,,,,,,,,,,prac,2,2,2,positive,positive,l,l,1,0.809712199959904,146.09299509995617,147.09531070000958,147.07824559998699,None,146.09299509995617,None,146.09299509995617,None,146.09299509995617,None,147.8867463600007,None,147.8867463600007,None,147.8867463600007,None,,,,,,,,,,,124,30,Male,2022-05-10_09h46.26.554,Boat,2022.1.1,59.973899355749886,
neutral,negative,1,k,k,,,,,1,12,30,7,,,,,,,,,,,,,,,,,,,,,,,,,,,,prac,1,1,1,negative,neutral,k,k,1,0.7431327999802306,147.9051209000172,148.91832199995406,148.8820182000054,None,147.9051209000172,None,147.9051209000172,None,147.9051209000172,None,149.63132195990767,None,149.63132195990767,None,149.63132195990767,None,,,,,,,,,,,124,30,Male,2022-05-10_09h46.26.554,Boat,2022.1.1,59.973899355749886,
neutral,positive,1,k,k,,,,,1,13,31,4,,,,,,,,,,,,,,,,,,,,,,,,,,,,prac,1,1,1,positive,neutral,k,k,1,0.8051433999789879,149.64936999999918,150.6692611000035,150.6279496999923,None,149.64936999999918,None,149.64936999999918,None,149.64936999999918,None,151.43816525990843,None,151.43816525990843,None,151.43816525990843,None,,,,,,,,,,,124,30,Male,2022-05-10_09h46.26.554,Boat,2022.1.1,59.973899355749886,
neutral,positive,2,k,k,,,,,1,14,32,13,,,,,,,,,,,,,,,,,,,,,,,,,,,,prac,1,1,2,positive,neutral,k,k,1,1.0116655000019819,151.4587786999764,152.47592899994925,152.45599589997437,None,151.4587786999764,None,151.4587786999764,None,151.4587786999764,None,153.45389765991132,None,153.45389765991132,None,153.45389765991132,None,,,,,,,,,,,124,30,Male,2022-05-10_09h46.26.554,Boat,2022.1.1,59.973899355749886,
neutral,neutral,2,k,k,,,,,1,15,33,10,,,,,,,,,,,,,,,,,,,,,,,,,,,,prac,2,2,2,neutral,neutral,k,k,1,0.7414487999631092,153.47462759993505,154.493251399952,154.47273789998144,None,153.47462759993505,None,153.47462759993505,None,153.47462759993505,None,155.19673425996444,None,155.19673425996444,None,155.19673425996444,None,,,,,,,,,,,124,30,Male,2022-05-10_09h46.26.554,Boat,2022.1.1,59.973899355749886,
positive,neutral,2,l,j,,,,,1,16,34,17,,,,,,,,,,,,,,,,,,,,,,,,,,,,prac,1,1,2,neutral,positive,l,l,1,0.7935048000654206,155.21621300000697,156.23198309994768,156.1952503999928,None,155.21621300000697,None,155.21621300000697,None,155.21621300000697,None,156.9948434599326,None,156.9948434599326,None,156.9948434599326,None,,,,,,,,,,,124,30,Male,2022-05-10_09h46.26.554,Boat,2022.1.1,59.973899355749886,
neutral,negative,2,k,k,,,,,1,17,35,16,,,,,,,,,,,,,,,,,,,,,,,,,,,,prac,1,1,2,negative,neutral,k,k,1,0.736682299990207,157.01207719999366,158.02588650002144,158.0061952000251,None,157.01207719999366,None,157.01207719999366,None,157.01207719999366,None,158.73369206000353,None,158.73369206000353,None,158.73369206000353,None,,,,,,,,,,,124,30,Male,2022-05-10_09h46.26.554,Boat,2022.1.1,59.973899355749886,
,,,,,,,,,,,,,,,,,,,,,,,,,,,,,,,,,,,,,,,,,,,,,,,,,,,,,,,,,,,,,,,,,,158.74532819993328,None,None,,,,,,,,124,30,Male,2022-05-10_09h46.26.554,Boat,2022.1.1,59.973899355749886,
,,,,,,,,,,,,,,,,,,,,,,,,,,,,,,,,,,,,,,,,,,,,,,,,,,,,,,,,,,,,,,,,,,,,,-0.036111113,-0.11388889,0,0,1,0.005791459931060672,None,124,30,Male,2022-05-10_09h46.26.554,Boat,2022.1.1,59.973899355749886,
positive,neutral,1,l,j,,,,,,,,,0,0,0,8,,,,,,,,,,,,,,,,,,,,,,176.3733346000081,None,main,1,1,1,neutral,positive,l,l,1,1.06891050003469,178.39973539998755,179.4108203999931,179.39042660000268,None,178.39973539998755,None,178.39973539998755,None,178.39973539998755,None,180.44353555993877,None,180.44353555993877,None,180.44353555993877,None,,,,,,,,,,,124,30,Male,2022-05-10_09h46.26.554,Boat,2022.1.1,59.973899355749886,
neutral,positive,1,k,k,,,,,,,,,0,1,1,4,,,,,,,,,,,,,,,,,,,,,,,,main,2,2,1,positive,neutral,k,k,1,0.8472949999850243,180.466411100002,181.4827038999647,181.44020900002215,None,180.466411100002,None,180.466411100002,None,180.466411100002,None,182.29522095994326,None,182.29522095994326,None,182.29522095994326,None,,,,,,,,,,,124,30,Male,2022-05-10_09h46.26.554,Boat,2022.1.1,59.973899355749886,
negative,negative,1,j,l,,,,,,,,,0,2,2,0,,,,,,,,,,,,,,,,,,,,,,,,main,2,2,1,negative,negative,j,j,1,0.921860900009051,182.31297129997984,183.334337499924,183.2952904999256,None,182.31297129997984,None,182.31297129997984,None,182.31297129997984,None,184.22013985995437,None,184.22013985995437,None,184.22013985995437,None,,,,,,,,,,,124,30,Male,2022-05-10_09h46.26.554,Boat,2022.1.1,59.973899355749886,
positive,positive,2,l,j,,,,,,,,,0,3,3,11,,,,,,,,,,,,,,,,,,,,,,,,main,1,1,2,positive,positive,l,l,1,0.7902517000911757,184.24046659993473,185.24716609995812,185.22836279997136,None,184.24046659993473,None,184.24046659993473,None,184.24046659993473,None,186.01190156001832,None,186.01190156001832,None,186.01190156001832,None,,,,,,,,,,,124,30,Male,2022-05-10_09h46.26.554,Boat,2022.1.1,59.973899355749886,
negative,negative,2,j,l,,,,,,,,,0,4,4,9,,,,,,,,,,,,,,,,,,,,,,,,main,2,2,2,negative,negative,j,j,1,0.8102216999977827,186.03151999996044,187.04351859993767,187.0234583999263,None,186.03151999996044,None,186.03151999996044,None,186.03151999996044,None,187.82671255992028,None,187.82671255992028,None,187.82671255992028,None,,,,,,,,,,,124,30,Male,2022-05-10_09h46.26.554,Boat,2022.1.1,59.973899355749886,
positive,neutral,2,l,j,,,,,,,,,0,5,5,17,,,,,,,,,,,,,,,,,,,,,,,,main,1,1,2,neutral,positive,l,l,1,0.7484517000848427,187.84825489996,188.86124389991164,188.84092639992014,None,187.84825489996,None,187.84825489996,None,187.84825489996,None,189.57853945997778,None,189.57853945997778,None,189.57853945997778,None,,,,,,,,,,,124,30,Male,2022-05-10_09h46.26.554,Boat,2022.1.1,59.973899355749886,
positive,negative,1,l,j,,,,,,,,,0,6,6,5,,,,,,,,,,,,,,,,,,,,,,,,main,1,1,1,negative,positive,l,l,1,1.3360734999878332,189.5986293000169,190.61476049991325,190.5787642999785,None,189.5986293000169,None,189.5986293000169,None,189.5986293000169,None,191.9189026599168,None,191.9189026599168,None,191.9189026599168,None,,,,,,,,,,,124,30,Male,2022-05-10_09h46.26.554,Boat,2022.1.1,59.973899355749886,
negative,positive,2,j,l,,,,,,,,,0,7,7,15,,,,,,,,,,,,,,,,,,,,,,,,main,1,1,2,positive,negative,j,j,1,0.8602535999380052,191.93628439994063,192.95358520001173,192.91207590000704,None,191.93628439994063,None,191.93628439994063,None,191.93628439994063,None,193.77950045991457,None,193.77950045991457,None,193.77950045991457,None,,,,,,,,,,,124,30,Male,2022-05-10_09h46.26.554,Boat,2022.1.1,59.973899355749886,
positive,negative,2,l,j,,,,,,,,,0,8,8,14,,,,,,,,,,,,,,,,,,,,,,,,main,1,1,2,negative,positive,l,l,1,0.9120346999261528,193.7990475000115,194.81213739991654,194.77397669991478,None,193.7990475000115,None,193.7990475000115,None,193.7990475000115,None,195.69566445996753,None,195.69566445996753,None,195.69566445996753,None,,,,,,,,,,,124,30,Male,2022-05-10_09h46.26.554,Boat,2022.1.1,59.973899355749886,
negative,neutral,1,j,l,,,,,,,,,0,9,9,3,,,,,,,,,,,,,,,,,,,,,,,,main,1,1,1,neutral,negative,j,j,1,0.9311884000198916,195.71336159994826,196.72069029998966,196.69947190000676,None,195.71336159994826,None,195.71336159994826,None,195.71336159994826,None,197.6290815599612,None,197.6290815599612,None,197.6290815599612,None,,,,,,,,,,,124,30,Male,2022-05-10_09h46.26.554,Boat,2022.1.1,59.973899355749886,
negative,neutral,2,j,l,,,,,,,,,0,10,10,12,,,,,,,,,,,,,,,,,,,,,,,,main,1,1,2,neutral,negative,j,j,1,0.7996231999713928,197.64885469991714,198.65733830002137,198.6373595999321,None,197.64885469991714,None,197.64885469991714,None,197.64885469991714,None,199.43162435992855,None,199.43162435992855,None,199.43162435992855,None,,,,,,,,,,,124,30,Male,2022-05-10_09h46.26.554,Boat,2022.1.1,59.973899355749886,
negative,positive,1,j,l,,,,,,,,,0,11,11,6,,,,,,,,,,,,,,,,,,,,,,,,main,2,2,1,positive,negative,j,j,1,0.7407644001068547,199.4513857999118,200.46355659991968,200.4288111999631,None,199.4513857999118,None,199.4513857999118,None,199.4513857999118,None,201.17677555991105,None,201.17677555991105,None,201.17677555991105,None,,,,,,,,,,,124,30,Male,2022-05-10_09h46.26.554,Boat,2022.1.1,59.973899355749886,
neutral,neutral,1,k,k,,,,,,,,,0,12,12,1,,,,,,,,,,,,,,,,,,,,,,,,main,1,1,1,neutral,neutral,k,k,1,0.8438241999829188,201.19546089996584,202.2104474999942,202.19056499993894,None,201.19546089996584,None,201.19546089996584,None,201.19546089996584,None,203.02392985998887,None,203.02392985998887,None,203.02392985998887,None,,,,,,,,,,,124,30,Male,2022-05-10_09h46.26.554,Boat,2022.1.1,59.973899355749886,
neutral,neutral,2,k,k,,,,,,,,,0,13,13,10,,,,,,,,,,,,,,,,,,,,,,,,main,2,2,2,neutral,neutral,k,k,1,0.7340377999935299,203.0441575999139,204.05890439997893,204.01845069997944,None,203.0441575999139,None,203.0441575999139,None,203.0441575999139,None,204.76098895993783,None,204.76098895993783,None,204.76098895993783,None,,,,,,,,,,,124,30,Male,2022-05-10_09h46.26.554,Boat,2022.1.1,59.973899355749886,
neutral,negative,2,k,k,,,,,,,,,0,14,14,16,,,,,,,,,,,,,,,,,,,,,,,,main,1,1,2,negative,neutral,k,k,1,0.6864529000595212,204.78060459997505,205.79186739993747,205.76966619992163,None,204.78060459997505,None,204.78060459997505,None,204.78060459997505,None,206.44961486001267,None,206.44961486001267,None,206.44961486001267,None,,,,,,,,,,,124,30,Male,2022-05-10_09h46.26.554,Boat,2022.1.1,59.973899355749886,
neutral,negative,1,k,k,,,,,,,,,0,15,15,7,,,,,,,,,,,,,,,,,,,,,,,,main,1,1,1,negative,neutral,k,k,1,0.809252200066112,206.46941119991243,207.4864809999708,207.44597310002428,None,206.46941119991243,None,206.46941119991243,None,206.46941119991243,None,208.2622738599428,None,208.2622738599428,None,208.2622738599428,None,,,,,,,,,,,124,30,Male,2022-05-10_09h46.26.554,Boat,2022.1.1,59.973899355749886,
positive,positive,1,l,j,,,,,,,,,0,16,16,2,,,,,,,,,,,,,,,,,,,,,,,,main,2,2,1,positive,positive,l,l,1,0.8811006000032648,208.28193840000313,209.2864402999403,209.26721929991618,None,208.28193840000313,None,208.28193840000313,None,208.28193840000313,None,210.14618176001824,None,210.14618176001824,None,210.14618176001824,None,,,,,,,,,,,124,30,Male,2022-05-10_09h46.26.554,Boat,2022.1.1,59.973899355749886,
neutral,positive,2,k,k,,,,,,,,,0,17,17,13,,,,,,,,,,,,,,,,,,,,,,,,main,2,2,2,positive,neutral,k,k,1,0.818465800024569,210.16593819996342,211.18090759997722,211.14223549992312,None,210.16593819996342,None,210.16593819996342,None,210.16593819996342,None,211.9677623600117,None,211.9677623600117,None,211.9677623600117,None,,,,,,,,,,,124,30,Male,2022-05-10_09h46.26.554,Boat,2022.1.1,59.973899355749886,
neutral,neutral,1,k,k,,,,,,,,,1,0,18,1,,,,,,,,,,,,,,,,,,,,,,,,main,2,2,1,neutral,neutral,k,k,1,0.7230692999437451,211.98561799991876,212.99516199994832,212.97411950002424,None,211.98561799991876,None,211.98561799991876,None,211.98561799991876,None,213.69474255993265,None,213.69474255993265,None,213.69474255993265,None,,,,,,,,,,,124,30,Male,2022-05-10_09h46.26.554,Boat,2022.1.1,59.973899355749886,
positive,negative,2,l,j,,,,,,,,,1,1,19,14,,,,,,,,,,,,,,,,,,,,,,,,main,2,2,2,negative,positive,l,l,1,0.8267886999528855,213.71206699998584,214.72725390002597,214.7073054999346,None,213.71206699998584,None,213.71206699998584,None,213.71206699998584,None,215.52509675991024,None,215.52509675991024,None,215.52509675991024,None,,,,,,,,,,,124,30,Male,2022-05-10_09h46.26.554,Boat,2022.1.1,59.973899355749886,
positive,neutral,1,l,j,,,,,,,,,1,2,20,8,,,,,,,,,,,,,,,,,,,,,,,,main,1,1,1,neutral,positive,l,l,1,0.7442283000564203,215.54568659991492,216.56251560000237,216.52438189997338,None,215.54568659991492,None,215.54568659991492,None,215.54568659991492,None,217.2706555599696,None,217.2706555599696,None,217.2706555599696,None,,,,,,,,,,,124,30,Male,2022-05-10_09h46.26.554,Boat,2022.1.1,59.973899355749886,
neutral,neutral,2,k,k,,,,,,,,,1,3,21,10,,,,,,,,,,,,,,,,,,,,,,,,main,2,2,2,neutral,neutral,k,k,1,0.7926851999945939,217.29240999999456,218.30168219993357,218.2655563999433,None,217.29240999999456,None,217.29240999999456,None,217.29240999999456,None,219.06395685999888,None,219.06395685999888,None,219.06395685999888,None,,,,,,,,,,,124,30,Male,2022-05-10_09h46.26.554,Boat,2022.1.1,59.973899355749886,
positive,neutral,2,l,j,,,,,,,,,1,4,22,17,,,,,,,,,,,,,,,,,,,,,,,,main,2,2,2,neutral,positive,l,l,1,0.8268046999583021,219.0893210999202,220.09453200001735,220.07380899996497,None,219.0893210999202,None,219.0893210999202,None,219.0893210999202,None,220.89626685996774,None,220.89626685996774,None,220.89626685996774,None,,,,,,,,,,,124,30,Male,2022-05-10_09h46.26.554,Boat,2022.1.1,59.973899355749886,
positive,positive,1,l,j,,,,,,,,,1,5,23,2,,,,,,,,,,,,,,,,,,,,,,,,main,2,2,1,positive,positive,l,l,1,0.7971469000913203,220.91508529998828,221.92883180000354,221.9077523999149,None,220.91508529998828,None,220.91508529998828,None,220.91508529998828,None,222.6964500600123,None,222.6964500600123,None,222.6964500600123,None,,,,,,,,,,,124,30,Male,2022-05-10_09h46.26.554,Boat,2022.1.1,59.973899355749886,
negative,negative,2,j,l,,,,,,,,,1,6,24,9,,,,,,,,,,,,,,,,,,,,,,,,main,1,1,2,negative,negative,j,j,1,0.8634893000125885,222.7156555999536,223.72946389997378,223.70867740001995,None,222.7156555999536,None,222.7156555999536,None,222.7156555999536,None,224.56284625992413,None,224.56284625992413,None,224.56284625992413,None,,,,,,,,,,,124,30,Male,2022-05-10_09h46.26.554,Boat,2022.1.1,59.973899355749886,
positive,negative,1,l,j,,,,,,,,,1,7,25,5,,,,,,,,,,,,,,,,,,,,,,,,main,2,2,1,negative,positive,l,l,1,0.9139175000600517,224.5822390000103,225.59980409999844,225.56334330001846,None,224.5822390000103,None,224.5822390000103,None,224.5822390000103,None,226.4794570600032,None,226.4794570600032,None,226.4794570600032,None,,,,,,,,,,,124,30,Male,2022-05-10_09h46.26.554,Boat,2022.1.1,59.973899355749886,
negative,positive,1,j,l,,,,,,,,,1,8,26,6,,,,,,,,,,,,,,,,,,,,,,,,main,1,1,1,positive,negative,j,j,1,0.9659218000015244,226.4990659999894,227.51303889998235,227.47805289993994,None,226.4990659999894,None,226.4990659999894,None,226.4990659999894,None,228.44883835992079,None,228.44883835992079,None,228.44883835992079,None,,,,,,,,,,,124,30,Male,2022-05-10_09h46.26.554,Boat,2022.1.1,59.973899355749886,
neutral,positive,1,k,k,,,,,,,,,1,9,27,4,,,,,,,,,,,,,,,,,,,,,,,,main,2,2,1,positive,neutral,k,k,1,0.7818519999273121,228.46617139992304,229.48010019992944,229.4449398999568,None,228.46617139992304,None,228.46617139992304,None,228.46617139992304,None,230.23266335997033,None,230.23266335997033,None,230.23266335997033,None,,,,,,,,,,,124,30,Male,2022-05-10_09h46.26.554,Boat,2022.1.1,59.973899355749886,
negative,neutral,2,j,l,,,,,,,,,1,10,28,12,,,,,,,,,,,,,,,,,,,,,,,,main,1,1,2,neutral,negative,j,j,1,0.7672923000063747,230.252288699965,231.25481910002418,231.23468599992339,None,230.252288699965,None,230.252288699965,None,230.252288699965,None,232.00519725995838,None,232.00519725995838,None,232.00519725995838,None,,,,,,,,,,,124,30,Male,2022-05-10_09h46.26.554,Boat,2022.1.1,59.973899355749886,
positive,positive,2,l,j,,,,,,,,,1,11,29,11,,,,,,,,,,,,,,,,,,,,,,,,main,2,2,2,positive,positive,l,l,1,0.7804525999817997,232.0228124000132,233.02853509993292,233.00785419996828,None,232.0228124000132,None,232.0228124000132,None,232.0228124000132,None,233.78453385994072,None,233.78453385994072,None,233.78453385994072,None,,,,,,,,,,,124,30,Male,2022-05-10_09h46.26.554,Boat,2022.1.1,59.973899355749886,
negative,negative,1,j,l,,,,,,,,,1,12,30,0,,,,,,,,,,,,,,,,,,,,,,,,main,2,2,1,negative,negative,j,j,1,0.8074799999594688,233.80438440002035,234.81636209995486,234.77981969993562,None,233.80438440002035,None,233.80438440002035,None,233.80438440002035,None,235.59713905992686,None,235.59713905992686,None,235.59713905992686,None,,,,,,,,,,,124,30,Male,2022-05-10_09h46.26.554,Boat,2022.1.1,59.973899355749886,
neutral,negative,1,k,k,,,,,,,,,1,13,31,7,,,,,,,,,,,,,,,,,,,,,,,,main,2,2,1,negative,neutral,k,k,1,0.718419500044547,235.61574729997665,236.63265149993822,236.59761970001273,None,235.61574729997665,None,235.61574729997665,None,235.61574729997665,None,237.3180588599178,None,237.3180588599178,None,237.3180588599178,None,,,,,,,,,,,124,30,Male,2022-05-10_09h46.26.554,Boat,2022.1.1,59.973899355749886,
neutral,positive,2,k,k,,,,,,,,,1,14,32,13,,,,,,,,,,,,,,,,,,,,,,,,main,1,1,2,positive,neutral,k,k,1,0.6969732999568805,237.33578650001436,238.34555630001705,238.3248784999596,None,237.33578650001436,None,237.33578650001436,None,237.33578650001436,None,239.01791445993587,None,239.01791445993587,None,239.01791445993587,None,,,,,,,,,,,124,30,Male,2022-05-10_09h46.26.554,Boat,2022.1.1,59.973899355749886,
negative,positive,2,j,l,,,,,,,,,1,15,33,15,,,,,,,,,,,,,,,,,,,,,,,,main,1,1,2,positive,negative,j,j,1,0.7409128000726923,239.03573639993556,240.0413882000139,240.02134169999044,None,239.03573639993556,None,239.03573639993556,None,239.03573639993556,None,240.76109545993387,None,240.76109545993387,None,240.76109545993387,None,,,,,,,,,,,124,30,Male,2022-05-10_09h46.26.554,Boat,2022.1.1,59.973899355749886,
negative,neutral,1,j,l,,,,,,,,,1,16,34,3,,,,,,,,,,,,,,,,,,,,,,,,main,1,1,1,neutral,negative,j,j,1,0.7808839000063017,240.78019860002678,241.7797053999966,241.763071399997,None,240.78019860002678,None,240.78019860002678,None,240.78019860002678,None,242.5469491599477,None,242.5469491599477,None,242.5469491599477,None,,,,,,,,,,,124,30,Male,2022-05-10_09h46.26.554,Boat,2022.1.1,59.973899355749886,
neutral,negative,2,k,k,,,,,,,,,1,17,35,16,,,,,,,,,,,,,,,,,,,,,,,,main,1,1,2,negative,neutral,k,k,1,0.7393255999777466,242.5636114999652,243.56521339993924,243.5469352999935,None,242.5636114999652,None,242.5636114999652,None,242.5636114999652,None,244.28960226000055,None,244.28960226000055,None,244.28960226000055,None,,,,,,,,,,,124,30,Male,2022-05-10_09h46.26.554,Boat,2022.1.1,59.973899355749886,
positive,negative,1,l,j,,,,,,,,,2,0,36,5,,,,,,,,,,,,,,,,,,,,,,,,main,1,1,1,negative,positive,l,l,1,0.815964600071311,244.30792479997035,245.31752689997666,245.2820501999231,None,244.30792479997035,None,244.30792479997035,None,244.30792479997035,None,246.1075889599859,None,246.1075889599859,None,246.1075889599859,None,,,,,,,,,,,124,30,Male,2022-05-10_09h46.26.554,Boat,2022.1.1,59.973899355749886,
positive,positive,2,l,j,,,,,,,,,2,1,37,11,,,,,,,,,,,,,,,,,,,,,,,,main,1,1,2,positive,positive,l,l,1,0.724322099937126,246.12944950000383,247.14671369991265,247.1081996000139,None,246.12944950000383,None,246.12944950000383,None,246.12944950000383,None,247.83385275992333,None,247.83385275992333,None,247.83385275992333,None,,,,,,,,,,,124,30,Male,2022-05-10_09h46.26.554,Boat,2022.1.1,59.973899355749886,
negative,positive,1,j,l,,,,,,,,,2,2,38,6,,,,,,,,,,,,,,,,,,,,,,,,main,1,1,1,positive,negative,j,j,1,0.8053940999088809,247.85315069998614,248.86443329998292,248.82944739994127,None,247.85315069998614,None,247.85315069998614,None,247.85315069998614,None,249.64452505997616,None,249.64452505997616,None,249.64452505997616,None,,,,,,,,,,,124,30,Male,2022-05-10_09h46.26.554,Boat,2022.1.1,59.973899355749886,
negative,neutral,2,j,l,,,,,,,,,2,3,39,12,,,,,,,,,,,,,,,,,,,,,,,,main,2,2,2,neutral,negative,j,j,1,0.7731402000645176,249.66348490002565,250.6635964999441,250.64671419991646,None,249.66348490002565,None,249.66348490002565,None,249.66348490002565,None,251.42130885996158,None,251.42130885996158,None,251.42130885996158,None,,,,,,,,,,,124,30,Male,2022-05-10_09h46.26.554,Boat,2022.1.1,59.973899355749886,
negative,negative,2,j,l,,,,,,,,,2,4,40,9,,,,,,,,,,,,,,,,,,,,,,,,main,1,1,2,negative,negative,j,j,1,0.6476724999956787,251.43904319999274,252.45126160001382,252.41605659993365,None,251.43904319999274,None,251.43904319999274,None,251.43904319999274,None,253.07144815999783,None,253.07144815999783,None,253.07144815999783,None,,,,,,,,,,,124,30,Male,2022-05-10_09h46.26.554,Boat,2022.1.1,59.973899355749886,
neutral,negative,2,k,k,,,,,,,,,2,5,41,16,,,,,,,,,,,,,,,,,,,,,,,,main,2,2,2,negative,neutral,k,k,1,0.7325424000155181,253.09271729993634,254.1219963999465,254.0746194999665,None,253.09271729993634,None,253.09271729993634,None,253.09271729993634,None,254.8065194599447,None,254.8065194599447,None,254.8065194599447,None,,,,,,,,,,,124,30,Male,2022-05-10_09h46.26.554,Boat,2022.1.1,59.973899355749886,
positive,neutral,2,l,j,,,,,,,,,2,6,42,17,,,,,,,,,,,,,,,,,,,,,,,,main,1,1,2,neutral,positive,l,l,1,0.7116509000770748,254.82524489995558,255.82753309991676,255.80819210002664,None,254.82524489995558,None,254.82524489995558,None,254.82524489995558,None,256.5204856599565,None,256.5204856599565,None,256.5204856599565,None,,,,,,,,,,,124,30,Male,2022-05-10_09h46.26.554,Boat,2022.1.1,59.973899355749886,
positive,neutral,1,l,j,,,,,,,,,2,7,43,8,,,,,,,,,,,,,,,,,,,,,,,,main,1,1,1,neutral,positive,l,l,1,0.7825564000522718,256.53945379995275,257.54815789998975,257.513655000017,None,256.53945379995275,None,256.53945379995275,None,256.53945379995275,None,258.30619046000066,None,258.30619046000066,None,258.30619046000066,None,,,,,,,,,,,124,30,Male,2022-05-10_09h46.26.554,Boat,2022.1.1,59.973899355749886,
neutral,positive,2,k,k,,,,,,,,,2,8,44,13,,,,,,,,,,,,,,,,,,,,,,,,main,2,2,2,positive,neutral,k,k,1,0.6998708000173792,258.32557589991484,259.33149399992544,259.29736279998906,None,258.32557589991484,None,258.32557589991484,None,258.32557589991484,None,260.0090801599552,None,260.0090801599552,None,260.0090801599552,None,,,,,,,,,,,124,30,Male,2022-05-10_09h46.26.554,Boat,2022.1.1,59.973899355749886,
positive,negative,2,l,j,,,,,,,,,2,9,45,14,,,,,,,,,,,,,,,,,,,,,,,,main,2,2,2,negative,positive,l,l,1,0.7696800999110565,260.0299827000126,261.0471771999728,261.0094069999177,None,260.0299827000126,None,260.0299827000126,None,260.0299827000126,None,261.7801552600111,None,261.7801552600111,None,261.7801552600111,None,,,,,,,,,,,124,30,Male,2022-05-10_09h46.26.554,Boat,2022.1.1,59.973899355749886,
negative,positive,2,j,l,,,,,,,,,2,10,46,15,,,,,,,,,,,,,,,,,,,,,,,,main,1,1,2,positive,negative,j,j,1,0.8393982999259606,261.7998640999431,262.8137576999143,262.7753615999827,None,261.7998640999431,None,261.7998640999431,None,261.7998640999431,None,263.6243403599481,None,263.6243403599481,None,263.6243403599481,None,,,,,,,,,,,124,30,Male,2022-05-10_09h46.26.554,Boat,2022.1.1,59.973899355749886,
negative,neutral,1,j,l,,,,,,,,,2,11,47,3,,,,,,,,,,,,,,,,,,,,,,,,main,1,1,1,neutral,negative,j,j,1,0.754743600031361,263.6453977000201,264.66381810000166,264.6253058000002,None,263.6453977000201,None,263.6453977000201,None,263.6453977000201,None,265.38054066001206,None,265.38054066001206,None,265.38054066001206,None,,,,,,,,,,,124,30,Male,2022-05-10_09h46.26.554,Boat,2022.1.1,59.973899355749886,
neutral,negative,1,k,k,,,,,,,,,2,12,48,7,,,,,,,,,,,,,,,,,,,,,,,,main,2,2,1,negative,neutral,k,k,1,0.8057182000484318,265.40165000001434,266.41662239993457,266.3807138999691,None,265.40165000001434,None,265.40165000001434,None,265.40165000001434,None,267.19050485991175,None,267.19050485991175,None,267.19050485991175,None,,,,,,,,,,,124,30,Male,2022-05-10_09h46.26.554,Boat,2022.1.1,59.973899355749886,
neutral,neutral,1,k,k,,,,,,,,,2,13,49,1,,,,,,,,,,,,,,,,,,,,,,,,main,2,2,1,neutral,neutral,k,k,1,0.6277621000772342,267.2115007999819,268.2152889999561,268.18072639999446,None,267.2115007999819,None,267.2115007999819,None,267.2115007999819,None,268.81878525997746,None,268.81878525997746,None,268.81878525997746,None,,,,,,,,,,,124,30,Male,2022-05-10_09h46.26.554,Boat,2022.1.1,59.973899355749886,
neutral,positive,1,k,k,,,,,,,,,2,14,50,4,,,,,,,,,,,,,,,,,,,,,,,,main,2,2,1,positive,neutral,k,k,1,0.7468801999930292,268.84043480001856,269.851266499958,269.81462269998156,None,268.84043480001856,None,268.84043480001856,None,268.84043480001856,None,270.56911305991235,None,270.56911305991235,None,270.56911305991235,None,,,,,,,,,,,124,30,Male,2022-05-10_09h46.26.554,Boat,2022.1.1,59.973899355749886,
positive,positive,1,l,j,,,,,,,,,2,15,51,2,,,,,,,,,,,,,,,,,,,,,,,,main,2,2,1,positive,positive,l,l,1,1.1684533999068663,270.5901146000251,271.60099009994883,271.5649079999421,None,270.5901146000251,None,270.5901146000251,None,270.5901146000251,None,272.7414971599472,None,272.7414971599472,None,272.7414971599472,None,,,,,,,,,,,124,30,Male,2022-05-10_09h46.26.554,Boat,2022.1.1,59.973899355749886,
negative,negative,1,j,l,,,,,,,,,2,16,52,0,,,,,,,,,,,,,,,,,,,,,,,,main,2,2,1,negative,negative,j,j,1,0.8873060999903828,272.7632466999348,273.76537079992704,273.7475288999267,None,272.7632466999348,None,272.7632466999348,None,272.7632466999348,None,274.6307195599773,None,274.6307195599773,None,274.6307195599773,None,,,,,,,,,,,124,30,Male,2022-05-10_09h46.26.554,Boat,2022.1.1,59.973899355749886,
neutral,neutral,2,k,k,,,,,,,,,2,17,53,10,,,,,,,,,,,,,,,,,,,,,,,,main,1,1,2,neutral,neutral,k,k,1,0.7561476000119001,274.64882469992153,275.6507388999453,275.6315213999478,None,274.64882469992153,None,274.64882469992153,None,274.64882469992153,None,276.3907121599303,None,276.3907121599303,None,276.3907121599303,None,,,,,,,,,,,124,30,Male,2022-05-10_09h46.26.554,Boat,2022.1.1,59.973899355749886,
negative,positive,2,j,l,,,,,,,,,3,0,54,15,,,,,,,,,,,,,,,,,,,,,,,,main,1,1,2,positive,negative,j,j,1,0.7710376000031829,276.41334540001117,277.42207299999427,277.3808431000216,None,276.41334540001117,None,276.41334540001117,None,276.41334540001117,None,278.164168459957,None,278.164168459957,None,278.164168459957,None,,,,,,,,,,,124,30,Male,2022-05-10_09h46.26.554,Boat,2022.1.1,59.973899355749886,
negative,neutral,1,j,l,,,,,,,,,3,1,55,3,,,,,,,,,,,,,,,,,,,,,,,,main,1,1,1,neutral,negative,j,j,1,0.9006319000618532,278.1830545000266,279.18765420001,279.1703150999965,None,278.1830545000266,None,278.1830545000266,None,278.1830545000266,None,280.06696986000753,None,280.06696986000753,None,280.06696986000753,None,,,,,,,,,,,124,30,Male,2022-05-10_09h46.26.554,Boat,2022.1.1,59.973899355749886,
negative,negative,2,j,l,,,,,,,,,3,2,56,9,,,,,,,,,,,,,,,,,,,,,,,,main,1,1,2,negative,negative,j,j,1,0.7976450999267399,280.08680699998513,281.0931276999181,281.07244739995804,None,280.08680699998513,None,280.08680699998513,None,280.08680699998513,None,281.8678355600103,None,281.8678355600103,None,281.8678355600103,None,,,,,,,,,,,124,30,Male,2022-05-10_09h46.26.554,Boat,2022.1.1,59.973899355749886,
neutral,negative,1,k,k,,,,,,,,,3,3,57,7,,,,,,,,,,,,,,,,,,,,,,,,main,2,2,1,negative,neutral,k,k,1,0.8170479999389499,281.88502579997294,282.90193329995964,282.86684299993794,None,281.88502579997294,None,281.88502579997294,None,281.88502579997294,None,283.68605035998627,None,283.68605035998627,None,283.68605035998627,None,,,,,,,,,,,124,30,Male,2022-05-10_09h46.26.554,Boat,2022.1.1,59.973899355749886,
positive,negative,2,l,j,,,,,,,,,3,4,58,14,,,,,,,,,,,,,,,,,,,,,,,,main,2,2,2,negative,positive,l,l,1,1.2132028000196442,283.70452249993104,284.71244239993393,284.69226169993635,None,283.70452249993104,None,283.70452249993104,None,283.70452249993104,None,285.9030046599335,None,285.9030046599335,None,285.9030046599335,None,,,,,,,,,,,124,30,Male,2022-05-10_09h46.26.554,Boat,2022.1.1,59.973899355749886,
neutral,positive,2,k,k,,,,,,,,,3,5,59,13,,,,,,,,,,,,,,,,,,,,,,,,main,2,2,2,positive,neutral,k,k,1,0.9311545999953523,285.9217404000228,286.9292545999633,286.909059299971,None,285.9217404000228,None,285.9217404000228,None,285.9217404000228,None,287.83818635997596,None,287.83818635997596,None,287.83818635997596,None,,,,,,,,,,,124,30,Male,2022-05-10_09h46.26.554,Boat,2022.1.1,59.973899355749886,
negative,neutral,2,j,l,,,,,,,,,3,6,60,12,,,,,,,,,,,,,,,,,,,,,,,,main,2,2,2,neutral,negative,j,j,1,0.7529895999468863,287.8558057999471,288.8627247000113,288.8423965999391,None,287.8558057999471,None,287.8558057999471,None,287.8558057999471,None,289.5934404599364,None,289.5934404599364,None,289.5934404599364,None,,,,,,,,,,,124,30,Male,2022-05-10_09h46.26.554,Boat,2022.1.1,59.973899355749886,
positive,negative,1,l,j,,,,,,,,,3,7,61,5,,,,,,,,,,,,,,,,,,,,,,,,main,2,2,1,negative,positive,l,l,1,0.8817727999994531,289.6135711999377,290.6294982000254,290.58782239991706,None,289.6135711999377,None,289.6135711999377,None,289.6135711999377,None,291.4780114599387,None,291.4780114599387,None,291.4780114599387,None,,,,,,,,,,,124,30,Male,2022-05-10_09h46.26.554,Boat,2022.1.1,59.973899355749886,
neutral,positive,1,k,k,,,,,,,,,3,8,62,4,,,,,,,,,,,,,,,,,,,,,,,,main,2,2,1,positive,neutral,k,k,1,0.7301196999615058,291.4974011000013,292.4975903999293,292.48029839992523,None,291.4974011000013,None,291.4974011000013,None,291.4974011000013,None,293.2114716599579,None,293.2114716599579,None,293.2114716599579,None,,,,,,,,,,,124,30,Male,2022-05-10_09h46.26.554,Boat,2022.1.1,59.973899355749886,
negative,negative,1,j,l,,,,,,,,,3,9,63,0,,,,,,,,,,,,,,,,,,,,,,,,main,1,1,1,negative,negative,j,j,1,1.1486779999686405,293.23058989993297,294.23470969998743,294.21684639994055,None,293.23058989993297,None,293.23058989993297,None,293.23058989993297,None,295.36415675993777,None,295.36415675993777,None,295.36415675993777,None,,,,,,,,,,,124,30,Male,2022-05-10_09h46.26.554,Boat,2022.1.1,59.973899355749886,
neutral,neutral,2,k,k,,,,,,,,,3,10,64,10,,,,,,,,,,,,,,,,,,,,,,,,main,1,1,2,neutral,neutral,k,k,1,0.7397719000000507,295.38239239994437,296.3984517999925,296.3639145999914,None,295.38239239994437,None,295.38239239994437,None,295.38239239994437,None,297.10777456000216,None,297.10777456000216,None,297.10777456000216,None,,,,,,,,,,,124,30,Male,2022-05-10_09h46.26.554,Boat,2022.1.1,59.973899355749886,
positive,neutral,2,l,j,,,,,,,,,3,11,65,17,,,,,,,,,,,,,,,,,,,,,,,,main,2,2,2,neutral,positive,l,l,1,0.8371867999667302,297.13027299998794,298.1454183999449,298.1260109000141,None,297.13027299998794,None,297.13027299998794,None,297.13027299998794,None,298.94780515996973,None,298.94780515996973,None,298.94780515996973,None,,,,,,,,,,,124,30,Male,2022-05-10_09h46.26.554,Boat,2022.1.1,59.973899355749886,
positive,positive,1,l,j,,,,,,,,,3,12,66,2,,,,,,,,,,,,,,,,,,,,,,,,main,2,2,1,positive,positive,l,l,1,0.8605316000757739,298.96760699991137,299.9811387999216,299.9426680000033,None,298.96760699991137,None,298.96760699991137,None,298.96760699991137,None,300.812995660014,None,300.812995660014,None,300.812995660014,None,,,,,,,,,,,124,30,Male,2022-05-10_09h46.26.554,Boat,2022.1.1,59.973899355749886,
positive,neutral,1,l,j,,,,,,,,,3,13,67,8,,,,,,,,,,,,,,,,,,,,,,,,main,1,1,1,neutral,positive,l,l,1,0.71252950001508,300.833941699937,301.84809669991955,301.8129053999437,None,300.833941699937,None,300.833941699937,None,300.833941699937,None,302.5294978600112,None,302.5294978600112,None,302.5294978600112,None,,,,,,,,,,,124,30,Male,2022-05-10_09h46.26.554,Boat,2022.1.1,59.973899355749886,
neutral,neutral,1,k,k,,,,,,,,,3,14,68,1,,,,,,,,,,,,,,,,,,,,,,,,main,1,1,1,neutral,neutral,k,k,1,0.7946355999447405,302.5474519999698,303.5480009999592,303.5311368999537,None,302.5474519999698,None,302.5474519999698,None,302.5474519999698,None,304.32496185997735,None,304.32496185997735,None,304.32496185997735,None,,,,,,,,,,,124,30,Male,2022-05-10_09h46.26.554,Boat,2022.1.1,59.973899355749886,
negative,positive,1,j,l,,,,,,,,,3,15,69,6,,,,,,,,,,,,,,,,,,,,,,,,main,2,2,1,positive,negative,j,j,1,0.8116361999418586,304.34683209995274,305.3726797000272,305.32602919999044,None,304.34683209995274,None,304.34683209995274,None,304.34683209995274,None,306.14157745999984,None,306.14157745999984,None,306.14157745999984,None,,,,,,,,,,,124,30,Male,2022-05-10_09h46.26.554,Boat,2022.1.1,59.973899355749886,
neutral,negative,2,k,k,,,,,,,,,3,16,70,16,,,,,,,,,,,,,,,,,,,,,,,,main,1,1,2,negative,neutral,k,k,1,0.6851967999245971,306.1636763999704,307.1646775000263,307.14802859991323,None,306.1636763999704,None,306.1636763999704,None,306.1636763999704,None,307.8303132599802,None,307.8303132599802,None,307.8303132599802,None,,,,,,,,,,,124,30,Male,2022-05-10_09h46.26.554,Boat,2022.1.1,59.973899355749886,
positive,positive,2,l,j,,,,,,,,,3,17,71,11,,,,,,,,,,,,,,,,,,,,,,,,main,1,1,2,positive,positive,l,l,1,0.7720888999756426,307.84779969998635,308.8625210999744,308.8428671999136,None,307.84779969998635,None,307.84779969998635,None,307.84779969998635,None,309.60596495996,None,309.60596495996,None,309.60596495996,None,,,,,,,,,,,124,30,Male,2022-05-10_09h46.26.554,Boat,2022.1.1,59.973899355749886,
positive,negative,2,l,j,,,,,,,,,4,0,72,14,,,,,,,,,,,,,,,,,,,,,,,,main,2,2,2,negative,positive,l,l,1,0.6660992000252008,309.6269688999746,310.63142400002107,310.61339630000293,None,309.6269688999746,None,309.6269688999746,None,309.6269688999746,None,311.2749936599401,None,311.2749936599401,None,311.2749936599401,None,,,,,,,,,,,124,30,Male,2022-05-10_09h46.26.554,Boat,2022.1.1,59.973899355749886,
neutral,neutral,1,k,k,,,,,,,,,4,1,73,1,,,,,,,,,,,,,,,,,,,,,,,,main,1,1,1,neutral,neutral,k,k,1,0.7112501000519842,311.2949737999588,312.309551000013,312.28961709991563,None,311.2949737999588,None,311.2949737999588,None,311.2949737999588,None,312.98919716001257,None,312.98919716001257,None,312.98919716001257,None,,,,,,,,,,,124,30,Male,2022-05-10_09h46.26.554,Boat,2022.1.1,59.973899355749886,
positive,positive,1,l,j,,,,,,,,,4,2,74,2,,,,,,,,,,,,,,,,,,,,,,,,main,2,2,1,positive,positive,l,l,1,0.7883467000210658,313.0074632000178,314.01477489992976,313.99741289997473,None,313.0074632000178,None,313.0074632000178,None,313.0074632000178,None,314.7786898599123,None,314.7786898599123,None,314.7786898599123,None,,,,,,,,,,,124,30,Male,2022-05-10_09h46.26.554,Boat,2022.1.1,59.973899355749886,
neutral,neutral,2,k,k,,,,,,,,,4,3,75,10,,,,,,,,,,,,,,,,,,,,,,,,main,1,1,2,neutral,neutral,k,k,1,0.7155865000095218,314.7988223999273,315.80070139991585,315.78256580000743,None,314.7988223999273,None,314.7988223999273,None,314.7988223999273,None,316.49812606001507,None,316.49812606001507,None,316.49812606001507,None,,,,,,,,,,,124,30,Male,2022-05-10_09h46.26.554,Boat,2022.1.1,59.973899355749886,
negative,neutral,2,j,l,,,,,,,,,4,4,76,12,,,,,,,,,,,,,,,,,,,,,,,,main,1,1,2,neutral,negative,j,j,1,0.8248695000074804,316.5170783000067,317.53156679996755,317.49809919996187,None,316.5170783000067,None,316.5170783000067,None,316.5170783000067,None,318.3272217599559,None,318.3272217599559,None,318.3272217599559,None,,,,,,,,,,,124,30,Male,2022-05-10_09h46.26.554,Boat,2022.1.1,59.973899355749886,
positive,negative,1,l,j,,,,,,,,,4,5,77,5,,,,,,,,,,,,,,,,,,,,,,,,main,2,2,1,negative,positive,l,l,1,0.7933334000408649,318.34802839998156,319.34865219995845,319.33179750002455,None,318.34802839998156,None,318.34802839998156,None,318.34802839998156,None,320.1216545599862,None,320.1216545599862,None,320.1216545599862,None,,,,,,,,,,,124,30,Male,2022-05-10_09h46.26.554,Boat,2022.1.1,59.973899355749886,
negative,neutral,1,j,l,,,,,,,,,4,6,78,3,,,,,,,,,,,,,,,,,,,,,,,,main,2,2,1,neutral,negative,j,j,1,0.9841832000529394,320.1406922999304,321.1490994999185,321.1317565999925,None,320.1406922999304,None,320.1406922999304,None,320.1406922999304,None,322.10988805991366,None,322.10988805991366,None,322.10988805991366,None,,,,,,,,,,,124,30,Male,2022-05-10_09h46.26.554,Boat,2022.1.1,59.973899355749886,
neutral,positive,2,k,k,,,,,,,,,4,7,79,13,,,,,,,,,,,,,,,,,,,,,,,,main,1,1,2,positive,neutral,k,k,1,0.7653648999985307,322.13041480001993,323.147569200024,323.1268615999725,None,322.13041480001993,None,322.13041480001993,None,322.13041480001993,None,323.87883015990957,None,323.87883015990957,None,323.87883015990957,None,,,,,,,,,,,124,30,Male,2022-05-10_09h46.26.554,Boat,2022.1.1,59.973899355749886,
negative,positive,2,j,l,,,,,,,,,4,8,80,15,,,,,,,,,,,,,,,,,,,,,,,,main,2,2,2,positive,negative,j,j,1,0.8300294999498874,323.8979817000218,324.9148686999688,324.89400739991106,None,323.8979817000218,None,323.8979817000218,None,323.8979817000218,None,325.71218875994674,None,325.71218875994674,None,325.71218875994674,None,,,,,,,,,,,124,30,Male,2022-05-10_09h46.26.554,Boat,2022.1.1,59.973899355749886,
neutral,positive,1,k,k,,,,,,,,,4,9,81,4,,,,,,,,,,,,,,,,,,,,,,,,main,1,1,1,positive,neutral,k,k,1,0.754747899947688,325.7317774000112,326.7503468999639,326.71019120002165,None,325.7317774000112,None,325.7317774000112,None,325.7317774000112,None,327.4697068599169,None,327.4697068599169,None,327.4697068599169,None,,,,,,,,,,,124,30,Male,2022-05-10_09h46.26.554,Boat,2022.1.1,59.973899355749886,
negative,negative,1,j,l,,,,,,,,,4,10,82,0,,,,,,,,,,,,,,,,,,,,,,,,main,2,2,1,negative,negative,j,j,1,0.8691842000698671,327.49371379998047,328.5053393000271,328.46821069996804,None,327.49371379998047,None,327.49371379998047,None,327.49371379998047,None,329.34461365990575,None,329.34461365990575,None,329.34461365990575,None,,,,,,,,,,,124,30,Male,2022-05-10_09h46.26.554,Boat,2022.1.1,59.973899355749886,
negative,negative,2,j,l,,,,,,,,,4,11,83,9,,,,,,,,,,,,,,,,,,,,,,,,main,2,2,2,negative,negative,j,j,1,0.699798799934797,329.3636547999922,330.36570849991404,330.33170099998824,None,329.3636547999922,None,329.3636547999922,None,329.3636547999922,None,331.0464617599617,None,331.0464617599617,None,331.0464617599617,None,,,,,,,,,,,124,30,Male,2022-05-10_09h46.26.554,Boat,2022.1.1,59.973899355749886,
neutral,negative,2,k,k,,,,,,,,,4,12,84,16,,,,,,,,,,,,,,,,,,,,,,,,main,1,1,2,negative,neutral,k,k,1,0.795353600056842,331.06520800001454,332.06659599998966,332.0485170999309,None,331.06520800001454,None,331.06520800001454,None,331.06520800001454,None,332.8460476599983,None,332.8460476599983,None,332.8460476599983,None,,,,,,,,,,,124,30,Male,2022-05-10_09h46.26.554,Boat,2022.1.1,59.973899355749886,
positive,neutral,2,l,j,,,,,,,,,4,13,85,17,,,,,,,,,,,,,,,,,,,,,,,,main,1,1,2,neutral,positive,l,l,1,0.8569958000443876,332.8638940999517,333.86775370000396,333.850142100011,None,332.8638940999517,None,332.8638940999517,None,332.8638940999517,None,334.7036764599732,None,334.7036764599732,None,334.7036764599732,None,,,,,,,,,,,124,30,Male,2022-05-10_09h46.26.554,Boat,2022.1.1,59.973899355749886,
positive,positive,2,l,j,,,,,,,,,4,14,86,11,,,,,,,,,,,,,,,,,,,,,,,,main,2,2,2,positive,positive,l,l,1,0.8694642999907956,334.7268374999985,335.73682989994995,335.7178889999632,None,334.7268374999985,None,334.7268374999985,None,334.7268374999985,None,336.578887059947,None,336.578887059947,None,336.578887059947,None,,,,,,,,,,,124,30,Male,2022-05-10_09h46.26.554,Boat,2022.1.1,59.973899355749886,
positive,neutral,1,l,j,,,,,,,,,4,15,87,8,,,,,,,,,,,,,,,,,,,,,,,,main,2,2,1,neutral,positive,l,l,1,0.8476731999544427,336.5985404999228,337.6169893000042,337.58062859997153,None,336.5985404999228,None,336.5985404999228,None,336.5985404999228,None,338.4305681599188,None,338.4305681599188,None,338.4305681599188,None,,,,,,,,,,,124,30,Male,2022-05-10_09h46.26.554,Boat,2022.1.1,59.973899355749886,
neutral,negative,1,k,k,,,,,,,,,4,16,88,7,,,,,,,,,,,,,,,,,,,,,,,,main,1,1,1,negative,neutral,k,k,1,0.7733401999576017,338.4510388999479,339.4673746000044,339.4320504999487,None,338.4510388999479,None,338.4510388999479,None,338.4510388999479,None,340.20940065990436,None,340.20940065990436,None,340.20940065990436,None,,,,,,,,,,,124,30,Male,2022-05-10_09h46.26.554,Boat,2022.1.1,59.973899355749886,
negative,positive,1,j,l,,,,,,,,,4,17,89,6,,,,,,,,,,,,,,,,,,,,,,,,main,2,2,1,positive,negative,j,j,1,0.9243362999986857,340.22767589997966,341.2405866999179,341.2135058999993,None,340.22767589997966,None,340.22767589997966,None,340.22767589997966,None,342.1342491599615,None,342.1342491599615,None,342.1342491599615,None,,,,,,,,,,,124,30,Male,2022-05-10_09h46.26.554,Boat,2022.1.1,59.973899355749886,
positive,positive,2,l,j,,,,,,,,,5,0,90,11,,,,,,,,,,,,,,,,,,,,,,,,main,2,2,2,positive,positive,l,l,1,1.3911785999080166,342.1555118999677,343.16452599992044,343.1437263999833,None,342.1555118999677,None,342.1555118999677,None,342.1555118999677,None,344.53058765992756,None,344.53058765992756,None,344.53058765992756,None,,,,,,,,,,,124,30,Male,2022-05-10_09h46.26.554,Boat,2022.1.1,59.973899355749886,
positive,neutral,2,l,j,,,,,,,,,5,1,91,17,,,,,,,,,,,,,,,,,,,,,,,,main,2,2,2,neutral,positive,l,l,1,0.769142400007695,344.5503188999137,345.56727230001707,345.53256700001657,None,344.5503188999137,None,344.5503188999137,None,344.5503188999137,None,346.3020361599163,None,346.3020361599163,None,346.3020361599163,None,,,,,,,,,,,124,30,Male,2022-05-10_09h46.26.554,Boat,2022.1.1,59.973899355749886,
negative,negative,2,j,l,,,,,,,,,5,2,92,9,,,,,,,,,,,,,,,,,,,,,,,,main,1,1,2,negative,negative,j,j,1,0.8594166999682784,346.3220534999855,347.34347800002433,347.29873119993135,None,346.3220534999855,None,346.3220534999855,None,346.3220534999855,None,348.1655260599335,None,348.1655260599335,None,348.1655260599335,None,,,,,,,,,,,124,30,Male,2022-05-10_09h46.26.554,Boat,2022.1.1,59.973899355749886,
neutral,positive,2,k,k,,,,,,,,,5,3,93,13,,,,,,,,,,,,,,,,,,,,,,,,main,1,1,2,positive,neutral,k,k,1,0.7368868000339717,348.1850608999375,349.19988279999234,349.16562510002404,None,348.1850608999375,None,348.1850608999375,None,348.1850608999375,None,349.9057306599687,None,349.9057306599687,None,349.9057306599687,None,,,,,,,,,,,124,30,Male,2022-05-10_09h46.26.554,Boat,2022.1.1,59.973899355749886,
positive,negative,2,l,j,,,,,,,,,5,4,94,14,,,,,,,,,,,,,,,,,,,,,,,,main,1,1,2,negative,positive,l,l,1,0.7391290001105517,349.93140889995266,350.9357454000274,350.91781599994283,None,349.93140889995266,None,349.93140889995266,None,349.93140889995266,None,351.6472811600077,None,351.6472811600077,None,351.6472811600077,None,,,,,,,,,,,124,30,Male,2022-05-10_09h46.26.554,Boat,2022.1.1,59.973899355749886,
negative,negative,1,j,l,,,,,,,,,5,5,95,0,,,,,,,,,,,,,,,,,,,,,,,,main,1,1,1,negative,negative,j,j,1,0.8737510000355542,351.66928839997854,352.6771917999722,352.65735509991646,None,351.66928839997854,None,351.66928839997854,None,351.66928839997854,None,353.52625035996317,None,353.52625035996317,None,353.52625035996317,None,,,,,,,,,,,124,30,Male,2022-05-10_09h46.26.554,Boat,2022.1.1,59.973899355749886,
negative,neutral,2,j,l,,,,,,,,,5,6,96,12,,,,,,,,,,,,,,,,,,,,,,,,main,1,1,2,neutral,negative,j,j,1,0.7210721999872476,353.544044499984,354.55063620000146,354.53214299993124,None,353.544044499984,None,353.544044499984,None,353.544044499984,None,355.2490568600013,None,355.2490568600013,None,355.2490568600013,None,,,,,,,,,,,124,30,Male,2022-05-10_09h46.26.554,Boat,2022.1.1,59.973899355749886,
neutral,neutral,1,k,k,,,,,,,,,5,7,97,1,,,,,,,,,,,,,,,,,,,,,,,,main,2,2,1,neutral,neutral,k,k,1,0.7434030000586063,355.2672535999445,356.2809192999266,356.2610521999886,None,355.2672535999445,None,355.2672535999445,None,355.2672535999445,None,356.996261360019,None,356.996261360019,None,356.996261360019,None,,,,,,,,,,,124,30,Male,2022-05-10_09h46.26.554,Boat,2022.1.1,59.973899355749886,
negative,positive,1,j,l,,,,,,,,,5,8,98,6,,,,,,,,,,,,,,,,,,,,,,,,main,2,2,1,positive,negative,j,j,1,0.7656353999627754,357.0147633999586,358.03326509997714,357.9940826999955,None,357.0147633999586,None,357.0147633999586,None,357.0147633999586,None,358.7651377599803,None,358.7651377599803,None,358.7651377599803,None,,,,,,,,,,,124,30,Male,2022-05-10_09h46.26.554,Boat,2022.1.1,59.973899355749886,
negative,neutral,1,j,l,,,,,,,,,5,9,99,3,,,,,,,,,,,,,,,,,,,,,,,,main,1,1,1,neutral,negative,j,j,1,0.6867704000324011,358.7834807999898,359.7992363999365,359.7640485999873,None,358.7834807999898,None,358.7834807999898,None,358.7834807999898,None,360.45449505992,None,360.45449505992,None,360.45449505992,None,,,,,,,,,,,124,30,Male,2022-05-10_09h46.26.554,Boat,2022.1.1,59.973899355749886,
negative,positive,2,j,l,,,,,,,,,5,10,100,15,,,,,,,,,,,,,,,,,,,,,,,,main,2,2,2,positive,negative,j,j,1,0.648256600019522,360.47259010002017,361.48387290001847,361.44920379994437,None,360.47259010002017,None,360.47259010002017,None,360.47259010002017,None,362.10674615997124,None,362.10674615997124,None,362.10674615997124,None,,,,,,,,,,,124,30,Male,2022-05-10_09h46.26.554,Boat,2022.1.1,59.973899355749886,
neutral,negative,2,k,k,,,,,,,,,5,11,101,16,,,,,,,,,,,,,,,,,,,,,,,,main,1,1,2,negative,neutral,k,k,1,0.7788783999858424,362.1246818000218,363.12954879994504,363.107633800013,None,362.1246818000218,None,362.1246818000218,None,362.1246818000218,None,363.88670096000425,None,363.88670096000425,None,363.88670096000425,None,,,,,,,,,,,124,30,Male,2022-05-10_09h46.26.554,Boat,2022.1.1,59.973899355749886,
positive,negative,1,l,j,,,,,,,,,5,12,102,5,,,,,,,,,,,,,,,,,,,,,,,,main,1,1,1,negative,positive,l,l,1,0.8594370000064373,363.90973459999077,364.9195500999922,364.8824116999749,None,363.90973459999077,None,363.90973459999077,None,363.90973459999077,None,365.74938715995523,None,365.74938715995523,None,365.74938715995523,None,,,,,,,,,,,124,30,Male,2022-05-10_09h46.26.554,Boat,2022.1.1,59.973899355749886,
neutral,neutral,2,k,k,,,,,,,,,5,13,103,10,,,,,,,,,,,,,,,,,,,,,,,,main,2,2,2,neutral,neutral,k,k,1,0.7470267000608146,365.7706983999815,366.79091300000437,366.76417729991954,None,365.7706983999815,None,365.7706983999815,None,365.7706983999815,None,367.4981660599704,None,367.4981660599704,None,367.4981660599704,None,,,,,,,,,,,124,30,Male,2022-05-10_09h46.26.554,Boat,2022.1.1,59.973899355749886,
neutral,negative,1,k,k,,,,,,,,,5,14,104,7,,,,,,,,,,,,,,,,,,,,,,,,main,2,2,1,negative,neutral,k,k,1,0.7830548000056297,367.5209032999119,368.5332765999483,368.4991823999444,None,367.5209032999119,None,367.5209032999119,None,367.5209032999119,None,369.28530895990554,None,369.28530895990554,None,369.28530895990554,None,,,,,,,,,,,124,30,Male,2022-05-10_09h46.26.554,Boat,2022.1.1,59.973899355749886,
positive,positive,1,l,j,,,,,,,,,5,15,105,2,,,,,,,,,,,,,,,,,,,,,,,,main,2,2,1,positive,positive,l,l,1,0.7897021999815479,369.3045329999877,370.31682810001075,370.2825943999924,None,369.3045329999877,None,369.3045329999877,None,369.3045329999877,None,371.07974155993435,None,371.07974155993435,None,371.07974155993435,None,,,,,,,,,,,124,30,Male,2022-05-10_09h46.26.554,Boat,2022.1.1,59.973899355749886,
positive,neutral,1,l,j,,,,,,,,,5,16,106,8,,,,,,,,,,,,,,,,,,,,,,,,main,2,2,1,neutral,positive,l,l,1,0.9543747999705374,371.0980106999632,372.1164045999758,372.0960786999203,None,371.0980106999632,None,371.0980106999632,None,371.0980106999632,None,373.03556145996555,None,373.03556145996555,None,373.03556145996555,None,,,,,,,,,,,124,30,Male,2022-05-10_09h46.26.554,Boat,2022.1.1,59.973899355749886,
neutral,positive,1,k,k,,,,,,,,,5,17,107,4,,,,,,,,,,,,,,,,,,,,,,,,main,1,1,1,positive,neutral,k,k,1,0.7663064000662416,373.05368090001866,374.06892069999594,374.0319027999649,None,373.05368090001866,None,373.05368090001866,None,373.05368090001866,None,374.8045463599381,None,374.8045463599381,None,374.8045463599381,None,,,,,,,,,,,124,30,Male,2022-05-10_09h46.26.554,Boat,2022.1.1,59.973899355749886,
neutral,negative,2,k,k,,,,,,,,,6,0,108,16,,,,,,,,,,,,,,,,,,,,,,,,main,1,1,2,negative,neutral,k,k,1,0.6584834000095725,374.82369390001986,375.84095149999484,375.7995486999862,None,374.82369390001986,None,374.82369390001986,None,374.82369390001986,None,376.46687225998613,None,376.46687225998613,None,376.46687225998613,None,,,,,,,,,,,124,30,Male,2022-05-10_09h46.26.554,Boat,2022.1.1,59.973899355749886,
neutral,positive,2,k,k,,,,,,,,,6,1,109,13,,,,,,,,,,,,,,,,,,,,,,,,main,2,2,2,positive,neutral,k,k,1,0.6452307000290602,376.4853664999828,377.50349659996573,377.4660398999695,None,376.4853664999828,None,376.4853664999828,None,376.4853664999828,None,378.11398425990484,None,378.11398425990484,None,378.11398425990484,None,,,,,,,,,,,124,30,Male,2022-05-10_09h46.26.554,Boat,2022.1.1,59.973899355749886,
negative,neutral,1,j,l,,,,,,,,,6,2,110,3,,,,,,,,,,,,,,,,,,,,,,,,main,2,2,1,neutral,negative,j,j,1,0.7836704000364989,378.13759129995015,379.1495615999447,379.13145380001515,None,378.13759129995015,None,378.13759129995015,None,378.13759129995015,None,379.90230265994325,None,379.90230265994325,None,379.90230265994325,None,,,,,,,,,,,124,30,Male,2022-05-10_09h46.26.554,Boat,2022.1.1,59.973899355749886,
positive,neutral,1,l,j,,,,,,,,,6,3,111,8,,,,,,,,,,,,,,,,,,,,,,,,main,2,2,1,neutral,positive,l,l,1,0.9331237999722362,379.9206920999568,380.9384859999409,380.89960419991985,None,379.9206920999568,None,379.9206920999568,None,379.9206920999568,None,381.8391396600171,None,381.8391396600171,None,381.8391396600171,None,,,,,,,,,,,124,30,Male,2022-05-10_09h46.26.554,Boat,2022.1.1,59.973899355749886,
positive,positive,2,l,j,,,,,,,,,6,4,112,11,,,,,,,,,,,,,,,,,,,,,,,,main,1,1,2,positive,positive,l,l,1,0.9546186999650672,381.86073529999703,382.8665914000012,382.8328822000185,None,381.86073529999703,None,381.86073529999703,None,381.86073529999703,None,383.7968518599053,None,383.7968518599053,None,383.7968518599053,None,,,,,,,,,,,124,30,Male,2022-05-10_09h46.26.554,Boat,2022.1.1,59.973899355749886,
positive,negative,2,l,j,,,,,,,,,6,5,113,14,,,,,,,,,,,,,,,,,,,,,,,,main,2,2,2,negative,positive,l,l,1,0.6400810000486672,383.8159295999212,384.83281059993897,384.79476049996447,None,383.8159295999212,None,383.8159295999212,None,383.8159295999212,None,385.440026159992,None,385.440026159992,None,385.440026159992,None,,,,,,,,,,,124,30,Male,2022-05-10_09h46.26.554,Boat,2022.1.1,59.973899355749886,
positive,positive,1,l,j,,,,,,,,,6,6,114,2,,,,,,,,,,,,,,,,,,,,,,,,main,2,2,1,positive,positive,l,l,1,0.8893800000660121,385.4588437000057,386.46659129997715,386.44845849997364,None,385.4588437000057,None,385.4588437000057,None,385.4588437000057,None,387.33153095993913,None,387.33153095993913,None,387.33153095993913,None,,,,,,,,,,,124,30,Male,2022-05-10_09h46.26.554,Boat,2022.1.1,59.973899355749886,
neutral,neutral,1,k,k,,,,,,,,,6,7,115,1,,,,,,,,,,,,,,,,,,,,,,,,main,1,1,1,neutral,neutral,k,k,1,0.8259113000240177,387.34987959999125,388.366460399935,388.33127460000105,None,387.34987959999125,None,387.34987959999125,None,387.34987959999125,None,389.1620233599213,None,389.1620233599213,None,389.1620233599213,None,,,,,,,,,,,124,30,Male,2022-05-10_09h46.26.554,Boat,2022.1.1,59.973899355749886,
positive,negative,1,l,j,,,,,,,,,6,8,116,5,,,,,,,,,,,,,,,,,,,,,,,,main,2,2,1,negative,positive,l,l,1,0.9043888000305742,389.1821148999734,390.18485019996297,390.1672756000189,None,389.1821148999734,None,389.1821148999734,None,389.1821148999734,None,391.0666638600058,None,391.0666638600058,None,391.0666638600058,None,,,,,,,,,,,124,30,Male,2022-05-10_09h46.26.554,Boat,2022.1.1,59.973899355749886,
negative,negative,2,j,l,,,,,,,,,6,9,117,9,,,,,,,,,,,,,,,,,,,,,,,,main,1,1,2,negative,negative,j,j,1,0.864428999950178,391.08702069998253,392.1039701999398,392.0670685999794,None,391.08702069998253,None,391.08702069998253,None,391.08702069998253,None,392.93329005992274,None,392.93329005992274,None,392.93329005992274,None,,,,,,,,,,,124,30,Male,2022-05-10_09h46.26.554,Boat,2022.1.1,59.973899355749886,
neutral,positive,1,k,k,,,,,,,,,6,10,118,4,,,,,,,,,,,,,,,,,,,,,,,,main,1,1,1,positive,neutral,k,k,1,0.7714320999803022,392.9540674999589,393.96662830002606,393.9452348999912,None,392.9540674999589,None,392.9540674999589,None,392.9540674999589,None,394.7107710599783,None,394.7107710599783,None,394.7107710599783,None,,,,,,,,,,,124,30,Male,2022-05-10_09h46.26.554,Boat,2022.1.1,59.973899355749886,
negative,positive,2,j,l,,,,,,,,,6,11,119,15,,,,,,,,,,,,,,,,,,,,,,,,main,1,1,2,positive,negative,j,j,1,0.8163552000187337,394.73094849998597,395.73328509996645,395.7165284999646,None,394.73094849998597,None,394.73094849998597,None,394.73094849998597,None,396.53079786001473,None,396.53079786001473,None,396.53079786001473,None,,,,,,,,,,,124,30,Male,2022-05-10_09h46.26.554,Boat,2022.1.1,59.973899355749886,
neutral,negative,1,k,k,,,,,,,,,6,12,120,7,,,,,,,,,,,,,,,,,,,,,,,,main,1,1,1,negative,neutral,k,k,1,0.7380240000784397,396.5486021999968,397.5556983000133,397.5374092999846,None,396.5486021999968,None,396.5486021999968,None,396.5486021999968,None,398.27021125996254,None,398.27021125996254,None,398.27021125996254,None,,,,,,,,,,,124,30,Male,2022-05-10_09h46.26.554,Boat,2022.1.1,59.973899355749886,
neutral,neutral,2,k,k,,,,,,,,,6,13,121,10,,,,,,,,,,,,,,,,,,,,,,,,main,2,2,2,neutral,neutral,k,k,1,0.6726399000035599,398.28933069994673,399.30004839994945,399.2818097999552,None,398.28933069994673,None,398.28933069994673,None,398.28933069994673,None,399.94702845999274,None,399.94702845999274,None,399.94702845999274,None,,,,,,,,,,,124,30,Male,2022-05-10_09h46.26.554,Boat,2022.1.1,59.973899355749886,
negative,neutral,2,j,l,,,,,,,,,6,14,122,12,,,,,,,,,,,,,,,,,,,,,,,,main,2,2,2,neutral,negative,j,j,1,0.7931902999989688,399.9665319999913,400.96932599996217,400.9515860999236,None,399.9665319999913,None,399.9665319999913,None,399.9665319999913,None,401.7439824600122,None,401.7439824600122,None,401.7439824600122,None,,,,,,,,,,,124,30,Male,2022-05-10_09h46.26.554,Boat,2022.1.1,59.973899355749886,
negative,negative,1,j,l,,,,,,,,,6,15,123,0,,,,,,,,,,,,,,,,,,,,,,,,main,2,2,1,negative,negative,j,j,1,0.9726566999452189,401.7639540999662,402.76678790000733,402.7490834000055,None,401.7639540999662,None,401.7639540999662,None,401.7639540999662,None,403.71817566001556,None,403.71817566001556,None,403.71817566001556,None,,,,,,,,,,,124,30,Male,2022-05-10_09h46.26.554,Boat,2022.1.1,59.973899355749886,
positive,neutral,2,l,j,,,,,,,,,6,16,124,17,,,,,,,,,,,,,,,,,,,,,,,,main,2,2,2,neutral,positive,l,l,1,0.7401284000370651,403.7372180999955,404.7510927999392,404.71652070002165,None,403.7372180999955,None,403.7372180999955,None,403.7372180999955,None,405.46135745990324,None,405.46135745990324,None,405.46135745990324,None,,,,,,,,,,,124,30,Male,2022-05-10_09h46.26.554,Boat,2022.1.1,59.973899355749886,
negative,positive,1,j,l,,,,,,,,,6,17,125,6,,,,,,,,,,,,,,,,,,,,,,,,main,1,1,1,positive,negative,j,j,1,0.8363765999674797,405.4824575999519,406.4983924999833,406.45682700001635,None,405.4824575999519,None,405.4824575999519,None,405.4824575999519,None,407.3005949600018,None,407.3005949600018,None,407.3005949600018,None,,,,,,,,,,,124,30,Male,2022-05-10_09h46.26.554,Boat,2022.1.1,59.973899355749886,
negative,neutral,1,j,l,,,,,,,,,7,0,126,3,,,,,,,,,,,,,,,,,,,,,,,,main,2,2,1,neutral,negative,j,j,1,0.7026289000641555,407.3176493999781,408.3323877999792,408.3121050000191,None,407.3176493999781,None,407.3176493999781,None,407.3176493999781,None,409.0064783599344,None,409.0064783599344,None,409.0064783599344,None,,,,,,,,,,,124,30,Male,2022-05-10_09h46.26.554,Boat,2022.1.1,59.973899355749886,
neutral,negative,1,k,k,,,,,,,,,7,1,127,7,,,,,,,,,,,,,,,,,,,,,,,,main,2,2,1,negative,neutral,k,k,1,0.7842986000468954,409.02726389991585,410.0489137999248,410.00860920001287,None,409.02726389991585,None,409.02726389991585,None,409.02726389991585,None,410.7936436599237,None,410.7936436599237,None,410.7936436599237,None,,,,,,,,,,,124,30,Male,2022-05-10_09h46.26.554,Boat,2022.1.1,59.973899355749886,
neutral,neutral,2,k,k,,,,,,,,,7,2,128,10,,,,,,,,,,,,,,,,,,,,,,,,main,1,1,2,neutral,neutral,k,k,1,0.8213530000066385,410.8160436999751,411.8452196000144,411.7981146000093,None,410.8160436999751,None,410.8160436999751,None,410.8160436999751,None,412.6166456599138,None,412.6166456599138,None,412.6166456599138,None,,,,,,,,,,,124,30,Male,2022-05-10_09h46.26.554,Boat,2022.1.1,59.973899355749886,
negative,neutral,2,j,l,,,,,,,,,7,3,129,12,,,,,,,,,,,,,,,,,,,,,,,,main,2,2,2,neutral,negative,j,j,1,0.7681064999196678,412.6356630999362,413.658513900009,413.6171017999295,None,412.6356630999362,None,412.6356630999362,None,412.6356630999362,None,414.3873261599918,None,414.3873261599918,None,414.3873261599918,None,,,,,,,,,,,124,30,Male,2022-05-10_09h46.26.554,Boat,2022.1.1,59.973899355749886,
positive,negative,1,l,j,,,,,,,,,7,4,130,5,,,,,,,,,,,,,,,,,,,,,,,,main,2,2,1,negative,positive,l,l,1,0.7997400999302045,414.4059529999504,415.417130399961,415.3970731999725,None,414.4059529999504,None,414.4059529999504,None,414.4059529999504,None,416.1889858599869,None,416.1889858599869,None,416.1889858599869,None,,,,,,,,,,,124,30,Male,2022-05-10_09h46.26.554,Boat,2022.1.1,59.973899355749886,
negative,positive,1,j,l,,,,,,,,,7,5,131,6,,,,,,,,,,,,,,,,,,,,,,,,main,2,2,1,positive,negative,j,j,1,0.8008579999441281,416.20969629997853,417.2178619999904,417.20024809997994,None,416.20969629997853,None,416.20969629997853,None,416.20969629997853,None,417.9950574599323,None,417.9950574599323,None,417.9950574599323,None,,,,,,,,,,,124,30,Male,2022-05-10_09h46.26.554,Boat,2022.1.1,59.973899355749886,
positive,positive,2,l,j,,,,,,,,,7,6,132,11,,,,,,,,,,,,,,,,,,,,,,,,main,1,1,2,positive,positive,l,l,1,0.8909795000217855,418.0162974999985,419.018865799997,418.9838386999909,None,418.0162974999985,None,418.0162974999985,None,418.0162974999985,None,419.8855114599108,None,419.8855114599108,None,419.8855114599108,None,,,,,,,,,,,124,30,Male,2022-05-10_09h46.26.554,Boat,2022.1.1,59.973899355749886,
negative,negative,2,j,l,,,,,,,,,7,7,133,9,,,,,,,,,,,,,,,,,,,,,,,,main,2,2,2,negative,negative,j,j,1,0.8473843999672681,419.9086402999237,420.91833110002335,420.9013010999188,None,419.9086402999237,None,419.9086402999237,None,419.9086402999237,None,421.73863625993255,None,421.73863625993255,None,421.73863625993255,None,,,,,,,,,,,124,30,Male,2022-05-10_09h46.26.554,Boat,2022.1.1,59.973899355749886,
neutral,positive,2,k,k,,,,,,,,,7,8,134,13,,,,,,,,,,,,,,,,,,,,,,,,main,2,2,2,positive,neutral,k,k,1,0.7893293999368325,421.7571604999248,422.76723719993606,422.7488175999606,None,421.7571604999248,None,421.7571604999248,None,421.7571604999248,None,423.5312904599239,None,423.5312904599239,None,423.5312904599239,None,,,,,,,,,,,124,30,Male,2022-05-10_09h46.26.554,Boat,2022.1.1,59.973899355749886,
positive,negative,2,l,j,,,,,,,,,7,9,135,14,,,,,,,,,,,,,,,,,,,,,,,,main,2,2,2,negative,positive,l,l,1,0.7968102000886574,423.55149209999945,424.55240699998103,424.53407639998477,None,423.55149209999945,None,423.55149209999945,None,423.55149209999945,None,425.33178446000676,None,425.33178446000676,None,425.33178446000676,None,,,,,,,,,,,124,30,Male,2022-05-10_09h46.26.554,Boat,2022.1.1,59.973899355749886,
neutral,negative,2,k,k,,,,,,,,,7,10,136,16,,,,,,,,,,,,,,,,,,,,,,,,main,2,2,2,negative,neutral,k,k,1,0.7431792999850586,425.35183039994445,426.3572120999452,426.3403055999661,None,425.35183039994445,None,425.35183039994445,None,425.35183039994445,None,427.07881015994354,None,427.07881015994354,None,427.07881015994354,None,,,,,,,,,,,124,30,Male,2022-05-10_09h46.26.554,Boat,2022.1.1,59.973899355749886,
neutral,neutral,1,k,k,,,,,,,,,7,11,137,1,,,,,,,,,,,,,,,,,,,,,,,,main,1,1,1,neutral,neutral,k,k,1,0.643210000009276,427.10024910001084,428.1286953999661,428.0820409000153,None,427.10024910001084,None,427.10024910001084,None,427.10024910001084,None,428.72784215993016,None,428.72784215993016,None,428.72784215993016,None,,,,,,,,,,,124,30,Male,2022-05-10_09h46.26.554,Boat,2022.1.1,59.973899355749886,
negative,positive,2,j,l,,,,,,,,,7,12,138,15,,,,,,,,,,,,,,,,,,,,,,,,main,2,2,2,positive,negative,j,j,1,0.7869505999842659,428.750159899937,429.75211539992597,429.73463019996416,None,428.750159899937,None,428.750159899937,None,428.750159899937,None,430.5166976599838,None,430.5166976599838,None,430.5166976599838,None,,,,,,,,,,,124,30,Male,2022-05-10_09h46.26.554,Boat,2022.1.1,59.973899355749886,
positive,neutral,1,l,j,,,,,,,,,7,13,139,8,,,,,,,,,,,,,,,,,,,,,,,,main,2,2,1,neutral,positive,l,l,1,0.7620042000198737,430.5380650999723,431.55103899992537,431.5129216000205,None,430.5380650999723,None,430.5380650999723,None,430.5380650999723,None,432.2828979599406,None,432.2828979599406,None,432.2828979599406,None,,,,,,,,,,,124,30,Male,2022-05-10_09h46.26.554,Boat,2022.1.1,59.973899355749886,
neutral,positive,1,k,k,,,,,,,,,7,14,140,4,,,,,,,,,,,,,,,,,,,,,,,,main,1,1,1,positive,neutral,k,k,1,0.7791239999933168,432.30265819991473,433.3037105000112,433.28545550000854,None,432.30265819991473,None,432.30265819991473,None,432.30265819991473,None,434.06617396000075,None,434.06617396000075,None,434.06617396000075,None,,,,,,,,,,,124,30,Male,2022-05-10_09h46.26.554,Boat,2022.1.1,59.973899355749886,
positive,positive,1,l,j,,,,,,,,,7,15,141,2,,,,,,,,,,,,,,,,,,,,,,,,main,1,1,1,positive,positive,l,l,1,0.8955894999671727,434.08446179993916,435.0861825000029,435.068429499981,None,434.08446179993916,None,434.08446179993916,None,434.08446179993916,None,435.96525516001276,None,435.96525516001276,None,435.96525516001276,None,,,,,,,,,,,124,30,Male,2022-05-10_09h46.26.554,Boat,2022.1.1,59.973899355749886,
positive,neutral,2,l,j,,,,,,,,,7,16,142,17,,,,,,,,,,,,,,,,,,,,,,,,main,1,1,2,neutral,positive,l,l,1,0.8475330000510439,435.98423539998475,436.99891299998853,436.97897339996416,None,435.98423539998475,None,435.98423539998475,None,435.98423539998475,None,437.81635796000484,None,437.81635796000484,None,437.81635796000484,None,,,,,,,,,,,124,30,Male,2022-05-10_09h46.26.554,Boat,2022.1.1,59.973899355749886,
negative,negative,1,j,l,,,,,,,,,7,17,143,0,,,,,,,,,,,,,,,,,,,,,,,,main,1,1,1,negative,negative,j,j,1,0.8375919000245631,437.8363420999376,438.86220199998934,438.81573599996045,None,437.8363420999376,None,437.8363420999376,None,437.8363420999376,None,439.6570341599989,None,439.6570341599989,None,439.6570341599989,None,,,,,,,,,,,124,30,Male,2022-05-10_09h46.26.554,Boat,2022.1.1,59.973899355749886,
positive,positive,1,l,j,,,,,,,,,8,0,144,2,,,,,,,,,,,,,,,,,,,,,,,,main,2,2,1,positive,positive,l,l,1,1.2284613000229,439.6749558999436,440.68789910001215,440.65274569997564,None,439.6749558999436,None,439.6749558999436,None,439.6749558999436,None,441.88744085993386,None,441.88744085993386,None,441.88744085993386,None,,,,,,,,,,,124,30,Male,2022-05-10_09h46.26.554,Boat,2022.1.1,59.973899355749886,
negative,positive,2,j,l,,,,,,,,,8,1,145,15,,,,,,,,,,,,,,,,,,,,,,,,main,1,1,2,positive,negative,j,j,1,0.8730011000297964,441.90591149998363,442.92252529994585,442.8849039999768,None,441.90591149998363,None,441.90591149998363,None,441.90591149998363,None,443.7646870599245,None,443.7646870599245,None,443.7646870599245,None,,,,,,,,,,,124,30,Male,2022-05-10_09h46.26.554,Boat,2022.1.1,59.973899355749886,
negative,negative,2,j,l,,,,,,,,,8,2,146,9,,,,,,,,,,,,,,,,,,,,,,,,main,1,1,2,negative,negative,j,j,1,0.7869126000441611,443.7844200999243,444.7843730999157,444.76741369999945,None,443.7844200999243,None,443.7844200999243,None,443.7844200999243,None,445.5532289599185,None,445.5532289599185,None,445.5532289599185,None,,,,,,,,,,,124,30,Male,2022-05-10_09h46.26.554,Boat,2022.1.1,59.973899355749886,
positive,negative,2,l,j,,,,,,,,,8,3,147,14,,,,,,,,,,,,,,,,,,,,,,,,main,2,2,2,negative,positive,l,l,1,0.83483539998997,445.57359269994777,446.58805679995567,446.550227599917,None,445.57359269994777,None,445.57359269994777,None,445.57359269994777,None,447.39179735992803,None,447.39179735992803,None,447.39179735992803,None,,,,,,,,,,,124,30,Male,2022-05-10_09h46.26.554,Boat,2022.1.1,59.973899355749886,
negative,positive,1,j,l,,,,,,,,,8,4,148,6,,,,,,,,,,,,,,,,,,,,,,,,main,1,1,1,positive,negative,j,j,1,0.9072448000079021,447.4144244999625,448.43444899993483,448.395958899986,None,447.4144244999625,None,447.4144244999625,None,447.4144244999625,None,449.3012344599818,None,449.3012344599818,None,449.3012344599818,None,,,,,,,,,,,124,30,Male,2022-05-10_09h46.26.554,Boat,2022.1.1,59.973899355749886,
positive,negative,1,l,j,,,,,,,,,8,5,149,5,,,,,,,,,,,,,,,,,,,,,,,,main,2,2,1,negative,positive,l,l,1,0.8922734999796376,449.3203530999599,450.32045260001905,450.3029868999729,None,449.3203530999599,None,449.3203530999599,None,449.3203530999599,None,451.19727835991654,None,451.19727835991654,None,451.19727835991654,None,,,,,,,,,,,124,30,Male,2022-05-10_09h46.26.554,Boat,2022.1.1,59.973899355749886,
neutral,neutral,2,k,k,,,,,,,,,8,6,150,10,,,,,,,,,,,,,,,,,,,,,,,,main,2,2,2,neutral,neutral,k,k,1,0.7734420000342652,451.2164221999701,452.23319719999563,452.2127454999136,None,451.2164221999701,None,451.2164221999701,None,451.2164221999701,None,452.97308525991394,None,452.97308525991394,None,452.97308525991394,None,,,,,,,,,,,124,30,Male,2022-05-10_09h46.26.554,Boat,2022.1.1,59.973899355749886,
positive,neutral,1,l,j,,,,,,,,,8,7,151,8,,,,,,,,,,,,,,,,,,,,,,,,main,2,2,1,neutral,positive,l,l,1,0.9960039999568835,452.9913364999229,454.0045913999202,453.9676834999118,None,452.9913364999229,None,452.9913364999229,None,452.9913364999229,None,454.9715951599763,None,454.9715951599763,None,454.9715951599763,None,,,,,,,,,,,124,30,Male,2022-05-10_09h46.26.554,Boat,2022.1.1,59.973899355749886,
neutral,neutral,1,k,k,,,,,,,,,8,8,152,1,,,,,,,,,,,,,,,,,,,,,,,,main,2,2,1,neutral,neutral,k,k,1,0.8073613999877125,454.9893554999726,456.0015121999895,455.97994549991563,None,454.9893554999726,None,454.9893554999726,None,454.9893554999726,None,456.78336095997366,None,456.78336095997366,None,456.78336095997366,None,,,,,,,,,,,124,30,Male,2022-05-10_09h46.26.554,Boat,2022.1.1,59.973899355749886,
positive,neutral,2,l,j,,,,,,,,,8,9,153,17,,,,,,,,,,,,,,,,,,,,,,,,main,2,2,2,neutral,positive,l,l,1,0.7853483000071719,456.80388559994753,457.8153004000196,457.7959465999156,None,456.80388559994753,None,456.80388559994753,None,456.80388559994753,None,458.57088925993304,None,458.57088925993304,None,458.57088925993304,None,,,,,,,,,,,124,30,Male,2022-05-10_09h46.26.554,Boat,2022.1.1,59.973899355749886,
neutral,negative,1,k,k,,,,,,,,,8,10,154,7,,,,,,,,,,,,,,,,,,,,,,,,main,2,2,1,negative,neutral,k,k,1,0.7497384999878705,458.589640900027,459.6061971000163,459.56896209996194,None,458.589640900027,None,458.589640900027,None,458.589640900027,None,460.32428685995984,None,460.32428685995984,None,460.32428685995984,None,,,,,,,,,,,124,30,Male,2022-05-10_09h46.26.554,Boat,2022.1.1,59.973899355749886,
negative,neutral,2,j,l,,,,,,,,,8,11,155,12,,,,,,,,,,,,,,,,,,,,,,,,main,1,1,2,neutral,negative,j,j,1,0.7998830999713391,460.34741389995907,461.36551049991976,461.3241390999174,None,460.34741389995907,None,460.34741389995907,None,460.34741389995907,None,462.1282771600061,None,462.1282771600061,None,462.1282771600061,None,,,,,,,,,,,124,30,Male,2022-05-10_09h46.26.554,Boat,2022.1.1,59.973899355749886,
neutral,positive,2,k,k,,,,,,,,,8,12,156,13,,,,,,,,,,,,,,,,,,,,,,,,main,1,1,2,positive,neutral,k,k,1,0.7743216999806464,462.1476285000099,463.1521689000074,463.1180174999172,None,462.1476285000099,None,462.1476285000099,None,462.1476285000099,None,463.90173295991264,None,463.90173295991264,None,463.90173295991264,None,,,,,,,,,,,124,30,Male,2022-05-10_09h46.26.554,Boat,2022.1.1,59.973899355749886,
negative,neutral,1,j,l,,,,,,,,,8,13,157,3,,,,,,,,,,,,,,,,,,,,,,,,main,2,2,1,neutral,negative,j,j,1,0.8060457999818027,463.9234278999502,464.9430965000065,464.90173019992653,None,463.9234278999502,None,463.9234278999502,None,463.9234278999502,None,465.7133445600164,None,465.7133445600164,None,465.7133445600164,None,,,,,,,,,,,124,30,Male,2022-05-10_09h46.26.554,Boat,2022.1.1,59.973899355749886,
negative,negative,1,j,l,,,,,,,,,8,14,158,0,,,,,,,,,,,,,,,,,,,,,,,,main,1,1,1,negative,negative,j,j,1,0.792945200111717,465.73356189997867,466.73484209994785,466.7180501000257,None,465.73356189997867,None,465.73356189997867,None,465.73356189997867,None,467.50712125994033,None,467.50712125994033,None,467.50712125994033,None,,,,,,,,,,,124,30,Male,2022-05-10_09h46.26.554,Boat,2022.1.1,59.973899355749886,
positive,positive,2,l,j,,,,,,,,,8,15,159,11,,,,,,,,,,,,,,,,,,,,,,,,main,2,2,2,positive,positive,l,l,1,0.7944925000192598,467.53411779995076,468.53487999993376,468.5183089999482,None,467.53411779995076,None,467.53411779995076,None,467.53411779995076,None,469.30466815993424,None,469.30466815993424,None,469.30466815993424,None,,,,,,,,,,,124,30,Male,2022-05-10_09h46.26.554,Boat,2022.1.1,59.973899355749886,
neutral,positive,1,k,k,,,,,,,,,8,16,160,4,,,,,,,,,,,,,,,,,,,,,,,,main,2,2,1,positive,neutral,k,k,1,0.7773335999809206,469.3246731000254,470.33158499991987,470.3096787999384,None,469.3246731000254,None,469.3246731000254,None,469.3246731000254,None,471.08526585997316,None,471.08526585997316,None,471.08526585997316,None,,,,,,,,,,,124,30,Male,2022-05-10_09h46.26.554,Boat,2022.1.1,59.973899355749886,
neutral,negative,2,k,k,,,,,,,,,8,17,161,16,,,,,,,,,,,,,,,,,,,,,,,,main,1,1,2,negative,neutral,k,k,1,0.8421211999375373,471.10634209995624,472.1184570000041,472.0997857999755,None,471.10634209995624,None,471.10634209995624,None,471.10634209995624,None,472.9309251599596,None,472.9309251599596,None,472.9309251599596,None,,,,,,,,,,,124,30,Male,2022-05-10_09h46.26.554,Boat,2022.1.1,59.973899355749886,
neutral,neutral,1,k,k,,,,,,,,,9,0,162,1,,,,,,,,,,,,,,,,,,,,,,,,main,1,1,1,neutral,neutral,k,k,1,0.6986344999168068,472.9518331999425,473.9543981999159,473.9363969999831,None,472.9518331999425,None,472.9518331999425,None,472.9518331999425,None,474.63414495998296,None,474.63414495998296,None,474.63414495998296,None,,,,,,,,,,,124,30,Male,2022-05-10_09h46.26.554,Boat,2022.1.1,59.973899355749886,
positive,neutral,1,l,j,,,,,,,,,9,1,163,8,,,,,,,,,,,,,,,,,,,,,,,,main,2,2,1,neutral,positive,l,l,1,0.8627359999809414,474.6522455000086,475.65405449992977,475.63587360002566,None,474.6522455000086,None,474.6522455000086,None,474.6522455000086,None,476.4992443599156,None,476.4992443599156,None,476.4992443599156,None,,,,,,,,,,,124,30,Male,2022-05-10_09h46.26.554,Boat,2022.1.1,59.973899355749886,
neutral,neutral,2,k,k,,,,,,,,,9,2,164,10,,,,,,,,,,,,,,,,,,,,,,,,main,2,2,2,neutral,neutral,k,k,1,0.7545080999843776,476.5243439999176,477.5312897999538,477.5094938999973,None,476.5243439999176,None,476.5243439999176,None,476.5243439999176,None,478.25739205990686,None,478.25739205990686,None,478.25739205990686,None,,,,,,,,,,,124,30,Male,2022-05-10_09h46.26.554,Boat,2022.1.1,59.973899355749886,
neutral,positive,2,k,k,,,,,,,,,9,3,165,13,,,,,,,,,,,,,,,,,,,,,,,,main,1,1,2,positive,neutral,k,k,1,0.759703200077638,478.2762611999642,479.28997199994046,479.2526433999883,None,478.2762611999642,None,478.2762611999642,None,478.2762611999642,None,480.0197233599727,None,480.0197233599727,None,480.0197233599727,None,,,,,,,,,,,124,30,Male,2022-05-10_09h46.26.554,Boat,2022.1.1,59.973899355749886,
negative,positive,2,j,l,,,,,,,,,9,4,166,15,,,,,,,,,,,,,,,,,,,,,,,,main,2,2,2,positive,negative,j,j,1,0.7954098000191152,480.04115489998367,481.05453879991546,481.01882220001426,None,480.04115489998367,None,480.04115489998367,None,480.04115489998367,None,481.8192956599058,None,481.8192956599058,None,481.8192956599058,None,,,,,,,,,,,124,30,Male,2022-05-10_09h46.26.554,Boat,2022.1.1,59.973899355749886,
negative,negative,2,j,l,,,,,,,,,9,5,167,9,,,,,,,,,,,,,,,,,,,,,,,,main,1,1,2,negative,negative,j,j,1,0.7793708000099286,481.83813269995153,482.8522327999817,482.81754530000035,None,481.83813269995153,None,481.83813269995153,None,481.83813269995153,None,483.6019897599588,None,483.6019897599588,None,483.6019897599588,None,,,,,,,,,,,124,30,Male,2022-05-10_09h46.26.554,Boat,2022.1.1,59.973899355749886,
negative,neutral,1,j,l,,,,,,,,,9,6,168,3,,,,,,,,,,,,,,,,,,,,,,,,main,1,1,1,neutral,negative,j,j,1,0.89017069991678,483.62116679991595,484.63512099999934,484.6168797999853,None,483.62116679991595,None,483.62116679991595,None,483.62116679991595,None,485.495963259961,None,485.495963259961,None,485.495963259961,None,,,,,,,,,,,124,30,Male,2022-05-10_09h46.26.554,Boat,2022.1.1,59.973899355749886,
negative,neutral,2,j,l,,,,,,,,,9,7,169,12,,,,,,,,,,,,,,,,,,,,,,,,main,1,1,2,neutral,negative,j,j,1,0.7747876000357792,485.51752669992857,486.5343927999493,486.49220630002674,None,485.51752669992857,None,485.51752669992857,None,485.51752669992857,None,487.27378965996905,None,487.27378965996905,None,487.27378965996905,None,,,,,,,,,,,124,30,Male,2022-05-10_09h46.26.554,Boat,2022.1.1,59.973899355749886,
positive,negative,1,l,j,,,,,,,,,9,8,170,5,,,,,,,,,,,,,,,,,,,,,,,,main,1,1,1,negative,positive,l,l,1,0.8950256999814883,487.29555199993774,488.3131888000062,488.2728713999968,None,487.29555199993774,None,487.29555199993774,None,487.29555199993774,None,489.169366859959,None,489.169366859959,None,489.169366859959,None,,,,,,,,,,,124,30,Male,2022-05-10_09h46.26.554,Boat,2022.1.1,59.973899355749886,
positive,neutral,2,l,j,,,,,,,,,9,9,171,17,,,,,,,,,,,,,,,,,,,,,,,,main,2,2,2,neutral,positive,l,l,1,0.8226653999881819,489.19052980002016,490.20382679998875,490.16863169998396,None,489.19052980002016,None,489.19052980002016,None,489.19052980002016,None,490.99765755994014,None,490.99765755994014,None,490.99765755994014,None,,,,,,,,,,,124,30,Male,2022-05-10_09h46.26.554,Boat,2022.1.1,59.973899355749886,
neutral,negative,2,k,k,,,,,,,,,9,10,172,16,,,,,,,,,,,,,,,,,,,,,,,,main,1,1,2,negative,neutral,k,k,1,0.7524653000291437,491.01835809997283,492.0355787000153,491.9974708999507,None,491.01835809997283,None,491.01835809997283,None,491.01835809997283,None,492.7496294599376,None,492.7496294599376,None,492.7496294599376,None,,,,,,,,,,,124,30,Male,2022-05-10_09h46.26.554,Boat,2022.1.1,59.973899355749886,
neutral,negative,1,k,k,,,,,,,,,9,11,173,7,,,,,,,,,,,,,,,,,,,,,,,,main,2,2,1,negative,neutral,k,k,1,0.801898300065659,492.77638009993825,493.7816197000211,493.7601763999555,None,492.77638009993825,None,492.77638009993825,None,492.77638009993825,None,494.5571507599787,None,494.5571507599787,None,494.5571507599787,None,,,,,,,,,,,124,30,Male,2022-05-10_09h46.26.554,Boat,2022.1.1,59.973899355749886,
positive,positive,1,l,j,,,,,,,,,9,12,174,2,,,,,,,,,,,,,,,,,,,,,,,,main,1,1,1,positive,positive,l,l,1,0.8205000999150798,494.575499999919,495.5901539999759,495.5523509000195,None,494.575499999919,None,494.575499999919,None,494.575499999919,None,496.3805117599084,None,496.3805117599084,None,496.3805117599084,None,,,,,,,,,,,124,30,Male,2022-05-10_09h46.26.554,Boat,2022.1.1,59.973899355749886,
positive,positive,2,l,j,,,,,,,,,9,13,175,11,,,,,,,,,,,,,,,,,,,,,,,,main,1,1,2,positive,positive,l,l,1,0.6967532999115065,496.40189059998374,497.40359869995154,497.3858622999396,None,496.40189059998374,None,496.40189059998374,None,496.40189059998374,None,498.0803745599813,None,498.0803745599813,None,498.0803745599813,None,,,,,,,,,,,124,30,Male,2022-05-10_09h46.26.554,Boat,2022.1.1,59.973899355749886,
negative,negative,1,j,l,,,,,,,,,9,14,176,0,,,,,,,,,,,,,,,,,,,,,,,,main,1,1,1,negative,negative,j,j,1,0.8287883999291807,498.10049919993617,499.1170846999157,499.07718569994904,None,498.10049919993617,None,498.10049919993617,None,498.10049919993617,None,499.91225035990357,None,499.91225035990357,None,499.91225035990357,None,,,,,,,,,,,124,30,Male,2022-05-10_09h46.26.554,Boat,2022.1.1,59.973899355749886,
positive,negative,2,l,j,,,,,,,,,9,15,177,14,,,,,,,,,,,,,,,,,,,,,,,,main,2,2,2,negative,positive,l,l,1,0.7552297000074759,499.93454859999474,500.94623939995654,500.90521879994776,None,499.93454859999474,None,499.93454859999474,None,499.93454859999474,None,501.6690121599357,None,501.6690121599357,None,501.6690121599357,None,,,,,,,,,,,124,30,Male,2022-05-10_09h46.26.554,Boat,2022.1.1,59.973899355749886,
negative,positive,1,j,l,,,,,,,,,9,16,178,6,,,,,,,,,,,,,,,,,,,,,,,,main,2,2,1,positive,negative,j,j,1,0.8836334999650717,501.6904186999891,502.70570229995064,502.66942779999226,None,501.6904186999891,None,501.6904186999891,None,501.6904186999891,None,503.5541508599534,None,503.5541508599534,None,503.5541508599534,None,,,,,,,,,,,124,30,Male,2022-05-10_09h46.26.554,Boat,2022.1.1,59.973899355749886,
neutral,positive,1,k,k,,,,,,,,,9,17,179,4,,,,,,,,,,,,,,,,,,,,,,,,main,2,2,1,positive,neutral,k,k,1,0.7250031000003219,503.5778520000167,504.5875263999915,504.55256089998875,None,503.5778520000167,None,503.5778520000167,None,503.5778520000167,None,505.2844299599645,None,505.2844299599645,None,505.2844299599645,None,,,,,,,,,,,124,30,Male,2022-05-10_09h46.26.554,Boat,2022.1.1,59.973899355749886,
neutral,neutral,1,k,k,,,,,,,,,10,0,180,1,,,,,,,,,,,,,,,,,,,,,,,,main,1,1,1,neutral,neutral,k,k,1,0.7020265000173822,505.30471840000246,506.31890069996007,506.28097379999235,None,505.30471840000246,None,505.30471840000246,None,505.30471840000246,None,506.98818115995965,None,506.98818115995965,None,506.98818115995965,None,,,,,,,,,,,124,30,Male,2022-05-10_09h46.26.554,Boat,2022.1.1,59.973899355749886,
positive,neutral,2,l,j,,,,,,,,,10,1,181,17,,,,,,,,,,,,,,,,,,,,,,,,main,1,1,2,neutral,positive,l,l,1,0.8279851999832317,507.0096077999333,508.0245336999651,508.0058884000173,None,507.0096077999333,None,507.0096077999333,None,507.0096077999333,None,508.8208567599184,None,508.8208567599184,None,508.8208567599184,None,,,,,,,,,,,124,30,Male,2022-05-10_09h46.26.554,Boat,2022.1.1,59.973899355749886,
negative,negative,1,j,l,,,,,,,,,10,2,182,0,,,,,,,,,,,,,,,,,,,,,,,,main,1,1,1,negative,negative,j,j,1,0.8279496000614017,508.83986920001917,509.84220059996005,509.8238510999363,None,508.83986920001917,None,508.83986920001917,None,508.83986920001917,None,510.65251275991324,None,510.65251275991324,None,510.65251275991324,None,,,,,,,,,,,124,30,Male,2022-05-10_09h46.26.554,Boat,2022.1.1,59.973899355749886,
negative,neutral,2,j,l,,,,,,,,,10,3,183,12,,,,,,,,,,,,,,,,,,,,,,,,main,1,1,2,neutral,negative,j,j,1,0.7490054001100361,510.6737297999207,511.6876476999605,511.6520886999788,None,510.6737297999207,None,510.6737297999207,None,510.6737297999207,None,512.4031771599664,None,512.4031771599664,None,512.4031771599664,None,,,,,,,,,,,124,30,Male,2022-05-10_09h46.26.554,Boat,2022.1.1,59.973899355749886,
positive,negative,1,l,j,,,,,,,,,10,4,184,5,,,,,,,,,,,,,,,,,,,,,,,,main,2,2,1,negative,positive,l,l,1,0.8966329999966547,512.4234034999972,513.4376594999339,513.4188086999347,None,512.4234034999972,None,512.4234034999972,None,512.4234034999972,None,514.3032539599924,None,514.3032539599924,None,514.3032539599924,None,,,,,,,,,,,124,30,Male,2022-05-10_09h46.26.554,Boat,2022.1.1,59.973899355749886,
neutral,negative,1,k,k,,,,,,,,,10,5,185,7,,,,,,,,,,,,,,,,,,,,,,,,main,1,1,1,negative,neutral,k,k,1,0.7682986999861896,514.3214832999511,515.3343840999296,515.3142580999993,None,514.3214832999511,None,514.3214832999511,None,514.3214832999511,None,516.0745461599552,None,516.0745461599552,None,516.0745461599552,None,,,,,,,,,,,124,30,Male,2022-05-10_09h46.26.554,Boat,2022.1.1,59.973899355749886,
negative,negative,2,j,l,,,,,,,,,10,6,186,9,,,,,,,,,,,,,,,,,,,,,,,,main,2,2,2,negative,negative,j,j,1,0.7587890999857336,516.0956562999636,517.1071285000071,517.0710418999661,None,516.0956562999636,None,516.0956562999636,None,516.0956562999636,None,517.8345154599635,None,517.8345154599635,None,517.8345154599635,None,,,,,,,,,,,124,30,Male,2022-05-10_09h46.26.554,Boat,2022.1.1,59.973899355749886,
negative,positive,2,j,l,,,,,,,,,10,7,187,15,,,,,,,,,,,,,,,,,,,,,,,,main,2,2,2,positive,negative,j,j,1,0.635762199992314,517.8633674000157,518.8696057000197,518.8337179999799,None,517.8633674000157,None,517.8633674000157,None,517.8633674000157,None,519.4762331600184,None,519.4762331600184,None,519.4762331600184,None,,,,,,,,,,,124,30,Male,2022-05-10_09h46.26.554,Boat,2022.1.1,59.973899355749886,
positive,neutral,1,l,j,,,,,,,,,10,8,188,8,,,,,,,,,,,,,,,,,,,,,,,,main,2,2,1,neutral,positive,l,l,1,0.8276170999743044,519.4988527999958,520.5041104999837,520.4858138000127,None,519.4988527999958,None,519.4988527999958,None,519.4988527999958,None,521.3060261599137,None,521.3060261599137,None,521.3060261599137,None,,,,,,,,,,,124,30,Male,2022-05-10_09h46.26.554,Boat,2022.1.1,59.973899355749886,
neutral,negative,2,k,k,,,,,,,,,10,9,189,16,,,,,,,,,,,,,,,,,,,,,,,,main,2,2,2,negative,neutral,k,k,1,0.7158029999118298,521.3248039999744,522.3380290999776,522.3018922000192,None,521.3248039999744,None,521.3248039999744,None,521.3248039999744,None,523.0237265599542,None,523.0237265599542,None,523.0237265599542,None,,,,,,,,,,,124,30,Male,2022-05-10_09h46.26.554,Boat,2022.1.1,59.973899355749886,
negative,neutral,1,j,l,,,,,,,,,10,10,190,3,,,,,,,,,,,,,,,,,,,,,,,,main,1,1,1,neutral,negative,j,j,1,0.8746553000528365,523.0454352999805,524.0524328999454,524.0323770999676,None,523.0454352999805,None,523.0454352999805,None,523.0454352999805,None,524.9027791599626,None,524.9027791599626,None,524.9027791599626,None,,,,,,,,,,,124,30,Male,2022-05-10_09h46.26.554,Boat,2022.1.1,59.973899355749886,
positive,positive,2,l,j,,,,,,,,,10,11,191,11,,,,,,,,,,,,,,,,,,,,,,,,main,2,2,2,positive,positive,l,l,1,0.8309704000130296,524.9233745000092,525.927643999923,525.908266399987,None,524.9233745000092,None,524.9233745000092,None,524.9233745000092,None,526.7360571599681,None,526.7360571599681,None,526.7360571599681,None,,,,,,,,,,,124,30,Male,2022-05-10_09h46.26.554,Boat,2022.1.1,59.973899355749886,
negative,positive,1,j,l,,,,,,,,,10,12,192,6,,,,,,,,,,,,,,,,,,,,,,,,main,2,2,1,positive,negative,j,j,1,0.8583853000309318,526.7581711999374,527.7696977999294,527.7486320999451,None,526.7581711999374,None,526.7581711999374,None,526.7581711999374,None,528.5993969600065,None,528.5993969600065,None,528.5993969600065,None,,,,,,,,,,,124,30,Male,2022-05-10_09h46.26.554,Boat,2022.1.1,59.973899355749886,
neutral,positive,2,k,k,,,,,,,,,10,13,193,13,,,,,,,,,,,,,,,,,,,,,,,,main,2,2,2,positive,neutral,k,k,1,0.7487060000421479,528.6222586999647,529.6405879999511,529.6041533999378,None,528.6222586999647,None,528.6222586999647,None,528.6222586999647,None,530.3520405599963,None,530.3520405599963,None,530.3520405599963,None,,,,,,,,,,,124,30,Male,2022-05-10_09h46.26.554,Boat,2022.1.1,59.973899355749886,
positive,negative,2,l,j,,,,,,,,,10,14,194,14,,,,,,,,,,,,,,,,,,,,,,,,main,1,1,2,negative,positive,l,l,1,0.8286122999852523,530.3717753000092,531.3876532999566,531.3528220999287,None,530.3717753000092,None,530.3717753000092,None,530.3717753000092,None,532.1851486599887,None,532.1851486599887,None,532.1851486599887,None,,,,,,,,,,,124,30,Male,2022-05-10_09h46.26.554,Boat,2022.1.1,59.973899355749886,
neutral,positive,1,k,k,,,,,,,,,10,15,195,4,,,,,,,,,,,,,,,,,,,,,,,,main,1,1,1,positive,neutral,k,k,1,0.7471943999407813,532.2041311999783,533.2081372999819,533.1896636999445,None,532.2041311999783,None,532.2041311999783,None,532.2041311999783,None,533.9353890599566,None,533.9353890599566,None,533.9353890599566,None,,,,,,,,,,,124,30,Male,2022-05-10_09h46.26.554,Boat,2022.1.1,59.973899355749886,
neutral,neutral,2,k,k,,,,,,,,,10,16,196,10,,,,,,,,,,,,,,,,,,,,,,,,main,1,1,2,neutral,neutral,k,k,1,0.6988047000486404,533.9550120999338,534.9590588000137,534.9410151999909,None,533.9550120999338,None,533.9550120999338,None,533.9550120999338,None,535.6366990599897,None,535.6366990599897,None,535.6366990599897,None,,,,,,,,,,,124,30,Male,2022-05-10_09h46.26.554,Boat,2022.1.1,59.973899355749886,
positive,positive,1,l,j,,,,,,,,,10,17,197,2,,,,,,,,,,,,,,,,,,,,,,,,main,2,2,1,positive,positive,l,l,1,0.811535399989225,535.6577672999119,536.6716584999813,536.6362915999489,None,535.6577672999119,None,535.6577672999119,None,535.6577672999119,None,537.4516994599369,None,537.4516994599369,None,537.4516994599369,None,,,,,,,,,,,124,30,Male,2022-05-10_09h46.26.554,Boat,2022.1.1,59.973899355749886,
positive,positive,1,l,j,,,,,,,,,11,0,198,2,,,,,,,,,,,,,,,,,,,,,,,,main,2,2,1,positive,positive,l,l,1,0.7356768000172451,537.4722866999218,538.4866486999672,538.4453117999947,None,537.4722866999218,None,537.4722866999218,None,537.4722866999218,None,539.1901577599463,None,539.1901577599463,None,539.1901577599463,None,,,,,,,,,,,124,30,Male,2022-05-10_09h46.26.554,Boat,2022.1.1,59.973899355749886,
positive,positive,2,l,j,,,,,,,,,11,1,199,11,,,,,,,,,,,,,,,,,,,,,,,,main,2,2,2,positive,positive,l,l,1,0.8293759000953287,539.2156955000246,540.2262871999992,540.1895401999354,None,539.2156955000246,None,539.2156955000246,None,539.2156955000246,None,541.0221481599262,None,541.0221481599262,None,541.0221481599262,None,,,,,,,,,,,124,30,Male,2022-05-10_09h46.26.554,Boat,2022.1.1,59.973899355749886,
positive,neutral,2,l,j,,,,,,,,,11,2,200,17,,,,,,,,,,,,,,,,,,,,,,,,main,1,1,2,neutral,positive,l,l,1,0.7112830999540165,541.0430579999229,542.0574038999621,542.0198501999257,None,541.0430579999229,None,541.0430579999229,None,541.0430579999229,None,542.7364878599881,None,542.7364878599881,None,542.7364878599881,None,,,,,,,,,,,124,30,Male,2022-05-10_09h46.26.554,Boat,2022.1.1,59.973899355749886,
negative,negative,2,j,l,,,,,,,,,11,3,201,9,,,,,,,,,,,,,,,,,,,,,,,,main,1,1,2,negative,negative,j,j,1,0.8472049999982119,542.7581633999944,543.7681791000068,543.7480096999789,None,542.7581633999944,None,542.7581633999944,None,542.7581633999944,None,544.5872496599447,None,544.5872496599447,None,544.5872496599447,None,,,,,,,,,,,124,30,Male,2022-05-10_09h46.26.554,Boat,2022.1.1,59.973899355749886,
negative,neutral,1,j,l,,,,,,,,,11,4,202,3,,,,,,,,,,,,,,,,,,,,,,,,main,2,2,1,neutral,negative,j,j,1,0.9171217000111938,544.6071615000255,545.6213483000174,545.5850158999674,None,544.6071615000255,None,544.6071615000255,None,544.6071615000255,None,546.5072427599341,None,546.5072427599341,None,546.5072427599341,None,,,,,,,,,,,124,30,Male,2022-05-10_09h46.26.554,Boat,2022.1.1,59.973899355749886,
negative,neutral,2,j,l,,,,,,,,,11,5,203,12,,,,,,,,,,,,,,,,,,,,,,,,main,2,2,2,neutral,negative,j,j,1,0.6966853000922129,546.5262624999741,547.5450687999837,547.5047967999708,None,546.5262624999741,None,546.5262624999741,None,546.5262624999741,None,548.2066209599259,None,548.2066209599259,None,548.2066209599259,None,,,,,,,,,,,124,30,Male,2022-05-10_09h46.26.554,Boat,2022.1.1,59.973899355749886,
positive,neutral,1,l,j,,,,,,,,,11,6,204,8,,,,,,,,,,,,,,,,,,,,,,,,main,2,2,1,neutral,positive,l,l,1,0.8535287999548018,548.2265286999755,549.2394891999429,549.2039771999698,None,548.2265286999755,None,548.2265286999755,None,548.2265286999755,None,550.0640646600048,None,550.0640646600048,None,550.0640646600048,None,,,,,,,,,,,124,30,Male,2022-05-10_09h46.26.554,Boat,2022.1.1,59.973899355749886,
neutral,negative,1,k,k,,,,,,,,,11,7,205,7,,,,,,,,,,,,,,,,,,,,,,,,main,2,2,1,negative,neutral,k,k,1,0.7800869001075625,550.0855780999409,551.0898924999638,551.0722577999113,None,550.0855780999409,None,550.0855780999409,None,550.0855780999409,None,551.8472837599809,None,551.8472837599809,None,551.8472837599809,None,,,,,,,,,,,124,30,Male,2022-05-10_09h46.26.554,Boat,2022.1.1,59.973899355749886,
neutral,neutral,1,k,k,,,,,,,,,11,8,206,1,,,,,,,,,,,,,,,,,,,,,,,,main,2,2,1,neutral,neutral,k,k,1,0.7108671999303624,551.8685419999529,552.8864421999315,552.8482482000254,None,551.8685419999529,None,551.8685419999529,None,551.8685419999529,None,553.5594386599375,None,553.5594386599375,None,553.5594386599375,None,,,,,,,,,,,124,30,Male,2022-05-10_09h46.26.554,Boat,2022.1.1,59.973899355749886,
neutral,positive,1,k,k,,,,,,,,,11,9,207,4,,,,,,,,,,,,,,,,,,,,,,,,main,2,2,1,positive,neutral,k,k,1,0.7163644999964163,553.583412899985,554.6018877999159,554.5620555999922,None,553.583412899985,None,553.583412899985,None,553.583412899985,None,555.2802109599695,None,555.2802109599695,None,555.2802109599695,None,,,,,,,,,,,124,30,Male,2022-05-10_09h46.26.554,Boat,2022.1.1,59.973899355749886,
