target,distractor,set,ans1,ans2,rep_loop2.thisRepN,rep_loop2.thisTrialN,rep_loop2.thisN,rep_loop2.thisIndex,flanker_prac_loop.thisRepN,flanker_prac_loop.thisTrialN,flanker_prac_loop.thisN,flanker_prac_loop.thisIndex,flanker_main_loop.thisRepN,flanker_main_loop.thisTrialN,flanker_main_loop.thisN,flanker_main_loop.thisIndex,fl_inst_resp.keys,mouse.x,mouse.y,mouse.leftButton,mouse.midButton,mouse.rightButton,mouse.started,mouse.stopped,sound_1.started,sound_1.stopped,no_text.started,no_text.stopped,yes_text.started,yes_text.stopped,mouse_2.x,mouse_2.y,mouse_2.leftButton,mouse_2.midButton,mouse_2.rightButton,mouse_2.started,mouse_2.stopped,back_2.started,back_2.stopped,main_prac,fl_cold,fl_colt,fl_set,fl_dcond,fl_tcond,fl_ans,fl_res,fl_corr,fl_rt,fix_fl.started,fix_fl.stopped,targ.started,targ.stopped,j_button.started,j_button.stopped,k_button.started,k_button.stopped,l_button.started,l_button.stopped,j_button2.started,j_button2.stopped,k_button2.started,k_button2.stopped,l_button2.started,l_button2.stopped,mainback.started,mainback.stopped,key_resp.keys,mouse_6.x,mouse_6.y,mouse_6.leftButton,mouse_6.midButton,mouse_6.rightButton,mouse_6.started,mouse_6.stopped,id*,age*,gender*,date,expName,psychopyVersion,frameRate,
,,,,,0,0,0,0,,,,,,,,,None,-0.17962962,0.46296296,0,0,0,1.0539211494615301,None,30.52003765000263,None,85.83922070008703,None,85.83922070008703,None,-0.09074074,-0.030555556,0,0,0,0.012352250050753355,None,,,,,,,,,,,,,,,,,,,,,,,,,,,,,,,,,,,,,,,125,19,Female,2022-05-10_12h40.36.647,Boat,2022.1.1,59.99725213286704,
neutral,neutral,1,k,k,,,,,0,0,0,1,,,,,,,,,,,,,,,,,,,,,,,,,,89.14228860009462,None,prac,2,2,1,neutral,neutral,k,k,1,1.5146852999459952,91.16951070004143,92.1744770000223,92.15415160008706,None,91.16951070004143,None,91.16951070004143,None,91.16951070004143,None,93.6781173000345,None,93.6781173000345,None,93.6781173000345,None,,,,,,,,,,,125,19,Female,2022-05-10_12h40.36.647,Boat,2022.1.1,59.99725213286704,
positive,negative,1,l,j,,,,,0,1,1,5,,,,,,,,,,,,,,,,,,,,,,,,,,,,prac,1,1,1,negative,positive,j,j,1,1.3913770000217482,94.69695350003894,95.71063040010631,95.69323930004612,None,94.69695350003894,None,94.69695350003894,None,94.69695350003894,None,97.07352805008414,None,97.07352805008414,None,97.07352805008414,None,,,,,,,,,,,125,19,Female,2022-05-10_12h40.36.647,Boat,2022.1.1,59.99725213286704,
negative,negative,1,j,l,,,,,0,2,2,0,,,,,,,,,,,,,,,,,,,,,,,,,,,,prac,2,2,1,negative,negative,l,l,1,0.9396323000546545,97.09227870008908,98.09319909999613,98.07643720007036,None,97.09227870008908,None,97.09227870008908,None,97.09227870008908,None,99.01484625005396,None,99.01484625005396,None,99.01484625005396,None,,,,,,,,,,,125,19,Female,2022-05-10_12h40.36.647,Boat,2022.1.1,59.99725213286704,
positive,positive,2,l,j,,,,,0,3,3,11,,,,,,,,,,,,,,,,,,,,,,,,,,,,prac,2,2,2,positive,positive,j,j,1,0.7229174999520183,99.03364450007211,100.0508731000591,100.02434660005383,None,99.03364450007211,None,99.03364450007211,None,99.03364450007211,None,100.74168495006161,None,100.74168495006161,None,100.74168495006161,None,,,,,,,,,,,125,19,Female,2022-05-10_12h40.36.647,Boat,2022.1.1,59.99725213286704,
negative,positive,1,j,l,,,,,0,4,4,6,,,,,,,,,,,,,,,,,,,,,,,,,,,,prac,1,1,1,positive,negative,l,l,1,0.9058673001127318,100.75990180007648,101.75962910009548,101.74293930002023,None,100.75990180007648,None,100.75990180007648,None,100.75990180007648,None,102.6510342500289,None,102.6510342500289,None,102.6510342500289,None,,,,,,,,,,,125,19,Female,2022-05-10_12h40.36.647,Boat,2022.1.1,59.99725213286704,
negative,positive,2,j,l,,,,,0,5,5,15,,,,,,,,,,,,,,,,,,,,,,,,,,,,prac,2,2,2,positive,negative,l,k,0,0.8907640000106767,102.66919620009139,103.67824700009078,103.6429243000457,None,102.66919620009139,None,102.66919620009139,None,102.66919620009139,None,104.55113700008951,None,104.55113700008951,None,104.55113700008951,None,,,,,,,,,,,125,19,Female,2022-05-10_12h40.36.647,Boat,2022.1.1,59.99725213286704,
positive,positive,1,l,j,,,,,0,6,6,2,,,,,,,,,,,,,,,,,,,,,,,,,,,,prac,2,2,1,positive,positive,j,j,1,0.8620023999828845,105.56347650010139,106.5779183000559,106.5431967000477,None,105.56347650010139,None,105.56347650010139,None,105.56347650010139,None,107.41015915001044,None,107.41015915001044,None,107.41015915001044,None,,,,,,,,,,,125,19,Female,2022-05-10_12h40.36.647,Boat,2022.1.1,59.99725213286704,
negative,neutral,2,j,l,,,,,0,7,7,12,,,,,,,,,,,,,,,,,,,,,,,,,,,,prac,2,2,2,neutral,negative,l,l,1,0.7698567999759689,107.42776140000205,108.44528189999983,108.40976010006852,None,107.42776140000205,None,107.42776140000205,None,107.42776140000205,None,109.18257725004806,None,109.18257725004806,None,109.18257725004806,None,,,,,,,,,,,125,19,Female,2022-05-10_12h40.36.647,Boat,2022.1.1,59.99725213286704,
positive,negative,2,l,j,,,,,0,8,8,14,,,,,,,,,,,,,,,,,,,,,,,,,,,,prac,2,2,2,negative,positive,j,j,1,0.8453210999723524,109.20754120009951,110.21090500010177,110.19344980001915,None,109.20754120009951,None,109.20754120009951,None,109.20754120009951,None,111.02925725000678,None,111.02925725000678,None,111.02925725000678,None,,,,,,,,,,,125,19,Female,2022-05-10_12h40.36.647,Boat,2022.1.1,59.99725213286704,
negative,negative,2,j,l,,,,,0,9,9,9,,,,,,,,,,,,,,,,,,,,,,,,,,,,prac,1,1,2,negative,negative,l,l,1,0.9547791999066249,111.05148640007246,112.06086220010184,112.04356990009546,None,111.05148640007246,None,111.05148640007246,None,111.05148640007246,None,112.98783725009999,None,112.98783725009999,None,112.98783725009999,None,,,,,,,,,,,125,19,Female,2022-05-10_12h40.36.647,Boat,2022.1.1,59.99725213286704,
neutral,positive,1,k,k,,,,,0,10,10,4,,,,,,,,,,,,,,,,,,,,,,,,,,,,prac,1,1,1,positive,neutral,k,k,1,0.5645570999477059,113.0088244000217,114.02731540007517,113.99072980007622,None,113.0088244000217,None,113.0088244000217,None,113.0088244000217,None,114.55712775000138,None,114.55712775000138,None,114.55712775000138,None,,,,,,,,,,,125,19,Female,2022-05-10_12h40.36.647,Boat,2022.1.1,59.99725213286704,
negative,neutral,1,j,l,,,,,0,11,11,3,,,,,,,,,,,,,,,,,,,,,,,,,,,,prac,2,2,1,neutral,negative,l,l,1,0.7682558000087738,114.57340130000375,115.58453380002175,115.54367840010673,None,114.57340130000375,None,114.57340130000375,None,114.57340130000375,None,116.32658515007934,None,116.32658515007934,None,116.32658515007934,None,,,,,,,,,,,125,19,Female,2022-05-10_12h40.36.647,Boat,2022.1.1,59.99725213286704,
positive,neutral,2,l,j,,,,,0,12,12,17,,,,,,,,,,,,,,,,,,,,,,,,,,,,prac,1,1,2,neutral,positive,j,j,1,0.7274616999784485,116.34670710004866,117.36138520005625,117.3272156000603,None,116.34670710004866,None,116.34670710004866,None,116.34670710004866,None,118.0583732500556,None,118.0583732500556,None,118.0583732500556,None,,,,,,,,,,,125,19,Female,2022-05-10_12h40.36.647,Boat,2022.1.1,59.99725213286704,
positive,neutral,1,l,j,,,,,0,13,13,8,,,,,,,,,,,,,,,,,,,,,,,,,,,,prac,2,2,1,neutral,positive,j,j,1,1.0212363000027835,118.0761548000155,119.07699590001721,119.06002440000884,None,118.0761548000155,None,118.0761548000155,None,118.0761548000155,None,120.08369235006394,None,120.08369235006394,None,120.08369235006394,None,,,,,,,,,,,125,19,Female,2022-05-10_12h40.36.647,Boat,2022.1.1,59.99725213286704,
neutral,neutral,2,k,k,,,,,0,14,14,10,,,,,,,,,,,,,,,,,,,,,,,,,,,,prac,2,2,2,neutral,neutral,k,k,1,0.6898405000101775,120.10223810002208,121.12530990003143,121.08272160007618,None,120.10223810002208,None,120.10223810002208,None,120.10223810002208,None,121.7765879500541,None,121.7765879500541,None,121.7765879500541,None,,,,,,,,,,,125,19,Female,2022-05-10_12h40.36.647,Boat,2022.1.1,59.99725213286704,
neutral,negative,2,k,k,,,,,0,15,15,16,,,,,,,,,,,,,,,,,,,,,,,,,,,,prac,1,1,2,negative,neutral,k,k,1,0.6071826999541372,121.79411210003309,122.79335580009501,122.77683750004508,None,121.79411210003309,None,121.79411210003309,None,121.79411210003309,None,123.3866656500497,None,123.3866656500497,None,123.3866656500497,None,,,,,,,,,,,125,19,Female,2022-05-10_12h40.36.647,Boat,2022.1.1,59.99725213286704,
neutral,negative,1,k,k,,,,,0,16,16,7,,,,,,,,,,,,,,,,,,,,,,,,,,,,prac,1,1,1,negative,neutral,k,k,1,0.6459767998894677,123.4046058000531,124.41007460001856,124.39197370002512,None,123.4046058000531,None,123.4046058000531,None,123.4046058000531,None,125.03556994999526,None,125.03556994999526,None,125.03556994999526,None,,,,,,,,,,,125,19,Female,2022-05-10_12h40.36.647,Boat,2022.1.1,59.99725213286704,
neutral,positive,2,k,k,,,,,0,17,17,13,,,,,,,,,,,,,,,,,,,,,,,,,,,,prac,2,2,2,positive,neutral,k,k,1,0.6050700000487268,125.05238120001741,126.0631344000576,126.02739420009311,None,125.05238120001741,None,125.05238120001741,None,125.05238120001741,None,126.64231985002989,None,126.64231985002989,None,126.64231985002989,None,,,,,,,,,,,125,19,Female,2022-05-10_12h40.36.647,Boat,2022.1.1,59.99725213286704,
positive,negative,1,l,j,,,,,1,0,18,5,,,,,,,,,,,,,,,,,,,,,,,,,,,,prac,1,1,1,negative,positive,j,j,1,0.722780599957332,126.66019220009912,127.66113740007859,127.64425480004866,None,126.66019220009912,None,126.66019220009912,None,126.66019220009912,None,128.36957875009392,None,128.36957875009392,None,128.36957875009392,None,,,,,,,,,,,125,19,Female,2022-05-10_12h40.36.647,Boat,2022.1.1,59.99725213286704,
neutral,positive,2,k,k,,,,,1,1,19,13,,,,,,,,,,,,,,,,,,,,,,,,,,,,prac,1,1,2,positive,neutral,k,k,1,0.7000499999849126,128.39146320009604,129.39359009999316,129.37680240010377,None,128.39146320009604,None,128.39146320009604,None,128.39146320009604,None,130.07252005009212,None,130.07252005009212,None,130.07252005009212,None,,,,,,,,,,,125,19,Female,2022-05-10_12h40.36.647,Boat,2022.1.1,59.99725213286704,
negative,positive,1,j,l,,,,,1,2,20,6,,,,,,,,,,,,,,,,,,,,,,,,,,,,prac,2,2,1,positive,negative,l,k,0,0.5961253000423312,130.0911534000188,131.10186650010291,131.074807099998,None,130.0911534000188,None,130.0911534000188,None,130.0911534000188,None,131.6776356000919,None,131.6776356000919,None,131.6776356000919,None,,,,,,,,,,,125,19,Female,2022-05-10_12h40.36.647,Boat,2022.1.1,59.99725213286704,
neutral,neutral,2,k,k,,,,,1,3,21,10,,,,,,,,,,,,,,,,,,,,,,,,,,,,prac,1,1,2,neutral,neutral,k,k,1,0.7259798999875784,132.695741500007,133.70851580007002,133.68826550000813,None,132.695741500007,None,132.695741500007,None,132.695741500007,None,134.408687650098,None,134.408687650098,None,134.408687650098,None,,,,,,,,,,,125,19,Female,2022-05-10_12h40.36.647,Boat,2022.1.1,59.99725213286704,
positive,positive,2,l,j,,,,,1,4,22,11,,,,,,,,,,,,,,,,,,,,,,,,,,,,prac,1,1,2,positive,positive,j,j,1,0.7380519999423996,134.4250682001002,135.4273096000543,135.39373330003582,None,134.4250682001002,None,134.4250682001002,None,134.4250682001002,None,136.14801245006964,None,136.14801245006964,None,136.14801245006964,None,,,,,,,,,,,125,19,Female,2022-05-10_12h40.36.647,Boat,2022.1.1,59.99725213286704,
neutral,positive,1,k,k,,,,,1,5,23,4,,,,,,,,,,,,,,,,,,,,,,,,,,,,prac,2,2,1,positive,neutral,k,k,1,0.6908161999890581,136.16634460003115,137.1789186000824,137.1442168999929,None,136.16634460003115,None,136.16634460003115,None,136.16634460003115,None,137.8424834500649,None,137.8424834500649,None,137.8424834500649,None,,,,,,,,,,,125,19,Female,2022-05-10_12h40.36.647,Boat,2022.1.1,59.99725213286704,
neutral,negative,2,k,k,,,,,1,6,24,16,,,,,,,,,,,,,,,,,,,,,,,,,,,,prac,1,1,2,negative,neutral,k,k,1,0.5923308000201359,137.85995470010675,138.87752430001274,138.83822890010197,None,137.85995470010675,None,137.85995470010675,None,137.85995470010675,None,139.43878325003897,None,139.43878325003897,None,139.43878325003897,None,,,,,,,,,,,125,19,Female,2022-05-10_12h40.36.647,Boat,2022.1.1,59.99725213286704,
negative,neutral,1,j,l,,,,,1,7,25,3,,,,,,,,,,,,,,,,,,,,,,,,,,,,prac,2,2,1,neutral,negative,l,l,1,0.7910905999597162,139.45959900005255,140.46036710008048,140.443744600052,None,139.45959900005255,None,139.45959900005255,None,139.45959900005255,None,141.22806914999381,None,141.22806914999381,None,141.22806914999381,None,,,,,,,,,,,125,19,Female,2022-05-10_12h40.36.647,Boat,2022.1.1,59.99725213286704,
neutral,neutral,1,k,k,,,,,1,8,26,1,,,,,,,,,,,,,,,,,,,,,,,,,,,,prac,2,2,1,neutral,neutral,k,k,1,0.6515017000492662,141.2493875999935,142.2605043000076,142.24264990002848,None,141.2493875999935,None,141.2493875999935,None,141.2493875999935,None,142.88629945005522,None,142.88629945005522,None,142.88629945005522,None,,,,,,,,,,,125,19,Female,2022-05-10_12h40.36.647,Boat,2022.1.1,59.99725213286704,
negative,negative,1,j,l,,,,,1,9,27,0,,,,,,,,,,,,,,,,,,,,,,,,,,,,prac,2,2,1,negative,negative,l,l,1,0.8097744999686256,142.90380030008964,143.92188430007081,143.9020775000099,None,142.90380030008964,None,142.90380030008964,None,142.90380030008964,None,144.69509184999623,None,144.69509184999623,None,144.69509184999623,None,,,,,,,,,,,125,19,Female,2022-05-10_12h40.36.647,Boat,2022.1.1,59.99725213286704,
positive,positive,1,l,j,,,,,1,10,28,2,,,,,,,,,,,,,,,,,,,,,,,,,,,,prac,2,2,1,positive,positive,j,j,1,0.7491328999167308,144.71473780006636,145.7291006000014,145.69425850000698,None,144.71473780006636,None,144.71473780006636,None,144.71473780006636,None,146.44751375004415,None,146.44751375004415,None,146.44751375004415,None,,,,,,,,,,,125,19,Female,2022-05-10_12h40.36.647,Boat,2022.1.1,59.99725213286704,
positive,negative,2,l,j,,,,,1,11,29,14,,,,,,,,,,,,,,,,,,,,,,,,,,,,prac,1,1,2,negative,positive,j,j,1,0.6879824999487028,146.46584200009238,147.4773703000974,147.44398410001304,None,146.46584200009238,None,146.46584200009238,None,146.46584200009238,None,148.1390880501014,None,148.1390880501014,None,148.1390880501014,None,,,,,,,,,,,125,19,Female,2022-05-10_12h40.36.647,Boat,2022.1.1,59.99725213286704,
negative,neutral,2,j,l,,,,,1,12,30,12,,,,,,,,,,,,,,,,,,,,,,,,,,,,prac,2,2,2,neutral,negative,l,l,1,0.811234200024046,148.15771510009654,149.16084920009598,149.12750020006206,None,148.15771510009654,None,148.15771510009654,None,148.15771510009654,None,149.95249295000684,None,149.95249295000684,None,149.95249295000684,None,,,,,,,,,,,125,19,Female,2022-05-10_12h40.36.647,Boat,2022.1.1,59.99725213286704,
negative,positive,2,j,l,,,,,1,13,31,15,,,,,,,,,,,,,,,,,,,,,,,,,,,,prac,1,1,2,positive,negative,l,l,1,0.6903664999408647,149.969689700054,150.98539460008033,150.94433460000437,None,149.969689700054,None,149.969689700054,None,149.969689700054,None,151.64398245000046,None,151.64398245000046,None,151.64398245000046,None,,,,,,,,,,,125,19,Female,2022-05-10_12h40.36.647,Boat,2022.1.1,59.99725213286704,
positive,neutral,1,l,j,,,,,1,14,32,8,,,,,,,,,,,,,,,,,,,,,,,,,,,,prac,2,2,1,neutral,positive,j,j,1,0.871848399983719,151.66242850001436,152.677603200078,152.6441367000807,None,151.66242850001436,None,151.66242850001436,None,151.66242850001436,None,153.5203109501046,None,153.5203109501046,None,153.5203109501046,None,,,,,,,,,,,125,19,Female,2022-05-10_12h40.36.647,Boat,2022.1.1,59.99725213286704,
positive,neutral,2,l,j,,,,,1,15,33,17,,,,,,,,,,,,,,,,,,,,,,,,,,,,prac,2,2,2,neutral,positive,j,j,1,0.7515246999682859,153.54196240007877,154.54553810006473,154.51076520001516,None,153.54196240007877,None,153.54196240007877,None,153.54196240007877,None,155.27476835005217,None,155.27476835005217,None,155.27476835005217,None,,,,,,,,,,,125,19,Female,2022-05-10_12h40.36.647,Boat,2022.1.1,59.99725213286704,
negative,negative,2,j,l,,,,,1,16,34,9,,,,,,,,,,,,,,,,,,,,,,,,,,,,prac,2,2,2,negative,negative,l,l,1,0.7566827000118792,155.29162200004794,156.29469900007825,156.27757720008958,None,155.29162200004794,None,155.29162200004794,None,155.29162200004794,None,157.03234444999833,None,157.03234444999833,None,157.03234444999833,None,,,,,,,,,,,125,19,Female,2022-05-10_12h40.36.647,Boat,2022.1.1,59.99725213286704,
neutral,negative,1,k,k,,,,,1,17,35,7,,,,,,,,,,,,,,,,,,,,,,,,,,,,prac,1,1,1,negative,neutral,k,k,1,0.6435491000302136,157.05036130000371,158.06107000005431,158.02543919999152,None,157.05036130000371,None,157.05036130000371,None,157.05036130000371,None,158.67753205004846,None,158.67753205004846,None,158.67753205004846,None,,,,,,,,,,,125,19,Female,2022-05-10_12h40.36.647,Boat,2022.1.1,59.99725213286704,
,,,,,,,,,,,,,,,,,,,,,,,,,,,,,,,,,,,,,,,,,,,,,,,,,,,,,,,,,,,,,,,,,,158.69415580003988,None,None,,,,,,,,125,19,Female,2022-05-10_12h40.36.647,Boat,2022.1.1,59.99725213286704,
,,,,,,,,,,,,,,,,,,,,,,,,,,,,,,,,,,,,,,,,,,,,,,,,,,,,,,,,,,,,,,,,,,,,,0.050925925,-0.0018518518,1,0,0,0.005245350068435073,None,125,19,Female,2022-05-10_12h40.36.647,Boat,2022.1.1,59.99725213286704,
positive,neutral,1,l,j,,,,,,,,,0,0,0,8,,,,,,,,,,,,,,,,,,,,,,173.27321380004287,None,main,1,1,1,neutral,positive,j,j,1,1.0201693999115378,175.29590670007747,176.3117360000033,176.27811460010707,None,175.29590670007747,None,175.29590670007747,None,175.29590670007747,None,177.29480025008087,None,177.29480025008087,None,177.29480025008087,None,,,,,,,,,,,125,19,Female,2022-05-10_12h40.36.647,Boat,2022.1.1,59.99725213286704,
neutral,positive,2,k,k,,,,,,,,,0,1,1,13,,,,,,,,,,,,,,,,,,,,,,,,main,1,1,2,positive,neutral,k,k,1,0.6793629999738187,177.3162039000308,178.32861830003094,178.29460980009753,None,177.3162039000308,None,177.3162039000308,None,177.3162039000308,None,178.97786125004058,None,178.97786125004058,None,178.97786125004058,None,,,,,,,,,,,125,19,Female,2022-05-10_12h40.36.647,Boat,2022.1.1,59.99725213286704,
neutral,neutral,2,k,k,,,,,,,,,0,2,2,10,,,,,,,,,,,,,,,,,,,,,,,,main,2,2,2,neutral,neutral,k,k,1,0.7832849998958409,178.99631590000354,180.0124297000002,179.97815850004554,None,178.99631590000354,None,178.99631590000354,None,178.99631590000354,None,180.76352705002063,None,180.76352705002063,None,180.76352705002063,None,,,,,,,,,,,125,19,Female,2022-05-10_12h40.36.647,Boat,2022.1.1,59.99725213286704,
negative,positive,2,j,l,,,,,,,,,0,3,3,15,,,,,,,,,,,,,,,,,,,,,,,,main,2,2,2,positive,negative,l,l,1,0.6004608001094311,180.78253910003696,181.78941860003397,181.7682388999965,None,180.78253910003696,None,180.78253910003696,None,180.78253910003696,None,182.36715775005285,None,182.36715775005285,None,182.36715775005285,None,,,,,,,,,,,125,19,Female,2022-05-10_12h40.36.647,Boat,2022.1.1,59.99725213286704,
negative,negative,1,j,l,,,,,,,,,0,4,4,0,,,,,,,,,,,,,,,,,,,,,,,,main,1,1,1,negative,negative,l,l,1,0.7715416999999434,182.38555830006953,183.40602810005657,183.3614153000526,None,182.38555830006953,None,182.38555830006953,None,182.38555830006953,None,184.14346795004093,None,184.14346795004093,None,184.14346795004093,None,,,,,,,,,,,125,19,Female,2022-05-10_12h40.36.647,Boat,2022.1.1,59.99725213286704,
positive,positive,2,l,j,,,,,,,,,0,5,5,11,,,,,,,,,,,,,,,,,,,,,,,,main,2,2,2,positive,positive,j,j,1,0.7774236999684945,184.1617438000394,185.17286680010147,185.15289370005485,None,184.1617438000394,None,184.1617438000394,None,184.1617438000394,None,185.92459415002958,None,185.92459415002958,None,185.92459415002958,None,,,,,,,,,,,125,19,Female,2022-05-10_12h40.36.647,Boat,2022.1.1,59.99725213286704,
positive,negative,1,l,j,,,,,,,,,0,6,6,5,,,,,,,,,,,,,,,,,,,,,,,,main,2,2,1,negative,positive,j,j,1,1.1270353998988867,185.94394170003943,186.94475480006076,186.92650630010758,None,185.94394170003943,None,185.94394170003943,None,185.94394170003943,None,188.05496745008276,None,188.05496745008276,None,188.05496745008276,None,,,,,,,,,,,125,19,Female,2022-05-10_12h40.36.647,Boat,2022.1.1,59.99725213286704,
positive,positive,1,l,j,,,,,,,,,0,7,7,2,,,,,,,,,,,,,,,,,,,,,,,,main,1,1,1,positive,positive,j,j,1,0.6563442000187933,188.07476500002667,189.08955860009883,189.04514550010208,None,188.07476500002667,None,188.07476500002667,None,188.07476500002667,None,189.71250235008773,None,189.71250235008773,None,189.71250235008773,None,,,,,,,,,,,125,19,Female,2022-05-10_12h40.36.647,Boat,2022.1.1,59.99725213286704,
neutral,neutral,1,k,k,,,,,,,,,0,8,8,1,,,,,,,,,,,,,,,,,,,,,,,,main,2,2,1,neutral,neutral,k,k,1,0.6730214999988675,189.73032249999233,190.74342920002528,190.7229142000433,None,189.73032249999233,None,189.73032249999233,None,189.73032249999233,None,191.38896815000334,None,191.38896815000334,None,191.38896815000334,None,,,,,,,,,,,125,19,Female,2022-05-10_12h40.36.647,Boat,2022.1.1,59.99725213286704,
negative,neutral,1,j,l,,,,,,,,,0,9,9,3,,,,,,,,,,,,,,,,,,,,,,,,main,1,1,1,neutral,negative,l,l,1,0.6677782000042498,191.41015770006925,192.41990540002007,192.37831410008948,None,191.41015770006925,None,191.41015770006925,None,191.41015770006925,None,193.05951815004227,None,193.05951815004227,None,193.05951815004227,None,,,,,,,,,,,125,19,Female,2022-05-10_12h40.36.647,Boat,2022.1.1,59.99725213286704,
negative,neutral,2,j,l,,,,,,,,,0,10,10,12,,,,,,,,,,,,,,,,,,,,,,,,main,2,2,2,neutral,negative,l,l,1,1.246992600033991,193.07827290007845,194.09374110004865,194.07336979999673,None,193.07827290007845,None,193.07827290007845,None,193.07827290007845,None,195.3115392500651,None,195.3115392500651,None,195.3115392500651,None,,,,,,,,,,,125,19,Female,2022-05-10_12h40.36.647,Boat,2022.1.1,59.99725213286704,
positive,negative,2,l,j,,,,,,,,,0,11,11,14,,,,,,,,,,,,,,,,,,,,,,,,main,1,1,2,negative,positive,j,j,1,0.7192574000218883,195.32910460000858,196.35631820000708,196.30965110007674,None,195.32910460000858,None,195.32910460000858,None,195.32910460000858,None,197.03323005010606,None,197.03323005010606,None,197.03323005010606,None,,,,,,,,,,,125,19,Female,2022-05-10_12h40.36.647,Boat,2022.1.1,59.99725213286704,
neutral,positive,1,k,k,,,,,,,,,0,12,12,4,,,,,,,,,,,,,,,,,,,,,,,,main,2,2,1,positive,neutral,k,k,1,0.724024900002405,197.0495593000669,198.07322460005525,198.026351800072,None,197.0495593000669,None,197.0495593000669,None,197.0495593000669,None,198.7604925500811,None,198.7604925500811,None,198.7604925500811,None,,,,,,,,,,,125,19,Female,2022-05-10_12h40.36.647,Boat,2022.1.1,59.99725213286704,
positive,neutral,2,l,j,,,,,,,,,0,13,13,17,,,,,,,,,,,,,,,,,,,,,,,,main,1,1,2,neutral,positive,j,j,1,0.6712948000058532,198.77755680005066,199.7952077999944,199.75973600009456,None,198.77755680005066,None,198.77755680005066,None,198.77755680005066,None,200.43438565008108,None,200.43438565008108,None,200.43438565008108,None,,,,,,,,,,,125,19,Female,2022-05-10_12h40.36.647,Boat,2022.1.1,59.99725213286704,
neutral,negative,1,k,k,,,,,,,,,0,14,14,7,,,,,,,,,,,,,,,,,,,,,,,,main,2,2,1,negative,neutral,k,k,1,0.623326100059785,200.45158310001716,201.46129000000656,201.44124370010104,None,200.45158310001716,None,200.45158310001716,None,200.45158310001716,None,202.06109715007477,None,202.06109715007477,None,202.06109715007477,None,,,,,,,,,,,125,19,Female,2022-05-10_12h40.36.647,Boat,2022.1.1,59.99725213286704,
neutral,negative,2,k,k,,,,,,,,,0,15,15,16,,,,,,,,,,,,,,,,,,,,,,,,main,2,2,2,negative,neutral,k,k,1,0.5988845000974834,202.07877610006835,203.09423940000124,203.07362440007273,None,202.07877610006835,None,202.07877610006835,None,202.07877610006835,None,203.66070215007056,None,203.66070215007056,None,203.66070215007056,None,,,,,,,,,,,125,19,Female,2022-05-10_12h40.36.647,Boat,2022.1.1,59.99725213286704,
negative,negative,2,j,l,,,,,,,,,0,16,16,9,,,,,,,,,,,,,,,,,,,,,,,,main,1,1,2,negative,negative,l,l,1,0.9223783001070842,203.68176760000642,204.69021410006098,204.67008630000055,None,203.68176760000642,None,203.68176760000642,None,203.68176760000642,None,205.58907115004257,None,205.58907115004257,None,205.58907115004257,None,,,,,,,,,,,125,19,Female,2022-05-10_12h40.36.647,Boat,2022.1.1,59.99725213286704,
negative,positive,1,j,l,,,,,,,,,0,17,17,6,,,,,,,,,,,,,,,,,,,,,,,,main,2,2,1,positive,negative,l,l,1,0.853064400027506,205.6099388001021,206.6127364001004,206.5954817000311,None,205.6099388001021,None,205.6099388001021,None,205.6099388001021,None,207.4445884500048,None,207.4445884500048,None,207.4445884500048,None,,,,,,,,,,,125,19,Female,2022-05-10_12h40.36.647,Boat,2022.1.1,59.99725213286704,
negative,positive,2,j,l,,,,,,,,,1,0,18,15,,,,,,,,,,,,,,,,,,,,,,,,main,2,2,2,positive,negative,l,l,1,0.7129365999717265,207.46184210001957,208.47716290003154,208.45670360000804,None,207.46184210001957,None,207.46184210001957,None,207.46184210001957,None,209.1603460500366,None,209.1603460500366,None,209.1603460500366,None,,,,,,,,,,,125,19,Female,2022-05-10_12h40.36.647,Boat,2022.1.1,59.99725213286704,
neutral,positive,2,k,k,,,,,,,,,1,1,19,13,,,,,,,,,,,,,,,,,,,,,,,,main,2,2,2,positive,neutral,k,k,1,1.2662421999266371,209.17891070002224,210.1792994000716,210.16211230005138,None,209.17891070002224,None,209.17891070002224,None,209.17891070002224,None,211.42927485004765,None,211.42927485004765,None,211.42927485004765,None,,,,,,,,,,,125,19,Female,2022-05-10_12h40.36.647,Boat,2022.1.1,59.99725213286704,
negative,positive,1,j,l,,,,,,,,,1,2,20,6,,,,,,,,,,,,,,,,,,,,,,,,main,1,1,1,positive,negative,l,l,1,0.8074830999830738,211.4472522001015,212.4562947000377,212.43536250002217,None,211.4472522001015,None,211.4472522001015,None,211.4472522001015,None,213.24098965000593,None,213.24098965000593,None,213.24098965000593,None,,,,,,,,,,,125,19,Female,2022-05-10_12h40.36.647,Boat,2022.1.1,59.99725213286704,
positive,negative,1,l,j,,,,,,,,,1,3,21,5,,,,,,,,,,,,,,,,,,,,,,,,main,2,2,1,negative,positive,j,j,1,0.9591730999527499,213.26136850006878,214.26215200009756,214.24517930008005,None,213.26136850006878,None,213.26136850006878,None,213.26136850006878,None,215.20220985006307,None,215.20220985006307,None,215.20220985006307,None,,,,,,,,,,,125,19,Female,2022-05-10_12h40.36.647,Boat,2022.1.1,59.99725213286704,
positive,positive,1,l,j,,,,,,,,,1,4,22,2,,,,,,,,,,,,,,,,,,,,,,,,main,2,2,1,positive,positive,j,j,1,0.6231683000223711,215.22267420007847,216.2324462000979,216.195658700075,None,215.22267420007847,None,215.22267420007847,None,215.22267420007847,None,216.82752045009983,None,216.82752045009983,None,216.82752045009983,None,,,,,,,,,,,125,19,Female,2022-05-10_12h40.36.647,Boat,2022.1.1,59.99725213286704,
negative,neutral,2,j,l,,,,,,,,,1,5,23,12,,,,,,,,,,,,,,,,,,,,,,,,main,2,2,2,neutral,negative,l,l,1,0.7705980000318959,216.84581660002004,217.84586540004238,217.82875620003324,None,216.84581660002004,None,216.84581660002004,None,216.84581660002004,None,218.60138555009615,None,218.60138555009615,None,218.60138555009615,None,,,,,,,,,,,125,19,Female,2022-05-10_12h40.36.647,Boat,2022.1.1,59.99725213286704,
neutral,positive,1,k,k,,,,,,,,,1,6,24,4,,,,,,,,,,,,,,,,,,,,,,,,main,2,2,1,positive,neutral,k,k,1,1.3511324999853969,218.6237959000282,219.6311781000113,219.5958333000308,None,218.6237959000282,None,218.6237959000282,None,218.6237959000282,None,220.95581155001418,None,220.95581155001418,None,220.95581155001418,None,,,,,,,,,,,125,19,Female,2022-05-10_12h40.36.647,Boat,2022.1.1,59.99725213286704,
negative,negative,2,j,l,,,,,,,,,1,7,25,9,,,,,,,,,,,,,,,,,,,,,,,,main,1,1,2,negative,negative,l,l,1,0.8186016000108793,220.97811430005822,221.97988370002713,221.96291980007663,None,220.97811430005822,None,220.97811430005822,None,220.97811430005822,None,222.77783565000863,None,222.77783565000863,None,222.77783565000863,None,,,,,,,,,,,125,19,Female,2022-05-10_12h40.36.647,Boat,2022.1.1,59.99725213286704,
neutral,negative,1,k,k,,,,,,,,,1,8,26,7,,,,,,,,,,,,,,,,,,,,,,,,main,1,1,1,negative,neutral,k,k,1,0.6966756000183523,222.79552520008292,223.8069211000111,223.78708650008775,None,222.79552520008292,None,222.79552520008292,None,222.79552520008292,None,224.47799905004211,None,224.47799905004211,None,224.47799905004211,None,,,,,,,,,,,125,19,Female,2022-05-10_12h40.36.647,Boat,2022.1.1,59.99725213286704,
neutral,neutral,1,k,k,,,,,,,,,1,9,27,1,,,,,,,,,,,,,,,,,,,,,,,,main,2,2,1,neutral,neutral,k,k,1,0.628180900006555,224.4944439000683,225.49562610010616,225.47896239999682,None,224.4944439000683,None,224.4944439000683,None,224.4944439000683,None,226.10988375007872,None,226.10988375007872,None,226.10988375007872,None,,,,,,,,,,,125,19,Female,2022-05-10_12h40.36.647,Boat,2022.1.1,59.99725213286704,
positive,negative,2,l,j,,,,,,,,,1,10,28,14,,,,,,,,,,,,,,,,,,,,,,,,main,1,1,2,negative,positive,j,j,1,0.7804031000705436,226.12801930005662,227.12952600000426,227.11257140000816,None,226.12801930005662,None,226.12801930005662,None,226.12801930005662,None,227.89356725009856,None,227.89356725009856,None,227.89356725009856,None,,,,,,,,,,,125,19,Female,2022-05-10_12h40.36.647,Boat,2022.1.1,59.99725213286704,
positive,neutral,2,l,j,,,,,,,,,1,11,29,17,,,,,,,,,,,,,,,,,,,,,,,,main,2,2,2,neutral,positive,j,j,1,0.6257771999808028,227.9112274000654,228.91252660006285,228.8951579000568,None,227.9112274000654,None,227.9112274000654,None,227.9112274000654,None,229.52322295004268,None,229.52322295004268,None,229.52322295004268,None,,,,,,,,,,,125,19,Female,2022-05-10_12h40.36.647,Boat,2022.1.1,59.99725213286704,
positive,positive,2,l,j,,,,,,,,,1,12,30,11,,,,,,,,,,,,,,,,,,,,,,,,main,2,2,2,positive,positive,j,j,1,0.612042999942787,229.5398617000319,230.55295570008457,230.5170400000643,None,229.5398617000319,None,229.5398617000319,None,229.5398617000319,None,231.13753405002643,None,231.13753405002643,None,231.13753405002643,None,,,,,,,,,,,125,19,Female,2022-05-10_12h40.36.647,Boat,2022.1.1,59.99725213286704,
neutral,negative,2,k,k,,,,,,,,,1,13,31,16,,,,,,,,,,,,,,,,,,,,,,,,main,2,2,2,negative,neutral,k,k,1,0.7905521000502631,231.15600340010133,232.17063810001127,232.1438467000844,None,231.15600340010133,None,231.15600340010133,None,231.15600340010133,None,232.9293600499979,None,232.9293600499979,None,232.9293600499979,None,,,,,,,,,,,125,19,Female,2022-05-10_12h40.36.647,Boat,2022.1.1,59.99725213286704,
positive,neutral,1,l,j,,,,,,,,,1,14,32,8,,,,,,,,,,,,,,,,,,,,,,,,main,1,1,1,neutral,positive,j,j,1,0.7591491000493988,232.9477389000822,233.96240960003342,233.92896789999213,None,232.9477389000822,None,232.9477389000822,None,232.9477389000822,None,234.6930596500053,None,234.6930596500053,None,234.6930596500053,None,,,,,,,,,,,125,19,Female,2022-05-10_12h40.36.647,Boat,2022.1.1,59.99725213286704,
negative,negative,1,j,l,,,,,,,,,1,15,33,0,,,,,,,,,,,,,,,,,,,,,,,,main,2,2,1,negative,negative,l,l,1,0.7991636999649927,234.71155030000955,235.71279710007366,235.67938520002645,None,234.71155030000955,None,234.71155030000955,None,234.71155030000955,None,236.49500655009177,None,236.49500655009177,None,236.49500655009177,None,,,,,,,,,,,125,19,Female,2022-05-10_12h40.36.647,Boat,2022.1.1,59.99725213286704,
negative,neutral,1,j,l,,,,,,,,,1,16,34,3,,,,,,,,,,,,,,,,,,,,,,,,main,1,1,1,neutral,negative,l,l,1,1.1787791999522597,236.5132084999932,237.52703830006067,237.50729360000696,None,236.5132084999932,None,236.5132084999932,None,236.5132084999932,None,238.67803004999877,None,238.67803004999877,None,238.67803004999877,None,,,,,,,,,,,125,19,Female,2022-05-10_12h40.36.647,Boat,2022.1.1,59.99725213286704,
neutral,neutral,2,k,k,,,,,,,,,1,17,35,10,,,,,,,,,,,,,,,,,,,,,,,,main,2,2,2,neutral,neutral,k,k,1,0.683749399962835,238.69624710001517,239.69587050005794,239.6795142000774,None,238.69624710001517,None,238.69624710001517,None,238.69624710001517,None,240.36455255000618,None,240.36455255000618,None,240.36455255000618,None,,,,,,,,,,,125,19,Female,2022-05-10_12h40.36.647,Boat,2022.1.1,59.99725213286704,
negative,negative,1,j,l,,,,,,,,,2,0,36,0,,,,,,,,,,,,,,,,,,,,,,,,main,1,1,1,negative,negative,l,l,1,0.7255289000459015,240.38194280001335,241.3963046000572,241.35738480009604,None,240.38194280001335,None,240.38194280001335,None,240.38194280001335,None,242.09368045009904,None,242.09368045009904,None,242.09368045009904,None,,,,,,,,,,,125,19,Female,2022-05-10_12h40.36.647,Boat,2022.1.1,59.99725213286704,
positive,negative,1,l,j,,,,,,,,,2,1,37,5,,,,,,,,,,,,,,,,,,,,,,,,main,2,2,1,negative,positive,j,l,0,0.6478889998979867,242.11157430009916,243.11279390007257,243.09590440010652,None,242.11157430009916,None,242.11157430009916,None,242.11157430009916,None,243.75005160004366,None,243.75005160004366,None,243.75005160004366,None,,,,,,,,,,,125,19,Female,2022-05-10_12h40.36.647,Boat,2022.1.1,59.99725213286704,
negative,neutral,1,j,l,,,,,,,,,2,2,38,3,,,,,,,,,,,,,,,,,,,,,,,,main,2,2,1,neutral,negative,l,l,1,0.8582206000573933,244.76601140003186,245.77961870003492,245.76139090000652,None,244.76601140003186,None,244.76601140003186,None,244.76601140003186,None,246.61046785010257,None,246.61046785010257,None,246.61046785010257,None,,,,,,,,,,,125,19,Female,2022-05-10_12h40.36.647,Boat,2022.1.1,59.99725213286704,
positive,neutral,2,l,j,,,,,,,,,2,3,39,17,,,,,,,,,,,,,,,,,,,,,,,,main,2,2,2,neutral,positive,j,j,1,0.7090207000728697,246.6283909000922,247.632537700003,247.59606750006787,None,246.6283909000922,None,246.6283909000922,None,246.6283909000922,None,248.32283375003607,None,248.32283375003607,None,248.32283375003607,None,,,,,,,,,,,125,19,Female,2022-05-10_12h40.36.647,Boat,2022.1.1,59.99725213286704,
negative,positive,1,j,l,,,,,,,,,2,4,40,6,,,,,,,,,,,,,,,,,,,,,,,,main,2,2,1,positive,negative,l,l,1,0.8037509999703616,248.3417084000539,249.34668740001507,249.32797480002046,None,248.3417084000539,None,248.3417084000539,None,248.3417084000539,None,250.12835935001493,None,250.12835935001493,None,250.12835935001493,None,,,,,,,,,,,125,19,Female,2022-05-10_12h40.36.647,Boat,2022.1.1,59.99725213286704,
neutral,positive,2,k,k,,,,,,,,,2,5,41,13,,,,,,,,,,,,,,,,,,,,,,,,main,1,1,2,positive,neutral,k,k,1,0.6529516000300646,250.1458001000574,251.1632832000032,251.12759490008466,None,250.1458001000574,None,250.1458001000574,None,250.1458001000574,None,251.78406835008644,None,251.78406835008644,None,251.78406835008644,None,,,,,,,,,,,125,19,Female,2022-05-10_12h40.36.647,Boat,2022.1.1,59.99725213286704,
neutral,negative,1,k,k,,,,,,,,,2,6,42,7,,,,,,,,,,,,,,,,,,,,,,,,main,2,2,1,negative,neutral,k,k,1,0.7310655999463052,251.8003885000944,252.81440950010438,252.7799543000292,None,251.8003885000944,None,251.8003885000944,None,251.8003885000944,None,253.51678925006416,None,253.51678925006416,None,253.51678925006416,None,,,,,,,,,,,125,19,Female,2022-05-10_12h40.36.647,Boat,2022.1.1,59.99725213286704,
neutral,neutral,1,k,k,,,,,,,,,2,7,43,1,,,,,,,,,,,,,,,,,,,,,,,,main,1,1,1,neutral,neutral,k,k,1,1.3926680999575183,253.53501049999613,254.5500299000414,254.51381999999285,None,253.53501049999613,None,253.53501049999613,None,253.53501049999613,None,255.91316215005935,None,255.91316215005935,None,255.91316215005935,None,,,,,,,,,,,125,19,Female,2022-05-10_12h40.36.647,Boat,2022.1.1,59.99725213286704,
positive,neutral,1,l,j,,,,,,,,,2,8,44,8,,,,,,,,,,,,,,,,,,,,,,,,main,2,2,1,neutral,positive,j,j,1,0.8671804999466985,255.931581400102,256.94711490010377,256.91301870008465,None,255.931581400102,None,255.931581400102,None,255.931581400102,None,257.78355315000516,None,257.78355315000516,None,257.78355315000516,None,,,,,,,,,,,125,19,Female,2022-05-10_12h40.36.647,Boat,2022.1.1,59.99725213286704,
negative,neutral,2,j,l,,,,,,,,,2,9,45,12,,,,,,,,,,,,,,,,,,,,,,,,main,2,2,2,neutral,negative,l,l,1,0.8732729000039399,257.80204580002464,258.8172282000305,258.7819889000384,None,257.80204580002464,None,257.80204580002464,None,257.80204580002464,None,259.66004335006,None,259.66004335006,None,259.66004335006,None,,,,,,,,,,,125,19,Female,2022-05-10_12h40.36.647,Boat,2022.1.1,59.99725213286704,
positive,positive,1,l,j,,,,,,,,,2,10,46,2,,,,,,,,,,,,,,,,,,,,,,,,main,1,1,1,positive,positive,j,l,0,-0.5514808000298217,259.67856940010097,None,None,None,259.67856940010097,None,259.67856940010097,None,259.67856940010097,None,260.1230528000742,None,260.1230528000742,None,260.1230528000742,None,,,,,,,,,,,125,19,Female,2022-05-10_12h40.36.647,Boat,2022.1.1,59.99725213286704,
positive,negative,2,l,j,,,,,,,,,2,11,47,14,,,,,,,,,,,,,,,,,,,,,,,,main,1,1,2,negative,positive,j,j,1,1.2563677999423817,263.13320200005546,264.1471136000473,264.1133881000569,None,263.13320200005546,None,263.13320200005546,None,263.13320200005546,None,265.37563775001325,None,265.37563775001325,None,265.37563775001325,None,,,,,,,,,,,125,19,Female,2022-05-10_12h40.36.647,Boat,2022.1.1,59.99725213286704,
neutral,negative,2,k,k,,,,,,,,,2,12,48,16,,,,,,,,,,,,,,,,,,,,,,,,main,2,2,2,negative,neutral,k,k,1,0.7710898000514135,265.3955835000379,266.3966360000195,266.37995780003257,None,265.3955835000379,None,265.3955835000379,None,265.3955835000379,None,267.1468575500068,None,267.1468575500068,None,267.1468575500068,None,,,,,,,,,,,125,19,Female,2022-05-10_12h40.36.647,Boat,2022.1.1,59.99725213286704,
neutral,positive,1,k,k,,,,,,,,,2,13,49,4,,,,,,,,,,,,,,,,,,,,,,,,main,2,2,1,positive,neutral,k,k,1,0.6981235999846831,267.1672298000194,268.186121600098,268.14874090009835,None,267.1672298000194,None,267.1672298000194,None,267.1672298000194,None,268.848343350098,None,268.848343350098,None,268.848343350098,None,,,,,,,,,,,125,19,Female,2022-05-10_12h40.36.647,Boat,2022.1.1,59.99725213286704,
negative,negative,2,j,l,,,,,,,,,2,14,50,9,,,,,,,,,,,,,,,,,,,,,,,,main,1,1,2,negative,negative,l,l,1,0.6209249999374151,268.8682567999931,269.87452589999884,269.8527006000513,None,268.8682567999931,None,268.8682567999931,None,268.8682567999931,None,270.4753989500343,None,270.4753989500343,None,270.4753989500343,None,,,,,,,,,,,125,19,Female,2022-05-10_12h40.36.647,Boat,2022.1.1,59.99725213286704,
positive,positive,2,l,j,,,,,,,,,2,15,51,11,,,,,,,,,,,,,,,,,,,,,,,,main,2,2,2,positive,positive,j,j,1,0.6920166000491008,270.4956260001054,271.5019764000317,271.46531610004604,None,270.4956260001054,None,270.4956260001054,None,270.4956260001054,None,272.16374485007253,None,272.16374485007253,None,272.16374485007253,None,,,,,,,,,,,125,19,Female,2022-05-10_12h40.36.647,Boat,2022.1.1,59.99725213286704,
neutral,neutral,2,k,k,,,,,,,,,2,16,52,10,,,,,,,,,,,,,,,,,,,,,,,,main,1,1,2,neutral,neutral,k,k,1,0.68550999998115,272.19221700006165,273.19737619999796,273.1804356999928,None,272.19221700006165,None,272.19221700006165,None,272.19221700006165,None,273.85825965005205,None,273.85825965005205,None,273.85825965005205,None,,,,,,,,,,,125,19,Female,2022-05-10_12h40.36.647,Boat,2022.1.1,59.99725213286704,
negative,positive,2,j,l,,,,,,,,,2,17,53,15,,,,,,,,,,,,,,,,,,,,,,,,main,1,1,2,positive,negative,l,l,1,0.9144492999184877,273.8782825000817,274.8804144000169,274.8637550000567,None,273.8782825000817,None,273.8782825000817,None,273.8782825000817,None,275.7752751500695,None,275.7752751500695,None,275.7752751500695,None,,,,,,,,,,,125,19,Female,2022-05-10_12h40.36.647,Boat,2022.1.1,59.99725213286704,
neutral,neutral,2,k,k,,,,,,,,,3,0,54,10,,,,,,,,,,,,,,,,,,,,,,,,main,1,1,2,neutral,neutral,k,k,1,0.6514373000245541,275.7964867000701,276.79837450000923,276.7807276000967,None,275.7964867000701,None,275.7964867000701,None,275.7964867000701,None,277.4292107500252,None,277.4292107500252,None,277.4292107500252,None,,,,,,,,,,,125,19,Female,2022-05-10_12h40.36.647,Boat,2022.1.1,59.99725213286704,
negative,positive,1,j,l,,,,,,,,,3,1,55,6,,,,,,,,,,,,,,,,,,,,,,,,main,2,2,1,positive,negative,l,l,1,0.8155387000879273,277.4457403999986,278.44800060009584,278.43053580005653,None,277.4457403999986,None,277.4457403999986,None,277.4457403999986,None,279.2467487500864,None,279.2467487500864,None,279.2467487500864,None,,,,,,,,,,,125,19,Female,2022-05-10_12h40.36.647,Boat,2022.1.1,59.99725213286704,
neutral,negative,1,k,k,,,,,,,,,3,2,56,7,,,,,,,,,,,,,,,,,,,,,,,,main,2,2,1,negative,neutral,k,k,1,0.6988197999307886,279.2662793000927,280.27877570001874,280.2582205000799,None,279.2662793000927,None,279.2662793000927,None,279.2662793000927,None,280.9489511500462,None,280.9489511500462,None,280.9489511500462,None,,,,,,,,,,,125,19,Female,2022-05-10_12h40.36.647,Boat,2022.1.1,59.99725213286704,
negative,negative,2,j,l,,,,,,,,,3,3,57,9,,,,,,,,,,,,,,,,,,,,,,,,main,2,2,2,negative,negative,l,l,1,0.7619787000585347,280.9679844001075,281.9885663000168,281.94148630008567,None,280.9679844001075,None,280.9679844001075,None,280.9679844001075,None,282.7141181500512,None,282.7141181500512,None,282.7141181500512,None,,,,,,,,,,,125,19,Female,2022-05-10_12h40.36.647,Boat,2022.1.1,59.99725213286704,
neutral,negative,2,k,k,,,,,,,,,3,4,58,16,,,,,,,,,,,,,,,,,,,,,,,,main,1,1,2,negative,neutral,k,k,1,0.5852318999823183,282.7317747999914,283.74709260009695,283.7135028000921,None,282.7317747999914,None,282.7317747999914,None,282.7317747999914,None,284.3035564500489,None,284.3035564500489,None,284.3035564500489,None,,,,,,,,,,,125,19,Female,2022-05-10_12h40.36.647,Boat,2022.1.1,59.99725213286704,
positive,neutral,1,l,j,,,,,,,,,3,5,59,8,,,,,,,,,,,,,,,,,,,,,,,,main,2,2,1,neutral,positive,j,j,1,0.8266405999893323,284.32341040007304,285.33185110008344,285.29735430004075,None,284.32341040007304,None,284.32341040007304,None,284.32341040007304,None,286.13142755009466,None,286.13142755009466,None,286.13142755009466,None,,,,,,,,,,,125,19,Female,2022-05-10_12h40.36.647,Boat,2022.1.1,59.99725213286704,
positive,neutral,2,l,j,,,,,,,,,3,6,60,17,,,,,,,,,,,,,,,,,,,,,,,,main,2,2,2,neutral,positive,j,j,1,0.6260821999749169,286.1491037000669,287.1518444000976,287.13352550007403,None,286.1491037000669,None,286.1491037000669,None,286.1491037000669,None,287.7617729500518,None,287.7617729500518,None,287.7617729500518,None,,,,,,,,,,,125,19,Female,2022-05-10_12h40.36.647,Boat,2022.1.1,59.99725213286704,
negative,negative,1,j,l,,,,,,,,,3,7,61,0,,,,,,,,,,,,,,,,,,,,,,,,main,2,2,1,negative,negative,l,l,1,0.784288699971512,287.7794734000927,288.780346600106,288.76340890000574,None,287.7794734000927,None,287.7794734000927,None,287.7794734000927,None,289.54716525004477,None,289.54716525004477,None,289.54716525004477,None,,,,,,,,,,,125,19,Female,2022-05-10_12h40.36.647,Boat,2022.1.1,59.99725213286704,
positive,negative,1,l,j,,,,,,,,,3,8,62,5,,,,,,,,,,,,,,,,,,,,,,,,main,1,1,1,negative,positive,j,j,1,0.7594726999523118,289.5669256000547,290.5842457000399,290.54703250003513,None,289.5669256000547,None,289.5669256000547,None,289.5669256000547,None,291.3116724500316,None,291.3116724500316,None,291.3116724500316,None,,,,,,,,,,,125,19,Female,2022-05-10_12h40.36.647,Boat,2022.1.1,59.99725213286704,
positive,negative,2,l,j,,,,,,,,,3,9,63,14,,,,,,,,,,,,,,,,,,,,,,,,main,1,1,2,negative,positive,j,j,1,0.6980989000294358,291.3292442000238,292.33501989999786,292.29923110001255,None,291.3292442000238,None,291.3292442000238,None,291.3292442000238,None,293.01248635001247,None,293.01248635001247,None,293.01248635001247,None,,,,,,,,,,,125,19,Female,2022-05-10_12h40.36.647,Boat,2022.1.1,59.99725213286704,
negative,neutral,1,j,l,,,,,,,,,3,10,64,3,,,,,,,,,,,,,,,,,,,,,,,,main,1,1,1,neutral,negative,l,l,1,0.8636157000437379,293.02953060006257,294.04713439999614,294.0097398000071,None,293.02953060006257,None,293.02953060006257,None,293.02953060006257,None,294.87935115,None,294.87935115,None,294.87935115,None,,,,,,,,,,,125,19,Female,2022-05-10_12h40.36.647,Boat,2022.1.1,59.99725213286704,
negative,neutral,2,j,l,,,,,,,,,3,11,65,12,,,,,,,,,,,,,,,,,,,,,,,,main,2,2,2,neutral,negative,l,l,1,0.7332994999596849,294.8972067000577,295.89756730000954,295.8807989000343,None,294.8972067000577,None,294.8972067000577,None,294.8972067000577,None,296.6145411500358,None,296.6145411500358,None,296.6145411500358,None,,,,,,,,,,,125,19,Female,2022-05-10_12h40.36.647,Boat,2022.1.1,59.99725213286704,
positive,positive,1,l,j,,,,,,,,,3,12,66,2,,,,,,,,,,,,,,,,,,,,,,,,main,2,2,1,positive,positive,j,j,1,0.6784267999464646,296.635147800087,297.6487346000504,297.6141589001054,None,296.635147800087,None,296.635147800087,None,296.635147800087,None,298.29733555006095,None,298.29733555006095,None,298.29733555006095,None,,,,,,,,,,,125,19,Female,2022-05-10_12h40.36.647,Boat,2022.1.1,59.99725213286704,
neutral,positive,2,k,k,,,,,,,,,3,13,67,13,,,,,,,,,,,,,,,,,,,,,,,,main,2,2,2,positive,neutral,k,k,1,0.6135364000219852,298.3152195001021,299.33149560005404,299.2975285000866,None,298.3152195001021,None,298.3152195001021,None,298.3152195001021,None,299.9142073501018,None,299.9142073501018,None,299.9142073501018,None,,,,,,,,,,,125,19,Female,2022-05-10_12h40.36.647,Boat,2022.1.1,59.99725213286704,
neutral,positive,1,k,k,,,,,,,,,3,14,68,4,,,,,,,,,,,,,,,,,,,,,,,,main,2,2,1,positive,neutral,k,k,1,0.5531389999669045,299.93276260001585,300.9482011999935,300.91418610000983,None,299.93276260001585,None,299.93276260001585,None,299.93276260001585,None,301.4681894500856,None,301.4681894500856,None,301.4681894500856,None,,,,,,,,,,,125,19,Female,2022-05-10_12h40.36.647,Boat,2022.1.1,59.99725213286704,
neutral,neutral,1,k,k,,,,,,,,,3,15,69,1,,,,,,,,,,,,,,,,,,,,,,,,main,2,2,1,neutral,neutral,k,k,1,0.5821322000119835,301.490892300033,302.50029170000926,302.4658644000301,None,301.490892300033,None,301.490892300033,None,301.490892300033,None,303.0569737499929,None,303.0569737499929,None,303.0569737499929,None,,,,,,,,,,,125,19,Female,2022-05-10_12h40.36.647,Boat,2022.1.1,59.99725213286704,
negative,positive,2,j,l,,,,,,,,,3,16,70,15,,,,,,,,,,,,,,,,,,,,,,,,main,1,1,2,positive,negative,l,l,1,0.9453967999434099,303.07617120002396,304.0807485000696,304.06371020001825,None,303.07617120002396,None,303.07617120002396,None,303.07617120002396,None,305.0023602500907,None,305.0023602500907,None,305.0023602500907,None,,,,,,,,,,,125,19,Female,2022-05-10_12h40.36.647,Boat,2022.1.1,59.99725213286704,
positive,positive,2,l,j,,,,,,,,,3,17,71,11,,,,,,,,,,,,,,,,,,,,,,,,main,2,2,2,positive,positive,j,j,1,0.6574846000876278,305.0244277000893,306.0316665000282,305.99761810002383,None,305.0244277000893,None,305.0244277000893,None,305.0244277000893,None,306.6641853500507,None,306.6641853500507,None,306.6641853500507,None,,,,,,,,,,,125,19,Female,2022-05-10_12h40.36.647,Boat,2022.1.1,59.99725213286704,
positive,positive,1,l,j,,,,,,,,,4,0,72,2,,,,,,,,,,,,,,,,,,,,,,,,main,1,1,1,positive,positive,j,j,1,0.7765047999564558,306.6809998000972,307.68095130007714,307.6642811000347,None,306.6809998000972,None,306.6809998000972,None,306.6809998000972,None,308.4448423500755,None,308.4448423500755,None,308.4448423500755,None,,,,,,,,,,,125,19,Female,2022-05-10_12h40.36.647,Boat,2022.1.1,59.99725213286704,
negative,negative,1,j,l,,,,,,,,,4,1,73,0,,,,,,,,,,,,,,,,,,,,,,,,main,1,1,1,negative,negative,l,l,1,0.8241428000619635,308.46312520001084,309.4644984001061,309.43078749999404,None,308.46312520001084,None,308.46312520001084,None,308.46312520001084,None,310.27074935006675,None,310.27074935006675,None,310.27074935006675,None,,,,,,,,,,,125,19,Female,2022-05-10_12h40.36.647,Boat,2022.1.1,59.99725213286704,
neutral,negative,2,k,k,,,,,,,,,4,2,74,16,,,,,,,,,,,,,,,,,,,,,,,,main,2,2,2,negative,neutral,k,k,1,0.733571800054051,310.29164110007696,311.30109080008697,311.2648579000961,None,310.29164110007696,None,310.29164110007696,None,310.29164110007696,None,312.0075458499952,None,312.0075458499952,None,312.0075458499952,None,,,,,,,,,,,125,19,Female,2022-05-10_12h40.36.647,Boat,2022.1.1,59.99725213286704,
negative,negative,2,j,l,,,,,,,,,4,3,75,9,,,,,,,,,,,,,,,,,,,,,,,,main,1,1,2,negative,negative,l,l,1,0.9607360999798402,312.0300281000091,313.04854030010756,313.0091742000077,None,312.0300281000091,None,312.0300281000091,None,312.0300281000091,None,313.97043775009223,None,313.97043775009223,None,313.97043775009223,None,,,,,,,,,,,125,19,Female,2022-05-10_12h40.36.647,Boat,2022.1.1,59.99725213286704,
neutral,neutral,1,k,k,,,,,,,,,4,4,76,1,,,,,,,,,,,,,,,,,,,,,,,,main,2,2,1,neutral,neutral,k,k,1,0.6681775999022648,313.9876678000437,314.9923006000463,314.9715554000577,None,313.9876678000437,None,313.9876678000437,None,313.9876678000437,None,315.6416683500749,None,315.6416683500749,None,315.6416683500749,None,,,,,,,,,,,125,19,Female,2022-05-10_12h40.36.647,Boat,2022.1.1,59.99725213286704,
positive,neutral,1,l,j,,,,,,,,,4,5,77,8,,,,,,,,,,,,,,,,,,,,,,,,main,2,2,1,neutral,positive,j,j,1,0.8180854999227449,315.66178640001453,316.66470020008273,316.64772670005914,None,315.66178640001453,None,315.66178640001453,None,315.66178640001453,None,317.46206555002135,None,317.46206555002135,None,317.46206555002135,None,,,,,,,,,,,125,19,Female,2022-05-10_12h40.36.647,Boat,2022.1.1,59.99725213286704,
positive,negative,2,l,j,,,,,,,,,4,6,78,14,,,,,,,,,,,,,,,,,,,,,,,,main,2,2,2,negative,positive,j,j,1,0.6801500999135897,317.47993780008983,318.48155680007767,318.46441540005617,None,317.47993780008983,None,317.47993780008983,None,317.47993780008983,None,319.1444273500121,None,319.1444273500121,None,319.1444273500121,None,,,,,,,,,,,125,19,Female,2022-05-10_12h40.36.647,Boat,2022.1.1,59.99725213286704,
neutral,positive,2,k,k,,,,,,,,,4,7,79,13,,,,,,,,,,,,,,,,,,,,,,,,main,1,1,2,positive,neutral,k,k,1,0.6601365999085829,319.1633344000438,320.16585460002534,320.1478769000387,None,319.1633344000438,None,319.1633344000438,None,319.1633344000438,None,320.8092287500505,None,320.8092287500505,None,320.8092287500505,None,,,,,,,,,,,125,19,Female,2022-05-10_12h40.36.647,Boat,2022.1.1,59.99725213286704,
neutral,positive,1,k,k,,,,,,,,,4,8,80,4,,,,,,,,,,,,,,,,,,,,,,,,main,2,2,1,positive,neutral,k,k,1,0.6361860999604687,320.8287813999923,321.8325384000782,321.7977863000706,None,320.8287813999923,None,320.8287813999923,None,320.8287813999923,None,322.4462968500913,None,322.4462968500913,None,322.4462968500913,None,,,,,,,,,,,125,19,Female,2022-05-10_12h40.36.647,Boat,2022.1.1,59.99725213286704,
negative,neutral,1,j,l,,,,,,,,,4,9,81,3,,,,,,,,,,,,,,,,,,,,,,,,main,2,2,1,neutral,negative,l,l,1,0.8097816000226885,322.4665035000071,323.48271770006977,323.4480302000884,None,322.4665035000071,None,322.4665035000071,None,322.4665035000071,None,324.2612407500739,None,324.2612407500739,None,324.2612407500739,None,,,,,,,,,,,125,19,Female,2022-05-10_12h40.36.647,Boat,2022.1.1,59.99725213286704,
negative,positive,1,j,l,,,,,,,,,4,10,82,6,,,,,,,,,,,,,,,,,,,,,,,,main,2,2,1,positive,negative,l,l,1,0.7138954000547528,324.28078570007347,325.2839704999933,325.24780490004923,None,324.28078570007347,None,324.28078570007347,None,324.28078570007347,None,325.97698424999834,None,325.97698424999834,None,325.97698424999834,None,,,,,,,,,,,125,19,Female,2022-05-10_12h40.36.647,Boat,2022.1.1,59.99725213286704,
positive,neutral,2,l,j,,,,,,,,,4,11,83,17,,,,,,,,,,,,,,,,,,,,,,,,main,2,2,2,neutral,positive,j,j,1,0.7637710000853986,325.99685120000504,327.0137184000341,326.9934225000907,None,325.99685120000504,None,325.99685120000504,None,325.99685120000504,None,327.74376675008097,None,327.74376675008097,None,327.74376675008097,None,,,,,,,,,,,125,19,Female,2022-05-10_12h40.36.647,Boat,2022.1.1,59.99725213286704,
positive,negative,1,l,j,,,,,,,,,4,12,84,5,,,,,,,,,,,,,,,,,,,,,,,,main,2,2,1,negative,positive,j,j,1,0.6498837000690401,327.76349070004653,328.76475660002325,328.74584940006025,None,327.76349070004653,None,327.76349070004653,None,327.76349070004653,None,329.3967807500041,None,329.3967807500041,None,329.3967807500041,None,,,,,,,,,,,125,19,Female,2022-05-10_12h40.36.647,Boat,2022.1.1,59.99725213286704,
neutral,neutral,2,k,k,,,,,,,,,4,13,85,10,,,,,,,,,,,,,,,,,,,,,,,,main,2,2,2,neutral,neutral,k,k,1,0.6477708000456914,329.4144235000713,330.4163721000077,330.3980569000123,None,329.4144235000713,None,329.4144235000713,None,329.4144235000713,None,331.0476890500751,None,331.0476890500751,None,331.0476890500751,None,,,,,,,,,,,125,19,Female,2022-05-10_12h40.36.647,Boat,2022.1.1,59.99725213286704,
positive,positive,2,l,j,,,,,,,,,4,14,86,11,,,,,,,,,,,,,,,,,,,,,,,,main,2,2,2,positive,positive,j,j,1,0.7448658000212163,331.06455620005727,332.0895667000441,332.04267260001507,None,331.06455620005727,None,331.06455620005727,None,331.06455620005727,None,332.79554045001277,None,332.79554045001277,None,332.79554045001277,None,,,,,,,,,,,125,19,Female,2022-05-10_12h40.36.647,Boat,2022.1.1,59.99725213286704,
negative,neutral,2,j,l,,,,,,,,,4,15,87,12,,,,,,,,,,,,,,,,,,,,,,,,main,1,1,2,neutral,negative,l,l,1,0.9427132999990135,332.8135864000069,333.81483590009157,333.7983039000537,None,332.8135864000069,None,332.8135864000069,None,332.8135864000069,None,334.74069724999134,None,334.74069724999134,None,334.74069724999134,None,,,,,,,,,,,125,19,Female,2022-05-10_12h40.36.647,Boat,2022.1.1,59.99725213286704,
neutral,negative,1,k,k,,,,,,,,,4,16,88,7,,,,,,,,,,,,,,,,,,,,,,,,main,2,2,1,negative,neutral,k,k,1,0.6371320999460295,334.7637650000397,335.781552700093,335.7422716000583,None,334.7637650000397,None,334.7637650000397,None,334.7637650000397,None,336.38177165003725,None,336.38177165003725,None,336.38177165003725,None,,,,,,,,,,,125,19,Female,2022-05-10_12h40.36.647,Boat,2022.1.1,59.99725213286704,
negative,positive,2,j,l,,,,,,,,,4,17,89,15,,,,,,,,,,,,,,,,,,,,,,,,main,1,1,2,positive,negative,l,l,1,0.9188792000059038,336.39813830005005,337.39883350010496,337.3814617000753,None,336.39813830005005,None,336.39813830005005,None,336.39813830005005,None,338.3022162500885,None,338.3022162500885,None,338.3022162500885,None,,,,,,,,,,,125,19,Female,2022-05-10_12h40.36.647,Boat,2022.1.1,59.99725213286704,
positive,negative,2,l,j,,,,,,,,,5,0,90,14,,,,,,,,,,,,,,,,,,,,,,,,main,1,1,2,negative,positive,j,j,1,0.7187761999666691,338.3199968000408,339.33421010000166,339.2982328000944,None,338.3199968000408,None,338.3199968000408,None,338.3199968000408,None,340.0255017500487,None,340.0255017500487,None,340.0255017500487,None,,,,,,,,,,,125,19,Female,2022-05-10_12h40.36.647,Boat,2022.1.1,59.99725213286704,
negative,negative,1,j,l,,,,,,,,,5,1,91,0,,,,,,,,,,,,,,,,,,,,,,,,main,1,1,1,negative,negative,l,l,1,0.7904089000076056,340.04571530001704,341.0649151999969,341.02599019999616,None,340.04571530001704,None,340.04571530001704,None,340.04571530001704,None,341.8169556500972,None,341.8169556500972,None,341.8169556500972,None,,,,,,,,,,,125,19,Female,2022-05-10_12h40.36.647,Boat,2022.1.1,59.99725213286704,
positive,neutral,2,l,j,,,,,,,,,5,2,92,17,,,,,,,,,,,,,,,,,,,,,,,,main,2,2,2,neutral,positive,j,j,1,0.905860000057146,341.83507560007274,342.85027550009545,342.81567010004073,None,341.83507560007274,None,341.83507560007274,None,341.83507560007274,None,343.72703155000926,None,343.72703155000926,None,343.72703155000926,None,,,,,,,,,,,125,19,Female,2022-05-10_12h40.36.647,Boat,2022.1.1,59.99725213286704,
positive,positive,1,l,j,,,,,,,,,5,3,93,2,,,,,,,,,,,,,,,,,,,,,,,,main,2,2,1,positive,positive,j,j,1,0.7221861000871286,343.7473753000377,344.7492821000051,344.71507030003704,None,343.7473753000377,None,343.7473753000377,None,343.7473753000377,None,345.45026995007646,None,345.45026995007646,None,345.45026995007646,None,,,,,,,,,,,125,19,Female,2022-05-10_12h40.36.647,Boat,2022.1.1,59.99725213286704,
neutral,positive,2,k,k,,,,,,,,,5,4,94,13,,,,,,,,,,,,,,,,,,,,,,,,main,2,2,2,positive,neutral,k,k,1,0.6991034999955446,345.4671850000741,346.4818806000985,346.44311760005075,None,345.4671850000741,None,345.4671850000741,None,345.4671850000741,None,347.1514016500325,None,347.1514016500325,None,347.1514016500325,None,,,,,,,,,,,125,19,Female,2022-05-10_12h40.36.647,Boat,2022.1.1,59.99725213286704,
negative,neutral,1,j,l,,,,,,,,,5,5,95,3,,,,,,,,,,,,,,,,,,,,,,,,main,2,2,1,neutral,negative,l,l,1,0.6416996999178082,347.1684026001021,348.18011430010665,348.15998410002794,None,347.1684026001021,None,347.1684026001021,None,347.1684026001021,None,348.7970154500683,None,348.7970154500683,None,348.7970154500683,None,,,,,,,,,,,125,19,Female,2022-05-10_12h40.36.647,Boat,2022.1.1,59.99725213286704,
negative,negative,2,j,l,,,,,,,,,5,6,96,9,,,,,,,,,,,,,,,,,,,,,,,,main,1,1,2,negative,negative,l,l,1,0.731838500010781,348.81487270002253,349.8319399000611,349.79348370002117,None,348.81487270002253,None,348.81487270002253,None,348.81487270002253,None,350.5317740500788,None,350.5317740500788,None,350.5317740500788,None,,,,,,,,,,,125,19,Female,2022-05-10_12h40.36.647,Boat,2022.1.1,59.99725213286704,
negative,positive,2,j,l,,,,,,,,,5,7,97,15,,,,,,,,,,,,,,,,,,,,,,,,main,2,2,2,positive,negative,l,l,1,0.7177659999579191,350.5500007000519,351.56732260005083,351.53192570002284,None,350.5500007000519,None,350.5500007000519,None,350.5500007000519,None,352.249861150037,None,352.249861150037,None,352.249861150037,None,,,,,,,,,,,125,19,Female,2022-05-10_12h40.36.647,Boat,2022.1.1,59.99725213286704,
positive,neutral,1,l,j,,,,,,,,,5,8,98,8,,,,,,,,,,,,,,,,,,,,,,,,main,1,1,1,neutral,positive,j,j,1,0.7772822000551969,352.27928120002616,353.28186380001716,353.2634492000798,None,352.27928120002616,None,352.27928120002616,None,352.27928120002616,None,354.0333126500365,None,354.0333126500365,None,354.0333126500365,None,,,,,,,,,,,125,19,Female,2022-05-10_12h40.36.647,Boat,2022.1.1,59.99725213286704,
neutral,neutral,2,k,k,,,,,,,,,5,9,99,10,,,,,,,,,,,,,,,,,,,,,,,,main,2,2,2,neutral,neutral,k,k,1,0.6213387999450788,354.0515236000065,355.06533890007995,355.02658380009234,None,354.0515236000065,None,354.0515236000065,None,354.0515236000065,None,355.65803345000603,None,355.65803345000603,None,355.65803345000603,None,,,,,,,,,,,125,19,Female,2022-05-10_12h40.36.647,Boat,2022.1.1,59.99725213286704,
neutral,positive,1,k,k,,,,,,,,,5,10,100,4,,,,,,,,,,,,,,,,,,,,,,,,main,1,1,1,positive,neutral,k,k,1,0.6274511999217793,355.6795885000611,356.6874501000857,356.6506473000627,None,355.6795885000611,None,355.6795885000611,None,355.6795885000611,None,357.2868911500438,None,357.2868911500438,None,357.2868911500438,None,,,,,,,,,,,125,19,Female,2022-05-10_12h40.36.647,Boat,2022.1.1,59.99725213286704,
positive,negative,1,l,j,,,,,,,,,5,11,101,5,,,,,,,,,,,,,,,,,,,,,,,,main,2,2,1,negative,positive,j,j,1,0.7400282999733463,357.30420590005815,358.31533400004264,358.2766105000628,None,357.30420590005815,None,357.30420590005815,None,357.30420590005815,None,359.03078045008004,None,359.03078045008004,None,359.03078045008004,None,,,,,,,,,,,125,19,Female,2022-05-10_12h40.36.647,Boat,2022.1.1,59.99725213286704,
neutral,neutral,1,k,k,,,,,,,,,5,12,102,1,,,,,,,,,,,,,,,,,,,,,,,,main,2,2,1,neutral,neutral,k,k,1,0.6954101999290287,359.04821900010575,360.0486276000738,360.0313615000341,None,359.04821900010575,None,359.04821900010575,None,359.04821900010575,None,360.7295155500644,None,360.7295155500644,None,360.7295155500644,None,,,,,,,,,,,125,19,Female,2022-05-10_12h40.36.647,Boat,2022.1.1,59.99725213286704,
neutral,negative,2,k,k,,,,,,,,,5,13,103,16,,,,,,,,,,,,,,,,,,,,,,,,main,2,2,2,negative,neutral,k,k,1,0.6396938000107184,360.74756740010343,361.7487783000106,361.73042470007204,None,360.74756740010343,None,360.74756740010343,None,360.74756740010343,None,362.3721298500779,None,362.3721298500779,None,362.3721298500779,None,,,,,,,,,,,125,19,Female,2022-05-10_12h40.36.647,Boat,2022.1.1,59.99725213286704,
negative,positive,1,j,l,,,,,,,,,5,14,104,6,,,,,,,,,,,,,,,,,,,,,,,,main,2,2,1,positive,negative,l,l,1,0.7223752000136301,362.38884490006603,363.3964300000807,363.37663450010587,None,362.38884490006603,None,362.38884490006603,None,362.38884490006603,None,364.09727514999685,None,364.09727514999685,None,364.09727514999685,None,,,,,,,,,,,125,19,Female,2022-05-10_12h40.36.647,Boat,2022.1.1,59.99725213286704,
neutral,negative,1,k,k,,,,,,,,,5,15,105,7,,,,,,,,,,,,,,,,,,,,,,,,main,2,2,1,negative,neutral,k,k,1,0.6804000000702217,364.1153113000328,365.13229110010434,365.09350820002146,None,364.1153113000328,None,364.1153113000328,None,364.1153113000328,None,365.7810592499911,None,365.7810592499911,None,365.7810592499911,None,,,,,,,,,,,125,19,Female,2022-05-10_12h40.36.647,Boat,2022.1.1,59.99725213286704,
negative,neutral,2,j,l,,,,,,,,,5,16,106,12,,,,,,,,,,,,,,,,,,,,,,,,main,2,2,2,neutral,negative,l,l,1,0.7625769999576733,365.7988638000097,366.7993766000727,366.78226310003083,None,365.7988638000097,None,365.7988638000097,None,365.7988638000097,None,367.5475669500767,None,367.5475669500767,None,367.5475669500767,None,,,,,,,,,,,125,19,Female,2022-05-10_12h40.36.647,Boat,2022.1.1,59.99725213286704,
positive,positive,2,l,j,,,,,,,,,5,17,107,11,,,,,,,,,,,,,,,,,,,,,,,,main,1,1,2,positive,positive,j,j,1,0.9128797999583185,367.5642257001018,368.5657201000722,368.5466124000959,None,367.5642257001018,None,367.5642257001018,None,367.5642257001018,None,369.464297650021,None,369.464297650021,None,369.464297650021,None,,,,,,,,,,,125,19,Female,2022-05-10_12h40.36.647,Boat,2022.1.1,59.99725213286704,
positive,negative,1,l,j,,,,,,,,,6,0,108,5,,,,,,,,,,,,,,,,,,,,,,,,main,2,2,1,negative,positive,j,j,1,0.9535326000768691,369.4824775001034,370.48287250008434,370.4659131000517,None,369.4824775001034,None,369.4824775001034,None,369.4824775001034,None,371.41935005002887,None,371.41935005002887,None,371.41935005002887,None,,,,,,,,,,,125,19,Female,2022-05-10_12h40.36.647,Boat,2022.1.1,59.99725213286704,
positive,positive,1,l,j,,,,,,,,,6,1,109,2,,,,,,,,,,,,,,,,,,,,,,,,main,1,1,1,positive,positive,j,j,1,0.6910374999279156,371.4364448999986,372.4506816000212,372.4161041000625,None,371.4364448999986,None,371.4364448999986,None,371.4364448999986,None,373.11431985009693,None,373.11431985009693,None,373.11431985009693,None,,,,,,,,,,,125,19,Female,2022-05-10_12h40.36.647,Boat,2022.1.1,59.99725213286704,
neutral,neutral,1,k,k,,,,,,,,,6,2,110,1,,,,,,,,,,,,,,,,,,,,,,,,main,2,2,1,neutral,neutral,k,k,1,0.6440143999643624,373.1322153999936,374.13231770007405,374.11562910000794,None,373.1322153999936,None,373.1322153999936,None,373.1322153999936,None,374.7618438500096,None,374.7618438500096,None,374.7618438500096,None,,,,,,,,,,,125,19,Female,2022-05-10_12h40.36.647,Boat,2022.1.1,59.99725213286704,
neutral,positive,1,k,k,,,,,,,,,6,3,111,4,,,,,,,,,,,,,,,,,,,,,,,,main,2,2,1,positive,neutral,k,k,1,0.5903170999372378,374.7813600000227,375.79691760009155,375.75726260000374,None,374.7813600000227,None,374.7813600000227,None,374.7813600000227,None,376.35520665008806,None,376.35520665008806,None,376.35520665008806,None,,,,,,,,,,,125,19,Female,2022-05-10_12h40.36.647,Boat,2022.1.1,59.99725213286704,
positive,positive,2,l,j,,,,,,,,,6,4,112,11,,,,,,,,,,,,,,,,,,,,,,,,main,2,2,2,positive,positive,j,j,1,0.7624557999661192,376.37187780009117,377.3822413000744,377.3661084000487,None,376.37187780009117,None,376.37187780009117,None,376.37187780009117,None,378.1183322500321,None,378.1183322500321,None,378.1183322500321,None,,,,,,,,,,,125,19,Female,2022-05-10_12h40.36.647,Boat,2022.1.1,59.99725213286704,
positive,negative,2,l,j,,,,,,,,,6,5,113,14,,,,,,,,,,,,,,,,,,,,,,,,main,2,2,2,negative,positive,j,j,1,0.5247490999754518,378.1364003000781,379.15067040000577,379.1151791000739,None,378.1364003000781,None,378.1364003000781,None,378.1364003000781,None,379.6476185500971,None,379.6476185500971,None,379.6476185500971,None,,,,,,,,,,,125,19,Female,2022-05-10_12h40.36.647,Boat,2022.1.1,59.99725213286704,
negative,negative,1,j,l,,,,,,,,,6,6,114,0,,,,,,,,,,,,,,,,,,,,,,,,main,2,2,1,negative,negative,l,l,1,0.8053393999580294,379.6644641000312,380.68037380010355,380.6604510000907,None,379.6644641000312,None,379.6644641000312,None,379.6644641000312,None,381.4544283500756,None,381.4544283500756,None,381.4544283500756,None,,,,,,,,,,,125,19,Female,2022-05-10_12h40.36.647,Boat,2022.1.1,59.99725213286704,
neutral,negative,2,k,k,,,,,,,,,6,7,115,16,,,,,,,,,,,,,,,,,,,,,,,,main,2,2,2,negative,neutral,k,k,1,0.655029600020498,381.4752456001006,382.48743300000206,382.4503458000254,None,381.4752456001006,None,381.4752456001006,None,381.4752456001006,None,383.11436405008425,None,383.11436405008425,None,383.11436405008425,None,,,,,,,,,,,125,19,Female,2022-05-10_12h40.36.647,Boat,2022.1.1,59.99725213286704,
neutral,positive,2,k,k,,,,,,,,,6,8,116,13,,,,,,,,,,,,,,,,,,,,,,,,main,1,1,2,positive,neutral,k,k,1,0.6950254000257701,383.1320798000088,384.14391720003914,384.1238071999978,None,383.1320798000088,None,383.1320798000088,None,383.1320798000088,None,384.8133334501064,None,384.8133334501064,None,384.8133334501064,None,,,,,,,,,,,125,19,Female,2022-05-10_12h40.36.647,Boat,2022.1.1,59.99725213286704,
neutral,negative,1,k,k,,,,,,,,,6,9,117,7,,,,,,,,,,,,,,,,,,,,,,,,main,2,2,1,negative,neutral,k,k,1,0.7125677999574691,384.83130540000275,385.8331601000391,385.8159051000839,None,384.83130540000275,None,384.83130540000275,None,384.83130540000275,None,386.5289184501045,None,386.5289184501045,None,386.5289184501045,None,,,,,,,,,,,125,19,Female,2022-05-10_12h40.36.647,Boat,2022.1.1,59.99725213286704,
negative,neutral,1,j,l,,,,,,,,,6,10,118,3,,,,,,,,,,,,,,,,,,,,,,,,main,2,2,1,neutral,negative,l,l,1,0.8184961000224575,386.54816390003543,387.5740679000737,387.52729940006975,None,386.54816390003543,None,386.54816390003543,None,386.54816390003543,None,388.34966755005297,None,388.34966755005297,None,388.34966755005297,None,,,,,,,,,,,125,19,Female,2022-05-10_12h40.36.647,Boat,2022.1.1,59.99725213286704,
negative,positive,1,j,l,,,,,,,,,6,11,119,6,,,,,,,,,,,,,,,,,,,,,,,,main,1,1,1,positive,negative,l,l,1,0.6459138999925926,388.36954590003006,389.38249079999514,389.3487166000996,None,388.36954590003006,None,388.36954590003006,None,388.36954590003006,None,389.99868285002884,None,389.99868285002884,None,389.99868285002884,None,,,,,,,,,,,125,19,Female,2022-05-10_12h40.36.647,Boat,2022.1.1,59.99725213286704,
neutral,neutral,2,k,k,,,,,,,,,6,12,120,10,,,,,,,,,,,,,,,,,,,,,,,,main,2,2,2,neutral,neutral,k,k,1,0.6478262000018731,390.0165955000557,391.01633200002834,390.9993525000755,None,390.0165955000557,None,390.0165955000557,None,390.0165955000557,None,391.64974975002696,None,391.64974975002696,None,391.64974975002696,None,,,,,,,,,,,125,19,Female,2022-05-10_12h40.36.647,Boat,2022.1.1,59.99725213286704,
negative,positive,2,j,l,,,,,,,,,6,13,121,15,,,,,,,,,,,,,,,,,,,,,,,,main,2,2,2,positive,negative,l,l,1,0.9950588999781758,391.66686850006226,392.6826950000832,392.64051000005566,None,391.66686850006226,None,391.66686850006226,None,391.66686850006226,None,393.64808595004723,None,393.64808595004723,None,393.64808595004723,None,,,,,,,,,,,125,19,Female,2022-05-10_12h40.36.647,Boat,2022.1.1,59.99725213286704,
negative,neutral,2,j,l,,,,,,,,,6,14,122,12,,,,,,,,,,,,,,,,,,,,,,,,main,2,2,2,neutral,negative,l,l,1,0.7790415999479592,393.66582610004116,394.6673041000031,394.649702200084,None,393.66582610004116,None,393.66582610004116,None,393.66582610004116,None,395.43098585003753,None,395.43098585003753,None,395.43098585003753,None,,,,,,,,,,,125,19,Female,2022-05-10_12h40.36.647,Boat,2022.1.1,59.99725213286704,
positive,neutral,2,l,j,,,,,,,,,6,15,123,17,,,,,,,,,,,,,,,,,,,,,,,,main,2,2,2,neutral,positive,j,j,1,0.6375995998969302,395.44831340003293,396.44990220002364,396.4314194000326,None,395.44831340003293,None,395.44831340003293,None,395.44831340003293,None,397.0699587500305,None,397.0699587500305,None,397.0699587500305,None,,,,,,,,,,,125,19,Female,2022-05-10_12h40.36.647,Boat,2022.1.1,59.99725213286704,
positive,neutral,1,l,j,,,,,,,,,6,16,124,8,,,,,,,,,,,,,,,,,,,,,,,,main,1,1,1,neutral,positive,j,j,1,0.6375264000380412,397.08803360001184,398.0990477000596,398.0790603000205,None,397.08803360001184,None,397.08803360001184,None,397.08803360001184,None,398.7122635500156,None,398.7122635500156,None,398.7122635500156,None,,,,,,,,,,,125,19,Female,2022-05-10_12h40.36.647,Boat,2022.1.1,59.99725213286704,
negative,negative,2,j,l,,,,,,,,,6,17,125,9,,,,,,,,,,,,,,,,,,,,,,,,main,1,1,2,negative,negative,l,k,0,0.6082048000534996,398.72827880003024,399.74073080008384,399.6995359000284,None,398.72827880003024,None,398.72827880003024,None,398.72827880003024,None,400.32579220004845,None,400.32579220004845,None,400.32579220004845,None,,,,,,,,,,,125,19,Female,2022-05-10_12h40.36.647,Boat,2022.1.1,59.99725213286704,
neutral,positive,2,k,k,,,,,,,,,7,0,126,13,,,,,,,,,,,,,,,,,,,,,,,,main,1,1,2,positive,neutral,k,k,1,0.6615854999981821,401.33565590006765,402.3505831999937,402.31466910010204,None,401.33565590006765,None,401.33565590006765,None,401.33565590006765,None,402.9828585500247,None,402.9828585500247,None,402.9828585500247,None,,,,,,,,,,,125,19,Female,2022-05-10_12h40.36.647,Boat,2022.1.1,59.99725213286704,
positive,positive,2,l,j,,,,,,,,,7,1,127,11,,,,,,,,,,,,,,,,,,,,,,,,main,1,1,2,positive,positive,j,j,1,0.7549460000591353,403.00128960004076,404.00193020002916,403.98417619999964,None,403.00128960004076,None,403.00128960004076,None,403.00128960004076,None,404.7425540500437,None,404.7425540500437,None,404.7425540500437,None,,,,,,,,,,,125,19,Female,2022-05-10_12h40.36.647,Boat,2022.1.1,59.99725213286704,
negative,neutral,2,j,l,,,,,,,,,7,2,128,12,,,,,,,,,,,,,,,,,,,,,,,,main,1,1,2,neutral,negative,l,l,1,0.8089633999625221,404.76218479999807,405.7675729000475,405.7333914000774,None,404.76218479999807,None,404.76218479999807,None,404.76218479999807,None,406.5526375500369,None,406.5526375500369,None,406.5526375500369,None,,,,,,,,,,,125,19,Female,2022-05-10_12h40.36.647,Boat,2022.1.1,59.99725213286704,
positive,negative,1,l,j,,,,,,,,,7,3,129,5,,,,,,,,,,,,,,,,,,,,,,,,main,1,1,1,negative,positive,j,j,1,0.8049899999750778,406.57029580010567,407.5841805000091,407.54975140001625,None,406.57029580010567,None,406.57029580010567,None,406.57029580010567,None,408.360579050018,None,408.360579050018,None,408.360579050018,None,,,,,,,,,,,125,19,Female,2022-05-10_12h40.36.647,Boat,2022.1.1,59.99725213286704,
negative,positive,1,j,l,,,,,,,,,7,4,130,6,,,,,,,,,,,,,,,,,,,,,,,,main,2,2,1,positive,negative,l,l,1,0.8428156999871135,408.38183910003863,409.3944342000177,409.3745983000845,None,408.38183910003863,None,408.38183910003863,None,408.38183910003863,None,410.20567425001644,None,410.20567425001644,None,410.20567425001644,None,,,,,,,,,,,125,19,Female,2022-05-10_12h40.36.647,Boat,2022.1.1,59.99725213286704,
negative,neutral,1,j,l,,,,,,,,,7,5,131,3,,,,,,,,,,,,,,,,,,,,,,,,main,1,1,1,neutral,negative,l,l,1,0.7264259000075981,410.22696750005707,411.23128180007916,411.2110121001024,None,410.22696750005707,None,410.22696750005707,None,410.22696750005707,None,411.9339832500438,None,411.9339832500438,None,411.9339832500438,None,,,,,,,,,,,125,19,Female,2022-05-10_12h40.36.647,Boat,2022.1.1,59.99725213286704,
positive,negative,2,l,j,,,,,,,,,7,6,132,14,,,,,,,,,,,,,,,,,,,,,,,,main,2,2,2,negative,positive,j,j,1,0.7630517999641597,411.95197120006196,412.9641289000865,412.9442070000805,None,411.95197120006196,None,411.95197120006196,None,411.95197120006196,None,413.7007156500942,None,413.7007156500942,None,413.7007156500942,None,,,,,,,,,,,125,19,Female,2022-05-10_12h40.36.647,Boat,2022.1.1,59.99725213286704,
neutral,neutral,2,k,k,,,,,,,,,7,7,133,10,,,,,,,,,,,,,,,,,,,,,,,,main,1,1,2,neutral,neutral,k,k,1,0.708567599998787,413.71700940001756,414.716438600095,414.6998456000583,None,413.71700940001756,None,413.71700940001756,None,413.71700940001756,None,415.4131185500766,None,415.4131185500766,None,415.4131185500766,None,,,,,,,,,,,125,19,Female,2022-05-10_12h40.36.647,Boat,2022.1.1,59.99725213286704,
positive,positive,1,l,j,,,,,,,,,7,8,134,2,,,,,,,,,,,,,,,,,,,,,,,,main,1,1,1,positive,positive,j,j,1,0.9178553000092506,415.43238510005176,416.4338005000027,416.3998245000839,None,415.43238510005176,None,415.43238510005176,None,415.43238510005176,None,417.33213525008176,None,417.33213525008176,None,417.33213525008176,None,,,,,,,,,,,125,19,Female,2022-05-10_12h40.36.647,Boat,2022.1.1,59.99725213286704,
neutral,positive,1,k,k,,,,,,,,,7,9,135,4,,,,,,,,,,,,,,,,,,,,,,,,main,1,1,1,positive,neutral,k,k,1,0.6646074999589473,417.3503758000443,418.3499851000961,418.3333714000182,None,417.3503758000443,None,417.3503758000443,None,417.3503758000443,None,418.9997908500838,None,418.9997908500838,None,418.9997908500838,None,,,,,,,,,,,125,19,Female,2022-05-10_12h40.36.647,Boat,2022.1.1,59.99725213286704,
negative,negative,2,j,l,,,,,,,,,7,10,136,9,,,,,,,,,,,,,,,,,,,,,,,,main,1,1,2,negative,negative,l,l,1,0.7566700000315905,419.01815160003025,420.0350354000693,420.0003180000931,None,419.01815160003025,None,419.01815160003025,None,419.01815160003025,None,420.76069985002977,None,420.76069985002977,None,420.76069985002977,None,,,,,,,,,,,125,19,Female,2022-05-10_12h40.36.647,Boat,2022.1.1,59.99725213286704,
negative,negative,1,j,l,,,,,,,,,7,11,137,0,,,,,,,,,,,,,,,,,,,,,,,,main,1,1,1,negative,negative,l,l,1,1.3476221000310034,420.78153160004877,421.7945400000317,421.74990030005574,None,420.78153160004877,None,420.78153160004877,None,420.78153160004877,None,423.11040295007405,None,423.11040295007405,None,423.11040295007405,None,,,,,,,,,,,125,19,Female,2022-05-10_12h40.36.647,Boat,2022.1.1,59.99725213286704,
positive,neutral,1,l,j,,,,,,,,,7,12,138,8,,,,,,,,,,,,,,,,,,,,,,,,main,2,2,1,neutral,positive,j,j,1,0.8250091999070719,423.13073770003393,424.13611940003466,424.1001584000187,None,423.13073770003393,None,423.13073770003393,None,423.13073770003393,None,424.93668945004464,None,424.93668945004464,None,424.93668945004464,None,,,,,,,,,,,125,19,Female,2022-05-10_12h40.36.647,Boat,2022.1.1,59.99725213286704,
neutral,negative,1,k,k,,,,,,,,,7,13,139,7,,,,,,,,,,,,,,,,,,,,,,,,main,1,1,1,negative,neutral,k,k,1,0.7314962999662384,424.95571970008314,425.96716150001157,425.94772370008286,None,424.95571970008314,None,424.95571970008314,None,424.95571970008314,None,426.6704042500234,None,426.6704042500234,None,426.6704042500234,None,,,,,,,,,,,125,19,Female,2022-05-10_12h40.36.647,Boat,2022.1.1,59.99725213286704,
neutral,negative,2,k,k,,,,,,,,,7,14,140,16,,,,,,,,,,,,,,,,,,,,,,,,main,2,2,2,negative,neutral,k,k,1,0.669774999958463,426.6893784001004,427.7009585000342,427.6669439000543,None,426.6893784001004,None,426.6893784001004,None,426.6893784001004,None,428.3458688499988,None,428.3458688499988,None,428.3458688499988,None,,,,,,,,,,,125,19,Female,2022-05-10_12h40.36.647,Boat,2022.1.1,59.99725213286704,
neutral,neutral,1,k,k,,,,,,,,,7,15,141,1,,,,,,,,,,,,,,,,,,,,,,,,main,1,1,1,neutral,neutral,k,k,1,0.6480513999704272,428.3658579000039,429.3695779000409,429.3339226000244,None,428.3658579000039,None,428.3658579000039,None,428.3658579000039,None,429.9968208500533,None,429.9968208500533,None,429.9968208500533,None,,,,,,,,,,,125,19,Female,2022-05-10_12h40.36.647,Boat,2022.1.1,59.99725213286704,
positive,neutral,2,l,j,,,,,,,,,7,16,142,17,,,,,,,,,,,,,,,,,,,,,,,,main,2,2,2,neutral,positive,j,j,1,0.7637933000223711,430.0158362000948,431.0327035000082,430.9915228000609,None,430.0158362000948,None,430.0158362000948,None,430.0158362000948,None,431.7631765500293,None,431.7631765500293,None,431.7631765500293,None,,,,,,,,,,,125,19,Female,2022-05-10_12h40.36.647,Boat,2022.1.1,59.99725213286704,
negative,positive,2,j,l,,,,,,,,,7,17,143,15,,,,,,,,,,,,,,,,,,,,,,,,main,2,2,2,positive,negative,l,l,1,1.0826994000235572,431.7825330001069,432.8003776000114,432.7569487000583,None,431.7825330001069,None,431.7825330001069,None,431.7825330001069,None,433.84644645008956,None,433.84644645008956,None,433.84644645008956,None,,,,,,,,,,,125,19,Female,2022-05-10_12h40.36.647,Boat,2022.1.1,59.99725213286704,
neutral,neutral,1,k,k,,,,,,,,,8,0,144,1,,,,,,,,,,,,,,,,,,,,,,,,main,2,2,1,neutral,neutral,k,k,1,0.7055142000317574,433.8690944000846,434.87784660002217,434.8563898000866,None,433.8690944000846,None,433.8690944000846,None,433.8690944000846,None,435.55652885009766,None,435.55652885009766,None,435.55652885009766,None,,,,,,,,,,,125,19,Female,2022-05-10_12h40.36.647,Boat,2022.1.1,59.99725213286704,
negative,neutral,2,j,l,,,,,,,,,8,1,145,12,,,,,,,,,,,,,,,,,,,,,,,,main,2,2,2,neutral,negative,l,l,1,0.8037879999028519,435.5799213000573,436.5873651000438,436.56844130007084,None,435.5799213000573,None,435.5799213000573,None,435.5799213000573,None,437.3635543500888,None,437.3635543500888,None,437.3635543500888,None,,,,,,,,,,,125,19,Female,2022-05-10_12h40.36.647,Boat,2022.1.1,59.99725213286704,
neutral,positive,1,k,k,,,,,,,,,8,2,146,4,,,,,,,,,,,,,,,,,,,,,,,,main,2,2,1,positive,neutral,k,k,1,0.7577211000025272,437.38345610001124,438.40066939999815,438.3778891999973,None,437.38345610001124,None,437.38345610001124,None,437.38345610001124,None,439.1239010500605,None,439.1239010500605,None,439.1239010500605,None,,,,,,,,,,,125,19,Female,2022-05-10_12h40.36.647,Boat,2022.1.1,59.99725213286704,
neutral,negative,1,k,k,,,,,,,,,8,3,147,7,,,,,,,,,,,,,,,,,,,,,,,,main,1,1,1,negative,neutral,k,k,1,0.6240385000128299,439.1437463000184,440.15878130006604,440.1174250000622,None,439.1437463000184,None,439.1437463000184,None,439.1437463000184,None,440.7507199500571,None,440.7507199500571,None,440.7507199500571,None,,,,,,,,,,,125,19,Female,2022-05-10_12h40.36.647,Boat,2022.1.1,59.99725213286704,
positive,neutral,1,l,j,,,,,,,,,8,4,148,8,,,,,,,,,,,,,,,,,,,,,,,,main,2,2,1,neutral,positive,j,j,1,0.8638193999649957,440.7696987000527,441.7844548000721,441.7486283000326,None,440.7696987000527,None,440.7696987000527,None,440.7696987000527,None,442.6166122500901,None,442.6166122500901,None,442.6166122500901,None,,,,,,,,,,,125,19,Female,2022-05-10_12h40.36.647,Boat,2022.1.1,59.99725213286704,
negative,negative,2,j,l,,,,,,,,,8,5,149,9,,,,,,,,,,,,,,,,,,,,,,,,main,1,1,2,negative,negative,l,l,1,0.8308203000342473,442.6363421001006,443.650507900049,443.61182400002144,None,442.6363421001006,None,442.6363421001006,None,442.6363421001006,None,444.4512017500703,None,444.4512017500703,None,444.4512017500703,None,,,,,,,,,,,125,19,Female,2022-05-10_12h40.36.647,Boat,2022.1.1,59.99725213286704,
positive,positive,2,l,j,,,,,,,,,8,6,150,11,,,,,,,,,,,,,,,,,,,,,,,,main,1,1,2,positive,positive,j,j,1,0.7675965999951586,444.46946300007403,445.47010920010507,445.45200819999445,None,444.46946300007403,None,444.46946300007403,None,444.46946300007403,None,446.2213938500383,None,446.2213938500383,None,446.2213938500383,None,,,,,,,,,,,125,19,Female,2022-05-10_12h40.36.647,Boat,2022.1.1,59.99725213286704,
positive,neutral,2,l,j,,,,,,,,,8,7,151,17,,,,,,,,,,,,,,,,,,,,,,,,main,2,2,2,neutral,positive,j,j,1,0.6968800000613555,446.2438669000985,447.2514644000912,447.2334661000641,None,446.2438669000985,None,446.2438669000985,None,446.2438669000985,None,447.92073734999866,None,447.92073734999866,None,447.92073734999866,None,,,,,,,,,,,125,19,Female,2022-05-10_12h40.36.647,Boat,2022.1.1,59.99725213286704,
positive,negative,2,l,j,,,,,,,,,8,8,152,14,,,,,,,,,,,,,,,,,,,,,,,,main,1,1,2,negative,positive,j,j,1,0.6976543000200763,447.94370880001225,448.95079220004845,448.91629700001795,None,447.94370880001225,None,447.94370880001225,None,447.94370880001225,None,449.62235245002665,None,449.62235245002665,None,449.62235245002665,None,,,,,,,,,,,125,19,Female,2022-05-10_12h40.36.647,Boat,2022.1.1,59.99725213286704,
neutral,neutral,2,k,k,,,,,,,,,8,9,153,10,,,,,,,,,,,,,,,,,,,,,,,,main,2,2,2,neutral,neutral,k,k,1,0.6616626000031829,449.63961920002475,450.65734660008457,450.6210296000354,None,449.63961920002475,None,449.63961920002475,None,449.63961920002475,None,451.28686924999346,None,451.28686924999346,None,451.28686924999346,None,,,,,,,,,,,125,19,Female,2022-05-10_12h40.36.647,Boat,2022.1.1,59.99725213286704,
neutral,positive,2,k,k,,,,,,,,,8,10,154,13,,,,,,,,,,,,,,,,,,,,,,,,main,2,2,2,positive,neutral,k,k,1,0.5766013999236748,451.3027773000067,452.3184270000784,452.2840957000153,None,451.3027773000067,None,451.3027773000067,None,451.3027773000067,None,452.8666226500529,None,452.8666226500529,None,452.8666226500529,None,,,,,,,,,,,125,19,Female,2022-05-10_12h40.36.647,Boat,2022.1.1,59.99725213286704,
negative,positive,1,j,l,,,,,,,,,8,11,155,6,,,,,,,,,,,,,,,,,,,,,,,,main,2,2,1,positive,negative,l,l,1,0.820551700075157,452.8841602000175,453.8844976000255,453.86769530002493,None,452.8841602000175,None,452.8841602000175,None,452.8841602000175,None,454.69069315003,None,454.69069315003,None,454.69069315003,None,,,,,,,,,,,125,19,Female,2022-05-10_12h40.36.647,Boat,2022.1.1,59.99725213286704,
positive,positive,1,l,j,,,,,,,,,8,12,156,2,,,,,,,,,,,,,,,,,,,,,,,,main,2,2,1,positive,positive,j,j,1,0.8178736999398097,454.71083990007173,455.7255817000987,455.67872359999456,None,454.71083990007173,None,454.71083990007173,None,454.71083990007173,None,456.5103199500474,None,456.5103199500474,None,456.5103199500474,None,,,,,,,,,,,125,19,Female,2022-05-10_12h40.36.647,Boat,2022.1.1,59.99725213286704,
positive,negative,1,l,j,,,,,,,,,8,13,157,5,,,,,,,,,,,,,,,,,,,,,,,,main,2,2,1,negative,positive,j,j,1,0.6938747999956831,456.5325636001071,457.5422179000452,457.51539360010065,None,456.5325636001071,None,456.5325636001071,None,456.5325636001071,None,458.2074306500028,None,458.2074306500028,None,458.2074306500028,None,,,,,,,,,,,125,19,Female,2022-05-10_12h40.36.647,Boat,2022.1.1,59.99725213286704,
negative,neutral,1,j,l,,,,,,,,,8,14,158,3,,,,,,,,,,,,,,,,,,,,,,,,main,2,2,1,neutral,negative,l,l,1,0.9162953000050038,458.2300217000302,459.24923900002614,459.2089609000832,None,458.2300217000302,None,458.2300217000302,None,458.2300217000302,None,460.1268824500614,None,460.1268824500614,None,460.1268824500614,None,,,,,,,,,,,125,19,Female,2022-05-10_12h40.36.647,Boat,2022.1.1,59.99725213286704,
negative,positive,2,j,l,,,,,,,,,8,15,159,15,,,,,,,,,,,,,,,,,,,,,,,,main,1,1,2,positive,negative,l,l,1,0.8845402000006288,460.14722470007837,461.1512392000295,461.13438260008115,None,460.14722470007837,None,460.14722470007837,None,460.14722470007837,None,462.01435675005195,None,462.01435675005195,None,462.01435675005195,None,,,,,,,,,,,125,19,Female,2022-05-10_12h40.36.647,Boat,2022.1.1,59.99725213286704,
neutral,negative,2,k,k,,,,,,,,,8,16,160,16,,,,,,,,,,,,,,,,,,,,,,,,main,1,1,2,negative,neutral,k,k,1,0.607210399932228,462.0336575000547,463.03507720003836,463.0011120000854,None,462.0336575000547,None,462.0336575000547,None,462.0336575000547,None,463.6233662500628,None,463.6233662500628,None,463.6233662500628,None,,,,,,,,,,,125,19,Female,2022-05-10_12h40.36.647,Boat,2022.1.1,59.99725213286704,
negative,negative,1,j,l,,,,,,,,,8,17,161,0,,,,,,,,,,,,,,,,,,,,,,,,main,2,2,1,negative,negative,l,l,1,0.9922032000031322,463.6455682000378,464.65118090005126,464.61231500003487,None,463.6455682000378,None,463.6455682000378,None,463.6455682000378,None,465.61769615007796,None,465.61769615007796,None,465.61769615007796,None,,,,,,,,,,,125,19,Female,2022-05-10_12h40.36.647,Boat,2022.1.1,59.99725213286704,
negative,negative,1,j,l,,,,,,,,,9,0,162,0,,,,,,,,,,,,,,,,,,,,,,,,main,2,2,1,negative,negative,l,l,1,0.7417477000271901,465.6376333000371,466.6513223000802,466.6149209000869,None,465.6376333000371,None,465.6376333000371,None,465.6376333000371,None,467.36385955008444,None,467.36385955008444,None,467.36385955008444,None,,,,,,,,,,,125,19,Female,2022-05-10_12h40.36.647,Boat,2022.1.1,59.99725213286704,
negative,positive,2,j,l,,,,,,,,,9,1,163,15,,,,,,,,,,,,,,,,,,,,,,,,main,2,2,2,positive,negative,l,l,1,0.8677800000878051,467.3837815000443,468.3867379000876,468.3509553000331,None,467.3837815000443,None,467.3837815000443,None,467.3837815000443,None,469.23309255006023,None,469.23309255006023,None,469.23309255006023,None,,,,,,,,,,,125,19,Female,2022-05-10_12h40.36.647,Boat,2022.1.1,59.99725213286704,
negative,negative,2,j,l,,,,,,,,,9,2,164,9,,,,,,,,,,,,,,,,,,,,,,,,main,2,2,2,negative,negative,l,l,1,0.7253153000492603,469.2508572000079,470.2515774000203,470.23457950004376,None,469.2508572000079,None,469.2508572000079,None,469.2508572000079,None,470.9625880500418,None,470.9625880500418,None,470.9625880500418,None,,,,,,,,,,,125,19,Female,2022-05-10_12h40.36.647,Boat,2022.1.1,59.99725213286704,
neutral,positive,1,k,k,,,,,,,,,9,3,165,4,,,,,,,,,,,,,,,,,,,,,,,,main,2,2,1,positive,neutral,k,k,1,0.6509707999648526,470.9831381000113,471.98615100001916,471.95140510005876,None,470.9831381000113,None,470.9831381000113,None,470.9831381000113,None,472.6153807500261,None,472.6153807500261,None,472.6153807500261,None,,,,,,,,,,,125,19,Female,2022-05-10_12h40.36.647,Boat,2022.1.1,59.99725213286704,
positive,positive,1,l,j,,,,,,,,,9,4,166,2,,,,,,,,,,,,,,,,,,,,,,,,main,2,2,1,positive,positive,j,j,1,0.808481500018388,472.6351842000149,473.65120580000803,473.61263250000775,None,472.6351842000149,None,472.6351842000149,None,472.6351842000149,None,474.42714475000975,None,474.42714475000975,None,474.42714475000975,None,,,,,,,,,,,125,19,Female,2022-05-10_12h40.36.647,Boat,2022.1.1,59.99725213286704,
neutral,neutral,2,k,k,,,,,,,,,9,5,167,10,,,,,,,,,,,,,,,,,,,,,,,,main,1,1,2,neutral,neutral,k,k,1,0.6588089999277145,474.4494562000036,475.46752430009656,475.4473262000829,None,474.4494562000036,None,474.4494562000036,None,474.4494562000036,None,476.0884007500601,None,476.0884007500601,None,476.0884007500601,None,,,,,,,,,,,125,19,Female,2022-05-10_12h40.36.647,Boat,2022.1.1,59.99725213286704,
positive,neutral,1,l,j,,,,,,,,,9,6,168,8,,,,,,,,,,,,,,,,,,,,,,,,main,1,1,1,neutral,positive,j,j,1,0.8961214000592008,476.10531680006534,477.1179916000692,477.0847358000465,None,476.10531680006534,None,476.10531680006534,None,476.10531680006534,None,477.98721295000286,None,477.98721295000286,None,477.98721295000286,None,,,,,,,,,,,125,19,Female,2022-05-10_12h40.36.647,Boat,2022.1.1,59.99725213286704,
positive,negative,2,l,j,,,,,,,,,9,7,169,14,,,,,,,,,,,,,,,,,,,,,,,,main,2,2,2,negative,positive,j,j,1,0.6780651999870315,478.0063851000741,479.01872190006543,478.9849998001009,None,478.0063851000741,None,478.0063851000741,None,478.0063851000741,None,479.66884555002906,None,479.66884555002906,None,479.66884555002906,None,,,,,,,,,,,125,19,Female,2022-05-10_12h40.36.647,Boat,2022.1.1,59.99725213286704,
negative,positive,1,j,l,,,,,,,,,9,8,170,6,,,,,,,,,,,,,,,,,,,,,,,,main,2,2,1,positive,negative,l,l,1,0.8224386000074446,479.6885300000431,480.6912407000782,480.6742546000751,None,479.6885300000431,None,479.6885300000431,None,479.6885300000431,None,481.49505805001826,None,481.49505805001826,None,481.49505805001826,None,,,,,,,,,,,125,19,Female,2022-05-10_12h40.36.647,Boat,2022.1.1,59.99725213286704,
negative,neutral,2,j,l,,,,,,,,,9,9,171,12,,,,,,,,,,,,,,,,,,,,,,,,main,2,2,2,neutral,negative,l,l,1,0.8084243999328464,481.51623130007647,482.51832570007537,482.5018157000886,None,481.51623130007647,None,481.51623130007647,None,481.51623130007647,None,483.3041143501061,None,483.3041143501061,None,483.3041143501061,None,,,,,,,,,,,125,19,Female,2022-05-10_12h40.36.647,Boat,2022.1.1,59.99725213286704,
neutral,positive,2,k,k,,,,,,,,,9,10,172,13,,,,,,,,,,,,,,,,,,,,,,,,main,1,1,2,positive,neutral,k,k,1,0.7210883999941871,483.32332320010755,484.33505540003534,484.299670800101,None,483.32332320010755,None,483.32332320010755,None,483.32332320010755,None,485.03022625005104,None,485.03022625005104,None,485.03022625005104,None,,,,,,,,,,,125,19,Female,2022-05-10_12h40.36.647,Boat,2022.1.1,59.99725213286704,
neutral,neutral,1,k,k,,,,,,,,,9,11,173,1,,,,,,,,,,,,,,,,,,,,,,,,main,2,2,1,neutral,neutral,k,k,1,0.6844627000391483,485.05050010001287,486.05135700001847,486.0347149000736,None,485.05050010001287,None,485.05050010001287,None,485.05050010001287,None,486.7168241500505,None,486.7168241500505,None,486.7168241500505,None,,,,,,,,,,,125,19,Female,2022-05-10_12h40.36.647,Boat,2022.1.1,59.99725213286704,
positive,neutral,2,l,j,,,,,,,,,9,12,174,17,,,,,,,,,,,,,,,,,,,,,,,,main,2,2,2,neutral,positive,j,j,1,0.7980195999844,486.7353162000654,487.7515501000453,487.7124283000594,None,486.7353162000654,None,486.7353162000654,None,486.7353162000654,None,488.518126750004,None,488.518126750004,None,488.518126750004,None,,,,,,,,,,,125,19,Female,2022-05-10_12h40.36.647,Boat,2022.1.1,59.99725213286704,
positive,negative,1,l,j,,,,,,,,,9,13,175,5,,,,,,,,,,,,,,,,,,,,,,,,main,1,1,1,negative,positive,j,j,1,0.6791317000752315,488.5354799000779,489.5373141000746,489.518110300065,None,488.5354799000779,None,488.5354799000779,None,488.5354799000779,None,490.2004027500399,None,490.2004027500399,None,490.2004027500399,None,,,,,,,,,,,125,19,Female,2022-05-10_12h40.36.647,Boat,2022.1.1,59.99725213286704,
negative,neutral,1,j,l,,,,,,,,,9,14,176,3,,,,,,,,,,,,,,,,,,,,,,,,main,1,1,1,neutral,negative,l,l,1,0.8753885999321938,490.2185131000588,491.21814080001786,491.20169650006574,None,490.2185131000588,None,490.2185131000588,None,490.2185131000588,None,492.08025975000345,None,492.08025975000345,None,492.08025975000345,None,,,,,,,,,,,125,19,Female,2022-05-10_12h40.36.647,Boat,2022.1.1,59.99725213286704,
neutral,negative,1,k,k,,,,,,,,,9,15,177,7,,,,,,,,,,,,,,,,,,,,,,,,main,1,1,1,negative,neutral,k,k,1,0.8068747000070289,492.0999291000189,493.1264095000224,493.0797798000276,None,492.0999291000189,None,492.0999291000189,None,492.0999291000189,None,493.8881600500201,None,493.8881600500201,None,493.8881600500201,None,,,,,,,,,,,125,19,Female,2022-05-10_12h40.36.647,Boat,2022.1.1,59.99725213286704,
positive,positive,2,l,j,,,,,,,,,9,16,178,11,,,,,,,,,,,,,,,,,,,,,,,,main,1,1,2,positive,positive,j,j,1,0.7238231999799609,493.9065429000184,494.9121199999936,494.8918079000432,None,493.9065429000184,None,493.9065429000184,None,493.9065429000184,None,495.6171426500543,None,495.6171426500543,None,495.6171426500543,None,,,,,,,,,,,125,19,Female,2022-05-10_12h40.36.647,Boat,2022.1.1,59.99725213286704,
neutral,negative,2,k,k,,,,,,,,,9,17,179,16,,,,,,,,,,,,,,,,,,,,,,,,main,1,1,2,negative,neutral,k,k,1,0.77191839995794,495.6343450000277,496.6350370000582,496.61846060003154,None,495.6343450000277,None,495.6343450000277,None,495.6343450000277,None,497.3903615500196,None,497.3903615500196,None,497.3903615500196,None,,,,,,,,,,,125,19,Female,2022-05-10_12h40.36.647,Boat,2022.1.1,59.99725213286704,
positive,positive,1,l,j,,,,,,,,,10,0,180,2,,,,,,,,,,,,,,,,,,,,,,,,main,2,2,1,positive,positive,j,j,1,0.8559321999782696,497.4089845000999,498.42045860004146,498.3850624000188,None,497.4089845000999,None,497.4089845000999,None,497.4089845000999,None,499.25091435002395,None,499.25091435002395,None,499.25091435002395,None,,,,,,,,,,,125,19,Female,2022-05-10_12h40.36.647,Boat,2022.1.1,59.99725213286704,
positive,neutral,2,l,j,,,,,,,,,10,1,181,17,,,,,,,,,,,,,,,,,,,,,,,,main,1,1,2,neutral,positive,j,j,1,0.710634500021115,499.2689432000043,500.2695126000326,500.2518139000749,None,499.2689432000043,None,499.2689432000043,None,499.2689432000043,None,500.9658091500052,None,500.9658091500052,None,500.9658091500052,None,,,,,,,,,,,125,19,Female,2022-05-10_12h40.36.647,Boat,2022.1.1,59.99725213286704,
neutral,positive,1,k,k,,,,,,,,,10,2,182,4,,,,,,,,,,,,,,,,,,,,,,,,main,1,1,1,positive,neutral,k,k,1,0.7349842999828979,500.9835621000966,501.98821080010384,501.9517758000875,None,500.9835621000966,None,500.9835621000966,None,500.9835621000966,None,502.70241955003,None,502.70241955003,None,502.70241955003,None,,,,,,,,,,,125,19,Female,2022-05-10_12h40.36.647,Boat,2022.1.1,59.99725213286704,
negative,neutral,1,j,l,,,,,,,,,10,3,183,3,,,,,,,,,,,,,,,,,,,,,,,,main,1,1,1,neutral,negative,l,l,1,1.4419036000035703,502.7207785000792,503.7334530000808,503.71327760000713,None,502.7207785000792,None,502.7207785000792,None,502.7207785000792,None,505.1477215500665,None,505.1477215500665,None,505.1477215500665,None,,,,,,,,,,,125,19,Female,2022-05-10_12h40.36.647,Boat,2022.1.1,59.99725213286704,
positive,positive,2,l,j,,,,,,,,,10,4,184,11,,,,,,,,,,,,,,,,,,,,,,,,main,2,2,2,positive,positive,j,j,1,0.7840646000113338,505.16744550003204,506.1877083000727,506.1481698000571,None,505.16744550003204,None,505.16744550003204,None,505.16744550003204,None,506.93421415005577,None,506.93421415005577,None,506.93421415005577,None,,,,,,,,,,,125,19,Female,2022-05-10_12h40.36.647,Boat,2022.1.1,59.99725213286704,
positive,neutral,1,l,j,,,,,,,,,10,5,185,8,,,,,,,,,,,,,,,,,,,,,,,,main,1,1,1,neutral,positive,j,j,1,0.7206978000467643,506.9528525000205,507.9686760000186,507.9300551000051,None,506.9528525000205,None,506.9528525000205,None,506.9528525000205,None,508.6585367499967,None,508.6585367499967,None,508.6585367499967,None,,,,,,,,,,,125,19,Female,2022-05-10_12h40.36.647,Boat,2022.1.1,59.99725213286704,
negative,positive,2,j,l,,,,,,,,,10,6,186,15,,,,,,,,,,,,,,,,,,,,,,,,main,1,1,2,positive,negative,l,l,1,0.868952100048773,508.6804009000771,509.68553820007946,509.6522059000563,None,508.6804009000771,None,508.6804009000771,None,508.6804009000771,None,510.530457150063,None,510.530457150063,None,510.530457150063,None,,,,,,,,,,,125,19,Female,2022-05-10_12h40.36.647,Boat,2022.1.1,59.99725213286704,
neutral,positive,2,k,k,,,,,,,,,10,7,187,13,,,,,,,,,,,,,,,,,,,,,,,,main,1,1,2,positive,neutral,k,k,1,0.6856241000350565,510.55091069999617,511.55283930001315,511.5353060000343,None,510.55091069999617,None,510.55091069999617,None,510.55091069999617,None,512.2181517500314,None,512.2181517500314,None,512.2181517500314,None,,,,,,,,,,,125,19,Female,2022-05-10_12h40.36.647,Boat,2022.1.1,59.99725213286704,
negative,positive,1,j,l,,,,,,,,,10,8,188,6,,,,,,,,,,,,,,,,,,,,,,,,main,2,2,1,positive,negative,l,l,1,1.1121799000538886,512.2365436000982,513.2521929000504,513.2306210000534,None,512.2365436000982,None,512.2365436000982,None,512.2365436000982,None,514.3342036499992,None,514.3342036499992,None,514.3342036499992,None,,,,,,,,,,,125,19,Female,2022-05-10_12h40.36.647,Boat,2022.1.1,59.99725213286704,
positive,negative,1,l,j,,,,,,,,,10,9,189,5,,,,,,,,,,,,,,,,,,,,,,,,main,1,1,1,negative,positive,j,j,1,0.7386952999513596,514.3520182000939,515.3686997001059,515.3301835000748,None,514.3520182000939,None,514.3520182000939,None,514.3520182000939,None,516.0746673500282,None,516.0746673500282,None,516.0746673500282,None,,,,,,,,,,,125,19,Female,2022-05-10_12h40.36.647,Boat,2022.1.1,59.99725213286704,
neutral,neutral,1,k,k,,,,,,,,,10,10,190,1,,,,,,,,,,,,,,,,,,,,,,,,main,2,2,1,neutral,neutral,k,k,1,0.5341145000420511,516.097282600007,517.1050513000228,517.0697455001064,None,516.097282600007,None,516.097282600007,None,516.097282600007,None,517.6131597499946,None,517.6131597499946,None,517.6131597499946,None,,,,,,,,,,,125,19,Female,2022-05-10_12h40.36.647,Boat,2022.1.1,59.99725213286704,
neutral,negative,1,k,k,,,,,,,,,10,11,191,7,,,,,,,,,,,,,,,,,,,,,,,,main,2,2,1,negative,neutral,k,k,1,0.6182635999284685,517.6347268000245,518.6522258000914,518.6136213000864,None,517.6347268000245,None,517.6347268000245,None,517.6347268000245,None,519.234705750004,None,519.234705750004,None,519.234705750004,None,,,,,,,,,,,125,19,Female,2022-05-10_12h40.36.647,Boat,2022.1.1,59.99725213286704,
positive,negative,2,l,j,,,,,,,,,10,12,192,14,,,,,,,,,,,,,,,,,,,,,,,,main,1,1,2,negative,positive,j,j,1,0.6610165999736637,519.252268500044,520.280227500014,520.2333306000801,None,519.252268500044,None,519.252268500044,None,519.252268500044,None,520.8977359500598,None,520.8977359500598,None,520.8977359500598,None,,,,,,,,,,,125,19,Female,2022-05-10_12h40.36.647,Boat,2022.1.1,59.99725213286704,
negative,negative,2,j,l,,,,,,,,,10,13,193,9,,,,,,,,,,,,,,,,,,,,,,,,main,2,2,2,negative,negative,l,l,1,1.1478064999682829,520.9169510999927,521.935696600005,521.8969666000921,None,520.9169510999927,None,520.9169510999927,None,520.9169510999927,None,523.0498472500942,None,523.0498472500942,None,523.0498472500942,None,,,,,,,,,,,125,19,Female,2022-05-10_12h40.36.647,Boat,2022.1.1,59.99725213286704,
neutral,neutral,2,k,k,,,,,,,,,10,14,194,10,,,,,,,,,,,,,,,,,,,,,,,,main,2,2,2,neutral,neutral,k,k,1,0.6702653999673203,523.0705562999938,524.0859060999937,524.0469063000055,None,523.0705562999938,None,523.0705562999938,None,523.0705562999938,None,524.7256986501045,None,524.7256986501045,None,524.7256986501045,None,,,,,,,,,,,125,19,Female,2022-05-10_12h40.36.647,Boat,2022.1.1,59.99725213286704,
negative,negative,1,j,l,,,,,,,,,10,15,195,0,,,,,,,,,,,,,,,,,,,,,,,,main,1,1,1,negative,negative,l,l,1,0.8085483000613749,524.7460416000104,525.7546650000149,525.7197904000059,None,524.7460416000104,None,524.7460416000104,None,524.7460416000104,None,526.5355383501039,None,526.5355383501039,None,526.5355383501039,None,,,,,,,,,,,125,19,Female,2022-05-10_12h40.36.647,Boat,2022.1.1,59.99725213286704,
neutral,negative,2,k,k,,,,,,,,,10,16,196,16,,,,,,,,,,,,,,,,,,,,,,,,main,1,1,2,negative,neutral,k,l,0,0.6253853999078274,526.5531798000447,527.569043800002,527.5306289000437,None,526.5531798000447,None,526.5531798000447,None,526.5531798000447,None,528.1704465000657,None,528.1704465000657,None,528.1704465000657,None,,,,,,,,,,,125,19,Female,2022-05-10_12h40.36.647,Boat,2022.1.1,59.99725213286704,
negative,neutral,2,j,l,,,,,,,,,10,17,197,12,,,,,,,,,,,,,,,,,,,,,,,,main,2,2,2,neutral,negative,l,l,1,0.9118342000292614,529.1894728000043,530.2026291000657,530.185854600044,None,529.1894728000043,None,529.1894728000043,None,529.1894728000043,None,531.085903950024,None,531.085903950024,None,531.085903950024,None,,,,,,,,,,,125,19,Female,2022-05-10_12h40.36.647,Boat,2022.1.1,59.99725213286704,
negative,neutral,2,j,l,,,,,,,,,11,0,198,12,,,,,,,,,,,,,,,,,,,,,,,,main,2,2,2,neutral,negative,l,l,1,0.8755452999612316,531.1031439000508,532.1025625000475,532.085717500071,None,531.1031439000508,None,531.1031439000508,None,531.1031439000508,None,532.9651907500695,None,532.9651907500695,None,532.9651907500695,None,,,,,,,,,,,125,19,Female,2022-05-10_12h40.36.647,Boat,2022.1.1,59.99725213286704,
negative,negative,1,j,l,,,,,,,,,11,1,199,0,,,,,,,,,,,,,,,,,,,,,,,,main,2,2,1,negative,negative,l,l,1,0.9166483000153676,532.9847751000198,534.0040888000512,533.9667192000197,None,532.9847751000198,None,532.9847751000198,None,532.9847751000198,None,534.8844550500974,None,534.8844550500974,None,534.8844550500974,None,,,,,,,,,,,125,19,Female,2022-05-10_12h40.36.647,Boat,2022.1.1,59.99725213286704,
neutral,neutral,1,k,k,,,,,,,,,11,2,200,1,,,,,,,,,,,,,,,,,,,,,,,,main,1,1,1,neutral,neutral,k,k,1,0.5781589000253007,534.9023828000063,535.9026751000201,535.886006200104,None,534.9023828000063,None,534.9023828000063,None,534.9023828000063,None,536.4670101500699,None,536.4670101500699,None,536.4670101500699,None,,,,,,,,,,,125,19,Female,2022-05-10_12h40.36.647,Boat,2022.1.1,59.99725213286704,
positive,positive,1,l,j,,,,,,,,,11,3,201,2,,,,,,,,,,,,,,,,,,,,,,,,main,1,1,1,positive,positive,j,j,1,0.7649196999846026,536.4846805999987,537.4860343000619,537.4670295000542,None,536.4846805999987,None,536.4846805999987,None,536.4846805999987,None,538.2349461500883,None,538.2349461500883,None,538.2349461500883,None,,,,,,,,,,,125,19,Female,2022-05-10_12h40.36.647,Boat,2022.1.1,59.99725213286704,
neutral,neutral,2,k,k,,,,,,,,,11,4,202,10,,,,,,,,,,,,,,,,,,,,,,,,main,1,1,2,neutral,neutral,k,k,1,0.7434044999536127,538.2530776000349,539.2720266000833,539.2331976999994,None,538.2530776000349,None,538.2530776000349,None,538.2530776000349,None,539.9824462500285,None,539.9824462500285,None,539.9824462500285,None,,,,,,,,,,,125,19,Female,2022-05-10_12h40.36.647,Boat,2022.1.1,59.99725213286704,
neutral,positive,1,k,k,,,,,,,,,11,5,203,4,,,,,,,,,,,,,,,,,,,,,,,,main,1,1,1,positive,neutral,k,k,1,0.7576293000020087,540.0023770000553,541.019059500075,540.9804987000534,None,540.0023770000553,None,540.0023770000553,None,540.0023770000553,None,541.742081450054,None,541.742081450054,None,541.742081450054,None,,,,,,,,,,,125,19,Female,2022-05-10_12h40.36.647,Boat,2022.1.1,59.99725213286704,
negative,positive,1,j,l,,,,,,,,,11,6,204,6,,,,,,,,,,,,,,,,,,,,,,,,main,2,2,1,positive,negative,l,l,1,1.5730499000055715,541.7623467000667,542.7693848001072,542.751267899992,None,541.7623467000667,None,541.7623467000667,None,541.7623467000667,None,544.3225650000386,None,544.3225650000386,None,544.3225650000386,None,,,,,,,,,,,125,19,Female,2022-05-10_12h40.36.647,Boat,2022.1.1,59.99725213286704,
positive,negative,1,l,j,,,,,,,,,11,7,205,5,,,,,,,,,,,,,,,,,,,,,,,,main,2,2,1,negative,positive,j,j,1,0.7584524999838322,545.3385062000016,546.3530401000753,546.3333518001018,None,545.3385062000016,None,545.3385062000016,None,545.3385062000016,None,547.0841595500126,None,547.0841595500126,None,547.0841595500126,None,,,,,,,,,,,125,19,Female,2022-05-10_12h40.36.647,Boat,2022.1.1,59.99725213286704,
negative,negative,2,j,l,,,,,,,,,11,8,206,9,,,,,,,,,,,,,,,,,,,,,,,,main,2,2,2,negative,negative,l,l,1,0.6946655000792816,547.101299000089,548.1032048000488,548.086158500053,None,547.101299000089,None,547.101299000089,None,547.101299000089,None,548.7821631500149,None,548.7821631500149,None,548.7821631500149,None,,,,,,,,,,,125,19,Female,2022-05-10_12h40.36.647,Boat,2022.1.1,59.99725213286704,
neutral,positive,2,k,k,,,,,,,,,11,9,207,13,,,,,,,,,,,,,,,,,,,,,,,,main,2,2,2,positive,neutral,k,k,1,0.7147928000194952,548.8018310000189,549.8198472000659,549.7839802000672,None,548.8018310000189,None,548.8018310000189,None,548.8018310000189,None,550.4995693500271,None,550.4995693500271,None,550.4995693500271,None,,,,,,,,,,,125,19,Female,2022-05-10_12h40.36.647,Boat,2022.1.1,59.99725213286704,
negative,positive,2,j,l,,,,,,,,,11,10,208,15,,,,,,,,,,,,,,,,,,,,,,,,main,1,1,2,positive,negative,l,l,1,0.7349076999817044,550.518326700083,551.5196664000396,551.4862997001037,None,550.518326700083,None,550.518326700083,None,550.518326700083,None,552.2359359500581,None,552.2359359500581,None,552.2359359500581,None,,,,,,,,,,,125,19,Female,2022-05-10_12h40.36.647,Boat,2022.1.1,59.99725213286704,
