target,distractor,set,ans1,ans2,rep_loop2.thisRepN,rep_loop2.thisTrialN,rep_loop2.thisN,rep_loop2.thisIndex,flanker_prac_loop.thisRepN,flanker_prac_loop.thisTrialN,flanker_prac_loop.thisN,flanker_prac_loop.thisIndex,flanker_main_loop.thisRepN,flanker_main_loop.thisTrialN,flanker_main_loop.thisN,flanker_main_loop.thisIndex,fl_inst_resp.keys,mouse.x,mouse.y,mouse.leftButton,mouse.midButton,mouse.rightButton,mouse.started,mouse.stopped,sound_1.started,sound_1.stopped,no_text.started,no_text.stopped,yes_text.started,yes_text.stopped,mouse_2.x,mouse_2.y,mouse_2.leftButton,mouse_2.midButton,mouse_2.rightButton,mouse_2.started,mouse_2.stopped,back_2.started,back_2.stopped,main_prac,fl_cold,fl_colt,fl_set,fl_dcond,fl_tcond,fl_ans,fl_res,fl_corr,fl_rt,fix_fl.started,fix_fl.stopped,targ.started,targ.stopped,j_button.started,j_button.stopped,k_button.started,k_button.stopped,l_button.started,l_button.stopped,j_button2.started,j_button2.stopped,k_button2.started,k_button2.stopped,l_button2.started,l_button2.stopped,mainback.started,mainback.stopped,key_resp.keys,mouse_6.x,mouse_6.y,mouse_6.leftButton,mouse_6.midButton,mouse_6.rightButton,mouse_6.started,mouse_6.stopped,id*,age*,gender*,date,expName,psychopyVersion,frameRate,
,,,,,0,0,0,0,,,,,,,,,None,0.09166667,-0.39259258,0,0,0,1.0192194994306192,None,28.867594299977647,None,79.61900149995927,None,79.61900149995927,None,-0.10277778,-0.08888889,0,0,0,0.013286100002005696,None,,,,,,,,,,,,,,,,,,,,,,,,,,,,,,,,,,,,,,,126,19,Female,2022-05-10_17h55.30.217,Boat,2022.1.1,59.98832625265731,
negative,negative,1,j,l,,,,,0,0,0,0,,,,,,,,,,,,,,,,,,,,,,,,,,84.05259840004146,None,prac,2,2,1,negative,negative,j,j,1,2.1146719999378547,86.08816119993571,87.09309079998638,87.07527279993519,None,86.08816119993571,None,86.08816119993571,None,86.08816119993571,None,89.19611809996422,None,89.19611809996422,None,89.19611809996422,None,,,,,,,,,,,126,19,Female,2022-05-10_17h55.30.217,Boat,2022.1.1,59.98832625265731,
positive,positive,2,l,j,,,,,0,1,1,11,,,,,,,,,,,,,,,,,,,,,,,,,,,,prac,2,2,2,positive,positive,l,l,1,1.2507530000293627,90.21987609995995,91.24844650004525,91.20154379995074,None,90.21987609995995,None,90.21987609995995,None,90.21987609995995,None,92.44518920001573,None,92.44518920001573,None,92.44518920001573,None,,,,,,,,,,,126,19,Female,2022-05-10_17h55.30.217,Boat,2022.1.1,59.98832625265731,
negative,neutral,1,j,l,,,,,0,2,2,3,,,,,,,,,,,,,,,,,,,,,,,,,,,,prac,2,2,1,neutral,negative,j,j,1,1.0500721000134945,92.47349310002755,93.50159400003031,93.45476380002219,None,92.47349310002755,None,92.47349310002755,None,92.47349310002755,None,94.49959659997839,None,94.49959659997839,None,94.49959659997839,None,,,,,,,,,,,126,19,Female,2022-05-10_17h55.30.217,Boat,2022.1.1,59.98832625265731,
positive,neutral,2,l,j,,,,,0,3,3,17,,,,,,,,,,,,,,,,,,,,,,,,,,,,prac,2,2,2,neutral,positive,l,l,1,1.0553657000418752,94.52618629997596,95.5291903000325,95.51148290000856,None,94.52618629997596,None,94.52618629997596,None,94.52618629997596,None,96.55622069993987,None,96.55622069993987,None,96.55622069993987,None,,,,,,,,,,,126,19,Female,2022-05-10_17h55.30.217,Boat,2022.1.1,59.98832625265731,
neutral,positive,2,k,k,,,,,0,4,4,13,,,,,,,,,,,,,,,,,,,,,,,,,,,,prac,2,2,2,positive,neutral,k,k,1,0.8868233000393957,96.57616369996686,97.59034689993132,97.5516775000142,None,96.57616369996686,None,96.57616369996686,None,96.57616369996686,None,98.44679450001567,None,98.44679450001567,None,98.44679450001567,None,,,,,,,,,,,126,19,Female,2022-05-10_17h55.30.217,Boat,2022.1.1,59.98832625265731,
neutral,positive,1,k,k,,,,,0,5,5,4,,,,,,,,,,,,,,,,,,,,,,,,,,,,prac,2,2,1,positive,neutral,k,k,1,1.0518475000280887,98.47221209993586,99.50194979994558,99.45399720000569,None,98.47221209993586,None,98.47221209993586,None,98.47221209993586,None,100.50073679992929,None,100.50073679992929,None,100.50073679992929,None,,,,,,,,,,,126,19,Female,2022-05-10_17h55.30.217,Boat,2022.1.1,59.98832625265731,
negative,positive,1,j,l,,,,,0,6,6,6,,,,,,,,,,,,,,,,,,,,,,,,,,,,prac,1,1,1,positive,negative,j,j,1,0.9155949000269175,100.52813909994438,101.53098649997264,101.51259769999888,None,100.52813909994438,None,100.52813909994438,None,100.52813909994438,None,102.41875380000565,None,102.41875380000565,None,102.41875380000565,None,,,,,,,,,,,126,19,Female,2022-05-10_17h55.30.217,Boat,2022.1.1,59.98832625265731,
positive,negative,1,l,j,,,,,0,7,7,5,,,,,,,,,,,,,,,,,,,,,,,,,,,,prac,2,2,1,negative,positive,l,l,1,0.8627858000108972,102.43818599998485,103.44042629993055,103.42191179993097,None,102.43818599998485,None,102.43818599998485,None,102.43818599998485,None,104.28444139999337,None,104.28444139999337,None,104.28444139999337,None,,,,,,,,,,,126,19,Female,2022-05-10_17h55.30.217,Boat,2022.1.1,59.98832625265731,
neutral,negative,1,k,k,,,,,0,8,8,7,,,,,,,,,,,,,,,,,,,,,,,,,,,,prac,1,1,1,negative,neutral,k,k,1,0.8229072000831366,104.30921380000655,105.31182719999924,105.2935131000122,None,104.30921380000655,None,104.30921380000655,None,104.30921380000655,None,106.1079865999287,None,106.1079865999287,None,106.1079865999287,None,,,,,,,,,,,126,19,Female,2022-05-10_17h55.30.217,Boat,2022.1.1,59.98832625265731,
positive,positive,1,l,j,,,,,0,9,9,2,,,,,,,,,,,,,,,,,,,,,,,,,,,,prac,2,2,1,positive,positive,l,l,1,1.4955563000403345,106.12757210002746,107.1311189000262,107.11107730004005,None,106.12757210002746,None,106.12757210002746,None,106.12757210002746,None,108.60715099996887,None,108.60715099996887,None,108.60715099996887,None,,,,,,,,,,,126,19,Female,2022-05-10_17h55.30.217,Boat,2022.1.1,59.98832625265731,
neutral,neutral,2,k,k,,,,,0,10,10,10,,,,,,,,,,,,,,,,,,,,,,,,,,,,prac,1,1,2,neutral,neutral,k,k,1,0.8472845000214875,108.62627609993797,109.6429533000337,109.60825639998075,None,108.62627609993797,None,108.62627609993797,None,108.62627609993797,None,110.45672139993403,None,110.45672139993403,None,110.45672139993403,None,,,,,,,,,,,126,19,Female,2022-05-10_17h55.30.217,Boat,2022.1.1,59.98832625265731,
negative,negative,2,j,l,,,,,0,11,11,9,,,,,,,,,,,,,,,,,,,,,,,,,,,,prac,2,2,2,negative,negative,j,j,1,0.8763078000629321,110.48905410000589,111.49040929996409,111.4733943999745,None,110.48905410000589,None,110.48905410000589,None,110.48905410000589,None,112.33850079998373,None,112.33850079998373,None,112.33850079998373,None,,,,,,,,,,,126,19,Female,2022-05-10_17h55.30.217,Boat,2022.1.1,59.98832625265731,
neutral,negative,2,k,k,,,,,0,12,12,16,,,,,,,,,,,,,,,,,,,,,,,,,,,,prac,2,2,2,negative,neutral,k,k,1,0.889406600035727,112.35676270001568,113.37632729997858,113.33854969998356,None,112.35676270001568,None,112.35676270001568,None,112.35676270001568,None,114.22865940004121,None,114.22865940004121,None,114.22865940004121,None,,,,,,,,,,,126,19,Female,2022-05-10_17h55.30.217,Boat,2022.1.1,59.98832625265731,
negative,neutral,2,j,l,,,,,0,13,13,12,,,,,,,,,,,,,,,,,,,,,,,,,,,,prac,1,1,2,neutral,negative,j,j,1,1.4016149999806657,114.25609389995225,115.27179619995877,115.25208150001708,None,114.25609389995225,None,114.25609389995225,None,114.25609389995225,None,116.63526459995191,None,116.63526459995191,None,116.63526459995191,None,,,,,,,,,,,126,19,Female,2022-05-10_17h55.30.217,Boat,2022.1.1,59.98832625265731,
positive,neutral,1,l,j,,,,,0,14,14,8,,,,,,,,,,,,,,,,,,,,,,,,,,,,prac,2,2,1,neutral,positive,l,l,1,0.9771560999797657,116.65312519995496,117.65992529992945,117.6249863000121,None,116.65312519995496,None,116.65312519995496,None,116.65312519995496,None,118.61528079994022,None,118.61528079994022,None,118.61528079994022,None,,,,,,,,,,,126,19,Female,2022-05-10_17h55.30.217,Boat,2022.1.1,59.98832625265731,
neutral,neutral,1,k,k,,,,,0,15,15,1,,,,,,,,,,,,,,,,,,,,,,,,,,,,prac,2,2,1,neutral,neutral,k,k,1,0.8398283000569791,118.63072180002928,119.63879789994098,119.61875559994951,None,118.63072180002928,None,118.63072180002928,None,118.63072180002928,None,120.45620369995012,None,120.45620369995012,None,120.45620369995012,None,,,,,,,,,,,126,19,Female,2022-05-10_17h55.30.217,Boat,2022.1.1,59.98832625265731,
negative,positive,2,j,l,,,,,0,16,16,15,,,,,,,,,,,,,,,,,,,,,,,,,,,,prac,2,2,2,positive,negative,j,j,1,0.8578200000338256,120.47633350000251,121.48886189993937,121.46888569998555,None,120.47633350000251,None,120.47633350000251,None,120.47633350000251,None,122.3176930999849,None,122.3176930999849,None,122.3176930999849,None,,,,,,,,,,,126,19,Female,2022-05-10_17h55.30.217,Boat,2022.1.1,59.98832625265731,
positive,negative,2,l,j,,,,,0,17,17,14,,,,,,,,,,,,,,,,,,,,,,,,,,,,prac,2,2,2,negative,positive,l,l,1,0.8699215999804437,122.33555550000165,123.34268709993921,123.30732180003542,None,122.33555550000165,None,122.33555550000165,None,122.33555550000165,None,124.18951089996844,None,124.18951089996844,None,124.18951089996844,None,,,,,,,,,,,126,19,Female,2022-05-10_17h55.30.217,Boat,2022.1.1,59.98832625265731,
neutral,neutral,2,k,k,,,,,1,0,18,10,,,,,,,,,,,,,,,,,,,,,,,,,,,,prac,1,1,2,neutral,neutral,k,k,1,0.853410999989137,124.2108767000027,125.22399770002812,125.19014409999363,None,124.2108767000027,None,124.2108767000027,None,124.2108767000027,None,126.04565160002093,None,126.04565160002093,None,126.04565160002093,None,,,,,,,,,,,126,19,Female,2022-05-10_17h55.30.217,Boat,2022.1.1,59.98832625265731,
negative,neutral,1,j,l,,,,,1,1,19,3,,,,,,,,,,,,,,,,,,,,,,,,,,,,prac,2,2,1,neutral,negative,j,j,1,0.9167299999389797,126.06312349997461,127.074096599943,127.03568470000755,None,126.06312349997461,None,126.06312349997461,None,126.06312349997461,None,127.96434810003265,None,127.96434810003265,None,127.96434810003265,None,,,,,,,,,,,126,19,Female,2022-05-10_17h55.30.217,Boat,2022.1.1,59.98832625265731,
neutral,positive,1,k,k,,,,,1,2,20,4,,,,,,,,,,,,,,,,,,,,,,,,,,,,prac,2,2,1,positive,neutral,k,k,1,0.7975691000465304,127.986735100043,128.99932089995127,128.97241739998572,None,127.986735100043,None,127.986735100043,None,127.986735100043,None,129.76604969999752,None,129.76604969999752,None,129.76604969999752,None,,,,,,,,,,,126,19,Female,2022-05-10_17h55.30.217,Boat,2022.1.1,59.98832625265731,
negative,positive,2,j,l,,,,,1,3,21,15,,,,,,,,,,,,,,,,,,,,,,,,,,,,prac,1,1,2,positive,negative,j,j,1,0.9468755000270903,129.78712090000045,130.7912781999912,130.75767359999008,None,129.78712090000045,None,129.78712090000045,None,129.78712090000045,None,131.7139519000426,None,131.7139519000426,None,131.7139519000426,None,,,,,,,,,,,126,19,Female,2022-05-10_17h55.30.217,Boat,2022.1.1,59.98832625265731,
negative,neutral,2,j,l,,,,,1,4,22,12,,,,,,,,,,,,,,,,,,,,,,,,,,,,prac,1,1,2,neutral,negative,j,j,1,0.8115977999987081,131.73117339995224,132.7494118999457,132.70751939993352,None,131.73117339995224,None,131.73117339995224,None,131.73117339995224,None,133.52728319996967,None,133.52728319996967,None,133.52728319996967,None,,,,,,,,,,,126,19,Female,2022-05-10_17h55.30.217,Boat,2022.1.1,59.98832625265731,
neutral,negative,1,k,k,,,,,1,5,23,7,,,,,,,,,,,,,,,,,,,,,,,,,,,,prac,2,2,1,negative,neutral,k,k,1,0.8196399000007659,133.54548610001802,134.55641610000748,134.5356077000033,None,133.54548610001802,None,133.54548610001802,None,133.54548610001802,None,135.35105810002423,None,135.35105810002423,None,135.35105810002423,None,,,,,,,,,,,126,19,Female,2022-05-10_17h55.30.217,Boat,2022.1.1,59.98832625265731,
positive,neutral,2,l,j,,,,,1,6,24,17,,,,,,,,,,,,,,,,,,,,,,,,,,,,prac,1,1,2,neutral,positive,l,l,1,0.8343160999938846,135.3716150999535,136.39926219999325,136.35237989993766,None,135.3716150999535,None,135.3716150999535,None,135.3716150999535,None,137.18782200003042,None,137.18782200003042,None,137.18782200003042,None,,,,,,,,,,,126,19,Female,2022-05-10_17h55.30.217,Boat,2022.1.1,59.98832625265731,
negative,negative,1,j,l,,,,,1,7,25,0,,,,,,,,,,,,,,,,,,,,,,,,,,,,prac,2,2,1,negative,negative,j,j,1,0.8274700000183657,137.20551699993666,138.20993549993727,138.19032259995583,None,137.20551699993666,None,137.20551699993666,None,137.20551699993666,None,139.0180086000124,None,139.0180086000124,None,139.0180086000124,None,,,,,,,,,,,126,19,Female,2022-05-10_17h55.30.217,Boat,2022.1.1,59.98832625265731,
neutral,neutral,1,k,k,,,,,1,8,26,1,,,,,,,,,,,,,,,,,,,,,,,,,,,,prac,2,2,1,neutral,neutral,k,k,1,0.8287427999312058,139.03770440001972,140.05791939992923,140.0193584000226,None,139.03770440001972,None,139.03770440001972,None,139.03770440001972,None,140.84900419998448,None,140.84900419998448,None,140.84900419998448,None,,,,,,,,,,,126,19,Female,2022-05-10_17h55.30.217,Boat,2022.1.1,59.98832625265731,
positive,negative,2,l,j,,,,,1,9,27,14,,,,,,,,,,,,,,,,,,,,,,,,,,,,prac,2,2,2,negative,positive,l,l,1,0.8834113000193611,140.86696749995463,141.87638180004433,141.84117829997558,None,140.86696749995463,None,140.86696749995463,None,140.86696749995463,None,142.73483919994905,None,142.73483919994905,None,142.73483919994905,None,,,,,,,,,,,126,19,Female,2022-05-10_17h55.30.217,Boat,2022.1.1,59.98832625265731,
positive,positive,1,l,j,,,,,1,10,28,2,,,,,,,,,,,,,,,,,,,,,,,,,,,,prac,1,1,1,positive,positive,l,j,0,0.8615906999912113,142.7540184999816,143.75791799998842,143.72444010002073,None,142.7540184999816,None,142.7540184999816,None,142.7540184999816,None,144.60600499995053,None,144.60600499995053,None,144.60600499995053,None,,,,,,,,,,,126,19,Female,2022-05-10_17h55.30.217,Boat,2022.1.1,59.98832625265731,
neutral,negative,2,k,k,,,,,1,11,29,16,,,,,,,,,,,,,,,,,,,,,,,,,,,,prac,2,2,2,negative,neutral,k,k,1,0.8249918000074103,145.62839720002376,146.6415514999535,146.60509209998418,None,145.62839720002376,None,145.62839720002376,None,145.62839720002376,None,147.43713370002806,None,147.43713370002806,None,147.43713370002806,None,,,,,,,,,,,126,19,Female,2022-05-10_17h55.30.217,Boat,2022.1.1,59.98832625265731,
neutral,positive,2,k,k,,,,,1,12,30,13,,,,,,,,,,,,,,,,,,,,,,,,,,,,prac,2,2,2,positive,neutral,k,k,1,0.9445075000403449,147.45761069993023,148.47219010000117,148.45279829995707,None,147.45761069993023,None,147.45761069993023,None,147.45761069993023,None,149.3854121000273,None,149.3854121000273,None,149.3854121000273,None,,,,,,,,,,,126,19,Female,2022-05-10_17h55.30.217,Boat,2022.1.1,59.98832625265731,
negative,negative,2,j,l,,,,,1,13,31,9,,,,,,,,,,,,,,,,,,,,,,,,,,,,prac,2,2,2,negative,negative,j,j,1,0.803720600088127,149.40559119998943,150.41087150003295,150.39264189999085,None,149.40559119998943,None,149.40559119998943,None,149.40559119998943,None,151.19137159993406,None,151.19137159993406,None,151.19137159993406,None,,,,,,,,,,,126,19,Female,2022-05-10_17h55.30.217,Boat,2022.1.1,59.98832625265731,
positive,positive,2,l,j,,,,,1,14,32,11,,,,,,,,,,,,,,,,,,,,,,,,,,,,prac,2,2,2,positive,positive,l,l,1,0.8525030000600964,151.2093031000113,152.20879800000694,152.19165399996564,None,151.2093031000113,None,151.2093031000113,None,151.2093031000113,None,153.04545070000458,None,153.04545070000458,None,153.04545070000458,None,,,,,,,,,,,126,19,Female,2022-05-10_17h55.30.217,Boat,2022.1.1,59.98832625265731,
negative,positive,1,j,l,,,,,1,15,33,6,,,,,,,,,,,,,,,,,,,,,,,,,,,,prac,2,2,1,positive,negative,j,j,1,0.8509515000041574,153.0639253000263,154.07261709996965,154.05269279994536,None,153.0639253000263,None,153.0639253000263,None,153.0639253000263,None,154.9007774000289,None,154.9007774000289,None,154.9007774000289,None,,,,,,,,,,,126,19,Female,2022-05-10_17h55.30.217,Boat,2022.1.1,59.98832625265731,
positive,negative,1,l,j,,,,,1,16,34,5,,,,,,,,,,,,,,,,,,,,,,,,,,,,prac,1,1,1,negative,positive,l,l,1,0.7893339999718592,154.92071570002008,155.9396463999292,155.8998886999907,None,154.92071570002008,None,154.92071570002008,None,154.92071570002008,None,156.6915198000148,None,156.6915198000148,None,156.6915198000148,None,,,,,,,,,,,126,19,Female,2022-05-10_17h55.30.217,Boat,2022.1.1,59.98832625265731,
positive,neutral,1,l,j,,,,,1,17,35,8,,,,,,,,,,,,,,,,,,,,,,,,,,,,prac,1,1,1,neutral,positive,l,l,1,0.8617795999161899,156.71691660000943,157.72189449996222,157.72189449996222,None,156.71691660000943,None,156.71691660000943,None,156.71691660000943,None,158.55705129997804,None,158.55705129997804,None,158.55705129997804,None,,,,,,,,,,,126,19,Female,2022-05-10_17h55.30.217,Boat,2022.1.1,59.98832625265731,
,,,,,,,,,,,,,,,,,,,,,,,,,,,,,,,,,,,,,,,,,,,,,,,,,,,,,,,,,,,,,,,,,,158.56810030003544,None,None,,,,,,,,126,19,Female,2022-05-10_17h55.30.217,Boat,2022.1.1,59.98832625265731,
,,,,,,,,,,,,,,,,,,,,,,,,,,,,,,,,,,,,,,,,,,,,,,,,,,,,,,,,,,,,,,,,,,,,,-0.21018519,-0.06111111,1,0,0,0.006714800023473799,None,126,19,Female,2022-05-10_17h55.30.217,Boat,2022.1.1,59.98832625265731,
negative,negative,1,j,l,,,,,,,,,0,0,0,0,,,,,,,,,,,,,,,,,,,,,,172.83689020003658,None,main,2,2,1,negative,negative,j,j,1,1.7869438999332488,174.85883669997565,175.8695982999634,175.83132789994124,None,174.85883669997565,None,174.85883669997565,None,174.85883669997565,None,177.6318326999899,None,177.6318326999899,None,177.6318326999899,None,,,,,,,,,,,126,19,Female,2022-05-10_17h55.30.217,Boat,2022.1.1,59.98832625265731,
negative,negative,2,j,l,,,,,,,,,0,1,1,9,,,,,,,,,,,,,,,,,,,,,,,,main,1,1,2,negative,negative,j,j,1,0.8239667000016198,178.65446109999903,179.6836164999986,179.63668789993972,None,178.65446109999903,None,178.65446109999903,None,178.65446109999903,None,180.45577329993247,None,180.45577329993247,None,180.45577329993247,None,,,,,,,,,,,126,19,Female,2022-05-10_17h55.30.217,Boat,2022.1.1,59.98832625265731,
neutral,neutral,1,k,k,,,,,,,,,0,2,2,1,,,,,,,,,,,,,,,,,,,,,,,,main,2,2,1,neutral,neutral,k,k,1,0.7612326999660581,180.4781737999292,181.49188330001198,181.45633249997627,None,180.4781737999292,None,180.4781737999292,None,180.4781737999292,None,182.21832829995546,None,182.21832829995546,None,182.21832829995546,None,,,,,,,,,,,126,19,Female,2022-05-10_17h55.30.217,Boat,2022.1.1,59.98832625265731,
positive,negative,1,l,j,,,,,,,,,0,3,3,5,,,,,,,,,,,,,,,,,,,,,,,,main,2,2,1,negative,positive,l,l,1,0.8398785000899807,182.24060010001995,183.24255199998152,183.22553890000563,None,182.24060010001995,None,182.24060010001995,None,182.24060010001995,None,184.0622747999383,None,184.0622747999383,None,184.0622747999383,None,,,,,,,,,,,126,19,Female,2022-05-10_17h55.30.217,Boat,2022.1.1,59.98832625265731,
neutral,positive,2,k,k,,,,,,,,,0,4,4,13,,,,,,,,,,,,,,,,,,,,,,,,main,2,2,2,positive,neutral,k,k,1,0.7493753000162542,184.08169699995779,185.0923601000104,185.0586599999806,None,184.08169699995779,None,184.08169699995779,None,184.08169699995779,None,185.81519719995558,None,185.81519719995558,None,185.81519719995558,None,,,,,,,,,,,126,19,Female,2022-05-10_17h55.30.217,Boat,2022.1.1,59.98832625265731,
positive,positive,1,l,j,,,,,,,,,0,5,5,2,,,,,,,,,,,,,,,,,,,,,,,,main,2,2,1,positive,positive,l,l,1,0.8490605999249965,185.83540640003048,186.84223199996632,186.82513160002418,None,185.83540640003048,None,185.83540640003048,None,185.83540640003048,None,187.66832950003445,None,187.66832950003445,None,187.66832950003445,None,,,,,,,,,,,126,19,Female,2022-05-10_17h55.30.217,Boat,2022.1.1,59.98832625265731,
neutral,positive,1,k,k,,,,,,,,,0,6,6,4,,,,,,,,,,,,,,,,,,,,,,,,main,2,2,1,positive,neutral,k,k,1,0.624035399989225,187.69116609997582,188.7097281999886,188.67073779995553,None,187.69116609997582,None,187.69116609997582,None,187.69116609997582,None,189.29444769993424,None,189.29444769993424,None,189.29444769993424,None,,,,,,,,,,,126,19,Female,2022-05-10_17h55.30.217,Boat,2022.1.1,59.98832625265731,
neutral,neutral,2,k,k,,,,,,,,,0,7,7,10,,,,,,,,,,,,,,,,,,,,,,,,main,2,2,2,neutral,neutral,k,k,1,0.6699145999737084,189.3123607999878,190.3286998999538,190.29256570001598,None,189.3123607999878,None,189.3123607999878,None,189.3123607999878,None,190.96725040001328,None,190.96725040001328,None,190.96725040001328,None,,,,,,,,,,,126,19,Female,2022-05-10_17h55.30.217,Boat,2022.1.1,59.98832625265731,
negative,neutral,1,j,l,,,,,,,,,0,8,8,3,,,,,,,,,,,,,,,,,,,,,,,,main,2,2,1,neutral,negative,j,j,1,0.6702185999602079,190.9864064999856,191.99677900003735,191.96044209995307,None,190.9864064999856,None,190.9864064999856,None,190.9864064999856,None,192.6408890999388,None,192.6408890999388,None,192.6408890999388,None,,,,,,,,,,,126,19,Female,2022-05-10_17h55.30.217,Boat,2022.1.1,59.98832625265731,
positive,positive,2,l,j,,,,,,,,,0,9,9,11,,,,,,,,,,,,,,,,,,,,,,,,main,2,2,2,positive,positive,l,l,1,0.6878198999911547,192.66193099995144,193.665230399929,193.64692149998154,None,192.66193099995144,None,192.66193099995144,None,192.66193099995144,None,194.33164140002336,None,194.33164140002336,None,194.33164140002336,None,,,,,,,,,,,126,19,Female,2022-05-10_17h55.30.217,Boat,2022.1.1,59.98832625265731,
positive,negative,2,l,j,,,,,,,,,0,10,10,14,,,,,,,,,,,,,,,,,,,,,,,,main,1,1,2,negative,positive,l,l,1,0.6904897000640631,194.3531290999381,195.3605751999421,195.3262800000375,None,194.3531290999381,None,194.3531290999381,None,194.3531290999381,None,196.02544200003612,None,196.02544200003612,None,196.02544200003612,None,,,,,,,,,,,126,19,Female,2022-05-10_17h55.30.217,Boat,2022.1.1,59.98832625265731,
negative,positive,2,j,l,,,,,,,,,0,11,11,15,,,,,,,,,,,,,,,,,,,,,,,,main,2,2,2,positive,negative,j,j,1,0.7878184999572113,196.0453785000136,197.05372159997933,197.03383690002374,None,196.0453785000136,None,196.0453785000136,None,196.0453785000136,None,197.8126481999876,None,197.8126481999876,None,197.8126481999876,None,,,,,,,,,,,126,19,Female,2022-05-10_17h55.30.217,Boat,2022.1.1,59.98832625265731,
positive,neutral,2,l,j,,,,,,,,,0,12,12,17,,,,,,,,,,,,,,,,,,,,,,,,main,2,2,2,neutral,positive,l,l,1,1.7205469000618905,197.83920319995377,198.85897950001527,198.82132819993421,None,197.83920319995377,None,197.83920319995377,None,197.83920319995377,None,200.54530620004516,None,200.54530620004516,None,200.54530620004516,None,,,,,,,,,,,126,19,Female,2022-05-10_17h55.30.217,Boat,2022.1.1,59.98832625265731,
negative,positive,1,j,l,,,,,,,,,0,13,13,6,,,,,,,,,,,,,,,,,,,,,,,,main,1,1,1,positive,negative,j,j,1,0.8394992999965325,201.5623902999796,202.57810279994737,202.54260529996827,None,201.5623902999796,None,201.5623902999796,None,201.5623902999796,None,203.38828169999178,None,203.38828169999178,None,203.38828169999178,None,,,,,,,,,,,126,19,Female,2022-05-10_17h55.30.217,Boat,2022.1.1,59.98832625265731,
neutral,negative,2,k,k,,,,,,,,,0,14,14,16,,,,,,,,,,,,,,,,,,,,,,,,main,1,1,2,negative,neutral,k,k,1,0.6897144999820739,203.40783239994198,204.40909710002597,204.39254439994693,None,203.40783239994198,None,203.40783239994198,None,203.40783239994198,None,205.08280859994701,None,205.08280859994701,None,205.08280859994701,None,,,,,,,,,,,126,19,Female,2022-05-10_17h55.30.217,Boat,2022.1.1,59.98832625265731,
neutral,negative,1,k,k,,,,,,,,,0,15,15,7,,,,,,,,,,,,,,,,,,,,,,,,main,2,2,1,negative,neutral,k,j,0,0.7598302001133561,205.10198879998643,206.1072661000071,206.08726479997858,None,205.10198879998643,None,205.10198879998643,None,205.10198879998643,None,206.84893029998057,None,206.84893029998057,None,206.84893029998057,None,,,,,,,,,,,126,19,Female,2022-05-10_17h55.30.217,Boat,2022.1.1,59.98832625265731,
negative,neutral,2,j,l,,,,,,,,,0,16,16,12,,,,,,,,,,,,,,,,,,,,,,,,main,2,2,2,neutral,negative,j,j,1,0.7984116000588983,207.86359700001776,208.877284499933,208.84259429993108,None,207.86359700001776,None,207.86359700001776,None,207.86359700001776,None,209.6453075999394,None,209.6453075999394,None,209.6453075999394,None,,,,,,,,,,,126,19,Female,2022-05-10_17h55.30.217,Boat,2022.1.1,59.98832625265731,
positive,neutral,1,l,j,,,,,,,,,0,17,17,8,,,,,,,,,,,,,,,,,,,,,,,,main,2,2,1,neutral,positive,l,l,1,0.8032335999887437,209.66425689996686,210.67893840000033,210.64222249994054,None,209.66425689996686,None,209.66425689996686,None,209.66425689996686,None,211.45328329994808,None,211.45328329994808,None,211.45328329994808,None,,,,,,,,,,,126,19,Female,2022-05-10_17h55.30.217,Boat,2022.1.1,59.98832625265731,
positive,negative,2,l,j,,,,,,,,,1,0,18,14,,,,,,,,,,,,,,,,,,,,,,,,main,2,2,2,negative,positive,l,l,1,0.664242299972102,211.47082539997064,212.47634109994397,212.44232869998086,None,211.47082539997064,None,211.47082539997064,None,211.47082539997064,None,213.11987029996234,None,213.11987029996234,None,213.11987029996234,None,,,,,,,,,,,126,19,Female,2022-05-10_17h55.30.217,Boat,2022.1.1,59.98832625265731,
neutral,neutral,1,k,k,,,,,,,,,1,1,19,1,,,,,,,,,,,,,,,,,,,,,,,,main,2,2,1,neutral,neutral,k,k,1,0.7386027999455109,213.13824460003525,214.14263979997486,214.12497250002343,None,213.13824460003525,None,213.13824460003525,None,213.13824460003525,None,214.86037339994218,None,214.86037339994218,None,214.86037339994218,None,,,,,,,,,,,126,19,Female,2022-05-10_17h55.30.217,Boat,2022.1.1,59.98832625265731,
neutral,negative,2,k,k,,,,,,,,,1,2,20,16,,,,,,,,,,,,,,,,,,,,,,,,main,1,1,2,negative,neutral,k,k,1,0.6717691000085324,214.8785587999737,215.89309230004437,215.85780130000785,None,214.8785587999737,None,214.8785587999737,None,214.8785587999737,None,216.53585639994125,None,216.53585639994125,None,216.53585639994125,None,,,,,,,,,,,126,19,Female,2022-05-10_17h55.30.217,Boat,2022.1.1,59.98832625265731,
negative,negative,1,j,l,,,,,,,,,1,3,21,0,,,,,,,,,,,,,,,,,,,,,,,,main,2,2,1,negative,negative,j,j,1,0.8320239000022411,216.55829379998613,217.55980029993225,217.54286869999487,None,216.55829379998613,None,216.55829379998613,None,216.55829379998613,None,218.37080549998208,None,218.37080549998208,None,218.37080549998208,None,,,,,,,,,,,126,19,Female,2022-05-10_17h55.30.217,Boat,2022.1.1,59.98832625265731,
positive,positive,1,l,j,,,,,,,,,1,4,22,2,,,,,,,,,,,,,,,,,,,,,,,,main,1,1,1,positive,positive,l,j,0,0.7730318000540137,218.3924898999976,219.4005253999494,219.3621739000082,None,218.3924898999976,None,218.3924898999976,None,218.3924898999976,None,220.15028259996325,None,220.15028259996325,None,220.15028259996325,None,,,,,,,,,,,126,19,Female,2022-05-10_17h55.30.217,Boat,2022.1.1,59.98832625265731,
neutral,neutral,2,k,k,,,,,,,,,1,5,23,10,,,,,,,,,,,,,,,,,,,,,,,,main,2,2,2,neutral,neutral,k,k,1,1.0021085999906063,221.1629818000365,222.1808788999915,222.14289599994663,None,221.1629818000365,None,221.1629818000365,None,221.1629818000365,None,223.1502184999641,None,223.1502184999641,None,223.1502184999641,None,,,,,,,,,,,126,19,Female,2022-05-10_17h55.30.217,Boat,2022.1.1,59.98832625265731,
positive,neutral,1,l,j,,,,,,,,,1,6,24,8,,,,,,,,,,,,,,,,,,,,,,,,main,1,1,1,neutral,positive,l,l,1,0.8951005999697372,223.16845110000577,224.18454029993154,224.14291799999774,None,223.16845110000577,None,223.16845110000577,None,223.16845110000577,None,225.04716400001197,None,225.04716400001197,None,225.04716400001197,None,,,,,,,,,,,126,19,Female,2022-05-10_17h55.30.217,Boat,2022.1.1,59.98832625265731,
positive,positive,2,l,j,,,,,,,,,1,7,25,11,,,,,,,,,,,,,,,,,,,,,,,,main,1,1,2,positive,positive,l,l,1,1.0937474999809638,225.0673088999465,226.07521669997368,226.05423799995333,None,225.0673088999465,None,225.0673088999465,None,225.0673088999465,None,227.14354710003826,None,227.14354710003826,None,227.14354710003826,None,,,,,,,,,,,126,19,Female,2022-05-10_17h55.30.217,Boat,2022.1.1,59.98832625265731,
negative,positive,2,j,l,,,,,,,,,1,8,26,15,,,,,,,,,,,,,,,,,,,,,,,,main,2,2,2,positive,negative,j,j,1,0.8012657000217587,227.16388569993433,228.16692280001007,228.14768920000643,None,227.16388569993433,None,227.16388569993433,None,227.16388569993433,None,228.94834349993616,None,228.94834349993616,None,228.94834349993616,None,,,,,,,,,,,126,19,Female,2022-05-10_17h55.30.217,Boat,2022.1.1,59.98832625265731,
neutral,positive,1,k,k,,,,,,,,,1,9,27,4,,,,,,,,,,,,,,,,,,,,,,,,main,2,2,1,positive,neutral,k,k,1,0.7532042999519035,228.96564750000834,229.97651289997157,229.93830159993377,None,228.96564750000834,None,228.96564750000834,None,228.96564750000834,None,230.70461289994418,None,230.70461289994418,None,230.70461289994418,None,,,,,,,,,,,126,19,Female,2022-05-10_17h55.30.217,Boat,2022.1.1,59.98832625265731,
negative,negative,2,j,l,,,,,,,,,1,10,28,9,,,,,,,,,,,,,,,,,,,,,,,,main,1,1,2,negative,negative,j,j,1,0.8370942000765353,230.7249271000037,231.74274979997426,231.7233948999783,None,230.7249271000037,None,230.7249271000037,None,230.7249271000037,None,232.5455375999678,None,232.5455375999678,None,232.5455375999678,None,,,,,,,,,,,126,19,Female,2022-05-10_17h55.30.217,Boat,2022.1.1,59.98832625265731,
neutral,positive,2,k,k,,,,,,,,,1,11,29,13,,,,,,,,,,,,,,,,,,,,,,,,main,1,1,2,positive,neutral,k,k,1,0.7453688000096008,232.564047700027,233.58113069995306,233.54489260003902,None,232.564047700027,None,232.564047700027,None,232.564047700027,None,234.29175220001488,None,234.29175220001488,None,234.29175220001488,None,,,,,,,,,,,126,19,Female,2022-05-10_17h55.30.217,Boat,2022.1.1,59.98832625265731,
negative,neutral,2,j,l,,,,,,,,,1,12,30,12,,,,,,,,,,,,,,,,,,,,,,,,main,2,2,2,neutral,negative,j,j,1,0.6850299000507221,234.31237109994981,235.32720589998644,235.29320870002266,None,234.31237109994981,None,234.31237109994981,None,234.31237109994981,None,235.981194400019,None,235.981194400019,None,235.981194400019,None,,,,,,,,,,,126,19,Female,2022-05-10_17h55.30.217,Boat,2022.1.1,59.98832625265731,
negative,neutral,1,j,l,,,,,,,,,1,13,31,3,,,,,,,,,,,,,,,,,,,,,,,,main,1,1,1,neutral,negative,j,j,1,0.8341862999368459,235.9993780000368,237.01004329998977,236.97508500004187,None,235.9993780000368,None,235.9993780000368,None,235.9993780000368,None,237.81937619999516,None,237.81937619999516,None,237.81937619999516,None,,,,,,,,,,,126,19,Female,2022-05-10_17h55.30.217,Boat,2022.1.1,59.98832625265731,
negative,positive,1,j,l,,,,,,,,,1,14,32,6,,,,,,,,,,,,,,,,,,,,,,,,main,2,2,1,positive,negative,j,j,1,0.6074894999619573,237.84083689993713,238.8433249000227,238.8264288000064,None,237.84083689993713,None,237.84083689993713,None,237.84083689993713,None,239.4280805000104,None,239.4280805000104,None,239.4280805000104,None,,,,,,,,,,,126,19,Female,2022-05-10_17h55.30.217,Boat,2022.1.1,59.98832625265731,
positive,negative,1,l,j,,,,,,,,,1,15,33,5,,,,,,,,,,,,,,,,,,,,,,,,main,1,1,1,negative,positive,l,l,1,0.6561718999873847,239.44654889998492,240.45859589998145,240.4171359000029,None,239.44654889998492,None,239.44654889998492,None,239.44654889998492,None,241.08841089999768,None,241.08841089999768,None,241.08841089999768,None,,,,,,,,,,,126,19,Female,2022-05-10_17h55.30.217,Boat,2022.1.1,59.98832625265731,
neutral,negative,1,k,k,,,,,,,,,1,16,34,7,,,,,,,,,,,,,,,,,,,,,,,,main,2,2,1,negative,neutral,k,k,1,0.6802547000115737,241.10868309997022,242.1102458999958,242.09296259994153,None,241.10868309997022,None,241.10868309997022,None,241.10868309997022,None,242.77100119998212,None,242.77100119998212,None,242.77100119998212,None,,,,,,,,,,,126,19,Female,2022-05-10_17h55.30.217,Boat,2022.1.1,59.98832625265731,
positive,neutral,2,l,j,,,,,,,,,1,17,35,17,,,,,,,,,,,,,,,,,,,,,,,,main,2,2,2,neutral,positive,l,l,1,0.6974087000126019,242.79244180000387,243.80440230004024,243.76574810000602,None,242.79244180000387,None,242.79244180000387,None,242.79244180000387,None,244.47083229993004,None,244.47083229993004,None,244.47083229993004,None,,,,,,,,,,,126,19,Female,2022-05-10_17h55.30.217,Boat,2022.1.1,59.98832625265731,
neutral,neutral,2,k,k,,,,,,,,,2,0,36,10,,,,,,,,,,,,,,,,,,,,,,,,main,2,2,2,neutral,neutral,k,k,1,1.5614640999119729,244.49176040000748,245.5019296000246,245.47658100002445,None,244.49176040000748,None,244.49176040000748,None,244.49176040000748,None,247.04408270004205,None,247.04408270004205,None,247.04408270004205,None,,,,,,,,,,,126,19,Female,2022-05-10_17h55.30.217,Boat,2022.1.1,59.98832625265731,
negative,neutral,2,j,l,,,,,,,,,2,1,37,12,,,,,,,,,,,,,,,,,,,,,,,,main,2,2,2,neutral,negative,j,j,1,0.760271199978888,248.06478649994824,249.07687809993513,249.04163739993237,None,248.06478649994824,None,248.06478649994824,None,248.06478649994824,None,249.8090642999392,None,249.8090642999392,None,249.8090642999392,None,,,,,,,,,,,126,19,Female,2022-05-10_17h55.30.217,Boat,2022.1.1,59.98832625265731,
neutral,positive,2,k,k,,,,,,,,,2,2,38,13,,,,,,,,,,,,,,,,,,,,,,,,main,2,2,2,positive,neutral,k,k,1,0.7263539000414312,249.83060660003684,250.85512690001633,250.80788340000436,None,249.83060660003684,None,249.83060660003684,None,249.83060660003684,None,251.53981060001533,None,251.53981060001533,None,251.53981060001533,None,,,,,,,,,,,126,19,Female,2022-05-10_17h55.30.217,Boat,2022.1.1,59.98832625265731,
positive,negative,1,l,j,,,,,,,,,2,3,39,5,,,,,,,,,,,,,,,,,,,,,,,,main,1,1,1,negative,positive,l,l,1,0.7413410999579355,251.5589565000264,252.56146440003067,252.54427519999444,None,251.5589565000264,None,251.5589565000264,None,251.5589565000264,None,253.28220679997466,None,253.28220679997466,None,253.28220679997466,None,,,,,,,,,,,126,19,Female,2022-05-10_17h55.30.217,Boat,2022.1.1,59.98832625265731,
positive,negative,2,l,j,,,,,,,,,2,4,40,14,,,,,,,,,,,,,,,,,,,,,,,,main,2,2,2,negative,positive,l,l,1,0.6581486999057233,253.30200479994528,254.31045739992987,254.27634939993732,None,253.30200479994528,None,253.30200479994528,None,253.30200479994528,None,254.94421260003,None,254.94421260003,None,254.94421260003,None,,,,,,,,,,,126,19,Female,2022-05-10_17h55.30.217,Boat,2022.1.1,59.98832625265731,
positive,positive,2,l,j,,,,,,,,,2,5,41,11,,,,,,,,,,,,,,,,,,,,,,,,main,2,2,2,positive,positive,l,l,1,0.6626849001040682,254.96286249998957,255.97186179994605,255.95128559996374,None,254.96286249998957,None,254.96286249998957,None,254.96286249998957,None,256.61039349997884,None,256.61039349997884,None,256.61039349997884,None,,,,,,,,,,,126,19,Female,2022-05-10_17h55.30.217,Boat,2022.1.1,59.98832625265731,
negative,positive,1,j,l,,,,,,,,,2,6,42,6,,,,,,,,,,,,,,,,,,,,,,,,main,2,2,1,positive,negative,j,j,1,0.7635191000299528,256.6288906999398,257.65198630001396,257.6104709999636,None,256.6288906999398,None,256.6288906999398,None,256.6288906999398,None,258.37711060002914,None,258.37711060002914,None,258.37711060002914,None,,,,,,,,,,,126,19,Female,2022-05-10_17h55.30.217,Boat,2022.1.1,59.98832625265731,
negative,neutral,1,j,l,,,,,,,,,2,7,43,3,,,,,,,,,,,,,,,,,,,,,,,,main,2,2,1,neutral,negative,j,j,1,0.6789514999836683,258.3968302999856,259.4110871000448,259.37732530001085,None,258.3968302999856,None,258.3968302999856,None,258.3968302999856,None,260.06041039994454,None,260.06041039994454,None,260.06041039994454,None,,,,,,,,,,,126,19,Female,2022-05-10_17h55.30.217,Boat,2022.1.1,59.98832625265731,
positive,neutral,2,l,j,,,,,,,,,2,8,44,17,,,,,,,,,,,,,,,,,,,,,,,,main,1,1,2,neutral,positive,l,l,1,0.7567365999566391,260.08099719998427,261.09389270003885,261.05528890003916,None,260.08099719998427,None,260.08099719998427,None,260.08099719998427,None,261.82102799999996,None,261.82102799999996,None,261.82102799999996,None,,,,,,,,,,,126,19,Female,2022-05-10_17h55.30.217,Boat,2022.1.1,59.98832625265731,
negative,negative,2,j,l,,,,,,,,,2,9,45,9,,,,,,,,,,,,,,,,,,,,,,,,main,2,2,2,negative,negative,j,j,1,0.7546997000463307,261.841032300028,262.84543909993954,262.82790389994625,None,261.841032300028,None,261.841032300028,None,261.841032300028,None,263.57841340000743,None,263.57841340000743,None,263.57841340000743,None,,,,,,,,,,,126,19,Female,2022-05-10_17h55.30.217,Boat,2022.1.1,59.98832625265731,
neutral,negative,1,k,k,,,,,,,,,2,10,46,7,,,,,,,,,,,,,,,,,,,,,,,,main,2,2,1,negative,neutral,k,k,1,0.6967481999890879,263.5982289999956,264.6104448999977,264.57719029998407,None,263.5982289999956,None,263.5982289999956,None,263.5982289999956,None,265.27746939999054,None,265.27746939999054,None,265.27746939999054,None,,,,,,,,,,,126,19,Female,2022-05-10_17h55.30.217,Boat,2022.1.1,59.98832625265731,
positive,positive,1,l,j,,,,,,,,,2,11,47,2,,,,,,,,,,,,,,,,,,,,,,,,main,1,1,1,positive,positive,l,l,1,0.9121908999513835,265.29742700001225,266.3103929000208,266.2723847000161,None,265.29742700001225,None,265.29742700001225,None,265.29742700001225,None,267.1932473000139,None,267.1932473000139,None,267.1932473000139,None,,,,,,,,,,,126,19,Female,2022-05-10_17h55.30.217,Boat,2022.1.1,59.98832625265731,
neutral,neutral,1,k,k,,,,,,,,,2,12,48,1,,,,,,,,,,,,,,,,,,,,,,,,main,2,2,1,neutral,neutral,k,k,1,0.8942246999358758,267.2123150000116,268.22757320001256,268.1941377000185,None,267.2123150000116,None,267.2123150000116,None,267.2123150000116,None,269.0921831999673,None,269.0921831999673,None,269.0921831999673,None,,,,,,,,,,,126,19,Female,2022-05-10_17h55.30.217,Boat,2022.1.1,59.98832625265731,
neutral,negative,2,k,k,,,,,,,,,2,13,49,16,,,,,,,,,,,,,,,,,,,,,,,,main,2,2,2,negative,neutral,k,k,1,0.8417950000148267,269.1102487000171,270.1273825999815,270.1058455000166,None,269.1102487000171,None,269.1102487000171,None,269.1102487000171,None,270.9367873999523,None,270.9367873999523,None,270.9367873999523,None,,,,,,,,,,,126,19,Female,2022-05-10_17h55.30.217,Boat,2022.1.1,59.98832625265731,
negative,negative,1,j,l,,,,,,,,,2,14,50,0,,,,,,,,,,,,,,,,,,,,,,,,main,2,2,1,negative,negative,j,j,1,0.7252227999269962,270.96013369993307,271.96744919999037,271.93110929999966,None,270.96013369993307,None,270.96013369993307,None,270.96013369993307,None,272.66363320001403,None,272.66363320001403,None,272.66363320001403,None,,,,,,,,,,,126,19,Female,2022-05-10_17h55.30.217,Boat,2022.1.1,59.98832625265731,
neutral,positive,1,k,k,,,,,,,,,2,15,51,4,,,,,,,,,,,,,,,,,,,,,,,,main,1,1,1,positive,neutral,k,k,1,0.8256262999493629,272.68269299995154,273.6931968999561,273.67282520001754,None,272.68269299995154,None,272.68269299995154,None,272.68269299995154,None,274.4941827999661,None,274.4941827999661,None,274.4941827999661,None,,,,,,,,,,,126,19,Female,2022-05-10_17h55.30.217,Boat,2022.1.1,59.98832625265731,
negative,positive,2,j,l,,,,,,,,,2,16,52,15,,,,,,,,,,,,,,,,,,,,,,,,main,2,2,2,positive,negative,j,j,1,0.6938433999894187,274.51104719995055,275.5138968999963,275.4944545000326,None,274.51104719995055,None,274.51104719995055,None,274.51104719995055,None,276.1910825999454,None,276.1910825999454,None,276.1910825999454,None,,,,,,,,,,,126,19,Female,2022-05-10_17h55.30.217,Boat,2022.1.1,59.98832625265731,
positive,neutral,1,l,j,,,,,,,,,2,17,53,8,,,,,,,,,,,,,,,,,,,,,,,,main,2,2,1,neutral,positive,l,l,1,0.8592053999891505,276.2099051999394,277.2126312999753,277.195486899931,None,276.2099051999394,None,276.2099051999394,None,276.2099051999394,None,278.0521121999715,None,278.0521121999715,None,278.0521121999715,None,,,,,,,,,,,126,19,Female,2022-05-10_17h55.30.217,Boat,2022.1.1,59.98832625265731,
negative,neutral,1,j,l,,,,,,,,,3,0,54,3,,,,,,,,,,,,,,,,,,,,,,,,main,1,1,1,neutral,negative,j,j,1,0.9624333999818191,278.07213969994336,279.08568050002214,279.05879959999584,None,278.07213969994336,None,278.07213969994336,None,278.07213969994336,None,280.01888230002953,None,280.01888230002953,None,280.01888230002953,None,,,,,,,,,,,126,19,Female,2022-05-10_17h55.30.217,Boat,2022.1.1,59.98832625265731,
negative,positive,2,j,l,,,,,,,,,3,1,55,15,,,,,,,,,,,,,,,,,,,,,,,,main,2,2,2,positive,negative,j,j,1,0.7646417999640107,280.0380361999851,281.0480108000338,281.01093109999783,None,280.0380361999851,None,280.0380361999851,None,280.0380361999851,None,281.78649889994415,None,281.78649889994415,None,281.78649889994415,None,,,,,,,,,,,126,19,Female,2022-05-10_17h55.30.217,Boat,2022.1.1,59.98832625265731,
negative,negative,1,j,l,,,,,,,,,3,2,56,0,,,,,,,,,,,,,,,,,,,,,,,,main,2,2,1,negative,negative,j,j,1,0.7830080999992788,281.8051040000282,282.81119999999646,282.79422469995916,None,281.8051040000282,None,281.8051040000282,None,281.8051040000282,None,283.57253150003964,None,283.57253150003964,None,283.57253150003964,None,,,,,,,,,,,126,19,Female,2022-05-10_17h55.30.217,Boat,2022.1.1,59.98832625265731,
negative,positive,1,j,l,,,,,,,,,3,3,57,6,,,,,,,,,,,,,,,,,,,,,,,,main,1,1,1,positive,negative,j,j,1,0.581590500078164,283.59319489996415,284.59481499996036,284.5608317999868,None,283.59319489996415,None,283.59319489996415,None,283.59319489996415,None,285.1568893000018,None,285.1568893000018,None,285.1568893000018,None,,,,,,,,,,,126,19,Female,2022-05-10_17h55.30.217,Boat,2022.1.1,59.98832625265731,
neutral,neutral,2,k,k,,,,,,,,,3,4,58,10,,,,,,,,,,,,,,,,,,,,,,,,main,1,1,2,neutral,neutral,k,k,1,0.9316477999091148,285.17690500000026,286.17875720001757,286.1611491999356,None,285.17690500000026,None,285.17690500000026,None,285.17690500000026,None,287.0903995000059,None,287.0903995000059,None,287.0903995000059,None,,,,,,,,,,,126,19,Female,2022-05-10_17h55.30.217,Boat,2022.1.1,59.98832625265731,
positive,positive,2,l,j,,,,,,,,,3,5,59,11,,,,,,,,,,,,,,,,,,,,,,,,main,1,1,2,positive,positive,l,l,1,0.8566569000249729,287.1099065999733,288.1171723000007,288.0973669999512,None,287.1099065999733,None,287.1099065999733,None,287.1099065999733,None,288.9478073999286,None,288.9478073999286,None,288.9478073999286,None,,,,,,,,,,,126,19,Female,2022-05-10_17h55.30.217,Boat,2022.1.1,59.98832625265731,
neutral,positive,2,k,k,,,,,,,,,3,6,60,13,,,,,,,,,,,,,,,,,,,,,,,,main,1,1,2,positive,neutral,k,k,1,0.7300798000069335,288.9690129000228,289.9861820000224,289.9592992999824,None,288.9690129000228,None,288.9690129000228,None,288.9690129000228,None,290.6805768000428,None,290.6805768000428,None,290.6805768000428,None,,,,,,,,,,,126,19,Female,2022-05-10_17h55.30.217,Boat,2022.1.1,59.98832625265731,
positive,positive,1,l,j,,,,,,,,,3,7,61,2,,,,,,,,,,,,,,,,,,,,,,,,main,1,1,1,positive,positive,l,l,1,0.8563170999987051,290.70477630000096,291.71686659997795,291.67991920001805,None,290.70477630000096,None,290.70477630000096,None,290.70477630000096,None,292.5403205999406,None,292.5403205999406,None,292.5403205999406,None,,,,,,,,,,,126,19,Female,2022-05-10_17h55.30.217,Boat,2022.1.1,59.98832625265731,
positive,negative,2,l,j,,,,,,,,,3,8,62,14,,,,,,,,,,,,,,,,,,,,,,,,main,2,2,2,negative,positive,l,l,1,0.7354689999483526,292.5603943000315,293.57776859996375,293.5421459999634,None,292.5603943000315,None,292.5603943000315,None,292.5603943000315,None,294.27795319994914,None,294.27795319994914,None,294.27795319994914,None,,,,,,,,,,,126,19,Female,2022-05-10_17h55.30.217,Boat,2022.1.1,59.98832625265731,
neutral,negative,2,k,k,,,,,,,,,3,9,63,16,,,,,,,,,,,,,,,,,,,,,,,,main,1,1,2,negative,neutral,k,k,1,0.761737999971956,294.2968029000331,295.31281060003676,295.2782838999992,None,294.2968029000331,None,294.2968029000331,None,294.2968029000331,None,296.04488189998085,None,296.04488189998085,None,296.04488189998085,None,,,,,,,,,,,126,19,Female,2022-05-10_17h55.30.217,Boat,2022.1.1,59.98832625265731,
positive,neutral,1,l,j,,,,,,,,,3,10,64,8,,,,,,,,,,,,,,,,,,,,,,,,main,1,1,1,neutral,positive,l,l,1,0.9635390999028459,296.06256969994865,297.07942700001877,297.0447711999295,None,296.06256969994865,None,296.06256969994865,None,296.06256969994865,None,298.0112662000116,None,298.0112662000116,None,298.0112662000116,None,,,,,,,,,,,126,19,Female,2022-05-10_17h55.30.217,Boat,2022.1.1,59.98832625265731,
neutral,neutral,1,k,k,,,,,,,,,3,11,65,1,,,,,,,,,,,,,,,,,,,,,,,,main,2,2,1,neutral,neutral,k,k,1,0.7360138000221923,298.0306831999915,299.045199999935,299.0099693000084,None,298.0306831999915,None,298.0306831999915,None,298.0306831999915,None,299.7496822999325,None,299.7496822999325,None,299.7496822999325,None,,,,,,,,,,,126,19,Female,2022-05-10_17h55.30.217,Boat,2022.1.1,59.98832625265731,
neutral,negative,1,k,k,,,,,,,,,3,12,66,7,,,,,,,,,,,,,,,,,,,,,,,,main,2,2,1,negative,neutral,k,k,1,1.1395888000261039,299.7672901999904,300.7838459999766,300.74614099995233,None,299.7672901999904,None,299.7672901999904,None,299.7672901999904,None,301.89340259998573,None,301.89340259998573,None,301.89340259998573,None,,,,,,,,,,,126,19,Female,2022-05-10_17h55.30.217,Boat,2022.1.1,59.98832625265731,
negative,negative,2,j,l,,,,,,,,,3,13,67,9,,,,,,,,,,,,,,,,,,,,,,,,main,2,2,2,negative,negative,j,j,1,0.7143356000306085,301.91184329998214,302.926463300013,302.9065714000026,None,301.91184329998214,None,301.91184329998214,None,301.91184329998214,None,303.61145170000384,None,303.61145170000384,None,303.61145170000384,None,,,,,,,,,,,126,19,Female,2022-05-10_17h55.30.217,Boat,2022.1.1,59.98832625265731,
negative,neutral,2,j,l,,,,,,,,,3,14,68,12,,,,,,,,,,,,,,,,,,,,,,,,main,2,2,2,neutral,negative,j,j,1,0.5430721000302583,303.62852040003054,304.6427243000362,304.6228806000436,None,303.62852040003054,None,303.62852040003054,None,303.62852040003054,None,305.15753959994765,None,305.15753959994765,None,305.15753959994765,None,,,,,,,,,,,126,19,Female,2022-05-10_17h55.30.217,Boat,2022.1.1,59.98832625265731,
positive,negative,1,l,j,,,,,,,,,3,15,69,5,,,,,,,,,,,,,,,,,,,,,,,,main,1,1,1,negative,positive,l,l,1,0.9066299999831244,305.1780654999893,306.1781058999477,306.1604144999292,None,305.1780654999893,None,305.1780654999893,None,305.1780654999893,None,307.0674493999919,None,307.0674493999919,None,307.0674493999919,None,,,,,,,,,,,126,19,Female,2022-05-10_17h55.30.217,Boat,2022.1.1,59.98832625265731,
positive,neutral,2,l,j,,,,,,,,,3,16,70,17,,,,,,,,,,,,,,,,,,,,,,,,main,1,1,2,neutral,positive,l,l,1,0.7681010999949649,307.08738549996633,308.0951494999463,308.07764719997067,None,307.08738549996633,None,307.08738549996633,None,307.08738549996633,None,308.8396007999778,None,308.8396007999778,None,308.8396007999778,None,,,,,,,,,,,126,19,Female,2022-05-10_17h55.30.217,Boat,2022.1.1,59.98832625265731,
neutral,positive,1,k,k,,,,,,,,,3,17,71,4,,,,,,,,,,,,,,,,,,,,,,,,main,2,2,1,positive,neutral,k,k,1,0.7764906999655068,308.861395600019,309.8622294999659,309.84505280002486,None,308.861395600019,None,308.861395600019,None,308.861395600019,None,310.61755500002766,None,310.61755500002766,None,310.61755500002766,None,,,,,,,,,,,126,19,Female,2022-05-10_17h55.30.217,Boat,2022.1.1,59.98832625265731,
positive,positive,1,l,j,,,,,,,,,4,0,72,2,,,,,,,,,,,,,,,,,,,,,,,,main,2,2,1,positive,positive,l,l,1,0.7716251999372616,310.6383374000434,311.64489360002335,311.6105906999437,None,310.6383374000434,None,310.6383374000434,None,310.6383374000434,None,312.39304969997613,None,312.39304969997613,None,312.39304969997613,None,,,,,,,,,,,126,19,Female,2022-05-10_17h55.30.217,Boat,2022.1.1,59.98832625265731,
positive,negative,2,l,j,,,,,,,,,4,1,73,14,,,,,,,,,,,,,,,,,,,,,,,,main,2,2,2,negative,positive,l,l,1,0.727680700016208,312.41150409996044,313.41500929999165,313.3971463999478,None,312.41150409996044,None,312.41150409996044,None,312.41150409996044,None,314.12455019997435,None,314.12455019997435,None,314.12455019997435,None,,,,,,,,,,,126,19,Female,2022-05-10_17h55.30.217,Boat,2022.1.1,59.98832625265731,
neutral,positive,2,k,k,,,,,,,,,4,2,74,13,,,,,,,,,,,,,,,,,,,,,,,,main,1,1,2,positive,neutral,k,k,1,0.788627399946563,314.14367829996627,315.1488614999689,315.13071309996303,None,314.14367829996627,None,314.14367829996627,None,314.14367829996627,None,315.91523649999874,None,315.91523649999874,None,315.91523649999874,None,,,,,,,,,,,126,19,Female,2022-05-10_17h55.30.217,Boat,2022.1.1,59.98832625265731,
neutral,negative,1,k,k,,,,,,,,,4,3,75,7,,,,,,,,,,,,,,,,,,,,,,,,main,2,2,1,negative,neutral,k,k,1,0.9554844000376761,315.9343215000117,316.93962189997546,316.91893339995295,None,315.9343215000117,None,315.9343215000117,None,315.9343215000117,None,317.8731417999603,None,317.8731417999603,None,317.8731417999603,None,,,,,,,,,,,126,19,Female,2022-05-10_17h55.30.217,Boat,2022.1.1,59.98832625265731,
negative,positive,2,j,l,,,,,,,,,4,4,76,15,,,,,,,,,,,,,,,,,,,,,,,,main,1,1,2,positive,negative,j,j,1,0.623003700049594,317.89417510002386,318.8968342000153,318.87879119999707,None,317.89417510002386,None,317.89417510002386,None,317.89417510002386,None,319.4987462000223,None,319.4987462000223,None,319.4987462000223,None,,,,,,,,,,,126,19,Female,2022-05-10_17h55.30.217,Boat,2022.1.1,59.98832625265731,
negative,negative,2,j,l,,,,,,,,,4,5,77,9,,,,,,,,,,,,,,,,,,,,,,,,main,1,1,2,negative,negative,j,j,1,0.5021594000281766,319.5182926999405,320.53166069998406,320.4951206999831,None,319.5182926999405,None,319.5182926999405,None,319.5182926999405,None,321.0063990999712,None,321.0063990999712,None,321.0063990999712,None,,,,,,,,,,,126,19,Female,2022-05-10_17h55.30.217,Boat,2022.1.1,59.98832625265731,
neutral,neutral,2,k,k,,,,,,,,,4,6,78,10,,,,,,,,,,,,,,,,,,,,,,,,main,2,2,2,neutral,neutral,k,k,1,0.9603419000050053,321.0230961999623,322.0288458999712,322.01182160002645,None,321.0230961999623,None,321.0230961999623,None,321.0230961999623,None,322.96878429993524,None,322.96878429993524,None,322.96878429993524,None,,,,,,,,,,,126,19,Female,2022-05-10_17h55.30.217,Boat,2022.1.1,59.98832625265731,
negative,neutral,1,j,l,,,,,,,,,4,7,79,3,,,,,,,,,,,,,,,,,,,,,,,,main,2,2,1,neutral,negative,j,j,1,0.8797070999862626,322.98675619997084,323.99917820002884,323.96200669999234,None,322.98675619997084,None,322.98675619997084,None,322.98675619997084,None,324.84969229998535,None,324.84969229998535,None,324.84969229998535,None,,,,,,,,,,,126,19,Female,2022-05-10_17h55.30.217,Boat,2022.1.1,59.98832625265731,
neutral,neutral,1,k,k,,,,,,,,,4,8,80,1,,,,,,,,,,,,,,,,,,,,,,,,main,2,2,1,neutral,neutral,k,j,0,0.5866468000458553,324.86959739995655,325.87894419999793,325.84531100001186,None,324.86959739995655,None,324.86959739995655,None,324.86959739995655,None,326.44635370001197,None,326.44635370001197,None,326.44635370001197,None,,,,,,,,,,,126,19,Female,2022-05-10_17h55.30.217,Boat,2022.1.1,59.98832625265731,
positive,negative,1,l,j,,,,,,,,,4,9,81,5,,,,,,,,,,,,,,,,,,,,,,,,main,2,2,1,negative,positive,l,l,1,1.15116099989973,327.46541489998344,328.4680951000191,328.45023800001945,None,327.46541489998344,None,327.46541489998344,None,327.46541489998344,None,329.60227649998853,None,329.60227649998853,None,329.60227649998853,None,,,,,,,,,,,126,19,Female,2022-05-10_17h55.30.217,Boat,2022.1.1,59.98832625265731,
negative,neutral,2,j,l,,,,,,,,,4,10,82,12,,,,,,,,,,,,,,,,,,,,,,,,main,1,1,2,neutral,negative,j,j,1,0.7529005000833422,329.61951999994926,330.6407032000134,330.5930347000249,None,329.61951999994926,None,329.61951999994926,None,329.61951999994926,None,331.3575618999545,None,331.3575618999545,None,331.3575618999545,None,,,,,,,,,,,126,19,Female,2022-05-10_17h55.30.217,Boat,2022.1.1,59.98832625265731,
positive,neutral,2,l,j,,,,,,,,,4,11,83,17,,,,,,,,,,,,,,,,,,,,,,,,main,1,1,2,neutral,positive,l,l,1,0.7820228999480605,331.3774659000337,332.39582029997837,332.3571372999577,None,331.3774659000337,None,331.3774659000337,None,331.3774659000337,None,333.1430703000166,None,333.1430703000166,None,333.1430703000166,None,,,,,,,,,,,126,19,Female,2022-05-10_17h55.30.217,Boat,2022.1.1,59.98832625265731,
negative,negative,1,j,l,,,,,,,,,4,12,84,0,,,,,,,,,,,,,,,,,,,,,,,,main,1,1,1,negative,negative,j,j,1,1.3166980999521911,333.1609411999816,334.16193359997123,334.1433462999994,None,333.1609411999816,None,333.1609411999816,None,333.1609411999816,None,335.46206670000686,None,335.46206670000686,None,335.46206670000686,None,,,,,,,,,,,126,19,Female,2022-05-10_17h55.30.217,Boat,2022.1.1,59.98832625265731,
negative,positive,1,j,l,,,,,,,,,4,13,85,6,,,,,,,,,,,,,,,,,,,,,,,,main,1,1,1,positive,negative,j,j,1,0.6509332999121398,335.48150350002106,336.4978351999307,336.46207480004523,None,335.48150350002106,None,335.48150350002106,None,335.48150350002106,None,337.11521230000074,None,337.11521230000074,None,337.11521230000074,None,,,,,,,,,,,126,19,Female,2022-05-10_17h55.30.217,Boat,2022.1.1,59.98832625265731,
neutral,negative,2,k,k,,,,,,,,,4,14,86,16,,,,,,,,,,,,,,,,,,,,,,,,main,2,2,2,negative,neutral,k,k,1,0.7668885999592021,337.1339568999829,338.1431384999305,338.1188670999836,None,337.1339568999829,None,337.1339568999829,None,337.1339568999829,None,338.88666839993095,None,338.88666839993095,None,338.88666839993095,None,,,,,,,,,,,126,19,Female,2022-05-10_17h55.30.217,Boat,2022.1.1,59.98832625265731,
positive,neutral,1,l,j,,,,,,,,,4,15,87,8,,,,,,,,,,,,,,,,,,,,,,,,main,1,1,1,neutral,positive,l,l,1,0.8167448999593034,338.9051059000194,339.9126787999412,339.8790026999777,None,338.9051059000194,None,338.9051059000194,None,338.9051059000194,None,340.7054668000434,None,340.7054668000434,None,340.7054668000434,None,,,,,,,,,,,126,19,Female,2022-05-10_17h55.30.217,Boat,2022.1.1,59.98832625265731,
neutral,positive,1,k,k,,,,,,,,,4,16,88,4,,,,,,,,,,,,,,,,,,,,,,,,main,1,1,1,positive,neutral,k,k,1,0.6941145000746474,340.7244625999592,341.7288919000421,341.7122196999844,None,340.7244625999592,None,340.7244625999592,None,340.7244625999592,None,342.4024963999633,None,342.4024963999633,None,342.4024963999633,None,,,,,,,,,,,126,19,Female,2022-05-10_17h55.30.217,Boat,2022.1.1,59.98832625265731,
positive,positive,2,l,j,,,,,,,,,4,17,89,11,,,,,,,,,,,,,,,,,,,,,,,,main,2,2,2,positive,positive,l,l,1,0.7354782000184059,342.42180789995473,343.43395999993663,343.39584230002947,None,342.42180789995473,None,342.42180789995473,None,342.42180789995473,None,344.14028690001,None,344.14028690001,None,344.14028690001,None,,,,,,,,,,,126,19,Female,2022-05-10_17h55.30.217,Boat,2022.1.1,59.98832625265731,
negative,negative,1,j,l,,,,,,,,,5,0,90,0,,,,,,,,,,,,,,,,,,,,,,,,main,1,1,1,negative,negative,j,j,1,0.8591457000002265,344.1611133000115,345.16222589998506,345.1456178999506,None,344.1611133000115,None,344.1611133000115,None,344.1611133000115,None,346.0029149999842,None,346.0029149999842,None,346.0029149999842,None,,,,,,,,,,,126,19,Female,2022-05-10_17h55.30.217,Boat,2022.1.1,59.98832625265731,
positive,negative,2,l,j,,,,,,,,,5,1,91,14,,,,,,,,,,,,,,,,,,,,,,,,main,2,2,2,negative,positive,l,l,1,0.7616030999924988,346.02535629994236,347.03192019998096,346.9960831999779,None,346.02535629994236,None,346.02535629994236,None,346.02535629994236,None,347.76521450004077,None,347.76521450004077,None,347.76521450004077,None,,,,,,,,,,,126,19,Female,2022-05-10_17h55.30.217,Boat,2022.1.1,59.98832625265731,
negative,negative,2,j,l,,,,,,,,,5,2,92,9,,,,,,,,,,,,,,,,,,,,,,,,main,2,2,2,negative,negative,j,l,0,0.8078744999365881,347.7921474999748,348.80982910003513,348.76835799997207,None,347.7921474999748,None,347.7921474999748,None,347.7921474999748,None,349.58288639993407,None,349.58288639993407,None,349.58288639993407,None,,,,,,,,,,,126,19,Female,2022-05-10_17h55.30.217,Boat,2022.1.1,59.98832625265731,
negative,positive,2,j,l,,,,,,,,,5,3,93,15,,,,,,,,,,,,,,,,,,,,,,,,main,1,1,2,positive,negative,j,j,1,0.8663868000730872,350.5994320999598,351.6124507000204,351.57795249996707,None,350.5994320999598,None,350.5994320999598,None,350.5994320999598,None,352.44922069997995,None,352.44922069997995,None,352.44922069997995,None,,,,,,,,,,,126,19,Female,2022-05-10_17h55.30.217,Boat,2022.1.1,59.98832625265731,
positive,neutral,2,l,j,,,,,,,,,5,4,94,17,,,,,,,,,,,,,,,,,,,,,,,,main,1,1,2,neutral,positive,l,l,1,1.3296215999871492,352.4694947999669,353.48281990003306,353.4459693999961,None,352.4694947999669,None,352.4694947999669,None,352.4694947999669,None,354.78297460000033,None,354.78297460000033,None,354.78297460000033,None,,,,,,,,,,,126,19,Female,2022-05-10_17h55.30.217,Boat,2022.1.1,59.98832625265731,
neutral,neutral,1,k,k,,,,,,,,,5,5,95,1,,,,,,,,,,,,,,,,,,,,,,,,main,1,1,1,neutral,neutral,k,k,1,0.7344483999768272,354.7997732999502,355.81227120000403,355.77537990000565,None,354.7997732999502,None,354.7997732999502,None,354.7997732999502,None,356.52152149998585,None,356.52152149998585,None,356.52152149998585,None,,,,,,,,,,,126,19,Female,2022-05-10_17h55.30.217,Boat,2022.1.1,59.98832625265731,
positive,negative,1,l,j,,,,,,,,,5,6,96,5,,,,,,,,,,,,,,,,,,,,,,,,main,2,2,1,negative,positive,l,l,1,1.0962145999073982,356.54194839997217,357.54588779993355,357.5275712000439,None,356.54194839997217,None,356.54194839997217,None,356.54194839997217,None,358.61867090002636,None,358.61867090002636,None,358.61867090002636,None,,,,,,,,,,,126,19,Female,2022-05-10_17h55.30.217,Boat,2022.1.1,59.98832625265731,
neutral,negative,1,k,k,,,,,,,,,5,7,97,7,,,,,,,,,,,,,,,,,,,,,,,,main,1,1,1,negative,neutral,k,k,1,0.7308338000439107,358.6386829999974,359.6464912999654,359.6125752000371,None,358.6386829999974,None,358.6386829999974,None,358.6386829999974,None,360.3521689999849,None,360.3521689999849,None,360.3521689999849,None,,,,,,,,,,,126,19,Female,2022-05-10_17h55.30.217,Boat,2022.1.1,59.98832625265731,
positive,neutral,1,l,j,,,,,,,,,5,8,98,8,,,,,,,,,,,,,,,,,,,,,,,,main,2,2,1,neutral,positive,l,l,1,0.7337201999034733,360.37048219994176,361.386303300038,361.3508903000038,None,360.37048219994176,None,360.37048219994176,None,360.37048219994176,None,362.08946720000824,None,362.08946720000824,None,362.08946720000824,None,,,,,,,,,,,126,19,Female,2022-05-10_17h55.30.217,Boat,2022.1.1,59.98832625265731,
neutral,positive,1,k,k,,,,,,,,,5,9,99,4,,,,,,,,,,,,,,,,,,,,,,,,main,2,2,1,positive,neutral,k,k,1,0.7327793999575078,362.11152719997335,363.1148459999822,363.0793849999318,None,362.11152719997335,None,362.11152719997335,None,362.11152719997335,None,363.825285399938,None,363.825285399938,None,363.825285399938,None,,,,,,,,,,,126,19,Female,2022-05-10_17h55.30.217,Boat,2022.1.1,59.98832625265731,
neutral,positive,2,k,k,,,,,,,,,5,10,100,13,,,,,,,,,,,,,,,,,,,,,,,,main,1,1,2,positive,neutral,k,k,1,0.7515460000140592,363.8441414999543,364.86175849998835,364.84139620000497,None,363.8441414999543,None,363.8441414999543,None,363.8441414999543,None,365.57932069993115,None,365.57932069993115,None,365.57932069993115,None,,,,,,,,,,,126,19,Female,2022-05-10_17h55.30.217,Boat,2022.1.1,59.98832625265731,
negative,neutral,2,j,l,,,,,,,,,5,11,101,12,,,,,,,,,,,,,,,,,,,,,,,,main,2,2,2,neutral,negative,j,j,1,0.6548444000072777,365.5973163000308,366.61395399994217,366.5795580999693,None,365.5973163000308,None,365.5973163000308,None,365.5973163000308,None,367.23747099996547,None,367.23747099996547,None,367.23747099996547,None,,,,,,,,,,,126,19,Female,2022-05-10_17h55.30.217,Boat,2022.1.1,59.98832625265731,
positive,positive,2,l,j,,,,,,,,,5,12,102,11,,,,,,,,,,,,,,,,,,,,,,,,main,1,1,2,positive,positive,l,l,1,0.7980050999904051,367.2604025999317,368.2649018999655,368.2462707000086,None,367.2604025999317,None,367.2604025999317,None,367.2604025999317,None,369.03867529998536,None,369.03867529998536,None,369.03867529998536,None,,,,,,,,,,,126,19,Female,2022-05-10_17h55.30.217,Boat,2022.1.1,59.98832625265731,
neutral,negative,2,k,k,,,,,,,,,5,13,103,16,,,,,,,,,,,,,,,,,,,,,,,,main,1,1,2,negative,neutral,k,k,1,0.7473456000443548,369.0595175999915,370.06379139993805,370.04611009999644,None,369.0595175999915,None,369.0595175999915,None,369.0595175999915,None,370.7892610000214,None,370.7892610000214,None,370.7892610000214,None,,,,,,,,,,,126,19,Female,2022-05-10_17h55.30.217,Boat,2022.1.1,59.98832625265731,
negative,neutral,1,j,l,,,,,,,,,5,14,104,3,,,,,,,,,,,,,,,,,,,,,,,,main,2,2,1,neutral,negative,j,j,1,0.970973499934189,370.8099996999372,371.8137590000406,371.77951230003964,None,370.8099996999372,None,370.8099996999372,None,370.8099996999372,None,372.76221330000556,None,372.76221330000556,None,372.76221330000556,None,,,,,,,,,,,126,19,Female,2022-05-10_17h55.30.217,Boat,2022.1.1,59.98832625265731,
negative,positive,1,j,l,,,,,,,,,5,15,105,6,,,,,,,,,,,,,,,,,,,,,,,,main,1,1,1,positive,negative,j,j,1,0.595977200078778,372.78034349996597,373.7825217000209,373.76474110002164,None,372.78034349996597,None,372.78034349996597,None,372.78034349996597,None,374.36177019998433,None,374.36177019998433,None,374.36177019998433,None,,,,,,,,,,,126,19,Female,2022-05-10_17h55.30.217,Boat,2022.1.1,59.98832625265731,
positive,positive,1,l,j,,,,,,,,,5,16,106,2,,,,,,,,,,,,,,,,,,,,,,,,main,1,1,1,positive,positive,l,l,1,1.0661675999872386,374.3806694999803,375.3991875000065,375.3627289000433,None,374.3806694999803,None,374.3806694999803,None,374.3806694999803,None,376.4304538000375,None,376.4304538000375,None,376.4304538000375,None,,,,,,,,,,,126,19,Female,2022-05-10_17h55.30.217,Boat,2022.1.1,59.98832625265731,
neutral,neutral,2,k,k,,,,,,,,,5,17,107,10,,,,,,,,,,,,,,,,,,,,,,,,main,2,2,2,neutral,neutral,k,k,1,0.7425876000197604,376.4499473000178,377.46674369997345,377.42975080001634,None,376.4499473000178,None,376.4499473000178,None,376.4499473000178,None,378.1774552000221,None,378.1774552000221,None,378.1774552000221,None,,,,,,,,,,,126,19,Female,2022-05-10_17h55.30.217,Boat,2022.1.1,59.98832625265731,
neutral,negative,1,k,k,,,,,,,,,6,0,108,7,,,,,,,,,,,,,,,,,,,,,,,,main,2,2,1,negative,neutral,k,k,1,0.758672000025399,378.1950919999508,379.21301599999424,379.19360430003144,None,378.1950919999508,None,378.1950919999508,None,378.1950919999508,None,379.9393370000413,None,379.9393370000413,None,379.9393370000413,None,,,,,,,,,,,126,19,Female,2022-05-10_17h55.30.217,Boat,2022.1.1,59.98832625265731,
negative,neutral,2,j,l,,,,,,,,,6,1,109,12,,,,,,,,,,,,,,,,,,,,,,,,main,2,2,2,neutral,negative,j,j,1,0.8575987000949681,379.961137300008,380.9629518999718,380.94615400000475,None,379.961137300008,None,379.961137300008,None,379.961137300008,None,381.7984863999533,None,381.7984863999533,None,381.7984863999533,None,,,,,,,,,,,126,19,Female,2022-05-10_17h55.30.217,Boat,2022.1.1,59.98832625265731,
positive,negative,2,l,j,,,,,,,,,6,2,110,14,,,,,,,,,,,,,,,,,,,,,,,,main,2,2,2,negative,positive,l,l,1,0.7529227000195533,381.81849919992965,382.82960059994366,382.79631270002574,None,381.81849919992965,None,381.81849919992965,None,381.81849919992965,None,383.5543657000177,None,383.5543657000177,None,383.5543657000177,None,,,,,,,,,,,126,19,Female,2022-05-10_17h55.30.217,Boat,2022.1.1,59.98832625265731,
negative,negative,2,j,l,,,,,,,,,6,3,111,9,,,,,,,,,,,,,,,,,,,,,,,,main,1,1,2,negative,negative,j,j,1,0.9857312000822276,383.5786769000115,384.5963675000239,384.5584728999529,None,383.5786769000115,None,383.5786769000115,None,383.5786769000115,None,385.5452724999283,None,385.5452724999283,None,385.5452724999283,None,,,,,,,,,,,126,19,Female,2022-05-10_17h55.30.217,Boat,2022.1.1,59.98832625265731,
negative,negative,1,j,l,,,,,,,,,6,4,112,0,,,,,,,,,,,,,,,,,,,,,,,,main,2,2,1,negative,negative,j,j,1,0.6970686999848112,385.56626999995206,386.57936810003594,386.55868669995107,None,385.56626999995206,None,385.56626999995206,None,385.56626999995206,None,387.24648170000876,None,387.24648170000876,None,387.24648170000876,None,,,,,,,,,,,126,19,Female,2022-05-10_17h55.30.217,Boat,2022.1.1,59.98832625265731,
neutral,negative,2,k,k,,,,,,,,,6,5,113,16,,,,,,,,,,,,,,,,,,,,,,,,main,1,1,2,negative,neutral,k,k,1,0.758484199992381,387.26645180000924,388.2825758999679,388.2468418999342,None,387.26645180000924,None,387.26645180000924,None,387.26645180000924,None,389.009519799985,None,389.009519799985,None,389.009519799985,None,,,,,,,,,,,126,19,Female,2022-05-10_17h55.30.217,Boat,2022.1.1,59.98832625265731,
negative,neutral,1,j,l,,,,,,,,,6,6,114,3,,,,,,,,,,,,,,,,,,,,,,,,main,1,1,1,neutral,negative,j,j,1,0.891693799989298,389.0265921000391,390.0306967999786,390.01334940001834,None,389.0265921000391,None,389.0265921000391,None,389.0265921000391,None,390.9024739000248,None,390.9024739000248,None,390.9024739000248,None,,,,,,,,,,,126,19,Female,2022-05-10_17h55.30.217,Boat,2022.1.1,59.98832625265731,
positive,negative,1,l,j,,,,,,,,,6,7,115,5,,,,,,,,,,,,,,,,,,,,,,,,main,2,2,1,negative,positive,l,l,1,1.4087450000224635,390.9209059999557,391.93377809994854,391.8970118999714,None,390.9209059999557,None,390.9209059999557,None,390.9209059999557,None,393.3134345000377,None,393.3134345000377,None,393.3134345000377,None,,,,,,,,,,,126,19,Female,2022-05-10_17h55.30.217,Boat,2022.1.1,59.98832625265731,
negative,positive,1,j,l,,,,,,,,,6,8,116,6,,,,,,,,,,,,,,,,,,,,,,,,main,2,2,1,positive,negative,j,j,1,0.91569699998945,393.33238429995254,394.3477585000219,394.3085038999561,None,393.33238429995254,None,393.33238429995254,None,393.33238429995254,None,395.2323030999629,None,395.2323030999629,None,395.2323030999629,None,,,,,,,,,,,126,19,Female,2022-05-10_17h55.30.217,Boat,2022.1.1,59.98832625265731,
negative,positive,2,j,l,,,,,,,,,6,9,117,15,,,,,,,,,,,,,,,,,,,,,,,,main,1,1,2,positive,negative,j,j,1,0.7654640000546351,395.24979439994786,396.2634867000161,396.2285497999983,None,395.24979439994786,None,395.24979439994786,None,395.24979439994786,None,396.99981279999486,None,396.99981279999486,None,396.99981279999486,None,,,,,,,,,,,126,19,Female,2022-05-10_17h55.30.217,Boat,2022.1.1,59.98832625265731,
neutral,neutral,2,k,k,,,,,,,,,6,10,118,10,,,,,,,,,,,,,,,,,,,,,,,,main,1,1,2,neutral,neutral,k,k,1,0.7669033999554813,397.0182065999834,398.03608909994364,397.9990569000365,None,397.0182065999834,None,397.0182065999834,None,397.0182065999834,None,398.76928609996105,None,398.76928609996105,None,398.76928609996105,None,,,,,,,,,,,126,19,Female,2022-05-10_17h55.30.217,Boat,2022.1.1,59.98832625265731,
neutral,positive,1,k,k,,,,,,,,,6,11,119,4,,,,,,,,,,,,,,,,,,,,,,,,main,2,2,1,positive,neutral,k,k,1,0.9970694999210536,398.79160260001663,399.79809029994067,399.7802633999381,None,398.79160260001663,None,398.79160260001663,None,398.79160260001663,None,400.7693551000208,None,400.7693551000208,None,400.7693551000208,None,,,,,,,,,,,126,19,Female,2022-05-10_17h55.30.217,Boat,2022.1.1,59.98832625265731,
positive,neutral,1,l,j,,,,,,,,,6,12,120,8,,,,,,,,,,,,,,,,,,,,,,,,main,2,2,1,neutral,positive,l,l,1,0.9971011000452563,400.78836999996565,401.7977347000269,401.76352919999044,None,400.78836999996565,None,400.78836999996565,None,400.78836999996565,None,402.7710236000363,None,402.7710236000363,None,402.7710236000363,None,,,,,,,,,,,126,19,Female,2022-05-10_17h55.30.217,Boat,2022.1.1,59.98832625265731,
positive,neutral,2,l,j,,,,,,,,,6,13,121,17,,,,,,,,,,,,,,,,,,,,,,,,main,2,2,2,neutral,positive,l,l,1,0.7827726999530569,402.78807949996553,403.8101008000085,403.7691565999994,None,402.78807949996553,None,402.78807949996553,None,402.78807949996553,None,404.55619419997095,None,404.55619419997095,None,404.55619419997095,None,,,,,,,,,,,126,19,Female,2022-05-10_17h55.30.217,Boat,2022.1.1,59.98832625265731,
neutral,positive,2,k,k,,,,,,,,,6,14,122,13,,,,,,,,,,,,,,,,,,,,,,,,main,2,2,2,positive,neutral,k,k,1,0.698159100022167,404.57466469996143,405.58119930000976,405.56357639993075,None,404.57466469996143,None,404.57466469996143,None,404.57466469996143,None,406.25673709998375,None,406.25673709998375,None,406.25673709998375,None,,,,,,,,,,,126,19,Female,2022-05-10_17h55.30.217,Boat,2022.1.1,59.98832625265731,
positive,positive,1,l,j,,,,,,,,,6,15,123,2,,,,,,,,,,,,,,,,,,,,,,,,main,2,2,1,positive,positive,l,l,1,0.9321135999634862,406.2756058999803,407.28322730003856,407.24672409996856,None,406.2756058999803,None,406.2756058999803,None,406.2756058999803,None,408.1909611999523,None,408.1909611999523,None,408.1909611999523,None,,,,,,,,,,,126,19,Female,2022-05-10_17h55.30.217,Boat,2022.1.1,59.98832625265731,
positive,positive,2,l,j,,,,,,,,,6,16,124,11,,,,,,,,,,,,,,,,,,,,,,,,main,2,2,2,positive,positive,l,l,1,0.8035991000942886,408.21112859994173,409.2143272999674,409.1972853000043,None,408.21112859994173,None,408.21112859994173,None,408.21112859994173,None,409.99729049999735,None,409.99729049999735,None,409.99729049999735,None,,,,,,,,,,,126,19,Female,2022-05-10_17h55.30.217,Boat,2022.1.1,59.98832625265731,
neutral,neutral,1,k,k,,,,,,,,,6,17,125,1,,,,,,,,,,,,,,,,,,,,,,,,main,1,1,1,neutral,neutral,k,k,1,0.8425406999886036,410.0153636999894,411.0294095999561,411.01023090002127,None,410.0153636999894,None,410.0153636999894,None,410.0153636999894,None,411.8425342999632,None,411.8425342999632,None,411.8425342999632,None,,,,,,,,,,,126,19,Female,2022-05-10_17h55.30.217,Boat,2022.1.1,59.98832625265731,
positive,positive,2,l,j,,,,,,,,,7,0,126,11,,,,,,,,,,,,,,,,,,,,,,,,main,2,2,2,positive,positive,l,l,1,1.4033188000321388,411.86210749996826,412.8645564999897,412.8475743000163,None,411.86210749996826,None,411.86210749996826,None,411.86210749996826,None,414.24816680003426,None,414.24816680003426,None,414.24816680003426,None,,,,,,,,,,,126,19,Female,2022-05-10_17h55.30.217,Boat,2022.1.1,59.98832625265731,
positive,neutral,2,l,j,,,,,,,,,7,1,127,17,,,,,,,,,,,,,,,,,,,,,,,,main,2,2,2,neutral,positive,l,l,1,0.6554162999382243,414.26827649993356,415.2866628000047,415.25005599996075,None,414.26827649993356,None,414.26827649993356,None,414.26827649993356,None,415.90736840004104,None,415.90736840004104,None,415.90736840004104,None,,,,,,,,,,,126,19,Female,2022-05-10_17h55.30.217,Boat,2022.1.1,59.98832625265731,
negative,neutral,1,j,l,,,,,,,,,7,2,128,3,,,,,,,,,,,,,,,,,,,,,,,,main,2,2,1,neutral,negative,j,j,1,0.8094566999934614,415.9273404999403,416.93086480000056,416.91385929996613,None,415.9273404999403,None,415.9273404999403,None,415.9273404999403,None,417.7189444999909,None,417.7189444999909,None,417.7189444999909,None,,,,,,,,,,,126,19,Female,2022-05-10_17h55.30.217,Boat,2022.1.1,59.98832625265731,
neutral,positive,2,k,k,,,,,,,,,7,3,129,13,,,,,,,,,,,,,,,,,,,,,,,,main,1,1,2,positive,neutral,k,k,1,0.7145909999962896,417.7372579999501,418.7463987999363,418.72448330000043,None,417.7372579999501,None,417.7372579999501,None,417.7372579999501,None,419.43845169993585,None,419.43845169993585,None,419.43845169993585,None,,,,,,,,,,,126,19,Female,2022-05-10_17h55.30.217,Boat,2022.1.1,59.98832625265731,
neutral,neutral,2,k,k,,,,,,,,,7,4,130,10,,,,,,,,,,,,,,,,,,,,,,,,main,1,1,2,neutral,neutral,k,k,1,0.6137066000374034,419.4544756000396,420.4640864999965,420.4454738999484,None,419.4544756000396,None,419.4544756000396,None,419.4544756000396,None,421.0540859999834,None,421.0540859999834,None,421.0540859999834,None,,,,,,,,,,,126,19,Female,2022-05-10_17h55.30.217,Boat,2022.1.1,59.98832625265731,
negative,positive,2,j,l,,,,,,,,,7,5,131,15,,,,,,,,,,,,,,,,,,,,,,,,main,2,2,2,positive,negative,j,j,1,0.7706648999592289,421.07215170003474,422.08678539993707,422.05030350002926,None,421.07215170003474,None,421.07215170003474,None,421.07215170003474,None,422.82654639999384,None,422.82654639999384,None,422.82654639999384,None,,,,,,,,,,,126,19,Female,2022-05-10_17h55.30.217,Boat,2022.1.1,59.98832625265731,
negative,negative,1,j,l,,,,,,,,,7,6,132,0,,,,,,,,,,,,,,,,,,,,,,,,main,1,1,1,negative,negative,j,j,1,1.052985699963756,422.8470728000393,423.86188760004006,423.8422135999426,None,422.8470728000393,None,422.8470728000393,None,422.8470728000393,None,424.88124159993606,None,424.88124159993606,None,424.88124159993606,None,,,,,,,,,,,126,19,Female,2022-05-10_17h55.30.217,Boat,2022.1.1,59.98832625265731,
positive,negative,2,l,j,,,,,,,,,7,7,133,14,,,,,,,,,,,,,,,,,,,,,,,,main,2,2,2,negative,positive,l,l,1,0.7366958999773487,424.8997020999668,425.91516299999785,425.8762157999445,None,424.8997020999668,None,424.8997020999668,None,424.8997020999668,None,426.62295619994404,None,426.62295619994404,None,426.62295619994404,None,,,,,,,,,,,126,19,Female,2022-05-10_17h55.30.217,Boat,2022.1.1,59.98832625265731,
neutral,positive,1,k,k,,,,,,,,,7,8,134,4,,,,,,,,,,,,,,,,,,,,,,,,main,1,1,1,positive,neutral,k,k,1,0.7124248999170959,426.6413387999637,427.64757419994567,427.61409970000386,None,426.6413387999637,None,426.6413387999637,None,426.6413387999637,None,428.3378227999434,None,428.3378227999434,None,428.3378227999434,None,,,,,,,,,,,126,19,Female,2022-05-10_17h55.30.217,Boat,2022.1.1,59.98832625265731,
negative,negative,2,j,l,,,,,,,,,7,9,135,9,,,,,,,,,,,,,,,,,,,,,,,,main,2,2,2,negative,negative,j,j,1,0.6892642000457272,428.3576346000191,429.3723617999349,429.33102309994865,None,428.3576346000191,None,428.3576346000191,None,428.3576346000191,None,430.02904089996593,None,430.02904089996593,None,430.02904089996593,None,,,,,,,,,,,126,19,Female,2022-05-10_17h55.30.217,Boat,2022.1.1,59.98832625265731,
neutral,neutral,1,k,k,,,,,,,,,7,10,136,1,,,,,,,,,,,,,,,,,,,,,,,,main,2,2,1,neutral,neutral,k,k,1,0.863208300084807,430.05026469996665,431.0655800999375,431.0313691999763,None,430.05026469996665,None,430.05026469996665,None,430.05026469996665,None,431.8953136999859,None,431.8953136999859,None,431.8953136999859,None,,,,,,,,,,,126,19,Female,2022-05-10_17h55.30.217,Boat,2022.1.1,59.98832625265731,
positive,positive,1,l,j,,,,,,,,,7,11,137,2,,,,,,,,,,,,,,,,,,,,,,,,main,1,1,1,positive,positive,l,l,1,0.8428662000223994,431.91480909998063,432.91597019997425,432.8982327999547,None,431.91480909998063,None,431.91480909998063,None,431.91480909998063,None,433.7420649000211,None,433.7420649000211,None,433.7420649000211,None,,,,,,,,,,,126,19,Female,2022-05-10_17h55.30.217,Boat,2022.1.1,59.98832625265731,
neutral,negative,2,k,k,,,,,,,,,7,12,138,16,,,,,,,,,,,,,,,,,,,,,,,,main,2,2,2,negative,neutral,k,k,1,0.6832639999920502,433.76287019997835,434.7687664999394,434.75081410002895,None,433.76287019997835,None,433.76287019997835,None,433.76287019997835,None,435.42925249997063,None,435.42925249997063,None,435.42925249997063,None,,,,,,,,,,,126,19,Female,2022-05-10_17h55.30.217,Boat,2022.1.1,59.98832625265731,
negative,positive,1,j,l,,,,,,,,,7,13,139,6,,,,,,,,,,,,,,,,,,,,,,,,main,1,1,1,positive,negative,j,j,1,0.8190167000284418,435.44757439999375,436.4643308999948,436.4220379999606,None,435.44757439999375,None,435.44757439999375,None,435.44757439999375,None,437.2506954999641,None,437.2506954999641,None,437.2506954999641,None,,,,,,,,,,,126,19,Female,2022-05-10_17h55.30.217,Boat,2022.1.1,59.98832625265731,
neutral,negative,1,k,k,,,,,,,,,7,14,140,7,,,,,,,,,,,,,,,,,,,,,,,,main,1,1,1,negative,neutral,k,k,1,0.7183856000192463,437.27027730003465,438.27979009994306,438.25902450003196,None,437.27027730003465,None,437.27027730003465,None,437.27027730003465,None,438.972689699987,None,438.972689699987,None,438.972689699987,None,,,,,,,,,,,126,19,Female,2022-05-10_17h55.30.217,Boat,2022.1.1,59.98832625265731,
positive,neutral,1,l,j,,,,,,,,,7,15,141,8,,,,,,,,,,,,,,,,,,,,,,,,main,2,2,1,neutral,positive,l,l,1,0.912447499926202,438.9944034999935,439.9977738999296,439.9796008999692,None,438.9944034999935,None,438.9944034999935,None,438.9944034999935,None,440.88834289999215,None,440.88834289999215,None,440.88834289999215,None,,,,,,,,,,,126,19,Female,2022-05-10_17h55.30.217,Boat,2022.1.1,59.98832625265731,
negative,neutral,2,j,l,,,,,,,,,7,16,142,12,,,,,,,,,,,,,,,,,,,,,,,,main,1,1,2,neutral,negative,j,j,1,0.8320067999884486,440.90634740004316,441.9203964000335,441.8835944000166,None,440.90634740004316,None,440.90634740004316,None,440.90634740004316,None,442.7238357999828,None,442.7238357999828,None,442.7238357999828,None,,,,,,,,,,,126,19,Female,2022-05-10_17h55.30.217,Boat,2022.1.1,59.98832625265731,
positive,negative,1,l,j,,,,,,,,,7,17,143,5,,,,,,,,,,,,,,,,,,,,,,,,main,2,2,1,negative,positive,l,l,1,1.4668455000501126,442.74493139993865,443.7629259999376,443.72115629992913,None,442.74493139993865,None,442.74493139993865,None,442.74493139993865,None,445.19272429998966,None,445.19272429998966,None,445.19272429998966,None,,,,,,,,,,,126,19,Female,2022-05-10_17h55.30.217,Boat,2022.1.1,59.98832625265731,
negative,negative,1,j,l,,,,,,,,,8,0,144,0,,,,,,,,,,,,,,,,,,,,,,,,main,1,1,1,negative,negative,j,j,1,0.9302338999696076,445.20985410001595,446.21590980002657,446.18114599992987,None,445.20985410001595,None,445.20985410001595,None,445.20985410001595,None,447.1252198999515,None,447.1252198999515,None,447.1252198999515,None,,,,,,,,,,,126,19,Female,2022-05-10_17h55.30.217,Boat,2022.1.1,59.98832625265731,
neutral,positive,2,k,k,,,,,,,,,8,1,145,13,,,,,,,,,,,,,,,,,,,,,,,,main,1,1,2,positive,neutral,k,k,1,0.7268474999582395,447.1467261000071,448.1481796000153,448.1311850999482,None,447.1467261000071,None,447.1467261000071,None,447.1467261000071,None,448.8528623000253,None,448.8528623000253,None,448.8528623000253,None,,,,,,,,,,,126,19,Female,2022-05-10_17h55.30.217,Boat,2022.1.1,59.98832625265731,
neutral,positive,1,k,k,,,,,,,,,8,2,146,4,,,,,,,,,,,,,,,,,,,,,,,,main,2,2,1,positive,neutral,k,k,1,0.9814409000100568,448.8771306000417,449.8838104000315,449.8480668000411,None,448.8771306000417,None,448.8771306000417,None,448.8771306000417,None,450.83803360003515,None,450.83803360003515,None,450.83803360003515,None,,,,,,,,,,,126,19,Female,2022-05-10_17h55.30.217,Boat,2022.1.1,59.98832625265731,
negative,negative,2,j,l,,,,,,,,,8,3,147,9,,,,,,,,,,,,,,,,,,,,,,,,main,2,2,2,negative,negative,j,j,1,0.7163663000101224,450.8599221999757,451.86484489997383,451.84567609999795,None,450.8599221999757,None,450.8599221999757,None,450.8599221999757,None,452.5569611999905,None,452.5569611999905,None,452.5569611999905,None,,,,,,,,,,,126,19,Female,2022-05-10_17h55.30.217,Boat,2022.1.1,59.98832625265731,
negative,neutral,2,j,l,,,,,,,,,8,4,148,12,,,,,,,,,,,,,,,,,,,,,,,,main,2,2,2,neutral,negative,j,j,1,0.5443187000928447,452.5802844000282,453.581846499932,453.56481130002066,None,452.5802844000282,None,452.5802844000282,None,452.5802844000282,None,454.1037440999877,None,454.1037440999877,None,454.1037440999877,None,,,,,,,,,,,126,19,Female,2022-05-10_17h55.30.217,Boat,2022.1.1,59.98832625265731,
neutral,neutral,1,k,k,,,,,,,,,8,5,149,1,,,,,,,,,,,,,,,,,,,,,,,,main,1,1,1,neutral,neutral,k,k,1,0.6269847999792546,454.1228359999368,455.13411009998526,455.098020000034,None,454.1228359999368,None,454.1228359999368,None,454.1228359999368,None,455.73409339997454,None,455.73409339997454,None,455.73409339997454,None,,,,,,,,,,,126,19,Female,2022-05-10_17h55.30.217,Boat,2022.1.1,59.98832625265731,
positive,negative,2,l,j,,,,,,,,,8,6,150,14,,,,,,,,,,,,,,,,,,,,,,,,main,2,2,2,negative,positive,l,l,1,0.7123149998951703,455.75179160002153,456.7663132000016,456.7317115999758,None,455.75179160002153,None,455.75179160002153,None,455.75179160002153,None,457.44927220002285,None,457.44927220002285,None,457.44927220002285,None,,,,,,,,,,,126,19,Female,2022-05-10_17h55.30.217,Boat,2022.1.1,59.98832625265731,
neutral,negative,1,k,k,,,,,,,,,8,7,151,7,,,,,,,,,,,,,,,,,,,,,,,,main,1,1,1,negative,neutral,k,k,1,0.691361700068228,457.4666524999775,458.49267529998906,458.44617869996,None,457.4666524999775,None,457.4666524999775,None,457.4666524999775,None,459.14050300002566,None,459.14050300002566,None,459.14050300002566,None,,,,,,,,,,,126,19,Female,2022-05-10_17h55.30.217,Boat,2022.1.1,59.98832625265731,
positive,negative,1,l,j,,,,,,,,,8,8,152,5,,,,,,,,,,,,,,,,,,,,,,,,main,2,2,1,negative,positive,l,l,1,0.8315398999257013,459.16592639999,460.1794041999383,460.159775899956,None,459.16592639999,None,459.16592639999,None,459.16592639999,None,460.9792562999297,None,460.9792562999297,None,460.9792562999297,None,,,,,,,,,,,126,19,Female,2022-05-10_17h55.30.217,Boat,2022.1.1,59.98832625265731,
positive,neutral,2,l,j,,,,,,,,,8,9,153,17,,,,,,,,,,,,,,,,,,,,,,,,main,2,2,2,neutral,positive,l,l,1,0.8282132999738678,460.9975174999563,461.99949249997735,461.98156460002065,None,460.9975174999563,None,460.9975174999563,None,460.9975174999563,None,462.81089759992904,None,462.81089759992904,None,462.81089759992904,None,,,,,,,,,,,126,19,Female,2022-05-10_17h55.30.217,Boat,2022.1.1,59.98832625265731,
neutral,negative,2,k,k,,,,,,,,,8,10,154,16,,,,,,,,,,,,,,,,,,,,,,,,main,2,2,2,negative,neutral,k,k,1,0.6652803999604657,462.8281381999841,463.8448237000266,463.803867300041,None,462.8281381999841,None,462.8281381999841,None,462.8281381999841,None,464.4790283999406,None,464.4790283999406,None,464.4790283999406,None,,,,,,,,,,,126,19,Female,2022-05-10_17h55.30.217,Boat,2022.1.1,59.98832625265731,
positive,positive,1,l,j,,,,,,,,,8,11,155,2,,,,,,,,,,,,,,,,,,,,,,,,main,2,2,1,positive,positive,l,l,1,0.7772396999644116,464.49693499994464,465.5012958999723,465.4823545999825,None,464.49693499994464,None,464.49693499994464,None,464.49693499994464,None,466.2592250999529,None,466.2592250999529,None,466.2592250999529,None,,,,,,,,,,,126,19,Female,2022-05-10_17h55.30.217,Boat,2022.1.1,59.98832625265731,
positive,positive,2,l,j,,,,,,,,,8,12,156,11,,,,,,,,,,,,,,,,,,,,,,,,main,1,1,2,positive,positive,l,l,1,0.8219728999538347,466.2799304999644,467.28167830000166,467.26400319999084,None,466.2799304999644,None,466.2799304999644,None,466.2799304999644,None,468.0799248999916,None,468.0799248999916,None,468.0799248999916,None,,,,,,,,,,,126,19,Female,2022-05-10_17h55.30.217,Boat,2022.1.1,59.98832625265731,
negative,neutral,1,j,l,,,,,,,,,8,13,157,3,,,,,,,,,,,,,,,,,,,,,,,,main,2,2,1,neutral,negative,j,j,1,0.8743923000292853,468.1115501000313,469.1161574999569,469.0986922000302,None,468.1115501000313,None,468.1115501000313,None,468.1115501000313,None,469.96386020004286,None,469.96386020004286,None,469.96386020004286,None,,,,,,,,,,,126,19,Female,2022-05-10_17h55.30.217,Boat,2022.1.1,59.98832625265731,
positive,neutral,1,l,j,,,,,,,,,8,14,158,8,,,,,,,,,,,,,,,,,,,,,,,,main,2,2,1,neutral,positive,l,l,1,0.8047099000541493,469.98105179995764,470.9995920000365,470.96196190000046,None,469.98105179995764,None,469.98105179995764,None,469.98105179995764,None,471.77174579994755,None,471.77174579994755,None,471.77174579994755,None,,,,,,,,,,,126,19,Female,2022-05-10_17h55.30.217,Boat,2022.1.1,59.98832625265731,
negative,positive,1,j,l,,,,,,,,,8,15,159,6,,,,,,,,,,,,,,,,,,,,,,,,main,2,2,1,positive,negative,j,j,1,0.8756155000301078,471.7934009999735,472.80007009999827,472.7652320000343,None,471.7934009999735,None,471.7934009999735,None,471.7934009999735,None,473.6488082999364,None,473.6488082999364,None,473.6488082999364,None,,,,,,,,,,,126,19,Female,2022-05-10_17h55.30.217,Boat,2022.1.1,59.98832625265731,
neutral,neutral,2,k,k,,,,,,,,,8,16,160,10,,,,,,,,,,,,,,,,,,,,,,,,main,1,1,2,neutral,neutral,k,k,1,0.695364199928008,473.6679502000334,474.6827414999716,474.6486736999359,None,473.6679502000334,None,473.6679502000334,None,473.6679502000334,None,475.34860099994114,None,475.34860099994114,None,475.34860099994114,None,,,,,,,,,,,126,19,Female,2022-05-10_17h55.30.217,Boat,2022.1.1,59.98832625265731,
negative,positive,2,j,l,,,,,,,,,8,17,161,15,,,,,,,,,,,,,,,,,,,,,,,,main,2,2,2,positive,negative,j,j,1,1.4312626000028104,475.36575220001396,476.3816422999371,476.3617043000413,None,475.36575220001396,None,475.36575220001396,None,475.36575220001396,None,477.7820709999884,None,477.7820709999884,None,477.7820709999884,None,,,,,,,,,,,126,19,Female,2022-05-10_17h55.30.217,Boat,2022.1.1,59.98832625265731,
negative,neutral,2,j,l,,,,,,,,,9,0,162,12,,,,,,,,,,,,,,,,,,,,,,,,main,1,1,2,neutral,negative,j,j,1,0.6451490999897942,477.8029218999436,478.81565090001095,478.7800561999902,None,477.8029218999436,None,477.8029218999436,None,477.8029218999436,None,479.4320870000171,None,479.4320870000171,None,479.4320870000171,None,,,,,,,,,,,126,19,Female,2022-05-10_17h55.30.217,Boat,2022.1.1,59.98832625265731,
neutral,neutral,1,k,k,,,,,,,,,9,1,163,1,,,,,,,,,,,,,,,,,,,,,,,,main,1,1,1,neutral,neutral,k,k,1,0.7323283000150695,479.4507139000343,480.47342189995106,480.4320195999462,None,479.4507139000343,None,479.4507139000343,None,479.4507139000343,None,481.1654376000166,None,481.1654376000166,None,481.1654376000166,None,,,,,,,,,,,126,19,Female,2022-05-10_17h55.30.217,Boat,2022.1.1,59.98832625265731,
neutral,negative,1,k,k,,,,,,,,,9,2,164,7,,,,,,,,,,,,,,,,,,,,,,,,main,2,2,1,negative,neutral,k,k,1,0.7949174999957904,481.1852479999652,482.19887239998206,482.1635219999589,None,481.1852479999652,None,481.1852479999652,None,481.1852479999652,None,482.96546350002757,None,482.96546350002757,None,482.96546350002757,None,,,,,,,,,,,126,19,Female,2022-05-10_17h55.30.217,Boat,2022.1.1,59.98832625265731,
positive,neutral,1,l,j,,,,,,,,,9,3,165,8,,,,,,,,,,,,,,,,,,,,,,,,main,2,2,1,neutral,positive,l,l,1,0.8855456999735907,482.9834350999445,483.99009169999044,483.9714688999811,None,482.9834350999445,None,482.9834350999445,None,482.9834350999445,None,484.8530410999898,None,484.8530410999898,None,484.8530410999898,None,,,,,,,,,,,126,19,Female,2022-05-10_17h55.30.217,Boat,2022.1.1,59.98832625265731,
neutral,neutral,2,k,k,,,,,,,,,9,4,166,10,,,,,,,,,,,,,,,,,,,,,,,,main,2,2,2,neutral,neutral,k,k,1,0.7248583999462426,484.87584919994697,485.89043140003923,485.8485950999893,None,484.87584919994697,None,484.87584919994697,None,484.87584919994697,None,486.5817048000405,None,486.5817048000405,None,486.5817048000405,None,,,,,,,,,,,126,19,Female,2022-05-10_17h55.30.217,Boat,2022.1.1,59.98832625265731,
positive,positive,1,l,j,,,,,,,,,9,5,167,2,,,,,,,,,,,,,,,,,,,,,,,,main,1,1,1,positive,positive,l,l,1,1.2704966000746936,486.60084650001954,487.6135661000153,487.59368229995016,None,486.60084650001954,None,486.60084650001954,None,486.60084650001954,None,488.8542188999942,None,488.8542188999942,None,488.8542188999942,None,,,,,,,,,,,126,19,Female,2022-05-10_17h55.30.217,Boat,2022.1.1,59.98832625265731,
neutral,positive,1,k,k,,,,,,,,,9,6,168,4,,,,,,,,,,,,,,,,,,,,,,,,main,1,1,1,positive,neutral,k,k,1,0.776588200009428,488.8723250000039,489.8822256999556,489.8476956000086,None,488.8723250000039,None,488.8723250000039,None,488.8723250000039,None,490.62921760000756,None,490.62921760000756,None,490.62921760000756,None,,,,,,,,,,,126,19,Female,2022-05-10_17h55.30.217,Boat,2022.1.1,59.98832625265731,
negative,negative,1,j,l,,,,,,,,,9,7,169,0,,,,,,,,,,,,,,,,,,,,,,,,main,1,1,1,negative,negative,j,j,1,0.8054391000187024,490.6528927999316,491.66588710004,491.6489593000151,None,490.6528927999316,None,490.6528927999316,None,490.6528927999316,None,492.44250030003025,None,492.44250030003025,None,492.44250030003025,None,,,,,,,,,,,126,19,Female,2022-05-10_17h55.30.217,Boat,2022.1.1,59.98832625265731,
negative,positive,2,j,l,,,,,,,,,9,8,170,15,,,,,,,,,,,,,,,,,,,,,,,,main,1,1,2,positive,negative,j,j,1,0.7359817000105977,492.46468159998767,493.4828717999626,493.4446506999666,None,492.46468159998767,None,492.46468159998767,None,492.46468159998767,None,494.1815122999484,None,494.1815122999484,None,494.1815122999484,None,,,,,,,,,,,126,19,Female,2022-05-10_17h55.30.217,Boat,2022.1.1,59.98832625265731,
neutral,negative,2,k,k,,,,,,,,,9,9,171,16,,,,,,,,,,,,,,,,,,,,,,,,main,2,2,2,negative,neutral,k,k,1,0.6412455999525264,494.2003748000134,495.2182526999386,495.1826143999351,None,494.2003748000134,None,494.2003748000134,None,494.2003748000134,None,495.8272516000085,None,495.8272516000085,None,495.8272516000085,None,,,,,,,,,,,126,19,Female,2022-05-10_17h55.30.217,Boat,2022.1.1,59.98832625265731,
negative,negative,2,j,l,,,,,,,,,9,10,172,9,,,,,,,,,,,,,,,,,,,,,,,,main,2,2,2,negative,negative,j,j,1,0.6394463999895379,495.8453883000184,496.8551387999905,496.81847129995003,None,495.8453883000184,None,495.8453883000184,None,495.8453883000184,None,497.4671622000402,None,497.4671622000402,None,497.4671622000402,None,,,,,,,,,,,126,19,Female,2022-05-10_17h55.30.217,Boat,2022.1.1,59.98832625265731,
negative,positive,1,j,l,,,,,,,,,9,11,173,6,,,,,,,,,,,,,,,,,,,,,,,,main,2,2,1,positive,negative,j,j,1,0.6563097999896854,497.488785799942,498.5050670999335,498.46573880000506,None,497.488785799942,None,497.488785799942,None,497.488785799942,None,499.1272242999636,None,499.1272242999636,None,499.1272242999636,None,,,,,,,,,,,126,19,Female,2022-05-10_17h55.30.217,Boat,2022.1.1,59.98832625265731,
positive,negative,1,l,j,,,,,,,,,9,12,174,5,,,,,,,,,,,,,,,,,,,,,,,,main,2,2,1,negative,positive,l,l,1,0.7002082000253722,499.1484259000281,500.15103339997586,500.13345530000515,None,499.1484259000281,None,499.1484259000281,None,499.1484259000281,None,500.8313056000276,None,500.8313056000276,None,500.8313056000276,None,,,,,,,,,,,126,19,Female,2022-05-10_17h55.30.217,Boat,2022.1.1,59.98832625265731,
positive,neutral,2,l,j,,,,,,,,,9,13,175,17,,,,,,,,,,,,,,,,,,,,,,,,main,1,1,2,neutral,positive,l,l,1,0.6589129000203684,500.84961289993953,501.85050569998566,501.83267579996027,None,500.84961289993953,None,500.84961289993953,None,500.84961289993953,None,502.4936648999807,None,502.4936648999807,None,502.4936648999807,None,,,,,,,,,,,126,19,Female,2022-05-10_17h55.30.217,Boat,2022.1.1,59.98832625265731,
positive,negative,2,l,j,,,,,,,,,9,14,176,14,,,,,,,,,,,,,,,,,,,,,,,,main,1,1,2,negative,positive,l,l,1,0.6914770000148565,502.51485719997436,503.5191587000154,503.49883219995536,None,502.51485719997436,None,502.51485719997436,None,502.51485719997436,None,504.1863804999972,None,504.1863804999972,None,504.1863804999972,None,,,,,,,,,,,126,19,Female,2022-05-10_17h55.30.217,Boat,2022.1.1,59.98832625265731,
negative,neutral,1,j,l,,,,,,,,,9,15,177,3,,,,,,,,,,,,,,,,,,,,,,,,main,2,2,1,neutral,negative,j,j,1,0.8645926000317559,504.20492719998583,505.21547459997237,505.195349699934,None,504.20492719998583,None,504.20492719998583,None,504.20492719998583,None,506.05426799997224,None,506.05426799997224,None,506.05426799997224,None,,,,,,,,,,,126,19,Female,2022-05-10_17h55.30.217,Boat,2022.1.1,59.98832625265731,
neutral,positive,2,k,k,,,,,,,,,9,16,178,13,,,,,,,,,,,,,,,,,,,,,,,,main,2,2,2,positive,neutral,k,k,1,0.7298513000132516,506.07346730004065,507.0775722999824,507.0557727999985,None,506.07346730004065,None,506.07346730004065,None,506.07346730004065,None,507.7888714999659,None,507.7888714999659,None,507.7888714999659,None,,,,,,,,,,,126,19,Female,2022-05-10_17h55.30.217,Boat,2022.1.1,59.98832625265731,
positive,positive,2,l,j,,,,,,,,,9,17,179,11,,,,,,,,,,,,,,,,,,,,,,,,main,1,1,2,positive,positive,l,l,1,0.8958381999982521,507.81233999994583,508.81599909998477,508.79895219998434,None,507.81233999994583,None,507.81233999994583,None,507.81233999994583,None,509.6873029000359,None,509.6873029000359,None,509.6873029000359,None,,,,,,,,,,,126,19,Female,2022-05-10_17h55.30.217,Boat,2022.1.1,59.98832625265731,
positive,neutral,2,l,j,,,,,,,,,10,0,180,17,,,,,,,,,,,,,,,,,,,,,,,,main,1,1,2,neutral,positive,l,l,1,0.8494529000017792,509.7055962999584,510.7185995000182,510.6826146999374,None,509.7055962999584,None,509.7055962999584,None,509.7055962999584,None,511.5411024999572,None,511.5411024999572,None,511.5411024999572,None,,,,,,,,,,,126,19,Female,2022-05-10_17h55.30.217,Boat,2022.1.1,59.98832625265731,
negative,neutral,1,j,l,,,,,,,,,10,1,181,3,,,,,,,,,,,,,,,,,,,,,,,,main,1,1,1,neutral,negative,j,j,1,0.8220674000913277,511.5615970999934,512.5661587000359,512.5492724999785,None,511.5615970999934,None,511.5615970999934,None,511.5615970999934,None,513.3664029999869,None,513.3664029999869,None,513.3664029999869,None,,,,,,,,,,,126,19,Female,2022-05-10_17h55.30.217,Boat,2022.1.1,59.98832625265731,
positive,neutral,1,l,j,,,,,,,,,10,2,182,8,,,,,,,,,,,,,,,,,,,,,,,,main,2,2,1,neutral,positive,l,l,1,0.9439652001019567,513.384658099967,514.4041937999427,514.3668456999585,None,513.384658099967,None,513.384658099967,None,513.384658099967,None,515.3140239999863,None,515.3140239999863,None,515.3140239999863,None,,,,,,,,,,,126,19,Female,2022-05-10_17h55.30.217,Boat,2022.1.1,59.98832625265731,
neutral,positive,1,k,k,,,,,,,,,10,3,183,4,,,,,,,,,,,,,,,,,,,,,,,,main,1,1,1,positive,neutral,k,k,1,0.7156420999672264,515.332629499957,516.3398453999544,516.3035893000197,None,515.332629499957,None,515.332629499957,None,515.332629499957,None,517.0329252999742,None,517.0329252999742,None,517.0329252999742,None,,,,,,,,,,,126,19,Female,2022-05-10_17h55.30.217,Boat,2022.1.1,59.98832625265731,
positive,positive,2,l,j,,,,,,,,,10,4,184,11,,,,,,,,,,,,,,,,,,,,,,,,main,2,2,2,positive,positive,l,l,1,0.7673720000311732,517.0509802999441,518.0678857000312,518.033021899988,None,517.0509802999441,None,517.0509802999441,None,517.0509802999441,None,518.8026399000315,None,518.8026399000315,None,518.8026399000315,None,,,,,,,,,,,126,19,Female,2022-05-10_17h55.30.217,Boat,2022.1.1,59.98832625265731,
negative,negative,1,j,l,,,,,,,,,10,5,185,0,,,,,,,,,,,,,,,,,,,,,,,,main,1,1,1,negative,negative,j,j,1,1.0535967000760138,518.8210975000402,519.8374940999784,519.8018846999621,None,518.8210975000402,None,518.8210975000402,None,518.8210975000402,None,520.8605140999658,None,520.8605140999658,None,520.8605140999658,None,,,,,,,,,,,126,19,Female,2022-05-10_17h55.30.217,Boat,2022.1.1,59.98832625265731,
neutral,neutral,2,k,k,,,,,,,,,10,6,186,10,,,,,,,,,,,,,,,,,,,,,,,,main,2,2,2,neutral,neutral,k,k,1,0.7435154999839142,520.8784549999982,521.8834256000118,521.8662683999864,None,520.8784549999982,None,520.8784549999982,None,520.8784549999982,None,522.6024317000062,None,522.6024317000062,None,522.6024317000062,None,,,,,,,,,,,126,19,Female,2022-05-10_17h55.30.217,Boat,2022.1.1,59.98832625265731,
neutral,negative,1,k,k,,,,,,,,,10,7,187,7,,,,,,,,,,,,,,,,,,,,,,,,main,1,1,1,negative,neutral,k,k,1,0.7170047999825329,522.6272248999448,523.6367650999455,523.6001461000415,None,522.6272248999448,None,522.6272248999448,None,522.6272248999448,None,524.3246152999578,None,524.3246152999578,None,524.3246152999578,None,,,,,,,,,,,126,19,Female,2022-05-10_17h55.30.217,Boat,2022.1.1,59.98832625265731,
positive,negative,2,l,j,,,,,,,,,10,8,188,14,,,,,,,,,,,,,,,,,,,,,,,,main,1,1,2,negative,positive,l,l,1,0.744301600032486,524.3448080000235,525.3493017000146,525.3328184999991,None,524.3448080000235,None,524.3448080000235,None,524.3448080000235,None,526.0738115000073,None,526.0738115000073,None,526.0738115000073,None,,,,,,,,,,,126,19,Female,2022-05-10_17h55.30.217,Boat,2022.1.1,59.98832625265731,
negative,neutral,2,j,l,,,,,,,,,10,9,189,12,,,,,,,,,,,,,,,,,,,,,,,,main,1,1,2,neutral,negative,j,j,1,0.897856600000523,526.0905917999335,527.0949307000265,527.075009000022,None,526.0905917999335,None,526.0905917999335,None,526.0905917999335,None,527.9727668999927,None,527.9727668999927,None,527.9727668999927,None,,,,,,,,,,,126,19,Female,2022-05-10_17h55.30.217,Boat,2022.1.1,59.98832625265731,
neutral,positive,2,k,k,,,,,,,,,10,10,190,13,,,,,,,,,,,,,,,,,,,,,,,,main,1,1,2,positive,neutral,k,k,1,0.7294391000177711,527.9962035999633,528.9995545999845,528.966667199973,None,527.9962035999633,None,527.9962035999633,None,527.9962035999633,None,529.7058940000367,None,529.7058940000367,None,529.7058940000367,None,,,,,,,,,,,126,19,Female,2022-05-10_17h55.30.217,Boat,2022.1.1,59.98832625265731,
positive,negative,1,l,j,,,,,,,,,10,11,191,5,,,,,,,,,,,,,,,,,,,,,,,,main,2,2,1,negative,positive,l,l,1,0.7892007000045851,529.7246468999656,530.7405702000251,530.7046276000328,None,529.7246468999656,None,529.7246468999656,None,529.7246468999656,None,531.4977439999581,None,531.4977439999581,None,531.4977439999581,None,,,,,,,,,,,126,19,Female,2022-05-10_17h55.30.217,Boat,2022.1.1,59.98832625265731,
negative,positive,2,j,l,,,,,,,,,10,12,192,15,,,,,,,,,,,,,,,,,,,,,,,,main,1,1,2,positive,negative,j,j,1,0.7242549000075087,531.5156946999487,532.5328880000161,532.5119272000156,None,531.5156946999487,None,531.5156946999487,None,531.5156946999487,None,533.2260672999779,None,533.2260672999779,None,533.2260672999779,None,,,,,,,,,,,126,19,Female,2022-05-10_17h55.30.217,Boat,2022.1.1,59.98832625265731,
negative,negative,2,j,l,,,,,,,,,10,13,193,9,,,,,,,,,,,,,,,,,,,,,,,,main,1,1,2,negative,negative,j,j,1,0.645565600018017,533.2465596999973,534.2540037999861,534.2170762999449,None,533.2465596999973,None,533.2465596999973,None,533.2465596999973,None,534.8715023999335,None,534.8715023999335,None,534.8715023999335,None,,,,,,,,,,,126,19,Female,2022-05-10_17h55.30.217,Boat,2022.1.1,59.98832625265731,
negative,positive,1,j,l,,,,,,,,,10,14,194,6,,,,,,,,,,,,,,,,,,,,,,,,main,1,1,1,positive,negative,j,j,1,0.8359406000236049,534.8904052999569,535.9018336000154,535.866627600044,None,534.8904052999569,None,534.8904052999569,None,534.8904052999569,None,536.7123136000242,None,536.7123136000242,None,536.7123136000242,None,,,,,,,,,,,126,19,Female,2022-05-10_17h55.30.217,Boat,2022.1.1,59.98832625265731,
positive,positive,1,l,j,,,,,,,,,10,15,195,2,,,,,,,,,,,,,,,,,,,,,,,,main,2,2,1,positive,positive,l,l,1,0.8762828001054004,536.7314518999774,537.7501249000197,537.7134882999817,None,536.7314518999774,None,536.7314518999774,None,536.7314518999774,None,538.5917971999385,None,538.5917971999385,None,538.5917971999385,None,,,,,,,,,,,126,19,Female,2022-05-10_17h55.30.217,Boat,2022.1.1,59.98832625265731,
neutral,neutral,1,k,k,,,,,,,,,10,16,196,1,,,,,,,,,,,,,,,,,,,,,,,,main,2,2,1,neutral,neutral,k,k,1,0.8191524000139907,538.6089399999473,539.6166420000372,539.5987734999508,None,538.6089399999473,None,538.6089399999473,None,538.6089399999473,None,540.4139920999529,None,540.4139920999529,None,540.4139920999529,None,,,,,,,,,,,126,19,Female,2022-05-10_17h55.30.217,Boat,2022.1.1,59.98832625265731,
neutral,negative,2,k,k,,,,,,,,,10,17,197,16,,,,,,,,,,,,,,,,,,,,,,,,main,2,2,2,negative,neutral,k,k,1,0.695881100022234,540.4322531999787,541.4583118000301,541.4115144000389,None,540.4322531999787,None,540.4322531999787,None,540.4322531999787,None,542.11302329998,None,542.11302329998,None,542.11302329998,None,,,,,,,,,,,126,19,Female,2022-05-10_17h55.30.217,Boat,2022.1.1,59.98832625265731,
negative,negative,1,j,l,,,,,,,,,11,0,198,0,,,,,,,,,,,,,,,,,,,,,,,,main,1,1,1,negative,negative,j,j,1,0.9773686000844464,542.130490600015,543.1333558999468,543.1164622999495,None,542.130490600015,None,542.130490600015,None,542.130490600015,None,544.0924434999703,None,544.0924434999703,None,544.0924434999703,None,,,,,,,,,,,126,19,Female,2022-05-10_17h55.30.217,Boat,2022.1.1,59.98832625265731,
neutral,negative,1,k,k,,,,,,,,,11,1,199,7,,,,,,,,,,,,,,,,,,,,,,,,main,2,2,1,negative,neutral,k,k,1,0.7271388999652117,544.1113375000423,545.1174703999422,545.1006133999908,None,544.1113375000423,None,544.1113375000423,None,544.1113375000423,None,545.8219045000384,None,545.8219045000384,None,545.8219045000384,None,,,,,,,,,,,126,19,Female,2022-05-10_17h55.30.217,Boat,2022.1.1,59.98832625265731,
positive,negative,2,l,j,,,,,,,,,11,2,200,14,,,,,,,,,,,,,,,,,,,,,,,,main,2,2,2,negative,positive,l,l,1,0.8158737000776455,545.8383000999456,546.8585132999578,546.8169874999439,None,545.8383000999456,None,545.8383000999456,None,545.8383000999456,None,547.639364599972,None,547.639364599972,None,547.639364599972,None,,,,,,,,,,,126,19,Female,2022-05-10_17h55.30.217,Boat,2022.1.1,59.98832625265731,
positive,positive,2,l,j,,,,,,,,,11,3,201,11,,,,,,,,,,,,,,,,,,,,,,,,main,2,2,2,positive,positive,l,l,1,0.9556798000121489,547.659276499995,548.6663985999767,548.6503343000077,None,547.659276499995,None,547.659276499995,None,547.659276499995,None,549.5987838999368,None,549.5987838999368,None,549.5987838999368,None,,,,,,,,,,,126,19,Female,2022-05-10_17h55.30.217,Boat,2022.1.1,59.98832625265731,
negative,positive,2,j,l,,,,,,,,,11,4,202,15,,,,,,,,,,,,,,,,,,,,,,,,main,1,1,2,positive,negative,j,j,1,0.7335484999930486,549.618766700034,550.6334542999975,550.5977899000281,None,549.618766700034,None,549.618766700034,None,549.618766700034,None,551.3359568999382,None,551.3359568999382,None,551.3359568999382,None,,,,,,,,,,,126,19,Female,2022-05-10_17h55.30.217,Boat,2022.1.1,59.98832625265731,
positive,neutral,2,l,j,,,,,,,,,11,5,203,17,,,,,,,,,,,,,,,,,,,,,,,,main,1,1,2,neutral,positive,l,l,1,0.7766692000441253,551.3535277999472,552.3621438000118,552.3419051000383,None,551.3535277999472,None,551.3535277999472,None,551.3535277999472,None,553.1161453000037,None,553.1161453000037,None,553.1161453000037,None,,,,,,,,,,,126,19,Female,2022-05-10_17h55.30.217,Boat,2022.1.1,59.98832625265731,
negative,neutral,2,j,l,,,,,,,,,11,6,204,12,,,,,,,,,,,,,,,,,,,,,,,,main,1,1,2,neutral,negative,j,j,1,0.7212061000755057,553.1354580000043,554.1519989999942,554.1169892000034,None,553.1354580000043,None,553.1354580000043,None,553.1354580000043,None,554.8410766000394,None,554.8410766000394,None,554.8410766000394,None,,,,,,,,,,,126,19,Female,2022-05-10_17h55.30.217,Boat,2022.1.1,59.98832625265731,
positive,negative,1,l,j,,,,,,,,,11,7,205,5,,,,,,,,,,,,,,,,,,,,,,,,main,2,2,1,negative,positive,l,l,1,0.9703331000637263,554.8607648999896,555.8674540999345,555.8332786000101,None,554.8607648999896,None,554.8607648999896,None,554.8607648999896,None,556.8150584999472,None,556.8150584999472,None,556.8150584999472,None,,,,,,,,,,,126,19,Female,2022-05-10_17h55.30.217,Boat,2022.1.1,59.98832625265731,
neutral,neutral,1,k,k,,,,,,,,,11,8,206,1,,,,,,,,,,,,,,,,,,,,,,,,main,2,2,1,neutral,neutral,k,k,1,0.6807614000281319,556.8349739999976,557.8575995999854,557.8170376999769,None,556.8349739999976,None,556.8349739999976,None,556.8349739999976,None,558.499057899951,None,558.499057899951,None,558.499057899951,None,,,,,,,,,,,126,19,Female,2022-05-10_17h55.30.217,Boat,2022.1.1,59.98832625265731,
neutral,neutral,2,k,k,,,,,,,,,11,9,207,10,,,,,,,,,,,,,,,,,,,,,,,,main,1,1,2,neutral,neutral,k,k,1,0.6771142999641597,558.5183626000071,559.5339911000337,559.4993995999685,None,558.5183626000071,None,558.5183626000071,None,558.5183626000071,None,560.1808242999483,None,560.1808242999483,None,560.1808242999483,None,,,,,,,,,,,126,19,Female,2022-05-10_17h55.30.217,Boat,2022.1.1,59.98832625265731,
negative,positive,1,j,l,,,,,,,,,11,10,208,6,,,,,,,,,,,,,,,,,,,,,,,,main,1,1,1,positive,negative,j,j,1,0.8132388000376523,560.2003280000063,561.2012814999325,561.1842891999986,None,560.2003280000063,None,560.2003280000063,None,560.2003280000063,None,561.9975632999791,None,561.9975632999791,None,561.9975632999791,None,,,,,,,,,,,126,19,Female,2022-05-10_17h55.30.217,Boat,2022.1.1,59.98832625265731,
