target,distractor,set,ans1,ans2,rep_loop2.thisRepN,rep_loop2.thisTrialN,rep_loop2.thisN,rep_loop2.thisIndex,flanker_prac_loop.thisRepN,flanker_prac_loop.thisTrialN,flanker_prac_loop.thisN,flanker_prac_loop.thisIndex,flanker_main_loop.thisRepN,flanker_main_loop.thisTrialN,flanker_main_loop.thisN,flanker_main_loop.thisIndex,fl_inst_resp.keys,mouse.x,mouse.y,mouse.leftButton,mouse.midButton,mouse.rightButton,mouse.started,mouse.stopped,sound_1.started,sound_1.stopped,no_text.started,no_text.stopped,yes_text.started,yes_text.stopped,mouse_2.x,mouse_2.y,mouse_2.leftButton,mouse_2.midButton,mouse_2.rightButton,mouse_2.started,mouse_2.stopped,back_2.started,back_2.stopped,main_prac,fl_cold,fl_colt,fl_set,fl_dcond,fl_tcond,fl_ans,fl_res,fl_corr,fl_rt,fix_fl.started,fix_fl.stopped,targ.started,targ.stopped,j_button.started,j_button.stopped,k_button.started,k_button.stopped,l_button.started,l_button.stopped,j_button2.started,j_button2.stopped,k_button2.started,k_button2.stopped,l_button2.started,l_button2.stopped,mainback.started,mainback.stopped,key_resp.keys,mouse_6.x,mouse_6.y,mouse_6.leftButton,mouse_6.midButton,mouse_6.rightButton,mouse_6.started,mouse_6.stopped,id*,age*,gender*,date,expName,psychopyVersion,frameRate,
,,,,,0,0,0,0,,,,,,,,,None,-0.07777778,-0.28055555,0,0,0,1.0242308595916256,None,26.490074070030822,None,76.30982930003665,None,76.30982930003665,None,-0.10092592,-0.062037036,0,0,0,0.01343087013810873,None,,,,,,,,,,,,,,,,,,,,,,,,,,,,,,,,,,,,,,,127,33,Female,2022-05-11_09h34.51.256,Boat,2022.1.1,59.95965911338224,
neutral,positive,1,k,k,,,,,0,0,0,4,,,,,,,,,,,,,,,,,,,,,,,,,,80.09498890000395,None,prac,2,2,1,positive,neutral,k,k,1,1.3439343000063673,82.12995750003029,83.13782309996895,83.11317250004504,None,82.12995750003029,None,82.12995750003029,None,82.12995750003029,None,84.44558786994313,None,84.44558786994313,None,84.44558786994313,None,,,,,,,,,,,127,33,Female,2022-05-11_09h34.51.256,Boat,2022.1.1,59.95965911338224,
positive,neutral,2,l,j,,,,,0,1,1,17,,,,,,,,,,,,,,,,,,,,,,,,,,,,prac,2,2,2,neutral,positive,j,l,0,1.2297356000635773,84.47452089993749,85.47960860002786,85.4627547999844,None,84.47452089993749,None,84.47452089993749,None,84.47452089993749,None,86.70764429995324,None,86.70764429995324,None,86.70764429995324,None,,,,,,,,,,,127,33,Female,2022-05-11_09h34.51.256,Boat,2022.1.1,59.95965911338224,
negative,positive,2,j,l,,,,,0,2,2,15,,,,,,,,,,,,,,,,,,,,,,,,,,,,prac,2,2,2,positive,negative,l,l,1,1.0363148000324145,87.7261408000486,88.73351459996775,88.71551879995968,None,87.7261408000486,None,87.7261408000486,None,87.7261408000486,None,89.73553746994585,None,89.73553746994585,None,89.73553746994585,None,,,,,,,,,,,127,33,Female,2022-05-11_09h34.51.256,Boat,2022.1.1,59.95965911338224,
negative,positive,1,j,l,,,,,0,3,3,6,,,,,,,,,,,,,,,,,,,,,,,,,,,,prac,1,1,1,positive,negative,l,l,1,1.249401199980639,89.76431090000551,90.78782029997092,90.76093929994386,None,89.76431090000551,None,89.76431090000551,None,89.76431090000551,None,91.99044756996446,None,91.99044756996446,None,91.99044756996446,None,,,,,,,,,,,127,33,Female,2022-05-11_09h34.51.256,Boat,2022.1.1,59.95965911338224,
neutral,neutral,2,k,k,,,,,0,4,4,10,,,,,,,,,,,,,,,,,,,,,,,,,,,,prac,1,1,2,neutral,neutral,k,k,1,0.9568292999174446,92.01524560002144,93.02990439999849,93.01238019997254,None,92.01524560002144,None,92.01524560002144,None,92.01524560002144,None,93.94858037002851,None,93.94858037002851,None,93.94858037002851,None,,,,,,,,,,,127,33,Female,2022-05-11_09h34.51.256,Boat,2022.1.1,59.95965911338224,
neutral,neutral,1,k,k,,,,,0,5,5,1,,,,,,,,,,,,,,,,,,,,,,,,,,,,prac,2,2,1,neutral,neutral,k,k,1,0.9278401000192389,93.97533609997481,94.98030819999985,94.96344059996773,None,93.97533609997481,None,93.97533609997481,None,93.97533609997481,None,95.8799159700051,None,95.8799159700051,None,95.8799159700051,None,,,,,,,,,,,127,33,Female,2022-05-11_09h34.51.256,Boat,2022.1.1,59.95965911338224,
negative,neutral,1,j,l,,,,,0,6,6,3,,,,,,,,,,,,,,,,,,,,,,,,,,,,prac,1,1,1,neutral,negative,l,l,1,0.9565613999729976,95.90385659993626,96.91323519998696,96.89639839995652,None,95.90385659993626,None,95.90385659993626,None,95.90385659993626,None,97.83924967001659,None,97.83924967001659,None,97.83924967001659,None,,,,,,,,,,,127,33,Female,2022-05-11_09h34.51.256,Boat,2022.1.1,59.95965911338224,
positive,neutral,1,l,j,,,,,0,7,7,8,,,,,,,,,,,,,,,,,,,,,,,,,,,,prac,1,1,1,neutral,positive,j,j,1,0.6651540000457317,97.85521489998791,98.86332749994472,98.82939620001707,None,97.85521489998791,None,97.85521489998791,None,97.85521489998791,None,99.50600187000819,None,99.50600187000819,None,99.50600187000819,None,,,,,,,,,,,127,33,Female,2022-05-11_09h34.51.256,Boat,2022.1.1,59.95965911338224,
positive,positive,2,l,j,,,,,0,8,8,11,,,,,,,,,,,,,,,,,,,,,,,,,,,,prac,2,2,2,positive,positive,j,j,1,0.6243374000769109,99.52180250000674,100.52755600004457,100.50794000003953,None,99.52180250000674,None,99.52180250000674,None,99.52180250000674,None,101.13120457003825,None,101.13120457003825,None,101.13120457003825,None,,,,,,,,,,,127,33,Female,2022-05-11_09h34.51.256,Boat,2022.1.1,59.95965911338224,
positive,negative,2,l,j,,,,,0,9,9,14,,,,,,,,,,,,,,,,,,,,,,,,,,,,prac,1,1,2,negative,positive,j,j,1,0.6053801999660209,101.15623560000677,102.1641893000342,102.1469492999604,None,101.15623560000677,None,101.15623560000677,None,101.15623560000677,None,102.74023306996096,None,102.74023306996096,None,102.74023306996096,None,,,,,,,,,,,127,33,Female,2022-05-11_09h34.51.256,Boat,2022.1.1,59.95965911338224,
neutral,negative,2,k,k,,,,,0,10,10,16,,,,,,,,,,,,,,,,,,,,,,,,,,,,prac,1,1,2,negative,neutral,k,k,1,0.6937114000320435,102.75644120003562,103.7634622999467,103.74568099994212,None,102.75644120003562,None,102.75644120003562,None,102.75644120003562,None,104.43592337004375,None,104.43592337004375,None,104.43592337004375,None,,,,,,,,,,,127,33,Female,2022-05-11_09h34.51.256,Boat,2022.1.1,59.95965911338224,
positive,negative,1,l,j,,,,,0,11,11,5,,,,,,,,,,,,,,,,,,,,,,,,,,,,prac,2,2,1,negative,positive,j,j,1,1.616823299904354,104.46080570004415,105.48040809994563,105.44147109996993,None,104.46080570004415,None,104.46080570004415,None,104.46080570004415,None,107.06914439995307,None,107.06914439995307,None,107.06914439995307,None,,,,,,,,,,,127,33,Female,2022-05-11_09h34.51.256,Boat,2022.1.1,59.95965911338224,
negative,negative,1,j,l,,,,,0,12,12,0,,,,,,,,,,,,,,,,,,,,,,,,,,,,prac,1,1,1,negative,negative,l,l,1,0.8332953999051824,108.09185219998471,109.10461869998835,109.0636314000003,None,108.09185219998471,None,108.09185219998471,None,108.09185219998471,None,109.90286797003355,None,109.90286797003355,None,109.90286797003355,None,,,,,,,,,,,127,33,Female,2022-05-11_09h34.51.256,Boat,2022.1.1,59.95965911338224,
positive,positive,1,l,j,,,,,0,13,13,2,,,,,,,,,,,,,,,,,,,,,,,,,,,,prac,2,2,1,positive,positive,j,j,1,0.7316008999478072,109.91882070002612,110.93057920003776,110.91389490000438,None,109.91882070002612,None,109.91882070002612,None,109.91882070002612,None,111.6344480699394,None,111.6344480699394,None,111.6344480699394,None,,,,,,,,,,,127,33,Female,2022-05-11_09h34.51.256,Boat,2022.1.1,59.95965911338224,
negative,negative,2,j,l,,,,,0,14,14,9,,,,,,,,,,,,,,,,,,,,,,,,,,,,prac,2,2,2,negative,negative,l,k,0,0.6638177999993786,111.66164980002213,112.66367369994987,112.64699419995304,None,111.66164980002213,None,111.66164980002213,None,111.66164980002213,None,113.30399609997403,None,113.30399609997403,None,113.30399609997403,None,,,,,,,,,,,127,33,Female,2022-05-11_09h34.51.256,Boat,2022.1.1,59.95965911338224,
neutral,negative,1,k,k,,,,,0,15,15,7,,,,,,,,,,,,,,,,,,,,,,,,,,,,prac,2,2,1,negative,neutral,k,k,1,0.6538361998973414,114.31506019993685,115.33017830003519,115.31051370000932,None,114.31506019993685,None,114.31506019993685,None,114.31506019993685,None,115.9563814699417,None,115.9563814699417,None,115.9563814699417,None,,,,,,,,,,,127,33,Female,2022-05-11_09h34.51.256,Boat,2022.1.1,59.95965911338224,
negative,neutral,2,j,l,,,,,0,16,16,12,,,,,,,,,,,,,,,,,,,,,,,,,,,,prac,1,1,2,neutral,negative,l,l,1,0.7345212999498472,115.97631509997882,116.99735780002084,116.95841750002,None,115.97631509997882,None,115.97631509997882,None,115.97631509997882,None,117.69264356999193,None,117.69264356999193,None,117.69264356999193,None,,,,,,,,,,,127,33,Female,2022-05-11_09h34.51.256,Boat,2022.1.1,59.95965911338224,
neutral,positive,2,k,k,,,,,0,17,17,13,,,,,,,,,,,,,,,,,,,,,,,,,,,,prac,2,2,2,positive,neutral,k,k,1,0.7278138999827206,117.71563190000597,118.72071479994338,118.70302659994923,None,117.71563190000597,None,117.71563190000597,None,117.71563190000597,None,119.42437346999068,None,119.42437346999068,None,119.42437346999068,None,,,,,,,,,,,127,33,Female,2022-05-11_09h34.51.256,Boat,2022.1.1,59.95965911338224,
negative,positive,2,j,l,,,,,1,0,18,15,,,,,,,,,,,,,,,,,,,,,,,,,,,,prac,2,2,2,positive,negative,l,l,1,0.6106728999875486,119.43998639995698,120.4471439999761,120.41402809997089,None,119.43998639995698,None,119.43998639995698,None,119.43998639995698,None,121.03739996997174,None,121.03739996997174,None,121.03739996997174,None,,,,,,,,,,,127,33,Female,2022-05-11_09h34.51.256,Boat,2022.1.1,59.95965911338224,
positive,neutral,1,l,j,,,,,1,1,19,8,,,,,,,,,,,,,,,,,,,,,,,,,,,,prac,1,1,1,neutral,positive,j,j,1,0.5715381000190973,121.05221240001265,122.06083149998449,122.04157590004615,None,121.05221240001265,None,121.05221240001265,None,121.05221240001265,None,122.61151317004115,None,122.61151317004115,None,122.61151317004115,None,,,,,,,,,,,127,33,Female,2022-05-11_09h34.51.256,Boat,2022.1.1,59.95965911338224,
neutral,neutral,1,k,k,,,,,1,2,20,1,,,,,,,,,,,,,,,,,,,,,,,,,,,,prac,2,2,1,neutral,neutral,k,j,0,-0.6340021000942215,122.62949750002008,None,None,None,122.62949750002008,None,122.62949750002008,None,122.62949750002008,None,122.98990919999778,None,122.98990919999778,None,122.98990919999778,None,,,,,,,,,,,127,33,Female,2022-05-11_09h34.51.256,Boat,2022.1.1,59.95965911338224,
positive,neutral,2,l,j,,,,,1,3,21,17,,,,,,,,,,,,,,,,,,,,,,,,,,,,prac,1,1,2,neutral,positive,j,j,1,0.695117500028573,126.00071009993553,127.01425240002573,126.98051729996223,None,126.00071009993553,None,126.00071009993553,None,126.00071009993553,None,127.6813411699608,None,127.6813411699608,None,127.6813411699608,None,,,,,,,,,,,127,33,Female,2022-05-11_09h34.51.256,Boat,2022.1.1,59.95965911338224,
positive,negative,1,l,j,,,,,1,4,22,5,,,,,,,,,,,,,,,,,,,,,,,,,,,,prac,1,1,1,negative,positive,j,j,1,0.7361175999976695,127.69623250002041,128.69732969999313,128.69732969999313,None,127.69623250002041,None,127.69623250002041,None,127.69623250002041,None,129.4208469700301,None,129.4208469700301,None,129.4208469700301,None,,,,,,,,,,,127,33,Female,2022-05-11_09h34.51.256,Boat,2022.1.1,59.95965911338224,
negative,negative,1,j,l,,,,,1,5,23,0,,,,,,,,,,,,,,,,,,,,,,,,,,,,prac,2,2,1,negative,negative,l,l,1,0.6065669000381604,129.4363351999782,130.44766439998057,130.43108619994018,None,129.4363351999782,None,129.4363351999782,None,129.4363351999782,None,131.02909396993928,None,131.02909396993928,None,131.02909396993928,None,,,,,,,,,,,127,33,Female,2022-05-11_09h34.51.256,Boat,2022.1.1,59.95965911338224,
positive,negative,2,l,j,,,,,1,6,24,14,,,,,,,,,,,,,,,,,,,,,,,,,,,,prac,1,1,2,negative,positive,j,j,1,0.6694168999092653,131.04609820002224,132.04702499997802,132.03053879993968,None,131.04609820002224,None,131.04609820002224,None,131.04609820002224,None,132.70015147000086,None,132.70015147000086,None,132.70015147000086,None,,,,,,,,,,,127,33,Female,2022-05-11_09h34.51.256,Boat,2022.1.1,59.95965911338224,
neutral,neutral,2,k,k,,,,,1,7,25,10,,,,,,,,,,,,,,,,,,,,,,,,,,,,prac,2,2,2,neutral,neutral,k,k,1,0.5837358999997377,132.71492009994108,133.71440609998535,133.69759360002354,None,132.71492009994108,None,132.71492009994108,None,132.71492009994108,None,134.28762816996314,None,134.28762816996314,None,134.28762816996314,None,,,,,,,,,,,127,33,Female,2022-05-11_09h34.51.256,Boat,2022.1.1,59.95965911338224,
positive,positive,2,l,j,,,,,1,8,26,11,,,,,,,,,,,,,,,,,,,,,,,,,,,,prac,2,2,2,positive,positive,j,j,1,0.638181300018914,134.30232799996156,135.3113743000431,135.29221440001857,None,134.30232799996156,None,134.30232799996156,None,134.30232799996156,None,135.92738416998182,None,135.92738416998182,None,135.92738416998182,None,,,,,,,,,,,127,33,Female,2022-05-11_09h34.51.256,Boat,2022.1.1,59.95965911338224,
negative,neutral,1,j,l,,,,,1,9,27,3,,,,,,,,,,,,,,,,,,,,,,,,,,,,prac,2,2,1,neutral,negative,l,l,1,0.561625299975276,135.94252979999874,136.95957639999688,136.9388246999588,None,135.94252979999874,None,135.94252979999874,None,135.94252979999874,None,137.49171177004465,None,137.49171177004465,None,137.49171177004465,None,,,,,,,,,,,127,33,Female,2022-05-11_09h34.51.256,Boat,2022.1.1,59.95965911338224,
neutral,negative,1,k,k,,,,,1,10,28,7,,,,,,,,,,,,,,,,,,,,,,,,,,,,prac,1,1,1,negative,neutral,k,k,1,0.5490174000151455,137.50783689995296,138.51428210001905,138.4809557000408,None,137.50783689995296,None,137.50783689995296,None,137.50783689995296,None,139.04337247004733,None,139.04337247004733,None,139.04337247004733,None,,,,,,,,,,,127,33,Female,2022-05-11_09h34.51.256,Boat,2022.1.1,59.95965911338224,
negative,negative,2,j,l,,,,,1,11,29,9,,,,,,,,,,,,,,,,,,,,,,,,,,,,prac,2,2,2,negative,negative,l,l,1,0.6064704000018537,139.05946869996842,140.06584329996258,140.03098030004185,None,139.05946869996842,None,139.05946869996842,None,139.05946869996842,None,140.65075356999878,None,140.65075356999878,None,140.65075356999878,None,,,,,,,,,,,127,33,Female,2022-05-11_09h34.51.256,Boat,2022.1.1,59.95965911338224,
neutral,negative,2,k,k,,,,,1,12,30,16,,,,,,,,,,,,,,,,,,,,,,,,,,,,prac,2,2,2,negative,neutral,k,k,1,0.5996851999079809,140.66796600003727,141.68121670000255,141.6423996000085,None,140.66796600003727,None,140.66796600003727,None,140.66796600003727,None,142.2555164700374,None,142.2555164700374,None,142.2555164700374,None,,,,,,,,,,,127,33,Female,2022-05-11_09h34.51.256,Boat,2022.1.1,59.95965911338224,
neutral,positive,1,k,k,,,,,1,13,31,4,,,,,,,,,,,,,,,,,,,,,,,,,,,,prac,2,2,1,positive,neutral,k,k,1,0.6247443999163806,142.27073750004638,143.28094139997847,143.26343940000515,None,142.27073750004638,None,142.27073750004638,None,142.27073750004638,None,143.88106357001234,None,143.88106357001234,None,143.88106357001234,None,,,,,,,,,,,127,33,Female,2022-05-11_09h34.51.256,Boat,2022.1.1,59.95965911338224,
positive,positive,1,l,j,,,,,1,14,32,2,,,,,,,,,,,,,,,,,,,,,,,,,,,,prac,1,1,1,positive,positive,j,j,1,0.690216000075452,143.8991167000495,144.9145880000433,144.87554579996504,None,143.8991167000495,None,143.8991167000495,None,143.8991167000495,None,145.5753290699562,None,145.5753290699562,None,145.5753290699562,None,,,,,,,,,,,127,33,Female,2022-05-11_09h34.51.256,Boat,2022.1.1,59.95965911338224,
negative,neutral,2,j,l,,,,,1,15,33,12,,,,,,,,,,,,,,,,,,,,,,,,,,,,prac,2,2,2,neutral,negative,l,l,1,0.6965549999149516,145.59743159997743,146.60880229994655,146.56456209998578,None,145.59743159997743,None,145.59743159997743,None,145.59743159997743,None,147.27546707002912,None,147.27546707002912,None,147.27546707002912,None,,,,,,,,,,,127,33,Female,2022-05-11_09h34.51.256,Boat,2022.1.1,59.95965911338224,
negative,positive,1,j,l,,,,,1,16,34,6,,,,,,,,,,,,,,,,,,,,,,,,,,,,prac,2,2,1,positive,negative,l,l,1,0.6812786000082269,147.29516270000022,148.30559210001957,148.26376909995452,None,147.29516270000022,None,147.29516270000022,None,147.29516270000022,None,148.95830527003855,None,148.95830527003855,None,148.95830527003855,None,,,,,,,,,,,127,33,Female,2022-05-11_09h34.51.256,Boat,2022.1.1,59.95965911338224,
neutral,positive,2,k,k,,,,,1,17,35,13,,,,,,,,,,,,,,,,,,,,,,,,,,,,prac,2,2,2,positive,neutral,k,k,1,0.6127088000066578,148.97820729995146,150.00691100000404,149.9596229000017,None,148.97820729995146,None,148.97820729995146,None,148.97820729995146,None,150.57354196996894,None,150.57354196996894,None,150.57354196996894,None,,,,,,,,,,,127,33,Female,2022-05-11_09h34.51.256,Boat,2022.1.1,59.95965911338224,
,,,,,,,,,,,,,,,,,,,,,,,,,,,,,,,,,,,,,,,,,,,,,,,,,,,,,,,,,,,,,,,,,,150.5843563999515,None,None,,,,,,,,127,33,Female,2022-05-11_09h34.51.256,Boat,2022.1.1,59.95965911338224,
,,,,,,,,,,,,,,,,,,,,,,,,,,,,,,,,,,,,,,,,,,,,,,,,,,,,,,,,,,,,,,,,,,,,,0.31574073,-0.15185185,1,0,0,0.008124369895085692,None,127,33,Female,2022-05-11_09h34.51.256,Boat,2022.1.1,59.95965911338224,
positive,negative,2,l,j,,,,,,,,,0,0,0,14,,,,,,,,,,,,,,,,,,,,,,165.05915969994385,None,main,2,2,2,negative,positive,j,j,1,0.9111626000376418,167.08147910004482,168.10654940002132,168.0596345999511,None,167.08147910004482,None,167.08147910004482,None,167.08147910004482,None,168.9739725700114,None,168.9739725700114,None,168.9739725700114,None,,,,,,,,,,,127,33,Female,2022-05-11_09h34.51.256,Boat,2022.1.1,59.95965911338224,
negative,positive,2,j,l,,,,,,,,,0,1,1,15,,,,,,,,,,,,,,,,,,,,,,,,main,2,2,2,positive,negative,l,l,1,0.7766051000216976,168.9944789999863,169.99862820003182,169.98032059997786,None,168.9944789999863,None,168.9944789999863,None,168.9944789999863,None,170.75328067000956,None,170.75328067000956,None,170.75328067000956,None,,,,,,,,,,,127,33,Female,2022-05-11_09h34.51.256,Boat,2022.1.1,59.95965911338224,
neutral,negative,2,k,k,,,,,,,,,0,2,2,16,,,,,,,,,,,,,,,,,,,,,,,,main,1,1,2,negative,neutral,k,k,1,0.6899196999147534,170.77024059998803,171.7813755000243,171.7654536999762,None,170.77024059998803,None,170.77024059998803,None,170.77024059998803,None,172.4467876699986,None,172.4467876699986,None,172.4467876699986,None,,,,,,,,,,,127,33,Female,2022-05-11_09h34.51.256,Boat,2022.1.1,59.95965911338224,
neutral,negative,1,k,k,,,,,,,,,0,3,3,7,,,,,,,,,,,,,,,,,,,,,,,,main,1,1,1,negative,neutral,k,k,1,0.6779144000029191,172.46379820001312,173.47330309997778,173.44856789999176,None,172.46379820001312,None,172.46379820001312,None,172.46379820001312,None,174.12774797002785,None,174.12774797002785,None,174.12774797002785,None,,,,,,,,,,,127,33,Female,2022-05-11_09h34.51.256,Boat,2022.1.1,59.95965911338224,
positive,neutral,2,l,j,,,,,,,,,0,4,4,17,,,,,,,,,,,,,,,,,,,,,,,,main,2,2,2,neutral,positive,j,j,1,0.7052648999961093,174.1469844999956,175.15656999999192,175.11603060003836,None,174.1469844999956,None,174.1469844999956,None,174.1469844999956,None,175.83449827004225,None,175.83449827004225,None,175.83449827004225,None,,,,,,,,,,,127,33,Female,2022-05-11_09h34.51.256,Boat,2022.1.1,59.95965911338224,
negative,positive,1,j,l,,,,,,,,,0,5,5,6,,,,,,,,,,,,,,,,,,,,,,,,main,2,2,1,positive,negative,l,l,1,0.6511675999499857,175.8489278999623,176.86042899999302,176.86042899999302,None,175.8489278999623,None,175.8489278999623,None,175.8489278999623,None,177.48674936997705,None,177.48674936997705,None,177.48674936997705,None,,,,,,,,,,,127,33,Female,2022-05-11_09h34.51.256,Boat,2022.1.1,59.95965911338224,
positive,negative,1,l,j,,,,,,,,,0,6,6,5,,,,,,,,,,,,,,,,,,,,,,,,main,1,1,1,negative,positive,j,j,1,0.6708249000366777,177.50361759995576,178.5168066000333,178.47914710000623,None,177.50361759995576,None,177.50361759995576,None,177.50361759995576,None,179.1620544700185,None,179.1620544700185,None,179.1620544700185,None,,,,,,,,,,,127,33,Female,2022-05-11_09h34.51.256,Boat,2022.1.1,59.95965911338224,
positive,positive,2,l,j,,,,,,,,,0,7,7,11,,,,,,,,,,,,,,,,,,,,,,,,main,2,2,2,positive,positive,j,j,1,0.6605571999680251,179.1803109999746,180.18370619998313,180.16612619999796,None,179.1803109999746,None,179.1803109999746,None,179.1803109999746,None,180.82707817000338,None,180.82707817000338,None,180.82707817000338,None,,,,,,,,,,,127,33,Female,2022-05-11_09h34.51.256,Boat,2022.1.1,59.95965911338224,
neutral,positive,1,k,k,,,,,,,,,0,8,8,4,,,,,,,,,,,,,,,,,,,,,,,,main,2,2,1,positive,neutral,k,k,1,0.5991202000295743,180.84605880000163,181.84932849998586,181.81526149995625,None,180.84605880000163,None,180.84605880000163,None,180.84605880000163,None,182.42812736993656,None,182.42812736993656,None,182.42812736993656,None,,,,,,,,,,,127,33,Female,2022-05-11_09h34.51.256,Boat,2022.1.1,59.95965911338224,
neutral,positive,2,k,k,,,,,,,,,0,9,9,13,,,,,,,,,,,,,,,,,,,,,,,,main,1,1,2,positive,neutral,k,k,1,0.5180142000317574,182.45069159998093,183.47353730001487,183.43183679995127,None,182.45069159998093,None,182.45069159998093,None,182.45069159998093,None,183.94842066997663,None,183.94842066997663,None,183.94842066997663,None,,,,,,,,,,,127,33,Female,2022-05-11_09h34.51.256,Boat,2022.1.1,59.95965911338224,
negative,negative,1,j,l,,,,,,,,,0,10,10,0,,,,,,,,,,,,,,,,,,,,,,,,main,1,1,1,negative,negative,l,l,1,0.5686439999844879,183.9643151999917,184.9765824000351,184.95700369996484,None,183.9643151999917,None,183.9643151999917,None,183.9643151999917,None,185.5182763699908,None,185.5182763699908,None,185.5182763699908,None,,,,,,,,,,,127,33,Female,2022-05-11_09h34.51.256,Boat,2022.1.1,59.95965911338224,
negative,neutral,2,j,l,,,,,,,,,0,11,11,12,,,,,,,,,,,,,,,,,,,,,,,,main,1,1,2,neutral,negative,l,l,1,0.5183488000184298,185.53340239997488,186.54945880000014,186.51572399993893,None,185.53340239997488,None,185.53340239997488,None,185.53340239997488,None,187.04011736994144,None,187.04011736994144,None,187.04011736994144,None,,,,,,,,,,,127,33,Female,2022-05-11_09h34.51.256,Boat,2022.1.1,59.95965911338224,
positive,neutral,1,l,j,,,,,,,,,0,12,12,8,,,,,,,,,,,,,,,,,,,,,,,,main,2,2,1,neutral,positive,j,j,1,0.5942897000350058,187.05667860002723,188.06537950003985,188.0462154999841,None,187.05667860002723,None,187.05667860002723,None,187.05667860002723,None,188.63560647002888,None,188.63560647002888,None,188.63560647002888,None,,,,,,,,,,,127,33,Female,2022-05-11_09h34.51.256,Boat,2022.1.1,59.95965911338224,
positive,positive,1,l,j,,,,,,,,,0,13,13,2,,,,,,,,,,,,,,,,,,,,,,,,main,1,1,1,positive,positive,j,j,1,0.6709658999461681,188.65098909998778,189.66414100001566,189.64426299999468,None,188.65098909998778,None,188.65098909998778,None,188.65098909998778,None,190.31073887003586,None,190.31073887003586,None,190.31073887003586,None,,,,,,,,,,,127,33,Female,2022-05-11_09h34.51.256,Boat,2022.1.1,59.95965911338224,
neutral,neutral,2,k,k,,,,,,,,,0,14,14,10,,,,,,,,,,,,,,,,,,,,,,,,main,2,2,2,neutral,neutral,k,k,1,0.550503599923104,190.32993589993566,191.3403744000243,191.3133621000452,None,190.32993589993566,None,190.32993589993566,None,190.32993589993566,None,191.86392206999008,None,191.86392206999008,None,191.86392206999008,None,,,,,,,,,,,127,33,Female,2022-05-11_09h34.51.256,Boat,2022.1.1,59.95965911338224,
negative,negative,2,j,l,,,,,,,,,0,15,15,9,,,,,,,,,,,,,,,,,,,,,,,,main,2,2,2,negative,negative,l,j,0,0.5611501999665052,191.8783699000487,192.8964101000456,192.8769248999888,None,191.8783699000487,None,191.8783699000487,None,191.8783699000487,None,193.43216440000106,None,193.43216440000106,None,193.43216440000106,None,,,,,,,,,,,127,33,Female,2022-05-11_09h34.51.256,Boat,2022.1.1,59.95965911338224,
negative,neutral,1,j,l,,,,,,,,,0,16,16,3,,,,,,,,,,,,,,,,,,,,,,,,main,1,1,1,neutral,negative,l,l,1,0.6176645000232384,194.45073709997814,195.46538069995586,195.42990059999283,None,194.45073709997814,None,194.45073709997814,None,194.45073709997814,None,196.05385627001525,None,196.05385627001525,None,196.05385627001525,None,,,,,,,,,,,127,33,Female,2022-05-11_09h34.51.256,Boat,2022.1.1,59.95965911338224,
neutral,neutral,1,k,k,,,,,,,,,0,17,17,1,,,,,,,,,,,,,,,,,,,,,,,,main,2,2,1,neutral,neutral,k,l,0,0.6171449000248685,196.06949479994364,197.08256969996728,197.04622310004197,None,196.06949479994364,None,196.06949479994364,None,196.06949479994364,None,197.6824419000186,None,197.6824419000186,None,197.6824419000186,None,,,,,,,,,,,127,33,Female,2022-05-11_09h34.51.256,Boat,2022.1.1,59.95965911338224,
neutral,positive,2,k,k,,,,,,,,,1,0,18,13,,,,,,,,,,,,,,,,,,,,,,,,main,2,2,2,positive,neutral,k,k,1,0.6426914000185207,198.7012680999469,199.7238238999853,199.68244560004678,None,198.7012680999469,None,198.7012680999469,None,198.7012680999469,None,200.33117957003415,None,200.33117957003415,None,200.33117957003415,None,,,,,,,,,,,127,33,Female,2022-05-11_09h34.51.256,Boat,2022.1.1,59.95965911338224,
negative,negative,2,j,l,,,,,,,,,1,1,19,9,,,,,,,,,,,,,,,,,,,,,,,,main,1,1,2,negative,negative,l,l,1,0.6800480000674725,200.34770629997365,201.3630202000495,201.34369290003087,None,200.34770629997365,None,200.34770629997365,None,200.34770629997365,None,202.01567907000427,None,202.01567907000427,None,202.01567907000427,None,,,,,,,,,,,127,33,Female,2022-05-11_09h34.51.256,Boat,2022.1.1,59.95965911338224,
neutral,positive,1,k,k,,,,,,,,,1,2,20,4,,,,,,,,,,,,,,,,,,,,,,,,main,2,2,1,positive,neutral,k,k,1,0.5815020999871194,202.02976089995354,203.03242189995944,203.03242189995944,None,202.02976089995354,None,202.02976089995354,None,202.02976089995354,None,203.59923036999535,None,203.59923036999535,None,203.59923036999535,None,,,,,,,,,,,127,33,Female,2022-05-11_09h34.51.256,Boat,2022.1.1,59.95965911338224,
neutral,neutral,2,k,k,,,,,,,,,1,3,21,10,,,,,,,,,,,,,,,,,,,,,,,,main,2,2,2,neutral,neutral,k,k,1,0.5588588999817148,203.61540749995038,204.61645129998215,204.59982470003888,None,203.61540749995038,None,203.61540749995038,None,203.61540749995038,None,205.16270596997347,None,205.16270596997347,None,205.16270596997347,None,,,,,,,,,,,127,33,Female,2022-05-11_09h34.51.256,Boat,2022.1.1,59.95965911338224,
negative,neutral,1,j,l,,,,,,,,,1,4,22,3,,,,,,,,,,,,,,,,,,,,,,,,main,2,2,1,neutral,negative,l,l,1,0.6334401000058278,205.1822356999619,206.18293380003888,206.14865049999207,None,205.1822356999619,None,205.1822356999619,None,205.1822356999619,None,206.79857596997172,None,206.79857596997172,None,206.79857596997172,None,,,,,,,,,,,127,33,Female,2022-05-11_09h34.51.256,Boat,2022.1.1,59.95965911338224,
negative,positive,1,j,l,,,,,,,,,1,5,23,6,,,,,,,,,,,,,,,,,,,,,,,,main,2,2,1,positive,negative,l,l,1,0.5205301999812946,206.81579300004523,207.8406342000235,207.79380969994236,None,206.81579300004523,None,206.81579300004523,None,206.81579300004523,None,208.32337837000378,None,208.32337837000378,None,208.32337837000378,None,,,,,,,,,,,127,33,Female,2022-05-11_09h34.51.256,Boat,2022.1.1,59.95965911338224,
neutral,negative,1,k,k,,,,,,,,,1,6,24,7,,,,,,,,,,,,,,,,,,,,,,,,main,2,2,1,negative,neutral,k,k,1,0.7155636000679806,208.33930779993534,209.3434881999856,209.3434881999856,None,208.33930779993534,None,208.33930779993534,None,208.33930779993534,None,210.0421008700272,None,210.0421008700272,None,210.0421008700272,None,,,,,,,,,,,127,33,Female,2022-05-11_09h34.51.256,Boat,2022.1.1,59.95965911338224,
positive,negative,2,l,j,,,,,,,,,1,7,25,14,,,,,,,,,,,,,,,,,,,,,,,,main,1,1,2,negative,positive,j,j,1,0.6950103000272065,210.05917759996373,211.07750929996837,211.05749579996336,None,210.05917759996373,None,210.05917759996373,None,210.05917759996373,None,211.73751086995472,None,211.73751086995472,None,211.73751086995472,None,,,,,,,,,,,127,33,Female,2022-05-11_09h34.51.256,Boat,2022.1.1,59.95965911338224,
negative,negative,1,j,l,,,,,,,,,1,8,26,0,,,,,,,,,,,,,,,,,,,,,,,,main,1,1,1,negative,negative,l,l,1,0.5660626000026241,211.75389529997483,212.7659087999491,212.7325290000299,None,211.75389529997483,None,211.75389529997483,None,211.75389529997483,None,213.30846057003365,None,213.30846057003365,None,213.30846057003365,None,,,,,,,,,,,127,33,Female,2022-05-11_09h34.51.256,Boat,2022.1.1,59.95965911338224,
positive,neutral,2,l,j,,,,,,,,,1,9,27,17,,,,,,,,,,,,,,,,,,,,,,,,main,1,1,2,neutral,positive,j,j,1,0.7009525001049042,213.32373950001784,214.33768819994293,214.31995239993557,None,213.32373950001784,None,213.32373950001784,None,213.32373950001784,None,215.01150847002864,None,215.01150847002864,None,215.01150847002864,None,,,,,,,,,,,127,33,Female,2022-05-11_09h34.51.256,Boat,2022.1.1,59.95965911338224,
negative,positive,2,j,l,,,,,,,,,1,10,28,15,,,,,,,,,,,,,,,,,,,,,,,,main,1,1,2,positive,negative,l,l,1,0.580459599965252,215.03042269998696,216.03315979999024,216.01355020003393,None,215.03042269998696,None,215.03042269998696,None,215.03042269998696,None,216.594395169965,None,216.594395169965,None,216.594395169965,None,,,,,,,,,,,127,33,Female,2022-05-11_09h34.51.256,Boat,2022.1.1,59.95965911338224,
negative,neutral,2,j,l,,,,,,,,,1,11,29,12,,,,,,,,,,,,,,,,,,,,,,,,main,2,2,2,neutral,negative,l,l,1,0.6982764999847859,216.61280580004677,217.6241523999488,217.58280760003254,None,216.61280580004677,None,216.61280580004677,None,216.61280580004677,None,218.2942260700278,None,218.2942260700278,None,218.2942260700278,None,,,,,,,,,,,127,33,Female,2022-05-11_09h34.51.256,Boat,2022.1.1,59.95965911338224,
positive,neutral,1,l,j,,,,,,,,,1,12,30,8,,,,,,,,,,,,,,,,,,,,,,,,main,2,2,1,neutral,positive,j,j,1,0.730751600000076,218.31411000003573,219.31626460002735,219.2970658999402,None,218.31411000003573,None,218.31411000003573,None,218.31411000003573,None,220.02865836999845,None,220.02865836999845,None,220.02865836999845,None,,,,,,,,,,,127,33,Female,2022-05-11_09h34.51.256,Boat,2022.1.1,59.95965911338224,
neutral,neutral,1,k,k,,,,,,,,,1,13,31,1,,,,,,,,,,,,,,,,,,,,,,,,main,1,1,1,neutral,neutral,k,k,1,0.6978088000323623,220.04663400002755,221.0633137000259,221.02384999999776,None,220.04663400002755,None,220.04663400002755,None,220.04663400002755,None,221.7280477699591,None,221.7280477699591,None,221.7280477699591,None,,,,,,,,,,,127,33,Female,2022-05-11_09h34.51.256,Boat,2022.1.1,59.95965911338224,
positive,negative,1,l,j,,,,,,,,,1,14,32,5,,,,,,,,,,,,,,,,,,,,,,,,main,1,1,1,negative,positive,j,k,0,-0.7781551999505609,221.7447674999712,None,None,None,221.7447674999712,None,221.7447674999712,None,221.7447674999712,None,221.9552270999411,None,221.9552270999411,None,221.9552270999411,None,,,,,,,,,,,127,33,Female,2022-05-11_09h34.51.256,Boat,2022.1.1,59.95965911338224,
positive,positive,1,l,j,,,,,,,,,1,15,33,2,,,,,,,,,,,,,,,,,,,,,,,,main,1,1,1,positive,positive,j,j,1,0.6847131999675184,224.96760009997524,225.9906203999417,225.9494349999586,None,224.96760009997524,None,224.96760009997524,None,224.96760009997524,None,226.63739157000091,None,226.63739157000091,None,226.63739157000091,None,,,,,,,,,,,127,33,Female,2022-05-11_09h34.51.256,Boat,2022.1.1,59.95965911338224,
neutral,negative,2,k,k,,,,,,,,,1,16,34,16,,,,,,,,,,,,,,,,,,,,,,,,main,2,2,2,negative,neutral,k,k,1,0.5910365999443457,226.6545814999845,227.6662861999357,227.6471528999973,None,226.6545814999845,None,226.6545814999845,None,226.6545814999845,None,228.23327177003958,None,228.23327177003958,None,228.23327177003958,None,,,,,,,,,,,127,33,Female,2022-05-11_09h34.51.256,Boat,2022.1.1,59.95965911338224,
positive,positive,2,l,j,,,,,,,,,1,17,35,11,,,,,,,,,,,,,,,,,,,,,,,,main,2,2,2,positive,positive,j,k,0,0.5595378000289202,228.24906149995513,229.27802299999166,229.23033589997794,None,228.24906149995513,None,228.24906149995513,None,228.24906149995513,None,229.80076869996265,None,229.80076869996265,None,229.80076869996265,None,,,,,,,,,,,127,33,Female,2022-05-11_09h34.51.256,Boat,2022.1.1,59.95965911338224,
positive,negative,1,l,j,,,,,,,,,2,0,36,5,,,,,,,,,,,,,,,,,,,,,,,,main,2,2,1,negative,positive,j,j,1,0.6189936000155285,230.81903909996618,231.84109250002075,231.79951779998373,None,230.81903909996618,None,230.81903909996618,None,230.81903909996618,None,232.42504026994575,None,232.42504026994575,None,232.42504026994575,None,,,,,,,,,,,127,33,Female,2022-05-11_09h34.51.256,Boat,2022.1.1,59.95965911338224,
negative,neutral,2,j,l,,,,,,,,,2,1,37,12,,,,,,,,,,,,,,,,,,,,,,,,main,2,2,2,neutral,negative,l,l,1,0.6926848000148311,232.44390169996768,233.45772639999632,233.41703510005027,None,232.44390169996768,None,232.44390169996768,None,232.44390169996768,None,234.1188947700197,None,234.1188947700197,None,234.1188947700197,None,,,,,,,,,,,127,33,Female,2022-05-11_09h34.51.256,Boat,2022.1.1,59.95965911338224,
negative,neutral,1,j,l,,,,,,,,,2,2,38,3,,,,,,,,,,,,,,,,,,,,,,,,main,1,1,1,neutral,negative,l,l,1,0.8030948999803513,234.13448020000942,235.14964850002434,235.11636029998772,None,234.13448020000942,None,234.13448020000942,None,234.13448020000942,None,235.92592846995686,None,235.92592846995686,None,235.92592846995686,None,,,,,,,,,,,127,33,Female,2022-05-11_09h34.51.256,Boat,2022.1.1,59.95965911338224,
positive,neutral,1,l,j,,,,,,,,,2,3,39,8,,,,,,,,,,,,,,,,,,,,,,,,main,1,1,1,neutral,positive,j,j,1,0.6327847000211477,235.94291780004278,236.94979420001619,236.93320830003358,None,235.94291780004278,None,235.94291780004278,None,235.94291780004278,None,237.56119817004074,None,237.56119817004074,None,237.56119817004074,None,,,,,,,,,,,127,33,Female,2022-05-11_09h34.51.256,Boat,2022.1.1,59.95965911338224,
neutral,positive,2,k,k,,,,,,,,,2,4,40,13,,,,,,,,,,,,,,,,,,,,,,,,main,2,2,2,positive,neutral,k,k,1,0.5159581999760121,237.58084359997883,238.58340010000393,238.56651509995572,None,237.58084359997883,None,237.58084359997883,None,237.58084359997883,None,239.07907566996292,None,239.07907566996292,None,239.07907566996292,None,,,,,,,,,,,127,33,Female,2022-05-11_09h34.51.256,Boat,2022.1.1,59.95965911338224,
neutral,negative,1,k,k,,,,,,,,,2,5,41,7,,,,,,,,,,,,,,,,,,,,,,,,main,1,1,1,negative,neutral,k,k,1,0.5472062000771984,239.09728200000245,240.10033159994055,240.08106630004477,None,239.09728200000245,None,239.09728200000245,None,239.09728200000245,None,240.62824556997512,None,240.62824556997512,None,240.62824556997512,None,,,,,,,,,,,127,33,Female,2022-05-11_09h34.51.256,Boat,2022.1.1,59.95965911338224,
positive,negative,2,l,j,,,,,,,,,2,6,42,14,,,,,,,,,,,,,,,,,,,,,,,,main,2,2,2,negative,positive,j,j,1,0.592191300005652,240.64694150001742,241.64987580000889,241.6166708000237,None,240.64694150001742,None,240.64694150001742,None,240.64694150001742,None,242.22145836995915,None,242.22145836995915,None,242.22145836995915,None,,,,,,,,,,,127,33,Female,2022-05-11_09h34.51.256,Boat,2022.1.1,59.95965911338224,
positive,neutral,2,l,j,,,,,,,,,2,7,43,17,,,,,,,,,,,,,,,,,,,,,,,,main,1,1,2,neutral,positive,j,j,1,0.7507591999601573,242.23669389996212,243.25190319994,243.23354179994203,None,242.23669389996212,None,242.23669389996212,None,242.23669389996212,None,243.97609887002037,None,243.97609887002037,None,243.97609887002037,None,,,,,,,,,,,127,33,Female,2022-05-11_09h34.51.256,Boat,2022.1.1,59.95965911338224,
positive,positive,1,l,j,,,,,,,,,2,8,44,2,,,,,,,,,,,,,,,,,,,,,,,,main,2,2,1,positive,positive,j,j,1,0.6395525999832898,243.99319069995545,245.00781979993917,244.9836922000395,None,243.99319069995545,None,243.99319069995545,None,243.99319069995545,None,245.61544107003138,None,245.61544107003138,None,245.61544107003138,None,,,,,,,,,,,127,33,Female,2022-05-11_09h34.51.256,Boat,2022.1.1,59.95965911338224,
neutral,positive,1,k,k,,,,,,,,,2,9,45,4,,,,,,,,,,,,,,,,,,,,,,,,main,1,1,1,positive,neutral,k,k,1,0.5771551000652835,245.63611730001867,246.66094830003567,246.61671700002626,None,245.63611730001867,None,245.63611730001867,None,245.63611730001867,None,247.1984900700394,None,247.1984900700394,None,247.1984900700394,None,,,,,,,,,,,127,33,Female,2022-05-11_09h34.51.256,Boat,2022.1.1,59.95965911338224,
neutral,neutral,1,k,k,,,,,,,,,2,10,46,1,,,,,,,,,,,,,,,,,,,,,,,,main,2,2,1,neutral,neutral,k,k,1,0.568802300025709,247.2152136999648,248.23340050003026,248.19461799995042,None,247.2152136999648,None,247.2152136999648,None,247.2152136999648,None,248.7689358700067,None,248.7689358700067,None,248.7689358700067,None,,,,,,,,,,,127,33,Female,2022-05-11_09h34.51.256,Boat,2022.1.1,59.95965911338224,
neutral,negative,2,k,k,,,,,,,,,2,11,47,16,,,,,,,,,,,,,,,,,,,,,,,,main,2,2,2,negative,neutral,k,k,1,0.5452430000295863,248.78440340003,249.79167189996224,249.76681259996258,None,248.78440340003,None,248.78440340003,None,248.78440340003,None,250.31688397002873,None,250.31688397002873,None,250.31688397002873,None,,,,,,,,,,,127,33,Female,2022-05-11_09h34.51.256,Boat,2022.1.1,59.95965911338224,
negative,negative,2,j,l,,,,,,,,,2,12,48,9,,,,,,,,,,,,,,,,,,,,,,,,main,2,2,2,negative,negative,l,l,1,0.5700667999917641,250.3324909999501,251.35000840004068,251.31379279994871,None,250.3324909999501,None,250.3324909999501,None,250.3324909999501,None,251.88864807002247,None,251.88864807002247,None,251.88864807002247,None,,,,,,,,,,,127,33,Female,2022-05-11_09h34.51.256,Boat,2022.1.1,59.95965911338224,
neutral,neutral,2,k,k,,,,,,,,,2,13,49,10,,,,,,,,,,,,,,,,,,,,,,,,main,1,1,2,neutral,neutral,k,k,1,0.6032767998985946,251.90386329998728,252.91346259997226,252.89431580004748,None,251.90386329998728,None,251.90386329998728,None,251.90386329998728,None,253.49622526995373,None,253.49622526995373,None,253.49622526995373,None,,,,,,,,,,,127,33,Female,2022-05-11_09h34.51.256,Boat,2022.1.1,59.95965911338224,
negative,positive,1,j,l,,,,,,,,,2,14,50,6,,,,,,,,,,,,,,,,,,,,,,,,main,1,1,1,positive,negative,l,l,1,0.6639595000306144,253.51193199993577,254.5290246999357,254.48670480004512,None,253.51193199993577,None,253.51193199993577,None,253.51193199993577,None,255.17100273999387,None,255.17100273999387,None,255.17100273999387,None,,,,,,,,,,,127,33,Female,2022-05-11_09h34.51.256,Boat,2022.1.1,59.95965911338224,
negative,positive,2,j,l,,,,,,,,,2,15,51,15,,,,,,,,,,,,,,,,,,,,,,,,main,1,1,2,positive,negative,l,l,1,0.5802601999603212,255.18581039994024,256.19896710000467,256.17849590000696,None,255.18581039994024,None,255.18581039994024,None,255.18581039994024,None,256.7465409700293,None,256.7465409700293,None,256.7465409700293,None,,,,,,,,,,,127,33,Female,2022-05-11_09h34.51.256,Boat,2022.1.1,59.95965911338224,
negative,negative,1,j,l,,,,,,,,,2,16,52,0,,,,,,,,,,,,,,,,,,,,,,,,main,1,1,1,negative,negative,l,l,1,0.4973358999704942,256.76504379999824,257.76784760004375,257.74864210002124,None,256.76504379999824,None,256.76504379999824,None,256.76504379999824,None,258.243531170045,None,258.243531170045,None,258.243531170045,None,,,,,,,,,,,127,33,Female,2022-05-11_09h34.51.256,Boat,2022.1.1,59.95965911338224,
positive,positive,2,l,j,,,,,,,,,2,17,53,11,,,,,,,,,,,,,,,,,,,,,,,,main,2,2,2,positive,positive,j,j,1,0.695769099984318,258.26754429994617,259.26722170005087,259.2499571000226,None,258.26754429994617,None,258.26754429994617,None,258.26754429994617,None,259.94390397004315,None,259.94390397004315,None,259.94390397004315,None,,,,,,,,,,,127,33,Female,2022-05-11_09h34.51.256,Boat,2022.1.1,59.95965911338224,
neutral,positive,2,k,k,,,,,,,,,3,0,54,13,,,,,,,,,,,,,,,,,,,,,,,,main,1,1,2,positive,neutral,k,k,1,0.6378016999224201,259.9646962999832,260.9681980999885,260.9340908000013,None,259.9646962999832,None,259.9646962999832,None,259.9646962999832,None,261.5839564699912,None,261.5839564699912,None,261.5839564699912,None,,,,,,,,,,,127,33,Female,2022-05-11_09h34.51.256,Boat,2022.1.1,59.95965911338224,
neutral,neutral,2,k,k,,,,,,,,,3,1,55,10,,,,,,,,,,,,,,,,,,,,,,,,main,2,2,2,neutral,neutral,k,k,1,0.5275265999371186,261.60127540002577,262.61501219996717,262.5952133999672,None,261.60127540002577,None,261.60127540002577,None,261.60127540002577,None,263.11574667003003,None,263.11574667003003,None,263.11574667003003,None,,,,,,,,,,,127,33,Female,2022-05-11_09h34.51.256,Boat,2022.1.1,59.95965911338224,
neutral,negative,2,k,k,,,,,,,,,3,2,56,16,,,,,,,,,,,,,,,,,,,,,,,,main,1,1,2,negative,neutral,k,k,1,0.6755426999880001,263.1331118999515,264.14759489998687,264.10893939994276,None,263.1331118999515,None,263.1331118999515,None,263.1331118999515,None,264.7934330700431,None,264.7934330700431,None,264.7934330700431,None,,,,,,,,,,,127,33,Female,2022-05-11_09h34.51.256,Boat,2022.1.1,59.95965911338224,
positive,neutral,2,l,j,,,,,,,,,3,3,57,17,,,,,,,,,,,,,,,,,,,,,,,,main,1,1,2,neutral,positive,j,j,1,0.6761931000510231,264.8151880999794,265.8255032999441,265.7840081000468,None,264.8151880999794,None,264.8151880999794,None,264.8151880999794,None,266.4716472700005,None,266.4716472700005,None,266.4716472700005,None,,,,,,,,,,,127,33,Female,2022-05-11_09h34.51.256,Boat,2022.1.1,59.95965911338224,
neutral,neutral,1,k,k,,,,,,,,,3,4,58,1,,,,,,,,,,,,,,,,,,,,,,,,main,1,1,1,neutral,neutral,k,k,1,0.7253584999125451,266.4881782999728,267.50023919995874,267.4826671000337,None,266.4881782999728,None,266.4881782999728,None,266.4881782999728,None,268.2001391700236,None,268.2001391700236,None,268.2001391700236,None,,,,,,,,,,,127,33,Female,2022-05-11_09h34.51.256,Boat,2022.1.1,59.95965911338224,
positive,negative,1,l,j,,,,,,,,,3,5,59,5,,,,,,,,,,,,,,,,,,,,,,,,main,2,2,1,negative,positive,j,j,1,0.6198845999315381,268.21676570002455,269.21809239999857,269.20048150001094,None,268.21676570002455,None,268.21676570002455,None,268.21676570002455,None,269.82257966997565,None,269.82257966997565,None,269.82257966997565,None,,,,,,,,,,,127,33,Female,2022-05-11_09h34.51.256,Boat,2022.1.1,59.95965911338224,
positive,neutral,1,l,j,,,,,,,,,3,6,60,8,,,,,,,,,,,,,,,,,,,,,,,,main,1,1,1,neutral,positive,j,j,1,0.5466661000391468,269.8378920999821,270.8524963000091,270.8173999999417,None,269.8378920999821,None,269.8378920999821,None,269.8378920999821,None,271.3729835699545,None,271.3729835699545,None,271.3729835699545,None,,,,,,,,,,,127,33,Female,2022-05-11_09h34.51.256,Boat,2022.1.1,59.95965911338224,
negative,neutral,1,j,l,,,,,,,,,3,7,61,3,,,,,,,,,,,,,,,,,,,,,,,,main,1,1,1,neutral,negative,l,k,0,0.515948300017044,271.38898059993517,272.4009513000492,272.3838168999646,None,271.38898059993517,None,271.38898059993517,None,271.38898059993517,None,272.89881299994886,None,272.89881299994886,None,272.89881299994886,None,,,,,,,,,,,127,33,Female,2022-05-11_09h34.51.256,Boat,2022.1.1,59.95965911338224,
positive,positive,1,l,j,,,,,,,,,3,8,62,2,,,,,,,,,,,,,,,,,,,,,,,,main,2,2,1,positive,positive,j,j,1,0.7734953000908718,273.91925809998065,274.9341134999413,274.9145249000285,None,273.91925809998065,None,273.91925809998065,None,273.91925809998065,None,275.6796588699566,None,275.6796588699566,None,275.6796588699566,None,,,,,,,,,,,127,33,Female,2022-05-11_09h34.51.256,Boat,2022.1.1,59.95965911338224,
negative,negative,2,j,l,,,,,,,,,3,9,63,9,,,,,,,,,,,,,,,,,,,,,,,,main,1,1,2,negative,negative,l,l,1,0.6310997999971732,275.70016709994525,276.7148856000276,276.67541969998274,None,275.70016709994525,None,275.70016709994525,None,275.70016709994525,None,277.3142441699514,None,277.3142441699514,None,277.3142441699514,None,,,,,,,,,,,127,33,Female,2022-05-11_09h34.51.256,Boat,2022.1.1,59.95965911338224,
neutral,positive,1,k,k,,,,,,,,,3,10,64,4,,,,,,,,,,,,,,,,,,,,,,,,main,2,2,1,positive,neutral,k,k,1,0.6030562000814825,277.32955230004154,278.3343510000268,278.3176343999803,None,277.32955230004154,None,277.32955230004154,None,277.32955230004154,None,278.9178793700179,None,278.9178793700179,None,278.9178793700179,None,,,,,,,,,,,127,33,Female,2022-05-11_09h34.51.256,Boat,2022.1.1,59.95965911338224,
positive,positive,2,l,j,,,,,,,,,3,11,65,11,,,,,,,,,,,,,,,,,,,,,,,,main,2,2,2,positive,positive,j,j,1,0.5974757999647409,278.93448359996546,279.93470179999713,279.91756680002436,None,278.93448359996546,None,278.93448359996546,None,278.93448359996546,None,280.51817607004193,None,280.51817607004193,None,280.51817607004193,None,,,,,,,,,,,127,33,Female,2022-05-11_09h34.51.256,Boat,2022.1.1,59.95965911338224,
neutral,negative,1,k,k,,,,,,,,,3,12,66,7,,,,,,,,,,,,,,,,,,,,,,,,main,2,2,1,negative,neutral,k,k,1,0.6165165000129491,280.53463679994456,281.53467459999956,281.5175291999476,None,280.53463679994456,None,280.53463679994456,None,280.53463679994456,None,282.13726256994994,None,282.13726256994994,None,282.13726256994994,None,,,,,,,,,,,127,33,Female,2022-05-11_09h34.51.256,Boat,2022.1.1,59.95965911338224,
negative,negative,1,j,l,,,,,,,,,3,13,67,0,,,,,,,,,,,,,,,,,,,,,,,,main,2,2,1,negative,negative,l,l,1,0.5937968000071123,282.15312979999,283.1661290000193,283.1458391000051,None,282.15312979999,None,282.15312979999,None,282.15312979999,None,283.73430897002106,None,283.73430897002106,None,283.73430897002106,None,,,,,,,,,,,127,33,Female,2022-05-11_09h34.51.256,Boat,2022.1.1,59.95965911338224,
negative,positive,1,j,l,,,,,,,,,3,14,68,6,,,,,,,,,,,,,,,,,,,,,,,,main,1,1,1,positive,negative,l,l,1,0.6027128999121487,283.75155189994257,284.76718369999435,284.72962160001043,None,283.75155189994257,None,283.75155189994257,None,283.75155189994257,None,285.3399935699766,None,285.3399935699766,None,285.3399935699766,None,,,,,,,,,,,127,33,Female,2022-05-11_09h34.51.256,Boat,2022.1.1,59.95965911338224,
positive,negative,2,l,j,,,,,,,,,3,15,69,14,,,,,,,,,,,,,,,,,,,,,,,,main,2,2,2,negative,positive,j,j,1,0.6877800999209285,285.35570800001733,286.3684252999956,286.33231420000084,None,285.35570800001733,None,285.35570800001733,None,285.35570800001733,None,287.0327724700095,None,287.0327724700095,None,287.0327724700095,None,,,,,,,,,,,127,33,Female,2022-05-11_09h34.51.256,Boat,2022.1.1,59.95965911338224,
negative,positive,2,j,l,,,,,,,,,3,16,70,15,,,,,,,,,,,,,,,,,,,,,,,,main,1,1,2,positive,negative,l,l,1,0.6978594999527559,287.0508861000417,288.05108310002834,288.03457629994955,None,287.0508861000417,None,287.0508861000417,None,287.0508861000417,None,288.7331419699825,None,288.7331419699825,None,288.7331419699825,None,,,,,,,,,,,127,33,Female,2022-05-11_09h34.51.256,Boat,2022.1.1,59.95965911338224,
negative,neutral,2,j,l,,,,,,,,,3,17,71,12,,,,,,,,,,,,,,,,,,,,,,,,main,1,1,2,neutral,negative,l,l,1,0.535881599993445,288.7495096999919,289.7513030000264,289.73231019999366,None,288.7495096999919,None,288.7495096999919,None,288.7495096999919,None,290.2717568699503,None,290.2717568699503,None,290.2717568699503,None,,,,,,,,,,,127,33,Female,2022-05-11_09h34.51.256,Boat,2022.1.1,59.95965911338224,
negative,neutral,2,j,l,,,,,,,,,4,0,72,12,,,,,,,,,,,,,,,,,,,,,,,,main,2,2,2,neutral,negative,l,l,1,0.6761429000180215,290.28827220003586,291.3033473000396,291.2683662000345,None,290.28827220003586,None,290.28827220003586,None,290.28827220003586,None,291.9512694700155,None,291.9512694700155,None,291.9512694700155,None,,,,,,,,,,,127,33,Female,2022-05-11_09h34.51.256,Boat,2022.1.1,59.95965911338224,
neutral,negative,1,k,k,,,,,,,,,4,1,73,7,,,,,,,,,,,,,,,,,,,,,,,,main,1,1,1,negative,neutral,k,k,1,0.6495475999545306,291.9672656999901,292.9674782999791,292.95067339995876,None,291.9672656999901,None,291.9672656999901,None,291.9672656999901,None,293.6017664699815,None,293.6017664699815,None,293.6017664699815,None,,,,,,,,,,,127,33,Female,2022-05-11_09h34.51.256,Boat,2022.1.1,59.95965911338224,
neutral,neutral,1,k,k,,,,,,,,,4,2,74,1,,,,,,,,,,,,,,,,,,,,,,,,main,1,1,1,neutral,neutral,k,k,1,0.6430489000631496,293.62007920001633,294.64594009995926,294.6007719000336,None,293.62007920001633,None,293.62007920001633,None,293.62007920001633,None,295.2499988700496,None,295.2499988700496,None,295.2499988700496,None,,,,,,,,,,,127,33,Female,2022-05-11_09h34.51.256,Boat,2022.1.1,59.95965911338224,
positive,positive,1,l,j,,,,,,,,,4,3,75,2,,,,,,,,,,,,,,,,,,,,,,,,main,2,2,1,positive,positive,j,j,1,0.578563200077042,295.26698059996124,296.2817745000357,296.2623680999968,None,295.26698059996124,None,295.26698059996124,None,295.26698059996124,None,296.8323558700271,None,296.8323558700271,None,296.8323558700271,None,,,,,,,,,,,127,33,Female,2022-05-11_09h34.51.256,Boat,2022.1.1,59.95965911338224,
neutral,neutral,2,k,k,,,,,,,,,4,4,76,10,,,,,,,,,,,,,,,,,,,,,,,,main,2,2,2,neutral,neutral,k,k,1,0.7617266000015661,296.8501449000323,297.87604330002796,297.82947180001065,None,296.8501449000323,None,296.8501449000323,None,296.8501449000323,None,298.59791236997114,None,298.59791236997114,None,298.59791236997114,None,,,,,,,,,,,127,33,Female,2022-05-11_09h34.51.256,Boat,2022.1.1,59.95965911338224,
negative,negative,1,j,l,,,,,,,,,4,5,77,0,,,,,,,,,,,,,,,,,,,,,,,,main,2,2,1,negative,negative,l,l,1,0.7235010000877082,298.6167803000426,299.61798430001363,299.6014817999676,None,298.6167803000426,None,298.6167803000426,None,298.6167803000426,None,300.32082266998475,None,300.32082266998475,None,300.32082266998475,None,,,,,,,,,,,127,33,Female,2022-05-11_09h34.51.256,Boat,2022.1.1,59.95965911338224,
negative,positive,1,j,l,,,,,,,,,4,6,78,6,,,,,,,,,,,,,,,,,,,,,,,,main,2,2,1,positive,negative,l,l,1,0.5068622999824584,300.33898520004004,301.3521075999597,301.31521779997274,None,300.33898520004004,None,300.33898520004004,None,300.33898520004004,None,301.8333451699931,None,301.8333451699931,None,301.8333451699931,None,,,,,,,,,,,127,33,Female,2022-05-11_09h34.51.256,Boat,2022.1.1,59.95965911338224,
negative,positive,2,j,l,,,,,,,,,4,7,79,15,,,,,,,,,,,,,,,,,,,,,,,,main,2,2,2,positive,negative,l,l,1,0.581822199979797,301.8490082999924,302.8677923999494,302.82887470000423,None,301.8490082999924,None,301.8490082999924,None,301.8490082999924,None,303.4182961700484,None,303.4182961700484,None,303.4182961700484,None,,,,,,,,,,,127,33,Female,2022-05-11_09h34.51.256,Boat,2022.1.1,59.95965911338224,
neutral,negative,2,k,k,,,,,,,,,4,8,80,16,,,,,,,,,,,,,,,,,,,,,,,,main,1,1,2,negative,neutral,k,k,1,0.5925584000069648,303.43413539999165,304.4512276999885,304.43396589998156,None,303.43413539999165,None,303.43413539999165,None,303.43413539999165,None,305.0139492699876,None,305.0139492699876,None,305.0139492699876,None,,,,,,,,,,,127,33,Female,2022-05-11_09h34.51.256,Boat,2022.1.1,59.95965911338224,
neutral,positive,1,k,k,,,,,,,,,4,9,81,4,,,,,,,,,,,,,,,,,,,,,,,,main,2,2,1,positive,neutral,k,k,1,0.5307613000040874,305.03342660004273,306.0515949999681,306.0126898000017,None,305.03342660004273,None,305.03342660004273,None,305.03342660004273,None,306.5475021699443,None,306.5475021699443,None,306.5475021699443,None,,,,,,,,,,,127,33,Female,2022-05-11_09h34.51.256,Boat,2022.1.1,59.95965911338224,
negative,negative,2,j,l,,,,,,,,,4,10,82,9,,,,,,,,,,,,,,,,,,,,,,,,main,2,2,2,negative,negative,l,l,1,0.6671954999910668,306.5649896999821,307.58195579994936,307.54279370000586,None,306.5649896999821,None,306.5649896999821,None,306.5649896999821,None,308.21713967001995,None,308.21713967001995,None,308.21713967001995,None,,,,,,,,,,,127,33,Female,2022-05-11_09h34.51.256,Boat,2022.1.1,59.95965911338224,
negative,neutral,1,j,l,,,,,,,,,4,11,83,3,,,,,,,,,,,,,,,,,,,,,,,,main,2,2,1,neutral,negative,l,l,1,1.916920000105165,308.23380249994807,309.23491070000455,309.21749189996626,None,308.23380249994807,None,308.23380249994807,None,308.23380249994807,None,311.1403315999778,None,311.1403315999778,None,311.1403315999778,None,,,,,,,,,,,127,33,Female,2022-05-11_09h34.51.256,Boat,2022.1.1,59.95965911338224,
positive,negative,1,l,j,,,,,,,,,4,12,84,5,,,,,,,,,,,,,,,,,,,,,,,,main,1,1,1,negative,positive,j,j,1,0.7768543999409303,312.15322800003923,313.1684109000489,313.13515540002845,None,312.15322800003923,None,312.15322800003923,None,312.15322800003923,None,313.91763136999214,None,313.91763136999214,None,313.91763136999214,None,,,,,,,,,,,127,33,Female,2022-05-11_09h34.51.256,Boat,2022.1.1,59.95965911338224,
positive,neutral,2,l,j,,,,,,,,,4,13,85,17,,,,,,,,,,,,,,,,,,,,,,,,main,2,2,2,neutral,positive,j,j,1,0.7360998999793082,313.9346445000265,314.9349765999941,314.9172775000334,None,313.9346445000265,None,313.9346445000265,None,313.9346445000265,None,315.6555067699868,None,315.6555067699868,None,315.6555067699868,None,,,,,,,,,,,127,33,Female,2022-05-11_09h34.51.256,Boat,2022.1.1,59.95965911338224,
neutral,positive,2,k,k,,,,,,,,,4,14,86,13,,,,,,,,,,,,,,,,,,,,,,,,main,1,1,2,positive,neutral,k,k,1,0.7389202999183908,315.6713594000321,316.6850121000316,316.651398899965,None,315.6713594000321,None,315.6713594000321,None,315.6713594000321,None,317.3988905700156,None,317.3988905700156,None,317.3988905700156,None,,,,,,,,,,,127,33,Female,2022-05-11_09h34.51.256,Boat,2022.1.1,59.95965911338224,
positive,negative,2,l,j,,,,,,,,,4,15,87,14,,,,,,,,,,,,,,,,,,,,,,,,main,1,1,2,negative,positive,j,j,1,0.7976741000311449,317.4176538999891,318.4343079000246,318.3963185000466,None,317.4176538999891,None,317.4176538999891,None,317.4176538999891,None,319.19938476998357,None,319.19938476998357,None,319.19938476998357,None,,,,,,,,,,,127,33,Female,2022-05-11_09h34.51.256,Boat,2022.1.1,59.95965911338224,
positive,positive,2,l,j,,,,,,,,,4,16,88,11,,,,,,,,,,,,,,,,,,,,,,,,main,2,2,2,positive,positive,j,j,1,0.7155499999644235,319.2168572000228,320.2327372999862,320.2128921999829,None,319.2168572000228,None,319.2168572000228,None,319.2168572000228,None,320.9173315700376,None,320.9173315700376,None,320.9173315700376,None,,,,,,,,,,,127,33,Female,2022-05-11_09h34.51.256,Boat,2022.1.1,59.95965911338224,
positive,neutral,1,l,j,,,,,,,,,4,17,89,8,,,,,,,,,,,,,,,,,,,,,,,,main,1,1,1,neutral,positive,j,j,1,0.5575769999995828,320.93416249996517,321.94651080004405,321.90123449999373,None,320.93416249996517,None,320.93416249996517,None,320.93416249996517,None,322.4786355700111,None,322.4786355700111,None,322.4786355700111,None,,,,,,,,,,,127,33,Female,2022-05-11_09h34.51.256,Boat,2022.1.1,59.95965911338224,
negative,neutral,2,j,l,,,,,,,,,5,0,90,12,,,,,,,,,,,,,,,,,,,,,,,,main,2,2,2,neutral,negative,l,l,1,0.6028672000393271,322.4966952999821,323.5127624999732,323.4684299000073,None,322.4966952999821,None,322.4966952999821,None,322.4966952999821,None,324.0831701699411,None,324.0831701699411,None,324.0831701699411,None,,,,,,,,,,,127,33,Female,2022-05-11_09h34.51.256,Boat,2022.1.1,59.95965911338224,
negative,negative,1,j,l,,,,,,,,,5,1,91,0,,,,,,,,,,,,,,,,,,,,,,,,main,2,2,1,negative,negative,l,l,1,0.5444946000352502,324.10063839994837,325.10123329993803,325.08478140004445,None,324.10063839994837,None,324.10063839994837,None,324.10063839994837,None,325.6316291700117,None,325.6316291700117,None,325.6316291700117,None,,,,,,,,,,,127,33,Female,2022-05-11_09h34.51.256,Boat,2022.1.1,59.95965911338224,
positive,negative,2,l,j,,,,,,,,,5,2,92,14,,,,,,,,,,,,,,,,,,,,,,,,main,1,1,2,negative,positive,j,j,1,0.7677127999486402,325.6504421000136,326.65221119998023,326.6353822000092,None,325.6504421000136,None,325.6504421000136,None,325.6504421000136,None,327.4010533699533,None,327.4010533699533,None,327.4010533699533,None,,,,,,,,,,,127,33,Female,2022-05-11_09h34.51.256,Boat,2022.1.1,59.95965911338224,
positive,neutral,1,l,j,,,,,,,,,5,3,93,8,,,,,,,,,,,,,,,,,,,,,,,,main,2,2,1,neutral,positive,j,j,1,0.6727310999995098,327.4170029000379,328.42999970004894,328.4098532999633,None,327.4170029000379,None,327.4170029000379,None,327.4170029000379,None,329.07814977001397,None,329.07814977001397,None,329.07814977001397,None,,,,,,,,,,,127,33,Female,2022-05-11_09h34.51.256,Boat,2022.1.1,59.95965911338224,
negative,positive,2,j,l,,,,,,,,,5,4,94,15,,,,,,,,,,,,,,,,,,,,,,,,main,2,2,2,positive,negative,l,l,1,0.622959200059995,329.0948919999646,330.1087813000195,330.0723147999961,None,329.0948919999646,None,329.0948919999646,None,329.0948919999646,None,330.7018710699398,None,330.7018710699398,None,330.7018710699398,None,,,,,,,,,,,127,33,Female,2022-05-11_09h34.51.256,Boat,2022.1.1,59.95965911338224,
positive,positive,1,l,j,,,,,,,,,5,5,95,2,,,,,,,,,,,,,,,,,,,,,,,,main,1,1,1,positive,positive,j,j,1,0.725437399931252,330.71903289994225,331.71832320000976,331.70175440004095,None,330.71903289994225,None,330.71903289994225,None,330.71903289994225,None,332.4319470700342,None,332.4319470700342,None,332.4319470700342,None,,,,,,,,,,,127,33,Female,2022-05-11_09h34.51.256,Boat,2022.1.1,59.95965911338224,
positive,negative,1,l,j,,,,,,,,,5,6,96,5,,,,,,,,,,,,,,,,,,,,,,,,main,1,1,1,negative,positive,j,j,1,0.5941908999811858,332.4507668999722,333.45989910000935,333.4342704999726,None,332.4507668999722,None,332.4507668999722,None,332.4507668999722,None,334.0279644699534,None,334.0279644699534,None,334.0279644699534,None,,,,,,,,,,,127,33,Female,2022-05-11_09h34.51.256,Boat,2022.1.1,59.95965911338224,
neutral,neutral,2,k,k,,,,,,,,,5,7,97,10,,,,,,,,,,,,,,,,,,,,,,,,main,2,2,2,neutral,neutral,k,k,1,0.6369055000832304,334.04615409998223,335.0543172999751,335.0185744999908,None,334.04615409998223,None,334.04615409998223,None,334.04615409998223,None,335.66737367000894,None,335.66737367000894,None,335.66737367000894,None,,,,,,,,,,,127,33,Female,2022-05-11_09h34.51.256,Boat,2022.1.1,59.95965911338224,
neutral,neutral,1,k,k,,,,,,,,,5,8,98,1,,,,,,,,,,,,,,,,,,,,,,,,main,2,2,1,neutral,neutral,k,k,1,0.5087633000221103,335.6843455999624,336.6935418000212,336.66880610003136,None,335.6843455999624,None,335.6843455999624,None,335.6843455999624,None,337.1801014699507,None,337.1801014699507,None,337.1801014699507,None,,,,,,,,,,,127,33,Female,2022-05-11_09h34.51.256,Boat,2022.1.1,59.95965911338224,
neutral,positive,2,k,k,,,,,,,,,5,9,99,13,,,,,,,,,,,,,,,,,,,,,,,,main,1,1,2,positive,neutral,k,k,1,0.5147256999043748,337.1957911000354,338.2023209000472,338.1688337000087,None,337.1957911000354,None,337.1957911000354,None,337.1957911000354,None,338.69743247001895,None,338.69743247001895,None,338.69743247001895,None,,,,,,,,,,,127,33,Female,2022-05-11_09h34.51.256,Boat,2022.1.1,59.95965911338224,
negative,neutral,1,j,l,,,,,,,,,5,10,100,3,,,,,,,,,,,,,,,,,,,,,,,,main,1,1,1,neutral,negative,l,l,1,0.517247200012207,338.7167393999407,339.71883389994036,339.68541170004755,None,338.7167393999407,None,338.7167393999407,None,338.7167393999407,None,340.2167892700294,None,340.2167892700294,None,340.2167892700294,None,,,,,,,,,,,127,33,Female,2022-05-11_09h34.51.256,Boat,2022.1.1,59.95965911338224,
positive,positive,2,l,j,,,,,,,,,5,11,101,11,,,,,,,,,,,,,,,,,,,,,,,,main,2,2,2,positive,positive,j,j,1,0.6229540000203997,340.23427170002833,341.2493826999562,341.2299033999443,None,340.23427170002833,None,340.23427170002833,None,340.23427170002833,None,341.84027856993487,None,341.84027856993487,None,341.84027856993487,None,,,,,,,,,,,127,33,Female,2022-05-11_09h34.51.256,Boat,2022.1.1,59.95965911338224,
negative,positive,1,j,l,,,,,,,,,5,12,102,6,,,,,,,,,,,,,,,,,,,,,,,,main,2,2,1,positive,negative,l,l,1,0.6594242999562994,341.8577072999906,342.86931700003333,342.83531310001854,None,341.8577072999906,None,341.8577072999906,None,341.8577072999906,None,343.50245787003075,None,343.50245787003075,None,343.50245787003075,None,,,,,,,,,,,127,33,Female,2022-05-11_09h34.51.256,Boat,2022.1.1,59.95965911338224,
negative,negative,2,j,l,,,,,,,,,5,13,103,9,,,,,,,,,,,,,,,,,,,,,,,,main,2,2,2,negative,negative,l,l,1,0.5675000000046566,343.5188900999492,344.5190498000011,344.5021077999845,None,343.5188900999492,None,343.5188900999492,None,343.5188900999492,None,345.07285286996046,None,345.07285286996046,None,345.07285286996046,None,,,,,,,,,,,127,33,Female,2022-05-11_09h34.51.256,Boat,2022.1.1,59.95965911338224,
positive,neutral,2,l,j,,,,,,,,,5,14,104,17,,,,,,,,,,,,,,,,,,,,,,,,main,2,2,2,neutral,positive,j,j,1,0.607767999987118,345.08899269998074,346.11030029994436,346.06382120004855,None,345.08899269998074,None,345.08899269998074,None,345.08899269998074,None,346.68464877000076,None,346.68464877000076,None,346.68464877000076,None,,,,,,,,,,,127,33,Female,2022-05-11_09h34.51.256,Boat,2022.1.1,59.95965911338224,
neutral,negative,2,k,k,,,,,,,,,5,15,105,16,,,,,,,,,,,,,,,,,,,,,,,,main,2,2,2,negative,neutral,k,k,1,0.7190590999089181,346.7009474999504,347.7021311999997,347.68557289999444,None,346.7009474999504,None,346.7009474999504,None,346.7009474999504,None,348.40618397002106,None,348.40618397002106,None,348.40618397002106,None,,,,,,,,,,,127,33,Female,2022-05-11_09h34.51.256,Boat,2022.1.1,59.95965911338224,
neutral,positive,1,k,k,,,,,,,,,5,16,106,4,,,,,,,,,,,,,,,,,,,,,,,,main,1,1,1,positive,neutral,k,k,1,0.6294251000508666,348.423457799945,349.4330111000454,349.41347819997463,None,348.423457799945,None,348.423457799945,None,348.423457799945,None,350.0392499699723,None,350.0392499699723,None,350.0392499699723,None,,,,,,,,,,,127,33,Female,2022-05-11_09h34.51.256,Boat,2022.1.1,59.95965911338224,
neutral,negative,1,k,k,,,,,,,,,5,17,107,7,,,,,,,,,,,,,,,,,,,,,,,,main,2,2,1,negative,neutral,k,k,1,0.5114866000367329,350.05549719999544,351.0713595999405,351.03544659994077,None,350.05549719999544,None,350.05549719999544,None,350.05549719999544,None,351.55327146998604,None,351.55327146998604,None,351.55327146998604,None,,,,,,,,,,,127,33,Female,2022-05-11_09h34.51.256,Boat,2022.1.1,59.95965911338224,
positive,negative,1,l,j,,,,,,,,,6,0,108,5,,,,,,,,,,,,,,,,,,,,,,,,main,1,1,1,negative,positive,j,j,1,0.7307324000867084,351.5696448000381,352.57691429997794,352.55292359995656,None,351.5696448000381,None,351.5696448000381,None,351.5696448000381,None,353.28714266999157,None,353.28714266999157,None,353.28714266999157,None,,,,,,,,,,,127,33,Female,2022-05-11_09h34.51.256,Boat,2022.1.1,59.95965911338224,
negative,positive,2,j,l,,,,,,,,,6,1,109,15,,,,,,,,,,,,,,,,,,,,,,,,main,2,2,2,positive,negative,l,j,0,0.6393622000468895,353.3034031999996,354.30288430000655,354.2861964999465,None,353.3034031999996,None,353.3034031999996,None,353.3034031999996,None,354.93645929999184,None,354.93645929999184,None,354.93645929999184,None,,,,,,,,,,,127,33,Female,2022-05-11_09h34.51.256,Boat,2022.1.1,59.95965911338224,
neutral,positive,2,k,k,,,,,,,,,6,2,110,13,,,,,,,,,,,,,,,,,,,,,,,,main,2,2,2,positive,neutral,k,k,1,0.7451233000028878,355.95570329995826,356.9690724000102,356.95057949994225,None,355.95570329995826,None,355.95570329995826,None,355.95570329995826,None,357.6859864699421,None,357.6859864699421,None,357.6859864699421,None,,,,,,,,,,,127,33,Female,2022-05-11_09h34.51.256,Boat,2022.1.1,59.95965911338224,
positive,positive,2,l,j,,,,,,,,,6,3,111,11,,,,,,,,,,,,,,,,,,,,,,,,main,2,2,2,positive,positive,j,j,1,0.7596493000164628,357.7026673000073,358.7040556999855,358.6871736999601,None,357.7026673000073,None,357.7026673000073,None,357.7026673000073,None,359.4499445699388,None,359.4499445699388,None,359.4499445699388,None,,,,,,,,,,,127,33,Female,2022-05-11_09h34.51.256,Boat,2022.1.1,59.95965911338224,
positive,negative,2,l,j,,,,,,,,,6,4,112,14,,,,,,,,,,,,,,,,,,,,,,,,main,1,1,2,negative,positive,j,j,1,0.6975722999777645,359.46812189999036,360.4770826000022,360.4360356000252,None,359.46812189999036,None,359.46812189999036,None,359.46812189999036,None,361.1505270700203,None,361.1505270700203,None,361.1505270700203,None,,,,,,,,,,,127,33,Female,2022-05-11_09h34.51.256,Boat,2022.1.1,59.95965911338224,
neutral,neutral,1,k,k,,,,,,,,,6,5,113,1,,,,,,,,,,,,,,,,,,,,,,,,main,2,2,1,neutral,neutral,k,k,1,0.5141330000478774,361.1679312000051,362.17199179995805,362.1531049000332,None,361.1679312000051,None,361.1679312000051,None,361.1679312000051,None,362.667632269999,None,362.667632269999,None,362.667632269999,None,,,,,,,,,,,127,33,Female,2022-05-11_09h34.51.256,Boat,2022.1.1,59.95965911338224,
neutral,neutral,2,k,k,,,,,,,,,6,6,114,10,,,,,,,,,,,,,,,,,,,,,,,,main,2,2,2,neutral,neutral,k,k,1,0.5481150000123307,362.6833920000354,363.68643909995444,363.66923330002464,None,362.6833920000354,None,362.6833920000354,None,362.6833920000354,None,364.2183943700278,None,364.2183943700278,None,364.2183943700278,None,,,,,,,,,,,127,33,Female,2022-05-11_09h34.51.256,Boat,2022.1.1,59.95965911338224,
negative,positive,1,j,l,,,,,,,,,6,7,115,6,,,,,,,,,,,,,,,,,,,,,,,,main,1,1,1,positive,negative,l,l,1,0.625503999995999,364.2344526000088,365.24723440001253,365.2272038999945,None,364.2344526000088,None,364.2344526000088,None,364.2344526000088,None,365.84782937003763,None,365.84782937003763,None,365.84782937003763,None,,,,,,,,,,,127,33,Female,2022-05-11_09h34.51.256,Boat,2022.1.1,59.95965911338224,
positive,positive,1,l,j,,,,,,,,,6,8,116,2,,,,,,,,,,,,,,,,,,,,,,,,main,2,2,1,positive,positive,j,j,1,0.6093868999741971,365.86713180004153,366.8701843000017,366.85063250001986,None,365.86713180004153,None,365.86713180004153,None,365.86713180004153,None,367.4573126700474,None,367.4573126700474,None,367.4573126700474,None,,,,,,,,,,,127,33,Female,2022-05-11_09h34.51.256,Boat,2022.1.1,59.95965911338224,
negative,negative,1,j,l,,,,,,,,,6,9,117,0,,,,,,,,,,,,,,,,,,,,,,,,main,2,2,1,negative,negative,l,l,1,0.6835998999886215,367.47354639996774,368.4859196000034,368.4520725000184,None,367.47354639996774,None,367.47354639996774,None,367.47354639996774,None,369.1449910700088,None,369.1449910700088,None,369.1449910700088,None,,,,,,,,,,,127,33,Female,2022-05-11_09h34.51.256,Boat,2022.1.1,59.95965911338224,
positive,neutral,2,l,j,,,,,,,,,6,10,118,17,,,,,,,,,,,,,,,,,,,,,,,,main,2,2,2,neutral,positive,j,j,1,0.6159104999387637,369.16251469997223,370.1665150000481,370.14731969998684,None,369.16251469997223,None,369.16251469997223,None,369.16251469997223,None,370.7648246700177,None,370.7648246700177,None,370.7648246700177,None,,,,,,,,,,,127,33,Female,2022-05-11_09h34.51.256,Boat,2022.1.1,59.95965911338224,
neutral,positive,1,k,k,,,,,,,,,6,11,119,4,,,,,,,,,,,,,,,,,,,,,,,,main,2,2,1,positive,neutral,k,k,1,0.6549287000671029,370.7838480999926,371.78800830000546,371.7528176000342,None,370.7838480999926,None,370.7838480999926,None,370.7838480999926,None,372.420762369968,None,372.420762369968,None,372.420762369968,None,,,,,,,,,,,127,33,Female,2022-05-11_09h34.51.256,Boat,2022.1.1,59.95965911338224,
negative,negative,2,j,l,,,,,,,,,6,12,120,9,,,,,,,,,,,,,,,,,,,,,,,,main,2,2,2,negative,negative,l,l,1,0.861213400028646,372.43657539994456,373.4606219000416,373.4141453000484,None,372.43657539994456,None,372.43657539994456,None,372.43657539994456,None,374.2849813699489,None,374.2849813699489,None,374.2849813699489,None,,,,,,,,,,,127,33,Female,2022-05-11_09h34.51.256,Boat,2022.1.1,59.95965911338224,
neutral,negative,2,k,k,,,,,,,,,6,13,121,16,,,,,,,,,,,,,,,,,,,,,,,,main,2,2,2,negative,neutral,k,k,1,0.7037343999836594,374.3023080000421,375.30376709997654,375.2872273999965,None,374.3023080000421,None,374.3023080000421,None,374.3023080000421,None,375.990102570015,None,375.990102570015,None,375.990102570015,None,,,,,,,,,,,127,33,Female,2022-05-11_09h34.51.256,Boat,2022.1.1,59.95965911338224,
negative,neutral,1,j,l,,,,,,,,,6,14,122,3,,,,,,,,,,,,,,,,,,,,,,,,main,2,2,1,neutral,negative,l,l,1,0.6358528001001105,376.00719789997675,377.01994090003427,376.98371589998715,None,376.00719789997675,None,376.00719789997675,None,376.00719789997675,None,377.63112996993584,None,377.63112996993584,None,377.63112996993584,None,,,,,,,,,,,127,33,Female,2022-05-11_09h34.51.256,Boat,2022.1.1,59.95965911338224,
negative,neutral,2,j,l,,,,,,,,,6,15,123,12,,,,,,,,,,,,,,,,,,,,,,,,main,2,2,2,neutral,negative,l,l,1,0.6090965999756008,377.65019459999166,378.66100079996977,378.61943099997006,None,377.65019459999166,None,377.65019459999166,None,377.65019459999166,None,379.2383296700194,None,379.2383296700194,None,379.2383296700194,None,,,,,,,,,,,127,33,Female,2022-05-11_09h34.51.256,Boat,2022.1.1,59.95965911338224,
neutral,negative,1,k,k,,,,,,,,,6,16,124,7,,,,,,,,,,,,,,,,,,,,,,,,main,2,2,1,negative,neutral,k,k,1,0.6496873000869527,379.26652760000434,380.27691260003485,380.2513729999773,None,379.26652760000434,None,379.26652760000434,None,379.26652760000434,None,380.89474907002875,None,380.89474907002875,None,380.89474907002875,None,,,,,,,,,,,127,33,Female,2022-05-11_09h34.51.256,Boat,2022.1.1,59.95965911338224,
positive,neutral,1,l,j,,,,,,,,,6,17,125,8,,,,,,,,,,,,,,,,,,,,,,,,main,2,2,1,neutral,positive,j,j,1,0.7815331999445334,380.91185210004915,381.9186093000462,381.89870360004716,None,380.91185210004915,None,380.91185210004915,None,380.91185210004915,None,382.679606570024,None,382.679606570024,None,382.679606570024,None,,,,,,,,,,,127,33,Female,2022-05-11_09h34.51.256,Boat,2022.1.1,59.95965911338224,
negative,positive,2,j,l,,,,,,,,,7,0,126,15,,,,,,,,,,,,,,,,,,,,,,,,main,1,1,2,positive,negative,l,l,1,0.8127952000359073,382.69434709998313,383.7110835999483,383.6864956000354,None,382.69434709998313,None,382.69434709998313,None,382.69434709998313,None,384.4938100699568,None,384.4938100699568,None,384.4938100699568,None,,,,,,,,,,,127,33,Female,2022-05-11_09h34.51.256,Boat,2022.1.1,59.95965911338224,
negative,neutral,1,j,l,,,,,,,,,7,1,127,3,,,,,,,,,,,,,,,,,,,,,,,,main,2,2,1,neutral,negative,l,l,1,0.7029291999060661,384.51279389997944,385.51742459996603,385.4959362000227,None,384.51279389997944,None,384.51279389997944,None,384.51279389997944,None,386.1970856699394,None,386.1970856699394,None,386.1970856699394,None,,,,,,,,,,,127,33,Female,2022-05-11_09h34.51.256,Boat,2022.1.1,59.95965911338224,
neutral,negative,2,k,k,,,,,,,,,7,2,128,16,,,,,,,,,,,,,,,,,,,,,,,,main,2,2,2,negative,neutral,k,k,1,0.598587799933739,386.222190600005,387.24443259998225,387.20324960001744,None,386.222190600005,None,386.222190600005,None,386.222190600005,None,387.8016434700461,None,387.8016434700461,None,387.8016434700461,None,,,,,,,,,,,127,33,Female,2022-05-11_09h34.51.256,Boat,2022.1.1,59.95965911338224,
positive,positive,1,l,j,,,,,,,,,7,3,129,2,,,,,,,,,,,,,,,,,,,,,,,,main,1,1,1,positive,positive,j,j,1,0.652591000078246,387.8192361999536,388.8201871999772,388.8032567000482,None,387.8192361999536,None,387.8192361999536,None,387.8192361999536,None,389.45670316994654,None,389.45670316994654,None,389.45670316994654,None,,,,,,,,,,,127,33,Female,2022-05-11_09h34.51.256,Boat,2022.1.1,59.95965911338224,
negative,negative,2,j,l,,,,,,,,,7,4,130,9,,,,,,,,,,,,,,,,,,,,,,,,main,1,1,2,negative,negative,l,l,1,0.5314118000678718,389.4714953999501,390.4751150000375,390.45749629999045,None,389.4714953999501,None,389.4714953999501,None,389.4714953999501,None,390.9903118699789,None,390.9903118699789,None,390.9903118699789,None,,,,,,,,,,,127,33,Female,2022-05-11_09h34.51.256,Boat,2022.1.1,59.95965911338224,
negative,neutral,2,j,l,,,,,,,,,7,5,131,12,,,,,,,,,,,,,,,,,,,,,,,,main,2,2,2,neutral,negative,l,l,1,0.9676731000654399,391.00795390002895,392.0278710999992,391.98663800000213,None,391.00795390002895,None,391.00795390002895,None,391.00795390002895,None,392.9617272700183,None,392.9617272700183,None,392.9617272700183,None,,,,,,,,,,,127,33,Female,2022-05-11_09h34.51.256,Boat,2022.1.1,59.95965911338224,
positive,neutral,1,l,j,,,,,,,,,7,6,132,8,,,,,,,,,,,,,,,,,,,,,,,,main,1,1,1,neutral,positive,j,j,1,0.617144100018777,392.9777457000455,393.9864838999929,393.9500629999675,None,392.9777457000455,None,392.9777457000455,None,392.9777457000455,None,394.581786369998,None,394.581786369998,None,394.581786369998,None,,,,,,,,,,,127,33,Female,2022-05-11_09h34.51.256,Boat,2022.1.1,59.95965911338224,
neutral,positive,2,k,k,,,,,,,,,7,7,133,13,,,,,,,,,,,,,,,,,,,,,,,,main,2,2,2,positive,neutral,k,k,1,0.6316481999820098,394.600981399999,395.6038290000288,395.5700759999454,None,394.600981399999,None,394.600981399999,None,394.600981399999,None,396.21520027003714,None,396.21520027003714,None,396.21520027003714,None,,,,,,,,,,,127,33,Female,2022-05-11_09h34.51.256,Boat,2022.1.1,59.95965911338224,
positive,negative,2,l,j,,,,,,,,,7,8,134,14,,,,,,,,,,,,,,,,,,,,,,,,main,1,1,2,negative,positive,j,j,1,0.6854940999764949,396.23097359994426,397.23694139998406,397.21923709998373,None,396.23097359994426,None,396.23097359994426,None,396.23097359994426,None,397.90177606998475,None,397.90177606998475,None,397.90177606998475,None,,,,,,,,,,,127,33,Female,2022-05-11_09h34.51.256,Boat,2022.1.1,59.95965911338224,
neutral,positive,1,k,k,,,,,,,,,7,9,135,4,,,,,,,,,,,,,,,,,,,,,,,,main,2,2,1,positive,neutral,k,l,0,0.5289804000640288,397.91945239994675,398.9377968000481,398.9003078000387,None,397.91945239994675,None,397.91945239994675,None,397.91945239994675,None,399.4405145000201,None,399.4405145000201,None,399.4405145000201,None,,,,,,,,,,,127,33,Female,2022-05-11_09h34.51.256,Boat,2022.1.1,59.95965911338224,
negative,negative,1,j,l,,,,,,,,,7,10,136,0,,,,,,,,,,,,,,,,,,,,,,,,main,1,1,1,negative,negative,l,l,1,0.6689046999672428,400.4553752000211,401.4677372999722,401.44825849996414,None,400.4553752000211,None,400.4553752000211,None,400.4553752000211,None,402.1115090700099,None,402.1115090700099,None,402.1115090700099,None,,,,,,,,,,,127,33,Female,2022-05-11_09h34.51.256,Boat,2022.1.1,59.95965911338224,
neutral,negative,1,k,k,,,,,,,,,7,11,137,7,,,,,,,,,,,,,,,,,,,,,,,,main,1,1,1,negative,neutral,k,k,1,0.5473854000447318,402.1277807999868,403.13664130005054,403.12007609999273,None,402.1277807999868,None,402.1277807999868,None,402.1277807999868,None,403.6613138699671,None,403.6613138699671,None,403.6613138699671,None,,,,,,,,,,,127,33,Female,2022-05-11_09h34.51.256,Boat,2022.1.1,59.95965911338224,
positive,positive,2,l,j,,,,,,,,,7,12,138,11,,,,,,,,,,,,,,,,,,,,,,,,main,2,2,2,positive,positive,j,j,1,0.6246617999859154,403.6768515999429,404.6853993999539,404.6651718999492,None,403.6768515999429,None,403.6768515999429,None,403.6768515999429,None,405.2860900700092,None,405.2860900700092,None,405.2860900700092,None,,,,,,,,,,,127,33,Female,2022-05-11_09h34.51.256,Boat,2022.1.1,59.95965911338224,
neutral,neutral,1,k,k,,,,,,,,,7,13,139,1,,,,,,,,,,,,,,,,,,,,,,,,main,2,2,1,neutral,neutral,k,k,1,0.6022107000462711,405.3023965000175,406.3192392999772,406.29843450000044,None,405.3023965000175,None,405.3023965000175,None,405.3023965000175,None,406.89360267003065,None,406.89360267003065,None,406.89360267003065,None,,,,,,,,,,,127,33,Female,2022-05-11_09h34.51.256,Boat,2022.1.1,59.95965911338224,
negative,positive,1,j,l,,,,,,,,,7,14,140,6,,,,,,,,,,,,,,,,,,,,,,,,main,2,2,1,positive,negative,l,l,1,0.6629744999809191,406.9085430999985,407.920259000035,407.9032916999422,None,406.9085430999985,None,406.9085430999985,None,406.9085430999985,None,408.5566543700173,None,408.5566543700173,None,408.5566543700173,None,,,,,,,,,,,127,33,Female,2022-05-11_09h34.51.256,Boat,2022.1.1,59.95965911338224,
positive,neutral,2,l,j,,,,,,,,,7,15,141,17,,,,,,,,,,,,,,,,,,,,,,,,main,2,2,2,neutral,positive,j,j,1,0.6910939000081271,408.57205620000605,409.585987700033,409.565707199974,None,408.57205620000605,None,408.57205620000605,None,408.57205620000605,None,410.25239136999005,None,410.25239136999005,None,410.25239136999005,None,,,,,,,,,,,127,33,Female,2022-05-11_09h34.51.256,Boat,2022.1.1,59.95965911338224,
neutral,neutral,2,k,k,,,,,,,,,7,16,142,10,,,,,,,,,,,,,,,,,,,,,,,,main,2,2,2,neutral,neutral,k,k,1,0.6117581999860704,410.26903640001547,411.27133929997217,411.23749950004276,None,410.26903640001547,None,410.26903640001547,None,410.26903640001547,None,411.8674175699474,None,411.8674175699474,None,411.8674175699474,None,,,,,,,,,,,127,33,Female,2022-05-11_09h34.51.256,Boat,2022.1.1,59.95965911338224,
positive,negative,1,l,j,,,,,,,,,7,17,143,5,,,,,,,,,,,,,,,,,,,,,,,,main,2,2,1,negative,positive,j,j,1,0.6523812999948859,411.885628500022,412.8869701999938,412.8703075000085,None,411.885628500022,None,411.885628500022,None,411.885628500022,None,413.5222797699738,None,413.5222797699738,None,413.5222797699738,None,,,,,,,,,,,127,33,Female,2022-05-11_09h34.51.256,Boat,2022.1.1,59.95965911338224,
negative,positive,2,j,l,,,,,,,,,8,0,144,15,,,,,,,,,,,,,,,,,,,,,,,,main,1,1,2,positive,negative,l,l,1,0.6088451999239624,413.53853429993615,414.55390990001615,414.5202903000172,None,413.53853429993615,None,413.53853429993615,None,413.53853429993615,None,415.1351592699997,None,415.1351592699997,None,415.1351592699997,None,,,,,,,,,,,127,33,Female,2022-05-11_09h34.51.256,Boat,2022.1.1,59.95965911338224,
positive,neutral,1,l,j,,,,,,,,,8,1,145,8,,,,,,,,,,,,,,,,,,,,,,,,main,2,2,1,neutral,positive,j,j,1,0.6381403000559658,415.15266160003375,416.15417180000804,416.1373245000141,None,415.15266160003375,None,415.15266160003375,None,415.15266160003375,None,416.7751182699343,None,416.7751182699343,None,416.7751182699343,None,,,,,,,,,,,127,33,Female,2022-05-11_09h34.51.256,Boat,2022.1.1,59.95965911338224,
neutral,neutral,2,k,k,,,,,,,,,8,2,146,10,,,,,,,,,,,,,,,,,,,,,,,,main,2,2,2,neutral,neutral,k,k,1,0.6466662000166252,416.7914177000057,417.8099528000457,417.7732143000467,None,416.7914177000057,None,416.7914177000057,None,416.7914177000057,None,418.42350627002304,None,418.42350627002304,None,418.42350627002304,None,,,,,,,,,,,127,33,Female,2022-05-11_09h34.51.256,Boat,2022.1.1,59.95965911338224,
negative,negative,1,j,l,,,,,,,,,8,3,147,0,,,,,,,,,,,,,,,,,,,,,,,,main,2,2,1,negative,negative,l,l,1,0.6328108999878168,418.43877769995015,419.45093789999373,419.4315576000372,None,418.43877769995015,None,418.43877769995015,None,418.43877769995015,None,420.0582238699775,None,420.0582238699775,None,420.0582238699775,None,,,,,,,,,,,127,33,Female,2022-05-11_09h34.51.256,Boat,2022.1.1,59.95965911338224,
positive,negative,1,l,j,,,,,,,,,8,4,148,5,,,,,,,,,,,,,,,,,,,,,,,,main,1,1,1,negative,positive,j,j,1,0.6375212999992073,420.0748626999557,421.0841713999398,421.06505950004794,None,420.0748626999557,None,420.0748626999557,None,420.0748626999557,None,421.6990139699541,None,421.6990139699541,None,421.6990139699541,None,,,,,,,,,,,127,33,Female,2022-05-11_09h34.51.256,Boat,2022.1.1,59.95965911338224,
neutral,neutral,1,k,k,,,,,,,,,8,5,149,1,,,,,,,,,,,,,,,,,,,,,,,,main,1,1,1,neutral,neutral,k,k,1,0.5730887999525294,421.71974159998354,422.7207720000297,422.68727380002383,None,421.71974159998354,None,421.71974159998354,None,421.71974159998354,None,423.27428266997447,None,423.27428266997447,None,423.27428266997447,None,,,,,,,,,,,127,33,Female,2022-05-11_09h34.51.256,Boat,2022.1.1,59.95965911338224,
negative,positive,1,j,l,,,,,,,,,8,6,150,6,,,,,,,,,,,,,,,,,,,,,,,,main,2,2,1,positive,negative,l,l,1,0.8342756000347435,423.2902589000296,424.3121478999965,424.2704633999383,None,423.2902589000296,None,423.2902589000296,None,423.2902589000296,None,425.1099800700089,None,425.1099800700089,None,425.1099800700089,None,,,,,,,,,,,127,33,Female,2022-05-11_09h34.51.256,Boat,2022.1.1,59.95965911338224,
positive,neutral,2,l,j,,,,,,,,,8,7,151,17,,,,,,,,,,,,,,,,,,,,,,,,main,1,1,2,neutral,positive,j,j,1,0.6949383999453858,425.13123780000024,426.1345803999575,426.1150994000491,None,425.13123780000024,None,425.13123780000024,None,425.13123780000024,None,426.80793316997585,None,426.80793316997585,None,426.80793316997585,None,,,,,,,,,,,127,33,Female,2022-05-11_09h34.51.256,Boat,2022.1.1,59.95965911338224,
neutral,positive,2,k,k,,,,,,,,,8,8,152,13,,,,,,,,,,,,,,,,,,,,,,,,main,1,1,2,positive,neutral,k,k,1,0.6250030000228435,426.82333819998894,427.83215369994286,427.81191000004765,None,426.82333819998894,None,426.82333819998894,None,426.82333819998894,None,428.4369028699351,None,428.4369028699351,None,428.4369028699351,None,,,,,,,,,,,127,33,Female,2022-05-11_09h34.51.256,Boat,2022.1.1,59.95965911338224,
neutral,negative,1,k,k,,,,,,,,,8,9,153,7,,,,,,,,,,,,,,,,,,,,,,,,main,2,2,1,negative,neutral,k,k,1,0.6629121999721974,428.45185189996846,429.4582865999546,429.42129329999443,None,428.45185189996846,None,428.45185189996846,None,428.45185189996846,None,430.10347526995463,None,430.10347526995463,None,430.10347526995463,None,,,,,,,,,,,127,33,Female,2022-05-11_09h34.51.256,Boat,2022.1.1,59.95965911338224,
negative,neutral,2,j,l,,,,,,,,,8,10,154,12,,,,,,,,,,,,,,,,,,,,,,,,main,2,2,2,neutral,negative,l,l,1,0.7313712999457493,430.1203306999523,431.1284935999429,431.10383759997785,None,430.1203306999523,None,430.1203306999523,None,430.1203306999523,None,431.8374744700035,None,431.8374744700035,None,431.8374744700035,None,,,,,,,,,,,127,33,Female,2022-05-11_09h34.51.256,Boat,2022.1.1,59.95965911338224,
positive,positive,1,l,j,,,,,,,,,8,11,155,2,,,,,,,,,,,,,,,,,,,,,,,,main,2,2,1,positive,positive,j,j,1,0.646176700014621,431.85288499994203,432.85433849995025,432.83733430004213,None,431.85288499994203,None,431.85288499994203,None,431.85288499994203,None,433.48541786996645,None,433.48541786996645,None,433.48541786996645,None,,,,,,,,,,,127,33,Female,2022-05-11_09h34.51.256,Boat,2022.1.1,59.95965911338224,
negative,negative,2,j,l,,,,,,,,,8,12,156,9,,,,,,,,,,,,,,,,,,,,,,,,main,1,1,2,negative,negative,l,l,1,0.8344365999801084,433.5027850000188,434.5038357999874,434.48513369995635,None,433.5027850000188,None,433.5027850000188,None,433.5027850000188,None,435.3229300699662,None,435.3229300699662,None,435.3229300699662,None,,,,,,,,,,,127,33,Female,2022-05-11_09h34.51.256,Boat,2022.1.1,59.95965911338224,
neutral,positive,1,k,k,,,,,,,,,8,13,157,4,,,,,,,,,,,,,,,,,,,,,,,,main,2,2,1,positive,neutral,k,k,1,0.6759142000228167,435.3395817000419,436.33909070002846,436.3220767000457,None,435.3395817000419,None,435.3395817000419,None,435.3395817000419,None,437.0035171699477,None,437.0035171699477,None,437.0035171699477,None,,,,,,,,,,,127,33,Female,2022-05-11_09h34.51.256,Boat,2022.1.1,59.95965911338224,
neutral,negative,2,k,k,,,,,,,,,8,14,158,16,,,,,,,,,,,,,,,,,,,,,,,,main,1,1,2,negative,neutral,k,k,1,0.6720065999543294,437.02005940000527,438.0490127999801,438.0021515999688,None,437.02005940000527,None,437.02005940000527,None,437.02005940000527,None,438.67898346993604,None,438.67898346993604,None,438.67898346993604,None,,,,,,,,,,,127,33,Female,2022-05-11_09h34.51.256,Boat,2022.1.1,59.95965911338224,
positive,negative,2,l,j,,,,,,,,,8,15,159,14,,,,,,,,,,,,,,,,,,,,,,,,main,2,2,2,negative,positive,j,j,1,0.6317073999671265,438.69552479998674,439.69896329997573,439.67930109996814,None,438.69552479998674,None,438.69552479998674,None,438.69552479998674,None,440.3146681700367,None,440.3146681700367,None,440.3146681700367,None,,,,,,,,,,,127,33,Female,2022-05-11_09h34.51.256,Boat,2022.1.1,59.95965911338224,
negative,neutral,1,j,l,,,,,,,,,8,16,160,3,,,,,,,,,,,,,,,,,,,,,,,,main,1,1,1,neutral,negative,l,l,1,0.59996530006174,440.32953109999653,441.33313529996667,441.33313529996667,None,440.32953109999653,None,440.32953109999653,None,440.32953109999653,None,441.91608877000397,None,441.91608877000397,None,441.91608877000397,None,,,,,,,,,,,127,33,Female,2022-05-11_09h34.51.256,Boat,2022.1.1,59.95965911338224,
positive,positive,2,l,j,,,,,,,,,8,17,161,11,,,,,,,,,,,,,,,,,,,,,,,,main,2,2,2,positive,positive,j,j,1,0.6916524999542162,441.93660539994016,442.9378906999482,442.9044554999564,None,441.93660539994016,None,441.93660539994016,None,441.93660539994016,None,443.609135269979,None,443.609135269979,None,443.609135269979,None,,,,,,,,,,,127,33,Female,2022-05-11_09h34.51.256,Boat,2022.1.1,59.95965911338224,
negative,negative,1,j,l,,,,,,,,,9,0,162,0,,,,,,,,,,,,,,,,,,,,,,,,main,2,2,1,negative,negative,l,l,1,0.6872307000448927,443.62513599998783,444.6456919000484,444.6046182999853,None,443.62513599998783,None,443.62513599998783,None,443.62513599998783,None,445.2999595700297,None,445.2999595700297,None,445.2999595700297,None,,,,,,,,,,,127,33,Female,2022-05-11_09h34.51.256,Boat,2022.1.1,59.95965911338224,
positive,negative,1,l,j,,,,,,,,,9,1,163,5,,,,,,,,,,,,,,,,,,,,,,,,main,2,2,1,negative,positive,j,j,1,0.6502387999789789,445.31932070001494,446.3209555000067,446.3038376000477,None,445.31932070001494,None,445.31932070001494,None,445.31932070001494,None,446.9536150699481,None,446.9536150699481,None,446.9536150699481,None,,,,,,,,,,,127,33,Female,2022-05-11_09h34.51.256,Boat,2022.1.1,59.95965911338224,
negative,negative,2,j,l,,,,,,,,,9,2,164,9,,,,,,,,,,,,,,,,,,,,,,,,main,1,1,2,negative,negative,l,l,1,0.5550015999469906,446.9706225999398,447.97136690001935,447.953286999953,None,446.9706225999398,None,446.9706225999398,None,446.9706225999398,None,448.5102541700238,None,448.5102541700238,None,448.5102541700238,None,,,,,,,,,,,127,33,Female,2022-05-11_09h34.51.256,Boat,2022.1.1,59.95965911338224,
negative,neutral,2,j,l,,,,,,,,,9,3,165,12,,,,,,,,,,,,,,,,,,,,,,,,main,2,2,2,neutral,negative,l,l,1,0.5961009000893682,448.5260314999614,449.5459778000368,449.504621900036,None,448.5260314999614,None,448.5260314999614,None,448.5260314999614,None,450.1085372699657,None,450.1085372699657,None,450.1085372699657,None,,,,,,,,,,,127,33,Female,2022-05-11_09h34.51.256,Boat,2022.1.1,59.95965911338224,
neutral,positive,1,k,k,,,,,,,,,9,4,166,4,,,,,,,,,,,,,,,,,,,,,,,,main,1,1,1,positive,neutral,k,k,1,0.6006080999504775,450.1233490000013,451.13516189996153,451.1160689999815,None,450.1233490000013,None,450.1233490000013,None,450.1233490000013,None,451.71319377000907,None,451.71319377000907,None,451.71319377000907,None,,,,,,,,,,,127,33,Female,2022-05-11_09h34.51.256,Boat,2022.1.1,59.95965911338224,
positive,negative,2,l,j,,,,,,,,,9,5,167,14,,,,,,,,,,,,,,,,,,,,,,,,main,2,2,2,negative,positive,j,j,1,0.6622236999683082,451.7285811000038,452.73856780002825,452.72144140000455,None,451.7285811000038,None,451.7285811000038,None,451.7285811000038,None,453.37746046993414,None,453.37746046993414,None,453.37746046993414,None,,,,,,,,,,,127,33,Female,2022-05-11_09h34.51.256,Boat,2022.1.1,59.95965911338224,
positive,neutral,1,l,j,,,,,,,,,9,6,168,8,,,,,,,,,,,,,,,,,,,,,,,,main,2,2,1,neutral,positive,j,j,1,0.6635199000593275,453.3943087999942,454.405056299991,454.37147889996413,None,453.3943087999942,None,453.3943087999942,None,453.3943087999942,None,455.0424197700107,None,455.0424197700107,None,455.0424197700107,None,,,,,,,,,,,127,33,Female,2022-05-11_09h34.51.256,Boat,2022.1.1,59.95965911338224,
neutral,negative,2,k,k,,,,,,,,,9,7,169,16,,,,,,,,,,,,,,,,,,,,,,,,main,1,1,2,negative,neutral,k,k,1,0.7473127000266686,455.05907670001034,456.06595209997613,456.0462659000186,None,455.05907670001034,None,455.05907670001034,None,455.05907670001034,None,456.79419847005045,None,456.79419847005045,None,456.79419847005045,None,,,,,,,,,,,127,33,Female,2022-05-11_09h34.51.256,Boat,2022.1.1,59.95965911338224,
negative,positive,1,j,l,,,,,,,,,9,8,170,6,,,,,,,,,,,,,,,,,,,,,,,,main,2,2,1,positive,negative,l,l,1,0.641030199942179,456.81397479993757,457.82133169996087,457.80472210003063,None,456.81397479993757,None,456.81397479993757,None,456.81397479993757,None,458.4377499699825,None,458.4377499699825,None,458.4377499699825,None,,,,,,,,,,,127,33,Female,2022-05-11_09h34.51.256,Boat,2022.1.1,59.95965911338224,
positive,neutral,2,l,j,,,,,,,,,9,9,171,17,,,,,,,,,,,,,,,,,,,,,,,,main,1,1,2,neutral,positive,j,j,1,0.7520649000070989,458.4527450000169,459.45545140001923,459.4380342999939,None,458.4527450000169,None,458.4527450000169,None,458.4527450000169,None,460.19171567002775,None,460.19171567002775,None,460.19171567002775,None,,,,,,,,,,,127,33,Female,2022-05-11_09h34.51.256,Boat,2022.1.1,59.95965911338224,
positive,positive,2,l,j,,,,,,,,,9,10,172,11,,,,,,,,,,,,,,,,,,,,,,,,main,2,2,2,positive,positive,j,j,1,0.6078107000794262,460.20720449998043,461.2072869000258,461.1899746999843,None,460.20720449998043,None,460.20720449998043,None,460.20720449998043,None,461.8035067700315,None,461.8035067700315,None,461.8035067700315,None,,,,,,,,,,,127,33,Female,2022-05-11_09h34.51.256,Boat,2022.1.1,59.95965911338224,
negative,positive,2,j,l,,,,,,,,,9,11,173,15,,,,,,,,,,,,,,,,,,,,,,,,main,2,2,2,positive,negative,l,l,1,0.6277147999498993,461.81990999996196,462.8382195000304,462.80191929999273,None,461.81990999996196,None,461.81990999996196,None,461.81990999996196,None,463.4359047700185,None,463.4359047700185,None,463.4359047700185,None,,,,,,,,,,,127,33,Female,2022-05-11_09h34.51.256,Boat,2022.1.1,59.95965911338224,
neutral,neutral,2,k,k,,,,,,,,,9,12,174,10,,,,,,,,,,,,,,,,,,,,,,,,main,2,2,2,neutral,neutral,k,k,1,0.6294376000296324,463.4542776000453,464.47161779995076,464.43519620003644,None,463.4542776000453,None,463.4542776000453,None,463.4542776000453,None,465.06805166995616,None,465.06805166995616,None,465.06805166995616,None,,,,,,,,,,,127,33,Female,2022-05-11_09h34.51.256,Boat,2022.1.1,59.95965911338224,
positive,positive,1,l,j,,,,,,,,,9,13,175,2,,,,,,,,,,,,,,,,,,,,,,,,main,1,1,1,positive,positive,j,j,1,0.6333332000067458,465.0867051000241,466.10482290002983,466.06637559994124,None,465.0867051000241,None,465.0867051000241,None,465.0867051000241,None,466.7023134700488,None,466.7023134700488,None,466.7023134700488,None,,,,,,,,,,,127,33,Female,2022-05-11_09h34.51.256,Boat,2022.1.1,59.95965911338224,
neutral,negative,1,k,k,,,,,,,,,9,14,176,7,,,,,,,,,,,,,,,,,,,,,,,,main,1,1,1,negative,neutral,k,k,1,0.650919699924998,466.7201901000226,467.7354856999591,467.7162977999542,None,466.7201901000226,None,466.7201901000226,None,466.7201901000226,None,468.3557842699578,None,468.3557842699578,None,468.3557842699578,None,,,,,,,,,,,127,33,Female,2022-05-11_09h34.51.256,Boat,2022.1.1,59.95965911338224,
negative,neutral,1,j,l,,,,,,,,,9,15,177,3,,,,,,,,,,,,,,,,,,,,,,,,main,1,1,1,neutral,negative,l,l,1,0.6069159000180662,468.3718765999656,469.38843010005075,469.350033499999,None,468.3718765999656,None,468.3718765999656,None,468.3718765999656,None,469.96715287000404,None,469.96715287000404,None,469.96715287000404,None,,,,,,,,,,,127,33,Female,2022-05-11_09h34.51.256,Boat,2022.1.1,59.95965911338224,
neutral,neutral,1,k,k,,,,,,,,,9,16,178,1,,,,,,,,,,,,,,,,,,,,,,,,main,1,1,1,neutral,neutral,k,k,1,0.5400273000122979,469.9819660000503,470.9966664999956,470.9701151000336,None,469.9819660000503,None,469.9819660000503,None,469.9819660000503,None,471.50816436994353,None,471.50816436994353,None,471.50816436994353,None,,,,,,,,,,,127,33,Female,2022-05-11_09h34.51.256,Boat,2022.1.1,59.95965911338224,
neutral,positive,2,k,k,,,,,,,,,9,17,179,13,,,,,,,,,,,,,,,,,,,,,,,,main,2,2,2,positive,neutral,k,k,1,0.6433818000368774,471.5235883999849,472.5381350000389,472.49998900003266,None,471.5235883999849,None,471.5235883999849,None,471.5235883999849,None,473.15464796996673,None,473.15464796996673,None,473.15464796996673,None,,,,,,,,,,,127,33,Female,2022-05-11_09h34.51.256,Boat,2022.1.1,59.95965911338224,
neutral,negative,2,k,k,,,,,,,,,10,0,180,16,,,,,,,,,,,,,,,,,,,,,,,,main,2,2,2,negative,neutral,k,k,1,0.4484349999111146,473.17047080001794,474.1887213999871,474.1520338000264,None,473.17047080001794,None,473.17047080001794,None,473.17047080001794,None,474.6051958700176,None,474.6051958700176,None,474.6051958700176,None,,,,,,,,,,,127,33,Female,2022-05-11_09h34.51.256,Boat,2022.1.1,59.95965911338224,
neutral,neutral,2,k,k,,,,,,,,,10,1,181,10,,,,,,,,,,,,,,,,,,,,,,,,main,2,2,2,neutral,neutral,k,k,1,0.4834312000311911,474.62185640004463,475.6219645999372,475.60521920002066,None,474.62185640004463,None,474.62185640004463,None,474.62185640004463,None,476.09145037000997,None,476.09145037000997,None,476.09145037000997,None,,,,,,,,,,,127,33,Female,2022-05-11_09h34.51.256,Boat,2022.1.1,59.95965911338224,
positive,negative,2,l,j,,,,,,,,,10,2,182,14,,,,,,,,,,,,,,,,,,,,,,,,main,2,2,2,negative,positive,j,j,1,0.5325756999664009,476.10658599995077,477.1185433999635,477.09959040000103,None,476.10658599995077,None,476.10658599995077,None,476.10658599995077,None,477.6266704699723,None,477.6266704699723,None,477.6266704699723,None,,,,,,,,,,,127,33,Female,2022-05-11_09h34.51.256,Boat,2022.1.1,59.95965911338224,
positive,neutral,2,l,j,,,,,,,,,10,3,183,17,,,,,,,,,,,,,,,,,,,,,,,,main,2,2,2,neutral,positive,j,j,1,0.5219953000778332,477.64180959993973,478.65546229993924,478.61656250001397,None,477.64180959993973,None,477.64180959993973,None,477.64180959993973,None,479.15103896996004,None,479.15103896996004,None,479.15103896996004,None,,,,,,,,,,,127,33,Female,2022-05-11_09h34.51.256,Boat,2022.1.1,59.95965911338224,
positive,positive,1,l,j,,,,,,,,,10,4,184,2,,,,,,,,,,,,,,,,,,,,,,,,main,2,2,1,positive,positive,j,j,1,0.639501600060612,479.1709963999456,480.1724084999878,480.13860369997565,None,479.1709963999456,None,479.1709963999456,None,479.1709963999456,None,480.7927884700242,None,480.7927884700242,None,480.7927884700242,None,,,,,,,,,,,127,33,Female,2022-05-11_09h34.51.256,Boat,2022.1.1,59.95965911338224,
positive,positive,2,l,j,,,,,,,,,10,5,185,11,,,,,,,,,,,,,,,,,,,,,,,,main,1,1,2,positive,positive,j,j,1,0.647504199994728,480.80905279994477,481.822545300005,481.7886896999553,None,480.80905279994477,None,480.80905279994477,None,480.80905279994477,None,482.44467386996837,None,482.44467386996837,None,482.44467386996837,None,,,,,,,,,,,127,33,Female,2022-05-11_09h34.51.256,Boat,2022.1.1,59.95965911338224,
negative,neutral,2,j,l,,,,,,,,,10,6,186,12,,,,,,,,,,,,,,,,,,,,,,,,main,2,2,2,neutral,negative,l,l,1,0.6189172000158578,482.4596639999654,483.4721410999773,483.45501869998407,None,482.4596639999654,None,482.4596639999654,None,482.4596639999654,None,484.06487166995646,None,484.06487166995646,None,484.06487166995646,None,,,,,,,,,,,127,33,Female,2022-05-11_09h34.51.256,Boat,2022.1.1,59.95965911338224,
neutral,positive,1,k,k,,,,,,,,,10,7,187,4,,,,,,,,,,,,,,,,,,,,,,,,main,2,2,1,positive,neutral,k,k,1,0.5744094999972731,484.0847349000396,485.08995900000446,485.07225460000336,None,484.0847349000396,None,484.0847349000396,None,484.0847349000396,None,485.6417940699961,None,485.6417940699961,None,485.6417940699961,None,,,,,,,,,,,127,33,Female,2022-05-11_09h34.51.256,Boat,2022.1.1,59.95965911338224,
negative,negative,2,j,l,,,,,,,,,10,8,188,9,,,,,,,,,,,,,,,,,,,,,,,,main,1,1,2,negative,negative,l,l,1,0.5983376000076532,485.65827440004796,486.6715425000293,486.63309959997423,None,485.65827440004796,None,485.65827440004796,None,485.65827440004796,None,487.24244307002516,None,487.24244307002516,None,487.24244307002516,None,,,,,,,,,,,127,33,Female,2022-05-11_09h34.51.256,Boat,2022.1.1,59.95965911338224,
negative,negative,1,j,l,,,,,,,,,10,9,189,0,,,,,,,,,,,,,,,,,,,,,,,,main,2,2,1,negative,negative,l,k,0,0.5062928999541327,487.26040769997053,488.2802827999694,488.23900169995613,None,487.26040769997053,None,487.26040769997053,None,487.26040769997053,None,488.7584378999891,None,488.7584378999891,None,488.7584378999891,None,,,,,,,,,,,127,33,Female,2022-05-11_09h34.51.256,Boat,2022.1.1,59.95965911338224,
neutral,positive,2,k,k,,,,,,,,,10,10,190,13,,,,,,,,,,,,,,,,,,,,,,,,main,1,1,2,positive,neutral,k,l,0,0.5876340999966487,489.77449370000977,490.79670980002265,490.7556314000394,None,489.77449370000977,None,489.77449370000977,None,489.77449370000977,None,491.35448129998986,None,491.35448129998986,None,491.35448129998986,None,,,,,,,,,,,127,33,Female,2022-05-11_09h34.51.256,Boat,2022.1.1,59.95965911338224,
neutral,negative,1,k,k,,,,,,,,,10,11,191,7,,,,,,,,,,,,,,,,,,,,,,,,main,1,1,1,negative,neutral,k,k,1,0.9267482000868767,492.3733833000297,493.3888522000052,493.3530675000511,None,492.3733833000297,None,492.3733833000297,None,492.3733833000297,None,494.28747746997976,None,494.28747746997976,None,494.28747746997976,None,,,,,,,,,,,127,33,Female,2022-05-11_09h34.51.256,Boat,2022.1.1,59.95965911338224,
negative,positive,1,j,l,,,,,,,,,10,12,192,6,,,,,,,,,,,,,,,,,,,,,,,,main,1,1,1,positive,negative,l,l,1,0.7522683000424877,494.30411170003936,495.3220339999534,495.28608049999457,None,494.30411170003936,None,494.30411170003936,None,494.30411170003936,None,496.0426818700274,None,496.0426818700274,None,496.0426818700274,None,,,,,,,,,,,127,33,Female,2022-05-11_09h34.51.256,Boat,2022.1.1,59.95965911338224,
neutral,neutral,1,k,k,,,,,,,,,10,13,193,1,,,,,,,,,,,,,,,,,,,,,,,,main,1,1,1,neutral,neutral,k,k,1,0.6651047000195831,496.05784100003075,497.08042599994224,497.03920260001905,None,496.05784100003075,None,496.05784100003075,None,496.05784100003075,None,497.710016870033,None,497.710016870033,None,497.710016870033,None,,,,,,,,,,,127,33,Female,2022-05-11_09h34.51.256,Boat,2022.1.1,59.95965911338224,
negative,positive,2,j,l,,,,,,,,,10,14,194,15,,,,,,,,,,,,,,,,,,,,,,,,main,1,1,2,positive,negative,l,l,1,0.6885890999110416,497.725156600005,498.73914530000184,498.70023149996996,None,497.725156600005,None,497.725156600005,None,497.725156600005,None,499.40245826994067,None,499.40245826994067,None,499.40245826994067,None,,,,,,,,,,,127,33,Female,2022-05-11_09h34.51.256,Boat,2022.1.1,59.95965911338224,
positive,negative,1,l,j,,,,,,,,,10,15,195,5,,,,,,,,,,,,,,,,,,,,,,,,main,1,1,1,negative,positive,j,j,1,0.7243863999610767,499.42093210003804,500.42224690003786,500.4058723000344,None,499.42093210003804,None,499.42093210003804,None,499.42093210003804,None,501.12837036999406,None,501.12837036999406,None,501.12837036999406,None,,,,,,,,,,,127,33,Female,2022-05-11_09h34.51.256,Boat,2022.1.1,59.95965911338224,
negative,neutral,1,j,l,,,,,,,,,10,16,196,3,,,,,,,,,,,,,,,,,,,,,,,,main,1,1,1,neutral,negative,l,l,1,0.7946981999557465,501.1518186000176,502.1634319999721,502.122241999954,None,501.1518186000176,None,501.1518186000176,None,501.1518186000176,None,502.92716796996535,None,502.92716796996535,None,502.92716796996535,None,,,,,,,,,,,127,33,Female,2022-05-11_09h34.51.256,Boat,2022.1.1,59.95965911338224,
positive,neutral,1,l,j,,,,,,,,,10,17,197,8,,,,,,,,,,,,,,,,,,,,,,,,main,1,1,1,neutral,positive,j,j,1,0.7746376000577584,502.943129900028,503.9501911000116,503.9305213999469,None,502.943129900028,None,502.943129900028,None,502.943129900028,None,504.7005871699424,None,504.7005871699424,None,504.7005871699424,None,,,,,,,,,,,127,33,Female,2022-05-11_09h34.51.256,Boat,2022.1.1,59.95965911338224,
positive,neutral,2,l,j,,,,,,,,,11,0,198,17,,,,,,,,,,,,,,,,,,,,,,,,main,1,1,2,neutral,positive,j,j,1,0.6783748000161722,504.72735800000373,505.74529079999775,505.7085691000102,None,504.72735800000373,None,504.72735800000373,None,504.72735800000373,None,506.386700969981,None,506.386700969981,None,506.386700969981,None,,,,,,,,,,,127,33,Female,2022-05-11_09h34.51.256,Boat,2022.1.1,59.95965911338224,
neutral,negative,2,k,k,,,,,,,,,11,1,199,16,,,,,,,,,,,,,,,,,,,,,,,,main,2,2,2,negative,neutral,k,j,0,0.6089171000057831,506.407419999945,507.4274398999987,507.38470940000843,None,506.407419999945,None,506.407419999945,None,506.407419999945,None,508.00524420000147,None,508.00524420000147,None,508.00524420000147,None,,,,,,,,,,,127,33,Female,2022-05-11_09h34.51.256,Boat,2022.1.1,59.95965911338224,
neutral,neutral,2,k,k,,,,,,,,,11,2,200,10,,,,,,,,,,,,,,,,,,,,,,,,main,1,1,2,neutral,neutral,k,k,1,0.6563223000848666,509.02866159996483,510.04053660004865,510.0053683000151,None,509.02866159996483,None,509.02866159996483,None,509.02866159996483,None,510.66655167003626,None,510.66655167003626,None,510.66655167003626,None,,,,,,,,,,,127,33,Female,2022-05-11_09h34.51.256,Boat,2022.1.1,59.95965911338224,
positive,positive,1,l,j,,,,,,,,,11,3,201,2,,,,,,,,,,,,,,,,,,,,,,,,main,2,2,1,positive,positive,j,j,1,0.6859454000368714,510.68702670000494,511.6911373999901,511.6733106999891,None,510.68702670000494,None,510.68702670000494,None,510.68702670000494,None,512.3551226700423,None,512.3551226700423,None,512.3551226700423,None,,,,,,,,,,,127,33,Female,2022-05-11_09h34.51.256,Boat,2022.1.1,59.95965911338224,
positive,negative,1,l,j,,,,,,,,,11,4,202,5,,,,,,,,,,,,,,,,,,,,,,,,main,1,1,1,negative,positive,j,j,1,0.6059238000307232,512.3747981999768,513.391975000035,513.3680945000378,None,512.3747981999768,None,512.3747981999768,None,512.3747981999768,None,513.9651377700269,None,513.9651377700269,None,513.9651377700269,None,,,,,,,,,,,127,33,Female,2022-05-11_09h34.51.256,Boat,2022.1.1,59.95965911338224,
positive,negative,2,l,j,,,,,,,,,11,5,203,14,,,,,,,,,,,,,,,,,,,,,,,,main,1,1,2,negative,positive,j,j,1,0.6775198000250384,513.9880638000323,514.9967231999617,514.971786799957,None,513.9880638000323,None,513.9880638000323,None,513.9880638000323,None,515.6439828700153,None,515.6439828700153,None,515.6439828700153,None,,,,,,,,,,,127,33,Female,2022-05-11_09h34.51.256,Boat,2022.1.1,59.95965911338224,
neutral,negative,1,k,k,,,,,,,,,11,6,204,7,,,,,,,,,,,,,,,,,,,,,,,,main,1,1,1,negative,neutral,k,k,1,0.638327999971807,515.6669569000369,516.6866660999367,516.6472303000046,None,515.6669569000369,None,515.6669569000369,None,515.6669569000369,None,517.2879994699964,None,517.2879994699964,None,517.2879994699964,None,,,,,,,,,,,127,33,Female,2022-05-11_09h34.51.256,Boat,2022.1.1,59.95965911338224,
negative,positive,2,j,l,,,,,,,,,11,7,205,15,,,,,,,,,,,,,,,,,,,,,,,,main,2,2,2,positive,negative,l,l,1,0.7806746000424027,517.3044323000358,518.3064106999664,518.2893711000215,None,517.3044323000358,None,517.3044323000358,None,517.3044323000358,None,519.071280969982,None,519.071280969982,None,519.071280969982,None,,,,,,,,,,,127,33,Female,2022-05-11_09h34.51.256,Boat,2022.1.1,59.95965911338224,
negative,positive,1,j,l,,,,,,,,,11,8,206,6,,,,,,,,,,,,,,,,,,,,,,,,main,2,2,1,positive,negative,l,l,1,0.6304402999812737,519.087760400027,520.1033048999961,520.0840604000259,None,519.087760400027,None,519.087760400027,None,519.087760400027,None,520.7048730699811,None,520.7048730699811,None,520.7048730699811,None,,,,,,,,,,,127,33,Female,2022-05-11_09h34.51.256,Boat,2022.1.1,59.95965911338224,
negative,negative,1,j,l,,,,,,,,,11,9,207,0,,,,,,,,,,,,,,,,,,,,,,,,main,2,2,1,negative,negative,l,l,1,0.6248589999740943,520.722202999983,521.724081399967,521.7066598000238,None,520.722202999983,None,520.722202999983,None,520.722202999983,None,522.3344089699443,None,522.3344089699443,None,522.3344089699443,None,,,,,,,,,,,127,33,Female,2022-05-11_09h34.51.256,Boat,2022.1.1,59.95965911338224,
negative,negative,2,j,l,,,,,,,,,11,10,208,9,,,,,,,,,,,,,,,,,,,,,,,,main,2,2,2,negative,negative,l,l,1,0.6835703999968246,522.3535672000144,523.3588347999612,523.322928700014,None,522.3535672000144,None,522.3535672000144,None,522.3535672000144,None,524.0206951700151,None,524.0206951700151,None,524.0206951700151,None,,,,,,,,,,,127,33,Female,2022-05-11_09h34.51.256,Boat,2022.1.1,59.95965911338224,
