target,distractor,set,ans1,ans2,rep_loop2.thisRepN,rep_loop2.thisTrialN,rep_loop2.thisN,rep_loop2.thisIndex,flanker_prac_loop.thisRepN,flanker_prac_loop.thisTrialN,flanker_prac_loop.thisN,flanker_prac_loop.thisIndex,flanker_main_loop.thisRepN,flanker_main_loop.thisTrialN,flanker_main_loop.thisN,flanker_main_loop.thisIndex,fl_inst_resp.keys,mouse.x,mouse.y,mouse.leftButton,mouse.midButton,mouse.rightButton,mouse.started,mouse.stopped,sound_1.started,sound_1.stopped,no_text.started,no_text.stopped,yes_text.started,yes_text.stopped,mouse_2.x,mouse_2.y,mouse_2.leftButton,mouse_2.midButton,mouse_2.rightButton,mouse_2.started,mouse_2.stopped,back_2.started,back_2.stopped,main_prac,fl_cold,fl_colt,fl_set,fl_dcond,fl_tcond,fl_ans,fl_res,fl_corr,fl_rt,fix_fl.started,fix_fl.stopped,targ.started,targ.stopped,j_button.started,j_button.stopped,k_button.started,k_button.stopped,l_button.started,l_button.stopped,j_button2.started,j_button2.stopped,k_button2.started,k_button2.stopped,l_button2.started,l_button2.stopped,mainback.started,mainback.stopped,key_resp.keys,mouse_6.x,mouse_6.y,mouse_6.leftButton,mouse_6.midButton,mouse_6.rightButton,mouse_6.started,mouse_6.stopped,id*,age*,gender*,date,expName,psychopyVersion,frameRate,
,,,,,0,0,0,0,,,,,,,,,None,0.88796294,-0.17314816,0,0,0,1.0224113814765587,None,28.414971030014566,None,89.43375590001233,None,89.43375590001233,None,-0.096296296,-0.075925924,0,0,0,0.012499329983256757,None,,,,,,,,,,,,,,,,,,,,,,,,,,,,,,,,,,,,,,,128,22,Female,2022-05-11_11h05.32.792,Boat,2022.1.1,60.00657671500088,
negative,negative,1,j,l,,,,,0,0,0,0,,,,,,,,,,,,,,,,,,,,,,,,,,137.7134799999185,None,prac,1,1,1,negative,negative,j,j,1,1.8199723999714479,139.7429707000265,140.74645759991836,140.7080844999291,None,139.7429707000265,None,139.7429707000265,None,139.7429707000265,None,142.5560744999675,None,142.5560744999675,None,142.5560744999675,None,,,,,,,,,,,128,22,Female,2022-05-11_11h05.32.792,Boat,2022.1.1,60.00657671500088,
neutral,neutral,2,k,k,,,,,0,1,1,10,,,,,,,,,,,,,,,,,,,,,,,,,,,,prac,1,1,2,neutral,neutral,k,k,1,0.8834028999553993,143.57121319998987,144.58857939997688,144.5473468999844,None,143.57121319998987,None,143.57121319998987,None,143.57121319998987,None,145.43699592996853,None,145.43699592996853,None,145.43699592996853,None,,,,,,,,,,,128,22,Female,2022-05-11_11h05.32.792,Boat,2022.1.1,60.00657671500088,
positive,neutral,1,l,j,,,,,0,2,2,8,,,,,,,,,,,,,,,,,,,,,,,,,,,,prac,1,1,1,neutral,positive,l,l,1,0.8283250000094995,145.45230329991318,146.46427009999752,146.44478939997498,None,145.45230329991318,None,145.45230329991318,None,145.45230329991318,None,147.2657437299378,None,147.2657437299378,None,147.2657437299378,None,,,,,,,,,,,128,22,Female,2022-05-11_11h05.32.792,Boat,2022.1.1,60.00657671500088,
negative,neutral,2,j,l,,,,,0,3,3,12,,,,,,,,,,,,,,,,,,,,,,,,,,,,prac,1,1,2,neutral,negative,j,j,1,0.8816778999753296,147.28097329998855,148.2973939999938,148.2610943999607,None,147.28097329998855,None,147.28097329998855,None,147.28097329998855,None,149.14911493000108,None,149.14911493000108,None,149.14911493000108,None,,,,,,,,,,,128,22,Female,2022-05-11_11h05.32.792,Boat,2022.1.1,60.00657671500088,
neutral,positive,1,k,k,,,,,0,4,4,4,,,,,,,,,,,,,,,,,,,,,,,,,,,,prac,2,2,1,positive,neutral,k,k,1,0.812773699988611,149.16551099997014,150.18107509997208,150.14714299992193,None,149.16551099997014,None,149.16551099997014,None,149.16551099997014,None,150.96458383002317,None,150.96458383002317,None,150.96458383002317,None,,,,,,,,,,,128,22,Female,2022-05-11_11h05.32.792,Boat,2022.1.1,60.00657671500088,
positive,negative,2,l,j,,,,,0,5,5,14,,,,,,,,,,,,,,,,,,,,,,,,,,,,prac,2,2,2,negative,positive,l,l,1,0.824178299983032,150.97951149998698,151.9809266999364,151.964644499938,None,150.97951149998698,None,150.97951149998698,None,150.97951149998698,None,152.79263972996267,None,152.79263972996267,None,152.79263972996267,None,,,,,,,,,,,128,22,Female,2022-05-11_11h05.32.792,Boat,2022.1.1,60.00657671500088,
neutral,neutral,1,k,k,,,,,0,6,6,1,,,,,,,,,,,,,,,,,,,,,,,,,,,,prac,2,2,1,neutral,neutral,k,k,1,0.7765339999459684,152.80881279997993,153.81370679999236,153.79705539997667,None,152.80881279997993,None,152.80881279997993,None,152.80881279997993,None,154.56889893002807,None,154.56889893002807,None,154.56889893002807,None,,,,,,,,,,,128,22,Female,2022-05-11_11h05.32.792,Boat,2022.1.1,60.00657671500088,
positive,positive,1,l,j,,,,,0,7,7,2,,,,,,,,,,,,,,,,,,,,,,,,,,,,prac,2,2,1,positive,positive,l,l,1,0.7980805999832228,154.58718239993323,155.59984049992636,155.56527579994872,None,154.58718239993323,None,154.58718239993323,None,154.58718239993323,None,156.36871472995261,None,156.36871472995261,None,156.36871472995261,None,,,,,,,,,,,128,22,Female,2022-05-11_11h05.32.792,Boat,2022.1.1,60.00657671500088,
positive,negative,1,l,j,,,,,0,8,8,5,,,,,,,,,,,,,,,,,,,,,,,,,,,,prac,2,2,1,negative,positive,l,l,1,0.7233453000662848,156.38540459994692,157.39750469999854,157.36282389995176,None,156.38540459994692,None,156.38540459994692,None,156.38540459994692,None,158.09629772992338,None,158.09629772992338,None,158.09629772992338,None,,,,,,,,,,,128,22,Female,2022-05-11_11h05.32.792,Boat,2022.1.1,60.00657671500088,
negative,positive,1,j,l,,,,,0,9,9,6,,,,,,,,,,,,,,,,,,,,,,,,,,,,prac,1,1,1,positive,negative,j,j,1,1.1800863000098616,158.11359470000025,159.11429759999737,159.09714379999787,None,158.11359470000025,None,158.11359470000025,None,158.11359470000025,None,160.27990912999957,None,160.27990912999957,None,160.27990912999957,None,,,,,,,,,,,128,22,Female,2022-05-11_11h05.32.792,Boat,2022.1.1,60.00657671500088,
neutral,positive,2,k,k,,,,,0,10,10,13,,,,,,,,,,,,,,,,,,,,,,,,,,,,prac,2,2,2,positive,neutral,k,k,1,0.8750532999401912,160.29631250002421,161.29807119991165,161.27865929994732,None,160.29631250002421,None,160.29631250002421,None,160.29631250002421,None,162.15739142992533,None,162.15739142992533,None,162.15739142992533,None,,,,,,,,,,,128,22,Female,2022-05-11_11h05.32.792,Boat,2022.1.1,60.00657671500088,
negative,positive,2,j,l,,,,,0,11,11,15,,,,,,,,,,,,,,,,,,,,,,,,,,,,prac,2,2,2,positive,negative,j,j,1,0.8759617001051083,162.17368409992196,163.18908719997853,163.147693399922,None,162.17368409992196,None,162.17368409992196,None,162.17368409992196,None,164.03472683001308,None,164.03472683001308,None,164.03472683001308,None,,,,,,,,,,,128,22,Female,2022-05-11_11h05.32.792,Boat,2022.1.1,60.00657671500088,
negative,negative,2,j,l,,,,,0,12,12,9,,,,,,,,,,,,,,,,,,,,,,,,,,,,prac,2,2,2,negative,negative,j,j,1,0.74923439999111,164.05026659998111,165.07260269997641,165.04756159998942,None,164.05026659998111,None,164.05026659998111,None,164.05026659998111,None,165.78519562997388,None,165.78519562997388,None,165.78519562997388,None,,,,,,,,,,,128,22,Female,2022-05-11_11h05.32.792,Boat,2022.1.1,60.00657671500088,
neutral,negative,1,k,k,,,,,0,13,13,7,,,,,,,,,,,,,,,,,,,,,,,,,,,,prac,1,1,1,negative,neutral,k,k,1,1.5559255999978632,165.8021252999315,166.81168209994212,166.79233520000707,None,165.8021252999315,None,165.8021252999315,None,165.8021252999315,None,168.3504284999799,None,168.3504284999799,None,168.3504284999799,None,,,,,,,,,,,128,22,Female,2022-05-11_11h05.32.792,Boat,2022.1.1,60.00657671500088,
negative,neutral,1,j,l,,,,,0,14,14,3,,,,,,,,,,,,,,,,,,,,,,,,,,,,prac,2,2,1,neutral,negative,j,j,1,0.9077555000549182,169.36758039996494,170.38148979994003,170.36357319995295,None,169.36758039996494,None,169.36758039996494,None,169.36758039996494,None,171.2616784299491,None,171.2616784299491,None,171.2616784299491,None,,,,,,,,,,,128,22,Female,2022-05-11_11h05.32.792,Boat,2022.1.1,60.00657671500088,
neutral,negative,2,k,k,,,,,0,15,15,16,,,,,,,,,,,,,,,,,,,,,,,,,,,,prac,1,1,2,negative,neutral,k,k,1,0.7795940000796691,171.2801834999118,172.29219509998802,172.24752769991755,None,171.2801834999118,None,171.2801834999118,None,171.2801834999118,None,173.04404942998661,None,173.04404942998661,None,173.04404942998661,None,,,,,,,,,,,128,22,Female,2022-05-11_11h05.32.792,Boat,2022.1.1,60.00657671500088,
positive,neutral,2,l,j,,,,,0,16,16,17,,,,,,,,,,,,,,,,,,,,,,,,,,,,prac,2,2,2,neutral,positive,l,l,1,0.7900833999738097,173.06298609997611,174.064834699966,174.04778139991686,None,173.06298609997611,None,173.06298609997611,None,173.06298609997611,None,174.83466602994594,None,174.83466602994594,None,174.83466602994594,None,,,,,,,,,,,128,22,Female,2022-05-11_11h05.32.792,Boat,2022.1.1,60.00657671500088,
positive,positive,2,l,j,,,,,0,17,17,11,,,,,,,,,,,,,,,,,,,,,,,,,,,,prac,1,1,2,positive,positive,l,l,1,0.7465729999821633,174.85133009997662,175.86222090001684,175.84248370002024,None,174.85133009997662,None,174.85133009997662,None,174.85133009997662,None,176.58266472995746,None,176.58266472995746,None,176.58266472995746,None,,,,,,,,,,,128,22,Female,2022-05-11_11h05.32.792,Boat,2022.1.1,60.00657671500088,
neutral,negative,1,k,k,,,,,1,0,18,7,,,,,,,,,,,,,,,,,,,,,,,,,,,,prac,2,2,1,negative,neutral,k,k,1,0.7906163999577984,176.59898569993675,177.61222229991108,177.59265230002347,None,176.59898569993675,None,176.59898569993675,None,176.59898569993675,None,178.3777471299283,None,178.3777471299283,None,178.3777471299283,None,,,,,,,,,,,128,22,Female,2022-05-11_11h05.32.792,Boat,2022.1.1,60.00657671500088,
positive,negative,2,l,j,,,,,1,1,19,14,,,,,,,,,,,,,,,,,,,,,,,,,,,,prac,2,2,2,negative,positive,l,l,1,0.8284761999966577,178.39719749998767,179.39797529997304,179.38026180001907,None,178.39719749998767,None,178.39719749998767,None,178.39719749998767,None,180.20811603001783,None,180.20811603001783,None,180.20811603001783,None,,,,,,,,,,,128,22,Female,2022-05-11_11h05.32.792,Boat,2022.1.1,60.00657671500088,
negative,positive,2,j,l,,,,,1,2,20,15,,,,,,,,,,,,,,,,,,,,,,,,,,,,prac,2,2,2,positive,negative,j,j,1,0.8600877999560907,180.2281926999567,181.24828639999032,181.20950939995237,None,180.2281926999567,None,180.2281926999567,None,180.2281926999567,None,182.06928043002262,None,182.06928043002262,None,182.06928043002262,None,,,,,,,,,,,128,22,Female,2022-05-11_11h05.32.792,Boat,2022.1.1,60.00657671500088,
positive,positive,2,l,j,,,,,1,3,21,11,,,,,,,,,,,,,,,,,,,,,,,,,,,,prac,1,1,2,positive,positive,l,l,1,0.8750963000347838,182.0847176000243,183.0983788999729,183.08147620002273,None,182.0847176000243,None,182.0847176000243,None,182.0847176000243,None,183.94707533000036,None,183.94707533000036,None,183.94707533000036,None,,,,,,,,,,,128,22,Female,2022-05-11_11h05.32.792,Boat,2022.1.1,60.00657671500088,
positive,neutral,1,l,j,,,,,1,4,22,8,,,,,,,,,,,,,,,,,,,,,,,,,,,,prac,2,2,1,neutral,positive,l,l,1,0.8765896999975666,183.96169909997843,184.96449489996303,184.94531450001523,None,183.96169909997843,None,183.96169909997843,None,183.96169909997843,None,185.8273589299526,None,185.8273589299526,None,185.8273589299526,None,,,,,,,,,,,128,22,Female,2022-05-11_11h05.32.792,Boat,2022.1.1,60.00657671500088,
neutral,positive,1,k,k,,,,,1,5,23,4,,,,,,,,,,,,,,,,,,,,,,,,,,,,prac,1,1,1,positive,neutral,k,k,1,0.8415310001000762,185.8453853999963,186.8488693999825,186.8150539000053,None,185.8453853999963,None,185.8453853999963,None,185.8453853999963,None,187.66826092991977,None,187.66826092991977,None,187.66826092991977,None,,,,,,,,,,,128,22,Female,2022-05-11_11h05.32.792,Boat,2022.1.1,60.00657671500088,
positive,negative,1,l,j,,,,,1,6,24,5,,,,,,,,,,,,,,,,,,,,,,,,,,,,prac,2,2,1,negative,positive,l,l,1,0.7570653000148013,187.68440349993762,188.70627929992042,188.6650075999787,None,187.68440349993762,None,187.68440349993762,None,187.68440349993762,None,189.42939742996822,None,189.42939742996822,None,189.42939742996822,None,,,,,,,,,,,128,22,Female,2022-05-11_11h05.32.792,Boat,2022.1.1,60.00657671500088,
negative,negative,2,j,l,,,,,1,7,25,9,,,,,,,,,,,,,,,,,,,,,,,,,,,,prac,1,1,2,negative,negative,j,j,1,0.8142567999893799,189.44779349991586,190.44815599999856,190.43022390000988,None,189.44779349991586,None,189.44779349991586,None,189.44779349991586,None,191.2467421299545,None,191.2467421299545,None,191.2467421299545,None,,,,,,,,,,,128,22,Female,2022-05-11_11h05.32.792,Boat,2022.1.1,60.00657671500088,
negative,positive,1,j,l,,,,,1,8,26,6,,,,,,,,,,,,,,,,,,,,,,,,,,,,prac,1,1,1,positive,negative,j,j,1,0.638603699975647,191.264142,192.27316929993685,192.2317250999622,None,191.264142,None,191.264142,None,191.264142,None,192.8861164299771,None,192.8861164299771,None,192.8861164299771,None,,,,,,,,,,,128,22,Female,2022-05-11_11h05.32.792,Boat,2022.1.1,60.00657671500088,
negative,neutral,2,j,l,,,,,1,9,27,12,,,,,,,,,,,,,,,,,,,,,,,,,,,,prac,1,1,2,neutral,negative,j,j,1,0.636894499999471,192.90155499998946,193.91412430000491,193.89299099997152,None,192.90155499998946,None,192.90155499998946,None,192.90155499998946,None,194.52712993002496,None,194.52712993002496,None,194.52712993002496,None,,,,,,,,,,,128,22,Female,2022-05-11_11h05.32.792,Boat,2022.1.1,60.00657671500088,
neutral,positive,2,k,k,,,,,1,10,28,13,,,,,,,,,,,,,,,,,,,,,,,,,,,,prac,2,2,2,positive,neutral,k,k,1,0.7047537999460474,194.54621559998486,195.56500920001417,195.52620219998062,None,194.54621559998486,None,194.54621559998486,None,194.54621559998486,None,196.23294303000438,None,196.23294303000438,None,196.23294303000438,None,,,,,,,,,,,128,22,Female,2022-05-11_11h05.32.792,Boat,2022.1.1,60.00657671500088,
positive,neutral,2,l,j,,,,,1,11,29,17,,,,,,,,,,,,,,,,,,,,,,,,,,,,prac,1,1,2,neutral,positive,l,l,1,0.8377281000139192,196.24884159991052,197.26530869991984,197.2291795000201,None,196.24884159991052,None,196.24884159991052,None,196.24884159991052,None,198.0747719299281,None,198.0747719299281,None,198.0747719299281,None,,,,,,,,,,,128,22,Female,2022-05-11_11h05.32.792,Boat,2022.1.1,60.00657671500088,
neutral,neutral,2,k,k,,,,,1,12,30,10,,,,,,,,,,,,,,,,,,,,,,,,,,,,prac,1,1,2,neutral,neutral,k,k,1,0.6915939999744296,198.0930609999923,199.11284049996175,199.0729132000124,None,198.0930609999923,None,198.0930609999923,None,198.0930609999923,None,199.76716742995194,None,199.76716742995194,None,199.76716742995194,None,,,,,,,,,,,128,22,Female,2022-05-11_11h05.32.792,Boat,2022.1.1,60.00657671500088,
negative,negative,1,j,l,,,,,1,13,31,0,,,,,,,,,,,,,,,,,,,,,,,,,,,,prac,1,1,1,negative,negative,j,j,1,0.882430899888277,199.78347099991515,200.7929265999701,200.7929265999701,None,199.78347099991515,None,199.78347099991515,None,199.78347099991515,None,201.65143632998223,None,201.65143632998223,None,201.65143632998223,None,,,,,,,,,,,128,22,Female,2022-05-11_11h05.32.792,Boat,2022.1.1,60.00657671500088,
neutral,negative,2,k,k,,,,,1,14,32,16,,,,,,,,,,,,,,,,,,,,,,,,,,,,prac,2,2,2,negative,neutral,k,k,1,0.7166714000049978,201.66595930000767,202.68148919998202,202.66247859993018,None,201.66595930000767,None,201.66595930000767,None,201.66595930000767,None,203.37230762995313,None,203.37230762995313,None,203.37230762995313,None,,,,,,,,,,,128,22,Female,2022-05-11_11h05.32.792,Boat,2022.1.1,60.00657671500088,
negative,neutral,1,j,l,,,,,1,15,33,3,,,,,,,,,,,,,,,,,,,,,,,,,,,,prac,2,2,1,neutral,negative,j,j,1,0.9294596000108868,203.386246799957,204.39879130001646,204.38125189999118,None,203.386246799957,None,203.386246799957,None,203.386246799957,None,205.3017468299251,None,205.3017468299251,None,205.3017468299251,None,,,,,,,,,,,128,22,Female,2022-05-11_11h05.32.792,Boat,2022.1.1,60.00657671500088,
neutral,neutral,1,k,k,,,,,1,16,34,1,,,,,,,,,,,,,,,,,,,,,,,,,,,,prac,1,1,1,neutral,neutral,k,k,1,0.7193949000211433,205.31721379992086,206.33215449994896,206.3152613999555,None,205.31721379992086,None,205.31721379992086,None,205.31721379992086,None,207.0245283300057,None,207.0245283300057,None,207.0245283300057,None,,,,,,,,,,,128,22,Female,2022-05-11_11h05.32.792,Boat,2022.1.1,60.00657671500088,
positive,positive,1,l,j,,,,,1,17,35,2,,,,,,,,,,,,,,,,,,,,,,,,,,,,prac,1,1,1,positive,positive,l,l,1,0.8445988000603393,207.03904069995042,208.0484217000194,208.03100850002375,None,207.03904069995042,None,207.03904069995042,None,207.03904069995042,None,208.86962792992125,None,208.86962792992125,None,208.86962792992125,None,,,,,,,,,,,128,22,Female,2022-05-11_11h05.32.792,Boat,2022.1.1,60.00657671500088,
,,,,,,,,,,,,,,,,,,,,,,,,,,,,,,,,,,,,,,,,,,,,,,,,,,,,,,,,,,,,,,,,,,208.88381049991585,None,None,,,,,,,,128,22,Female,2022-05-11_11h05.32.792,Boat,2022.1.1,60.00657671500088,
,,,,,,,,,,,,,,,,,,,,,,,,,,,,,,,,,,,,,,,,,,,,,,,,,,,,,,,,,,,,,,,,,,,,,0.08796296,-0.053703703,1,0,0,0.006686229957267642,None,128,22,Female,2022-05-11_11h05.32.792,Boat,2022.1.1,60.00657671500088,
positive,positive,1,l,j,,,,,,,,,0,0,0,2,,,,,,,,,,,,,,,,,,,,,,228.2277129999129,None,main,2,2,1,positive,positive,l,l,1,0.8938757999567315,230.24822009995114,231.2488110999111,231.23143399995752,None,230.24822009995114,None,230.24822009995114,None,230.24822009995114,None,232.12065332992933,None,232.12065332992933,None,232.12065332992933,None,,,,,,,,,,,128,22,Female,2022-05-11_11h05.32.792,Boat,2022.1.1,60.00657671500088,
neutral,neutral,1,k,k,,,,,,,,,0,1,1,1,,,,,,,,,,,,,,,,,,,,,,,,main,2,2,1,neutral,neutral,k,k,1,0.6294794999994338,232.1414280999452,233.14629379997496,233.12703680002596,None,232.1414280999452,None,232.1414280999452,None,232.1414280999452,None,233.75540122999809,None,233.75540122999809,None,233.75540122999809,None,,,,,,,,,,,128,22,Female,2022-05-11_11h05.32.792,Boat,2022.1.1,60.00657671500088,
negative,positive,1,j,l,,,,,,,,,0,2,2,6,,,,,,,,,,,,,,,,,,,,,,,,main,1,1,1,positive,negative,j,j,1,0.9129245000658557,233.7706857000012,234.78284559992608,234.76337419997435,None,233.7706857000012,None,233.7706857000012,None,233.7706857000012,None,235.66967993001452,None,235.66967993001452,None,235.66967993001452,None,,,,,,,,,,,128,22,Female,2022-05-11_11h05.32.792,Boat,2022.1.1,60.00657671500088,
neutral,neutral,2,k,k,,,,,,,,,0,3,3,10,,,,,,,,,,,,,,,,,,,,,,,,main,2,2,2,neutral,neutral,k,k,1,0.7072781999595463,235.6859167999355,236.69383120001294,236.69383120001294,None,235.6859167999355,None,235.6859167999355,None,235.6859167999355,None,237.38124032998456,None,237.38124032998456,None,237.38124032998456,None,,,,,,,,,,,128,22,Female,2022-05-11_11h05.32.792,Boat,2022.1.1,60.00657671500088,
negative,negative,2,j,l,,,,,,,,,0,4,4,9,,,,,,,,,,,,,,,,,,,,,,,,main,1,1,2,negative,negative,j,j,1,0.7275455000344664,237.3980682999827,238.3991665999638,238.38207960000727,None,237.3980682999827,None,237.3980682999827,None,237.3980682999827,None,239.1118549299892,None,239.1118549299892,None,239.1118549299892,None,,,,,,,,,,,128,22,Female,2022-05-11_11h05.32.792,Boat,2022.1.1,60.00657671500088,
negative,positive,2,j,l,,,,,,,,,0,5,5,15,,,,,,,,,,,,,,,,,,,,,,,,main,1,1,2,positive,negative,j,j,1,0.6743453999515623,239.13064420002047,240.14908489992376,240.13248189992737,None,239.13064420002047,None,239.13064420002047,None,239.13064420002047,None,240.78519232994876,None,240.78519232994876,None,240.78519232994876,None,,,,,,,,,,,128,22,Female,2022-05-11_11h05.32.792,Boat,2022.1.1,60.00657671500088,
negative,neutral,1,j,l,,,,,,,,,0,6,6,3,,,,,,,,,,,,,,,,,,,,,,,,main,2,2,1,neutral,negative,j,j,1,0.6345376000972465,240.80368289991748,241.8182507000165,241.78400869993493,None,240.80368289991748,None,240.80368289991748,None,240.80368289991748,None,242.4248982299352,None,242.4248982299352,None,242.4248982299352,None,,,,,,,,,,,128,22,Female,2022-05-11_11h05.32.792,Boat,2022.1.1,60.00657671500088,
neutral,negative,2,k,k,,,,,,,,,0,7,7,16,,,,,,,,,,,,,,,,,,,,,,,,main,2,2,2,negative,neutral,k,k,1,0.6393771000439301,242.44320530002005,243.4495128999697,243.41617490001954,None,242.44320530002005,None,242.44320530002005,None,242.44320530002005,None,244.066207330022,None,244.066207330022,None,244.066207330022,None,,,,,,,,,,,128,22,Female,2022-05-11_11h05.32.792,Boat,2022.1.1,60.00657671500088,
positive,negative,1,l,j,,,,,,,,,0,8,8,5,,,,,,,,,,,,,,,,,,,,,,,,main,2,2,1,negative,positive,l,l,1,0.772617100039497,244.0827362999553,245.1108310999116,245.06346949993167,None,244.0827362999553,None,244.0827362999553,None,244.0827362999553,None,245.84271883002947,None,245.84271883002947,None,245.84271883002947,None,,,,,,,,,,,128,22,Female,2022-05-11_11h05.32.792,Boat,2022.1.1,60.00657671500088,
neutral,negative,1,k,k,,,,,,,,,0,9,9,7,,,,,,,,,,,,,,,,,,,,,,,,main,2,2,1,negative,neutral,k,k,1,0.6611562999896705,245.8623140999116,246.89106860000174,246.84401509992313,None,245.8623140999116,None,245.8623140999116,None,245.8623140999116,None,247.50431873002088,None,247.50431873002088,None,247.50431873002088,None,,,,,,,,,,,128,22,Female,2022-05-11_11h05.32.792,Boat,2022.1.1,60.00657671500088,
positive,neutral,1,l,j,,,,,,,,,0,10,10,8,,,,,,,,,,,,,,,,,,,,,,,,main,1,1,1,neutral,positive,l,l,1,0.6567505999701098,247.5205483000027,248.52746989997104,248.50754479994066,None,247.5205483000027,None,247.5205483000027,None,247.5205483000027,None,249.1649887299165,None,249.1649887299165,None,249.1649887299165,None,,,,,,,,,,,128,22,Female,2022-05-11_11h05.32.792,Boat,2022.1.1,60.00657671500088,
neutral,positive,2,k,k,,,,,,,,,0,11,11,13,,,,,,,,,,,,,,,,,,,,,,,,main,2,2,2,positive,neutral,k,k,1,0.6343875000020489,249.18180199991912,250.19120869995095,250.1660590999527,None,249.18180199991912,None,249.18180199991912,None,249.18180199991912,None,250.80098892997484,None,250.80098892997484,None,250.80098892997484,None,,,,,,,,,,,128,22,Female,2022-05-11_11h05.32.792,Boat,2022.1.1,60.00657671500088,
positive,neutral,2,l,j,,,,,,,,,0,12,12,17,,,,,,,,,,,,,,,,,,,,,,,,main,1,1,2,neutral,positive,l,l,1,0.7096237000077963,250.81857559992932,251.84386389993597,251.79801579995546,None,250.81857559992932,None,250.81857559992932,None,250.81857559992932,None,252.5148804299999,None,252.5148804299999,None,252.5148804299999,None,,,,,,,,,,,128,22,Female,2022-05-11_11h05.32.792,Boat,2022.1.1,60.00657671500088,
positive,negative,2,l,j,,,,,,,,,0,13,13,14,,,,,,,,,,,,,,,,,,,,,,,,main,1,1,2,negative,positive,l,l,1,0.5719683999195695,252.53178929991554,253.54964739992283,253.51339470001403,None,252.53178929991554,None,252.53178929991554,None,252.53178929991554,None,254.09026192994787,None,254.09026192994787,None,254.09026192994787,None,,,,,,,,,,,128,22,Female,2022-05-11_11h05.32.792,Boat,2022.1.1,60.00657671500088,
negative,negative,1,j,l,,,,,,,,,0,14,14,0,,,,,,,,,,,,,,,,,,,,,,,,main,1,1,1,negative,negative,j,j,1,1.0071972999721766,254.1065131999785,255.127517899964,255.1074643000029,None,254.1065131999785,None,254.1065131999785,None,254.1065131999785,None,256.09973523002117,None,256.09973523002117,None,256.09973523002117,None,,,,,,,,,,,128,22,Female,2022-05-11_11h05.32.792,Boat,2022.1.1,60.00657671500088,
negative,neutral,2,j,l,,,,,,,,,0,15,15,12,,,,,,,,,,,,,,,,,,,,,,,,main,2,2,2,neutral,negative,j,j,1,0.5891120000742376,256.11506270000245,257.11665149999317,257.0998994000256,None,256.11506270000245,None,256.11506270000245,None,256.11506270000245,None,257.6920453300001,None,257.6920453300001,None,257.6920453300001,None,,,,,,,,,,,128,22,Female,2022-05-11_11h05.32.792,Boat,2022.1.1,60.00657671500088,
positive,positive,2,l,j,,,,,,,,,0,16,16,11,,,,,,,,,,,,,,,,,,,,,,,,main,2,2,2,positive,positive,l,l,1,0.7811508000595495,257.7094761999324,258.73074729996733,258.69091629993636,None,257.7094761999324,None,257.7094761999324,None,257.7094761999324,None,259.4759731300175,None,259.4759731300175,None,259.4759731300175,None,,,,,,,,,,,128,22,Female,2022-05-11_11h05.32.792,Boat,2022.1.1,60.00657671500088,
neutral,positive,1,k,k,,,,,,,,,0,17,17,4,,,,,,,,,,,,,,,,,,,,,,,,main,2,2,1,positive,neutral,k,k,1,0.6435224999440834,259.49220580002293,260.49969510000665,260.46650819992647,None,259.49220580002293,None,259.49220580002293,None,259.49220580002293,None,261.12006082995794,None,261.12006082995794,None,261.12006082995794,None,,,,,,,,,,,128,22,Female,2022-05-11_11h05.32.792,Boat,2022.1.1,60.00657671500088,
neutral,negative,2,k,k,,,,,,,,,1,0,18,16,,,,,,,,,,,,,,,,,,,,,,,,main,1,1,2,negative,neutral,k,k,1,0.618276400025934,261.1359582999721,262.1500337999314,262.11419959994964,None,261.1359582999721,None,261.1359582999721,None,261.1359582999721,None,262.7434030300239,None,262.7434030300239,None,262.7434030300239,None,,,,,,,,,,,128,22,Female,2022-05-11_11h05.32.792,Boat,2022.1.1,60.00657671500088,
negative,neutral,2,j,l,,,,,,,,,1,1,19,12,,,,,,,,,,,,,,,,,,,,,,,,main,1,1,2,neutral,negative,j,j,1,0.6766542999539524,262.7591365999542,263.76640359999146,263.7496610999806,None,262.7591365999542,None,262.7591365999542,None,262.7591365999542,None,264.41956682996823,None,264.41956682996823,None,264.41956682996823,None,,,,,,,,,,,128,22,Female,2022-05-11_11h05.32.792,Boat,2022.1.1,60.00657671500088,
neutral,positive,2,k,k,,,,,,,,,1,2,20,13,,,,,,,,,,,,,,,,,,,,,,,,main,2,2,2,positive,neutral,k,k,1,0.8200008999556303,264.4360028000083,265.4501447000075,265.4164782000007,None,264.4360028000083,None,264.4360028000083,None,264.4360028000083,None,266.24330062994267,None,266.24330062994267,None,266.24330062994267,None,,,,,,,,,,,128,22,Female,2022-05-11_11h05.32.792,Boat,2022.1.1,60.00657671500088,
positive,positive,2,l,j,,,,,,,,,1,3,21,11,,,,,,,,,,,,,,,,,,,,,,,,main,2,2,2,positive,positive,l,l,1,0.760068399948068,266.25942859996576,267.268032199936,267.2333791999845,None,266.25942859996576,None,266.25942859996576,None,266.25942859996576,None,268.00480362998786,None,268.00480362998786,None,268.00480362998786,None,,,,,,,,,,,128,22,Female,2022-05-11_11h05.32.792,Boat,2022.1.1,60.00657671500088,
neutral,neutral,2,k,k,,,,,,,,,1,4,22,10,,,,,,,,,,,,,,,,,,,,,,,,main,1,1,2,neutral,neutral,k,k,1,0.6685533999698237,268.0205648000119,269.03367649996653,268.9991831999505,None,268.0205648000119,None,268.0205648000119,None,268.0205648000119,None,269.6780489299446,None,269.6780489299446,None,269.6780489299446,None,,,,,,,,,,,128,22,Female,2022-05-11_11h05.32.792,Boat,2022.1.1,60.00657671500088,
neutral,positive,1,k,k,,,,,,,,,1,5,23,4,,,,,,,,,,,,,,,,,,,,,,,,main,2,2,1,positive,neutral,k,k,1,1.2354766000062227,269.6959414000157,270.6999283999903,270.66458699991927,None,269.6959414000157,None,269.6959414000157,None,269.6959414000157,None,271.91500822994857,None,271.91500822994857,None,271.91500822994857,None,,,,,,,,,,,128,22,Female,2022-05-11_11h05.32.792,Boat,2022.1.1,60.00657671500088,
neutral,neutral,1,k,k,,,,,,,,,1,6,24,1,,,,,,,,,,,,,,,,,,,,,,,,main,2,2,1,neutral,neutral,k,k,1,0.6267661000601947,271.9299860999454,272.93318639998324,272.9139874000102,None,271.9299860999454,None,271.9299860999454,None,271.9299860999454,None,273.5441697299713,None,273.5441697299713,None,273.5441697299713,None,,,,,,,,,,,128,22,Female,2022-05-11_11h05.32.792,Boat,2022.1.1,60.00657671500088,
neutral,negative,1,k,k,,,,,,,,,1,7,25,7,,,,,,,,,,,,,,,,,,,,,,,,main,2,2,1,negative,neutral,k,k,1,0.5939985000295565,273.5639917999506,274.56700819998514,274.5477574999677,None,273.5639917999506,None,273.5639917999506,None,273.5639917999506,None,275.1388087299885,None,275.1388087299885,None,275.1388087299885,None,,,,,,,,,,,128,22,Female,2022-05-11_11h05.32.792,Boat,2022.1.1,60.00657671500088,
negative,negative,1,j,l,,,,,,,,,1,8,26,0,,,,,,,,,,,,,,,,,,,,,,,,main,1,1,1,negative,negative,j,j,1,0.7654934999300167,275.156089099939,276.1674667999614,276.1337502999231,None,275.156089099939,None,275.156089099939,None,275.156089099939,None,276.90962862996383,None,276.90962862996383,None,276.90962862996383,None,,,,,,,,,,,128,22,Female,2022-05-11_11h05.32.792,Boat,2022.1.1,60.00657671500088,
positive,neutral,2,l,j,,,,,,,,,1,9,27,17,,,,,,,,,,,,,,,,,,,,,,,,main,2,2,2,neutral,positive,l,l,1,0.8069553999230266,276.9273373999167,277.93475499993656,277.917113399948,None,276.9273373999167,None,276.9273373999167,None,276.9273373999167,None,278.7172059299657,None,278.7172059299657,None,278.7172059299657,None,,,,,,,,,,,128,22,Female,2022-05-11_11h05.32.792,Boat,2022.1.1,60.00657671500088,
negative,neutral,1,j,l,,,,,,,,,1,10,28,3,,,,,,,,,,,,,,,,,,,,,,,,main,2,2,1,neutral,negative,j,j,1,0.774184999987483,278.7323410999961,279.741937499959,279.7153640999459,None,278.7323410999961,None,278.7323410999961,None,278.7323410999961,None,280.4950953299878,None,280.4950953299878,None,280.4950953299878,None,,,,,,,,,,,128,22,Female,2022-05-11_11h05.32.792,Boat,2022.1.1,60.00657671500088,
negative,positive,1,j,l,,,,,,,,,1,11,29,6,,,,,,,,,,,,,,,,,,,,,,,,main,1,1,1,positive,negative,j,j,1,0.5824313999619335,280.51073600002564,281.51781320001464,281.4837733999593,None,280.51073600002564,None,280.51073600002564,None,280.51073600002564,None,282.0799283299595,None,282.0799283299595,None,282.0799283299595,None,,,,,,,,,,,128,22,Female,2022-05-11_11h05.32.792,Boat,2022.1.1,60.00657671500088,
positive,positive,1,l,j,,,,,,,,,1,12,30,2,,,,,,,,,,,,,,,,,,,,,,,,main,1,1,1,positive,positive,l,j,0,0.6409122999757528,282.0990776999388,283.1084044999443,283.0672269000206,None,282.0990776999388,None,282.0990776999388,None,282.0990776999388,None,283.7327125999145,None,283.7327125999145,None,283.7327125999145,None,,,,,,,,,,,128,22,Female,2022-05-11_11h05.32.792,Boat,2022.1.1,60.00657671500088,
positive,negative,2,l,j,,,,,,,,,1,13,31,14,,,,,,,,,,,,,,,,,,,,,,,,main,1,1,2,negative,positive,l,l,1,0.8672824000241235,284.75254829996265,285.7683288999833,285.73364579991903,None,284.75254829996265,None,284.75254829996265,None,284.75254829996265,None,286.6058061299147,None,286.6058061299147,None,286.6058061299147,None,,,,,,,,,,,128,22,Female,2022-05-11_11h05.32.792,Boat,2022.1.1,60.00657671500088,
positive,neutral,1,l,j,,,,,,,,,1,14,32,8,,,,,,,,,,,,,,,,,,,,,,,,main,1,1,1,neutral,positive,l,l,1,0.6872870000079274,286.62166379997507,287.6339762000134,287.60017839993816,None,286.62166379997507,None,286.62166379997507,None,286.62166379997507,None,288.2973244300112,None,288.2973244300112,None,288.2973244300112,None,,,,,,,,,,,128,22,Female,2022-05-11_11h05.32.792,Boat,2022.1.1,60.00657671500088,
negative,positive,2,j,l,,,,,,,,,1,15,33,15,,,,,,,,,,,,,,,,,,,,,,,,main,1,1,2,positive,negative,j,j,1,0.7973894000751898,288.31371169991326,289.3254478999879,289.2838759999722,None,288.31371169991326,None,288.31371169991326,None,288.31371169991326,None,290.0973595299758,None,290.0973595299758,None,290.0973595299758,None,,,,,,,,,,,128,22,Female,2022-05-11_11h05.32.792,Boat,2022.1.1,60.00657671500088,
positive,negative,1,l,j,,,,,,,,,1,16,34,5,,,,,,,,,,,,,,,,,,,,,,,,main,2,2,1,negative,positive,l,l,1,0.8750926000066102,290.11234140000306,291.11703859991394,291.1002221999224,None,290.11234140000306,None,290.11234140000306,None,290.11234140000306,None,291.97286332997027,None,291.97286332997027,None,291.97286332997027,None,,,,,,,,,,,128,22,Female,2022-05-11_11h05.32.792,Boat,2022.1.1,60.00657671500088,
negative,negative,2,j,l,,,,,,,,,1,17,35,9,,,,,,,,,,,,,,,,,,,,,,,,main,2,2,2,negative,negative,j,j,1,0.7372032999992371,291.9876253999537,293.00147899996955,292.98393629991915,None,291.9876253999537,None,291.9876253999537,None,291.9876253999537,None,293.714140830026,None,293.714140830026,None,293.714140830026,None,,,,,,,,,,,128,22,Female,2022-05-11_11h05.32.792,Boat,2022.1.1,60.00657671500088,
positive,neutral,2,l,j,,,,,,,,,2,0,36,17,,,,,,,,,,,,,,,,,,,,,,,,main,1,1,2,neutral,positive,l,l,1,0.6895994000369683,293.7328600999899,294.7504485999234,294.71452329994645,None,293.7328600999899,None,293.7328600999899,None,293.7328600999899,None,295.40447162992785,None,295.40447162992785,None,295.40447162992785,None,,,,,,,,,,,128,22,Female,2022-05-11_11h05.32.792,Boat,2022.1.1,60.00657671500088,
neutral,positive,1,k,k,,,,,,,,,2,1,37,4,,,,,,,,,,,,,,,,,,,,,,,,main,2,2,1,positive,neutral,k,k,1,0.6740576999727637,295.4215950999642,296.4342780999141,296.39824279991444,None,295.4215950999642,None,295.4215950999642,None,295.4215950999642,None,297.0827502300264,None,297.0827502300264,None,297.0827502300264,None,,,,,,,,,,,128,22,Female,2022-05-11_11h05.32.792,Boat,2022.1.1,60.00657671500088,
positive,neutral,1,l,j,,,,,,,,,2,2,38,8,,,,,,,,,,,,,,,,,,,,,,,,main,2,2,1,neutral,positive,l,l,1,0.6453810998937115,297.09958309994545,298.113540399936,298.0752742999466,None,297.09958309994545,None,297.09958309994545,None,297.09958309994545,None,298.73112573002,None,298.73112573002,None,298.73112573002,None,,,,,,,,,,,128,22,Female,2022-05-11_11h05.32.792,Boat,2022.1.1,60.00657671500088,
neutral,negative,2,k,k,,,,,,,,,2,3,39,16,,,,,,,,,,,,,,,,,,,,,,,,main,1,1,2,negative,neutral,k,k,1,0.7433793999953195,298.74672049994115,299.7505505000008,299.7316327999579,None,298.74672049994115,None,298.74672049994115,None,298.74672049994115,None,300.47750692993867,None,300.47750692993867,None,300.47750692993867,None,,,,,,,,,,,128,22,Female,2022-05-11_11h05.32.792,Boat,2022.1.1,60.00657671500088,
neutral,positive,2,k,k,,,,,,,,,2,4,40,13,,,,,,,,,,,,,,,,,,,,,,,,main,1,1,2,positive,neutral,k,k,1,0.5968451000517234,300.4921586000128,301.500839299988,301.46723239996936,None,300.4921586000128,None,300.4921586000128,None,300.4921586000128,None,302.0763713299995,None,302.0763713299995,None,302.0763713299995,None,,,,,,,,,,,128,22,Female,2022-05-11_11h05.32.792,Boat,2022.1.1,60.00657671500088,
negative,neutral,2,j,l,,,,,,,,,2,5,41,12,,,,,,,,,,,,,,,,,,,,,,,,main,1,1,2,neutral,negative,j,j,1,0.7163142999634147,302.09236409992445,303.0973553999793,303.07857689994853,None,302.09236409992445,None,302.09236409992445,None,302.09236409992445,None,303.79556162997613,None,303.79556162997613,None,303.79556162997613,None,,,,,,,,,,,128,22,Female,2022-05-11_11h05.32.792,Boat,2022.1.1,60.00657671500088,
negative,positive,2,j,l,,,,,,,,,2,6,42,15,,,,,,,,,,,,,,,,,,,,,,,,main,2,2,2,positive,negative,j,j,1,0.6378039000555873,303.81331719993614,304.8345915999962,304.79528959991876,None,303.81331719993614,None,303.81331719993614,None,303.81331719993614,None,305.43461062996647,None,305.43461062996647,None,305.43461062996647,None,,,,,,,,,,,128,22,Female,2022-05-11_11h05.32.792,Boat,2022.1.1,60.00657671500088,
positive,negative,2,l,j,,,,,,,,,2,7,43,14,,,,,,,,,,,,,,,,,,,,,,,,main,2,2,2,negative,positive,l,l,1,0.7623480999609455,305.4497420999687,306.467397899949,306.43178869993426,None,305.4497420999687,None,305.4497420999687,None,305.4497420999687,None,307.1996162300231,None,307.1996162300231,None,307.1996162300231,None,,,,,,,,,,,128,22,Female,2022-05-11_11h05.32.792,Boat,2022.1.1,60.00657671500088,
neutral,neutral,2,k,k,,,,,,,,,2,8,44,10,,,,,,,,,,,,,,,,,,,,,,,,main,2,2,2,neutral,neutral,k,k,1,0.6048744000727311,307.2183123999275,308.2177941999398,308.20081940002274,None,307.2183123999275,None,307.2183123999275,None,307.2183123999275,None,308.80983912996015,None,308.80983912996015,None,308.80983912996015,None,,,,,,,,,,,128,22,Female,2022-05-11_11h05.32.792,Boat,2022.1.1,60.00657671500088,
neutral,neutral,1,k,k,,,,,,,,,2,9,45,1,,,,,,,,,,,,,,,,,,,,,,,,main,2,2,1,neutral,neutral,k,k,1,0.566208399948664,308.824556699954,309.8344279999146,309.817823600024,None,308.824556699954,None,308.824556699954,None,308.824556699954,None,310.37825722997076,None,310.37825722997076,None,310.37825722997076,None,,,,,,,,,,,128,22,Female,2022-05-11_11h05.32.792,Boat,2022.1.1,60.00657671500088,
positive,positive,1,l,j,,,,,,,,,2,10,46,2,,,,,,,,,,,,,,,,,,,,,,,,main,2,2,1,positive,positive,l,l,1,0.6598580999998376,310.3941153999185,311.4012495999923,311.3672709999373,None,310.3941153999185,None,310.3941153999185,None,310.3941153999185,None,312.03829083002637,None,312.03829083002637,None,312.03829083002637,None,,,,,,,,,,,128,22,Female,2022-05-11_11h05.32.792,Boat,2022.1.1,60.00657671500088,
positive,negative,1,l,j,,,,,,,,,2,11,47,5,,,,,,,,,,,,,,,,,,,,,,,,main,1,1,1,negative,positive,l,l,1,0.6999103999696672,312.05522480001673,313.0753829999594,313.03471079992596,None,312.05522480001673,None,312.05522480001673,None,312.05522480001673,None,313.7439109299332,None,313.7439109299332,None,313.7439109299332,None,,,,,,,,,,,128,22,Female,2022-05-11_11h05.32.792,Boat,2022.1.1,60.00657671500088,
neutral,negative,1,k,k,,,,,,,,,2,12,48,7,,,,,,,,,,,,,,,,,,,,,,,,main,2,2,1,negative,neutral,k,k,1,0.848447100026533,313.75931350002065,314.76756559999194,314.7503913999535,None,313.75931350002065,None,313.75931350002065,None,313.75931350002065,None,315.59433613000436,None,315.59433613000436,None,315.59433613000436,None,,,,,,,,,,,128,22,Female,2022-05-11_11h05.32.792,Boat,2022.1.1,60.00657671500088,
negative,positive,1,j,l,,,,,,,,,2,13,49,6,,,,,,,,,,,,,,,,,,,,,,,,main,1,1,1,positive,negative,j,j,1,0.9007620000047609,315.6128464000067,316.6184136000229,316.58205949992407,None,315.6128464000067,None,315.6128464000067,None,315.6128464000067,None,317.4977600300219,None,317.4977600300219,None,317.4977600300219,None,,,,,,,,,,,128,22,Female,2022-05-11_11h05.32.792,Boat,2022.1.1,60.00657671500088,
negative,neutral,1,j,l,,,,,,,,,2,14,50,3,,,,,,,,,,,,,,,,,,,,,,,,main,1,1,1,neutral,negative,j,j,1,0.908629700075835,317.51312219991814,318.529177099932,318.5094384999247,None,317.51312219991814,None,317.51312219991814,None,317.51312219991814,None,319.40646302995737,None,319.40646302995737,None,319.40646302995737,None,,,,,,,,,,,128,22,Female,2022-05-11_11h05.32.792,Boat,2022.1.1,60.00657671500088,
negative,negative,1,j,l,,,,,,,,,2,15,51,0,,,,,,,,,,,,,,,,,,,,,,,,main,2,2,1,negative,negative,j,j,1,0.5982671000529081,319.42172119999304,320.4368115999969,320.4011242999695,None,319.42172119999304,None,319.42172119999304,None,319.42172119999304,None,321.0071649299236,None,321.0071649299236,None,321.0071649299236,None,,,,,,,,,,,128,22,Female,2022-05-11_11h05.32.792,Boat,2022.1.1,60.00657671500088,
positive,positive,2,l,j,,,,,,,,,2,16,52,11,,,,,,,,,,,,,,,,,,,,,,,,main,2,2,2,positive,positive,l,l,1,0.8422820999985561,321.0236894999398,322.0318824999267,322.0124034999171,None,321.0236894999398,None,321.0236894999398,None,321.0236894999398,None,322.85200422995257,None,322.85200422995257,None,322.85200422995257,None,,,,,,,,,,,128,22,Female,2022-05-11_11h05.32.792,Boat,2022.1.1,60.00657671500088,
negative,negative,2,j,l,,,,,,,,,2,17,53,9,,,,,,,,,,,,,,,,,,,,,,,,main,1,1,2,negative,negative,j,j,1,0.7522570000728592,322.8674488000106,323.8679381000111,323.8511771999765,None,322.8674488000106,None,322.8674488000106,None,322.8674488000106,None,324.6066604300169,None,324.6066604300169,None,324.6066604300169,None,,,,,,,,,,,128,22,Female,2022-05-11_11h05.32.792,Boat,2022.1.1,60.00657671500088,
neutral,neutral,1,k,k,,,,,,,,,3,0,54,1,,,,,,,,,,,,,,,,,,,,,,,,main,2,2,1,neutral,neutral,k,k,1,0.8768700999207795,324.6212713000132,325.64610339992214,325.62621849996503,None,324.6212713000132,None,324.6212713000132,None,324.6212713000132,None,326.48554742992854,None,326.48554742992854,None,326.48554742992854,None,,,,,,,,,,,128,22,Female,2022-05-11_11h05.32.792,Boat,2022.1.1,60.00657671500088,
positive,positive,1,l,j,,,,,,,,,3,1,55,2,,,,,,,,,,,,,,,,,,,,,,,,main,2,2,1,positive,positive,l,l,1,0.6695174999767914,326.50277239992283,327.5148149000015,327.4956431000028,None,326.50277239992283,None,326.50277239992283,None,326.50277239992283,None,328.1592210300034,None,328.1592210300034,None,328.1592210300034,None,,,,,,,,,,,128,22,Female,2022-05-11_11h05.32.792,Boat,2022.1.1,60.00657671500088,
neutral,positive,1,k,k,,,,,,,,,3,2,56,4,,,,,,,,,,,,,,,,,,,,,,,,main,1,1,1,positive,neutral,k,k,1,0.6656531000044197,328.1753128999844,329.18706359993666,329.14904019993264,None,328.1753128999844,None,328.1753128999844,None,328.1753128999844,None,329.8282756299479,None,329.8282756299479,None,329.8282756299479,None,,,,,,,,,,,128,22,Female,2022-05-11_11h05.32.792,Boat,2022.1.1,60.00657671500088,
positive,neutral,2,l,j,,,,,,,,,3,3,57,17,,,,,,,,,,,,,,,,,,,,,,,,main,2,2,2,neutral,positive,l,l,1,0.6865205999929458,329.84610790002625,330.8593798999209,330.81793539994396,None,329.84610790002625,None,329.84610790002625,None,329.84610790002625,None,331.5166581299156,None,331.5166581299156,None,331.5166581299156,None,,,,,,,,,,,128,22,Female,2022-05-11_11h05.32.792,Boat,2022.1.1,60.00657671500088,
neutral,negative,1,k,k,,,,,,,,,3,4,58,7,,,,,,,,,,,,,,,,,,,,,,,,main,1,1,1,negative,neutral,k,k,1,0.7204404000658542,331.5338001999771,332.53509299992584,332.5185053999303,None,331.5338001999771,None,331.5338001999771,None,331.5338001999771,None,333.238294530008,None,333.238294530008,None,333.238294530008,None,,,,,,,,,,,128,22,Female,2022-05-11_11h05.32.792,Boat,2022.1.1,60.00657671500088,
negative,neutral,1,j,l,,,,,,,,,3,5,59,3,,,,,,,,,,,,,,,,,,,,,,,,main,1,1,1,neutral,negative,j,j,1,0.7825734000653028,333.25416249991395,334.26425489992835,334.24588689999655,None,333.25416249991395,None,333.25416249991395,None,333.25416249991395,None,335.0237976300297,None,335.0237976300297,None,335.0237976300297,None,,,,,,,,,,,128,22,Female,2022-05-11_11h05.32.792,Boat,2022.1.1,60.00657671500088,
positive,neutral,1,l,j,,,,,,,,,3,6,60,8,,,,,,,,,,,,,,,,,,,,,,,,main,1,1,1,neutral,positive,l,l,1,0.7453023999696597,335.03860179998446,336.0512887999648,336.03507819992956,None,335.03860179998446,None,335.03860179998446,None,335.03860179998446,None,336.77104343001264,None,336.77104343001264,None,336.77104343001264,None,,,,,,,,,,,128,22,Female,2022-05-11_11h05.32.792,Boat,2022.1.1,60.00657671500088,
positive,negative,1,l,j,,,,,,,,,3,7,61,5,,,,,,,,,,,,,,,,,,,,,,,,main,2,2,1,negative,positive,l,l,1,0.5638523000525311,336.78749110002536,337.80146029999014,337.7655424999539,None,336.78749110002536,None,336.78749110002536,None,336.78749110002536,None,338.33733782991766,None,338.33733782991766,None,338.33733782991766,None,,,,,,,,,,,128,22,Female,2022-05-11_11h05.32.792,Boat,2022.1.1,60.00657671500088,
negative,negative,1,j,l,,,,,,,,,3,8,62,0,,,,,,,,,,,,,,,,,,,,,,,,main,2,2,1,negative,negative,j,j,1,0.7354535999475047,338.35462280001957,339.37005609995686,339.335087299929,None,338.35462280001957,None,338.35462280001957,None,338.35462280001957,None,340.0749981300207,None,340.0749981300207,None,340.0749981300207,None,,,,,,,,,,,128,22,Female,2022-05-11_11h05.32.792,Boat,2022.1.1,60.00657671500088,
neutral,neutral,2,k,k,,,,,,,,,3,9,63,10,,,,,,,,,,,,,,,,,,,,,,,,main,1,1,2,neutral,neutral,k,k,1,0.7604794999351725,340.09981859999243,341.11348189995624,341.0880680999253,None,340.09981859999243,None,340.09981859999243,None,340.09981859999243,None,341.8409153299173,None,341.8409153299173,None,341.8409153299173,None,,,,,,,,,,,128,22,Female,2022-05-11_11h05.32.792,Boat,2022.1.1,60.00657671500088,
neutral,negative,2,k,k,,,,,,,,,3,10,64,16,,,,,,,,,,,,,,,,,,,,,,,,main,2,2,2,negative,neutral,k,k,1,1.6278460000175983,341.85746979992837,342.87660009996034,342.83503730001394,None,341.85746979992837,None,341.85746979992837,None,341.85746979992837,None,344.47763869992923,None,344.47763869992923,None,344.47763869992923,None,,,,,,,,,,,128,22,Female,2022-05-11_11h05.32.792,Boat,2022.1.1,60.00657671500088,
positive,negative,2,l,j,,,,,,,,,3,11,65,14,,,,,,,,,,,,,,,,,,,,,,,,main,1,1,2,negative,positive,l,l,1,0.6783381999703124,345.48816910001915,346.5099318999564,346.4683579999255,None,345.48816910001915,None,345.48816910001915,None,345.48816910001915,None,347.1519795299275,None,347.1519795299275,None,347.1519795299275,None,,,,,,,,,,,128,22,Female,2022-05-11_11h05.32.792,Boat,2022.1.1,60.00657671500088,
negative,positive,2,j,l,,,,,,,,,3,12,66,15,,,,,,,,,,,,,,,,,,,,,,,,main,2,2,2,positive,negative,j,j,1,0.9155633999034762,347.1677159999963,348.18512859998737,348.14646889991127,None,347.1677159999963,None,347.1677159999963,None,347.1677159999963,None,349.06979442997834,None,349.06979442997834,None,349.06979442997834,None,,,,,,,,,,,128,22,Female,2022-05-11_11h05.32.792,Boat,2022.1.1,60.00657671500088,
negative,negative,2,j,l,,,,,,,,,3,13,67,9,,,,,,,,,,,,,,,,,,,,,,,,main,1,1,2,negative,negative,j,j,1,0.6829959000460804,349.08613099996,350.1097650999436,350.06841249996796,None,349.08613099996,None,349.08613099996,None,349.08613099996,None,350.7554760299856,None,350.7554760299856,None,350.7554760299856,None,,,,,,,,,,,128,22,Female,2022-05-11_11h05.32.792,Boat,2022.1.1,60.00657671500088,
negative,neutral,2,j,l,,,,,,,,,3,14,68,12,,,,,,,,,,,,,,,,,,,,,,,,main,2,2,2,neutral,negative,j,j,1,0.7406456000171602,350.7708220999921,351.7850832999684,351.7515146000078,None,350.7708220999921,None,350.7708220999921,None,350.7708220999921,None,352.50062802997417,None,352.50062802997417,None,352.50062802997417,None,,,,,,,,,,,128,22,Female,2022-05-11_11h05.32.792,Boat,2022.1.1,60.00657671500088,
neutral,positive,2,k,k,,,,,,,,,3,15,69,13,,,,,,,,,,,,,,,,,,,,,,,,main,1,1,2,positive,neutral,k,k,1,0.7865162999369204,352.5174293000018,353.5264643999981,353.50168450002093,None,352.5174293000018,None,352.5174293000018,None,352.5174293000018,None,354.2886203299742,None,354.2886203299742,None,354.2886203299742,None,,,,,,,,,,,128,22,Female,2022-05-11_11h05.32.792,Boat,2022.1.1,60.00657671500088,
positive,positive,2,l,j,,,,,,,,,3,16,70,11,,,,,,,,,,,,,,,,,,,,,,,,main,2,2,2,positive,positive,l,l,1,0.8660705999936908,354.3037124000257,355.31735949998256,355.2972224999685,None,354.3037124000257,None,354.3037124000257,None,354.3037124000257,None,356.15645112998317,None,356.15645112998317,None,356.15645112998317,None,,,,,,,,,,,128,22,Female,2022-05-11_11h05.32.792,Boat,2022.1.1,60.00657671500088,
negative,positive,1,j,l,,,,,,,,,3,17,71,6,,,,,,,,,,,,,,,,,,,,,,,,main,2,2,1,positive,negative,j,j,1,0.753321300027892,356.17222569999285,357.1930762999691,357.1522531999508,None,356.17222569999285,None,356.17222569999285,None,356.17222569999285,None,357.9147098300047,None,357.9147098300047,None,357.9147098300047,None,,,,,,,,,,,128,22,Female,2022-05-11_11h05.32.792,Boat,2022.1.1,60.00657671500088,
positive,negative,1,l,j,,,,,,,,,4,0,72,5,,,,,,,,,,,,,,,,,,,,,,,,main,2,2,1,negative,positive,l,l,1,0.8495910000056028,357.93324639997445,358.9355028999271,358.9179658999201,None,357.93324639997445,None,357.93324639997445,None,357.93324639997445,None,359.7661494300002,None,359.7661494300002,None,359.7661494300002,None,,,,,,,,,,,128,22,Female,2022-05-11_11h05.32.792,Boat,2022.1.1,60.00657671500088,
negative,negative,2,j,l,,,,,,,,,4,1,73,9,,,,,,,,,,,,,,,,,,,,,,,,main,1,1,2,negative,negative,j,j,1,1.0299948999891058,359.7841455999296,360.799317899975,360.76012949994765,None,359.7841455999296,None,359.7841455999296,None,359.7841455999296,None,361.7990589299472,None,361.7990589299472,None,361.7990589299472,None,,,,,,,,,,,128,22,Female,2022-05-11_11h05.32.792,Boat,2022.1.1,60.00657671500088,
negative,neutral,1,j,l,,,,,,,,,4,2,74,3,,,,,,,,,,,,,,,,,,,,,,,,main,2,2,1,neutral,negative,j,j,1,0.6920027999440208,361.81812379998155,362.8336234999588,362.7934992000228,None,361.81812379998155,None,361.81812379998155,None,361.81812379998155,None,363.49326182999647,None,363.49326182999647,None,363.49326182999647,None,,,,,,,,,,,128,22,Female,2022-05-11_11h05.32.792,Boat,2022.1.1,60.00657671500088,
positive,negative,2,l,j,,,,,,,,,4,3,75,14,,,,,,,,,,,,,,,,,,,,,,,,main,2,2,2,negative,positive,l,l,1,0.849734399933368,363.5105940999929,364.51979549997486,364.49992380000185,None,363.5105940999929,None,363.5105940999929,None,363.5105940999929,None,365.34635603001806,None,365.34635603001806,None,365.34635603001806,None,,,,,,,,,,,128,22,Female,2022-05-11_11h05.32.792,Boat,2022.1.1,60.00657671500088,
positive,neutral,2,l,j,,,,,,,,,4,4,76,17,,,,,,,,,,,,,,,,,,,,,,,,main,2,2,2,neutral,positive,l,l,1,0.8161262000212446,365.3677538000047,366.3846701999428,366.34365389996674,None,365.3677538000047,None,365.3677538000047,None,365.3677538000047,None,367.1653871299233,None,367.1653871299233,None,367.1653871299233,None,,,,,,,,,,,128,22,Female,2022-05-11_11h05.32.792,Boat,2022.1.1,60.00657671500088,
negative,neutral,2,j,l,,,,,,,,,4,5,77,12,,,,,,,,,,,,,,,,,,,,,,,,main,2,2,2,neutral,negative,j,j,1,0.7728164999280125,367.18386109999847,368.18554979993496,368.1689155999338,None,367.18386109999847,None,367.18386109999847,None,367.18386109999847,None,368.9390873299446,None,368.9390873299446,None,368.9390873299446,None,,,,,,,,,,,128,22,Female,2022-05-11_11h05.32.792,Boat,2022.1.1,60.00657671500088,
neutral,neutral,1,k,k,,,,,,,,,4,6,78,1,,,,,,,,,,,,,,,,,,,,,,,,main,1,1,1,neutral,neutral,k,k,1,1.133297299966216,368.954728599987,369.9691116999602,369.9522634999594,None,368.954728599987,None,368.954728599987,None,368.954728599987,None,371.07414492992683,None,371.07414492992683,None,371.07414492992683,None,,,,,,,,,,,128,22,Female,2022-05-11_11h05.32.792,Boat,2022.1.1,60.00657671500088,
neutral,negative,1,k,k,,,,,,,,,4,7,79,7,,,,,,,,,,,,,,,,,,,,,,,,main,2,2,1,negative,neutral,k,k,1,0.5624870000174269,371.08985400001984,372.1104809999233,372.06918999995105,None,371.08985400001984,None,371.08985400001984,None,371.08985400001984,None,372.63848162994253,None,372.63848162994253,None,372.63848162994253,None,,,,,,,,,,,128,22,Female,2022-05-11_11h05.32.792,Boat,2022.1.1,60.00657671500088,
neutral,positive,2,k,k,,,,,,,,,4,8,80,13,,,,,,,,,,,,,,,,,,,,,,,,main,1,1,2,positive,neutral,k,k,1,0.5963709999341518,372.6547053999966,373.67061769997235,373.636354999966,None,372.6547053999966,None,372.6547053999966,None,372.6547053999966,None,374.23617712995036,None,374.23617712995036,None,374.23617712995036,None,,,,,,,,,,,128,22,Female,2022-05-11_11h05.32.792,Boat,2022.1.1,60.00657671500088,
neutral,negative,2,k,k,,,,,,,,,4,9,81,16,,,,,,,,,,,,,,,,,,,,,,,,main,2,2,2,negative,neutral,k,k,1,0.6040581000270322,374.252561399946,375.2667132000206,375.2471006999258,None,374.252561399946,None,374.252561399946,None,374.252561399946,None,375.8454773299629,None,375.8454773299629,None,375.8454773299629,None,,,,,,,,,,,128,22,Female,2022-05-11_11h05.32.792,Boat,2022.1.1,60.00657671500088,
neutral,neutral,2,k,k,,,,,,,,,4,10,82,10,,,,,,,,,,,,,,,,,,,,,,,,main,2,2,2,neutral,neutral,k,k,1,0.5260990000097081,375.8609286999563,376.870213599992,376.8358518999303,None,375.8609286999563,None,375.8609286999563,None,375.8609286999563,None,377.37214723001233,None,377.37214723001233,None,377.37214723001233,None,,,,,,,,,,,128,22,Female,2022-05-11_11h05.32.792,Boat,2022.1.1,60.00657671500088,
negative,negative,1,j,l,,,,,,,,,4,11,83,0,,,,,,,,,,,,,,,,,,,,,,,,main,2,2,1,negative,negative,j,j,1,0.7328923000022769,377.3893286000239,378.4028373999754,378.3661452999804,None,377.3893286000239,None,377.3893286000239,None,377.3893286000239,None,379.1083465299336,None,379.1083465299336,None,379.1083465299336,None,,,,,,,,,,,128,22,Female,2022-05-11_11h05.32.792,Boat,2022.1.1,60.00657671500088,
negative,positive,2,j,l,,,,,,,,,4,12,84,15,,,,,,,,,,,,,,,,,,,,,,,,main,1,1,2,positive,negative,j,j,1,0.8524682000279427,379.1252097999677,380.14713699999265,380.10000410000794,None,379.1252097999677,None,379.1252097999677,None,379.1252097999677,None,380.96412122999317,None,380.96412122999317,None,380.96412122999317,None,,,,,,,,,,,128,22,Female,2022-05-11_11h05.32.792,Boat,2022.1.1,60.00657671500088,
positive,neutral,1,l,j,,,,,,,,,4,13,85,8,,,,,,,,,,,,,,,,,,,,,,,,main,2,2,1,neutral,positive,l,l,1,0.7612807999830693,380.98234079999384,382.01076849992387,381.96450849995017,None,380.98234079999384,None,380.98234079999384,None,380.98234079999384,None,382.727653630008,None,382.727653630008,None,382.727653630008,None,,,,,,,,,,,128,22,Female,2022-05-11_11h05.32.792,Boat,2022.1.1,60.00657671500088,
positive,positive,1,l,j,,,,,,,,,4,14,86,2,,,,,,,,,,,,,,,,,,,,,,,,main,2,2,1,positive,positive,l,l,1,0.6212828999850899,382.74316790001467,383.7476139999926,383.7476139999926,None,382.74316790001467,None,382.74316790001467,None,382.74316790001467,None,384.34907062996643,None,384.34907062996643,None,384.34907062996643,None,,,,,,,,,,,128,22,Female,2022-05-11_11h05.32.792,Boat,2022.1.1,60.00657671500088,
neutral,positive,1,k,k,,,,,,,,,4,15,87,4,,,,,,,,,,,,,,,,,,,,,,,,main,2,2,1,positive,neutral,k,k,1,0.6781039999332279,384.37374189996626,385.39387709996663,385.3525468999287,None,384.37374189996626,None,384.37374189996626,None,384.37374189996626,None,386.0339192299172,None,386.0339192299172,None,386.0339192299172,None,,,,,,,,,,,128,22,Female,2022-05-11_11h05.32.792,Boat,2022.1.1,60.00657671500088,
positive,positive,2,l,j,,,,,,,,,4,16,88,11,,,,,,,,,,,,,,,,,,,,,,,,main,2,2,2,positive,positive,l,l,1,0.6472992999479175,386.05261060001794,387.07011059997603,387.0334475999698,None,386.05261060001794,None,386.05261060001794,None,386.05261060001794,None,387.68422572994604,None,387.68422572994604,None,387.68422572994604,None,,,,,,,,,,,128,22,Female,2022-05-11_11h05.32.792,Boat,2022.1.1,60.00657671500088,
negative,positive,1,j,l,,,,,,,,,4,17,89,6,,,,,,,,,,,,,,,,,,,,,,,,main,2,2,1,positive,negative,j,j,1,0.7430908000096679,387.70118340000045,388.71942749992013,388.68064489995595,None,387.70118340000045,None,387.70118340000045,None,387.70118340000045,None,389.4307866299525,None,389.4307866299525,None,389.4307866299525,None,,,,,,,,,,,128,22,Female,2022-05-11_11h05.32.792,Boat,2022.1.1,60.00657671500088,
negative,negative,1,j,l,,,,,,,,,5,0,90,0,,,,,,,,,,,,,,,,,,,,,,,,main,1,1,1,negative,negative,j,j,1,0.6065439999802038,389.44925609999336,390.4688508999534,390.4307129000081,None,389.44925609999336,None,389.44925609999336,None,389.44925609999336,None,391.0382612299174,None,391.0382612299174,None,391.0382612299174,None,,,,,,,,,,,128,22,Female,2022-05-11_11h05.32.792,Boat,2022.1.1,60.00657671500088,
negative,positive,2,j,l,,,,,,,,,5,1,91,15,,,,,,,,,,,,,,,,,,,,,,,,main,2,2,2,positive,negative,j,j,1,1.0569329999852926,391.05476580001414,392.08075590000954,392.03591450001113,None,391.05476580001414,None,391.05476580001414,None,391.05476580001414,None,393.0990487299161,None,393.0990487299161,None,393.0990487299161,None,,,,,,,,,,,128,22,Female,2022-05-11_11h05.32.792,Boat,2022.1.1,60.00657671500088,
negative,neutral,1,j,l,,,,,,,,,5,2,92,3,,,,,,,,,,,,,,,,,,,,,,,,main,2,2,1,neutral,negative,j,j,1,0.7131308000534773,393.11896919994615,394.12031089991797,394.0859524999978,None,393.11896919994615,None,393.11896919994615,None,393.11896919994615,None,394.81381312995217,None,394.81381312995217,None,394.81381312995217,None,,,,,,,,,,,128,22,Female,2022-05-11_11h05.32.792,Boat,2022.1.1,60.00657671500088,
positive,neutral,1,l,j,,,,,,,,,5,3,93,8,,,,,,,,,,,,,,,,,,,,,,,,main,1,1,1,neutral,positive,l,l,1,1.338452799944207,394.8332930000033,395.8360942999134,395.8193595999619,None,394.8332930000033,None,394.8332930000033,None,394.8332930000033,None,397.1532881299965,None,397.1532881299965,None,397.1532881299965,None,,,,,,,,,,,128,22,Female,2022-05-11_11h05.32.792,Boat,2022.1.1,60.00657671500088,
negative,neutral,2,j,l,,,,,,,,,5,4,94,12,,,,,,,,,,,,,,,,,,,,,,,,main,2,2,2,neutral,negative,j,j,1,0.7766994000412524,397.16951469995547,398.1838109999662,398.1640916999895,None,397.16951469995547,None,397.16951469995547,None,397.16951469995547,None,398.9354434300214,None,398.9354434300214,None,398.9354434300214,None,,,,,,,,,,,128,22,Female,2022-05-11_11h05.32.792,Boat,2022.1.1,60.00657671500088,
neutral,negative,2,k,k,,,,,,,,,5,5,95,16,,,,,,,,,,,,,,,,,,,,,,,,main,2,2,2,negative,neutral,k,k,1,0.7964240999426693,398.9519762999844,399.9696324999677,399.95225709991064,None,398.9519762999844,None,398.9519762999844,None,398.9519762999844,None,400.7346792299533,None,400.7346792299533,None,400.7346792299533,None,,,,,,,,,,,128,22,Female,2022-05-11_11h05.32.792,Boat,2022.1.1,60.00657671500088,
neutral,negative,1,k,k,,,,,,,,,5,6,96,7,,,,,,,,,,,,,,,,,,,,,,,,main,1,1,1,negative,neutral,k,k,1,0.9100839999737218,400.75169810000807,401.76956529996824,401.7307729999302,None,400.75169810000807,None,400.75169810000807,None,400.75169810000807,None,402.6475182299502,None,402.6475182299502,None,402.6475182299502,None,,,,,,,,,,,128,22,Female,2022-05-11_11h05.32.792,Boat,2022.1.1,60.00657671500088,
neutral,neutral,1,k,k,,,,,,,,,5,7,97,1,,,,,,,,,,,,,,,,,,,,,,,,main,1,1,1,neutral,neutral,k,k,1,0.6401306000771001,402.6681910000043,403.69750629994087,403.6503511000192,None,402.6681910000043,None,402.6681910000043,None,402.6681910000043,None,404.28928113,None,404.28928113,None,404.28928113,None,,,,,,,,,,,128,22,Female,2022-05-11_11h05.32.792,Boat,2022.1.1,60.00657671500088,
positive,positive,1,l,j,,,,,,,,,5,8,98,2,,,,,,,,,,,,,,,,,,,,,,,,main,1,1,1,positive,positive,l,l,1,1.086716499994509,404.304025099962,405.30715429992415,405.2893088000128,None,404.304025099962,None,404.304025099962,None,404.304025099962,None,406.37977653001434,None,406.37977653001434,None,406.37977653001434,None,,,,,,,,,,,128,22,Female,2022-05-11_11h05.32.792,Boat,2022.1.1,60.00657671500088,
positive,positive,2,l,j,,,,,,,,,5,9,99,11,,,,,,,,,,,,,,,,,,,,,,,,main,2,2,2,positive,positive,l,l,1,0.707448499975726,406.39974079991225,407.4203244999517,407.38100459997077,None,406.39974079991225,None,406.39974079991225,None,406.39974079991225,None,408.08842892996034,None,408.08842892996034,None,408.08842892996034,None,,,,,,,,,,,128,22,Female,2022-05-11_11h05.32.792,Boat,2022.1.1,60.00657671500088,
neutral,positive,1,k,k,,,,,,,,,5,10,100,4,,,,,,,,,,,,,,,,,,,,,,,,main,2,2,1,positive,neutral,k,k,1,0.8950618000235409,408.10354959999677,409.1168257999234,409.09763979993295,None,408.10354959999677,None,408.10354959999677,None,408.10354959999677,None,409.9864984299522,None,409.9864984299522,None,409.9864984299522,None,,,,,,,,,,,128,22,Female,2022-05-11_11h05.32.792,Boat,2022.1.1,60.00657671500088,
positive,negative,2,l,j,,,,,,,,,5,11,101,14,,,,,,,,,,,,,,,,,,,,,,,,main,2,2,2,negative,positive,l,l,1,0.7691777000436559,410.001736999955,411.0110854000086,410.96968149999157,None,410.001736999955,None,410.001736999955,None,410.001736999955,None,411.7566927299369,None,411.7566927299369,None,411.7566927299369,None,,,,,,,,,,,128,22,Female,2022-05-11_11h05.32.792,Boat,2022.1.1,60.00657671500088,
negative,positive,1,j,l,,,,,,,,,5,12,102,6,,,,,,,,,,,,,,,,,,,,,,,,main,2,2,1,positive,negative,j,j,1,0.9276862000115216,411.7733980999328,412.7866826999234,412.75202699995134,None,411.7733980999328,None,411.7733980999328,None,411.7733980999328,None,413.68773192998486,None,413.68773192998486,None,413.68773192998486,None,,,,,,,,,,,128,22,Female,2022-05-11_11h05.32.792,Boat,2022.1.1,60.00657671500088,
positive,neutral,2,l,j,,,,,,,,,5,13,103,17,,,,,,,,,,,,,,,,,,,,,,,,main,2,2,2,neutral,positive,l,l,1,0.8178435999434441,413.70429899997544,414.7203669999726,414.68092199997045,None,413.70429899997544,None,413.70429899997544,None,413.70429899997544,None,415.5070361299906,None,415.5070361299906,None,415.5070361299906,None,,,,,,,,,,,128,22,Female,2022-05-11_11h05.32.792,Boat,2022.1.1,60.00657671500088,
positive,negative,1,l,j,,,,,,,,,5,14,104,5,,,,,,,,,,,,,,,,,,,,,,,,main,2,2,1,negative,positive,l,l,1,0.6528312000446022,415.5234045999823,416.538626799942,416.50043609994464,None,415.5234045999823,None,415.5234045999823,None,415.5234045999823,None,417.16442612993995,None,417.16442612993995,None,417.16442612993995,None,,,,,,,,,,,128,22,Female,2022-05-11_11h05.32.792,Boat,2022.1.1,60.00657671500088,
negative,negative,2,j,l,,,,,,,,,5,15,105,9,,,,,,,,,,,,,,,,,,,,,,,,main,2,2,2,negative,negative,j,j,1,0.7847467999672517,417.1805580999935,418.19460779998917,418.1533645999152,None,417.1805580999935,None,417.1805580999935,None,417.1805580999935,None,418.95213442998937,None,418.95213442998937,None,418.95213442998937,None,,,,,,,,,,,128,22,Female,2022-05-11_11h05.32.792,Boat,2022.1.1,60.00657671500088,
neutral,positive,2,k,k,,,,,,,,,5,16,106,13,,,,,,,,,,,,,,,,,,,,,,,,main,2,2,2,positive,neutral,k,k,1,0.6597456000745296,418.96904919994995,419.98664779996034,419.9511185999727,None,418.96904919994995,None,418.96904919994995,None,418.96904919994995,None,420.6141433299519,None,420.6141433299519,None,420.6141433299519,None,,,,,,,,,,,128,22,Female,2022-05-11_11h05.32.792,Boat,2022.1.1,60.00657671500088,
neutral,neutral,2,k,k,,,,,,,,,5,17,107,10,,,,,,,,,,,,,,,,,,,,,,,,main,2,2,2,neutral,neutral,k,k,1,0.6763050999725237,420.63119869993534,421.6393599999137,421.60374449996743,None,420.63119869993534,None,420.63119869993534,None,420.63119869993534,None,422.29417693002614,None,422.29417693002614,None,422.29417693002614,None,,,,,,,,,,,128,22,Female,2022-05-11_11h05.32.792,Boat,2022.1.1,60.00657671500088,
negative,neutral,1,j,l,,,,,,,,,6,0,108,3,,,,,,,,,,,,,,,,,,,,,,,,main,1,1,1,neutral,negative,j,j,1,0.9475424999836832,422.3124794999603,423.3197477000067,423.3002385,None,422.3124794999603,None,422.3124794999603,None,422.3124794999603,None,424.2414322299184,None,424.2414322299184,None,424.2414322299184,None,,,,,,,,,,,128,22,Female,2022-05-11_11h05.32.792,Boat,2022.1.1,60.00657671500088,
negative,neutral,2,j,l,,,,,,,,,6,1,109,12,,,,,,,,,,,,,,,,,,,,,,,,main,2,2,2,neutral,negative,j,j,1,0.6239962999243289,424.2564362999983,425.27053779992275,425.23103989998344,None,424.2564362999983,None,424.2564362999983,None,424.2564362999983,None,425.86909083002246,None,425.86909083002246,None,425.86909083002246,None,,,,,,,,,,,128,22,Female,2022-05-11_11h05.32.792,Boat,2022.1.1,60.00657671500088,
negative,negative,2,j,l,,,,,,,,,6,2,110,9,,,,,,,,,,,,,,,,,,,,,,,,main,1,1,2,negative,negative,j,j,1,0.6479489000048488,425.8839689999586,426.8865678999573,426.86983799992595,None,425.8839689999586,None,425.8839689999586,None,425.8839689999586,None,427.5205030299723,None,427.5205030299723,None,427.5205030299723,None,,,,,,,,,,,128,22,Female,2022-05-11_11h05.32.792,Boat,2022.1.1,60.00657671500088,
negative,positive,2,j,l,,,,,,,,,6,3,111,15,,,,,,,,,,,,,,,,,,,,,,,,main,1,1,2,positive,negative,j,j,1,0.6072392000351101,427.53691749996506,428.55383440002333,428.5152536999667,None,427.53691749996506,None,427.53691749996506,None,427.53691749996506,None,429.1326122299535,None,429.1326122299535,None,429.1326122299535,None,,,,,,,,,,,128,22,Female,2022-05-11_11h05.32.792,Boat,2022.1.1,60.00657671500088,
negative,positive,1,j,l,,,,,,,,,6,4,112,6,,,,,,,,,,,,,,,,,,,,,,,,main,1,1,1,positive,negative,j,j,1,0.7186780999181792,429.15095429995563,430.1615012999391,430.13524959993083,None,429.15095429995563,None,429.15095429995563,None,429.15095429995563,None,430.8533746300265,None,430.8533746300265,None,430.8533746300265,None,,,,,,,,,,,128,22,Female,2022-05-11_11h05.32.792,Boat,2022.1.1,60.00657671500088,
neutral,positive,1,k,k,,,,,,,,,6,5,113,4,,,,,,,,,,,,,,,,,,,,,,,,main,1,1,1,positive,neutral,k,k,1,0.9206180999753997,430.8685197000159,431.8706298000179,431.8706298000179,None,430.8685197000159,None,430.8685197000159,None,430.8685197000159,None,432.774374830001,None,432.774374830001,None,432.774374830001,None,,,,,,,,,,,128,22,Female,2022-05-11_11h05.32.792,Boat,2022.1.1,60.00657671500088,
neutral,neutral,2,k,k,,,,,,,,,6,6,114,10,,,,,,,,,,,,,,,,,,,,,,,,main,2,2,2,neutral,neutral,k,k,1,0.7016440998995677,432.7908121999353,433.80506379995495,433.77015769993886,None,432.7908121999353,None,432.7908121999353,None,432.7908121999353,None,434.48089553001336,None,434.48089553001336,None,434.48089553001336,None,,,,,,,,,,,128,22,Female,2022-05-11_11h05.32.792,Boat,2022.1.1,60.00657671500088,
positive,negative,2,l,j,,,,,,,,,6,7,115,14,,,,,,,,,,,,,,,,,,,,,,,,main,2,2,2,negative,positive,l,l,1,0.7833172000246122,434.50025389995426,435.50418809999246,435.4698816000018,None,434.50025389995426,None,434.50025389995426,None,434.50025389995426,None,436.2662188299466,None,436.2662188299466,None,436.2662188299466,None,,,,,,,,,,,128,22,Female,2022-05-11_11h05.32.792,Boat,2022.1.1,60.00657671500088,
neutral,positive,2,k,k,,,,,,,,,6,8,116,13,,,,,,,,,,,,,,,,,,,,,,,,main,2,2,2,positive,neutral,k,k,1,0.8125207000412047,436.2827859999379,437.2894947999157,437.2537916000001,None,436.2827859999379,None,436.2827859999379,None,436.2827859999379,None,438.08127172994426,None,438.08127172994426,None,438.08127172994426,None,,,,,,,,,,,128,22,Female,2022-05-11_11h05.32.792,Boat,2022.1.1,60.00657671500088,
positive,positive,2,l,j,,,,,,,,,6,9,117,11,,,,,,,,,,,,,,,,,,,,,,,,main,2,2,2,positive,positive,l,l,1,0.7973663000157103,438.10026019997895,439.1172880999511,439.07851109991316,None,438.10026019997895,None,438.10026019997895,None,438.10026019997895,None,439.8810632299166,None,439.8810632299166,None,439.8810632299166,None,,,,,,,,,,,128,22,Female,2022-05-11_11h05.32.792,Boat,2022.1.1,60.00657671500088,
positive,neutral,2,l,j,,,,,,,,,6,10,118,17,,,,,,,,,,,,,,,,,,,,,,,,main,2,2,2,neutral,positive,l,l,1,0.6282847999827936,439.89667539997026,440.902110899915,440.8818111999426,None,439.89667539997026,None,439.89667539997026,None,439.89667539997026,None,441.5107146299444,None,441.5107146299444,None,441.5107146299444,None,,,,,,,,,,,128,22,Female,2022-05-11_11h05.32.792,Boat,2022.1.1,60.00657671500088,
positive,positive,1,l,j,,,,,,,,,6,11,119,2,,,,,,,,,,,,,,,,,,,,,,,,main,2,2,1,positive,positive,l,l,1,0.7692265999503434,441.52713149995543,442.53454729996156,442.51534149993677,None,441.52713149995543,None,441.52713149995543,None,441.52713149995543,None,443.2832165299216,None,443.2832165299216,None,443.2832165299216,None,,,,,,,,,,,128,22,Female,2022-05-11_11h05.32.792,Boat,2022.1.1,60.00657671500088,
positive,negative,1,l,j,,,,,,,,,6,12,120,5,,,,,,,,,,,,,,,,,,,,,,,,main,2,2,1,negative,positive,l,l,1,0.556235000025481,443.3020505999448,444.3150962999789,444.2703527000267,None,443.3020505999448,None,443.3020505999448,None,443.3020505999448,None,444.84006612997035,None,444.84006612997035,None,444.84006612997035,None,,,,,,,,,,,128,22,Female,2022-05-11_11h05.32.792,Boat,2022.1.1,60.00657671500088,
neutral,negative,2,k,k,,,,,,,,,6,13,121,16,,,,,,,,,,,,,,,,,,,,,,,,main,2,2,2,negative,neutral,k,k,1,0.7193030000198632,444.8556973999366,445.8788195999805,445.8373473000247,None,444.8556973999366,None,444.8556973999366,None,444.8556973999366,None,446.5643025299534,None,446.5643025299534,None,446.5643025299534,None,,,,,,,,,,,128,22,Female,2022-05-11_11h05.32.792,Boat,2022.1.1,60.00657671500088,
neutral,negative,1,k,k,,,,,,,,,6,14,122,7,,,,,,,,,,,,,,,,,,,,,,,,main,2,2,1,negative,neutral,k,k,1,0.827525999979116,446.5829483999405,447.5873937999131,447.56833729997743,None,446.5829483999405,None,446.5829483999405,None,446.5829483999405,None,448.39119102996773,None,448.39119102996773,None,448.39119102996773,None,,,,,,,,,,,128,22,Female,2022-05-11_11h05.32.792,Boat,2022.1.1,60.00657671500088,
positive,neutral,1,l,j,,,,,,,,,6,15,123,8,,,,,,,,,,,,,,,,,,,,,,,,main,1,1,1,neutral,positive,l,l,1,0.9097322999732569,448.407736599911,449.42048809991684,449.3844923999859,None,448.407736599911,None,448.407736599911,None,448.407736599911,None,450.304722930002,None,450.304722930002,None,450.304722930002,None,,,,,,,,,,,128,22,Female,2022-05-11_11h05.32.792,Boat,2022.1.1,60.00657671500088,
negative,negative,1,j,l,,,,,,,,,6,16,124,0,,,,,,,,,,,,,,,,,,,,,,,,main,1,1,1,negative,negative,j,j,1,1.0382744999369606,450.3212762000039,451.33850989991333,451.30083469999954,None,450.3212762000039,None,450.3212762000039,None,450.3212762000039,None,452.3474660299718,None,452.3474660299718,None,452.3474660299718,None,,,,,,,,,,,128,22,Female,2022-05-11_11h05.32.792,Boat,2022.1.1,60.00657671500088,
neutral,neutral,1,k,k,,,,,,,,,6,17,125,1,,,,,,,,,,,,,,,,,,,,,,,,main,2,2,1,neutral,neutral,k,k,1,0.7006938999984413,452.3654713999713,453.3724576999666,453.3380683999276,None,452.3654713999713,None,452.3654713999713,None,452.3654713999713,None,454.05069162992294,None,454.05069162992294,None,454.05069162992294,None,,,,,,,,,,,128,22,Female,2022-05-11_11h05.32.792,Boat,2022.1.1,60.00657671500088,
neutral,negative,1,k,k,,,,,,,,,7,0,126,7,,,,,,,,,,,,,,,,,,,,,,,,main,2,2,1,negative,neutral,k,k,1,0.6907127000158653,454.069585399935,455.0787805999862,455.03773590002675,None,454.069585399935,None,454.069585399935,None,454.069585399935,None,455.74175612994003,None,455.74175612994003,None,455.74175612994003,None,,,,,,,,,,,128,22,Female,2022-05-11_11h05.32.792,Boat,2022.1.1,60.00657671500088,
negative,neutral,1,j,l,,,,,,,,,7,1,127,3,,,,,,,,,,,,,,,,,,,,,,,,main,1,1,1,neutral,negative,j,j,1,0.9602785999886692,455.7589627999114,456.7789550999878,456.73773669998627,None,455.7589627999114,None,455.7589627999114,None,455.7589627999114,None,457.7042815299239,None,457.7042815299239,None,457.7042815299239,None,,,,,,,,,,,128,22,Female,2022-05-11_11h05.32.792,Boat,2022.1.1,60.00657671500088,
positive,negative,1,l,j,,,,,,,,,7,2,128,5,,,,,,,,,,,,,,,,,,,,,,,,main,1,1,1,negative,positive,l,l,1,0.9010723000392318,457.7211385999108,458.73756769998,458.69905509997625,None,457.7211385999108,None,457.7211385999108,None,457.7211385999108,None,459.60868222992866,None,459.60868222992866,None,459.60868222992866,None,,,,,,,,,,,128,22,Female,2022-05-11_11h05.32.792,Boat,2022.1.1,60.00657671500088,
neutral,positive,1,k,k,,,,,,,,,7,3,129,4,,,,,,,,,,,,,,,,,,,,,,,,main,2,2,1,positive,neutral,k,k,1,0.6870174000505358,459.6245571000036,460.63874859991483,460.6045422999887,None,459.6245571000036,None,459.6245571000036,None,459.6245571000036,None,461.29961172996553,None,461.29961172996553,None,461.29961172996553,None,,,,,,,,,,,128,22,Female,2022-05-11_11h05.32.792,Boat,2022.1.1,60.00657671500088,
negative,positive,1,j,l,,,,,,,,,7,4,130,6,,,,,,,,,,,,,,,,,,,,,,,,main,2,2,1,positive,negative,j,j,1,0.8127001000102609,461.3194811999565,462.32084089994896,462.3021604999667,None,461.3194811999565,None,461.3194811999565,None,461.3194811999565,None,463.1146362299798,None,463.1146362299798,None,463.1146362299798,None,,,,,,,,,,,128,22,Female,2022-05-11_11h05.32.792,Boat,2022.1.1,60.00657671500088,
neutral,neutral,2,k,k,,,,,,,,,7,5,131,10,,,,,,,,,,,,,,,,,,,,,,,,main,1,1,2,neutral,neutral,k,k,1,0.7504175000358373,463.1298125999747,464.13423379999585,464.11533669999335,None,463.1298125999747,None,463.1298125999747,None,463.1298125999747,None,464.8675049299374,None,464.8675049299374,None,464.8675049299374,None,,,,,,,,,,,128,22,Female,2022-05-11_11h05.32.792,Boat,2022.1.1,60.00657671500088,
negative,positive,2,j,l,,,,,,,,,7,6,132,15,,,,,,,,,,,,,,,,,,,,,,,,main,2,2,2,positive,negative,j,j,1,0.8567973000463098,464.8837808999233,465.88779439998325,465.8697200999595,None,464.8837808999233,None,464.8837808999233,None,464.8837808999233,None,466.72504702995064,None,466.72504702995064,None,466.72504702995064,None,,,,,,,,,,,128,22,Female,2022-05-11_11h05.32.792,Boat,2022.1.1,60.00657671500088,
positive,neutral,2,l,j,,,,,,,,,7,7,133,17,,,,,,,,,,,,,,,,,,,,,,,,main,1,1,2,neutral,positive,l,l,1,0.795996299944818,466.7397420000052,467.7516009999672,467.7321408999851,None,466.7397420000052,None,466.7397420000052,None,466.7397420000052,None,468.52338173000607,None,468.52338173000607,None,468.52338173000607,None,,,,,,,,,,,128,22,Female,2022-05-11_11h05.32.792,Boat,2022.1.1,60.00657671500088,
neutral,positive,2,k,k,,,,,,,,,7,8,134,13,,,,,,,,,,,,,,,,,,,,,,,,main,2,2,2,positive,neutral,k,k,1,0.9635384998982772,468.5394331999123,469.55692819994874,469.52162030001637,None,468.5394331999123,None,468.5394331999123,None,468.5394331999123,None,470.4889381300192,None,470.4889381300192,None,470.4889381300192,None,,,,,,,,,,,128,22,Female,2022-05-11_11h05.32.792,Boat,2022.1.1,60.00657671500088,
positive,positive,2,l,j,,,,,,,,,7,9,135,11,,,,,,,,,,,,,,,,,,,,,,,,main,1,1,2,positive,positive,l,l,1,0.7937259000027552,470.5045578000136,471.5183457999956,471.4992305999622,None,470.5045578000136,None,470.5045578000136,None,470.5045578000136,None,472.2867945299251,None,472.2867945299251,None,472.2867945299251,None,,,,,,,,,,,128,22,Female,2022-05-11_11h05.32.792,Boat,2022.1.1,60.00657671500088,
negative,neutral,2,j,l,,,,,,,,,7,10,136,12,,,,,,,,,,,,,,,,,,,,,,,,main,1,1,2,neutral,negative,j,j,1,0.8085053999675438,472.30302999995183,473.32073509995826,473.2823557999218,None,472.30302999995183,None,472.30302999995183,None,472.30302999995183,None,474.0994249299867,None,474.0994249299867,None,474.0994249299867,None,,,,,,,,,,,128,22,Female,2022-05-11_11h05.32.792,Boat,2022.1.1,60.00657671500088,
negative,negative,2,j,l,,,,,,,,,7,11,137,9,,,,,,,,,,,,,,,,,,,,,,,,main,2,2,2,negative,negative,j,j,1,0.749318000045605,474.1170627999818,475.12121989997104,475.1035963000031,None,474.1170627999818,None,474.1170627999818,None,474.1170627999818,None,475.85048992994706,None,475.85048992994706,None,475.85048992994706,None,,,,,,,,,,,128,22,Female,2022-05-11_11h05.32.792,Boat,2022.1.1,60.00657671500088,
positive,negative,2,l,j,,,,,,,,,7,12,138,14,,,,,,,,,,,,,,,,,,,,,,,,main,2,2,2,negative,positive,l,l,1,0.7420943999895826,475.86991819995455,476.87928230001125,476.8380669999169,None,475.86991819995455,None,475.86991819995455,None,475.86991819995455,None,477.59485132996923,None,477.59485132996923,None,477.59485132996923,None,,,,,,,,,,,128,22,Female,2022-05-11_11h05.32.792,Boat,2022.1.1,60.00657671500088,
negative,negative,1,j,l,,,,,,,,,7,13,139,0,,,,,,,,,,,,,,,,,,,,,,,,main,1,1,1,negative,negative,j,j,1,0.864259000052698,477.61025039991364,478.62148269999307,478.6048713999335,None,477.61025039991364,None,477.61025039991364,None,477.61025039991364,None,479.46142322993836,None,479.46142322993836,None,479.46142322993836,None,,,,,,,,,,,128,22,Female,2022-05-11_11h05.32.792,Boat,2022.1.1,60.00657671500088,
positive,neutral,1,l,j,,,,,,,,,7,14,140,8,,,,,,,,,,,,,,,,,,,,,,,,main,2,2,1,neutral,positive,l,l,1,0.7628858999814838,479.47679190000053,480.48820549994707,480.4700709999306,None,479.47679190000053,None,479.47679190000053,None,479.47679190000053,None,481.2247944300063,None,481.2247944300063,None,481.2247944300063,None,,,,,,,,,,,128,22,Female,2022-05-11_11h05.32.792,Boat,2022.1.1,60.00657671500088,
positive,positive,1,l,j,,,,,,,,,7,15,141,2,,,,,,,,,,,,,,,,,,,,,,,,main,2,2,1,positive,positive,l,l,1,0.5825482000363991,481.2410343999509,482.25199569994584,482.23262379993685,None,481.2410343999509,None,481.2410343999509,None,481.2410343999509,None,482.8105326300021,None,482.8105326300021,None,482.8105326300021,None,,,,,,,,,,,128,22,Female,2022-05-11_11h05.32.792,Boat,2022.1.1,60.00657671500088,
neutral,neutral,1,k,k,,,,,,,,,7,16,142,1,,,,,,,,,,,,,,,,,,,,,,,,main,2,2,1,neutral,neutral,k,k,1,0.6559747999999672,482.82702219998464,483.8328683999134,483.8328683999134,None,482.82702219998464,None,482.82702219998464,None,482.82702219998464,None,484.4698027299484,None,484.4698027299484,None,484.4698027299484,None,,,,,,,,,,,128,22,Female,2022-05-11_11h05.32.792,Boat,2022.1.1,60.00657671500088,
neutral,negative,2,k,k,,,,,,,,,7,17,143,16,,,,,,,,,,,,,,,,,,,,,,,,main,1,1,2,negative,neutral,k,k,1,0.669292000005953,484.4870468999725,485.4885980000254,485.47162949992344,None,484.4870468999725,None,484.4870468999725,None,484.4870468999725,None,486.14064322998746,None,486.14064322998746,None,486.14064322998746,None,,,,,,,,,,,128,22,Female,2022-05-11_11h05.32.792,Boat,2022.1.1,60.00657671500088,
negative,neutral,2,j,l,,,,,,,,,8,0,144,12,,,,,,,,,,,,,,,,,,,,,,,,main,2,2,2,neutral,negative,j,j,1,0.7184142000041902,486.1571185999783,487.16992070002016,487.1496749999933,None,486.1571185999783,None,486.1571185999783,None,486.1571185999783,None,487.8639161299681,None,487.8639161299681,None,487.8639161299681,None,,,,,,,,,,,128,22,Female,2022-05-11_11h05.32.792,Boat,2022.1.1,60.00657671500088,
negative,negative,1,j,l,,,,,,,,,8,1,145,0,,,,,,,,,,,,,,,,,,,,,,,,main,1,1,1,negative,negative,j,j,1,0.6828470999607816,487.88212780002505,488.9022162000183,488.8831640999997,None,487.88212780002505,None,487.88212780002505,None,487.88212780002505,None,489.54732373000587,None,489.54732373000587,None,489.54732373000587,None,,,,,,,,,,,128,22,Female,2022-05-11_11h05.32.792,Boat,2022.1.1,60.00657671500088,
positive,neutral,2,l,j,,,,,,,,,8,2,146,17,,,,,,,,,,,,,,,,,,,,,,,,main,2,2,2,neutral,positive,l,l,1,0.8546938999788836,489.5668172999285,490.5715968000004,490.5543857999146,None,489.5668172999285,None,489.5668172999285,None,489.5668172999285,None,491.40429492997936,None,491.40429492997936,None,491.40429492997936,None,,,,,,,,,,,128,22,Female,2022-05-11_11h05.32.792,Boat,2022.1.1,60.00657671500088,
negative,positive,1,j,l,,,,,,,,,8,3,147,6,,,,,,,,,,,,,,,,,,,,,,,,main,2,2,1,positive,negative,j,j,1,0.9888070999877527,491.4210231999168,492.4217292999383,492.4050059999572,None,491.4210231999168,None,491.4210231999168,None,491.4210231999168,None,493.39782262993975,None,493.39782262993975,None,493.39782262993975,None,,,,,,,,,,,128,22,Female,2022-05-11_11h05.32.792,Boat,2022.1.1,60.00657671500088,
neutral,negative,2,k,k,,,,,,,,,8,4,148,16,,,,,,,,,,,,,,,,,,,,,,,,main,2,2,2,negative,neutral,k,k,1,0.7403969999868423,493.413285800023,494.42239520000294,494.3881885999581,None,493.413285800023,None,493.413285800023,None,493.413285800023,None,495.13871212995144,None,495.13871212995144,None,495.13871212995144,None,,,,,,,,,,,128,22,Female,2022-05-11_11h05.32.792,Boat,2022.1.1,60.00657671500088,
neutral,neutral,1,k,k,,,,,,,,,8,5,149,1,,,,,,,,,,,,,,,,,,,,,,,,main,2,2,1,neutral,neutral,k,k,1,1.3907909999834374,495.1550952999387,496.1574186999351,496.1398521999363,None,495.1550952999387,None,495.1550952999387,None,495.1550952999387,None,497.5341873299796,None,497.5341873299796,None,497.5341873299796,None,,,,,,,,,,,128,22,Female,2022-05-11_11h05.32.792,Boat,2022.1.1,60.00657671500088,
neutral,negative,1,k,k,,,,,,,,,8,6,150,7,,,,,,,,,,,,,,,,,,,,,,,,main,2,2,1,negative,neutral,k,k,1,0.6543910999316722,497.5490904999897,498.56614609993994,498.54664149996825,None,497.5490904999897,None,497.5490904999897,None,497.5490904999897,None,499.18723772994707,None,499.18723772994707,None,499.18723772994707,None,,,,,,,,,,,128,22,Female,2022-05-11_11h05.32.792,Boat,2022.1.1,60.00657671500088,
negative,positive,2,j,l,,,,,,,,,8,7,151,15,,,,,,,,,,,,,,,,,,,,,,,,main,1,1,2,positive,negative,j,j,1,0.8207799000665545,499.20552089996636,500.21290729998145,500.1882679000264,None,499.20552089996636,None,499.20552089996636,None,499.20552089996636,None,501.01453233002684,None,501.01453233002684,None,501.01453233002684,None,,,,,,,,,,,128,22,Female,2022-05-11_11h05.32.792,Boat,2022.1.1,60.00657671500088,
neutral,positive,1,k,k,,,,,,,,,8,8,152,4,,,,,,,,,,,,,,,,,,,,,,,,main,2,2,1,positive,neutral,k,k,1,0.8594131999416277,501.0296841999516,502.0384026999818,502.0216120999539,None,501.0296841999516,None,501.0296841999516,None,501.0296841999516,None,502.8735051299911,None,502.8735051299911,None,502.8735051299911,None,,,,,,,,,,,128,22,Female,2022-05-11_11h05.32.792,Boat,2022.1.1,60.00657671500088,
positive,positive,1,l,j,,,,,,,,,8,9,153,2,,,,,,,,,,,,,,,,,,,,,,,,main,1,1,1,positive,positive,l,l,1,0.8516020000679418,502.8896146999905,503.8889212999493,503.8722975999117,None,502.8896146999905,None,502.8896146999905,None,502.8896146999905,None,504.7274838299956,None,504.7274838299956,None,504.7274838299956,None,,,,,,,,,,,128,22,Female,2022-05-11_11h05.32.792,Boat,2022.1.1,60.00657671500088,
negative,negative,2,j,l,,,,,,,,,8,10,154,9,,,,,,,,,,,,,,,,,,,,,,,,main,2,2,2,negative,negative,j,j,1,0.784435800043866,504.7444996999111,505.7530863999855,505.7332746000029,None,504.7444996999111,None,504.7444996999111,None,504.7444996999111,None,506.51603932997676,None,506.51603932997676,None,506.51603932997676,None,,,,,,,,,,,128,22,Female,2022-05-11_11h05.32.792,Boat,2022.1.1,60.00657671500088,
positive,positive,2,l,j,,,,,,,,,8,11,155,11,,,,,,,,,,,,,,,,,,,,,,,,main,2,2,2,positive,positive,l,l,1,0.716157800052315,506.53558689996134,507.53880490001757,507.5221644999692,None,506.53558689996134,None,506.53558689996134,None,506.53558689996134,None,508.2330871299375,None,508.2330871299375,None,508.2330871299375,None,,,,,,,,,,,128,22,Female,2022-05-11_11h05.32.792,Boat,2022.1.1,60.00657671500088,
positive,neutral,1,l,j,,,,,,,,,8,12,156,8,,,,,,,,,,,,,,,,,,,,,,,,main,1,1,1,neutral,positive,l,l,1,0.8236453999998048,508.24979489995167,509.26365639991127,509.2221522999462,None,508.24979489995167,None,508.24979489995167,None,508.24979489995167,None,510.06111333000007,None,510.06111333000007,None,510.06111333000007,None,,,,,,,,,,,128,22,Female,2022-05-11_11h05.32.792,Boat,2022.1.1,60.00657671500088,
neutral,positive,2,k,k,,,,,,,,,8,13,157,13,,,,,,,,,,,,,,,,,,,,,,,,main,2,2,2,positive,neutral,k,k,1,0.7916502000298351,510.0762414999772,511.0884991999483,511.07193279999774,None,510.0762414999772,None,510.0762414999772,None,510.0762414999772,None,511.8547184300143,None,511.8547184300143,None,511.8547184300143,None,,,,,,,,,,,128,22,Female,2022-05-11_11h05.32.792,Boat,2022.1.1,60.00657671500088,
neutral,neutral,2,k,k,,,,,,,,,8,14,158,10,,,,,,,,,,,,,,,,,,,,,,,,main,2,2,2,neutral,neutral,k,k,1,0.7502829000586644,511.8709214000264,512.8884897999233,512.8715652999235,None,511.8709214000264,None,511.8709214000264,None,511.8709214000264,None,513.6066872299882,None,513.6066872299882,None,513.6066872299882,None,,,,,,,,,,,128,22,Female,2022-05-11_11h05.32.792,Boat,2022.1.1,60.00657671500088,
negative,neutral,1,j,l,,,,,,,,,8,15,159,3,,,,,,,,,,,,,,,,,,,,,,,,main,2,2,1,neutral,negative,j,j,1,0.9416507999412715,513.6222080999287,514.6223208999727,514.6059295999585,None,513.6222080999287,None,513.6222080999287,None,513.6222080999287,None,515.5516463299748,None,515.5516463299748,None,515.5516463299748,None,,,,,,,,,,,128,22,Female,2022-05-11_11h05.32.792,Boat,2022.1.1,60.00657671500088,
positive,negative,2,l,j,,,,,,,,,8,16,160,14,,,,,,,,,,,,,,,,,,,,,,,,main,1,1,2,negative,positive,l,l,1,0.7714157000882551,515.5707930999342,516.5885268999264,516.5508884999435,None,515.5707930999342,None,515.5707930999342,None,515.5707930999342,None,517.3239622299327,None,517.3239622299327,None,517.3239622299327,None,,,,,,,,,,,128,22,Female,2022-05-11_11h05.32.792,Boat,2022.1.1,60.00657671500088,
positive,negative,1,l,j,,,,,,,,,8,17,161,5,,,,,,,,,,,,,,,,,,,,,,,,main,1,1,1,negative,positive,l,l,1,0.7625811999896541,517.3399275999982,518.3556720999768,518.3197734999703,None,517.3399275999982,None,517.3399275999982,None,517.3399275999982,None,519.0897645300022,None,519.0897645300022,None,519.0897645300022,None,,,,,,,,,,,128,22,Female,2022-05-11_11h05.32.792,Boat,2022.1.1,60.00657671500088,
neutral,positive,2,k,k,,,,,,,,,9,0,162,13,,,,,,,,,,,,,,,,,,,,,,,,main,1,1,2,positive,neutral,k,k,1,0.8292409999994561,519.1051023999462,520.1201041999739,520.1005846000044,None,519.1051023999462,None,519.1051023999462,None,519.1051023999462,None,520.9221800299595,None,520.9221800299595,None,520.9221800299595,None,,,,,,,,,,,128,22,Female,2022-05-11_11h05.32.792,Boat,2022.1.1,60.00657671500088,
positive,positive,1,l,j,,,,,,,,,9,1,163,2,,,,,,,,,,,,,,,,,,,,,,,,main,2,2,1,positive,positive,l,l,1,0.7700525000691414,520.937443499919,521.9386677999282,521.9222858999856,None,520.937443499919,None,520.937443499919,None,520.937443499919,None,522.694043129962,None,522.694043129962,None,522.694043129962,None,,,,,,,,,,,128,22,Female,2022-05-11_11h05.32.792,Boat,2022.1.1,60.00657671500088,
negative,positive,2,j,l,,,,,,,,,9,2,164,15,,,,,,,,,,,,,,,,,,,,,,,,main,2,2,2,positive,negative,j,j,1,0.8301255999831483,522.7103782999329,523.7225348999491,523.6889773999574,None,522.7103782999329,None,522.7103782999329,None,522.7103782999329,None,524.5286021299428,None,524.5286021299428,None,524.5286021299428,None,,,,,,,,,,,128,22,Female,2022-05-11_11h05.32.792,Boat,2022.1.1,60.00657671500088,
negative,negative,2,j,l,,,,,,,,,9,3,165,9,,,,,,,,,,,,,,,,,,,,,,,,main,1,1,2,negative,negative,j,j,1,0.6673764000879601,524.5441574999131,525.5553732999833,525.5383620000212,None,524.5441574999131,None,524.5441574999131,None,524.5441574999131,None,526.1985743300058,None,526.1985743300058,None,526.1985743300058,None,,,,,,,,,,,128,22,Female,2022-05-11_11h05.32.792,Boat,2022.1.1,60.00657671500088,
negative,neutral,1,j,l,,,,,,,,,9,4,166,3,,,,,,,,,,,,,,,,,,,,,,,,main,2,2,1,neutral,negative,j,j,1,0.7959212000714615,526.2136659999378,527.223508499912,527.1893644999946,None,526.2136659999378,None,526.2136659999378,None,526.2136659999378,None,527.9966676299694,None,527.9966676299694,None,527.9966676299694,None,,,,,,,,,,,128,22,Female,2022-05-11_11h05.32.792,Boat,2022.1.1,60.00657671500088,
positive,neutral,1,l,j,,,,,,,,,9,5,167,8,,,,,,,,,,,,,,,,,,,,,,,,main,1,1,1,neutral,positive,l,l,1,0.9738609999185428,528.010742399958,529.0224679999519,529.0059751999797,None,528.010742399958,None,528.010742399958,None,528.010742399958,None,529.9725154299988,None,529.9725154299988,None,529.9725154299988,None,,,,,,,,,,,128,22,Female,2022-05-11_11h05.32.792,Boat,2022.1.1,60.00657671500088,
neutral,negative,2,k,k,,,,,,,,,9,6,168,16,,,,,,,,,,,,,,,,,,,,,,,,main,1,1,2,negative,neutral,k,k,1,0.7544754000846297,529.9870703999186,530.9896823000163,530.9728265999584,None,529.9870703999186,None,529.9870703999186,None,529.9870703999186,None,531.730073229922,None,531.730073229922,None,531.730073229922,None,,,,,,,,,,,128,22,Female,2022-05-11_11h05.32.792,Boat,2022.1.1,60.00657671500088,
negative,negative,1,j,l,,,,,,,,,9,7,169,0,,,,,,,,,,,,,,,,,,,,,,,,main,2,2,1,negative,negative,j,l,0,0.9172305000247434,531.7464114999166,532.7505183999892,532.7305522999959,None,531.7464114999166,None,531.7464114999166,None,531.7464114999166,None,533.6562318999786,None,533.6562318999786,None,533.6562318999786,None,,,,,,,,,,,128,22,Female,2022-05-11_11h05.32.792,Boat,2022.1.1,60.00657671500088,
positive,positive,2,l,j,,,,,,,,,9,8,170,11,,,,,,,,,,,,,,,,,,,,,,,,main,2,2,2,positive,positive,l,l,1,0.7481296000769362,534.675236799987,535.6892269999953,535.655381300021,None,534.675236799987,None,534.675236799987,None,534.675236799987,None,536.4064340299694,None,536.4064340299694,None,536.4064340299694,None,,,,,,,,,,,128,22,Female,2022-05-11_11h05.32.792,Boat,2022.1.1,60.00657671500088,
neutral,neutral,1,k,k,,,,,,,,,9,9,171,1,,,,,,,,,,,,,,,,,,,,,,,,main,1,1,1,neutral,neutral,k,k,1,0.8107235999777913,536.424655299983,537.4392892000033,537.4061110999901,None,536.424655299983,None,536.424655299983,None,536.424655299983,None,538.2229929300258,None,538.2229929300258,None,538.2229929300258,None,,,,,,,,,,,128,22,Female,2022-05-11_11h05.32.792,Boat,2022.1.1,60.00657671500088,
positive,negative,2,l,j,,,,,,,,,9,10,172,14,,,,,,,,,,,,,,,,,,,,,,,,main,1,1,2,negative,positive,l,l,1,0.8063626000657678,538.2377902999287,539.2391472000163,539.2391472000163,None,538.2377902999287,None,538.2377902999287,None,538.2377902999287,None,540.033175429958,None,540.033175429958,None,540.033175429958,None,,,,,,,,,,,128,22,Female,2022-05-11_11h05.32.792,Boat,2022.1.1,60.00657671500088,
negative,positive,1,j,l,,,,,,,,,9,11,173,6,,,,,,,,,,,,,,,,,,,,,,,,main,2,2,1,positive,negative,j,j,1,0.7944953000405803,540.0495332999853,541.0533750000177,541.03397400002,None,540.0495332999853,None,540.0495332999853,None,540.0495332999853,None,541.8300334299449,None,541.8300334299449,None,541.8300334299449,None,,,,,,,,,,,128,22,Female,2022-05-11_11h05.32.792,Boat,2022.1.1,60.00657671500088,
negative,neutral,2,j,l,,,,,,,,,9,12,174,12,,,,,,,,,,,,,,,,,,,,,,,,main,2,2,2,neutral,negative,j,j,1,0.747172899893485,541.8448257999262,542.8560199999483,542.8390766999219,None,541.8448257999262,None,541.8448257999262,None,541.8448257999262,None,543.5795810299926,None,543.5795810299926,None,543.5795810299926,None,,,,,,,,,,,128,22,Female,2022-05-11_11h05.32.792,Boat,2022.1.1,60.00657671500088,
positive,negative,1,l,j,,,,,,,,,9,13,175,5,,,,,,,,,,,,,,,,,,,,,,,,main,1,1,1,negative,positive,l,l,1,1.268513899995014,543.5939236999257,544.6006380999461,544.6006380999461,None,543.5939236999257,None,543.5939236999257,None,543.5939236999257,None,545.8502944299719,None,545.8502944299719,None,545.8502944299719,None,,,,,,,,,,,128,22,Female,2022-05-11_11h05.32.792,Boat,2022.1.1,60.00657671500088,
neutral,neutral,2,k,k,,,,,,,,,9,14,176,10,,,,,,,,,,,,,,,,,,,,,,,,main,1,1,2,neutral,neutral,k,k,1,0.8135064999805763,545.8697384999832,546.8729455999564,546.8540555000072,None,545.8697384999832,None,545.8697384999832,None,545.8697384999832,None,547.6658914299217,None,547.6658914299217,None,547.6658914299217,None,,,,,,,,,,,128,22,Female,2022-05-11_11h05.32.792,Boat,2022.1.1,60.00657671500088,
neutral,positive,1,k,k,,,,,,,,,9,15,177,4,,,,,,,,,,,,,,,,,,,,,,,,main,2,2,1,positive,neutral,k,k,1,0.623952400055714,547.6844243999803,548.6891768999631,548.6557824999327,None,547.6844243999803,None,547.6844243999803,None,547.6844243999803,None,549.2905742299511,None,549.2905742299511,None,549.2905742299511,None,,,,,,,,,,,128,22,Female,2022-05-11_11h05.32.792,Boat,2022.1.1,60.00657671500088,
neutral,negative,1,k,k,,,,,,,,,9,16,178,7,,,,,,,,,,,,,,,,,,,,,,,,main,1,1,1,negative,neutral,k,k,1,0.6216168999671936,549.3059394999873,550.3229345999425,550.2841115000192,None,549.3059394999873,None,549.3059394999873,None,549.3059394999873,None,550.9161485300167,None,550.9161485300167,None,550.9161485300167,None,,,,,,,,,,,128,22,Female,2022-05-11_11h05.32.792,Boat,2022.1.1,60.00657671500088,
positive,neutral,2,l,j,,,,,,,,,9,17,179,17,,,,,,,,,,,,,,,,,,,,,,,,main,1,1,2,neutral,positive,l,l,1,0.7294663999928162,550.9318250999786,551.9342087999685,551.9144487999147,None,550.9318250999786,None,550.9318250999786,None,550.9318250999786,None,552.6478633300169,None,552.6478633300169,None,552.6478633300169,None,,,,,,,,,,,128,22,Female,2022-05-11_11h05.32.792,Boat,2022.1.1,60.00657671500088,
positive,neutral,1,l,j,,,,,,,,,10,0,180,8,,,,,,,,,,,,,,,,,,,,,,,,main,2,2,1,neutral,positive,l,l,1,0.922782100038603,552.6631495999172,553.6842165999115,553.6645500999875,None,552.6631495999172,None,552.6631495999172,None,552.6631495999172,None,554.5726779299323,None,554.5726779299323,None,554.5726779299323,None,,,,,,,,,,,128,22,Female,2022-05-11_11h05.32.792,Boat,2022.1.1,60.00657671500088,
negative,neutral,2,j,l,,,,,,,,,10,1,181,12,,,,,,,,,,,,,,,,,,,,,,,,main,2,2,2,neutral,negative,j,j,1,0.9493312999838963,554.5886038999306,555.6062833999749,555.5893380999332,None,554.5886038999306,None,554.5886038999306,None,554.5886038999306,None,556.5238371299813,None,556.5238371299813,None,556.5238371299813,None,,,,,,,,,,,128,22,Female,2022-05-11_11h05.32.792,Boat,2022.1.1,60.00657671500088,
negative,neutral,1,j,l,,,,,,,,,10,2,182,3,,,,,,,,,,,,,,,,,,,,,,,,main,1,1,1,neutral,negative,j,j,1,0.825120700057596,556.5398151999107,557.5565464999527,557.520163499983,None,556.5398151999107,None,556.5398151999107,None,556.5398151999107,None,558.3532935299911,None,558.3532935299911,None,558.3532935299911,None,,,,,,,,,,,128,22,Female,2022-05-11_11h05.32.792,Boat,2022.1.1,60.00657671500088,
negative,positive,1,j,l,,,,,,,,,10,3,183,6,,,,,,,,,,,,,,,,,,,,,,,,main,1,1,1,positive,negative,j,j,1,0.6772650999482721,558.3683644999983,559.3704388999613,559.3510950999334,None,558.3683644999983,None,558.3683644999983,None,558.3683644999983,None,560.0331023299834,None,560.0331023299834,None,560.0331023299834,None,,,,,,,,,,,128,22,Female,2022-05-11_11h05.32.792,Boat,2022.1.1,60.00657671500088,
neutral,negative,1,k,k,,,,,,,,,10,4,184,7,,,,,,,,,,,,,,,,,,,,,,,,main,2,2,1,negative,neutral,k,k,1,0.8465211000293493,560.0485071999719,561.0644660999533,561.0232986999908,None,560.0485071999719,None,560.0485071999719,None,560.0485071999719,None,561.8827631299384,None,561.8827631299384,None,561.8827631299384,None,,,,,,,,,,,128,22,Female,2022-05-11_11h05.32.792,Boat,2022.1.1,60.00657671500088,
positive,negative,1,l,j,,,,,,,,,10,5,185,5,,,,,,,,,,,,,,,,,,,,,,,,main,2,2,1,negative,positive,l,l,1,0.7578770000254735,561.9015291000251,562.9061741000041,562.8876801999286,None,561.9015291000251,None,561.9015291000251,None,561.9015291000251,None,563.6412254299969,None,563.6412254299969,None,563.6412254299969,None,,,,,,,,,,,128,22,Female,2022-05-11_11h05.32.792,Boat,2022.1.1,60.00657671500088,
positive,negative,2,l,j,,,,,,,,,10,6,186,14,,,,,,,,,,,,,,,,,,,,,,,,main,2,2,2,negative,positive,l,l,1,0.8165242000250146,563.6581158000045,564.6733821999514,564.6398234999506,None,563.6581158000045,None,563.6581158000045,None,563.6581158000045,None,565.4623689299217,None,565.4623689299217,None,565.4623689299217,None,,,,,,,,,,,128,22,Female,2022-05-11_11h05.32.792,Boat,2022.1.1,60.00657671500088,
neutral,negative,2,k,k,,,,,,,,,10,7,187,16,,,,,,,,,,,,,,,,,,,,,,,,main,1,1,2,negative,neutral,k,k,1,0.8703757000621408,565.4778676999267,566.4903108999133,566.4712568999967,None,565.4778676999267,None,565.4778676999267,None,565.4778676999267,None,567.3349649300101,None,567.3349649300101,None,567.3349649300101,None,,,,,,,,,,,128,22,Female,2022-05-11_11h05.32.792,Boat,2022.1.1,60.00657671500088,
negative,negative,2,j,l,,,,,,,,,10,8,188,9,,,,,,,,,,,,,,,,,,,,,,,,main,1,1,2,negative,negative,j,j,1,0.7251420000102371,567.3527121000225,568.3679674000014,568.3235134999268,None,567.3527121000225,None,567.3527121000225,None,567.3527121000225,None,569.0607987299329,None,569.0607987299329,None,569.0607987299329,None,,,,,,,,,,,128,22,Female,2022-05-11_11h05.32.792,Boat,2022.1.1,60.00657671500088,
positive,positive,2,l,j,,,,,,,,,10,9,189,11,,,,,,,,,,,,,,,,,,,,,,,,main,1,1,2,positive,positive,l,l,1,0.801999400020577,569.0754839999136,570.0900932999793,570.0734101999551,None,569.0754839999136,None,569.0754839999136,None,569.0754839999136,None,570.866665429948,None,570.866665429948,None,570.866665429948,None,,,,,,,,,,,128,22,Female,2022-05-11_11h05.32.792,Boat,2022.1.1,60.00657671500088,
neutral,positive,1,k,k,,,,,,,,,10,10,190,4,,,,,,,,,,,,,,,,,,,,,,,,main,2,2,1,positive,neutral,k,k,1,0.7444604999618605,570.8855353000108,571.9035303000128,571.864593599923,None,570.8855353000108,None,570.8855353000108,None,570.8855353000108,None,572.6135347299744,None,572.6135347299744,None,572.6135347299744,None,,,,,,,,,,,128,22,Female,2022-05-11_11h05.32.792,Boat,2022.1.1,60.00657671500088,
positive,neutral,2,l,j,,,,,,,,,10,11,191,17,,,,,,,,,,,,,,,,,,,,,,,,main,2,2,2,neutral,positive,l,l,1,0.7022528999950737,572.6333089999389,573.6413492999272,573.6070773999672,None,572.6333089999389,None,572.6333089999389,None,572.6333089999389,None,574.3183254299686,None,574.3183254299686,None,574.3183254299686,None,,,,,,,,,,,128,22,Female,2022-05-11_11h05.32.792,Boat,2022.1.1,60.00657671500088,
negative,negative,1,j,l,,,,,,,,,10,12,192,0,,,,,,,,,,,,,,,,,,,,,,,,main,2,2,1,negative,negative,j,j,1,0.9311255000066012,574.3344373999862,575.3402429999551,575.3226530000102,None,574.3344373999862,None,574.3344373999862,None,574.3344373999862,None,576.2523854299682,None,576.2523854299682,None,576.2523854299682,None,,,,,,,,,,,128,22,Female,2022-05-11_11h05.32.792,Boat,2022.1.1,60.00657671500088,
negative,positive,2,j,l,,,,,,,,,10,13,193,15,,,,,,,,,,,,,,,,,,,,,,,,main,1,1,2,positive,negative,j,j,1,1.2401185999624431,576.2674943999154,577.2847527000122,577.2386984999757,None,576.2674943999154,None,576.2674943999154,None,576.2674943999154,None,578.4933435299201,None,578.4933435299201,None,578.4933435299201,None,,,,,,,,,,,128,22,Female,2022-05-11_11h05.32.792,Boat,2022.1.1,60.00657671500088,
neutral,neutral,1,k,k,,,,,,,,,10,14,194,1,,,,,,,,,,,,,,,,,,,,,,,,main,2,2,1,neutral,neutral,k,k,1,0.7507033000001684,578.5077133999439,579.5235243999632,579.5065913000144,None,578.5077133999439,None,578.5077133999439,None,578.5077133999439,None,580.2479164299323,None,580.2479164299323,None,580.2479164299323,None,,,,,,,,,,,128,22,Female,2022-05-11_11h05.32.792,Boat,2022.1.1,60.00657671500088,
neutral,neutral,2,k,k,,,,,,,,,10,15,195,10,,,,,,,,,,,,,,,,,,,,,,,,main,1,1,2,neutral,neutral,k,k,1,0.7163220000220463,580.2631465999875,581.2703845999204,581.2515744999982,None,580.2631465999875,None,580.2631465999875,None,580.2631465999875,None,581.96643333002,None,581.96643333002,None,581.96643333002,None,,,,,,,,,,,128,22,Female,2022-05-11_11h05.32.792,Boat,2022.1.1,60.00657671500088,
positive,positive,1,l,j,,,,,,,,,10,16,196,2,,,,,,,,,,,,,,,,,,,,,,,,main,2,2,1,positive,positive,l,l,1,0.7450446999864653,581.9847096999874,582.9905136999441,582.9735543999122,None,581.9847096999874,None,581.9847096999874,None,581.9847096999874,None,583.7128603299382,None,583.7128603299382,None,583.7128603299382,None,,,,,,,,,,,128,22,Female,2022-05-11_11h05.32.792,Boat,2022.1.1,60.00657671500088,
neutral,positive,2,k,k,,,,,,,,,10,17,197,13,,,,,,,,,,,,,,,,,,,,,,,,main,2,2,2,positive,neutral,k,k,1,0.798091100063175,583.7297890000045,584.7347829999635,584.7347829999635,None,583.7297890000045,None,583.7297890000045,None,583.7297890000045,None,585.5140626299428,None,585.5140626299428,None,585.5140626299428,None,,,,,,,,,,,128,22,Female,2022-05-11_11h05.32.792,Boat,2022.1.1,60.00657671500088,
negative,neutral,2,j,l,,,,,,,,,11,0,198,12,,,,,,,,,,,,,,,,,,,,,,,,main,2,2,2,neutral,negative,j,j,1,0.8134129999671131,585.5306256000185,586.5403863999527,586.5228533999762,None,585.5306256000185,None,585.5306256000185,None,585.5306256000185,None,587.3299518300221,None,587.3299518300221,None,587.3299518300221,None,,,,,,,,,,,128,22,Female,2022-05-11_11h05.32.792,Boat,2022.1.1,60.00657671500088,
positive,neutral,2,l,j,,,,,,,,,11,1,199,17,,,,,,,,,,,,,,,,,,,,,,,,main,1,1,2,neutral,positive,l,l,1,0.8023776999907568,587.3462610999122,588.3570611999603,588.339182299911,None,587.3462610999122,None,587.3462610999122,None,587.3462610999122,None,589.1351496299496,None,589.1351496299496,None,589.1351496299496,None,,,,,,,,,,,128,22,Female,2022-05-11_11h05.32.792,Boat,2022.1.1,60.00657671500088,
negative,neutral,1,j,l,,,,,,,,,11,2,200,3,,,,,,,,,,,,,,,,,,,,,,,,main,1,1,1,neutral,negative,j,j,1,0.7480872999876738,589.1525120999431,590.1572592000011,590.124083600007,None,589.1525120999431,None,589.1525120999431,None,589.1525120999431,None,590.8855066299905,None,590.8855066299905,None,590.8855066299905,None,,,,,,,,,,,128,22,Female,2022-05-11_11h05.32.792,Boat,2022.1.1,60.00657671500088,
negative,positive,1,j,l,,,,,,,,,11,3,201,6,,,,,,,,,,,,,,,,,,,,,,,,main,1,1,1,positive,negative,j,j,1,0.6971751999808475,590.9022468000185,591.9070691999514,591.8900280999951,None,590.9022468000185,None,590.9022468000185,None,590.9022468000185,None,592.5844570299844,None,592.5844570299844,None,592.5844570299844,None,,,,,,,,,,,128,22,Female,2022-05-11_11h05.32.792,Boat,2022.1.1,60.00657671500088,
neutral,neutral,2,k,k,,,,,,,,,11,4,202,10,,,,,,,,,,,,,,,,,,,,,,,,main,2,2,2,neutral,neutral,k,k,1,0.6833661999553442,592.6033774999669,593.6155727999285,593.5740040999372,None,592.6033774999669,None,592.6033774999669,None,592.6033774999669,None,594.2703706300119,None,594.2703706300119,None,594.2703706300119,None,,,,,,,,,,,128,22,Female,2022-05-11_11h05.32.792,Boat,2022.1.1,60.00657671500088,
negative,negative,1,j,l,,,,,,,,,11,5,203,0,,,,,,,,,,,,,,,,,,,,,,,,main,2,2,1,negative,negative,j,j,1,0.695344700012356,594.2895133999409,595.2931913000066,595.2741842999822,None,594.2895133999409,None,594.2895133999409,None,594.2895133999409,None,595.9677325300174,None,595.9677325300174,None,595.9677325300174,None,,,,,,,,,,,128,22,Female,2022-05-11_11h05.32.792,Boat,2022.1.1,60.00657671500088,
neutral,positive,2,k,k,,,,,,,,,11,6,204,13,,,,,,,,,,,,,,,,,,,,,,,,main,1,1,2,positive,neutral,k,k,1,0.6764125000918284,595.9864637999563,596.9988136999309,596.9573756000027,None,595.9864637999563,None,595.9864637999563,None,595.9864637999563,None,597.6445552299731,None,597.6445552299731,None,597.6445552299731,None,,,,,,,,,,,128,22,Female,2022-05-11_11h05.32.792,Boat,2022.1.1,60.00657671500088,
neutral,negative,1,k,k,,,,,,,,,11,7,205,7,,,,,,,,,,,,,,,,,,,,,,,,main,2,2,1,negative,neutral,k,k,1,0.6040721999015659,597.6604926999426,598.6744901000056,598.6352921000216,None,597.6604926999426,None,597.6604926999426,None,597.6604926999426,None,599.2527316299268,None,599.2527316299268,None,599.2527316299268,None,,,,,,,,,,,128,22,Female,2022-05-11_11h05.32.792,Boat,2022.1.1,60.00657671500088,
neutral,positive,1,k,k,,,,,,,,,11,8,206,4,,,,,,,,,,,,,,,,,,,,,,,,main,2,2,1,positive,neutral,k,k,1,0.7648305000038818,599.2677118999418,600.2746132999891,600.2575216999976,None,599.2677118999418,None,599.2677118999418,None,599.2677118999418,None,601.0189409299521,None,601.0189409299521,None,601.0189409299521,None,,,,,,,,,,,128,22,Female,2022-05-11_11h05.32.792,Boat,2022.1.1,60.00657671500088,
positive,positive,1,l,j,,,,,,,,,11,9,207,2,,,,,,,,,,,,,,,,,,,,,,,,main,2,2,1,positive,positive,l,l,1,0.7666972000151873,601.0379146999912,602.0406271999236,602.0240117999492,None,601.0379146999912,None,601.0379146999912,None,601.0379146999912,None,602.7905627299799,None,602.7905627299799,None,602.7905627299799,None,,,,,,,,,,,128,22,Female,2022-05-11_11h05.32.792,Boat,2022.1.1,60.00657671500088,
negative,positive,2,j,l,,,,,,,,,11,10,208,15,,,,,,,,,,,,,,,,,,,,,,,,main,2,2,2,positive,negative,j,j,1,0.7346585999475792,602.8067424999317,603.8221705999458,603.7819675999926,None,602.8067424999317,None,602.8067424999317,None,602.8067424999317,None,604.5261671300279,None,604.5261671300279,None,604.5261671300279,None,,,,,,,,,,,128,22,Female,2022-05-11_11h05.32.792,Boat,2022.1.1,60.00657671500088,
