target,distractor,set,ans1,ans2,rep_loop2.thisRepN,rep_loop2.thisTrialN,rep_loop2.thisN,rep_loop2.thisIndex,flanker_prac_loop.thisRepN,flanker_prac_loop.thisTrialN,flanker_prac_loop.thisN,flanker_prac_loop.thisIndex,flanker_main_loop.thisRepN,flanker_main_loop.thisTrialN,flanker_main_loop.thisN,flanker_main_loop.thisIndex,fl_inst_resp.keys,mouse.x,mouse.y,mouse.leftButton,mouse.midButton,mouse.rightButton,mouse.started,mouse.stopped,sound_1.started,sound_1.stopped,no_text.started,no_text.stopped,yes_text.started,yes_text.stopped,mouse_2.x,mouse_2.y,mouse_2.leftButton,mouse_2.midButton,mouse_2.rightButton,mouse_2.started,mouse_2.stopped,back_2.started,back_2.stopped,main_prac,fl_cold,fl_colt,fl_set,fl_dcond,fl_tcond,fl_ans,fl_res,fl_corr,fl_rt,fix_fl.started,fix_fl.stopped,targ.started,targ.stopped,j_button.started,j_button.stopped,k_button.started,k_button.stopped,l_button.started,l_button.stopped,j_button2.started,j_button2.stopped,k_button2.started,k_button2.stopped,l_button2.started,l_button2.stopped,mainback.started,mainback.stopped,key_resp.keys,mouse_6.x,mouse_6.y,mouse_6.leftButton,mouse_6.midButton,mouse_6.rightButton,mouse_6.started,mouse_6.stopped,id*,age*,gender*,date,expName,psychopyVersion,frameRate,
,,,,,0,0,0,0,,,,,,,,,None,0.21574074,-0.38333333,0,0,0,1.0243766020284966,None,26.873278199951166,None,78.59309400001075,None,78.59309400001075,None,-0.058333334,-0.11481482,0,0,0,0.013245100039057434,None,,,,,,,,,,,,,,,,,,,,,,,,,,,,,,,,,,,,,,,129,20,Female,2022-05-11_12h29.56.930,Boat,2022.1.1,59.932923050163176,
neutral,negative,1,k,k,,,,,0,0,0,7,,,,,,,,,,,,,,,,,,,,,,,,,,82.31084689998534,None,prac,2,2,1,negative,neutral,k,k,1,1.5523463999852538,84.33563069999218,85.34402419999242,85.32489489996806,None,84.33563069999218,None,84.33563069999218,None,84.33563069999218,None,86.88309510005638,None,86.88309510005638,None,86.88309510005638,None,,,,,,,,,,,129,20,Female,2022-05-11_12h29.56.930,Boat,2022.1.1,59.932923050163176,
negative,negative,2,j,l,,,,,0,1,1,9,,,,,,,,,,,,,,,,,,,,,,,,,,,,prac,2,2,2,negative,negative,l,j,0,1.122267699916847,87.89796490001027,88.9109714999795,88.89111219998449,None,87.89796490001027,None,87.89796490001027,None,87.89796490001027,None,90.01423349999823,None,90.01423349999823,None,90.01423349999823,None,,,,,,,,,,,129,20,Female,2022-05-11_12h29.56.930,Boat,2022.1.1,59.932923050163176,
neutral,neutral,1,k,k,,,,,0,2,2,1,,,,,,,,,,,,,,,,,,,,,,,,,,,,prac,2,2,1,neutral,neutral,k,k,1,0.8384837000630796,91.03429870004766,92.04643760004546,92.010628500022,None,91.03429870004766,None,91.03429870004766,None,91.03429870004766,None,92.85960049999412,None,92.85960049999412,None,92.85960049999412,None,,,,,,,,,,,129,20,Female,2022-05-11_12h29.56.930,Boat,2022.1.1,59.932923050163176,
positive,positive,1,l,j,,,,,0,3,3,2,,,,,,,,,,,,,,,,,,,,,,,,,,,,prac,2,2,1,positive,positive,j,l,0,0.7219075999455526,92.87887250003405,93.8968686000444,93.85759839997627,None,92.87887250003405,None,92.87887250003405,None,92.87887250003405,None,94.59030719997827,None,94.59030719997827,None,94.59030719997827,None,,,,,,,,,,,129,20,Female,2022-05-11_12h29.56.930,Boat,2022.1.1,59.932923050163176,
positive,neutral,2,l,j,,,,,0,4,4,17,,,,,,,,,,,,,,,,,,,,,,,,,,,,prac,2,2,2,neutral,positive,j,j,1,0.8172336000716314,95.59853620000649,96.61312899994664,96.59429819998331,None,95.59853620000649,None,95.59853620000649,None,95.59853620000649,None,97.4002223999938,None,97.4002223999938,None,97.4002223999938,None,,,,,,,,,,,129,20,Female,2022-05-11_12h29.56.930,Boat,2022.1.1,59.932923050163176,
negative,negative,1,j,l,,,,,0,5,5,0,,,,,,,,,,,,,,,,,,,,,,,,,,,,prac,1,1,1,negative,negative,l,l,1,0.8306624999968335,97.41652700002305,98.4297540000407,98.39426159998402,None,97.41652700002305,None,97.41652700002305,None,97.41652700002305,None,99.23610380003228,None,99.23610380003228,None,99.23610380003228,None,,,,,,,,,,,129,20,Female,2022-05-11_12h29.56.930,Boat,2022.1.1,59.932923050163176,
negative,positive,2,j,l,,,,,0,6,6,15,,,,,,,,,,,,,,,,,,,,,,,,,,,,prac,2,2,2,positive,negative,l,l,1,0.8154351999983191,99.25098170002457,100.2654734000098,100.24847180000506,None,99.25098170002457,None,99.25098170002457,None,99.25098170002457,None,101.05221440005116,None,101.05221440005116,None,101.05221440005116,None,,,,,,,,,,,129,20,Female,2022-05-11_12h29.56.930,Boat,2022.1.1,59.932923050163176,
negative,neutral,2,j,l,,,,,0,7,7,12,,,,,,,,,,,,,,,,,,,,,,,,,,,,prac,1,1,2,neutral,negative,l,l,1,0.6979547999799252,101.0698309999425,102.08051869994961,102.06351440004073,None,101.0698309999425,None,101.0698309999425,None,101.0698309999425,None,102.75285790001507,None,102.75285790001507,None,102.75285790001507,None,,,,,,,,,,,129,20,Female,2022-05-11_12h29.56.930,Boat,2022.1.1,59.932923050163176,
negative,positive,1,j,l,,,,,0,8,8,6,,,,,,,,,,,,,,,,,,,,,,,,,,,,prac,1,1,1,positive,negative,l,l,1,1.1002195000182837,102.76784890005365,103.78040799999144,103.7611969000427,None,102.76784890005365,None,102.76784890005365,None,102.76784890005365,None,104.851586999977,None,104.851586999977,None,104.851586999977,None,,,,,,,,,,,129,20,Female,2022-05-11_12h29.56.930,Boat,2022.1.1,59.932923050163176,
positive,positive,2,l,j,,,,,0,9,9,11,,,,,,,,,,,,,,,,,,,,,,,,,,,,prac,2,2,2,positive,positive,j,j,1,0.7869625999592245,104.86948740005028,105.88183870003559,105.84713590005413,None,104.86948740005028,None,104.86948740005028,None,104.86948740005028,None,106.64437090002465,None,106.64437090002465,None,106.64437090002465,None,,,,,,,,,,,129,20,Female,2022-05-11_12h29.56.930,Boat,2022.1.1,59.932923050163176,
neutral,negative,2,k,k,,,,,0,10,10,16,,,,,,,,,,,,,,,,,,,,,,,,,,,,prac,1,1,2,negative,neutral,k,k,1,0.642892700037919,106.65919220005162,107.67446929996368,107.65474789997097,None,106.65919220005162,None,106.65919220005162,None,106.65919220005162,None,108.28896529998164,None,108.28896529998164,None,108.28896529998164,None,,,,,,,,,,,129,20,Female,2022-05-11_12h29.56.930,Boat,2022.1.1,59.932923050163176,
positive,negative,2,l,j,,,,,0,11,11,14,,,,,,,,,,,,,,,,,,,,,,,,,,,,prac,1,1,2,negative,positive,j,j,1,0.7980323999654502,108.30503829999361,109.31333699997049,109.31333699997049,None,108.30503829999361,None,108.30503829999361,None,108.30503829999361,None,110.08901210003532,None,110.08901210003532,None,110.08901210003532,None,,,,,,,,,,,129,20,Female,2022-05-11_12h29.56.930,Boat,2022.1.1,59.932923050163176,
neutral,neutral,2,k,k,,,,,0,12,12,10,,,,,,,,,,,,,,,,,,,,,,,,,,,,prac,1,1,2,neutral,neutral,k,k,1,0.6655041000340134,110.1088528999826,111.12800479994621,111.08809700002894,None,110.1088528999826,None,110.1088528999826,None,110.1088528999826,None,111.7568060000427,None,111.7568060000427,None,111.7568060000427,None,,,,,,,,,,,129,20,Female,2022-05-11_12h29.56.930,Boat,2022.1.1,59.932923050163176,
positive,neutral,1,l,j,,,,,0,13,13,8,,,,,,,,,,,,,,,,,,,,,,,,,,,,prac,1,1,1,neutral,positive,j,j,1,0.7165295999730006,111.77492770005483,112.78003819996957,112.76224589999765,None,111.77492770005483,None,111.77492770005483,None,111.77492770005483,None,113.4758005000418,None,113.4758005000418,None,113.4758005000418,None,,,,,,,,,,,129,20,Female,2022-05-11_12h29.56.930,Boat,2022.1.1,59.932923050163176,
positive,negative,1,l,j,,,,,0,14,14,5,,,,,,,,,,,,,,,,,,,,,,,,,,,,prac,2,2,1,negative,positive,j,j,1,0.6325853000162169,113.49358889996074,114.50496179994661,114.48191199998837,None,113.49358889996074,None,113.49358889996074,None,113.49358889996074,None,115.10978990003932,None,115.10978990003932,None,115.10978990003932,None,,,,,,,,,,,129,20,Female,2022-05-11_12h29.56.930,Boat,2022.1.1,59.932923050163176,
negative,neutral,1,j,l,,,,,0,15,15,3,,,,,,,,,,,,,,,,,,,,,,,,,,,,prac,1,1,1,neutral,negative,l,l,1,0.7319693999597803,115.1293272000039,116.13871049997397,116.09726860001683,None,115.1293272000039,None,115.1293272000039,None,115.1293272000039,None,116.84408870004117,None,116.84408870004117,None,116.84408870004117,None,,,,,,,,,,,129,20,Female,2022-05-11_12h29.56.930,Boat,2022.1.1,59.932923050163176,
neutral,positive,2,k,k,,,,,0,16,16,13,,,,,,,,,,,,,,,,,,,,,,,,,,,,prac,1,1,2,positive,neutral,k,k,1,0.5962618000339717,116.862294999999,117.88085640000645,117.8445571999764,None,116.862294999999,None,116.862294999999,None,116.862294999999,None,118.44208700002636,None,118.44208700002636,None,118.44208700002636,None,,,,,,,,,,,129,20,Female,2022-05-11_12h29.56.930,Boat,2022.1.1,59.932923050163176,
neutral,positive,1,k,k,,,,,0,17,17,4,,,,,,,,,,,,,,,,,,,,,,,,,,,,prac,1,1,1,positive,neutral,k,k,1,0.6310822000959888,118.46028530003969,119.46427009999752,119.44784499995876,None,118.46028530003969,None,118.46028530003969,None,118.46028530003969,None,120.0749047999503,None,120.0749047999503,None,120.0749047999503,None,,,,,,,,,,,129,20,Female,2022-05-11_12h29.56.930,Boat,2022.1.1,59.932923050163176,
positive,negative,1,l,j,,,,,1,0,18,5,,,,,,,,,,,,,,,,,,,,,,,,,,,,prac,2,2,1,negative,positive,j,j,1,0.727959500043653,120.09396540001035,121.10553629999049,121.07859479996841,None,120.09396540001035,None,120.09396540001035,None,120.09396540001035,None,121.80527160004712,None,121.80527160004712,None,121.80527160004712,None,,,,,,,,,,,129,20,Female,2022-05-11_12h29.56.930,Boat,2022.1.1,59.932923050163176,
positive,negative,2,l,j,,,,,1,1,19,14,,,,,,,,,,,,,,,,,,,,,,,,,,,,prac,2,2,2,negative,positive,j,j,1,0.6345523000927642,121.81956550001632,122.83058810001239,122.81308939994778,None,121.81956550001632,None,121.81956550001632,None,121.81956550001632,None,123.4414639000548,None,123.4414639000548,None,123.4414639000548,None,,,,,,,,,,,129,20,Female,2022-05-11_12h29.56.930,Boat,2022.1.1,59.932923050163176,
neutral,neutral,2,k,k,,,,,1,2,20,10,,,,,,,,,,,,,,,,,,,,,,,,,,,,prac,1,1,2,neutral,neutral,k,k,1,0.600139299989678,123.45635790005326,124.46108279994223,124.44159740000032,None,123.45635790005326,None,123.45635790005326,None,123.45635790005326,None,125.04361820002086,None,125.04361820002086,None,125.04361820002086,None,,,,,,,,,,,129,20,Female,2022-05-11_12h29.56.930,Boat,2022.1.1,59.932923050163176,
negative,negative,2,j,l,,,,,1,3,21,9,,,,,,,,,,,,,,,,,,,,,,,,,,,,prac,2,2,2,negative,negative,l,l,1,0.5691111999331042,125.05877979996148,126.06575299997348,126.03104270005133,None,125.05877979996148,None,125.05877979996148,None,125.05877979996148,None,126.61377409999258,None,126.61377409999258,None,126.61377409999258,None,,,,,,,,,,,129,20,Female,2022-05-11_12h29.56.930,Boat,2022.1.1,59.932923050163176,
neutral,positive,1,k,k,,,,,1,4,22,4,,,,,,,,,,,,,,,,,,,,,,,,,,,,prac,2,2,1,positive,neutral,k,k,1,0.7097512999316677,126.6300567999715,127.64752360002603,127.61150410003029,None,126.6300567999715,None,126.6300567999715,None,126.6300567999715,None,128.32751919995061,None,128.32751919995061,None,128.32751919995061,None,,,,,,,,,,,129,20,Female,2022-05-11_12h29.56.930,Boat,2022.1.1,59.932923050163176,
positive,neutral,2,l,j,,,,,1,5,23,17,,,,,,,,,,,,,,,,,,,,,,,,,,,,prac,2,2,2,neutral,positive,j,j,1,0.5703575999941677,128.3424777999753,129.3473423999967,129.33045030001085,None,128.3424777999753,None,128.3424777999753,None,128.3424777999753,None,129.89697250004392,None,129.89697250004392,None,129.89697250004392,None,,,,,,,,,,,129,20,Female,2022-05-11_12h29.56.930,Boat,2022.1.1,59.932923050163176,
neutral,positive,2,k,k,,,,,1,6,24,13,,,,,,,,,,,,,,,,,,,,,,,,,,,,prac,1,1,2,positive,neutral,k,k,1,0.583981900010258,129.91451869998127,130.92795619997196,130.9086052000057,None,129.91451869998127,None,129.91451869998127,None,129.91451869998127,None,131.48399370003025,None,131.48399370003025,None,131.48399370003025,None,,,,,,,,,,,129,20,Female,2022-05-11_12h29.56.930,Boat,2022.1.1,59.932923050163176,
positive,positive,1,l,j,,,,,1,7,25,2,,,,,,,,,,,,,,,,,,,,,,,,,,,,prac,1,1,1,positive,positive,j,j,1,0.5825452000135556,131.50085209996905,132.5224382999586,132.4753694999963,None,131.50085209996905,None,131.50085209996905,None,131.50085209996905,None,133.06921020001172,None,133.06921020001172,None,133.06921020001172,None,,,,,,,,,,,129,20,Female,2022-05-11_12h29.56.930,Boat,2022.1.1,59.932923050163176,
neutral,negative,1,k,k,,,,,1,8,26,7,,,,,,,,,,,,,,,,,,,,,,,,,,,,prac,1,1,1,negative,neutral,k,k,1,0.8018139000050724,133.08560979994945,134.09747869998682,134.05858770001214,None,133.08560979994945,None,133.08560979994945,None,133.08560979994945,None,134.87640600001905,None,134.87640600001905,None,134.87640600001905,None,,,,,,,,,,,129,20,Female,2022-05-11_12h29.56.930,Boat,2022.1.1,59.932923050163176,
neutral,negative,2,k,k,,,,,1,9,27,16,,,,,,,,,,,,,,,,,,,,,,,,,,,,prac,1,1,2,negative,neutral,k,j,0,0.5538788000121713,134.89454440004192,135.9134764999617,135.87537969998084,None,134.89454440004192,None,134.89454440004192,None,134.89454440004192,None,136.43478899996262,None,136.43478899996262,None,136.43478899996262,None,,,,,,,,,,,129,20,Female,2022-05-11_12h29.56.930,Boat,2022.1.1,59.932923050163176,
negative,neutral,2,j,l,,,,,1,10,28,12,,,,,,,,,,,,,,,,,,,,,,,,,,,,prac,2,2,2,neutral,negative,l,l,1,0.8208311999915168,137.44930920004845,138.44954699999653,138.43233500001952,None,137.44930920004845,None,137.44930920004845,None,137.44930920004845,None,139.2573047999991,None,139.2573047999991,None,139.2573047999991,None,,,,,,,,,,,129,20,Female,2022-05-11_12h29.56.930,Boat,2022.1.1,59.932923050163176,
negative,negative,1,j,l,,,,,1,11,29,0,,,,,,,,,,,,,,,,,,,,,,,,,,,,prac,1,1,1,negative,negative,l,l,1,0.7223052000626922,139.27669940004125,140.2975529000396,140.2588765999535,None,139.27669940004125,None,139.27669940004125,None,139.27669940004125,None,140.9809705999447,None,140.9809705999447,None,140.9809705999447,None,,,,,,,,,,,129,20,Female,2022-05-11_12h29.56.930,Boat,2022.1.1,59.932923050163176,
negative,positive,1,j,l,,,,,1,12,30,6,,,,,,,,,,,,,,,,,,,,,,,,,,,,prac,1,1,1,positive,negative,l,l,1,0.6426990000763908,140.99666599999182,142.0145435000304,141.9784684999613,None,140.99666599999182,None,140.99666599999182,None,140.99666599999182,None,142.62787039999384,None,142.62787039999384,None,142.62787039999384,None,,,,,,,,,,,129,20,Female,2022-05-11_12h29.56.930,Boat,2022.1.1,59.932923050163176,
negative,neutral,1,j,l,,,,,1,13,31,3,,,,,,,,,,,,,,,,,,,,,,,,,,,,prac,1,1,1,neutral,negative,l,l,1,0.5589716000249609,142.64593360002618,143.65868839994073,143.63891500001773,None,142.64593360002618,None,142.64593360002618,None,142.64593360002618,None,144.18730799995828,None,144.18730799995828,None,144.18730799995828,None,,,,,,,,,,,129,20,Female,2022-05-11_12h29.56.930,Boat,2022.1.1,59.932923050163176,
positive,positive,2,l,j,,,,,1,14,32,11,,,,,,,,,,,,,,,,,,,,,,,,,,,,prac,1,1,2,positive,positive,j,j,1,0.7406352000543848,144.20756600005552,145.22831569996197,145.2089976000134,None,144.20756600005552,None,144.20756600005552,None,144.20756600005552,None,145.93111100003588,None,145.93111100003588,None,145.93111100003588,None,,,,,,,,,,,129,20,Female,2022-05-11_12h29.56.930,Boat,2022.1.1,59.932923050163176,
neutral,neutral,1,k,k,,,,,1,15,33,1,,,,,,,,,,,,,,,,,,,,,,,,,,,,prac,1,1,1,neutral,neutral,k,k,1,0.5251263999380171,145.9464770000195,146.95589999994263,146.93069950002246,None,145.9464770000195,None,145.9464770000195,None,145.9464770000195,None,147.45805839998647,None,147.45805839998647,None,147.45805839998647,None,,,,,,,,,,,129,20,Female,2022-05-11_12h29.56.930,Boat,2022.1.1,59.932923050163176,
negative,positive,2,j,l,,,,,1,16,34,15,,,,,,,,,,,,,,,,,,,,,,,,,,,,prac,2,2,2,positive,negative,l,l,1,1.3324559000320733,147.47491590003483,148.4808984999545,148.46397759998217,None,147.47491590003483,None,147.47491590003483,None,147.47491590003483,None,149.79346420001238,None,149.79346420001238,None,149.79346420001238,None,,,,,,,,,,,129,20,Female,2022-05-11_12h29.56.930,Boat,2022.1.1,59.932923050163176,
positive,neutral,1,l,j,,,,,1,17,35,8,,,,,,,,,,,,,,,,,,,,,,,,,,,,prac,1,1,1,neutral,positive,j,j,1,0.692940799985081,149.80929080001079,150.81419029994868,150.79813719994854,None,149.80929080001079,None,149.80929080001079,None,149.80929080001079,None,151.48674079999327,None,151.48674079999327,None,151.48674079999327,None,,,,,,,,,,,129,20,Female,2022-05-11_12h29.56.930,Boat,2022.1.1,59.932923050163176,
,,,,,,,,,,,,,,,,,,,,,,,,,,,,,,,,,,,,,,,,,,,,,,,,,,,,,,,,,,,,,,,,,,151.50016940000933,None,None,,,,,,,,129,20,Female,2022-05-11_12h29.56.930,Boat,2022.1.1,59.932923050163176,
,,,,,,,,,,,,,,,,,,,,,,,,,,,,,,,,,,,,,,,,,,,,,,,,,,,,,,,,,,,,,,,,,,,,,0.12592593,-0.06574074,1,0,0,0.0060415000189095736,None,129,20,Female,2022-05-11_12h29.56.930,Boat,2022.1.1,59.932923050163176,
negative,negative,2,j,l,,,,,,,,,0,0,0,9,,,,,,,,,,,,,,,,,,,,,,172.5962378999684,None,main,2,2,2,negative,negative,l,l,1,0.9150636999402195,174.63034909998532,175.63201549998485,175.6149541999912,None,174.63034909998532,None,174.63034909998532,None,174.63034909998532,None,176.52641259997617,None,176.52641259997617,None,176.52641259997617,None,,,,,,,,,,,129,20,Female,2022-05-11_12h29.56.930,Boat,2022.1.1,59.932923050163176,
positive,negative,2,l,j,,,,,,,,,0,1,1,14,,,,,,,,,,,,,,,,,,,,,,,,main,2,2,2,negative,positive,j,j,1,0.6471207999857143,176.5489359999774,177.5649112999672,177.52606059995014,None,176.5489359999774,None,176.5489359999774,None,176.5489359999774,None,178.17773859996814,None,178.17773859996814,None,178.17773859996814,None,,,,,,,,,,,129,20,Female,2022-05-11_12h29.56.930,Boat,2022.1.1,59.932923050163176,
neutral,positive,2,k,k,,,,,,,,,0,2,2,13,,,,,,,,,,,,,,,,,,,,,,,,main,1,1,2,positive,neutral,k,k,1,0.5170501000247896,178.19615950004663,179.2094894000329,179.16500719997566,None,178.19615950004663,None,178.19615950004663,None,178.19615950004663,None,179.69665660001337,None,179.69665660001337,None,179.69665660001337,None,,,,,,,,,,,129,20,Female,2022-05-11_12h29.56.930,Boat,2022.1.1,59.932923050163176,
positive,neutral,1,l,j,,,,,,,,,0,3,3,8,,,,,,,,,,,,,,,,,,,,,,,,main,2,2,1,neutral,positive,j,j,1,0.7051411001011729,179.71471470000688,180.71493080002256,180.6983582000248,None,179.71471470000688,None,179.71471470000688,None,179.71471470000688,None,181.4039695000043,None,181.4039695000043,None,181.4039695000043,None,,,,,,,,,,,129,20,Female,2022-05-11_12h29.56.930,Boat,2022.1.1,59.932923050163176,
neutral,positive,1,k,k,,,,,,,,,0,4,4,4,,,,,,,,,,,,,,,,,,,,,,,,main,2,2,1,positive,neutral,k,k,1,0.5191324999323115,181.42006919998676,182.43181149999145,182.39792410004884,None,181.42006919998676,None,181.42006919998676,None,181.42006919998676,None,182.927514900011,None,182.927514900011,None,182.927514900011,None,,,,,,,,,,,129,20,Female,2022-05-11_12h29.56.930,Boat,2022.1.1,59.932923050163176,
positive,positive,2,l,j,,,,,,,,,0,5,5,11,,,,,,,,,,,,,,,,,,,,,,,,main,1,1,2,positive,positive,j,j,1,0.5975792000535876,182.94221510004718,183.94593259994872,183.92645949998405,None,182.94221510004718,None,182.94221510004718,None,182.94221510004718,None,184.52744440003298,None,184.52744440003298,None,184.52744440003298,None,,,,,,,,,,,129,20,Female,2022-05-11_12h29.56.930,Boat,2022.1.1,59.932923050163176,
negative,neutral,1,j,l,,,,,,,,,0,6,6,3,,,,,,,,,,,,,,,,,,,,,,,,main,2,2,1,neutral,negative,l,l,1,0.678057900047861,184.54658890003338,185.55671999999322,185.5150959000457,None,184.54658890003338,None,184.54658890003338,None,184.54658890003338,None,186.20807560000102,None,186.20807560000102,None,186.20807560000102,None,,,,,,,,,,,129,20,Female,2022-05-11_12h29.56.930,Boat,2022.1.1,59.932923050163176,
negative,positive,1,j,l,,,,,,,,,0,7,7,6,,,,,,,,,,,,,,,,,,,,,,,,main,2,2,1,positive,negative,l,l,1,0.6669355001067743,186.22853109997232,187.24868820002303,187.21026930003427,None,186.22853109997232,None,186.22853109997232,None,186.22853109997232,None,187.8778044999577,None,187.8778044999577,None,187.8778044999577,None,,,,,,,,,,,129,20,Female,2022-05-11_12h29.56.930,Boat,2022.1.1,59.932923050163176,
positive,negative,1,l,j,,,,,,,,,0,8,8,5,,,,,,,,,,,,,,,,,,,,,,,,main,2,2,1,negative,positive,j,j,1,0.652340600034222,187.8975127999438,188.906612199964,188.86553880001884,None,187.8975127999438,None,187.8975127999438,None,187.8975127999438,None,189.5319982000161,None,189.5319982000161,None,189.5319982000161,None,,,,,,,,,,,129,20,Female,2022-05-11_12h29.56.930,Boat,2022.1.1,59.932923050163176,
neutral,neutral,1,k,k,,,,,,,,,0,9,9,1,,,,,,,,,,,,,,,,,,,,,,,,main,2,2,1,neutral,neutral,k,k,1,0.5652911000652239,189.54795339994598,190.5652531000087,190.52645899995696,None,189.54795339994598,None,189.54795339994598,None,189.54795339994598,None,191.09973190005402,None,191.09973190005402,None,191.09973190005402,None,,,,,,,,,,,129,20,Female,2022-05-11_12h29.56.930,Boat,2022.1.1,59.932923050163176,
negative,positive,2,j,l,,,,,,,,,0,10,10,15,,,,,,,,,,,,,,,,,,,,,,,,main,2,2,2,positive,negative,l,l,1,0.659868200076744,191.11593510000966,192.1172949000029,192.09862209996209,None,191.11593510000966,None,191.11593510000966,None,191.11593510000966,None,192.7634126000572,None,192.7634126000572,None,192.7634126000572,None,,,,,,,,,,,129,20,Female,2022-05-11_12h29.56.930,Boat,2022.1.1,59.932923050163176,
neutral,neutral,2,k,k,,,,,,,,,0,11,11,10,,,,,,,,,,,,,,,,,,,,,,,,main,2,2,2,neutral,neutral,k,k,1,0.6422552999574691,192.78068019996863,193.78199439996388,193.765092000016,None,192.78068019996863,None,192.78068019996863,None,192.78068019996863,None,194.4094107999932,None,194.4094107999932,None,194.4094107999932,None,,,,,,,,,,,129,20,Female,2022-05-11_12h29.56.930,Boat,2022.1.1,59.932923050163176,
neutral,negative,1,k,k,,,,,,,,,0,12,12,7,,,,,,,,,,,,,,,,,,,,,,,,main,2,2,1,negative,neutral,k,k,1,0.6596954999258742,194.4284668000182,195.43194949999452,195.41271149995737,None,194.4284668000182,None,194.4284668000182,None,194.4284668000182,None,196.0693658000324,None,196.0693658000324,None,196.0693658000324,None,,,,,,,,,,,129,20,Female,2022-05-11_12h29.56.930,Boat,2022.1.1,59.932923050163176,
negative,neutral,2,j,l,,,,,,,,,0,13,13,12,,,,,,,,,,,,,,,,,,,,,,,,main,2,2,2,neutral,negative,l,l,1,0.5675055000465363,196.08485350001138,197.09357659996022,197.07378660002723,None,196.08485350001138,None,196.08485350001138,None,196.08485350001138,None,197.63793560003396,None,197.63793560003396,None,197.63793560003396,None,,,,,,,,,,,129,20,Female,2022-05-11_12h29.56.930,Boat,2022.1.1,59.932923050163176,
positive,neutral,2,l,j,,,,,,,,,0,14,14,17,,,,,,,,,,,,,,,,,,,,,,,,main,2,2,2,neutral,positive,j,j,1,0.6666046000318602,197.65534099994693,198.6630942999618,198.64336580003146,None,197.65534099994693,None,197.65534099994693,None,197.65534099994693,None,199.30974379999097,None,199.30974379999097,None,199.30974379999097,None,,,,,,,,,,,129,20,Female,2022-05-11_12h29.56.930,Boat,2022.1.1,59.932923050163176,
neutral,negative,2,k,k,,,,,,,,,0,15,15,16,,,,,,,,,,,,,,,,,,,,,,,,main,1,1,2,negative,neutral,k,k,1,0.5435805000597611,199.33074320002925,200.34633740002755,200.30686230002902,None,199.33074320002925,None,199.33074320002925,None,199.33074320002925,None,200.8532037999481,None,200.8532037999481,None,200.8532037999481,None,,,,,,,,,,,129,20,Female,2022-05-11_12h29.56.930,Boat,2022.1.1,59.932923050163176,
positive,positive,1,l,j,,,,,,,,,0,16,16,2,,,,,,,,,,,,,,,,,,,,,,,,main,1,1,1,positive,positive,j,j,1,0.5589084000093862,200.86990429996513,201.88237230002414,201.84888920001686,None,200.86990429996513,None,200.86990429996513,None,200.86990429996513,None,202.41613599997945,None,202.41613599997945,None,202.41613599997945,None,,,,,,,,,,,129,20,Female,2022-05-11_12h29.56.930,Boat,2022.1.1,59.932923050163176,
negative,negative,1,j,l,,,,,,,,,0,17,17,0,,,,,,,,,,,,,,,,,,,,,,,,main,2,2,1,negative,negative,l,l,1,0.6687352999579161,202.43168709997553,203.44690320000518,203.42754930001684,None,202.43168709997553,None,202.43168709997553,None,202.43168709997553,None,204.0865275999764,None,204.0865275999764,None,204.0865275999764,None,,,,,,,,,,,129,20,Female,2022-05-11_12h29.56.930,Boat,2022.1.1,59.932923050163176,
neutral,negative,2,k,k,,,,,,,,,1,0,18,16,,,,,,,,,,,,,,,,,,,,,,,,main,2,2,2,negative,neutral,k,k,1,0.5483003999106586,204.10331829998177,205.1268067000201,205.08227490005083,None,204.10331829998177,None,204.10331829998177,None,204.10331829998177,None,205.6375826000236,None,205.6375826000236,None,205.6375826000236,None,,,,,,,,,,,129,20,Female,2022-05-11_12h29.56.930,Boat,2022.1.1,59.932923050163176,
positive,positive,2,l,j,,,,,,,,,1,1,19,11,,,,,,,,,,,,,,,,,,,,,,,,main,2,2,2,positive,positive,j,j,1,0.5640832000644878,205.6540145999752,206.6641793999588,206.64412499999162,None,205.6540145999752,None,205.6540145999752,None,205.6540145999752,None,207.20599309997633,None,207.20599309997633,None,207.20599309997633,None,,,,,,,,,,,129,20,Female,2022-05-11_12h29.56.930,Boat,2022.1.1,59.932923050163176,
positive,positive,1,l,j,,,,,,,,,1,2,20,2,,,,,,,,,,,,,,,,,,,,,,,,main,1,1,1,positive,positive,j,j,1,0.631154099944979,207.22145720000844,208.23218739998993,208.215507099987,None,207.22145720000844,None,207.22145720000844,None,207.22145720000844,None,208.83708059999626,None,208.83708059999626,None,208.83708059999626,None,,,,,,,,,,,129,20,Female,2022-05-11_12h29.56.930,Boat,2022.1.1,59.932923050163176,
neutral,positive,2,k,k,,,,,,,,,1,3,21,13,,,,,,,,,,,,,,,,,,,,,,,,main,2,2,2,positive,neutral,k,k,1,0.6171558001078665,208.8542961999774,209.86594149994198,209.83096179994754,None,208.8542961999774,None,208.8542961999774,None,208.8542961999774,None,210.45920439998153,None,210.45920439998153,None,210.45920439998153,None,,,,,,,,,,,129,20,Female,2022-05-11_12h29.56.930,Boat,2022.1.1,59.932923050163176,
neutral,negative,1,k,k,,,,,,,,,1,4,22,7,,,,,,,,,,,,,,,,,,,,,,,,main,2,2,1,negative,neutral,k,k,1,1.2194718999089673,210.4783605999546,211.48223409999628,211.4630169000011,None,210.4783605999546,None,210.4783605999546,None,210.4783605999546,None,212.68075760002247,None,212.68075760002247,None,212.68075760002247,None,,,,,,,,,,,129,20,Female,2022-05-11_12h29.56.930,Boat,2022.1.1,59.932923050163176,
negative,neutral,2,j,l,,,,,,,,,1,5,23,12,,,,,,,,,,,,,,,,,,,,,,,,main,2,2,2,neutral,negative,l,l,1,0.7721525999950245,212.69770769996103,213.70717529999092,213.6824824999785,None,212.69770769996103,None,212.69770769996103,None,212.69770769996103,None,214.4569545999635,None,214.4569545999635,None,214.4569545999635,None,,,,,,,,,,,129,20,Female,2022-05-11_12h29.56.930,Boat,2022.1.1,59.932923050163176,
negative,negative,2,j,l,,,,,,,,,1,6,24,9,,,,,,,,,,,,,,,,,,,,,,,,main,1,1,2,negative,negative,l,l,1,0.6119126999983564,214.4716963999672,215.4907723000506,215.46375340002123,None,214.4716963999672,None,214.4716963999672,None,214.4716963999672,None,216.0685302999569,None,216.0685302999569,None,216.0685302999569,None,,,,,,,,,,,129,20,Female,2022-05-11_12h29.56.930,Boat,2022.1.1,59.932923050163176,
negative,positive,2,j,l,,,,,,,,,1,7,25,15,,,,,,,,,,,,,,,,,,,,,,,,main,1,1,2,positive,negative,l,l,1,0.5109572000801563,216.08649140002672,217.0997336000437,217.06554019998293,None,216.08649140002672,None,216.08649140002672,None,216.08649140002672,None,217.58134860000573,None,217.58134860000573,None,217.58134860000573,None,,,,,,,,,,,129,20,Female,2022-05-11_12h29.56.930,Boat,2022.1.1,59.932923050163176,
positive,neutral,2,l,j,,,,,,,,,1,8,26,17,,,,,,,,,,,,,,,,,,,,,,,,main,1,1,2,neutral,positive,j,j,1,0.5856408999534324,217.59923429996707,218.61606300005224,218.58051759994123,None,217.59923429996707,None,217.59923429996707,None,217.59923429996707,None,219.1701156000141,None,219.1701156000141,None,219.1701156000141,None,,,,,,,,,,,129,20,Female,2022-05-11_12h29.56.930,Boat,2022.1.1,59.932923050163176,
negative,positive,1,j,l,,,,,,,,,1,9,27,6,,,,,,,,,,,,,,,,,,,,,,,,main,2,2,1,positive,negative,l,l,1,0.7380655000451952,219.18630629999097,220.20737489999738,220.1654876000248,None,219.18630629999097,None,219.18630629999097,None,219.18630629999097,None,220.9125131999841,None,220.9125131999841,None,220.9125131999841,None,,,,,,,,,,,129,20,Female,2022-05-11_12h29.56.930,Boat,2022.1.1,59.932923050163176,
negative,negative,1,j,l,,,,,,,,,1,10,28,0,,,,,,,,,,,,,,,,,,,,,,,,main,1,1,1,negative,negative,l,l,1,0.5867659000214189,220.9322256000014,221.93232350004837,221.91617069998756,None,220.9322256000014,None,220.9322256000014,None,220.9322256000014,None,222.50055060002487,None,222.50055060002487,None,222.50055060002487,None,,,,,,,,,,,129,20,Female,2022-05-11_12h29.56.930,Boat,2022.1.1,59.932923050163176,
neutral,positive,1,k,k,,,,,,,,,1,11,29,4,,,,,,,,,,,,,,,,,,,,,,,,main,1,1,1,positive,neutral,k,k,1,0.6690779000055045,222.51649910002016,223.51601649995428,223.49958379997406,None,222.51649910002016,None,222.51649910002016,None,222.51649910002016,None,224.17165599998552,None,224.17165599998552,None,224.17165599998552,None,,,,,,,,,,,129,20,Female,2022-05-11_12h29.56.930,Boat,2022.1.1,59.932923050163176,
positive,neutral,1,l,j,,,,,,,,,1,12,30,8,,,,,,,,,,,,,,,,,,,,,,,,main,1,1,1,neutral,positive,j,j,1,0.6223450000397861,224.1876016999595,225.20755109994207,225.16626510000788,None,224.1876016999595,None,224.1876016999595,None,224.1876016999595,None,225.79845849997363,None,225.79845849997363,None,225.79845849997363,None,,,,,,,,,,,129,20,Female,2022-05-11_12h29.56.930,Boat,2022.1.1,59.932923050163176,
negative,neutral,1,j,l,,,,,,,,,1,13,31,3,,,,,,,,,,,,,,,,,,,,,,,,main,1,1,1,neutral,negative,l,l,1,1.3592761000618339,225.81512060004752,226.83272319997195,226.81483909999952,None,225.81512060004752,None,225.81512060004752,None,225.81512060004752,None,228.16099260004702,None,228.16099260004702,None,228.16099260004702,None,,,,,,,,,,,129,20,Female,2022-05-11_12h29.56.930,Boat,2022.1.1,59.932923050163176,
neutral,neutral,1,k,k,,,,,,,,,1,14,32,1,,,,,,,,,,,,,,,,,,,,,,,,main,2,2,1,neutral,neutral,k,l,0,-0.7079809999559075,228.17906690004747,None,None,None,228.17906690004747,None,228.17906690004747,None,228.17906690004747,None,228.4652062000241,None,228.4652062000241,None,228.4652062000241,None,,,,,,,,,,,129,20,Female,2022-05-11_12h29.56.930,Boat,2022.1.1,59.932923050163176,
neutral,neutral,2,k,k,,,,,,,,,1,15,33,10,,,,,,,,,,,,,,,,,,,,,,,,main,2,2,2,neutral,neutral,k,k,1,0.7165069000329822,231.48492770001758,232.49753659998532,232.4777462000493,None,231.48492770001758,None,231.48492770001758,None,231.48492770001758,None,233.18743700000923,None,233.18743700000923,None,233.18743700000923,None,,,,,,,,,,,129,20,Female,2022-05-11_12h29.56.930,Boat,2022.1.1,59.932923050163176,
positive,negative,1,l,j,,,,,,,,,1,16,34,5,,,,,,,,,,,,,,,,,,,,,,,,main,1,1,1,negative,positive,j,j,1,0.6313558000838384,233.202780899941,234.21855969994795,234.18400300003123,None,233.202780899941,None,233.202780899941,None,233.202780899941,None,234.82140469995792,None,234.82140469995792,None,234.82140469995792,None,,,,,,,,,,,129,20,Female,2022-05-11_12h29.56.930,Boat,2022.1.1,59.932923050163176,
positive,negative,2,l,j,,,,,,,,,1,17,35,14,,,,,,,,,,,,,,,,,,,,,,,,main,1,1,2,negative,positive,j,j,1,0.6948564999038354,234.83691449998878,235.84940920001827,235.8108183000004,None,234.83691449998878,None,234.83691449998878,None,234.83691449998878,None,236.51745820001233,None,236.51745820001233,None,236.51745820001233,None,,,,,,,,,,,129,20,Female,2022-05-11_12h29.56.930,Boat,2022.1.1,59.932923050163176,
neutral,positive,2,k,k,,,,,,,,,2,0,36,13,,,,,,,,,,,,,,,,,,,,,,,,main,1,1,2,positive,neutral,k,k,1,0.5702740999404341,236.5337223999668,237.5483006000286,237.5282089000102,None,236.5337223999668,None,236.5337223999668,None,236.5337223999668,None,238.09294849997386,None,238.09294849997386,None,238.09294849997386,None,,,,,,,,,,,129,20,Female,2022-05-11_12h29.56.930,Boat,2022.1.1,59.932923050163176,
positive,neutral,2,l,j,,,,,,,,,2,1,37,17,,,,,,,,,,,,,,,,,,,,,,,,main,2,2,2,neutral,positive,j,j,1,0.6215929000172764,238.10890959994867,239.11322549998295,239.09411700000055,None,238.10890959994867,None,238.10890959994867,None,238.10890959994867,None,239.71522779997903,None,239.71522779997903,None,239.71522779997903,None,,,,,,,,,,,129,20,Female,2022-05-11_12h29.56.930,Boat,2022.1.1,59.932923050163176,
neutral,positive,1,k,k,,,,,,,,,2,2,38,4,,,,,,,,,,,,,,,,,,,,,,,,main,2,2,1,positive,neutral,k,k,1,0.5876928999787197,239.73186569998506,240.75006540003233,240.71150730003137,None,239.73186569998506,None,239.73186569998506,None,239.73186569998506,None,241.30476290001533,None,241.30476290001533,None,241.30476290001533,None,,,,,,,,,,,129,20,Female,2022-05-11_12h29.56.930,Boat,2022.1.1,59.932923050163176,
neutral,neutral,1,k,k,,,,,,,,,2,3,39,1,,,,,,,,,,,,,,,,,,,,,,,,main,2,2,1,neutral,neutral,k,k,1,0.7050303999567404,241.3216402999824,242.33289700001478,242.31507550005335,None,241.3216402999824,None,241.3216402999824,None,241.3216402999824,None,243.0153543000575,None,243.0153543000575,None,243.0153543000575,None,,,,,,,,,,,129,20,Female,2022-05-11_12h29.56.930,Boat,2022.1.1,59.932923050163176,
positive,neutral,1,l,j,,,,,,,,,2,4,40,8,,,,,,,,,,,,,,,,,,,,,,,,main,2,2,1,neutral,positive,j,j,1,0.654388300026767,243.03211090003606,244.03322810004465,244.01650190004148,None,243.03211090003606,None,243.03211090003606,None,243.03211090003606,None,244.6716180000454,None,244.6716180000454,None,244.6716180000454,None,,,,,,,,,,,129,20,Female,2022-05-11_12h29.56.930,Boat,2022.1.1,59.932923050163176,
positive,positive,2,l,j,,,,,,,,,2,5,41,11,,,,,,,,,,,,,,,,,,,,,,,,main,2,2,2,positive,positive,j,j,1,0.8949627999681979,244.6873886999674,245.70768230000976,245.6669208999956,None,244.6873886999674,None,244.6873886999674,None,244.6873886999674,None,246.56804529998917,None,246.56804529998917,None,246.56804529998917,None,,,,,,,,,,,129,20,Female,2022-05-11_12h29.56.930,Boat,2022.1.1,59.932923050163176,
negative,neutral,2,j,l,,,,,,,,,2,6,42,12,,,,,,,,,,,,,,,,,,,,,,,,main,2,2,2,neutral,negative,l,l,1,0.7555093000410125,246.58492890000343,247.6027999999933,247.5659089999972,None,246.58492890000343,None,246.58492890000343,None,246.58492890000343,None,248.32857889998704,None,248.32857889998704,None,248.32857889998704,None,,,,,,,,,,,129,20,Female,2022-05-11_12h29.56.930,Boat,2022.1.1,59.932923050163176,
neutral,neutral,2,k,k,,,,,,,,,2,7,43,10,,,,,,,,,,,,,,,,,,,,,,,,main,1,1,2,neutral,neutral,k,k,1,0.5478614000603557,248.34684699994978,249.3668614999624,249.328149799956,None,248.34684699994978,None,248.34684699994978,None,248.34684699994978,None,249.8786965999985,None,249.8786965999985,None,249.8786965999985,None,,,,,,,,,,,129,20,Female,2022-05-11_12h29.56.930,Boat,2022.1.1,59.932923050163176,
negative,positive,2,j,l,,,,,,,,,2,8,44,15,,,,,,,,,,,,,,,,,,,,,,,,main,2,2,2,positive,negative,l,l,1,0.6996578000253066,249.89853869995568,250.89984089997597,250.88325980002992,None,249.89853869995568,None,249.89853869995568,None,249.89853869995568,None,251.5820624999702,None,251.5820624999702,None,251.5820624999702,None,,,,,,,,,,,129,20,Female,2022-05-11_12h29.56.930,Boat,2022.1.1,59.932923050163176,
positive,negative,2,l,j,,,,,,,,,2,9,45,14,,,,,,,,,,,,,,,,,,,,,,,,main,1,1,2,negative,positive,j,j,1,0.7434389999834821,251.5986530999653,252.60005070001353,252.58233050000854,None,251.5986530999653,None,251.5986530999653,None,251.5986530999653,None,253.32847830003593,None,253.32847830003593,None,253.32847830003593,None,,,,,,,,,,,129,20,Female,2022-05-11_12h29.56.930,Boat,2022.1.1,59.932923050163176,
negative,positive,1,j,l,,,,,,,,,2,10,46,6,,,,,,,,,,,,,,,,,,,,,,,,main,1,1,1,positive,negative,l,l,1,0.8123152001062408,253.34844390000217,254.3499829999637,254.3330085000489,None,253.34844390000217,None,253.34844390000217,None,253.34844390000217,None,255.14284100001677,None,255.14284100001677,None,255.14284100001677,None,,,,,,,,,,,129,20,Female,2022-05-11_12h29.56.930,Boat,2022.1.1,59.932923050163176,
positive,negative,1,l,j,,,,,,,,,2,11,47,5,,,,,,,,,,,,,,,,,,,,,,,,main,1,1,1,negative,positive,j,j,1,0.7751208998961374,255.16170129994862,256.1637863999931,256.1444439999759,None,255.16170129994862,None,255.16170129994862,None,255.16170129994862,None,256.91878700002565,None,256.91878700002565,None,256.91878700002565,None,,,,,,,,,,,129,20,Female,2022-05-11_12h29.56.930,Boat,2022.1.1,59.932923050163176,
negative,neutral,1,j,l,,,,,,,,,2,12,48,3,,,,,,,,,,,,,,,,,,,,,,,,main,2,2,1,neutral,negative,l,l,1,0.6385193000314757,256.9353006000165,257.9522683999967,257.9168885999825,None,256.9353006000165,None,256.9353006000165,None,256.9353006000165,None,258.5615731999511,None,258.5615731999511,None,258.5615731999511,None,,,,,,,,,,,129,20,Female,2022-05-11_12h29.56.930,Boat,2022.1.1,59.932923050163176,
negative,negative,2,j,l,,,,,,,,,2,13,49,9,,,,,,,,,,,,,,,,,,,,,,,,main,2,2,2,negative,negative,l,l,1,0.6800818999763578,258.5800085000228,259.59809260000475,259.5584933999926,None,258.5800085000228,None,258.5800085000228,None,258.5800085000228,None,260.2440987000242,None,260.2440987000242,None,260.2440987000242,None,,,,,,,,,,,129,20,Female,2022-05-11_12h29.56.930,Boat,2022.1.1,59.932923050163176,
positive,positive,1,l,j,,,,,,,,,2,14,50,2,,,,,,,,,,,,,,,,,,,,,,,,main,1,1,1,positive,positive,j,j,1,0.7491149000125006,260.26068890001625,261.2685155000072,261.2338686999865,None,260.26068890001625,None,260.26068890001625,None,260.26068890001625,None,261.9950498000486,None,261.9950498000486,None,261.9950498000486,None,,,,,,,,,,,129,20,Female,2022-05-11_12h29.56.930,Boat,2022.1.1,59.932923050163176,
neutral,negative,2,k,k,,,,,,,,,2,15,51,16,,,,,,,,,,,,,,,,,,,,,,,,main,2,2,2,negative,neutral,k,k,1,0.6105834000045434,262.01170589996036,263.01671230001375,262.9993062999565,None,262.01170589996036,None,262.01170589996036,None,262.01170589996036,None,263.6093377999729,None,263.6093377999729,None,263.6093377999729,None,,,,,,,,,,,129,20,Female,2022-05-11_12h29.56.930,Boat,2022.1.1,59.932923050163176,
neutral,negative,1,k,k,,,,,,,,,2,16,52,7,,,,,,,,,,,,,,,,,,,,,,,,main,2,2,1,negative,neutral,k,k,1,0.5782645000144839,263.624657999957,264.63374820002355,264.61677630001213,None,263.624657999957,None,263.624657999957,None,263.624657999957,None,265.1878188000061,None,265.1878188000061,None,265.1878188000061,None,,,,,,,,,,,129,20,Female,2022-05-11_12h29.56.930,Boat,2022.1.1,59.932923050163176,
negative,negative,1,j,l,,,,,,,,,2,17,53,0,,,,,,,,,,,,,,,,,,,,,,,,main,1,1,1,negative,negative,l,l,1,0.7427235000068322,265.20331430004444,266.21753689995967,266.1809615000384,None,265.20331430004444,None,265.20331430004444,None,265.20331430004444,None,266.93399439998905,None,266.93399439998905,None,266.93399439998905,None,,,,,,,,,,,129,20,Female,2022-05-11_12h29.56.930,Boat,2022.1.1,59.932923050163176,
positive,positive,2,l,j,,,,,,,,,3,0,54,11,,,,,,,,,,,,,,,,,,,,,,,,main,1,1,2,positive,positive,j,j,1,0.7750307000242174,266.94965720002074,267.9672332999762,267.9282121999422,None,266.94965720002074,None,266.94965720002074,None,266.94965720002074,None,268.7129092000192,None,268.7129092000192,None,268.7129092000192,None,,,,,,,,,,,129,20,Female,2022-05-11_12h29.56.930,Boat,2022.1.1,59.932923050163176,
negative,negative,2,j,l,,,,,,,,,3,1,55,9,,,,,,,,,,,,,,,,,,,,,,,,main,1,1,2,negative,negative,l,l,1,1.3256494000088423,268.7313714999473,269.73349909996614,269.7002689000219,None,268.7313714999473,None,268.7313714999473,None,268.7313714999473,None,271.03951199995356,None,271.03951199995356,None,271.03951199995356,None,,,,,,,,,,,129,20,Female,2022-05-11_12h29.56.930,Boat,2022.1.1,59.932923050163176,
neutral,positive,1,k,k,,,,,,,,,3,2,56,4,,,,,,,,,,,,,,,,,,,,,,,,main,1,1,1,positive,neutral,k,k,1,0.6731926000211388,271.0555208999431,272.07834560004994,272.0581941000419,None,271.0555208999431,None,271.0555208999431,None,271.0555208999431,None,272.716241700016,None,272.716241700016,None,272.716241700016,None,,,,,,,,,,,129,20,Female,2022-05-11_12h29.56.930,Boat,2022.1.1,59.932923050163176,
neutral,negative,2,k,k,,,,,,,,,3,3,57,16,,,,,,,,,,,,,,,,,,,,,,,,main,1,1,2,negative,neutral,k,k,1,1.2424797000130638,272.7326587999705,273.7337531000376,273.7005508999573,None,272.7326587999705,None,272.7326587999705,None,272.7326587999705,None,274.9622944999952,None,274.9622944999952,None,274.9622944999952,None,,,,,,,,,,,129,20,Female,2022-05-11_12h29.56.930,Boat,2022.1.1,59.932923050163176,
neutral,negative,1,k,k,,,,,,,,,3,4,58,7,,,,,,,,,,,,,,,,,,,,,,,,main,2,2,1,negative,neutral,k,k,1,0.6991198998875916,274.9814556000056,276.008416299941,275.9620573000284,None,274.9814556000056,None,274.9814556000056,None,274.9814556000056,None,276.66267689995004,None,276.66267689995004,None,276.66267689995004,None,,,,,,,,,,,129,20,Female,2022-05-11_12h29.56.930,Boat,2022.1.1,59.932923050163176,
neutral,neutral,1,k,k,,,,,,,,,3,5,59,1,,,,,,,,,,,,,,,,,,,,,,,,main,2,2,1,neutral,neutral,k,k,1,0.646516399923712,276.6825142999878,277.6977206999436,277.65873180003837,None,276.6825142999878,None,276.6825142999878,None,276.6825142999878,None,278.31254650002813,None,278.31254650002813,None,278.31254650002813,None,,,,,,,,,,,129,20,Female,2022-05-11_12h29.56.930,Boat,2022.1.1,59.932923050163176,
neutral,neutral,2,k,k,,,,,,,,,3,6,60,10,,,,,,,,,,,,,,,,,,,,,,,,main,2,2,2,neutral,neutral,k,k,1,0.49409759999252856,278.33136650000233,279.3510939000407,279.3120187999448,None,278.33136650000233,None,278.33136650000233,None,278.33136650000233,None,279.8088570999913,None,279.8088570999913,None,279.8088570999913,None,,,,,,,,,,,129,20,Female,2022-05-11_12h29.56.930,Boat,2022.1.1,59.932923050163176,
negative,positive,2,j,l,,,,,,,,,3,7,61,15,,,,,,,,,,,,,,,,,,,,,,,,main,1,1,2,positive,negative,l,l,1,0.7160004999022931,279.8251007000217,280.845285300049,280.8251997999614,None,279.8251007000217,None,279.8251007000217,None,279.8251007000217,None,281.52777860001663,None,281.52777860001663,None,281.52777860001663,None,,,,,,,,,,,129,20,Female,2022-05-11_12h29.56.930,Boat,2022.1.1,59.932923050163176,
neutral,positive,2,k,k,,,,,,,,,3,8,62,13,,,,,,,,,,,,,,,,,,,,,,,,main,2,2,2,positive,neutral,k,k,1,0.6678310000570491,281.54524360003415,282.5505787000293,282.5338660000125,None,281.54524360003415,None,281.54524360003415,None,281.54524360003415,None,283.1971340000397,None,283.1971340000397,None,283.1971340000397,None,,,,,,,,,,,129,20,Female,2022-05-11_12h29.56.930,Boat,2022.1.1,59.932923050163176,
negative,positive,1,j,l,,,,,,,,,3,9,63,6,,,,,,,,,,,,,,,,,,,,,,,,main,2,2,1,positive,negative,l,l,1,0.7152559000533074,283.2161284999456,284.2171412999742,284.19994409999344,None,283.2161284999456,None,283.2161284999456,None,283.2161284999456,None,284.9153456000146,None,284.9153456000146,None,284.9153456000146,None,,,,,,,,,,,129,20,Female,2022-05-11_12h29.56.930,Boat,2022.1.1,59.932923050163176,
positive,neutral,2,l,j,,,,,,,,,3,10,64,17,,,,,,,,,,,,,,,,,,,,,,,,main,2,2,2,neutral,positive,j,j,1,0.73852740006987,284.93292609998025,285.934027899988,285.9160271999426,None,284.93292609998025,None,284.93292609998025,None,284.93292609998025,None,286.6573030000087,None,286.6573030000087,None,286.6573030000087,None,,,,,,,,,,,129,20,Female,2022-05-11_12h29.56.930,Boat,2022.1.1,59.932923050163176,
positive,positive,1,l,j,,,,,,,,,3,11,65,2,,,,,,,,,,,,,,,,,,,,,,,,main,1,1,1,positive,positive,j,j,1,0.6700552001129836,286.6729093999602,287.68422030005604,287.66524889995344,None,286.6729093999602,None,286.6729093999602,None,286.6729093999602,None,288.3301942999475,None,288.3301942999475,None,288.3301942999475,None,,,,,,,,,,,129,20,Female,2022-05-11_12h29.56.930,Boat,2022.1.1,59.932923050163176,
positive,negative,1,l,j,,,,,,,,,3,12,66,5,,,,,,,,,,,,,,,,,,,,,,,,main,1,1,1,negative,positive,j,j,1,0.5762620999012142,288.34922370000277,289.35873950005043,289.31781519996,None,288.34922370000277,None,288.34922370000277,None,288.34922370000277,None,289.90829950002956,None,289.90829950002956,None,289.90829950002956,None,,,,,,,,,,,129,20,Female,2022-05-11_12h29.56.930,Boat,2022.1.1,59.932923050163176,
positive,negative,2,l,j,,,,,,,,,3,13,67,14,,,,,,,,,,,,,,,,,,,,,,,,main,2,2,2,negative,positive,j,j,1,0.7944118999876082,289.9250005000504,290.9454827000154,290.92558709997684,None,289.9250005000504,None,289.9250005000504,None,289.9250005000504,None,291.70403299995235,None,291.70403299995235,None,291.70403299995235,None,,,,,,,,,,,129,20,Female,2022-05-11_12h29.56.930,Boat,2022.1.1,59.932923050163176,
positive,neutral,1,l,j,,,,,,,,,3,14,68,8,,,,,,,,,,,,,,,,,,,,,,,,main,2,2,1,neutral,positive,j,j,1,0.6661443999037147,291.71902079996653,292.74231979995966,292.7181692000013,None,291.71902079996653,None,291.71902079996653,None,291.71902079996653,None,293.37138599997854,None,293.37138599997854,None,293.37138599997854,None,,,,,,,,,,,129,20,Female,2022-05-11_12h29.56.930,Boat,2022.1.1,59.932923050163176,
negative,neutral,1,j,l,,,,,,,,,3,15,69,3,,,,,,,,,,,,,,,,,,,,,,,,main,1,1,1,neutral,negative,l,l,1,0.7649687000084668,293.38751549995504,294.3977171999868,294.37901969999075,None,293.38751549995504,None,293.38751549995504,None,293.38751549995504,None,295.1392697999487,None,295.1392697999487,None,295.1392697999487,None,,,,,,,,,,,129,20,Female,2022-05-11_12h29.56.930,Boat,2022.1.1,59.932923050163176,
negative,neutral,2,j,l,,,,,,,,,3,16,70,12,,,,,,,,,,,,,,,,,,,,,,,,main,1,1,2,neutral,negative,l,l,1,0.7411859000567347,295.160201300052,296.1756271000486,296.1341639000457,None,295.160201300052,None,295.160201300052,None,295.160201300052,None,296.8844474000158,None,296.8844474000158,None,296.8844474000158,None,,,,,,,,,,,129,20,Female,2022-05-11_12h29.56.930,Boat,2022.1.1,59.932923050163176,
negative,negative,1,j,l,,,,,,,,,3,17,71,0,,,,,,,,,,,,,,,,,,,,,,,,main,1,1,1,negative,negative,l,l,1,0.5960787000367418,296.9006065999856,297.91781420004554,297.8988267000532,None,296.9006065999856,None,296.9006065999856,None,296.9006065999856,None,298.4830015000422,None,298.4830015000422,None,298.4830015000422,None,,,,,,,,,,,129,20,Female,2022-05-11_12h29.56.930,Boat,2022.1.1,59.932923050163176,
positive,neutral,2,l,j,,,,,,,,,4,0,72,17,,,,,,,,,,,,,,,,,,,,,,,,main,2,2,2,neutral,positive,j,j,1,0.7703923999797553,298.4998286999762,299.5151228000177,299.49593530001584,None,298.4998286999762,None,298.4998286999762,None,298.4998286999762,None,300.25612010005864,None,300.25612010005864,None,300.25612010005864,None,,,,,,,,,,,129,20,Female,2022-05-11_12h29.56.930,Boat,2022.1.1,59.932923050163176,
neutral,positive,2,k,k,,,,,,,,,4,1,73,13,,,,,,,,,,,,,,,,,,,,,,,,main,2,2,2,positive,neutral,k,k,1,0.6321751999203116,300.2728792000562,301.2867991999956,301.25110460002907,None,300.2728792000562,None,300.2728792000562,None,300.2728792000562,None,301.8918814000441,None,301.8918814000441,None,301.8918814000441,None,,,,,,,,,,,129,20,Female,2022-05-11_12h29.56.930,Boat,2022.1.1,59.932923050163176,
positive,positive,1,l,j,,,,,,,,,4,2,74,2,,,,,,,,,,,,,,,,,,,,,,,,main,2,2,1,positive,positive,j,j,1,0.5552237000083551,301.9106309999479,302.91832099994645,302.8791224999586,None,301.9106309999479,None,301.9106309999479,None,301.9106309999479,None,303.44992880001666,None,303.44992880001666,None,303.44992880001666,None,,,,,,,,,,,129,20,Female,2022-05-11_12h29.56.930,Boat,2022.1.1,59.932923050163176,
neutral,neutral,1,k,k,,,,,,,,,4,3,75,1,,,,,,,,,,,,,,,,,,,,,,,,main,1,1,1,neutral,neutral,k,k,1,0.6202906999969855,303.466977700009,304.46824610000476,304.45001699996646,None,303.466977700009,None,303.466977700009,None,303.466977700009,None,305.07173670004124,None,305.07173670004124,None,305.07173670004124,None,,,,,,,,,,,129,20,Female,2022-05-11_12h29.56.930,Boat,2022.1.1,59.932923050163176,
positive,negative,2,l,j,,,,,,,,,4,4,76,14,,,,,,,,,,,,,,,,,,,,,,,,main,2,2,2,negative,positive,j,j,1,0.6673158999765292,305.08889929996803,306.098234300036,306.0789814000018,None,305.08889929996803,None,305.08889929996803,None,305.08889929996803,None,306.744031999982,None,306.744031999982,None,306.744031999982,None,,,,,,,,,,,129,20,Female,2022-05-11_12h29.56.930,Boat,2022.1.1,59.932923050163176,
neutral,positive,1,k,k,,,,,,,,,4,5,77,4,,,,,,,,,,,,,,,,,,,,,,,,main,2,2,1,positive,neutral,k,k,1,0.6981161999283358,306.7646198000293,307.76854249997996,307.73446439998224,None,306.7646198000293,None,306.7646198000293,None,306.7646198000293,None,308.44418949997055,None,308.44418949997055,None,308.44418949997055,None,,,,,,,,,,,129,20,Female,2022-05-11_12h29.56.930,Boat,2022.1.1,59.932923050163176,
positive,positive,2,l,j,,,,,,,,,4,6,78,11,,,,,,,,,,,,,,,,,,,,,,,,main,2,2,2,positive,positive,j,j,1,0.5566702999640256,308.45942820003256,309.46902910002973,309.43479570001364,None,308.45942820003256,None,308.45942820003256,None,308.45942820003256,None,310.00188450005373,None,310.00188450005373,None,310.00188450005373,None,,,,,,,,,,,129,20,Female,2022-05-11_12h29.56.930,Boat,2022.1.1,59.932923050163176,
negative,neutral,2,j,l,,,,,,,,,4,7,79,12,,,,,,,,,,,,,,,,,,,,,,,,main,2,2,2,neutral,negative,l,l,1,0.7441742999944836,310.01708310004324,311.0178152000299,311.0014991000062,None,310.01708310004324,None,310.01708310004324,None,310.01708310004324,None,311.7499634999782,None,311.7499634999782,None,311.7499634999782,None,,,,,,,,,,,129,20,Female,2022-05-11_12h29.56.930,Boat,2022.1.1,59.932923050163176,
negative,negative,2,j,l,,,,,,,,,4,8,80,9,,,,,,,,,,,,,,,,,,,,,,,,main,1,1,2,negative,negative,l,l,1,1.2811631000367925,311.7681654000189,312.7847068000119,312.7482843999751,None,311.7681654000189,None,311.7681654000189,None,311.7681654000189,None,314.0341947999783,None,314.0341947999783,None,314.0341947999783,None,,,,,,,,,,,129,20,Female,2022-05-11_12h29.56.930,Boat,2022.1.1,59.932923050163176,
positive,negative,1,l,j,,,,,,,,,4,9,81,5,,,,,,,,,,,,,,,,,,,,,,,,main,2,2,1,negative,positive,j,j,1,0.7127611999167129,314.05032709997613,315.06521799997427,315.04617450002115,None,314.05032709997613,None,314.05032709997613,None,314.05032709997613,None,315.7503500000108,None,315.7503500000108,None,315.7503500000108,None,,,,,,,,,,,129,20,Female,2022-05-11_12h29.56.930,Boat,2022.1.1,59.932923050163176,
negative,positive,1,j,l,,,,,,,,,4,10,82,6,,,,,,,,,,,,,,,,,,,,,,,,main,1,1,1,positive,negative,l,l,1,0.8124717000173405,315.76681619999,316.768870000029,316.75170080002863,None,315.76681619999,None,315.76681619999,None,315.76681619999,None,317.5666486999486,None,317.5666486999486,None,317.5666486999486,None,,,,,,,,,,,129,20,Female,2022-05-11_12h29.56.930,Boat,2022.1.1,59.932923050163176,
negative,positive,2,j,l,,,,,,,,,4,11,83,15,,,,,,,,,,,,,,,,,,,,,,,,main,1,1,2,positive,negative,l,l,1,0.5267790000652894,317.58453480002936,318.58705480000935,318.569716900005,None,317.58453480002936,None,317.58453480002936,None,317.58453480002936,None,319.09702350003647,None,319.09702350003647,None,319.09702350003647,None,,,,,,,,,,,129,20,Female,2022-05-11_12h29.56.930,Boat,2022.1.1,59.932923050163176,
negative,neutral,1,j,l,,,,,,,,,4,12,84,3,,,,,,,,,,,,,,,,,,,,,,,,main,2,2,1,neutral,negative,l,l,1,1.2281842000083998,319.1146472999826,320.1348823000444,320.1160432000179,None,319.1146472999826,None,319.1146472999826,None,319.1146472999826,None,321.3269012000179,None,321.3269012000179,None,321.3269012000179,None,,,,,,,,,,,129,20,Female,2022-05-11_12h29.56.930,Boat,2022.1.1,59.932923050163176,
positive,neutral,1,l,j,,,,,,,,,4,13,85,8,,,,,,,,,,,,,,,,,,,,,,,,main,1,1,1,neutral,positive,j,j,1,0.7057843001093715,321.3420806999784,322.3518101000227,322.33283450000454,None,321.3420806999784,None,321.3420806999784,None,321.3420806999784,None,323.034823299991,None,323.034823299991,None,323.034823299991,None,,,,,,,,,,,129,20,Female,2022-05-11_12h29.56.930,Boat,2022.1.1,59.932923050163176,
negative,negative,1,j,l,,,,,,,,,4,14,86,0,,,,,,,,,,,,,,,,,,,,,,,,main,2,2,1,negative,negative,l,j,0,0.5536332000046968,323.050638900022,324.06852590001654,324.03205859998707,None,323.050638900022,None,323.050638900022,None,323.050638900022,None,324.60093499999493,None,324.60093499999493,None,324.60093499999493,None,,,,,,,,,,,129,20,Female,2022-05-11_12h29.56.930,Boat,2022.1.1,59.932923050163176,
neutral,neutral,2,k,k,,,,,,,,,4,15,87,10,,,,,,,,,,,,,,,,,,,,,,,,main,2,2,2,neutral,neutral,k,k,1,0.6852671999949962,325.6269988999702,326.63502110005356,326.6177669999888,None,325.6269988999702,None,325.6269988999702,None,325.6269988999702,None,327.2903047000524,None,327.2903047000524,None,327.2903047000524,None,,,,,,,,,,,129,20,Female,2022-05-11_12h29.56.930,Boat,2022.1.1,59.932923050163176,
neutral,negative,2,k,k,,,,,,,,,4,16,88,16,,,,,,,,,,,,,,,,,,,,,,,,main,1,1,2,negative,neutral,k,k,1,0.64572439994663,327.3088618000038,328.3131116000004,328.2933075999608,None,327.3088618000038,None,327.3088618000038,None,327.3088618000038,None,328.9392678999808,None,328.9392678999808,None,328.9392678999808,None,,,,,,,,,,,129,20,Female,2022-05-11_12h29.56.930,Boat,2022.1.1,59.932923050163176,
neutral,negative,1,k,k,,,,,,,,,4,17,89,7,,,,,,,,,,,,,,,,,,,,,,,,main,1,1,1,negative,neutral,k,k,1,0.6371005999390036,328.95506900001783,329.96866909996606,329.93084259994794,None,328.95506900001783,None,328.95506900001783,None,328.95506900001783,None,330.58073750000915,None,330.58073750000915,None,330.58073750000915,None,,,,,,,,,,,129,20,Female,2022-05-11_12h29.56.930,Boat,2022.1.1,59.932923050163176,
positive,positive,1,l,j,,,,,,,,,5,0,90,2,,,,,,,,,,,,,,,,,,,,,,,,main,2,2,1,positive,positive,j,j,1,0.5843811000231653,330.59987110004295,331.61553569999523,331.5765965000028,None,330.59987110004295,None,330.59987110004295,None,330.59987110004295,None,332.1670288000256,None,332.1670288000256,None,332.1670288000256,None,,,,,,,,,,,129,20,Female,2022-05-11_12h29.56.930,Boat,2022.1.1,59.932923050163176,
negative,neutral,1,j,l,,,,,,,,,5,1,91,3,,,,,,,,,,,,,,,,,,,,,,,,main,1,1,1,neutral,negative,l,l,1,0.7407081000274047,332.1823879999574,333.18513200001325,333.1684267000528,None,332.1823879999574,None,332.1823879999574,None,332.1823879999574,None,333.9114786000224,None,333.9114786000224,None,333.9114786000224,None,,,,,,,,,,,129,20,Female,2022-05-11_12h29.56.930,Boat,2022.1.1,59.932923050163176,
negative,neutral,2,j,l,,,,,,,,,5,2,92,12,,,,,,,,,,,,,,,,,,,,,,,,main,1,1,2,neutral,negative,l,l,1,0.5977080999873579,333.9287797999568,334.9329533999553,334.91353410005104,None,333.9287797999568,None,333.9287797999568,None,333.9287797999568,None,335.50651949995665,None,335.50651949995665,None,335.50651949995665,None,,,,,,,,,,,129,20,Female,2022-05-11_12h29.56.930,Boat,2022.1.1,59.932923050163176,
neutral,neutral,2,k,k,,,,,,,,,5,3,93,10,,,,,,,,,,,,,,,,,,,,,,,,main,2,2,2,neutral,neutral,k,k,1,0.5774616999551654,335.531345800031,336.53511519997846,336.518602999975,None,335.531345800031,None,335.531345800031,None,335.531345800031,None,337.0889933000086,None,337.0889933000086,None,337.0889933000086,None,,,,,,,,,,,129,20,Female,2022-05-11_12h29.56.930,Boat,2022.1.1,59.932923050163176,
neutral,negative,1,k,k,,,,,,,,,5,4,94,7,,,,,,,,,,,,,,,,,,,,,,,,main,1,1,1,negative,neutral,k,k,1,0.5312622000928968,337.1048719000537,338.1187855999451,338.08396640000865,None,337.1048719000537,None,337.1048719000537,None,337.1048719000537,None,338.62221419999844,None,338.62221419999844,None,338.62221419999844,None,,,,,,,,,,,129,20,Female,2022-05-11_12h29.56.930,Boat,2022.1.1,59.932923050163176,
negative,positive,1,j,l,,,,,,,,,5,5,95,6,,,,,,,,,,,,,,,,,,,,,,,,main,1,1,1,positive,negative,l,l,1,0.631791100022383,338.6382692999905,339.6518140999833,339.6132677999558,None,338.6382692999905,None,338.6382692999905,None,338.6382692999905,None,340.2587900000159,None,340.2587900000159,None,340.2587900000159,None,,,,,,,,,,,129,20,Female,2022-05-11_12h29.56.930,Boat,2022.1.1,59.932923050163176,
neutral,neutral,1,k,k,,,,,,,,,5,6,96,1,,,,,,,,,,,,,,,,,,,,,,,,main,1,1,1,neutral,neutral,k,k,1,0.5637824999867007,340.27435349998996,341.28030450001825,341.28030450001825,None,340.27435349998996,None,340.27435349998996,None,340.27435349998996,None,341.8230595999863,None,341.8230595999863,None,341.8230595999863,None,,,,,,,,,,,129,20,Female,2022-05-11_12h29.56.930,Boat,2022.1.1,59.932923050163176,
negative,positive,2,j,l,,,,,,,,,5,7,97,15,,,,,,,,,,,,,,,,,,,,,,,,main,1,1,2,positive,negative,l,l,1,0.7368874000385404,341.84138170001097,342.8517216000473,342.81334460002836,None,341.84138170001097,None,341.84138170001097,None,341.84138170001097,None,343.56449669997676,None,343.56449669997676,None,343.56449669997676,None,,,,,,,,,,,129,20,Female,2022-05-11_12h29.56.930,Boat,2022.1.1,59.932923050163176,
positive,positive,2,l,j,,,,,,,,,5,8,98,11,,,,,,,,,,,,,,,,,,,,,,,,main,2,2,2,positive,positive,j,j,1,0.6934602999826893,343.58443519996945,344.60265400004573,344.5664000000106,None,343.58443519996945,None,343.58443519996945,None,343.58443519996945,None,345.26030620003587,None,345.26030620003587,None,345.26030620003587,None,,,,,,,,,,,129,20,Female,2022-05-11_12h29.56.930,Boat,2022.1.1,59.932923050163176,
negative,negative,1,j,l,,,,,,,,,5,9,99,0,,,,,,,,,,,,,,,,,,,,,,,,main,2,2,1,negative,negative,l,l,1,0.6306368000805378,345.27828430000227,346.28348870004993,346.2633716999553,None,345.27828430000227,None,345.27828430000227,None,345.27828430000227,None,346.893130200007,None,346.893130200007,None,346.893130200007,None,,,,,,,,,,,129,20,Female,2022-05-11_12h29.56.930,Boat,2022.1.1,59.932923050163176,
neutral,negative,2,k,k,,,,,,,,,5,10,100,16,,,,,,,,,,,,,,,,,,,,,,,,main,1,1,2,negative,neutral,k,k,1,0.6392551000462845,346.91174749995116,347.92683699994814,347.8846961000236,None,346.91174749995116,None,346.91174749995116,None,346.91174749995116,None,348.53552659999116,None,348.53552659999116,None,348.53552659999116,None,,,,,,,,,,,129,20,Female,2022-05-11_12h29.56.930,Boat,2022.1.1,59.932923050163176,
positive,neutral,1,l,j,,,,,,,,,5,11,101,8,,,,,,,,,,,,,,,,,,,,,,,,main,2,2,1,neutral,positive,j,j,1,0.6885517999762669,348.54966190003324,349.5522381999763,349.5522381999763,None,348.54966190003324,None,348.54966190003324,None,348.54966190003324,None,350.2242700000294,None,350.2242700000294,None,350.2242700000294,None,,,,,,,,,,,129,20,Female,2022-05-11_12h29.56.930,Boat,2022.1.1,59.932923050163176,
positive,neutral,2,l,j,,,,,,,,,5,12,102,17,,,,,,,,,,,,,,,,,,,,,,,,main,2,2,2,neutral,positive,j,j,1,0.6775158001109958,350.2420436999528,351.25561190000735,351.2205793999601,None,350.2420436999528,None,350.2420436999528,None,350.2420436999528,None,351.9050681999885,None,351.9050681999885,None,351.9050681999885,None,,,,,,,,,,,129,20,Female,2022-05-11_12h29.56.930,Boat,2022.1.1,59.932923050163176,
negative,negative,2,j,l,,,,,,,,,5,13,103,9,,,,,,,,,,,,,,,,,,,,,,,,main,1,1,2,negative,negative,l,l,1,0.6323769999435171,351.92113030003384,352.93667970004026,352.90237619995605,None,351.92113030003384,None,351.92113030003384,None,351.92113030003384,None,353.538066200004,None,353.538066200004,None,353.538066200004,None,,,,,,,,,,,129,20,Female,2022-05-11_12h29.56.930,Boat,2022.1.1,59.932923050163176,
positive,negative,1,l,j,,,,,,,,,5,14,104,5,,,,,,,,,,,,,,,,,,,,,,,,main,1,1,1,negative,positive,j,j,1,0.6521930999588221,353.5556389000267,354.5689094000263,354.5346100999741,None,353.5556389000267,None,353.5556389000267,None,353.5556389000267,None,355.1964763000375,None,355.1964763000375,None,355.1964763000375,None,,,,,,,,,,,129,20,Female,2022-05-11_12h29.56.930,Boat,2022.1.1,59.932923050163176,
neutral,positive,1,k,k,,,,,,,,,5,15,105,4,,,,,,,,,,,,,,,,,,,,,,,,main,1,1,1,positive,neutral,k,k,1,0.5321937999688089,355.21403300005477,356.21889120002743,356.20249639998656,None,355.21403300005477,None,355.21403300005477,None,355.21403300005477,None,356.7307966000168,None,356.7307966000168,None,356.7307966000168,None,,,,,,,,,,,129,20,Female,2022-05-11_12h29.56.930,Boat,2022.1.1,59.932923050163176,
positive,negative,2,l,j,,,,,,,,,5,16,106,14,,,,,,,,,,,,,,,,,,,,,,,,main,1,1,2,negative,positive,j,j,1,0.5985796999884769,356.7492052000016,357.7522848000517,357.71825799997896,None,356.7492052000016,None,356.7492052000016,None,356.7492052000016,None,358.33149499995636,None,358.33149499995636,None,358.33149499995636,None,,,,,,,,,,,129,20,Female,2022-05-11_12h29.56.930,Boat,2022.1.1,59.932923050163176,
neutral,positive,2,k,k,,,,,,,,,5,17,107,13,,,,,,,,,,,,,,,,,,,,,,,,main,2,2,2,positive,neutral,k,k,1,0.6971861999481916,358.35131890000775,359.3607524000108,359.33367660001386,None,358.35131890000775,None,358.35131890000775,None,358.35131890000775,None,360.03127079994886,None,360.03127079994886,None,360.03127079994886,None,,,,,,,,,,,129,20,Female,2022-05-11_12h29.56.930,Boat,2022.1.1,59.932923050163176,
neutral,neutral,2,k,k,,,,,,,,,6,0,108,10,,,,,,,,,,,,,,,,,,,,,,,,main,1,1,2,neutral,neutral,k,k,1,0.630688399891369,360.04660420003347,361.0496114999987,361.03076350002084,None,360.04660420003347,None,360.04660420003347,None,360.04660420003347,None,361.66469519995155,None,361.66469519995155,None,361.66469519995155,None,,,,,,,,,,,129,20,Female,2022-05-11_12h29.56.930,Boat,2022.1.1,59.932923050163176,
positive,neutral,2,l,j,,,,,,,,,6,1,109,17,,,,,,,,,,,,,,,,,,,,,,,,main,1,1,2,neutral,positive,j,j,1,0.5970560000278056,361.6813723000232,362.6857461000327,362.65208150004037,None,361.6813723000232,None,361.6813723000232,None,361.6813723000232,None,363.26471699997785,None,363.26471699997785,None,363.26471699997785,None,,,,,,,,,,,129,20,Female,2022-05-11_12h29.56.930,Boat,2022.1.1,59.932923050163176,
positive,positive,2,l,j,,,,,,,,,6,2,110,11,,,,,,,,,,,,,,,,,,,,,,,,main,2,2,2,positive,positive,j,j,1,0.702453300007619,363.281129400013,364.2877556999447,364.2522894999711,None,363.281129400013,None,363.281129400013,None,363.281129400013,None,364.96878789996265,None,364.96878789996265,None,364.96878789996265,None,,,,,,,,,,,129,20,Female,2022-05-11_12h29.56.930,Boat,2022.1.1,59.932923050163176,
positive,negative,2,l,j,,,,,,,,,6,3,111,14,,,,,,,,,,,,,,,,,,,,,,,,main,2,2,2,negative,positive,j,j,1,0.579082699958235,364.98422510002274,365.9862369999755,365.96929729997646,None,364.98422510002274,None,364.98422510002274,None,364.98422510002274,None,366.5514678999549,None,366.5514678999549,None,366.5514678999549,None,,,,,,,,,,,129,20,Female,2022-05-11_12h29.56.930,Boat,2022.1.1,59.932923050163176,
positive,positive,1,l,j,,,,,,,,,6,4,112,2,,,,,,,,,,,,,,,,,,,,,,,,main,2,2,1,positive,positive,j,j,1,0.5953287000302225,366.56819989997894,367.5809734000359,367.56112109997775,None,366.56819989997894,None,366.56819989997894,None,366.56819989997894,None,368.15159719998485,None,368.15159719998485,None,368.15159719998485,None,,,,,,,,,,,129,20,Female,2022-05-11_12h29.56.930,Boat,2022.1.1,59.932923050163176,
neutral,negative,1,k,k,,,,,,,,,6,5,113,7,,,,,,,,,,,,,,,,,,,,,,,,main,1,1,1,negative,neutral,k,k,1,0.5767375000286847,368.1681376999477,369.16919649997726,369.1525917999679,None,368.1681376999477,None,368.1681376999477,None,368.1681376999477,None,369.729959300044,None,369.729959300044,None,369.729959300044,None,,,,,,,,,,,129,20,Female,2022-05-11_12h29.56.930,Boat,2022.1.1,59.932923050163176,
neutral,negative,2,k,k,,,,,,,,,6,6,114,16,,,,,,,,,,,,,,,,,,,,,,,,main,1,1,2,negative,neutral,k,k,1,0.5596492000622675,369.75159080000594,370.7640731999418,370.7437405999517,None,369.75159080000594,None,369.75159080000594,None,369.75159080000594,None,371.2908519000281,None,371.2908519000281,None,371.2908519000281,None,,,,,,,,,,,129,20,Female,2022-05-11_12h29.56.930,Boat,2022.1.1,59.932923050163176,
negative,negative,2,j,l,,,,,,,,,6,7,115,9,,,,,,,,,,,,,,,,,,,,,,,,main,2,2,2,negative,negative,l,l,1,0.6993407000554726,371.3079175000312,372.3190097999759,372.28058749996126,None,371.3079175000312,None,371.3079175000312,None,371.3079175000312,None,372.9909011000069,None,372.9909011000069,None,372.9909011000069,None,,,,,,,,,,,129,20,Female,2022-05-11_12h29.56.930,Boat,2022.1.1,59.932923050163176,
negative,neutral,1,j,l,,,,,,,,,6,8,116,3,,,,,,,,,,,,,,,,,,,,,,,,main,2,2,1,neutral,negative,l,l,1,0.7376398999476805,373.01229999994393,374.01968739996664,374.0005272999406,None,373.01229999994393,None,373.01229999994393,None,373.01229999994393,None,374.7349671999924,None,374.7349671999924,None,374.7349671999924,None,,,,,,,,,,,129,20,Female,2022-05-11_12h29.56.930,Boat,2022.1.1,59.932923050163176,
neutral,neutral,1,k,k,,,,,,,,,6,9,117,1,,,,,,,,,,,,,,,,,,,,,,,,main,1,1,1,neutral,neutral,k,k,1,0.5402969000861049,374.75155950000044,375.76106689998414,375.7346702000359,None,374.75155950000044,None,374.75155950000044,None,374.75155950000044,None,376.2792841999559,None,376.2792841999559,None,376.2792841999559,None,,,,,,,,,,,129,20,Female,2022-05-11_12h29.56.930,Boat,2022.1.1,59.932923050163176,
positive,negative,1,l,j,,,,,,,,,6,10,118,5,,,,,,,,,,,,,,,,,,,,,,,,main,2,2,1,negative,positive,j,j,1,0.6994308000430465,376.29767849994823,377.3024848999921,377.2854091000045,None,376.29767849994823,None,376.29767849994823,None,376.29767849994823,None,377.9808992999839,None,377.9808992999839,None,377.9808992999839,None,,,,,,,,,,,129,20,Female,2022-05-11_12h29.56.930,Boat,2022.1.1,59.932923050163176,
positive,neutral,1,l,j,,,,,,,,,6,11,119,8,,,,,,,,,,,,,,,,,,,,,,,,main,1,1,1,neutral,positive,j,j,1,0.6214601999381557,377.9982127000112,379.01420680002775,378.9694540000055,None,377.9982127000112,None,377.9982127000112,None,377.9982127000112,None,379.6026178000262,None,379.6026178000262,None,379.6026178000262,None,,,,,,,,,,,129,20,Female,2022-05-11_12h29.56.930,Boat,2022.1.1,59.932923050163176,
neutral,positive,1,k,k,,,,,,,,,6,12,120,4,,,,,,,,,,,,,,,,,,,,,,,,main,2,2,1,positive,neutral,k,k,1,0.6861617000540718,379.6198196000187,380.633834999986,380.61421949998476,None,379.6198196000187,None,379.6198196000187,None,379.6198196000187,None,381.2914248999674,None,381.2914248999674,None,381.2914248999674,None,,,,,,,,,,,129,20,Female,2022-05-11_12h29.56.930,Boat,2022.1.1,59.932923050163176,
negative,negative,1,j,l,,,,,,,,,6,13,121,0,,,,,,,,,,,,,,,,,,,,,,,,main,1,1,1,negative,negative,l,l,1,0.7808279000455514,381.3068342000479,382.31903070001863,382.2807575999759,None,381.3068342000479,None,381.3068342000479,None,381.3068342000479,None,383.0749051999534,None,383.0749051999534,None,383.0749051999534,None,,,,,,,,,,,129,20,Female,2022-05-11_12h29.56.930,Boat,2022.1.1,59.932923050163176,
negative,positive,1,j,l,,,,,,,,,6,14,122,6,,,,,,,,,,,,,,,,,,,,,,,,main,2,2,1,positive,negative,l,l,1,0.6321766000473872,383.0955104000168,384.10267099994235,384.06912919995375,None,383.0955104000168,None,383.0955104000168,None,383.0955104000168,None,384.7084407999879,None,384.7084407999879,None,384.7084407999879,None,,,,,,,,,,,129,20,Female,2022-05-11_12h29.56.930,Boat,2022.1.1,59.932923050163176,
negative,neutral,2,j,l,,,,,,,,,6,15,123,12,,,,,,,,,,,,,,,,,,,,,,,,main,1,1,2,neutral,negative,l,l,1,0.6026152999838814,384.72561730002053,385.73586100002285,385.69994149997365,None,384.72561730002053,None,384.72561730002053,None,384.72561730002053,None,386.3158851999557,None,386.3158851999557,None,386.3158851999557,None,,,,,,,,,,,129,20,Female,2022-05-11_12h29.56.930,Boat,2022.1.1,59.932923050163176,
neutral,positive,2,k,k,,,,,,,,,6,16,124,13,,,,,,,,,,,,,,,,,,,,,,,,main,2,2,2,positive,neutral,k,k,1,0.5906656000297517,386.33202850003727,387.36100230005104,387.31413840001915,None,386.33202850003727,None,386.33202850003727,None,386.33202850003727,None,387.9090605000034,None,387.9090605000034,None,387.9090605000034,None,,,,,,,,,,,129,20,Female,2022-05-11_12h29.56.930,Boat,2022.1.1,59.932923050163176,
negative,positive,2,j,l,,,,,,,,,6,17,125,15,,,,,,,,,,,,,,,,,,,,,,,,main,2,2,2,positive,negative,l,l,1,1.0202164000365883,387.92421970004216,388.9309746000217,388.9309746000217,None,387.92421970004216,None,387.92421970004216,None,387.92421970004216,None,389.9315442999592,None,389.9315442999592,None,389.9315442999592,None,,,,,,,,,,,129,20,Female,2022-05-11_12h29.56.930,Boat,2022.1.1,59.932923050163176,
positive,positive,2,l,j,,,,,,,,,7,0,126,11,,,,,,,,,,,,,,,,,,,,,,,,main,2,2,2,positive,positive,j,j,1,0.6799951998982579,389.9470392999938,390.95343350002076,390.9197611999698,None,389.9470392999938,None,389.9470392999938,None,389.9470392999938,None,391.6130514999619,None,391.6130514999619,None,391.6130514999619,None,,,,,,,,,,,129,20,Female,2022-05-11_12h29.56.930,Boat,2022.1.1,59.932923050163176,
neutral,negative,1,k,k,,,,,,,,,7,1,127,7,,,,,,,,,,,,,,,,,,,,,,,,main,2,2,1,negative,neutral,k,k,1,0.5494880999904126,391.6290200999938,392.63600119994953,392.6166823999956,None,391.6290200999938,None,391.6290200999938,None,391.6290200999938,None,393.165176300006,None,393.165176300006,None,393.165176300006,None,,,,,,,,,,,129,20,Female,2022-05-11_12h29.56.930,Boat,2022.1.1,59.932923050163176,
positive,positive,1,l,j,,,,,,,,,7,2,128,2,,,,,,,,,,,,,,,,,,,,,,,,main,2,2,1,positive,positive,j,j,1,0.6343590000178665,393.18139990000054,394.1868841999676,394.15301270002965,None,393.18139990000054,None,393.18139990000054,None,393.18139990000054,None,394.8019641000079,None,394.8019641000079,None,394.8019641000079,None,,,,,,,,,,,129,20,Female,2022-05-11_12h29.56.930,Boat,2022.1.1,59.932923050163176,
neutral,neutral,1,k,k,,,,,,,,,7,3,129,1,,,,,,,,,,,,,,,,,,,,,,,,main,2,2,1,neutral,neutral,k,k,1,0.6264240000164136,394.8184889999684,395.83371719997376,395.81435849994887,None,394.8184889999684,None,394.8184889999684,None,394.8184889999684,None,396.4316524999682,None,396.4316524999682,None,396.4316524999682,None,,,,,,,,,,,129,20,Female,2022-05-11_12h29.56.930,Boat,2022.1.1,59.932923050163176,
positive,negative,1,l,j,,,,,,,,,7,4,130,5,,,,,,,,,,,,,,,,,,,,,,,,main,2,2,1,negative,positive,j,j,1,0.6857759000267833,396.4486293999944,397.461041499977,397.43479460000526,None,396.4486293999944,None,396.4486293999944,None,396.4486293999944,None,398.1190901999595,None,398.1190901999595,None,398.1190901999595,None,,,,,,,,,,,129,20,Female,2022-05-11_12h29.56.930,Boat,2022.1.1,59.932923050163176,
neutral,negative,2,k,k,,,,,,,,,7,5,131,16,,,,,,,,,,,,,,,,,,,,,,,,main,2,2,2,negative,neutral,k,k,1,0.5051856000209227,398.1351131000556,399.1365075999638,399.11981679999735,None,398.1351131000556,None,398.1351131000556,None,398.1351131000556,None,399.62866319997704,None,399.62866319997704,None,399.62866319997704,None,,,,,,,,,,,129,20,Female,2022-05-11_12h29.56.930,Boat,2022.1.1,59.932923050163176,
positive,neutral,2,l,j,,,,,,,,,7,6,132,17,,,,,,,,,,,,,,,,,,,,,,,,main,1,1,2,neutral,positive,j,j,1,0.6113578999647871,399.64779109996744,400.65339770005085,400.6365946000442,None,399.64779109996744,None,399.64779109996744,None,399.64779109996744,None,401.24023120002823,None,401.24023120002823,None,401.24023120002823,None,,,,,,,,,,,129,20,Female,2022-05-11_12h29.56.930,Boat,2022.1.1,59.932923050163176,
negative,positive,2,j,l,,,,,,,,,7,7,133,15,,,,,,,,,,,,,,,,,,,,,,,,main,2,2,2,positive,negative,l,l,1,0.7155934000620618,401.25604630005546,402.28152199997567,402.23692719999235,None,401.25604630005546,None,401.25604630005546,None,401.25604630005546,None,402.9587360000238,None,402.9587360000238,None,402.9587360000238,None,,,,,,,,,,,129,20,Female,2022-05-11_12h29.56.930,Boat,2022.1.1,59.932923050163176,
neutral,positive,1,k,k,,,,,,,,,7,8,134,4,,,,,,,,,,,,,,,,,,,,,,,,main,1,1,1,positive,neutral,k,k,1,0.5311723999911919,402.9735693000257,403.98164090001956,403.9610632000258,None,402.9735693000257,None,402.9735693000257,None,402.9735693000257,None,404.4937044000486,None,404.4937044000486,None,404.4937044000486,None,,,,,,,,,,,129,20,Female,2022-05-11_12h29.56.930,Boat,2022.1.1,59.932923050163176,
negative,negative,1,j,l,,,,,,,,,7,9,135,0,,,,,,,,,,,,,,,,,,,,,,,,main,2,2,1,negative,negative,l,l,1,0.756137500051409,404.5092073000269,405.51512290001847,405.51512290001847,None,404.5092073000269,None,404.5092073000269,None,404.5092073000269,None,406.25229350002485,None,406.25229350002485,None,406.25229350002485,None,,,,,,,,,,,129,20,Female,2022-05-11_12h29.56.930,Boat,2022.1.1,59.932923050163176,
positive,negative,2,l,j,,,,,,,,,7,10,136,14,,,,,,,,,,,,,,,,,,,,,,,,main,2,2,2,negative,positive,j,j,1,0.6216255999170244,406.2685994999483,407.2778195999563,407.2778195999563,None,406.2685994999483,None,406.2685994999483,None,406.2685994999483,None,407.8776923000347,None,407.8776923000347,None,407.8776923000347,None,,,,,,,,,,,129,20,Female,2022-05-11_12h29.56.930,Boat,2022.1.1,59.932923050163176,
neutral,neutral,2,k,k,,,,,,,,,7,11,137,10,,,,,,,,,,,,,,,,,,,,,,,,main,2,2,2,neutral,neutral,k,k,1,0.5162649999838322,407.89174150000326,408.9032774999505,408.88580189994536,None,407.89174150000326,None,407.89174150000326,None,407.89174150000326,None,409.39555719997736,None,409.39555719997736,None,409.39555719997736,None,,,,,,,,,,,129,20,Female,2022-05-11_12h29.56.930,Boat,2022.1.1,59.932923050163176,
negative,neutral,2,j,l,,,,,,,,,7,12,138,12,,,,,,,,,,,,,,,,,,,,,,,,main,2,2,2,neutral,negative,l,l,1,0.7132609999971464,409.41085630003363,410.4207124999957,410.40351279999595,None,409.41085630003363,None,409.41085630003363,None,409.41085630003363,None,411.10917540001685,None,411.10917540001685,None,411.10917540001685,None,,,,,,,,,,,129,20,Female,2022-05-11_12h29.56.930,Boat,2022.1.1,59.932923050163176,
negative,positive,1,j,l,,,,,,,,,7,13,139,6,,,,,,,,,,,,,,,,,,,,,,,,main,2,2,1,positive,negative,l,l,1,0.6319717000005767,411.1248711999506,412.13663449999876,412.0983787999721,None,411.1248711999506,None,411.1248711999506,None,411.1248711999506,None,412.74557880000214,None,412.74557880000214,None,412.74557880000214,None,,,,,,,,,,,129,20,Female,2022-05-11_12h29.56.930,Boat,2022.1.1,59.932923050163176,
negative,neutral,1,j,l,,,,,,,,,7,14,140,3,,,,,,,,,,,,,,,,,,,,,,,,main,1,1,1,neutral,negative,l,l,1,0.6019753000000492,412.7607962000184,413.7782605000539,413.7517925000284,None,412.7607962000184,None,412.7607962000184,None,412.7607962000184,None,414.34904879997487,None,414.34904879997487,None,414.34904879997487,None,,,,,,,,,,,129,20,Female,2022-05-11_12h29.56.930,Boat,2022.1.1,59.932923050163176,
neutral,positive,2,k,k,,,,,,,,,7,15,141,13,,,,,,,,,,,,,,,,,,,,,,,,main,2,2,2,positive,neutral,k,k,1,0.619644399965182,414.3655921999598,415.37048789998516,415.3538871000055,None,414.3655921999598,None,414.3655921999598,None,414.3655921999598,None,415.9705592999468,None,415.9705592999468,None,415.9705592999468,None,,,,,,,,,,,129,20,Female,2022-05-11_12h29.56.930,Boat,2022.1.1,59.932923050163176,
negative,negative,2,j,l,,,,,,,,,7,16,142,9,,,,,,,,,,,,,,,,,,,,,,,,main,2,2,2,negative,negative,l,l,1,0.6904663000022992,415.9866575000342,417.00105259998236,416.98204499995336,None,415.9866575000342,None,415.9866575000342,None,415.9866575000342,None,417.6632127999561,None,417.6632127999561,None,417.6632127999561,None,,,,,,,,,,,129,20,Female,2022-05-11_12h29.56.930,Boat,2022.1.1,59.932923050163176,
positive,neutral,1,l,j,,,,,,,,,7,17,143,8,,,,,,,,,,,,,,,,,,,,,,,,main,2,2,1,neutral,positive,j,j,1,0.6089999999385327,417.6850684999954,418.68742950004525,418.6535194000462,None,417.6850684999954,None,417.6850684999954,None,417.6850684999954,None,419.27460859997666,None,419.27460859997666,None,419.27460859997666,None,,,,,,,,,,,129,20,Female,2022-05-11_12h29.56.930,Boat,2022.1.1,59.932923050163176,
negative,positive,1,j,l,,,,,,,,,8,0,144,6,,,,,,,,,,,,,,,,,,,,,,,,main,2,2,1,positive,negative,l,j,0,0.5896031999727711,419.2896159000229,420.3035608000355,420.2688285999466,None,419.2896159000229,None,419.2896159000229,None,419.2896159000229,None,420.8718092000345,None,420.8718092000345,None,420.8718092000345,None,,,,,,,,,,,129,20,Female,2022-05-11_12h29.56.930,Boat,2022.1.1,59.932923050163176,
positive,negative,1,l,j,,,,,,,,,8,1,145,5,,,,,,,,,,,,,,,,,,,,,,,,main,1,1,1,negative,positive,j,j,1,0.6995778999989852,421.8899491999764,422.9116370000411,422.87061840004753,None,421.8899491999764,None,421.8899491999764,None,421.8899491999764,None,423.5742617000593,None,423.5742617000593,None,423.5742617000593,None,,,,,,,,,,,129,20,Female,2022-05-11_12h29.56.930,Boat,2022.1.1,59.932923050163176,
neutral,positive,2,k,k,,,,,,,,,8,2,146,13,,,,,,,,,,,,,,,,,,,,,,,,main,2,2,2,positive,neutral,k,k,1,0.6268676000181586,423.59210080001503,424.60228909994476,424.582392500015,None,423.59210080001503,None,423.59210080001503,None,423.59210080001503,None,425.20535670001993,None,425.20535670001993,None,425.20535670001993,None,,,,,,,,,,,129,20,Female,2022-05-11_12h29.56.930,Boat,2022.1.1,59.932923050163176,
positive,neutral,2,l,j,,,,,,,,,8,3,147,17,,,,,,,,,,,,,,,,,,,,,,,,main,2,2,2,neutral,positive,j,j,1,0.6732486999826506,425.22110269998666,426.22819619998336,426.20391010004096,None,425.22110269998666,None,425.22110269998666,None,425.22110269998666,None,426.8820777000161,None,426.8820777000161,None,426.8820777000161,None,,,,,,,,,,,129,20,Female,2022-05-11_12h29.56.930,Boat,2022.1.1,59.932923050163176,
neutral,positive,1,k,k,,,,,,,,,8,4,148,4,,,,,,,,,,,,,,,,,,,,,,,,main,1,1,1,positive,neutral,k,k,1,0.5316015999997035,426.8985619000159,427.90535000001546,427.87095310003497,None,426.8985619000159,None,426.8985619000159,None,426.8985619000159,None,428.4150711000199,None,428.4150711000199,None,428.4150711000199,None,,,,,,,,,,,129,20,Female,2022-05-11_12h29.56.930,Boat,2022.1.1,59.932923050163176,
negative,negative,1,j,l,,,,,,,,,8,5,149,0,,,,,,,,,,,,,,,,,,,,,,,,main,2,2,1,negative,negative,l,l,1,0.6411082999547943,428.4353232999565,429.43790300004184,429.4039663999574,None,428.4353232999565,None,428.4353232999565,None,428.4353232999565,None,430.0599317000248,None,430.0599317000248,None,430.0599317000248,None,,,,,,,,,,,129,20,Female,2022-05-11_12h29.56.930,Boat,2022.1.1,59.932923050163176,
neutral,negative,2,k,k,,,,,,,,,8,6,150,16,,,,,,,,,,,,,,,,,,,,,,,,main,2,2,2,negative,neutral,k,k,1,0.5813225000165403,430.07644179998897,431.08166380005423,431.08166380005423,None,430.07644179998897,None,430.07644179998897,None,430.07644179998897,None,431.64118269996254,None,431.64118269996254,None,431.64118269996254,None,,,,,,,,,,,129,20,Female,2022-05-11_12h29.56.930,Boat,2022.1.1,59.932923050163176,
negative,negative,2,j,l,,,,,,,,,8,7,151,9,,,,,,,,,,,,,,,,,,,,,,,,main,1,1,2,negative,negative,l,l,1,0.5963507000124082,431.65842370002065,432.67058979999274,432.6354975999566,None,431.65842370002065,None,431.65842370002065,None,431.65842370002065,None,433.2407116999617,None,433.2407116999617,None,433.2407116999617,None,,,,,,,,,,,129,20,Female,2022-05-11_12h29.56.930,Boat,2022.1.1,59.932923050163176,
negative,positive,2,j,l,,,,,,,,,8,8,152,15,,,,,,,,,,,,,,,,,,,,,,,,main,1,1,2,positive,negative,l,l,1,0.6305865999311209,433.2562410000246,434.2788415000541,434.2375795999542,None,433.2562410000246,None,433.2562410000246,None,433.2562410000246,None,434.87332619996744,None,434.87332619996744,None,434.87332619996744,None,,,,,,,,,,,129,20,Female,2022-05-11_12h29.56.930,Boat,2022.1.1,59.932923050163176,
neutral,neutral,1,k,k,,,,,,,,,8,9,153,1,,,,,,,,,,,,,,,,,,,,,,,,main,1,1,1,neutral,neutral,k,k,1,0.6982602999778464,434.88957520003896,435.904280000017,435.87051539996173,None,434.88957520003896,None,434.88957520003896,None,434.88957520003896,None,436.57699840005955,None,436.57699840005955,None,436.57699840005955,None,,,,,,,,,,,129,20,Female,2022-05-11_12h29.56.930,Boat,2022.1.1,59.932923050163176,
neutral,negative,1,k,k,,,,,,,,,8,10,154,7,,,,,,,,,,,,,,,,,,,,,,,,main,1,1,1,negative,neutral,k,k,1,0.5883849000092596,436.59203349996824,437.5986907000188,437.5986907000188,None,436.59203349996824,None,436.59203349996824,None,436.59203349996824,None,438.16756290001797,None,438.16756290001797,None,438.16756290001797,None,,,,,,,,,,,129,20,Female,2022-05-11_12h29.56.930,Boat,2022.1.1,59.932923050163176,
negative,neutral,1,j,l,,,,,,,,,8,11,155,3,,,,,,,,,,,,,,,,,,,,,,,,main,2,2,1,neutral,negative,l,l,1,0.645628499914892,438.1865341999801,439.20420499995816,439.16610579995904,None,438.1865341999801,None,438.1865341999801,None,438.1865341999801,None,439.81512309997345,None,439.81512309997345,None,439.81512309997345,None,,,,,,,,,,,129,20,Female,2022-05-11_12h29.56.930,Boat,2022.1.1,59.932923050163176,
positive,neutral,1,l,j,,,,,,,,,8,12,156,8,,,,,,,,,,,,,,,,,,,,,,,,main,2,2,1,neutral,positive,j,j,1,0.6813000999391079,439.8315506000072,440.83481879998,440.8155905000167,None,439.8315506000072,None,439.8315506000072,None,439.8315506000072,None,441.4995371999918,None,441.4995371999918,None,441.4995371999918,None,,,,,,,,,,,129,20,Female,2022-05-11_12h29.56.930,Boat,2022.1.1,59.932923050163176,
neutral,neutral,2,k,k,,,,,,,,,8,13,157,10,,,,,,,,,,,,,,,,,,,,,,,,main,2,2,2,neutral,neutral,k,k,1,0.5635831999825314,441.5142436999595,442.51794489996973,442.4987699999474,None,441.5142436999595,None,441.5142436999595,None,441.5142436999595,None,443.06558339998594,None,443.06558339998594,None,443.06558339998594,None,,,,,,,,,,,129,20,Female,2022-05-11_12h29.56.930,Boat,2022.1.1,59.932923050163176,
negative,neutral,2,j,l,,,,,,,,,8,14,158,12,,,,,,,,,,,,,,,,,,,,,,,,main,2,2,2,neutral,negative,l,l,1,0.6543877000221983,443.08013100002427,444.08833269996103,444.071535199997,None,443.08013100002427,None,443.08013100002427,None,443.08013100002427,None,444.7210049999645,None,444.7210049999645,None,444.7210049999645,None,,,,,,,,,,,129,20,Female,2022-05-11_12h29.56.930,Boat,2022.1.1,59.932923050163176,
positive,positive,1,l,j,,,,,,,,,8,15,159,2,,,,,,,,,,,,,,,,,,,,,,,,main,2,2,1,positive,positive,j,j,1,0.7018942000577226,444.7366659999825,445.75418789999094,445.7189768999815,None,444.7366659999825,None,444.7366659999825,None,444.7366659999825,None,446.4249482000247,None,446.4249482000247,None,446.4249482000247,None,,,,,,,,,,,129,20,Female,2022-05-11_12h29.56.930,Boat,2022.1.1,59.932923050163176,
positive,negative,2,l,j,,,,,,,,,8,16,160,14,,,,,,,,,,,,,,,,,,,,,,,,main,2,2,2,negative,positive,j,j,1,0.7786343999905512,446.4406518000178,447.4520206999732,447.43230670003686,None,446.4406518000178,None,446.4406518000178,None,446.4406518000178,None,448.2065042000264,None,448.2065042000264,None,448.2065042000264,None,,,,,,,,,,,129,20,Female,2022-05-11_12h29.56.930,Boat,2022.1.1,59.932923050163176,
positive,positive,2,l,j,,,,,,,,,8,17,161,11,,,,,,,,,,,,,,,,,,,,,,,,main,1,1,2,positive,positive,j,j,1,0.7153972999658436,448.2218192999717,449.2207962999819,449.2045707999496,None,448.2218192999717,None,448.2218192999717,None,448.2218192999717,None,449.9241618999746,None,449.9241618999746,None,449.9241618999746,None,,,,,,,,,,,129,20,Female,2022-05-11_12h29.56.930,Boat,2022.1.1,59.932923050163176,
negative,negative,1,j,l,,,,,,,,,9,0,162,0,,,,,,,,,,,,,,,,,,,,,,,,main,2,2,1,negative,negative,l,l,1,0.6663583000190556,449.9408168999944,450.96251670003403,450.92162549996283,None,449.9408168999944,None,449.9408168999944,None,449.9408168999944,None,451.5928423999809,None,451.5928423999809,None,451.5928423999809,None,,,,,,,,,,,129,20,Female,2022-05-11_12h29.56.930,Boat,2022.1.1,59.932923050163176,
negative,positive,2,j,l,,,,,,,,,9,1,163,15,,,,,,,,,,,,,,,,,,,,,,,,main,1,1,2,positive,negative,l,l,1,0.5961114999372512,451.6085786999902,452.6293517999584,452.5877990999725,None,451.6085786999902,None,451.6085786999902,None,451.6085786999902,None,453.1913695000345,None,453.1913695000345,None,453.1913695000345,None,,,,,,,,,,,129,20,Female,2022-05-11_12h29.56.930,Boat,2022.1.1,59.932923050163176,
neutral,neutral,1,k,k,,,,,,,,,9,2,164,1,,,,,,,,,,,,,,,,,,,,,,,,main,2,2,1,neutral,neutral,k,k,1,0.5835507999872789,453.20778940001037,454.2209275000496,454.1851581999799,None,453.20778940001037,None,453.20778940001037,None,453.20778940001037,None,454.7790051000426,None,454.7790051000426,None,454.7790051000426,None,,,,,,,,,,,129,20,Female,2022-05-11_12h29.56.930,Boat,2022.1.1,59.932923050163176,
neutral,positive,2,k,k,,,,,,,,,9,3,165,13,,,,,,,,,,,,,,,,,,,,,,,,main,2,2,2,positive,neutral,k,k,1,0.6291452000150457,454.79547150002327,455.8049483000068,455.77100169996265,None,454.79547150002327,None,454.79547150002327,None,454.79547150002327,None,456.4088487000205,None,456.4088487000205,None,456.4088487000205,None,,,,,,,,,,,129,20,Female,2022-05-11_12h29.56.930,Boat,2022.1.1,59.932923050163176,
positive,negative,2,l,j,,,,,,,,,9,4,166,14,,,,,,,,,,,,,,,,,,,,,,,,main,2,2,2,negative,positive,j,j,1,0.6505185000132769,456.42428619996645,457.4459109000163,457.42144950001966,None,456.42428619996645,None,456.42428619996645,None,456.42428619996645,None,458.06342249994634,None,458.06342249994634,None,458.06342249994634,None,,,,,,,,,,,129,20,Female,2022-05-11_12h29.56.930,Boat,2022.1.1,59.932923050163176,
positive,positive,2,l,j,,,,,,,,,9,5,167,11,,,,,,,,,,,,,,,,,,,,,,,,main,1,1,2,positive,positive,j,j,1,0.6325313999550417,458.078414699994,459.08802989998367,459.0710694999434,None,458.078414699994,None,458.078414699994,None,458.078414699994,None,459.6978662000271,None,459.6978662000271,None,459.6978662000271,None,,,,,,,,,,,129,20,Female,2022-05-11_12h29.56.930,Boat,2022.1.1,59.932923050163176,
neutral,negative,1,k,k,,,,,,,,,9,6,168,7,,,,,,,,,,,,,,,,,,,,,,,,main,1,1,1,negative,neutral,k,k,1,0.6284481000620872,459.71684020000976,460.7296298999572,460.6885140000377,None,459.71684020000976,None,459.71684020000976,None,459.71684020000976,None,461.32667210001966,None,461.32667210001966,None,461.32667210001966,None,,,,,,,,,,,129,20,Female,2022-05-11_12h29.56.930,Boat,2022.1.1,59.932923050163176,
positive,neutral,2,l,j,,,,,,,,,9,7,169,17,,,,,,,,,,,,,,,,,,,,,,,,main,2,2,2,neutral,positive,j,j,1,0.6854219000088051,461.34229739999864,462.3625116000185,462.32127349998336,None,461.34229739999864,None,461.34229739999864,None,461.34229739999864,None,463.01667449998206,None,463.01667449998206,None,463.01667449998206,None,,,,,,,,,,,129,20,Female,2022-05-11_12h29.56.930,Boat,2022.1.1,59.932923050163176,
neutral,positive,1,k,k,,,,,,,,,9,8,170,4,,,,,,,,,,,,,,,,,,,,,,,,main,2,2,1,positive,neutral,k,k,1,0.5922605000669137,463.03522289998364,464.0387942000525,464.0050172000192,None,463.03522289998364,None,463.03522289998364,None,463.03522289998364,None,464.6078477000352,None,464.6078477000352,None,464.6078477000352,None,,,,,,,,,,,129,20,Female,2022-05-11_12h29.56.930,Boat,2022.1.1,59.932923050163176,
neutral,negative,2,k,k,,,,,,,,,9,9,171,16,,,,,,,,,,,,,,,,,,,,,,,,main,2,2,2,negative,neutral,k,k,1,0.6341415999922901,464.62394349998794,465.6378410999896,465.5990625000559,None,464.62394349998794,None,464.62394349998794,None,464.62394349998794,None,466.24748449996116,None,466.24748449996116,None,466.24748449996116,None,,,,,,,,,,,129,20,Female,2022-05-11_12h29.56.930,Boat,2022.1.1,59.932923050163176,
negative,neutral,1,j,l,,,,,,,,,9,10,172,3,,,,,,,,,,,,,,,,,,,,,,,,main,2,2,1,neutral,negative,l,l,1,0.7530242999782786,466.26500729995314,467.27016009995714,467.2504016000312,None,466.26500729995314,None,466.26500729995314,None,466.26500729995314,None,468.0024030000437,None,468.0024030000437,None,468.0024030000437,None,,,,,,,,,,,129,20,Female,2022-05-11_12h29.56.930,Boat,2022.1.1,59.932923050163176,
negative,negative,2,j,l,,,,,,,,,9,11,173,9,,,,,,,,,,,,,,,,,,,,,,,,main,2,2,2,negative,negative,l,l,1,0.6382244999986142,468.0208470999496,469.02175309997983,469.00533269997686,None,468.0208470999496,None,468.0208470999496,None,468.0208470999496,None,469.6417208999861,None,469.6417208999861,None,469.6417208999861,None,,,,,,,,,,,129,20,Female,2022-05-11_12h29.56.930,Boat,2022.1.1,59.932923050163176,
positive,positive,1,l,j,,,,,,,,,9,12,174,2,,,,,,,,,,,,,,,,,,,,,,,,main,1,1,1,positive,positive,j,j,1,0.6875317000085488,469.6569819999859,470.6684572000522,470.64967670000624,None,469.6569819999859,None,469.6569819999859,None,469.6569819999859,None,471.33227429995316,None,471.33227429995316,None,471.33227429995316,None,,,,,,,,,,,129,20,Female,2022-05-11_12h29.56.930,Boat,2022.1.1,59.932923050163176,
negative,positive,1,j,l,,,,,,,,,9,13,175,6,,,,,,,,,,,,,,,,,,,,,,,,main,2,2,1,positive,negative,l,l,1,0.6629185999045148,471.3532723999815,472.36288839997724,472.32180909998715,None,471.3532723999815,None,471.3532723999815,None,471.3532723999815,None,472.998137900047,None,472.998137900047,None,472.998137900047,None,,,,,,,,,,,129,20,Female,2022-05-11_12h29.56.930,Boat,2022.1.1,59.932923050163176,
neutral,neutral,2,k,k,,,,,,,,,9,14,176,10,,,,,,,,,,,,,,,,,,,,,,,,main,2,2,2,neutral,neutral,k,k,1,0.6333312999922782,473.01424100005534,474.0229852000484,473.9884297000244,None,473.01424100005534,None,473.01424100005534,None,473.01424100005534,None,474.63403300000357,None,474.63403300000357,None,474.63403300000357,None,,,,,,,,,,,129,20,Female,2022-05-11_12h29.56.930,Boat,2022.1.1,59.932923050163176,
positive,neutral,1,l,j,,,,,,,,,9,15,177,8,,,,,,,,,,,,,,,,,,,,,,,,main,2,2,1,neutral,positive,j,j,1,0.6243406999856234,474.6498873999808,475.6572211999446,475.62214740004856,None,474.6498873999808,None,474.6498873999808,None,474.6498873999808,None,476.25869279997426,None,476.25869279997426,None,476.25869279997426,None,,,,,,,,,,,129,20,Female,2022-05-11_12h29.56.930,Boat,2022.1.1,59.932923050163176,
positive,negative,1,l,j,,,,,,,,,9,16,178,5,,,,,,,,,,,,,,,,,,,,,,,,main,2,2,1,negative,positive,j,j,1,0.6423874000320211,476.27486630005296,477.2883431999944,477.25205619994085,None,476.27486630005296,None,476.27486630005296,None,476.27486630005296,None,477.9050555000082,None,477.9050555000082,None,477.9050555000082,None,,,,,,,,,,,129,20,Female,2022-05-11_12h29.56.930,Boat,2022.1.1,59.932923050163176,
negative,neutral,2,j,l,,,,,,,,,9,17,179,12,,,,,,,,,,,,,,,,,,,,,,,,main,2,2,2,neutral,negative,l,j,0,0.5631858000997454,477.9210262000561,478.9387374999933,478.9195998000214,None,477.9210262000561,None,477.9210262000561,None,477.9210262000561,None,479.47466069995426,None,479.47466069995426,None,479.47466069995426,None,,,,,,,,,,,129,20,Female,2022-05-11_12h29.56.930,Boat,2022.1.1,59.932923050163176,
negative,neutral,1,j,l,,,,,,,,,10,0,180,3,,,,,,,,,,,,,,,,,,,,,,,,main,1,1,1,neutral,negative,l,l,1,0.7690404000459239,480.492166299955,481.5039273999864,481.4830895999912,None,480.492166299955,None,480.492166299955,None,480.492166299955,None,482.2471779999556,None,482.2471779999556,None,482.2471779999556,None,,,,,,,,,,,129,20,Female,2022-05-11_12h29.56.930,Boat,2022.1.1,59.932923050163176,
negative,positive,2,j,l,,,,,,,,,10,1,181,15,,,,,,,,,,,,,,,,,,,,,,,,main,2,2,2,positive,negative,l,l,1,0.7998554999940097,482.26318839995656,483.26971789996605,483.2490370000014,None,482.26318839995656,None,482.26318839995656,None,482.26318839995656,None,484.04912040000784,None,484.04912040000784,None,484.04912040000784,None,,,,,,,,,,,129,20,Female,2022-05-11_12h29.56.930,Boat,2022.1.1,59.932923050163176,
neutral,negative,2,k,k,,,,,,,,,10,2,182,16,,,,,,,,,,,,,,,,,,,,,,,,main,2,2,2,negative,neutral,k,k,1,0.691549799987115,484.067375499988,485.07170169998426,485.0551585999783,None,484.067375499988,None,484.067375499988,None,484.067375499988,None,485.74165899995717,None,485.74165899995717,None,485.74165899995717,None,,,,,,,,,,,129,20,Female,2022-05-11_12h29.56.930,Boat,2022.1.1,59.932923050163176,
positive,negative,2,l,j,,,,,,,,,10,3,183,14,,,,,,,,,,,,,,,,,,,,,,,,main,2,2,2,negative,positive,j,j,1,0.6374941000249237,485.75958069995977,486.7721774999518,486.73299789999146,None,485.75958069995977,None,485.75958069995977,None,485.75958069995977,None,487.3842476000078,None,487.3842476000078,None,487.3842476000078,None,,,,,,,,,,,129,20,Female,2022-05-11_12h29.56.930,Boat,2022.1.1,59.932923050163176,
positive,neutral,1,l,j,,,,,,,,,10,4,184,8,,,,,,,,,,,,,,,,,,,,,,,,main,2,2,1,neutral,positive,j,j,1,0.6591144000412896,487.3994623000035,488.40615699999034,488.3720934999874,None,487.3994623000035,None,487.3994623000035,None,487.3994623000035,None,489.04376389996617,None,489.04376389996617,None,489.04376389996617,None,,,,,,,,,,,129,20,Female,2022-05-11_12h29.56.930,Boat,2022.1.1,59.932923050163176,
positive,positive,1,l,j,,,,,,,,,10,5,185,2,,,,,,,,,,,,,,,,,,,,,,,,main,1,1,1,positive,positive,j,j,1,0.5567559000337496,489.0591549000237,490.07201510004234,490.03323659999296,None,489.0591549000237,None,489.0591549000237,None,489.0591549000237,None,490.60425630004613,None,490.60425630004613,None,490.60425630004613,None,,,,,,,,,,,129,20,Female,2022-05-11_12h29.56.930,Boat,2022.1.1,59.932923050163176,
neutral,neutral,2,k,k,,,,,,,,,10,6,186,10,,,,,,,,,,,,,,,,,,,,,,,,main,1,1,2,neutral,neutral,k,k,1,0.5800740999402478,490.62091279996093,491.63306440005545,491.6134267000016,None,490.62091279996093,None,490.62091279996093,None,490.62091279996093,None,492.1885846000165,None,492.1885846000165,None,492.1885846000165,None,,,,,,,,,,,129,20,Female,2022-05-11_12h29.56.930,Boat,2022.1.1,59.932923050163176,
positive,positive,2,l,j,,,,,,,,,10,7,187,11,,,,,,,,,,,,,,,,,,,,,,,,main,2,2,2,positive,positive,j,j,1,0.6523784999735653,492.2032615999924,493.22965490003116,493.18344819999766,None,492.2032615999924,None,492.2032615999924,None,492.2032615999924,None,493.842441099952,None,493.842441099952,None,493.842441099952,None,,,,,,,,,,,129,20,Female,2022-05-11_12h29.56.930,Boat,2022.1.1,59.932923050163176,
negative,neutral,2,j,l,,,,,,,,,10,8,188,12,,,,,,,,,,,,,,,,,,,,,,,,main,2,2,2,neutral,negative,l,l,1,0.7028861999278888,493.86083310004324,494.8723108000122,494.833073399961,None,493.86083310004324,None,493.86083310004324,None,493.86083310004324,None,495.5501411999809,None,495.5501411999809,None,495.5501411999809,None,,,,,,,,,,,129,20,Female,2022-05-11_12h29.56.930,Boat,2022.1.1,59.932923050163176,
negative,negative,2,j,l,,,,,,,,,10,9,189,9,,,,,,,,,,,,,,,,,,,,,,,,main,2,2,2,negative,negative,l,l,1,0.653767800075002,495.56813489994965,496.572320300038,496.55284240003675,None,495.56813489994965,None,495.56813489994965,None,495.56813489994965,None,497.2046920999652,None,497.2046920999652,None,497.2046920999652,None,,,,,,,,,,,129,20,Female,2022-05-11_12h29.56.930,Boat,2022.1.1,59.932923050163176,
negative,negative,1,j,l,,,,,,,,,10,10,190,0,,,,,,,,,,,,,,,,,,,,,,,,main,2,2,1,negative,negative,l,l,1,0.8365931999869645,497.22108619997744,498.230080600013,498.20535720000044,None,497.22108619997744,None,497.22108619997744,None,497.22108619997744,None,499.0442746000132,None,499.0442746000132,None,499.0442746000132,None,,,,,,,,,,,129,20,Female,2022-05-11_12h29.56.930,Boat,2022.1.1,59.932923050163176,
neutral,negative,1,k,k,,,,,,,,,10,11,191,7,,,,,,,,,,,,,,,,,,,,,,,,main,1,1,1,negative,neutral,k,k,1,0.5646258000051603,499.0599444999825,500.07268410001416,500.0388555000536,None,499.0599444999825,None,499.0599444999825,None,499.0599444999825,None,500.613061100035,None,500.613061100035,None,500.613061100035,None,,,,,,,,,,,129,20,Female,2022-05-11_12h29.56.930,Boat,2022.1.1,59.932923050163176,
negative,positive,1,j,l,,,,,,,,,10,12,192,6,,,,,,,,,,,,,,,,,,,,,,,,main,2,2,1,positive,negative,l,l,1,0.7784491000929847,500.6296559999464,501.6501463999739,501.63046180002857,None,500.6296559999464,None,500.6296559999464,None,500.6296559999464,None,502.39214719997256,None,502.39214719997256,None,502.39214719997256,None,,,,,,,,,,,129,20,Female,2022-05-11_12h29.56.930,Boat,2022.1.1,59.932923050163176,
neutral,positive,2,k,k,,,,,,,,,10,13,193,13,,,,,,,,,,,,,,,,,,,,,,,,main,2,2,2,positive,neutral,k,k,1,0.6253331999760121,502.40869740000926,503.42208940000273,503.38827540003695,None,502.40869740000926,None,502.40869740000926,None,502.40869740000926,None,504.0216736999806,None,504.0216736999806,None,504.0216736999806,None,,,,,,,,,,,129,20,Female,2022-05-11_12h29.56.930,Boat,2022.1.1,59.932923050163176,
neutral,neutral,1,k,k,,,,,,,,,10,14,194,1,,,,,,,,,,,,,,,,,,,,,,,,main,1,1,1,neutral,neutral,k,k,1,0.6194245000369847,504.0377547000535,505.0553763000062,505.0168803000124,None,504.0377547000535,None,504.0377547000535,None,504.0377547000535,None,505.6438727999572,None,505.6438727999572,None,505.6438727999572,None,,,,,,,,,,,129,20,Female,2022-05-11_12h29.56.930,Boat,2022.1.1,59.932923050163176,
positive,negative,1,l,j,,,,,,,,,10,15,195,5,,,,,,,,,,,,,,,,,,,,,,,,main,2,2,1,negative,positive,j,j,1,0.6552661000750959,505.65995330002625,506.672614900046,506.6361548999557,None,505.65995330002625,None,505.65995330002625,None,505.65995330002625,None,507.3028231000295,None,507.3028231000295,None,507.3028231000295,None,,,,,,,,,,,129,20,Female,2022-05-11_12h29.56.930,Boat,2022.1.1,59.932923050163176,
positive,neutral,2,l,j,,,,,,,,,10,16,196,17,,,,,,,,,,,,,,,,,,,,,,,,main,2,2,2,neutral,positive,j,j,1,0.6095692999660969,507.317305100034,508.33591479994357,508.31685659999494,None,507.317305100034,None,507.317305100034,None,507.317305100034,None,508.9138838000596,None,508.9138838000596,None,508.9138838000596,None,,,,,,,,,,,129,20,Female,2022-05-11_12h29.56.930,Boat,2022.1.1,59.932923050163176,
neutral,positive,1,k,k,,,,,,,,,10,17,197,4,,,,,,,,,,,,,,,,,,,,,,,,main,1,1,1,positive,neutral,k,k,1,0.5789830000139773,508.93047050002497,509.9392444000114,509.90568590001203,None,508.93047050002497,None,508.93047050002497,None,508.93047050002497,None,510.4955927999923,None,510.4955927999923,None,510.4955927999923,None,,,,,,,,,,,129,20,Female,2022-05-11_12h29.56.930,Boat,2022.1.1,59.932923050163176,
positive,neutral,2,l,j,,,,,,,,,11,0,198,17,,,,,,,,,,,,,,,,,,,,,,,,main,2,2,2,neutral,positive,j,j,1,0.6571485999738798,510.5114227000158,511.53336240001954,511.5134268000256,None,510.5114227000158,None,510.5114227000158,None,510.5114227000158,None,512.1549985000398,None,512.1549985000398,None,512.1549985000398,None,,,,,,,,,,,129,20,Female,2022-05-11_12h29.56.930,Boat,2022.1.1,59.932923050163176,
neutral,neutral,2,k,k,,,,,,,,,11,1,199,10,,,,,,,,,,,,,,,,,,,,,,,,main,2,2,2,neutral,neutral,k,k,1,0.5481696999631822,512.1717343999771,513.186383799999,513.1670641000383,None,512.1717343999771,None,512.1717343999771,None,512.1717343999771,None,513.7064664999722,None,513.7064664999722,None,513.7064664999722,None,,,,,,,,,,,129,20,Female,2022-05-11_12h29.56.930,Boat,2022.1.1,59.932923050163176,
positive,negative,1,l,j,,,,,,,,,11,2,200,5,,,,,,,,,,,,,,,,,,,,,,,,main,2,2,1,negative,positive,j,j,1,0.6684967000037432,513.7226898999652,514.7228787000058,514.7055794999469,None,513.7226898999652,None,513.7226898999652,None,513.7226898999652,None,515.3771589000477,None,515.3771589000477,None,515.3771589000477,None,,,,,,,,,,,129,20,Female,2022-05-11_12h29.56.930,Boat,2022.1.1,59.932923050163176,
negative,positive,2,j,l,,,,,,,,,11,3,201,15,,,,,,,,,,,,,,,,,,,,,,,,main,2,2,2,positive,negative,l,l,1,0.6495979999890551,515.393202999956,516.4140383000486,516.3724493000191,None,515.393202999956,None,515.393202999956,None,515.393202999956,None,517.0293607999571,None,517.0293607999571,None,517.0293607999571,None,,,,,,,,,,,129,20,Female,2022-05-11_12h29.56.930,Boat,2022.1.1,59.932923050163176,
negative,negative,1,j,l,,,,,,,,,11,4,202,0,,,,,,,,,,,,,,,,,,,,,,,,main,2,2,1,negative,negative,l,l,1,0.5905547000002116,517.0469281000551,518.0640895999968,518.0223610999528,None,517.0469281000551,None,517.0469281000551,None,517.0469281000551,None,518.6226498000557,None,518.6226498000557,None,518.6226498000557,None,,,,,,,,,,,129,20,Female,2022-05-11_12h29.56.930,Boat,2022.1.1,59.932923050163176,
negative,positive,1,j,l,,,,,,,,,11,5,203,6,,,,,,,,,,,,,,,,,,,,,,,,main,1,1,1,positive,negative,l,l,1,0.5872735000448301,518.6379757999675,519.6555307999952,519.6169718999881,None,518.6379757999675,None,518.6379757999675,None,518.6379757999675,None,520.211416000058,None,520.211416000058,None,520.211416000058,None,,,,,,,,,,,129,20,Female,2022-05-11_12h29.56.930,Boat,2022.1.1,59.932923050163176,
positive,positive,2,l,j,,,,,,,,,11,6,204,11,,,,,,,,,,,,,,,,,,,,,,,,main,1,1,2,positive,positive,j,j,1,0.6807053999509662,520.2290238999994,521.2403068999993,521.205045199953,None,520.2290238999994,None,520.2290238999994,None,520.2290238999994,None,521.8945494999876,None,521.8945494999876,None,521.8945494999876,None,,,,,,,,,,,129,20,Female,2022-05-11_12h29.56.930,Boat,2022.1.1,59.932923050163176,
neutral,neutral,1,k,k,,,,,,,,,11,7,205,1,,,,,,,,,,,,,,,,,,,,,,,,main,2,2,1,neutral,neutral,k,k,1,0.5120384000474587,521.9108607999515,522.9228717000224,522.8887305000098,None,521.9108607999515,None,521.9108607999515,None,521.9108607999515,None,523.4086969000288,None,523.4086969000288,None,523.4086969000288,None,,,,,,,,,,,129,20,Female,2022-05-11_12h29.56.930,Boat,2022.1.1,59.932923050163176,
neutral,positive,1,k,k,,,,,,,,,11,8,206,4,,,,,,,,,,,,,,,,,,,,,,,,main,1,1,1,positive,neutral,k,k,1,0.6545042999787256,523.423762200051,524.4473523000488,524.405793700018,None,523.423762200051,None,523.423762200051,None,523.423762200051,None,525.0674119000556,None,525.0674119000556,None,525.0674119000556,None,,,,,,,,,,,129,20,Female,2022-05-11_12h29.56.930,Boat,2022.1.1,59.932923050163176,
negative,negative,2,j,l,,,,,,,,,11,9,207,9,,,,,,,,,,,,,,,,,,,,,,,,main,2,2,2,negative,negative,l,l,1,0.6085340999998152,525.0833247000119,526.1017429999774,526.0810267999768,None,525.0833247000119,None,525.0833247000119,None,525.0833247000119,None,526.6786847999552,None,526.6786847999552,None,526.6786847999552,None,,,,,,,,,,,129,20,Female,2022-05-11_12h29.56.930,Boat,2022.1.1,59.932923050163176,
