target,distractor,set,ans1,ans2,rep_loop2.thisRepN,rep_loop2.thisTrialN,rep_loop2.thisN,rep_loop2.thisIndex,flanker_prac_loop.thisRepN,flanker_prac_loop.thisTrialN,flanker_prac_loop.thisN,flanker_prac_loop.thisIndex,flanker_main_loop.thisRepN,flanker_main_loop.thisTrialN,flanker_main_loop.thisN,flanker_main_loop.thisIndex,fl_inst_resp.keys,mouse.x,mouse.y,mouse.leftButton,mouse.midButton,mouse.rightButton,mouse.started,mouse.stopped,sound_1.started,sound_1.stopped,no_text.started,no_text.stopped,yes_text.started,yes_text.stopped,mouse_2.x,mouse_2.y,mouse_2.leftButton,mouse_2.midButton,mouse_2.rightButton,mouse_2.started,mouse_2.stopped,back_2.started,back_2.stopped,main_prac,fl_cold,fl_colt,fl_set,fl_dcond,fl_tcond,fl_ans,fl_res,fl_corr,fl_rt,fix_fl.started,fix_fl.stopped,targ.started,targ.stopped,j_button.started,j_button.stopped,k_button.started,k_button.stopped,l_button.started,l_button.stopped,j_button2.started,j_button2.stopped,k_button2.started,k_button2.stopped,l_button2.started,l_button2.stopped,mainback.started,mainback.stopped,key_resp.keys,mouse_6.x,mouse_6.y,mouse_6.leftButton,mouse_6.midButton,mouse_6.rightButton,mouse_6.started,mouse_6.stopped,id*,age*,gender*,date,expName,psychopyVersion,frameRate,
,,,,,0,0,0,0,,,,,,,,,None,-0.06666667,-0.30277777,0,0,0,1.0171195790171623,None,28.39965771001298,None,79.10281459998805,None,79.10281459998805,None,-0.097222224,-0.10092592,0,0,0,0.013367010047659278,None,,,,,,,,,,,,,,,,,,,,,,,,,,,,,,,,,,,,,,,130,27,Male,2022-05-11_13h59.53.626,Boat,2022.1.1,60.193099489994275,
negative,negative,1,j,l,,,,,0,0,0,0,,,,,,,,,,,,,,,,,,,,,,,,,,83.20271250000224,None,prac,1,1,1,negative,negative,j,j,1,6.87670669995714,85.2365941000171,86.24561260000337,86.22603180003352,None,85.2365941000171,None,85.2365941000171,None,85.2365941000171,None,93.10594040004071,None,93.10594040004071,None,93.10594040004071,None,,,,,,,,,,,130,27,Male,2022-05-11_13h59.53.626,Boat,2022.1.1,60.193099489994275,
negative,neutral,1,j,l,,,,,0,1,1,3,,,,,,,,,,,,,,,,,,,,,,,,,,,,prac,1,1,1,neutral,negative,j,j,1,1.270383800030686,94.13033329998143,95.13412120006979,95.11565080005676,None,94.13033329998143,None,94.13033329998143,None,94.13033329998143,None,96.38315511008258,None,96.38315511008258,None,96.38315511008258,None,,,,,,,,,,,130,27,Male,2022-05-11_13h59.53.626,Boat,2022.1.1,60.193099489994275,
positive,positive,2,l,j,,,,,0,2,2,11,,,,,,,,,,,,,,,,,,,,,,,,,,,,prac,1,1,2,positive,positive,l,l,1,0.8765133999986574,96.4025641999906,97.40611700003501,97.37252470001113,None,96.4025641999906,None,96.4025641999906,None,96.4025641999906,None,98.26091010998934,None,98.26091010998934,None,98.26091010998934,None,,,,,,,,,,,130,27,Male,2022-05-11_13h59.53.626,Boat,2022.1.1,60.193099489994275,
negative,positive,1,j,l,,,,,0,3,3,6,,,,,,,,,,,,,,,,,,,,,,,,,,,,prac,1,1,1,positive,negative,j,j,1,0.8644947001012042,98.2794908999931,99.2898554999847,99.25268630008213,None,98.2794908999931,None,98.2794908999931,None,98.2794908999931,None,100.12841870998963,None,100.12841870998963,None,100.12841870998963,None,,,,,,,,,,,130,27,Male,2022-05-11_13h59.53.626,Boat,2022.1.1,60.193099489994275,
neutral,positive,1,k,k,,,,,0,4,4,4,,,,,,,,,,,,,,,,,,,,,,,,,,,,prac,2,2,1,positive,neutral,k,k,1,0.7157301000552252,100.15708320005797,101.17289649997838,101.13839740003459,None,100.15708320005797,None,100.15708320005797,None,100.15708320005797,None,101.84588821001816,None,101.84588821001816,None,101.84588821001816,None,,,,,,,,,,,130,27,Male,2022-05-11_13h59.53.626,Boat,2022.1.1,60.193099489994275,
neutral,negative,1,k,k,,,,,0,5,5,7,,,,,,,,,,,,,,,,,,,,,,,,,,,,prac,2,2,1,negative,neutral,k,k,1,1.3630959000438452,101.87078750005458,102.8741822000593,102.85621380002704,None,101.87078750005458,None,101.87078750005458,None,101.87078750005458,None,104.21111881001852,None,104.21111881001852,None,104.21111881001852,None,,,,,,,,,,,130,27,Male,2022-05-11_13h59.53.626,Boat,2022.1.1,60.193099489994275,
positive,negative,2,l,j,,,,,0,6,6,14,,,,,,,,,,,,,,,,,,,,,,,,,,,,prac,1,1,2,negative,positive,l,k,0,-0.6956234999233857,104.23842619999778,None,None,None,104.23842619999778,None,104.23842619999778,None,104.23842619999778,None,104.53033810004126,None,104.53033810004126,None,104.53033810004126,None,,,,,,,,,,,130,27,Male,2022-05-11_13h59.53.626,Boat,2022.1.1,60.193099489994275,
neutral,positive,2,k,k,,,,,0,7,7,13,,,,,,,,,,,,,,,,,,,,,,,,,,,,prac,1,1,2,positive,neutral,k,k,1,1.1865259000333026,107.54850939998869,108.55608760006726,108.53855519997887,None,107.54850939998869,None,107.54850939998869,None,107.54850939998869,None,109.71163881001993,None,109.71163881001993,None,109.71163881001993,None,,,,,,,,,,,130,27,Male,2022-05-11_13h59.53.626,Boat,2022.1.1,60.193099489994275,
positive,neutral,1,l,j,,,,,0,8,8,8,,,,,,,,,,,,,,,,,,,,,,,,,,,,prac,1,1,1,neutral,positive,l,l,1,1.3954038999509066,109.7300341000082,110.74948990007397,110.70643780007958,None,109.7300341000082,None,109.7300341000082,None,109.7300341000082,None,112.11142761006485,None,112.11142761006485,None,112.11142761006485,None,,,,,,,,,,,130,27,Male,2022-05-11_13h59.53.626,Boat,2022.1.1,60.193099489994275,
positive,positive,1,l,j,,,,,0,9,9,2,,,,,,,,,,,,,,,,,,,,,,,,,,,,prac,1,1,1,positive,positive,l,l,1,1.5975765999173746,112.12645880004857,113.1395482000662,113.10479120002128,None,112.12645880004857,None,112.12645880004857,None,112.12645880004857,None,114.71485970006324,None,114.71485970006324,None,114.71485970006324,None,,,,,,,,,,,130,27,Male,2022-05-11_13h59.53.626,Boat,2022.1.1,60.193099489994275,
neutral,negative,2,k,k,,,,,0,10,10,16,,,,,,,,,,,,,,,,,,,,,,,,,,,,prac,2,2,2,negative,neutral,k,k,1,0.8138400999596342,115.73584089998621,116.75236799998675,116.7158559000818,None,115.73584089998621,None,115.73584089998621,None,115.73584089998621,None,117.52488991003483,None,117.52488991003483,None,117.52488991003483,None,,,,,,,,,,,130,27,Male,2022-05-11_13h59.53.626,Boat,2022.1.1,60.193099489994275,
negative,positive,2,j,l,,,,,0,11,11,15,,,,,,,,,,,,,,,,,,,,,,,,,,,,prac,2,2,2,positive,negative,j,j,1,0.8107391999801621,117.54487099999096,118.55538500007242,118.5185010000132,None,117.54487099999096,None,117.54487099999096,None,117.54487099999096,None,119.34007161008194,None,119.34007161008194,None,119.34007161008194,None,,,,,,,,,,,130,27,Male,2022-05-11_13h59.53.626,Boat,2022.1.1,60.193099489994275,
negative,neutral,2,j,l,,,,,0,12,12,12,,,,,,,,,,,,,,,,,,,,,,,,,,,,prac,2,2,2,neutral,negative,j,j,1,0.7372997000347823,119.36394710000604,120.37234850006644,120.35416520002764,None,119.36394710000604,None,119.36394710000604,None,119.36394710000604,None,121.07871640999801,None,121.07871640999801,None,121.07871640999801,None,,,,,,,,,,,130,27,Male,2022-05-11_13h59.53.626,Boat,2022.1.1,60.193099489994275,
negative,negative,2,j,l,,,,,0,13,13,9,,,,,,,,,,,,,,,,,,,,,,,,,,,,prac,2,2,2,negative,negative,j,j,1,0.6612245000433177,121.09504739998374,122.10505750006996,122.06971760001034,None,121.09504739998374,None,121.09504739998374,None,121.09504739998374,None,122.74153701008763,None,122.74153701008763,None,122.74153701008763,None,,,,,,,,,,,130,27,Male,2022-05-11_13h59.53.626,Boat,2022.1.1,60.193099489994275,
positive,neutral,2,l,j,,,,,0,14,14,17,,,,,,,,,,,,,,,,,,,,,,,,,,,,prac,1,1,2,neutral,positive,l,l,1,0.7328352000331506,122.7664871000452,123.77343870000914,123.75391460000537,None,122.7664871000452,None,122.7664871000452,None,122.7664871000452,None,124.47706511002033,None,124.47706511002033,None,124.47706511002033,None,,,,,,,,,,,130,27,Male,2022-05-11_13h59.53.626,Boat,2022.1.1,60.193099489994275,
positive,negative,1,l,j,,,,,0,15,15,5,,,,,,,,,,,,,,,,,,,,,,,,,,,,prac,2,2,1,negative,positive,l,l,1,0.7888952000066638,124.49228250002488,125.51652920001652,125.47366210003383,None,124.49228250002488,None,124.49228250002488,None,124.49228250002488,None,126.26848441003821,None,126.26848441003821,None,126.26848441003821,None,,,,,,,,,,,130,27,Male,2022-05-11_13h59.53.626,Boat,2022.1.1,60.193099489994275,
neutral,neutral,2,k,k,,,,,0,16,16,10,,,,,,,,,,,,,,,,,,,,,,,,,,,,prac,1,1,2,neutral,neutral,k,k,1,0.6093709000851959,126.28594860003795,127.29000959999394,127.25646350008901,None,126.28594860003795,None,126.28594860003795,None,126.28594860003795,None,127.87947410999331,None,127.87947410999331,None,127.87947410999331,None,,,,,,,,,,,130,27,Male,2022-05-11_13h59.53.626,Boat,2022.1.1,60.193099489994275,
neutral,neutral,1,k,k,,,,,0,17,17,1,,,,,,,,,,,,,,,,,,,,,,,,,,,,prac,1,1,1,neutral,neutral,k,k,1,0.529789200052619,127.89588100009132,128.90671050001401,128.87287140008993,None,127.89588100009132,None,127.89588100009132,None,127.89588100009132,None,129.41251240998972,None,129.41251240998972,None,129.41251240998972,None,,,,,,,,,,,130,27,Male,2022-05-11_13h59.53.626,Boat,2022.1.1,60.193099489994275,
negative,positive,2,j,l,,,,,1,0,18,15,,,,,,,,,,,,,,,,,,,,,,,,,,,,prac,1,1,2,positive,negative,j,j,1,0.5969231000635773,129.427617700072,130.4493812000146,130.40706070000306,None,129.427617700072,None,129.427617700072,None,129.427617700072,None,131.01110331006348,None,131.01110331006348,None,131.01110331006348,None,,,,,,,,,,,130,27,Male,2022-05-11_13h59.53.626,Boat,2022.1.1,60.193099489994275,
negative,negative,1,j,l,,,,,1,1,19,0,,,,,,,,,,,,,,,,,,,,,,,,,,,,prac,1,1,1,negative,negative,j,l,0,0.6808130000717938,131.02646359999198,132.05046180007048,132.00692750001326,None,131.02646359999198,None,131.02646359999198,None,131.02646359999198,None,132.70533310004976,None,132.70533310004976,None,132.70533310004976,None,,,,,,,,,,,130,27,Male,2022-05-11_13h59.53.626,Boat,2022.1.1,60.193099489994275,
neutral,negative,1,k,k,,,,,1,2,20,7,,,,,,,,,,,,,,,,,,,,,,,,,,,,prac,1,1,1,negative,neutral,k,k,1,0.8643704000860453,133.72538180008996,134.7404414000921,134.7052882000571,None,133.72538180008996,None,133.72538180008996,None,133.72538180008996,None,135.57602731001097,None,135.57602731001097,None,135.57602731001097,None,,,,,,,,,,,130,27,Male,2022-05-11_13h59.53.626,Boat,2022.1.1,60.193099489994275,
positive,neutral,2,l,j,,,,,1,3,21,17,,,,,,,,,,,,,,,,,,,,,,,,,,,,prac,1,1,2,neutral,positive,l,l,1,0.833952600019984,135.59147700003814,136.60737980005797,136.57277570001315,None,135.59147700003814,None,135.59147700003814,None,135.59147700003814,None,137.40884571000933,None,137.40884571000933,None,137.40884571000933,None,,,,,,,,,,,130,27,Male,2022-05-11_13h59.53.626,Boat,2022.1.1,60.193099489994275,
negative,positive,1,j,l,,,,,1,4,22,6,,,,,,,,,,,,,,,,,,,,,,,,,,,,prac,2,2,1,positive,negative,j,j,1,0.8813199999276549,137.43088240001816,138.44971399998758,138.40734919998795,None,137.43088240001816,None,137.43088240001816,None,137.43088240001816,None,139.2961239100201,None,139.2961239100201,None,139.2961239100201,None,,,,,,,,,,,130,27,Male,2022-05-11_13h59.53.626,Boat,2022.1.1,60.193099489994275,
neutral,positive,2,k,k,,,,,1,5,23,13,,,,,,,,,,,,,,,,,,,,,,,,,,,,prac,1,1,2,positive,neutral,k,k,1,0.6488290000706911,139.31270500004757,140.33530140004586,140.2902715000091,None,139.31270500004757,None,139.31270500004757,None,139.31270500004757,None,140.9485044100089,None,140.9485044100089,None,140.9485044100089,None,,,,,,,,,,,130,27,Male,2022-05-11_13h59.53.626,Boat,2022.1.1,60.193099489994275,
positive,negative,2,l,j,,,,,1,6,24,14,,,,,,,,,,,,,,,,,,,,,,,,,,,,prac,1,1,2,negative,positive,l,l,1,0.7169163998914883,140.96494560001884,141.97349290002603,141.94018979999237,None,140.96494560001884,None,140.96494560001884,None,140.96494560001884,None,142.6686849100748,None,142.6686849100748,None,142.6686849100748,None,,,,,,,,,,,130,27,Male,2022-05-11_13h59.53.626,Boat,2022.1.1,60.193099489994275,
negative,neutral,2,j,l,,,,,1,7,25,12,,,,,,,,,,,,,,,,,,,,,,,,,,,,prac,1,1,2,neutral,negative,j,j,1,0.7239628999959677,142.68626440002117,143.68752520007547,143.66946330002975,None,142.68626440002117,None,142.68626440002117,None,142.68626440002117,None,144.39326420999132,None,144.39326420999132,None,144.39326420999132,None,,,,,,,,,,,130,27,Male,2022-05-11_13h59.53.626,Boat,2022.1.1,60.193099489994275,
neutral,neutral,1,k,k,,,,,1,8,26,1,,,,,,,,,,,,,,,,,,,,,,,,,,,,prac,2,2,1,neutral,neutral,k,k,1,0.6935634999535978,144.41076130000874,145.42239389999304,145.38627150002867,None,144.41076130000874,None,144.41076130000874,None,144.41076130000874,None,146.0903723100433,None,146.0903723100433,None,146.0903723100433,None,,,,,,,,,,,130,27,Male,2022-05-11_13h59.53.626,Boat,2022.1.1,60.193099489994275,
neutral,negative,2,k,k,,,,,1,9,27,16,,,,,,,,,,,,,,,,,,,,,,,,,,,,prac,2,2,2,negative,neutral,k,k,1,0.6118738000513986,146.10698320006486,147.12257870007306,147.0866075999802,None,146.10698320006486,None,146.10698320006486,None,146.10698320006486,None,147.7078377100639,None,147.7078377100639,None,147.7078377100639,None,,,,,,,,,,,130,27,Male,2022-05-11_13h59.53.626,Boat,2022.1.1,60.193099489994275,
positive,positive,1,l,j,,,,,1,10,28,2,,,,,,,,,,,,,,,,,,,,,,,,,,,,prac,2,2,1,positive,positive,l,l,1,0.7214725000085309,147.72328280005604,148.74148500000592,148.72328670008574,None,147.72328280005604,None,147.72328280005604,None,147.72328280005604,None,149.43001291006803,None,149.43001291006803,None,149.43001291006803,None,,,,,,,,,,,130,27,Male,2022-05-11_13h59.53.626,Boat,2022.1.1,60.193099489994275,
neutral,positive,1,k,k,,,,,1,11,29,4,,,,,,,,,,,,,,,,,,,,,,,,,,,,prac,2,2,1,positive,neutral,k,k,1,0.6343453999143094,149.44490700005554,150.4566702999873,150.43804240005556,None,149.44490700005554,None,149.44490700005554,None,149.44490700005554,None,151.0680331100244,None,151.0680331100244,None,151.0680331100244,None,,,,,,,,,,,130,27,Male,2022-05-11_13h59.53.626,Boat,2022.1.1,60.193099489994275,
negative,neutral,1,j,l,,,,,1,12,30,3,,,,,,,,,,,,,,,,,,,,,,,,,,,,prac,2,2,1,neutral,negative,j,j,1,0.9449686999432743,151.08354890008923,152.09213550004642,152.0572062000865,None,151.08354890008923,None,151.08354890008923,None,151.08354890008923,None,153.01541970998514,None,153.01541970998514,None,153.01541970998514,None,,,,,,,,,,,130,27,Male,2022-05-11_13h59.53.626,Boat,2022.1.1,60.193099489994275,
positive,neutral,1,l,j,,,,,1,13,31,8,,,,,,,,,,,,,,,,,,,,,,,,,,,,prac,2,2,1,neutral,positive,l,l,1,0.8102852000156417,153.02993220009375,154.0374170000432,154.0197921000654,None,153.02993220009375,None,153.02993220009375,None,153.02993220009375,None,154.82499661007895,None,154.82499661007895,None,154.82499661007895,None,,,,,,,,,,,130,27,Male,2022-05-11_13h59.53.626,Boat,2022.1.1,60.193099489994275,
neutral,neutral,2,k,k,,,,,1,14,32,10,,,,,,,,,,,,,,,,,,,,,,,,,,,,prac,1,1,2,neutral,neutral,k,k,1,0.6138275000266731,154.84164490003604,155.85686910001095,155.81998969998676,None,154.84164490003604,None,154.84164490003604,None,154.84164490003604,None,156.4406282099895,None,156.4406282099895,None,156.4406282099895,None,,,,,,,,,,,130,27,Male,2022-05-11_13h59.53.626,Boat,2022.1.1,60.193099489994275,
negative,negative,2,j,l,,,,,1,15,33,9,,,,,,,,,,,,,,,,,,,,,,,,,,,,prac,1,1,2,negative,negative,j,j,1,0.8149527000496164,156.45748029998504,157.47424940008204,157.43707550002728,None,156.45748029998504,None,156.45748029998504,None,156.45748029998504,None,158.25945740998722,None,158.25945740998722,None,158.25945740998722,None,,,,,,,,,,,130,27,Male,2022-05-11_13h59.53.626,Boat,2022.1.1,60.193099489994275,
positive,negative,1,l,j,,,,,1,16,34,5,,,,,,,,,,,,,,,,,,,,,,,,,,,,prac,1,1,1,negative,positive,l,l,1,0.7961306000361219,158.27363040007185,159.3004175000824,159.2732079999987,None,158.27363040007185,None,158.27363040007185,None,158.27363040007185,None,160.05773031003773,None,160.05773031003773,None,160.05773031003773,None,,,,,,,,,,,130,27,Male,2022-05-11_13h59.53.626,Boat,2022.1.1,60.193099489994275,
positive,positive,2,l,j,,,,,1,17,35,11,,,,,,,,,,,,,,,,,,,,,,,,,,,,prac,1,1,2,positive,positive,l,l,1,0.8734678000910208,160.07401039998513,161.08807970001362,161.05204029998276,None,160.07401039998513,None,160.07401039998513,None,160.07401039998513,None,161.9347860100912,None,161.9347860100912,None,161.9347860100912,None,,,,,,,,,,,130,27,Male,2022-05-11_13h59.53.626,Boat,2022.1.1,60.193099489994275,
,,,,,,,,,,,,,,,,,,,,,,,,,,,,,,,,,,,,,,,,,,,,,,,,,,,,,,,,,,,,,,,,,,161.94562850007787,None,None,,,,,,,,130,27,Male,2022-05-11_13h59.53.626,Boat,2022.1.1,60.193099489994275,
,,,,,,,,,,,,,,,,,,,,,,,,,,,,,,,,,,,,,,,,,,,,,,,,,,,,,,,,,,,,,,,,,,,,,0.21111111,0.49907407,1,0,0,0.007895410060882568,None,130,27,Male,2022-05-11_13h59.53.626,Boat,2022.1.1,60.193099489994275,
neutral,positive,1,k,k,,,,,,,,,0,0,0,4,,,,,,,,,,,,,,,,,,,,,,167.33672050002497,None,main,1,1,1,positive,neutral,k,k,1,0.9965640999143943,169.3674483000068,170.37357380008325,170.3363040999975,None,169.3674483000068,None,169.3674483000068,None,169.3674483000068,None,171.35057860999368,None,171.35057860999368,None,171.35057860999368,None,,,,,,,,,,,130,27,Male,2022-05-11_13h59.53.626,Boat,2022.1.1,60.193099489994275,
neutral,negative,2,k,k,,,,,,,,,0,1,1,16,,,,,,,,,,,,,,,,,,,,,,,,main,1,1,2,negative,neutral,k,k,1,1.2050454000709578,171.3680387000786,172.3838751000585,172.34044240007643,None,171.3680387000786,None,171.3680387000786,None,171.3680387000786,None,173.55909221004694,None,173.55909221004694,None,173.55909221004694,None,,,,,,,,,,,130,27,Male,2022-05-11_13h59.53.626,Boat,2022.1.1,60.193099489994275,
positive,neutral,2,l,j,,,,,,,,,0,2,2,17,,,,,,,,,,,,,,,,,,,,,,,,main,1,1,2,neutral,positive,l,l,1,0.7339912999887019,173.5736374000553,174.57421310001519,174.55786350008566,None,173.5736374000553,None,173.5736374000553,None,173.5736374000553,None,175.29517991004977,None,175.29517991004977,None,175.29517991004977,None,,,,,,,,,,,130,27,Male,2022-05-11_13h59.53.626,Boat,2022.1.1,60.193099489994275,
negative,negative,1,j,l,,,,,,,,,0,3,3,0,,,,,,,,,,,,,,,,,,,,,,,,main,2,2,1,negative,negative,j,j,1,0.7812595000723377,175.31117080000695,176.33584970002994,176.290972399991,None,175.31117080000695,None,175.31117080000695,None,175.31117080000695,None,177.07907951008528,None,177.07907951008528,None,177.07907951008528,None,,,,,,,,,,,130,27,Male,2022-05-11_13h59.53.626,Boat,2022.1.1,60.193099489994275,
positive,negative,2,l,j,,,,,,,,,0,4,4,14,,,,,,,,,,,,,,,,,,,,,,,,main,2,2,2,negative,positive,l,l,1,0.7429153999546543,177.09307420009281,178.10809490003157,178.09112980007194,None,177.09307420009281,None,177.09307420009281,None,177.09307420009281,None,178.825101010059,None,178.825101010059,None,178.825101010059,None,,,,,,,,,,,130,27,Male,2022-05-11_13h59.53.626,Boat,2022.1.1,60.193099489994275,
negative,neutral,1,j,l,,,,,,,,,0,5,5,3,,,,,,,,,,,,,,,,,,,,,,,,main,1,1,1,neutral,negative,j,j,1,0.9351215999340639,178.84184300003108,179.84113160008565,179.82458140002564,None,178.84184300003108,None,178.84184300003108,None,178.84184300003108,None,180.76345551004633,None,180.76345551004633,None,180.76345551004633,None,,,,,,,,,,,130,27,Male,2022-05-11_13h59.53.626,Boat,2022.1.1,60.193099489994275,
positive,positive,2,l,j,,,,,,,,,0,6,6,11,,,,,,,,,,,,,,,,,,,,,,,,main,2,2,2,positive,positive,l,l,1,0.6650796999456361,180.78037070005666,181.8030339999823,181.75794130004942,None,180.78037070005666,None,180.78037070005666,None,180.78037070005666,None,182.43036261005327,None,182.43036261005327,None,182.43036261005327,None,,,,,,,,,,,130,27,Male,2022-05-11_13h59.53.626,Boat,2022.1.1,60.193099489994275,
positive,neutral,1,l,j,,,,,,,,,0,7,7,8,,,,,,,,,,,,,,,,,,,,,,,,main,2,2,1,neutral,positive,l,l,1,0.7799293000716716,182.44695580005646,183.45922259998042,183.42490350001026,None,182.44695580005646,None,182.44695580005646,None,182.44695580005646,None,184.21326231004204,None,184.21326231004204,None,184.21326231004204,None,,,,,,,,,,,130,27,Male,2022-05-11_13h59.53.626,Boat,2022.1.1,60.193099489994275,
neutral,neutral,2,k,k,,,,,,,,,0,8,8,10,,,,,,,,,,,,,,,,,,,,,,,,main,2,2,2,neutral,neutral,k,k,1,0.6466985000297427,184.2294605000643,185.23609300004318,185.21777320001274,None,184.2294605000643,None,184.2294605000643,None,184.2294605000643,None,185.86329051004722,None,185.86329051004722,None,185.86329051004722,None,,,,,,,,,,,130,27,Male,2022-05-11_13h59.53.626,Boat,2022.1.1,60.193099489994275,
negative,positive,2,j,l,,,,,,,,,0,9,9,15,,,,,,,,,,,,,,,,,,,,,,,,main,2,2,2,positive,negative,j,j,1,0.8604470998980105,185.87794809998013,186.88678579998668,186.8691184000345,None,185.87794809998013,None,185.87794809998013,None,185.87794809998013,None,187.72656361004337,None,187.72656361004337,None,187.72656361004337,None,,,,,,,,,,,130,27,Male,2022-05-11_13h59.53.626,Boat,2022.1.1,60.193099489994275,
negative,positive,1,j,l,,,,,,,,,0,10,10,6,,,,,,,,,,,,,,,,,,,,,,,,main,1,1,1,positive,negative,j,j,1,0.9312250999500975,187.7407560000429,188.75758750003297,188.73923120007385,None,187.7407560000429,None,187.7407560000429,None,187.7407560000429,None,189.66015181005932,None,189.66015181005932,None,189.66015181005932,None,,,,,,,,,,,130,27,Male,2022-05-11_13h59.53.626,Boat,2022.1.1,60.193099489994275,
positive,negative,1,l,j,,,,,,,,,0,11,11,5,,,,,,,,,,,,,,,,,,,,,,,,main,2,2,1,negative,positive,l,l,1,0.6982838000403717,189.67464740003925,190.69134710007347,190.67476130009163,None,189.67464740003925,None,189.67464740003925,None,189.67464740003925,None,191.36035771006718,None,191.36035771006718,None,191.36035771006718,None,,,,,,,,,,,130,27,Male,2022-05-11_13h59.53.626,Boat,2022.1.1,60.193099489994275,
negative,neutral,2,j,l,,,,,,,,,0,12,12,12,,,,,,,,,,,,,,,,,,,,,,,,main,1,1,2,neutral,negative,j,j,1,0.751314299996011,191.3748251000652,192.38422910007648,192.3583057000069,None,191.3748251000652,None,191.3748251000652,None,191.3748251000652,None,193.11399811008013,None,193.11399811008013,None,193.11399811008013,None,,,,,,,,,,,130,27,Male,2022-05-11_13h59.53.626,Boat,2022.1.1,60.193099489994275,
negative,negative,2,j,l,,,,,,,,,0,13,13,9,,,,,,,,,,,,,,,,,,,,,,,,main,1,1,2,negative,negative,j,j,1,0.6968948999419808,193.12999490008224,194.15151320002042,194.1084759000223,None,193.12999490008224,None,193.12999490008224,None,193.12999490008224,None,194.81378341002855,None,194.81378341002855,None,194.81378341002855,None,,,,,,,,,,,130,27,Male,2022-05-11_13h59.53.626,Boat,2022.1.1,60.193099489994275,
neutral,positive,2,k,k,,,,,,,,,0,14,14,13,,,,,,,,,,,,,,,,,,,,,,,,main,2,2,2,positive,neutral,k,k,1,0.6310927999438718,194.82811370003037,195.83975819998886,195.82136070006527,None,194.82811370003037,None,194.82811370003037,None,194.82811370003037,None,196.44646940999664,None,196.44646940999664,None,196.44646940999664,None,,,,,,,,,,,130,27,Male,2022-05-11_13h59.53.626,Boat,2022.1.1,60.193099489994275,
positive,positive,1,l,j,,,,,,,,,0,15,15,2,,,,,,,,,,,,,,,,,,,,,,,,main,1,1,1,positive,positive,l,l,1,0.7451033000834286,196.4623701000819,197.48603730008472,197.44147309998516,None,196.4623701000819,None,196.4623701000819,None,196.4623701000819,None,198.1948913100874,None,198.1948913100874,None,198.1948913100874,None,,,,,,,,,,,130,27,Male,2022-05-11_13h59.53.626,Boat,2022.1.1,60.193099489994275,
neutral,negative,1,k,k,,,,,,,,,0,16,16,7,,,,,,,,,,,,,,,,,,,,,,,,main,1,1,1,negative,neutral,k,k,1,0.7998723000055179,198.21288500004448,199.22248620004393,199.2041947999969,None,198.21288500004448,None,198.21288500004448,None,198.21288500004448,None,199.996628310089,None,199.996628310089,None,199.996628310089,None,,,,,,,,,,,130,27,Male,2022-05-11_13h59.53.626,Boat,2022.1.1,60.193099489994275,
neutral,neutral,1,k,k,,,,,,,,,0,17,17,1,,,,,,,,,,,,,,,,,,,,,,,,main,1,1,1,neutral,neutral,k,k,1,0.6044593000551686,200.01308980002068,201.01958650001325,201.00134439999238,None,200.01308980002068,None,200.01308980002068,None,200.01308980002068,None,201.60470211007632,None,201.60470211007632,None,201.60470211007632,None,,,,,,,,,,,130,27,Male,2022-05-11_13h59.53.626,Boat,2022.1.1,60.193099489994275,
neutral,neutral,2,k,k,,,,,,,,,1,0,18,10,,,,,,,,,,,,,,,,,,,,,,,,main,2,2,2,neutral,neutral,k,k,1,0.5554017999675125,201.62079529999755,202.63526330003515,202.59237950004172,None,201.62079529999755,None,201.62079529999755,None,201.62079529999755,None,203.16183930998668,None,203.16183930998668,None,203.16183930998668,None,,,,,,,,,,,130,27,Male,2022-05-11_13h59.53.626,Boat,2022.1.1,60.193099489994275,
positive,negative,2,l,j,,,,,,,,,1,1,19,14,,,,,,,,,,,,,,,,,,,,,,,,main,2,2,2,negative,positive,l,l,1,0.7651174999773502,203.17608560004737,204.18451749999076,204.18451749999076,None,203.17608560004737,None,203.17608560004737,None,203.17608560004737,None,204.9293938100105,None,204.9293938100105,None,204.9293938100105,None,,,,,,,,,,,130,27,Male,2022-05-11_13h59.53.626,Boat,2022.1.1,60.193099489994275,
neutral,negative,1,k,k,,,,,,,,,1,2,20,7,,,,,,,,,,,,,,,,,,,,,,,,main,2,2,1,negative,neutral,k,k,1,0.6170608999673277,204.94361479999498,205.95845460006967,205.94196660001762,None,204.94361479999498,None,204.94361479999498,None,204.94361479999498,None,206.54922151009086,None,206.54922151009086,None,206.54922151009086,None,,,,,,,,,,,130,27,Male,2022-05-11_13h59.53.626,Boat,2022.1.1,60.193099489994275,
negative,neutral,2,j,l,,,,,,,,,1,3,21,12,,,,,,,,,,,,,,,,,,,,,,,,main,2,2,2,neutral,negative,j,j,1,0.8985905000008643,206.56530480005313,207.57474300009198,207.5561831999803,None,206.56530480005313,None,206.56530480005313,None,206.56530480005313,None,208.44929730999283,None,208.44929730999283,None,208.44929730999283,None,,,,,,,,,,,130,27,Male,2022-05-11_13h59.53.626,Boat,2022.1.1,60.193099489994275,
negative,positive,1,j,l,,,,,,,,,1,4,22,6,,,,,,,,,,,,,,,,,,,,,,,,main,2,2,1,positive,negative,j,j,1,0.8957236000569537,208.46403640008066,209.47424550005235,209.4367906000698,None,208.46403640008066,None,208.46403640008066,None,208.46403640008066,None,210.34743521003983,None,210.34743521003983,None,210.34743521003983,None,,,,,,,,,,,130,27,Male,2022-05-11_13h59.53.626,Boat,2022.1.1,60.193099489994275,
negative,negative,1,j,l,,,,,,,,,1,5,23,0,,,,,,,,,,,,,,,,,,,,,,,,main,2,2,1,negative,negative,j,j,1,0.6631407000822946,210.3625822000904,211.38614820002113,211.3401291000191,None,210.3625822000904,None,210.3625822000904,None,210.3625822000904,None,212.01284351004287,None,212.01284351004287,None,212.01284351004287,None,,,,,,,,,,,130,27,Male,2022-05-11_13h59.53.626,Boat,2022.1.1,60.193099489994275,
neutral,positive,1,k,k,,,,,,,,,1,6,24,4,,,,,,,,,,,,,,,,,,,,,,,,main,1,1,1,positive,neutral,k,k,1,0.6292791999876499,212.02777799998876,213.05320130009204,213.00842119997833,None,212.02777799998876,None,212.02777799998876,None,212.02777799998876,None,213.64414381005335,None,213.64414381005335,None,213.64414381005335,None,,,,,,,,,,,130,27,Male,2022-05-11_13h59.53.626,Boat,2022.1.1,60.193099489994275,
neutral,positive,2,k,k,,,,,,,,,1,7,25,13,,,,,,,,,,,,,,,,,,,,,,,,main,1,1,2,positive,neutral,k,k,1,0.5873877999838442,213.6594554000767,214.66832980001345,214.64190070005134,None,213.6594554000767,None,213.6594554000767,None,213.6594554000767,None,215.23565121009014,None,215.23565121009014,None,215.23565121009014,None,,,,,,,,,,,130,27,Male,2022-05-11_13h59.53.626,Boat,2022.1.1,60.193099489994275,
negative,positive,2,j,l,,,,,,,,,1,8,26,15,,,,,,,,,,,,,,,,,,,,,,,,main,1,1,2,positive,negative,j,j,1,0.8289509000023827,215.2502220000606,216.25765570008662,216.23869690007996,None,215.2502220000606,None,215.2502220000606,None,215.2502220000606,None,217.06493811008986,None,217.06493811008986,None,217.06493811008986,None,,,,,,,,,,,130,27,Male,2022-05-11_13h59.53.626,Boat,2022.1.1,60.193099489994275,
negative,negative,2,j,l,,,,,,,,,1,9,27,9,,,,,,,,,,,,,,,,,,,,,,,,main,1,1,2,negative,negative,j,j,1,0.6483708000741899,217.08042440004647,218.09038830001373,218.0533641000511,None,217.08042440004647,None,217.08042440004647,None,217.08042440004647,None,218.71857670999597,None,218.71857670999597,None,218.71857670999597,None,,,,,,,,,,,130,27,Male,2022-05-11_13h59.53.626,Boat,2022.1.1,60.193099489994275,
neutral,negative,2,k,k,,,,,,,,,1,10,28,16,,,,,,,,,,,,,,,,,,,,,,,,main,1,1,2,negative,neutral,k,k,1,0.6611369999591261,218.73229439998977,219.74193690007087,219.72360360005405,None,218.73229439998977,None,218.73229439998977,None,218.73229439998977,None,220.37991971001028,None,220.37991971001028,None,220.37991971001028,None,,,,,,,,,,,130,27,Male,2022-05-11_13h59.53.626,Boat,2022.1.1,60.193099489994275,
positive,negative,1,l,j,,,,,,,,,1,11,29,5,,,,,,,,,,,,,,,,,,,,,,,,main,2,2,1,negative,positive,l,l,1,0.724978500045836,220.39476950000972,221.41105180000886,221.3823468000628,None,220.39476950000972,None,220.39476950000972,None,220.39476950000972,None,222.1136007199995,None,222.1136007199995,None,222.1136007199995,None,,,,,,,,,,,130,27,Male,2022-05-11_13h59.53.626,Boat,2022.1.1,60.193099489994275,
negative,neutral,1,j,l,,,,,,,,,1,12,30,3,,,,,,,,,,,,,,,,,,,,,,,,main,2,2,1,neutral,negative,j,j,1,0.8417878000764176,222.142651900067,223.16608720005024,223.13585479999892,None,222.142651900067,None,222.142651900067,None,222.142651900067,None,223.9638740200782,None,223.9638740200782,None,223.9638740200782,None,,,,,,,,,,,130,27,Male,2022-05-11_13h59.53.626,Boat,2022.1.1,60.193099489994275,
positive,positive,1,l,j,,,,,,,,,1,13,31,2,,,,,,,,,,,,,,,,,,,,,,,,main,1,1,1,positive,positive,l,j,0,0.6622966999420896,223.99588499998208,225.01584610005375,224.97811250004452,None,223.99588499998208,None,223.99588499998208,None,223.99588499998208,None,225.6319416000042,None,225.6319416000042,None,225.6319416000042,None,,,,,,,,,,,130,27,Male,2022-05-11_13h59.53.626,Boat,2022.1.1,60.193099489994275,
positive,positive,2,l,j,,,,,,,,,1,14,32,11,,,,,,,,,,,,,,,,,,,,,,,,main,2,2,2,positive,positive,l,l,1,0.8463767999783158,226.65533259999938,227.6630395000102,227.64359680004418,None,226.65533259999938,None,226.65533259999938,None,226.65533259999938,None,228.4760264100274,None,228.4760264100274,None,228.4760264100274,None,,,,,,,,,,,130,27,Male,2022-05-11_13h59.53.626,Boat,2022.1.1,60.193099489994275,
neutral,neutral,1,k,k,,,,,,,,,1,15,33,1,,,,,,,,,,,,,,,,,,,,,,,,main,2,2,1,neutral,neutral,k,k,1,0.5897685999516398,228.49576170009095,229.5113227000693,229.47577870008536,None,228.49576170009095,None,228.49576170009095,None,228.49576170009095,None,230.0711865100544,None,230.0711865100544,None,230.0711865100544,None,,,,,,,,,,,130,27,Male,2022-05-11_13h59.53.626,Boat,2022.1.1,60.193099489994275,
positive,neutral,2,l,j,,,,,,,,,1,16,34,17,,,,,,,,,,,,,,,,,,,,,,,,main,1,1,2,neutral,positive,l,l,1,0.857852999935858,230.09557850006968,231.11383040004876,231.06923850008752,None,230.09557850006968,None,230.09557850006968,None,230.09557850006968,None,231.93006021007895,None,231.93006021007895,None,231.93006021007895,None,,,,,,,,,,,130,27,Male,2022-05-11_13h59.53.626,Boat,2022.1.1,60.193099489994275,
positive,neutral,1,l,j,,,,,,,,,1,17,35,8,,,,,,,,,,,,,,,,,,,,,,,,main,1,1,1,neutral,positive,l,l,1,0.6618217999348417,231.94833590008784,232.96805140003562,232.9249280000804,None,231.94833590008784,None,231.94833590008784,None,231.94833590008784,None,233.5942739100661,None,233.5942739100661,None,233.5942739100661,None,,,,,,,,,,,130,27,Male,2022-05-11_13h59.53.626,Boat,2022.1.1,60.193099489994275,
positive,positive,2,l,j,,,,,,,,,2,0,36,11,,,,,,,,,,,,,,,,,,,,,,,,main,2,2,2,positive,positive,l,l,1,0.9311251000035554,233.61320300004445,234.6288028000854,234.59206870000344,None,233.61320300004445,None,233.61320300004445,None,233.61320300004445,None,235.52803621001075,None,235.52803621001075,None,235.52803621001075,None,,,,,,,,,,,130,27,Male,2022-05-11_13h59.53.626,Boat,2022.1.1,60.193099489994275,
neutral,neutral,1,k,k,,,,,,,,,2,1,37,1,,,,,,,,,,,,,,,,,,,,,,,,main,2,2,1,neutral,neutral,k,k,1,0.7514564000302926,235.54598950000945,236.55840860004537,236.52443740004674,None,235.54598950000945,None,235.54598950000945,None,235.54598950000945,None,237.28368221004493,None,237.28368221004493,None,237.28368221004493,None,,,,,,,,,,,130,27,Male,2022-05-11_13h59.53.626,Boat,2022.1.1,60.193099489994275,
positive,negative,1,l,j,,,,,,,,,2,2,38,5,,,,,,,,,,,,,,,,,,,,,,,,main,2,2,1,negative,positive,l,l,1,0.7806352999759838,237.3013789000688,238.30864529998507,238.27311330009252,None,237.3013789000688,None,237.3013789000688,None,237.3013789000688,None,239.06579660999122,None,239.06579660999122,None,239.06579660999122,None,,,,,,,,,,,130,27,Male,2022-05-11_13h59.53.626,Boat,2022.1.1,60.193099489994275,
negative,positive,1,j,l,,,,,,,,,2,3,39,6,,,,,,,,,,,,,,,,,,,,,,,,main,2,2,1,positive,negative,j,j,1,0.8112014000071213,239.08416610001586,240.1015721000731,240.0585314000491,None,239.08416610001586,None,239.08416610001586,None,239.08416610001586,None,240.87939580997917,None,240.87939580997917,None,240.87939580997917,None,,,,,,,,,,,130,27,Male,2022-05-11_13h59.53.626,Boat,2022.1.1,60.193099489994275,
negative,negative,2,j,l,,,,,,,,,2,4,40,9,,,,,,,,,,,,,,,,,,,,,,,,main,2,2,2,negative,negative,j,j,1,0.7212134000146762,240.89812330005225,241.91304200002924,241.8754981000675,None,240.89812330005225,None,240.89812330005225,None,240.89812330005225,None,242.60387621007393,None,242.60387621007393,None,242.60387621007393,None,,,,,,,,,,,130,27,Male,2022-05-11_13h59.53.626,Boat,2022.1.1,60.193099489994275,
negative,negative,1,j,l,,,,,,,,,2,5,41,0,,,,,,,,,,,,,,,,,,,,,,,,main,1,1,1,negative,negative,j,j,1,0.790223199990578,242.62892600009218,243.64193839998916,243.60574780008756,None,242.62892600009218,None,242.62892600009218,None,242.62892600009218,None,244.39915661003906,None,244.39915661003906,None,244.39915661003906,None,,,,,,,,,,,130,27,Male,2022-05-11_13h59.53.626,Boat,2022.1.1,60.193099489994275,
neutral,positive,2,k,k,,,,,,,,,2,6,42,13,,,,,,,,,,,,,,,,,,,,,,,,main,2,2,2,positive,neutral,k,k,1,0.6832702000392601,244.41859030001797,245.42683550005313,245.40684780001175,None,244.41859030001797,None,244.41859030001797,None,244.41859030001797,None,246.08666131007485,None,246.08666131007485,None,246.08666131007485,None,,,,,,,,,,,130,27,Male,2022-05-11_13h59.53.626,Boat,2022.1.1,60.193099489994275,
negative,neutral,2,j,l,,,,,,,,,2,7,43,12,,,,,,,,,,,,,,,,,,,,,,,,main,2,2,2,neutral,negative,j,j,1,0.7022191999712959,246.1053593000397,247.11359720001929,247.0943355000345,None,246.1053593000397,None,246.1053593000397,None,246.1053593000397,None,247.79157381006516,None,247.79157381006516,None,247.79157381006516,None,,,,,,,,,,,130,27,Male,2022-05-11_13h59.53.626,Boat,2022.1.1,60.193099489994275,
negative,positive,2,j,l,,,,,,,,,2,8,44,15,,,,,,,,,,,,,,,,,,,,,,,,main,2,2,2,positive,negative,j,j,1,1.1937966999830678,247.81009580008686,248.82725319999736,248.7924032000592,None,247.81009580008686,None,247.81009580008686,None,247.81009580008686,None,249.9863690100843,None,249.9863690100843,None,249.9863690100843,None,,,,,,,,,,,130,27,Male,2022-05-11_13h59.53.626,Boat,2022.1.1,60.193099489994275,
neutral,negative,2,k,k,,,,,,,,,2,9,45,16,,,,,,,,,,,,,,,,,,,,,,,,main,1,1,2,negative,neutral,k,k,1,0.7933320000302047,250.00898670009337,251.02547460002825,250.98698070005048,None,250.00898670009337,None,250.00898670009337,None,250.00898670009337,None,251.7850310100708,None,251.7850310100708,None,251.7850310100708,None,,,,,,,,,,,130,27,Male,2022-05-11_13h59.53.626,Boat,2022.1.1,60.193099489994275,
positive,negative,2,l,j,,,,,,,,,2,10,46,14,,,,,,,,,,,,,,,,,,,,,,,,main,1,1,2,negative,positive,l,l,1,0.7957353999372572,251.8063030000776,252.80873789999168,252.7920872999821,None,251.8063030000776,None,251.8063030000776,None,251.8063030000776,None,253.58245911009143,None,253.58245911009143,None,253.58245911009143,None,,,,,,,,,,,130,27,Male,2022-05-11_13h59.53.626,Boat,2022.1.1,60.193099489994275,
neutral,neutral,2,k,k,,,,,,,,,2,11,47,10,,,,,,,,,,,,,,,,,,,,,,,,main,2,2,2,neutral,neutral,k,k,1,0.7030294000869617,253.60224929999094,254.60921929997858,254.57543640001677,None,253.60224929999094,None,253.60224929999094,None,253.60224929999094,None,255.28878170999232,None,255.28878170999232,None,255.28878170999232,None,,,,,,,,,,,130,27,Male,2022-05-11_13h59.53.626,Boat,2022.1.1,60.193099489994275,
negative,neutral,1,j,l,,,,,,,,,2,12,48,3,,,,,,,,,,,,,,,,,,,,,,,,main,2,2,1,neutral,negative,j,j,1,0.8097738999640569,255.30755820008926,256.3255924000405,256.2896838000743,None,255.30755820008926,None,255.30755820008926,None,255.30755820008926,None,257.10182481005324,None,257.10182481005324,None,257.10182481005324,None,,,,,,,,,,,130,27,Male,2022-05-11_13h59.53.626,Boat,2022.1.1,60.193099489994275,
neutral,negative,1,k,k,,,,,,,,,2,13,49,7,,,,,,,,,,,,,,,,,,,,,,,,main,1,1,1,negative,neutral,k,k,1,0.6366676000179723,257.12162320001516,258.12516440008767,258.1064626000589,None,257.12162320001516,None,257.12162320001516,None,257.12162320001516,None,258.74110391004945,None,258.74110391004945,None,258.74110391004945,None,,,,,,,,,,,130,27,Male,2022-05-11_13h59.53.626,Boat,2022.1.1,60.193099489994275,
positive,neutral,1,l,j,,,,,,,,,2,14,50,8,,,,,,,,,,,,,,,,,,,,,,,,main,1,1,1,neutral,positive,l,l,1,0.8583282000618055,258.75907830009237,259.7742849000497,259.7370833000168,None,258.75907830009237,None,258.75907830009237,None,258.75907830009237,None,260.60288660998924,None,260.60288660998924,None,260.60288660998924,None,,,,,,,,,,,130,27,Male,2022-05-11_13h59.53.626,Boat,2022.1.1,60.193099489994275,
neutral,positive,1,k,k,,,,,,,,,2,15,51,4,,,,,,,,,,,,,,,,,,,,,,,,main,1,1,1,positive,neutral,k,k,1,0.6946923000505194,260.62167790008243,261.62435559998266,261.6056947000325,None,260.62167790008243,None,260.62167790008243,None,260.62167790008243,None,262.29915761007,None,262.29915761007,None,262.29915761007,None,,,,,,,,,,,130,27,Male,2022-05-11_13h59.53.626,Boat,2022.1.1,60.193099489994275,
positive,positive,1,l,j,,,,,,,,,2,16,52,2,,,,,,,,,,,,,,,,,,,,,,,,main,1,1,1,positive,positive,l,l,1,0.7353290999308228,262.3178217000095,263.3222899000393,263.3038681000471,None,262.3178217000095,None,262.3178217000095,None,262.3178217000095,None,264.0327670100611,None,264.0327670100611,None,264.0327670100611,None,,,,,,,,,,,130,27,Male,2022-05-11_13h59.53.626,Boat,2022.1.1,60.193099489994275,
positive,neutral,2,l,j,,,,,,,,,2,17,53,17,,,,,,,,,,,,,,,,,,,,,,,,main,1,1,2,neutral,positive,l,l,1,0.6771930999821052,264.05598230008036,265.0617153000785,265.04440410004463,None,264.05598230008036,None,264.05598230008036,None,264.05598230008036,None,265.71797121004204,None,265.71797121004204,None,265.71797121004204,None,,,,,,,,,,,130,27,Male,2022-05-11_13h59.53.626,Boat,2022.1.1,60.193099489994275,
neutral,positive,2,k,k,,,,,,,,,3,0,54,13,,,,,,,,,,,,,,,,,,,,,,,,main,1,1,2,positive,neutral,k,k,1,0.5992147999349982,265.73729640000965,266.74968940007966,266.7125323000364,None,265.73729640000965,None,265.73729640000965,None,265.73729640000965,None,267.3204407100799,None,267.3204407100799,None,267.3204407100799,None,,,,,,,,,,,130,27,Male,2022-05-11_13h59.53.626,Boat,2022.1.1,60.193099489994275,
negative,negative,2,j,l,,,,,,,,,3,1,55,9,,,,,,,,,,,,,,,,,,,,,,,,main,1,1,2,negative,negative,j,j,1,0.7891488999594003,267.34168650000356,268.3608118999982,268.32390580000356,None,267.34168650000356,None,267.34168650000356,None,267.34168650000356,None,269.11089750998656,None,269.11089750998656,None,269.11089750998656,None,,,,,,,,,,,130,27,Male,2022-05-11_13h59.53.626,Boat,2022.1.1,60.193099489994275,
negative,negative,1,j,l,,,,,,,,,3,2,56,0,,,,,,,,,,,,,,,,,,,,,,,,main,1,1,1,negative,negative,j,j,1,1.272190000046976,269.1303011000855,270.1544358000392,270.10673540004063,None,269.1303011000855,None,269.1303011000855,None,269.1303011000855,None,271.3870829100721,None,271.3870829100721,None,271.3870829100721,None,,,,,,,,,,,130,27,Male,2022-05-11_13h59.53.626,Boat,2022.1.1,60.193099489994275,
neutral,neutral,2,k,k,,,,,,,,,3,3,57,10,,,,,,,,,,,,,,,,,,,,,,,,main,1,1,2,neutral,neutral,k,k,1,0.5802065000170842,271.4075522000203,272.4091354000848,272.3923753000563,None,271.4075522000203,None,271.4075522000203,None,271.4075522000203,None,272.9701159100747,None,272.9701159100747,None,272.9701159100747,None,,,,,,,,,,,130,27,Male,2022-05-11_13h59.53.626,Boat,2022.1.1,60.193099489994275,
neutral,neutral,1,k,k,,,,,,,,,3,4,58,1,,,,,,,,,,,,,,,,,,,,,,,,main,2,2,1,neutral,neutral,k,k,1,0.6131050999974832,272.9900067000417,273.9992667000042,273.9807207999984,None,272.9900067000417,None,272.9900067000417,None,272.9900067000417,None,274.58590120999145,None,274.58590120999145,None,274.58590120999145,None,,,,,,,,,,,130,27,Male,2022-05-11_13h59.53.626,Boat,2022.1.1,60.193099489994275,
positive,positive,2,l,j,,,,,,,,,3,5,59,11,,,,,,,,,,,,,,,,,,,,,,,,main,1,1,2,positive,positive,l,l,1,0.6761161999311298,274.60673920006957,275.60959140001796,275.5927826000843,None,274.60673920006957,None,274.60673920006957,None,274.60673920006957,None,276.2638673100388,None,276.2638673100388,None,276.2638673100388,None,,,,,,,,,,,130,27,Male,2022-05-11_13h59.53.626,Boat,2022.1.1,60.193099489994275,
neutral,positive,1,k,k,,,,,,,,,3,6,60,4,,,,,,,,,,,,,,,,,,,,,,,,main,2,2,1,positive,neutral,k,k,1,0.6152316000079736,276.28447569999844,277.29385040001944,277.25730940001085,None,276.28447569999844,None,276.28447569999844,None,276.28447569999844,None,277.88166131000037,None,277.88166131000037,None,277.88166131000037,None,,,,,,,,,,,130,27,Male,2022-05-11_13h59.53.626,Boat,2022.1.1,60.193099489994275,
positive,neutral,2,l,j,,,,,,,,,3,7,61,17,,,,,,,,,,,,,,,,,,,,,,,,main,2,2,2,neutral,positive,l,l,1,0.8125274000922218,277.90106890001334,278.9062735000625,278.8876646000426,None,277.90106890001334,None,277.90106890001334,None,277.90106890001334,None,279.6970196099952,None,279.6970196099952,None,279.6970196099952,None,,,,,,,,,,,130,27,Male,2022-05-11_13h59.53.626,Boat,2022.1.1,60.193099489994275,
negative,neutral,1,j,l,,,,,,,,,3,8,62,3,,,,,,,,,,,,,,,,,,,,,,,,main,2,2,1,neutral,negative,j,j,1,0.7262323999311775,279.71563460002653,280.7357643999858,280.68953089998104,None,279.71563460002653,None,279.71563460002653,None,279.71563460002653,None,281.4274116100511,None,281.4274116100511,None,281.4274116100511,None,,,,,,,,,,,130,27,Male,2022-05-11_13h59.53.626,Boat,2022.1.1,60.193099489994275,
positive,positive,1,l,j,,,,,,,,,3,9,63,2,,,,,,,,,,,,,,,,,,,,,,,,main,2,2,1,positive,positive,l,l,1,0.712664799997583,281.44478670007084,282.4594796000747,282.42024570005015,None,281.44478670007084,None,281.44478670007084,None,281.44478670007084,None,283.1429481100291,None,283.1429481100291,None,283.1429481100291,None,,,,,,,,,,,130,27,Male,2022-05-11_13h59.53.626,Boat,2022.1.1,60.193099489994275,
negative,positive,2,j,l,,,,,,,,,3,10,64,15,,,,,,,,,,,,,,,,,,,,,,,,main,1,1,2,positive,negative,j,j,1,0.6980241999262944,283.1634679000126,284.17930780001916,284.1428580000065,None,283.1634679000126,None,283.1634679000126,None,283.1634679000126,None,284.84310160998723,None,284.84310160998723,None,284.84310160998723,None,,,,,,,,,,,130,27,Male,2022-05-11_13h59.53.626,Boat,2022.1.1,60.193099489994275,
neutral,negative,1,k,k,,,,,,,,,3,11,65,7,,,,,,,,,,,,,,,,,,,,,,,,main,2,2,1,negative,neutral,k,k,1,0.6560203999979421,284.86412689997815,285.880227799993,285.84432320005726,None,284.86412689997815,None,284.86412689997815,None,284.86412689997815,None,286.5044920100132,None,286.5044920100132,None,286.5044920100132,None,,,,,,,,,,,130,27,Male,2022-05-11_13h59.53.626,Boat,2022.1.1,60.193099489994275,
neutral,negative,2,k,k,,,,,,,,,3,12,66,16,,,,,,,,,,,,,,,,,,,,,,,,main,2,2,2,negative,neutral,k,k,1,0.5998934999806806,286.5255503000226,287.53576650004834,287.49915330007207,None,286.5255503000226,None,286.5255503000226,None,286.5255503000226,None,288.1068996100454,None,288.1068996100454,None,288.1068996100454,None,,,,,,,,,,,130,27,Male,2022-05-11_13h59.53.626,Boat,2022.1.1,60.193099489994275,
positive,negative,2,l,j,,,,,,,,,3,13,67,14,,,,,,,,,,,,,,,,,,,,,,,,main,1,1,2,negative,positive,l,l,1,0.6755644999211654,288.1272638000082,289.14566020003986,289.1072664000094,None,288.1272638000082,None,288.1272638000082,None,288.1272638000082,None,289.78696080998054,None,289.78696080998054,None,289.78696080998054,None,,,,,,,,,,,130,27,Male,2022-05-11_13h59.53.626,Boat,2022.1.1,60.193099489994275,
positive,neutral,1,l,j,,,,,,,,,3,14,68,8,,,,,,,,,,,,,,,,,,,,,,,,main,1,1,1,neutral,positive,l,l,1,0.7088421999942511,289.8080567000434,290.8097205000231,290.79046210006345,None,289.8080567000434,None,289.8080567000434,None,289.8080567000434,None,291.4979005099973,None,291.4979005099973,None,291.4979005099973,None,,,,,,,,,,,130,27,Male,2022-05-11_13h59.53.626,Boat,2022.1.1,60.193099489994275,
negative,neutral,2,j,l,,,,,,,,,3,15,69,12,,,,,,,,,,,,,,,,,,,,,,,,main,2,2,2,neutral,negative,j,j,1,0.6963189999805763,291.5179336000001,292.5336212000111,292.49775330000557,None,291.5179336000001,None,291.5179336000001,None,291.5179336000001,None,293.1965229100548,None,293.1965229100548,None,293.1965229100548,None,,,,,,,,,,,130,27,Male,2022-05-11_13h59.53.626,Boat,2022.1.1,60.193099489994275,
positive,negative,1,l,j,,,,,,,,,3,16,70,5,,,,,,,,,,,,,,,,,,,,,,,,main,2,2,1,negative,positive,l,l,1,0.9762780999299139,293.21548450004775,294.2264618000481,294.19268239999656,None,293.21548450004775,None,293.21548450004775,None,293.21548450004775,None,295.17632631005256,None,295.17632631005256,None,295.17632631005256,None,,,,,,,,,,,130,27,Male,2022-05-11_13h59.53.626,Boat,2022.1.1,60.193099489994275,
negative,positive,1,j,l,,,,,,,,,3,17,71,6,,,,,,,,,,,,,,,,,,,,,,,,main,2,2,1,positive,negative,j,j,1,0.7200418000575155,295.1973710000748,296.21223340008873,296.1745488999877,None,295.1973710000748,None,295.1973710000748,None,295.1973710000748,None,296.9004696100252,None,296.9004696100252,None,296.9004696100252,None,,,,,,,,,,,130,27,Male,2022-05-11_13h59.53.626,Boat,2022.1.1,60.193099489994275,
negative,positive,2,j,l,,,,,,,,,4,0,72,15,,,,,,,,,,,,,,,,,,,,,,,,main,1,1,2,positive,negative,j,j,1,0.7852200999623165,296.91924050007947,297.9318726999918,297.8947550000157,None,296.91924050007947,None,296.91924050007947,None,296.91924050007947,None,298.6896390100243,None,298.6896390100243,None,298.6896390100243,None,,,,,,,,,,,130,27,Male,2022-05-11_13h59.53.626,Boat,2022.1.1,60.193099489994275,
positive,positive,1,l,j,,,,,,,,,4,1,73,2,,,,,,,,,,,,,,,,,,,,,,,,main,1,1,1,positive,positive,l,l,1,0.7268201999831945,298.70838189998176,299.7266079999972,299.6904030999867,None,298.70838189998176,None,298.70838189998176,None,298.70838189998176,None,300.4190185100539,None,300.4190185100539,None,300.4190185100539,None,,,,,,,,,,,130,27,Male,2022-05-11_13h59.53.626,Boat,2022.1.1,60.193099489994275,
negative,neutral,2,j,l,,,,,,,,,4,2,74,12,,,,,,,,,,,,,,,,,,,,,,,,main,1,1,2,neutral,negative,j,j,1,0.7095759999938309,300.4390705000842,301.4404184999876,301.4216326000169,None,300.4390705000842,None,300.4390705000842,None,300.4390705000842,None,302.1291665099794,None,302.1291665099794,None,302.1291665099794,None,,,,,,,,,,,130,27,Male,2022-05-11_13h59.53.626,Boat,2022.1.1,60.193099489994275,
positive,negative,2,l,j,,,,,,,,,4,3,75,14,,,,,,,,,,,,,,,,,,,,,,,,main,1,1,2,negative,positive,l,l,1,0.6551208000164479,302.1509239000734,303.16051010007504,303.1266595000634,None,302.1509239000734,None,302.1509239000734,None,302.1509239000734,None,303.79026161008517,None,303.79026161008517,None,303.79026161008517,None,,,,,,,,,,,130,27,Male,2022-05-11_13h59.53.626,Boat,2022.1.1,60.193099489994275,
neutral,positive,2,k,k,,,,,,,,,4,4,76,13,,,,,,,,,,,,,,,,,,,,,,,,main,1,1,2,positive,neutral,k,k,1,0.6017562000779435,303.81208930001594,304.81418910005596,304.7959923000308,None,303.81208930001594,None,303.81208930001594,None,303.81208930001594,None,305.393954910012,None,305.393954910012,None,305.393954910012,None,,,,,,,,,,,130,27,Male,2022-05-11_13h59.53.626,Boat,2022.1.1,60.193099489994275,
neutral,positive,1,k,k,,,,,,,,,4,5,77,4,,,,,,,,,,,,,,,,,,,,,,,,main,2,2,1,positive,neutral,k,k,1,1.081324900034815,305.4125412000576,306.42713630001526,306.3911629000213,None,305.4125412000576,None,305.4125412000576,None,305.4125412000576,None,307.4767532100901,None,307.4767532100901,None,307.4767532100901,None,,,,,,,,,,,130,27,Male,2022-05-11_13h59.53.626,Boat,2022.1.1,60.193099489994275,
positive,negative,1,l,j,,,,,,,,,4,6,78,5,,,,,,,,,,,,,,,,,,,,,,,,main,1,1,1,negative,positive,l,l,1,0.7447418000083417,307.4964803000912,308.5065171000315,308.4881426000502,None,307.4964803000912,None,307.4964803000912,None,307.4964803000912,None,309.2262813099893,None,309.2262813099893,None,309.2262813099893,None,,,,,,,,,,,130,27,Male,2022-05-11_13h59.53.626,Boat,2022.1.1,60.193099489994275,
positive,neutral,2,l,j,,,,,,,,,4,7,79,17,,,,,,,,,,,,,,,,,,,,,,,,main,1,1,2,neutral,positive,l,l,1,0.8394279999192804,309.2454880999867,310.26339800003916,310.22544730000664,None,309.2454880999867,None,309.2454880999867,None,309.2454880999867,None,311.06964281005787,None,311.06964281005787,None,311.06964281005787,None,,,,,,,,,,,130,27,Male,2022-05-11_13h59.53.626,Boat,2022.1.1,60.193099489994275,
positive,positive,2,l,j,,,,,,,,,4,8,80,11,,,,,,,,,,,,,,,,,,,,,,,,main,2,2,2,positive,positive,l,l,1,0.7160017000278458,311.0896882000379,312.1072777999798,312.08874969999306,None,311.0896882000379,None,311.0896882000379,None,311.0896882000379,None,312.7891484099906,None,312.7891484099906,None,312.7891484099906,None,,,,,,,,,,,130,27,Male,2022-05-11_13h59.53.626,Boat,2022.1.1,60.193099489994275,
negative,negative,2,j,l,,,,,,,,,4,9,81,9,,,,,,,,,,,,,,,,,,,,,,,,main,2,2,2,negative,negative,j,j,1,0.6811928000533953,312.8079092000844,313.82314600003883,313.805027000024,None,312.8079092000844,None,312.8079092000844,None,312.8079092000844,None,314.473333710013,None,314.473333710013,None,314.473333710013,None,,,,,,,,,,,130,27,Male,2022-05-11_13h59.53.626,Boat,2022.1.1,60.193099489994275,
neutral,negative,2,k,k,,,,,,,,,4,10,82,16,,,,,,,,,,,,,,,,,,,,,,,,main,1,1,2,negative,neutral,k,k,1,0.7178787000011653,314.4917712000897,315.4934188000625,315.4758593000006,None,314.4917712000897,None,314.4917712000897,None,314.4917712000897,None,316.1938626100542,None,316.1938626100542,None,316.1938626100542,None,,,,,,,,,,,130,27,Male,2022-05-11_13h59.53.626,Boat,2022.1.1,60.193099489994275,
neutral,neutral,2,k,k,,,,,,,,,4,11,83,10,,,,,,,,,,,,,,,,,,,,,,,,main,1,1,2,neutral,neutral,k,k,1,0.6004443999845535,316.2123561000917,317.2289237000514,317.19045450002886,None,316.2123561000917,None,316.2123561000917,None,316.2123561000917,None,317.7956577100791,None,317.7956577100791,None,317.7956577100791,None,,,,,,,,,,,130,27,Male,2022-05-11_13h59.53.626,Boat,2022.1.1,60.193099489994275,
negative,positive,1,j,l,,,,,,,,,4,12,84,6,,,,,,,,,,,,,,,,,,,,,,,,main,2,2,1,positive,negative,j,j,1,0.7241032000165433,317.81576220004354,318.8265876000514,318.78884380008094,None,317.81576220004354,None,317.81576220004354,None,317.81576220004354,None,319.5241635100916,None,319.5241635100916,None,319.5241635100916,None,,,,,,,,,,,130,27,Male,2022-05-11_13h59.53.626,Boat,2022.1.1,60.193099489994275,
neutral,neutral,1,k,k,,,,,,,,,4,13,85,1,,,,,,,,,,,,,,,,,,,,,,,,main,1,1,1,neutral,neutral,k,k,1,0.6797130999621004,319.5429082000628,320.54366480000317,320.5269710000139,None,319.5429082000628,None,319.5429082000628,None,319.5429082000628,None,321.2071604100289,None,321.2071604100289,None,321.2071604100289,None,,,,,,,,,,,130,27,Male,2022-05-11_13h59.53.626,Boat,2022.1.1,60.193099489994275,
positive,neutral,1,l,j,,,,,,,,,4,14,86,8,,,,,,,,,,,,,,,,,,,,,,,,main,1,1,1,neutral,positive,l,l,1,0.6634983000112697,321.22708189999685,322.2428238000721,322.2054233000381,None,321.22708189999685,None,321.22708189999685,None,321.22708189999685,None,322.8734087100253,None,322.8734087100253,None,322.8734087100253,None,,,,,,,,,,,130,27,Male,2022-05-11_13h59.53.626,Boat,2022.1.1,60.193099489994275,
negative,neutral,1,j,l,,,,,,,,,4,15,87,3,,,,,,,,,,,,,,,,,,,,,,,,main,2,2,1,neutral,negative,j,j,1,0.6099699001060799,322.89470970002003,323.8940545000369,323.8770940999966,None,322.89470970002003,None,322.89470970002003,None,322.89470970002003,None,324.489000109979,None,324.489000109979,None,324.489000109979,None,,,,,,,,,,,130,27,Male,2022-05-11_13h59.53.626,Boat,2022.1.1,60.193099489994275,
neutral,negative,1,k,k,,,,,,,,,4,16,88,7,,,,,,,,,,,,,,,,,,,,,,,,main,2,2,1,negative,neutral,k,k,1,0.5689087000209838,324.5081620999845,325.510606200085,325.4920016999822,None,324.5081620999845,None,324.5081620999845,None,324.5081620999845,None,326.06072901005393,None,326.06072901005393,None,326.06072901005393,None,,,,,,,,,,,130,27,Male,2022-05-11_13h59.53.626,Boat,2022.1.1,60.193099489994275,
negative,negative,1,j,l,,,,,,,,,4,17,89,0,,,,,,,,,,,,,,,,,,,,,,,,main,2,2,1,negative,negative,j,l,0,0.6580042999703437,326.07932490005624,327.079564100015,327.06228409998585,None,326.07932490005624,None,326.07932490005624,None,326.07932490005624,None,327.7270137000596,None,327.7270137000596,None,327.7270137000596,None,,,,,,,,,,,130,27,Male,2022-05-11_13h59.53.626,Boat,2022.1.1,60.193099489994275,
neutral,positive,2,k,k,,,,,,,,,5,0,90,13,,,,,,,,,,,,,,,,,,,,,,,,main,2,2,2,positive,neutral,k,k,1,0.7738068000180647,328.74705060000997,329.7484865000006,329.7304307000013,None,328.74705060000997,None,328.74705060000997,None,328.74705060000997,None,330.5063702099957,None,330.5063702099957,None,330.5063702099957,None,,,,,,,,,,,130,27,Male,2022-05-11_13h59.53.626,Boat,2022.1.1,60.193099489994275,
negative,neutral,2,j,l,,,,,,,,,5,1,91,12,,,,,,,,,,,,,,,,,,,,,,,,main,2,2,2,neutral,negative,j,j,1,0.7471669999649748,330.52594439999666,331.52806370006874,331.51047310000286,None,330.52594439999666,None,330.52594439999666,None,330.52594439999666,None,332.2564457099885,None,332.2564457099885,None,332.2564457099885,None,,,,,,,,,,,130,27,Male,2022-05-11_13h59.53.626,Boat,2022.1.1,60.193099489994275,
negative,negative,1,j,l,,,,,,,,,5,2,92,0,,,,,,,,,,,,,,,,,,,,,,,,main,2,2,1,negative,negative,j,j,1,0.7654919000342488,332.2775983000174,333.2943185000913,333.25780880008824,None,332.2775983000174,None,332.2775983000174,None,332.2775983000174,None,334.02466231004803,None,334.02466231004803,None,334.02466231004803,None,,,,,,,,,,,130,27,Male,2022-05-11_13h59.53.626,Boat,2022.1.1,60.193099489994275,
positive,negative,1,l,j,,,,,,,,,5,3,93,5,,,,,,,,,,,,,,,,,,,,,,,,main,1,1,1,negative,positive,l,l,1,0.8818950999993831,334.04286410007626,335.0537093000021,335.026297400007,None,334.04286410007626,None,334.04286410007626,None,334.04286410007626,None,335.9087403100217,None,335.9087403100217,None,335.9087403100217,None,,,,,,,,,,,130,27,Male,2022-05-11_13h59.53.626,Boat,2022.1.1,60.193099489994275,
positive,positive,1,l,j,,,,,,,,,5,4,94,2,,,,,,,,,,,,,,,,,,,,,,,,main,1,1,1,positive,positive,l,l,1,0.7476763000013307,335.9288915999932,336.94431580009405,336.9070597999962,None,335.9288915999932,None,335.9288915999932,None,335.9288915999932,None,337.656895810063,None,337.656895810063,None,337.656895810063,None,,,,,,,,,,,130,27,Male,2022-05-11_13h59.53.626,Boat,2022.1.1,60.193099489994275,
positive,negative,2,l,j,,,,,,,,,5,5,95,14,,,,,,,,,,,,,,,,,,,,,,,,main,1,1,2,negative,positive,l,l,1,0.8432124999817461,337.68303499999456,338.70910039998125,338.66468819999136,None,337.68303499999456,None,337.68303499999456,None,337.68303499999456,None,339.50710921003486,None,339.50710921003486,None,339.50710921003486,None,,,,,,,,,,,130,27,Male,2022-05-11_13h59.53.626,Boat,2022.1.1,60.193099489994275,
positive,neutral,1,l,j,,,,,,,,,5,6,96,8,,,,,,,,,,,,,,,,,,,,,,,,main,1,1,1,neutral,positive,l,l,1,0.6864572999766096,339.5275298000779,340.5440730000846,340.5073628000682,None,339.5275298000779,None,339.5275298000779,None,339.5275298000779,None,341.1958422099939,None,341.1958422099939,None,341.1958422099939,None,,,,,,,,,,,130,27,Male,2022-05-11_13h59.53.626,Boat,2022.1.1,60.193099489994275,
positive,positive,2,l,j,,,,,,,,,5,7,97,11,,,,,,,,,,,,,,,,,,,,,,,,main,2,2,2,positive,positive,l,l,1,0.7587885999819264,341.2148381000152,342.2168297000462,342.1990302000195,None,341.2148381000152,None,341.2148381000152,None,341.2148381000152,None,342.9518930100836,None,342.9518930100836,None,342.9518930100836,None,,,,,,,,,,,130,27,Male,2022-05-11_13h59.53.626,Boat,2022.1.1,60.193099489994275,
negative,neutral,1,j,l,,,,,,,,,5,8,98,3,,,,,,,,,,,,,,,,,,,,,,,,main,1,1,1,neutral,negative,j,j,1,0.7663032000418752,342.97761280008126,343.97914499999024,343.961164599983,None,342.97761280008126,None,342.97761280008126,None,342.97761280008126,None,344.7275799099822,None,344.7275799099822,None,344.7275799099822,None,,,,,,,,,,,130,27,Male,2022-05-11_13h59.53.626,Boat,2022.1.1,60.193099489994275,
neutral,neutral,2,k,k,,,,,,,,,5,9,99,10,,,,,,,,,,,,,,,,,,,,,,,,main,1,1,2,neutral,neutral,k,k,1,0.7365898999851197,344.7477550000185,345.76075390004553,345.72584440000355,None,344.7477550000185,None,344.7477550000185,None,344.7477550000185,None,346.46540721007625,None,346.46540721007625,None,346.46540721007625,None,,,,,,,,,,,130,27,Male,2022-05-11_13h59.53.626,Boat,2022.1.1,60.193099489994275,
positive,neutral,2,l,j,,,,,,,,,5,10,100,17,,,,,,,,,,,,,,,,,,,,,,,,main,2,2,2,neutral,positive,l,l,1,0.7284486000426114,346.48612880008295,347.4929756000638,347.47370530001353,None,346.48612880008295,None,346.48612880008295,None,346.48612880008295,None,348.1975255100057,None,348.1975255100057,None,348.1975255100057,None,,,,,,,,,,,130,27,Male,2022-05-11_13h59.53.626,Boat,2022.1.1,60.193099489994275,
neutral,negative,2,k,k,,,,,,,,,5,11,101,16,,,,,,,,,,,,,,,,,,,,,,,,main,2,2,2,negative,neutral,k,k,1,0.5859661999857053,348.21681670006365,349.22770960000344,349.19213500001933,None,348.21681670006365,None,348.21681670006365,None,348.21681670006365,None,349.78784441007303,None,349.78784441007303,None,349.78784441007303,None,,,,,,,,,,,130,27,Male,2022-05-11_13h59.53.626,Boat,2022.1.1,60.193099489994275,
neutral,neutral,1,k,k,,,,,,,,,5,12,102,1,,,,,,,,,,,,,,,,,,,,,,,,main,1,1,1,neutral,neutral,k,k,1,0.6310748000396416,349.8079866000917,350.81135860003997,350.792746799998,None,349.8079866000917,None,349.8079866000917,None,349.8079866000917,None,351.42153701002246,None,351.42153701002246,None,351.42153701002246,None,,,,,,,,,,,130,27,Male,2022-05-11_13h59.53.626,Boat,2022.1.1,60.193099489994275,
negative,negative,2,j,l,,,,,,,,,5,13,103,9,,,,,,,,,,,,,,,,,,,,,,,,main,2,2,2,negative,negative,j,j,1,1.0269780999515206,351.44003589998465,352.44191890000366,352.42312609998044,None,351.44003589998465,None,351.44003589998465,None,351.44003589998465,None,353.44992320998574,None,353.44992320998574,None,353.44992320998574,None,,,,,,,,,,,130,27,Male,2022-05-11_13h59.53.626,Boat,2022.1.1,60.193099489994275,
neutral,negative,1,k,k,,,,,,,,,5,14,104,7,,,,,,,,,,,,,,,,,,,,,,,,main,2,2,1,negative,neutral,k,k,1,0.7089153000852093,353.4702561000595,354.4780199000379,354.4605921000475,None,353.4702561000595,None,353.4702561000595,None,353.4702561000595,None,355.1611196099781,None,355.1611196099781,None,355.1611196099781,None,,,,,,,,,,,130,27,Male,2022-05-11_13h59.53.626,Boat,2022.1.1,60.193099489994275,
negative,positive,2,j,l,,,,,,,,,5,15,105,15,,,,,,,,,,,,,,,,,,,,,,,,main,2,2,2,positive,negative,j,j,1,0.8878888000035658,355.1828067000024,356.204127300065,356.1580096000107,None,355.1828067000024,None,355.1828067000024,None,355.1828067000024,None,357.05487990998665,None,357.05487990998665,None,357.05487990998665,None,,,,,,,,,,,130,27,Male,2022-05-11_13h59.53.626,Boat,2022.1.1,60.193099489994275,
neutral,positive,1,k,k,,,,,,,,,5,16,106,4,,,,,,,,,,,,,,,,,,,,,,,,main,2,2,1,positive,neutral,k,k,1,0.5704429999459535,357.08378350001294,358.0952638000017,358.05883990006987,None,357.08378350001294,None,357.08378350001294,None,357.08378350001294,None,358.6276028100634,None,358.6276028100634,None,358.6276028100634,None,,,,,,,,,,,130,27,Male,2022-05-11_13h59.53.626,Boat,2022.1.1,60.193099489994275,
negative,positive,1,j,l,,,,,,,,,5,17,107,6,,,,,,,,,,,,,,,,,,,,,,,,main,2,2,1,positive,negative,j,j,1,0.7909347000531852,358.6466753000859,359.66407090006396,359.6279146000743,None,358.6466753000859,None,358.6466753000859,None,358.6466753000859,None,360.42233261002696,None,360.42233261002696,None,360.42233261002696,None,,,,,,,,,,,130,27,Male,2022-05-11_13h59.53.626,Boat,2022.1.1,60.193099489994275,
negative,positive,1,j,l,,,,,,,,,6,0,108,6,,,,,,,,,,,,,,,,,,,,,,,,main,1,1,1,positive,negative,j,j,1,1.0049566999077797,360.4428313000826,361.4445074000396,361.42693710001186,None,360.4428313000826,None,360.4428313000826,None,360.4428313000826,None,362.4279236099916,None,362.4279236099916,None,362.4279236099916,None,,,,,,,,,,,130,27,Male,2022-05-11_13h59.53.626,Boat,2022.1.1,60.193099489994275,
positive,positive,1,l,j,,,,,,,,,6,1,109,2,,,,,,,,,,,,,,,,,,,,,,,,main,1,1,1,positive,positive,l,l,1,0.8343005999922752,362.4496141000418,363.46119200007524,363.42479000007734,None,362.4496141000418,None,362.4496141000418,None,362.4496141000418,None,364.26682131006385,None,364.26682131006385,None,364.26682131006385,None,,,,,,,,,,,130,27,Male,2022-05-11_13h59.53.626,Boat,2022.1.1,60.193099489994275,
neutral,positive,2,k,k,,,,,,,,,6,2,110,13,,,,,,,,,,,,,,,,,,,,,,,,main,2,2,2,positive,neutral,k,k,1,0.6686982999090105,364.2868776000105,365.3002164000645,365.264654800063,None,364.2868776000105,None,364.2868776000105,None,364.2868776000105,None,365.93978911000306,None,365.93978911000306,None,365.93978911000306,None,,,,,,,,,,,130,27,Male,2022-05-11_13h59.53.626,Boat,2022.1.1,60.193099489994275,
neutral,positive,1,k,k,,,,,,,,,6,3,111,4,,,,,,,,,,,,,,,,,,,,,,,,main,2,2,1,positive,neutral,k,k,1,0.7632872000103816,365.9586893999949,366.97337750007864,366.95450550003443,None,365.9586893999949,None,365.9586893999949,None,365.9586893999949,None,367.7059208100196,None,367.7059208100196,None,367.7059208100196,None,,,,,,,,,,,130,27,Male,2022-05-11_13h59.53.626,Boat,2022.1.1,60.193099489994275,
negative,positive,2,j,l,,,,,,,,,6,4,112,15,,,,,,,,,,,,,,,,,,,,,,,,main,2,2,2,positive,negative,j,j,1,0.8553725999081507,367.72671529999934,368.7397273000097,368.72110970003996,None,367.72671529999934,None,367.72671529999934,None,367.72671529999934,None,369.5627556100022,None,369.5627556100022,None,369.5627556100022,None,,,,,,,,,,,130,27,Male,2022-05-11_13h59.53.626,Boat,2022.1.1,60.193099489994275,
neutral,negative,1,k,k,,,,,,,,,6,5,113,7,,,,,,,,,,,,,,,,,,,,,,,,main,1,1,1,negative,neutral,k,k,1,0.7373462999239564,369.581688700011,370.5950093000429,370.56090789998416,None,369.581688700011,None,369.581688700011,None,369.581688700011,None,371.3041005099891,None,371.3041005099891,None,371.3041005099891,None,,,,,,,,,,,130,27,Male,2022-05-11_13h59.53.626,Boat,2022.1.1,60.193099489994275,
negative,neutral,1,j,l,,,,,,,,,6,6,114,3,,,,,,,,,,,,,,,,,,,,,,,,main,2,2,1,neutral,negative,j,j,1,0.9068026000168175,371.32249350007623,372.3283240000019,372.3092147000134,None,371.32249350007623,None,371.32249350007623,None,371.32249350007623,None,373.2122521100333,None,373.2122521100333,None,373.2122521100333,None,,,,,,,,,,,130,27,Male,2022-05-11_13h59.53.626,Boat,2022.1.1,60.193099489994275,
neutral,neutral,2,k,k,,,,,,,,,6,7,115,10,,,,,,,,,,,,,,,,,,,,,,,,main,2,2,2,neutral,neutral,k,k,1,0.7036609000060707,373.23468800005503,374.2466624000808,374.21192110003904,None,373.23468800005503,None,373.23468800005503,None,373.23468800005503,None,374.9202575100586,None,374.9202575100586,None,374.9202575100586,None,,,,,,,,,,,130,27,Male,2022-05-11_13h59.53.626,Boat,2022.1.1,60.193099489994275,
positive,positive,2,l,j,,,,,,,,,6,8,116,11,,,,,,,,,,,,,,,,,,,,,,,,main,1,1,2,positive,positive,l,l,1,0.7611467998940498,374.93892490002327,375.95871540007647,375.9197367000161,None,374.93892490002327,None,374.93892490002327,None,374.93892490002327,None,376.6812552099815,None,376.6812552099815,None,376.6812552099815,None,,,,,,,,,,,130,27,Male,2022-05-11_13h59.53.626,Boat,2022.1.1,60.193099489994275,
negative,neutral,2,j,l,,,,,,,,,6,9,117,12,,,,,,,,,,,,,,,,,,,,,,,,main,1,1,2,neutral,negative,j,j,1,0.7113119999412447,376.70134919998236,377.71535200008657,377.678587900009,None,376.70134919998236,None,376.70134919998236,None,376.70134919998236,None,378.3973739100853,None,378.3973739100853,None,378.3973739100853,None,,,,,,,,,,,130,27,Male,2022-05-11_13h59.53.626,Boat,2022.1.1,60.193099489994275,
negative,negative,1,j,l,,,,,,,,,6,10,118,0,,,,,,,,,,,,,,,,,,,,,,,,main,1,1,1,negative,negative,j,j,1,0.7167497999034822,378.4154584000353,379.42867420008406,379.39094310009386,None,378.4154584000353,None,378.4154584000353,None,378.4154584000353,None,380.116632910003,None,380.116632910003,None,380.116632910003,None,,,,,,,,,,,130,27,Male,2022-05-11_13h59.53.626,Boat,2022.1.1,60.193099489994275,
positive,negative,2,l,j,,,,,,,,,6,11,119,14,,,,,,,,,,,,,,,,,,,,,,,,main,2,2,2,negative,positive,l,l,1,0.8233110000146553,380.1350365000544,381.1523301000707,381.11169930000324,None,380.1350365000544,None,380.1350365000544,None,380.1350365000544,None,381.94340411005544,None,381.94340411005544,None,381.94340411005544,None,,,,,,,,,,,130,27,Male,2022-05-11_13h59.53.626,Boat,2022.1.1,60.193099489994275,
positive,neutral,1,l,j,,,,,,,,,6,12,120,8,,,,,,,,,,,,,,,,,,,,,,,,main,2,2,1,neutral,positive,l,l,1,0.8396556000225246,381.9657403000165,382.98206860001665,382.9450020000804,None,381.9657403000165,None,381.9657403000165,None,381.9657403000165,None,383.78680071004203,None,383.78680071004203,None,383.78680071004203,None,,,,,,,,,,,130,27,Male,2022-05-11_13h59.53.626,Boat,2022.1.1,60.193099489994275,
positive,negative,1,l,j,,,,,,,,,6,13,121,5,,,,,,,,,,,,,,,,,,,,,,,,main,2,2,1,negative,positive,l,l,1,0.6323710000142455,383.8083066000836,384.81201170000713,384.79340590001084,None,383.8083066000836,None,383.8083066000836,None,383.8083066000836,None,385.41772550998724,None,385.41772550998724,None,385.41772550998724,None,,,,,,,,,,,130,27,Male,2022-05-11_13h59.53.626,Boat,2022.1.1,60.193099489994275,
neutral,neutral,1,k,k,,,,,,,,,6,14,122,1,,,,,,,,,,,,,,,,,,,,,,,,main,1,1,1,neutral,neutral,k,k,1,0.6508733000373468,385.4424388000043,386.46183160005603,386.43650120007806,None,385.4424388000043,None,385.4424388000043,None,385.4424388000043,None,387.07434571001215,None,387.07434571001215,None,387.07434571001215,None,,,,,,,,,,,130,27,Male,2022-05-11_13h59.53.626,Boat,2022.1.1,60.193099489994275,
positive,neutral,2,l,j,,,,,,,,,6,15,123,17,,,,,,,,,,,,,,,,,,,,,,,,main,1,1,2,neutral,positive,l,l,1,0.7249852999811992,387.1006011000136,388.1015924999956,388.08340080000926,None,387.1006011000136,None,387.1006011000136,None,387.1006011000136,None,388.80485351001846,None,388.80485351001846,None,388.80485351001846,None,,,,,,,,,,,130,27,Male,2022-05-11_13h59.53.626,Boat,2022.1.1,60.193099489994275,
neutral,negative,2,k,k,,,,,,,,,6,16,124,16,,,,,,,,,,,,,,,,,,,,,,,,main,2,2,2,negative,neutral,k,k,1,1.2518812000053003,388.8311465000734,389.8487427000655,389.8076903000474,None,388.8311465000734,None,388.8311465000734,None,388.8311465000734,None,391.0551132100169,None,391.0551132100169,None,391.0551132100169,None,,,,,,,,,,,130,27,Male,2022-05-11_13h59.53.626,Boat,2022.1.1,60.193099489994275,
negative,negative,2,j,l,,,,,,,,,6,17,125,9,,,,,,,,,,,,,,,,,,,,,,,,main,2,2,2,negative,negative,j,j,1,0.7593000000342727,391.08595580002293,392.1023058000719,392.0831648000749,None,391.08595580002293,None,391.08595580002293,None,391.08595580002293,None,392.8242204099894,None,392.8242204099894,None,392.8242204099894,None,,,,,,,,,,,130,27,Male,2022-05-11_13h59.53.626,Boat,2022.1.1,60.193099489994275,
negative,positive,2,j,l,,,,,,,,,7,0,126,15,,,,,,,,,,,,,,,,,,,,,,,,main,2,2,2,positive,negative,j,j,1,0.7448854999383911,392.8478573000757,393.85765979997814,393.83702269999776,None,392.8478573000757,None,392.8478573000757,None,392.8478573000757,None,394.56953051001767,None,394.56953051001767,None,394.56953051001767,None,,,,,,,,,,,130,27,Male,2022-05-11_13h59.53.626,Boat,2022.1.1,60.193099489994275,
neutral,negative,1,k,k,,,,,,,,,7,1,127,7,,,,,,,,,,,,,,,,,,,,,,,,main,1,1,1,negative,neutral,k,k,1,0.6021382000762969,394.59150590002537,395.59685510001145,395.57838309998624,None,394.59150590002537,None,394.59150590002537,None,394.59150590002537,None,396.1782291099895,None,396.1782291099895,None,396.1782291099895,None,,,,,,,,,,,130,27,Male,2022-05-11_13h59.53.626,Boat,2022.1.1,60.193099489994275,
neutral,positive,1,k,k,,,,,,,,,7,2,128,4,,,,,,,,,,,,,,,,,,,,,,,,main,1,1,1,positive,neutral,k,k,1,0.5751251000910997,396.1973739999812,397.22377050004434,397.1786165999947,None,396.1973739999812,None,396.1973739999812,None,396.1973739999812,None,397.7563795100665,None,397.7563795100665,None,397.7563795100665,None,,,,,,,,,,,130,27,Male,2022-05-11_13h59.53.626,Boat,2022.1.1,60.193099489994275,
negative,neutral,1,j,l,,,,,,,,,7,3,129,3,,,,,,,,,,,,,,,,,,,,,,,,main,2,2,1,neutral,negative,j,j,1,1.5990697999950498,397.77614229999017,398.79536210000515,398.75719250005204,None,397.77614229999017,None,397.77614229999017,None,397.77614229999017,None,400.36492820002604,None,400.36492820002604,None,400.36492820002604,None,,,,,,,,,,,130,27,Male,2022-05-11_13h59.53.626,Boat,2022.1.1,60.193099489994275,
neutral,neutral,1,k,k,,,,,,,,,7,4,130,1,,,,,,,,,,,,,,,,,,,,,,,,main,1,1,1,neutral,neutral,k,k,1,0.6726300999289379,401.3821357000852,402.3925406000344,402.37372929998673,None,401.3821357000852,None,401.3821357000852,None,401.3821357000852,None,403.03578081007583,None,403.03578081007583,None,403.03578081007583,None,,,,,,,,,,,130,27,Male,2022-05-11_13h59.53.626,Boat,2022.1.1,60.193099489994275,
positive,negative,1,l,j,,,,,,,,,7,5,131,5,,,,,,,,,,,,,,,,,,,,,,,,main,2,2,1,negative,positive,l,l,1,0.7899589000735432,403.0648658000864,404.07911240006797,404.0409662000602,None,403.0648658000864,None,403.0648658000864,None,403.0648658000864,None,404.8318668100052,None,404.8318668100052,None,404.8318668100052,None,,,,,,,,,,,130,27,Male,2022-05-11_13h59.53.626,Boat,2022.1.1,60.193099489994275,
neutral,positive,2,k,k,,,,,,,,,7,6,132,13,,,,,,,,,,,,,,,,,,,,,,,,main,1,1,2,positive,neutral,k,k,1,0.5881925000576302,404.85099890001584,405.86473280005157,405.82916940003633,None,404.85099890001584,None,404.85099890001584,None,404.85099890001584,None,406.42401541003494,None,406.42401541003494,None,406.42401541003494,None,,,,,,,,,,,130,27,Male,2022-05-11_13h59.53.626,Boat,2022.1.1,60.193099489994275,
positive,negative,2,l,j,,,,,,,,,7,7,133,14,,,,,,,,,,,,,,,,,,,,,,,,main,2,2,2,negative,positive,l,l,1,0.9222168000414968,406.44547799997963,407.46218879998196,407.4271148000844,None,406.44547799997963,None,406.44547799997963,None,406.44547799997963,None,408.34750151007904,None,408.34750151007904,None,408.34750151007904,None,,,,,,,,,,,130,27,Male,2022-05-11_13h59.53.626,Boat,2022.1.1,60.193099489994275,
positive,neutral,2,l,j,,,,,,,,,7,8,134,17,,,,,,,,,,,,,,,,,,,,,,,,main,2,2,2,neutral,positive,l,l,1,0.7166966000804678,408.3684336000588,409.38126160006505,409.34373930003494,None,408.3684336000588,None,408.3684336000588,None,408.3684336000588,None,410.0686634100508,None,410.0686634100508,None,410.0686634100508,None,,,,,,,,,,,130,27,Male,2022-05-11_13h59.53.626,Boat,2022.1.1,60.193099489994275,
positive,positive,1,l,j,,,,,,,,,7,9,135,2,,,,,,,,,,,,,,,,,,,,,,,,main,1,1,1,positive,positive,l,l,1,0.6980689000338316,410.0870135000441,411.09444920008536,411.0755344000645,None,410.0870135000441,None,410.0870135000441,None,410.0870135000441,None,411.7702477100771,None,411.7702477100771,None,411.7702477100771,None,,,,,,,,,,,130,27,Male,2022-05-11_13h59.53.626,Boat,2022.1.1,60.193099489994275,
negative,neutral,2,j,l,,,,,,,,,7,10,136,12,,,,,,,,,,,,,,,,,,,,,,,,main,1,1,2,neutral,negative,j,j,1,0.8822275999700651,411.78998890006915,412.79441800003406,412.77569759998005,None,411.78998890006915,None,411.78998890006915,None,411.78998890006915,None,413.655254010018,None,413.655254010018,None,413.655254010018,None,,,,,,,,,,,130,27,Male,2022-05-11_13h59.53.626,Boat,2022.1.1,60.193099489994275,
positive,neutral,1,l,j,,,,,,,,,7,11,137,8,,,,,,,,,,,,,,,,,,,,,,,,main,2,2,1,neutral,positive,l,l,1,0.7971019999822602,413.674297700054,414.6790673000505,414.6623679000186,None,413.674297700054,None,413.674297700054,None,413.674297700054,None,415.45509250999896,None,415.45509250999896,None,415.45509250999896,None,,,,,,,,,,,130,27,Male,2022-05-11_13h59.53.626,Boat,2022.1.1,60.193099489994275,
negative,negative,2,j,l,,,,,,,,,7,12,138,9,,,,,,,,,,,,,,,,,,,,,,,,main,2,2,2,negative,negative,j,j,1,0.767297999933362,415.4767227000557,416.48305310006253,416.4463122000452,None,415.4767227000557,None,415.4767227000557,None,415.4767227000557,None,417.2249261100311,None,417.2249261100311,None,417.2249261100311,None,,,,,,,,,,,130,27,Male,2022-05-11_13h59.53.626,Boat,2022.1.1,60.193099489994275,
neutral,negative,2,k,k,,,,,,,,,7,13,139,16,,,,,,,,,,,,,,,,,,,,,,,,main,1,1,2,negative,neutral,k,k,1,0.779665399924852,417.24409210006706,418.2555554000428,418.2281889000442,None,417.24409210006706,None,417.24409210006706,None,417.24409210006706,None,419.00744871005884,None,419.00744871005884,None,419.00744871005884,None,,,,,,,,,,,130,27,Male,2022-05-11_13h59.53.626,Boat,2022.1.1,60.193099489994275,
neutral,neutral,2,k,k,,,,,,,,,7,14,140,10,,,,,,,,,,,,,,,,,,,,,,,,main,2,2,2,neutral,neutral,k,k,1,0.9373317999998108,419.02927890000865,420.03038810007274,420.0129588000709,None,419.02927890000865,None,419.02927890000865,None,419.02927890000865,None,420.94657011006495,None,420.94657011006495,None,420.94657011006495,None,,,,,,,,,,,130,27,Male,2022-05-11_13h59.53.626,Boat,2022.1.1,60.193099489994275,
positive,positive,2,l,j,,,,,,,,,7,15,141,11,,,,,,,,,,,,,,,,,,,,,,,,main,2,2,2,positive,positive,l,l,1,0.8217824000166729,420.9671296000015,421.9790421000216,421.94127940002363,None,420.9671296000015,None,420.9671296000015,None,420.9671296000015,None,422.77250000999777,None,422.77250000999777,None,422.77250000999777,None,,,,,,,,,,,130,27,Male,2022-05-11_13h59.53.626,Boat,2022.1.1,60.193099489994275,
negative,negative,1,j,l,,,,,,,,,7,16,142,0,,,,,,,,,,,,,,,,,,,,,,,,main,2,2,1,negative,negative,j,j,1,0.8774498000275344,422.7936952000018,423.7959958000574,423.778259600047,None,422.7936952000018,None,422.7936952000018,None,422.7936952000018,None,424.65177241005006,None,424.65177241005006,None,424.65177241005006,None,,,,,,,,,,,130,27,Male,2022-05-11_13h59.53.626,Boat,2022.1.1,60.193099489994275,
negative,positive,1,j,l,,,,,,,,,7,17,143,6,,,,,,,,,,,,,,,,,,,,,,,,main,1,1,1,positive,negative,j,j,1,0.7459120000712574,424.6738178000087,425.69429480005056,425.6557325000176,None,424.6738178000087,None,424.6738178000087,None,424.6738178000087,None,426.4011024100706,None,426.4011024100706,None,426.4011024100706,None,,,,,,,,,,,130,27,Male,2022-05-11_13h59.53.626,Boat,2022.1.1,60.193099489994275,
negative,negative,1,j,l,,,,,,,,,8,0,144,0,,,,,,,,,,,,,,,,,,,,,,,,main,2,2,1,negative,negative,j,j,1,0.6832434999523684,426.4202396000037,427.43493380001746,427.39881929999683,None,426.4202396000037,None,426.4202396000037,None,426.4202396000037,None,428.0868149100803,None,428.0868149100803,None,428.0868149100803,None,,,,,,,,,,,130,27,Male,2022-05-11_13h59.53.626,Boat,2022.1.1,60.193099489994275,
neutral,neutral,2,k,k,,,,,,,,,8,1,145,10,,,,,,,,,,,,,,,,,,,,,,,,main,1,1,2,neutral,neutral,k,k,1,0.6328118999954313,428.1060675000772,429.1122701000422,429.0926311999792,None,428.1060675000772,None,428.1060675000772,None,428.1060675000772,None,429.72069511006123,None,429.72069511006123,None,429.72069511006123,None,,,,,,,,,,,130,27,Male,2022-05-11_13h59.53.626,Boat,2022.1.1,60.193099489994275,
negative,positive,1,j,l,,,,,,,,,8,2,146,6,,,,,,,,,,,,,,,,,,,,,,,,main,2,2,1,positive,negative,j,j,1,0.735974199953489,429.7465465000132,430.7637803000398,430.72331460006535,None,429.7465465000132,None,429.7465465000132,None,429.7465465000132,None,431.46316350998825,None,431.46316350998825,None,431.46316350998825,None,,,,,,,,,,,130,27,Male,2022-05-11_13h59.53.626,Boat,2022.1.1,60.193099489994275,
neutral,positive,2,k,k,,,,,,,,,8,3,147,13,,,,,,,,,,,,,,,,,,,,,,,,main,1,1,2,positive,neutral,k,k,1,0.6855991999618709,431.48150480003096,432.48173800006043,432.4642660000827,None,431.48150480003096,None,431.48150480003096,None,431.48150480003096,None,433.15027491005605,None,433.15027491005605,None,433.15027491005605,None,,,,,,,,,,,130,27,Male,2022-05-11_13h59.53.626,Boat,2022.1.1,60.193099489994275,
neutral,negative,2,k,k,,,,,,,,,8,4,148,16,,,,,,,,,,,,,,,,,,,,,,,,main,2,2,2,negative,neutral,k,k,1,0.581570400041528,433.1703085000627,434.180185800069,434.1442340000067,None,433.1703085000627,None,433.1703085000627,None,433.1703085000627,None,434.73531670998784,None,434.73531670998784,None,434.73531670998784,None,,,,,,,,,,,130,27,Male,2022-05-11_13h59.53.626,Boat,2022.1.1,60.193099489994275,
positive,neutral,1,l,j,,,,,,,,,8,5,149,8,,,,,,,,,,,,,,,,,,,,,,,,main,1,1,1,neutral,positive,l,l,1,1.0888087999774143,434.7555870000506,435.7628297000192,435.744024500018,None,434.7555870000506,None,434.7555870000506,None,434.7555870000506,None,436.8294495099923,None,436.8294495099923,None,436.8294495099923,None,,,,,,,,,,,130,27,Male,2022-05-11_13h59.53.626,Boat,2022.1.1,60.193099489994275,
positive,negative,2,l,j,,,,,,,,,8,6,150,14,,,,,,,,,,,,,,,,,,,,,,,,main,2,2,2,negative,positive,l,l,1,-0.7557653000112623,436.84797380003147,None,None,None,436.84797380003147,None,436.84797380003147,None,436.84797380003147,None,437.08253510005306,None,437.08253510005306,None,437.08253510005306,None,,,,,,,,,,,130,27,Male,2022-05-11_13h59.53.626,Boat,2022.1.1,60.193099489994275,
neutral,negative,1,k,k,,,,,,,,,8,7,151,7,,,,,,,,,,,,,,,,,,,,,,,,main,2,2,1,negative,neutral,k,k,1,1.3342939999420196,440.09918390004896,441.1149439000292,441.0796869000187,None,440.09918390004896,None,440.09918390004896,None,440.09918390004896,None,442.41807921000293,None,442.41807921000293,None,442.41807921000293,None,,,,,,,,,,,130,27,Male,2022-05-11_13h59.53.626,Boat,2022.1.1,60.193099489994275,
positive,positive,1,l,j,,,,,,,,,8,8,152,2,,,,,,,,,,,,,,,,,,,,,,,,main,1,1,1,positive,positive,l,l,1,0.8479454000480473,442.4379993000766,443.44881040009204,443.41329450008925,None,442.4379993000766,None,442.4379993000766,None,442.4379993000766,None,444.26793951008005,None,444.26793951008005,None,444.26793951008005,None,,,,,,,,,,,130,27,Male,2022-05-11_13h59.53.626,Boat,2022.1.1,60.193099489994275,
positive,positive,2,l,j,,,,,,,,,8,9,153,11,,,,,,,,,,,,,,,,,,,,,,,,main,2,2,2,positive,positive,l,l,1,0.8795606999192387,444.29051379999146,445.2967387000099,445.27980100002605,None,444.29051379999146,None,444.29051379999146,None,444.29051379999146,None,446.1521839100402,None,446.1521839100402,None,446.1521839100402,None,,,,,,,,,,,130,27,Male,2022-05-11_13h59.53.626,Boat,2022.1.1,60.193099489994275,
neutral,neutral,1,k,k,,,,,,,,,8,10,154,1,,,,,,,,,,,,,,,,,,,,,,,,main,2,2,1,neutral,neutral,k,k,1,0.6964798000408337,446.1709804000566,447.17970109998714,447.1434770000633,None,446.1709804000566,None,446.1709804000566,None,446.1709804000566,None,447.85127111002805,None,447.85127111002805,None,447.85127111002805,None,,,,,,,,,,,130,27,Male,2022-05-11_13h59.53.626,Boat,2022.1.1,60.193099489994275,
positive,neutral,2,l,j,,,,,,,,,8,11,155,17,,,,,,,,,,,,,,,,,,,,,,,,main,1,1,2,neutral,positive,l,l,1,0.7320485999807715,447.8719838000834,448.8833437000867,448.84701480006333,None,447.8719838000834,None,447.8719838000834,None,447.8719838000834,None,449.5863639100222,None,449.5863639100222,None,449.5863639100222,None,,,,,,,,,,,130,27,Male,2022-05-11_13h59.53.626,Boat,2022.1.1,60.193099489994275,
negative,positive,2,j,l,,,,,,,,,8,12,156,15,,,,,,,,,,,,,,,,,,,,,,,,main,1,1,2,positive,negative,j,j,1,0.8102870000293478,449.60693640005775,450.61248890007846,450.5934522000607,None,449.60693640005775,None,449.60693640005775,None,449.60693640005775,None,451.39952171002517,None,451.39952171002517,None,451.39952171002517,None,,,,,,,,,,,130,27,Male,2022-05-11_13h59.53.626,Boat,2022.1.1,60.193099489994275,
negative,neutral,1,j,l,,,,,,,,,8,13,157,3,,,,,,,,,,,,,,,,,,,,,,,,main,1,1,1,neutral,negative,j,j,1,0.9060316999675706,451.42277830000967,452.42988940002397,452.4131324000191,None,451.42277830000967,None,451.42277830000967,None,451.42277830000967,None,453.3092258100165,None,453.3092258100165,None,453.3092258100165,None,,,,,,,,,,,130,27,Male,2022-05-11_13h59.53.626,Boat,2022.1.1,60.193099489994275,
positive,negative,1,l,j,,,,,,,,,8,14,158,5,,,,,,,,,,,,,,,,,,,,,,,,main,1,1,1,negative,positive,l,l,1,0.873753699939698,453.33004080003593,454.3313112000469,454.31358630000614,None,453.33004080003593,None,453.33004080003593,None,453.33004080003593,None,455.1843906099908,None,455.1843906099908,None,455.1843906099908,None,,,,,,,,,,,130,27,Male,2022-05-11_13h59.53.626,Boat,2022.1.1,60.193099489994275,
negative,neutral,2,j,l,,,,,,,,,8,15,159,12,,,,,,,,,,,,,,,,,,,,,,,,main,2,2,2,neutral,negative,j,j,1,1.1612227000296116,455.2039543000283,456.21317930007353,456.19407460000366,None,455.2039543000283,None,455.2039543000283,None,455.2039543000283,None,457.3487774100155,None,457.3487774100155,None,457.3487774100155,None,,,,,,,,,,,130,27,Male,2022-05-11_13h59.53.626,Boat,2022.1.1,60.193099489994275,
negative,negative,2,j,l,,,,,,,,,8,16,160,9,,,,,,,,,,,,,,,,,,,,,,,,main,1,1,2,negative,negative,j,j,1,0.7573584999190643,457.3674848000519,458.37996070005465,458.34347070008516,None,457.3674848000519,None,457.3674848000519,None,457.3674848000519,None,459.10991461006927,None,459.10991461006927,None,459.10991461006927,None,,,,,,,,,,,130,27,Male,2022-05-11_13h59.53.626,Boat,2022.1.1,60.193099489994275,
neutral,positive,1,k,k,,,,,,,,,8,17,161,4,,,,,,,,,,,,,,,,,,,,,,,,main,1,1,1,positive,neutral,k,k,1,0.6674732000101358,459.1304907000158,460.1301048999885,460.11305110005196,None,459.1304907000158,None,459.1304907000158,None,459.1304907000158,None,460.7801052100491,None,460.7801052100491,None,460.7801052100491,None,,,,,,,,,,,130,27,Male,2022-05-11_13h59.53.626,Boat,2022.1.1,60.193099489994275,
positive,negative,1,l,j,,,,,,,,,9,0,162,5,,,,,,,,,,,,,,,,,,,,,,,,main,1,1,1,negative,positive,l,l,1,0.7699812999926507,460.7994723999873,461.8135813000845,461.7766043000156,None,460.7994723999873,None,460.7994723999873,None,460.7994723999873,None,462.55232780999506,None,462.55232780999506,None,462.55232780999506,None,,,,,,,,,,,130,27,Male,2022-05-11_13h59.53.626,Boat,2022.1.1,60.193099489994275,
neutral,neutral,2,k,k,,,,,,,,,9,1,163,10,,,,,,,,,,,,,,,,,,,,,,,,main,1,1,2,neutral,neutral,k,k,1,0.6962154000066221,462.5719020999968,463.5858908999944,463.54990720003843,None,462.5719020999968,None,462.5719020999968,None,462.5719020999968,None,464.2514689100441,None,464.2514689100441,None,464.2514689100441,None,,,,,,,,,,,130,27,Male,2022-05-11_13h59.53.626,Boat,2022.1.1,60.193099489994275,
neutral,neutral,1,k,k,,,,,,,,,9,2,164,1,,,,,,,,,,,,,,,,,,,,,,,,main,1,1,1,neutral,neutral,k,k,1,0.6513023000443354,464.26993290008977,465.2799633999821,465.24228930007666,None,464.26993290008977,None,464.26993290008977,None,464.26993290008977,None,465.90678111000454,None,465.90678111000454,None,465.90678111000454,None,,,,,,,,,,,130,27,Male,2022-05-11_13h59.53.626,Boat,2022.1.1,60.193099489994275,
negative,negative,2,j,l,,,,,,,,,9,3,165,9,,,,,,,,,,,,,,,,,,,,,,,,main,1,1,2,negative,negative,j,j,1,0.8189253000309691,465.9259199000662,466.930177000002,466.9132034999784,None,465.9259199000662,None,465.9259199000662,None,465.9259199000662,None,467.72719661009035,None,467.72719661009035,None,467.72719661009035,None,,,,,,,,,,,130,27,Male,2022-05-11_13h59.53.626,Boat,2022.1.1,60.193099489994275,
neutral,negative,1,k,k,,,,,,,,,9,4,166,7,,,,,,,,,,,,,,,,,,,,,,,,main,2,2,1,negative,neutral,k,k,1,0.6756638999795541,467.74738800001796,468.7637994000688,468.72828370006755,None,467.74738800001796,None,467.74738800001796,None,467.74738800001796,None,469.4078171099769,None,469.4078171099769,None,469.4078171099769,None,,,,,,,,,,,130,27,Male,2022-05-11_13h59.53.626,Boat,2022.1.1,60.193099489994275,
neutral,negative,2,k,k,,,,,,,,,9,5,167,16,,,,,,,,,,,,,,,,,,,,,,,,main,2,2,2,negative,neutral,k,k,1,0.6962112999754027,469.42820179997943,470.43065029999707,470.4140524000395,None,469.42820179997943,None,469.42820179997943,None,469.42820179997943,None,471.10653071003037,None,471.10653071003037,None,471.10653071003037,None,,,,,,,,,,,130,27,Male,2022-05-11_13h59.53.626,Boat,2022.1.1,60.193099489994275,
negative,positive,2,j,l,,,,,,,,,9,6,168,15,,,,,,,,,,,,,,,,,,,,,,,,main,1,1,2,positive,negative,j,j,1,0.7858787999721244,471.12737470003776,472.1447150000604,472.126308600069,None,471.12737470003776,None,471.12737470003776,None,471.12737470003776,None,472.89690110997765,None,472.89690110997765,None,472.89690110997765,None,,,,,,,,,,,130,27,Male,2022-05-11_13h59.53.626,Boat,2022.1.1,60.193099489994275,
positive,neutral,2,l,j,,,,,,,,,9,7,169,17,,,,,,,,,,,,,,,,,,,,,,,,main,1,1,2,neutral,positive,l,l,1,0.7441483999136835,472.9167996000033,473.9306807999965,473.8944839000469,None,472.9167996000033,None,472.9167996000033,None,472.9167996000033,None,474.6457457100274,None,474.6457457100274,None,474.6457457100274,None,,,,,,,,,,,130,27,Male,2022-05-11_13h59.53.626,Boat,2022.1.1,60.193099489994275,
positive,negative,2,l,j,,,,,,,,,9,8,170,14,,,,,,,,,,,,,,,,,,,,,,,,main,1,1,2,negative,positive,l,l,1,0.6754593999357894,474.66465589997824,475.6662407000549,475.6473826000001,None,474.66465589997824,None,474.66465589997824,None,474.66465589997824,None,476.32507201007104,None,476.32507201007104,None,476.32507201007104,None,,,,,,,,,,,130,27,Male,2022-05-11_13h59.53.626,Boat,2022.1.1,60.193099489994275,
neutral,positive,2,k,k,,,,,,,,,9,9,171,13,,,,,,,,,,,,,,,,,,,,,,,,main,2,2,2,positive,neutral,k,k,1,0.662631299928762,476.3460467000259,477.34755990002304,477.33036680007353,None,476.3460467000259,None,476.3460467000259,None,476.3460467000259,None,477.99027030998843,None,477.99027030998843,None,477.99027030998843,None,,,,,,,,,,,130,27,Male,2022-05-11_13h59.53.626,Boat,2022.1.1,60.193099489994275,
negative,neutral,1,j,l,,,,,,,,,9,10,172,3,,,,,,,,,,,,,,,,,,,,,,,,main,1,1,1,neutral,negative,j,j,1,0.9612070000730455,478.0106782000512,479.0135384000605,478.99379740003496,None,478.0106782000512,None,478.0106782000512,None,478.0106782000512,None,479.95262381006035,None,479.95262381006035,None,479.95262381006035,None,,,,,,,,,,,130,27,Male,2022-05-11_13h59.53.626,Boat,2022.1.1,60.193099489994275,
positive,positive,1,l,j,,,,,,,,,9,11,173,2,,,,,,,,,,,,,,,,,,,,,,,,main,2,2,1,positive,positive,l,l,1,0.8192492999369279,479.97341860004235,480.9803166000638,480.95907089998946,None,479.97341860004235,None,479.97341860004235,None,479.97341860004235,None,481.77584051005545,None,481.77584051005545,None,481.77584051005545,None,,,,,,,,,,,130,27,Male,2022-05-11_13h59.53.626,Boat,2022.1.1,60.193099489994275,
negative,positive,1,j,l,,,,,,,,,9,12,174,6,,,,,,,,,,,,,,,,,,,,,,,,main,1,1,1,positive,negative,j,j,1,0.8114738999865949,481.7954909000546,482.7979990000604,482.78098700009286,None,481.7954909000546,None,481.7954909000546,None,481.7954909000546,None,483.5901634100825,None,483.5901634100825,None,483.5901634100825,None,,,,,,,,,,,130,27,Male,2022-05-11_13h59.53.626,Boat,2022.1.1,60.193099489994275,
positive,positive,2,l,j,,,,,,,,,9,13,175,11,,,,,,,,,,,,,,,,,,,,,,,,main,2,2,2,positive,positive,l,l,1,0.7286391999805346,483.61391120008193,484.6288102000253,484.6097305000294,None,483.61391120008193,None,483.61391120008193,None,483.61391120008193,None,485.31985401003624,None,485.31985401003624,None,485.31985401003624,None,,,,,,,,,,,130,27,Male,2022-05-11_13h59.53.626,Boat,2022.1.1,60.193099489994275,
negative,neutral,2,j,l,,,,,,,,,9,14,176,12,,,,,,,,,,,,,,,,,,,,,,,,main,2,2,2,neutral,negative,j,j,1,0.7319461000151932,485.34112150000874,486.34779040003195,486.31305170000996,None,485.34112150000874,None,485.34112150000874,None,485.34112150000874,None,487.05521211007147,None,487.05521211007147,None,487.05521211007147,None,,,,,,,,,,,130,27,Male,2022-05-11_13h59.53.626,Boat,2022.1.1,60.193099489994275,
positive,neutral,1,l,j,,,,,,,,,9,15,177,8,,,,,,,,,,,,,,,,,,,,,,,,main,2,2,1,neutral,positive,l,l,1,0.8097621999913827,487.07506180007476,488.07720180007163,488.0589894000441,None,487.07506180007476,None,487.07506180007476,None,487.07506180007476,None,488.8669312100625,None,488.8669312100625,None,488.8669312100625,None,,,,,,,,,,,130,27,Male,2022-05-11_13h59.53.626,Boat,2022.1.1,60.193099489994275,
negative,negative,1,j,l,,,,,,,,,9,16,178,0,,,,,,,,,,,,,,,,,,,,,,,,main,1,1,1,negative,negative,j,j,1,0.8880300000309944,488.88735059998,489.89768679998815,489.8640108000254,None,488.88735059998,None,488.88735059998,None,488.88735059998,None,490.7603983100504,None,490.7603983100504,None,490.7603983100504,None,,,,,,,,,,,130,27,Male,2022-05-11_13h59.53.626,Boat,2022.1.1,60.193099489994275,
neutral,positive,1,k,k,,,,,,,,,9,17,179,4,,,,,,,,,,,,,,,,,,,,,,,,main,1,1,1,positive,neutral,k,k,1,0.6322731000836939,490.77914540003985,491.7827271000715,491.7644282000838,None,490.77914540003985,None,490.77914540003985,None,490.77914540003985,None,492.3953401100822,None,492.3953401100822,None,492.3953401100822,None,,,,,,,,,,,130,27,Male,2022-05-11_13h59.53.626,Boat,2022.1.1,60.193099489994275,
negative,neutral,1,j,l,,,,,,,,,10,0,180,3,,,,,,,,,,,,,,,,,,,,,,,,main,1,1,1,neutral,negative,j,j,1,0.7827520000282675,492.4143911000574,493.41656939999666,493.3991241999902,None,492.4143911000574,None,492.4143911000574,None,492.4143911000574,None,494.18119661000094,None,494.18119661000094,None,494.18119661000094,None,,,,,,,,,,,130,27,Male,2022-05-11_13h59.53.626,Boat,2022.1.1,60.193099489994275,
negative,neutral,2,j,l,,,,,,,,,10,1,181,12,,,,,,,,,,,,,,,,,,,,,,,,main,1,1,2,neutral,negative,j,j,1,0.7389477000106126,494.19970840006135,495.2000891000498,495.18254760000855,None,494.19970840006135,None,494.19970840006135,None,494.19970840006135,None,495.92324211008383,None,495.92324211008383,None,495.92324211008383,None,,,,,,,,,,,130,27,Male,2022-05-11_13h59.53.626,Boat,2022.1.1,60.193099489994275,
neutral,neutral,2,k,k,,,,,,,,,10,2,182,10,,,,,,,,,,,,,,,,,,,,,,,,main,2,2,2,neutral,neutral,k,k,1,0.6311084000626579,495.942194800009,496.9476977000013,496.93027180002537,None,495.942194800009,None,495.942194800009,None,495.942194800009,None,497.5563698100392,None,497.5563698100392,None,497.5563698100392,None,,,,,,,,,,,130,27,Male,2022-05-11_13h59.53.626,Boat,2022.1.1,60.193099489994275,
neutral,neutral,1,k,k,,,,,,,,,10,3,183,1,,,,,,,,,,,,,,,,,,,,,,,,main,1,1,1,neutral,neutral,k,k,1,0.6323917000554502,497.57637020002585,498.5808901999844,498.5631931000389,None,497.57637020002585,None,497.57637020002585,None,497.57637020002585,None,499.1920585100539,None,499.1920585100539,None,499.1920585100539,None,,,,,,,,,,,130,27,Male,2022-05-11_13h59.53.626,Boat,2022.1.1,60.193099489994275,
neutral,negative,1,k,k,,,,,,,,,10,4,184,7,,,,,,,,,,,,,,,,,,,,,,,,main,1,1,1,negative,neutral,k,k,1,0.6138141000410542,499.21170840004925,500.2164724000031,500.19757419999223,None,499.21170840004925,None,499.21170840004925,None,499.21170840004925,None,500.8086195100565,None,500.8086195100565,None,500.8086195100565,None,,,,,,,,,,,130,27,Male,2022-05-11_13h59.53.626,Boat,2022.1.1,60.193099489994275,
negative,positive,1,j,l,,,,,,,,,10,5,185,6,,,,,,,,,,,,,,,,,,,,,,,,main,2,2,1,positive,negative,j,j,1,0.8026774000609294,500.8278851000359,501.8471571999835,501.8095498000039,None,500.8278851000359,None,500.8278851000359,None,500.8278851000359,None,502.6140707100509,None,502.6140707100509,None,502.6140707100509,None,,,,,,,,,,,130,27,Male,2022-05-11_13h59.53.626,Boat,2022.1.1,60.193099489994275,
negative,positive,2,j,l,,,,,,,,,10,6,186,15,,,,,,,,,,,,,,,,,,,,,,,,main,2,2,2,positive,negative,j,j,1,0.7538263000315055,502.63258580002,503.6344741000794,503.616606399999,None,502.63258580002,None,502.63258580002,None,502.63258580002,None,504.36999590999915,None,504.36999590999915,None,504.36999590999915,None,,,,,,,,,,,130,27,Male,2022-05-11_13h59.53.626,Boat,2022.1.1,60.193099489994275,
neutral,positive,2,k,k,,,,,,,,,10,7,187,13,,,,,,,,,,,,,,,,,,,,,,,,main,1,1,2,positive,neutral,k,k,1,0.6228808999294415,504.3908956000814,505.39776140009053,505.37969339999836,None,504.3908956000814,None,504.3908956000814,None,504.3908956000814,None,505.99716821000914,None,505.99716821000914,None,505.99716821000914,None,,,,,,,,,,,130,27,Male,2022-05-11_13h59.53.626,Boat,2022.1.1,60.193099489994275,
negative,negative,2,j,l,,,,,,,,,10,8,188,9,,,,,,,,,,,,,,,,,,,,,,,,main,2,2,2,negative,negative,j,j,1,0.8295748999807984,506.01626030006446,507.0183015000075,507.000547499978,None,506.01626030006446,None,506.01626030006446,None,506.01626030006446,None,507.8309405100532,None,507.8309405100532,None,507.8309405100532,None,,,,,,,,,,,130,27,Male,2022-05-11_13h59.53.626,Boat,2022.1.1,60.193099489994275,
neutral,positive,1,k,k,,,,,,,,,10,9,189,4,,,,,,,,,,,,,,,,,,,,,,,,main,2,2,1,positive,neutral,k,k,1,0.8417795000132173,507.8498893000651,508.86298049998004,508.82595810003113,None,507.8498893000651,None,507.8498893000651,None,507.8498893000651,None,509.67509370998016,None,509.67509370998016,None,509.67509370998016,None,,,,,,,,,,,130,27,Male,2022-05-11_13h59.53.626,Boat,2022.1.1,60.193099489994275,
positive,neutral,2,l,j,,,,,,,,,10,10,190,17,,,,,,,,,,,,,,,,,,,,,,,,main,1,1,2,neutral,positive,l,l,1,0.8828323000343516,509.69440400006715,510.69781660009176,510.68069489998743,None,509.69440400006715,None,509.69440400006715,None,509.69440400006715,None,511.56139031008354,None,511.56139031008354,None,511.56139031008354,None,,,,,,,,,,,130,27,Male,2022-05-11_13h59.53.626,Boat,2022.1.1,60.193099489994275,
positive,negative,2,l,j,,,,,,,,,10,11,191,14,,,,,,,,,,,,,,,,,,,,,,,,main,1,1,2,negative,positive,l,l,1,0.6922844999935478,511.580043700058,512.5841613999801,512.5670655000722,None,511.580043700058,None,511.580043700058,None,511.580043700058,None,513.2566652100301,None,513.2566652100301,None,513.2566652100301,None,,,,,,,,,,,130,27,Male,2022-05-11_13h59.53.626,Boat,2022.1.1,60.193099489994275,
neutral,negative,2,k,k,,,,,,,,,10,12,192,16,,,,,,,,,,,,,,,,,,,,,,,,main,1,1,2,negative,neutral,k,k,1,0.6975350000429899,513.2752496000612,514.2812674000161,514.2644747000886,None,513.2752496000612,None,513.2752496000612,None,513.2752496000612,None,514.9549342100742,None,514.9549342100742,None,514.9549342100742,None,,,,,,,,,,,130,27,Male,2022-05-11_13h59.53.626,Boat,2022.1.1,60.193099489994275,
negative,negative,1,j,l,,,,,,,,,10,13,193,0,,,,,,,,,,,,,,,,,,,,,,,,main,1,1,1,negative,negative,j,j,1,0.8000036000739783,514.9758196000475,515.983269700082,515.9648150000721,None,514.9758196000475,None,514.9758196000475,None,514.9758196000475,None,516.759703309997,None,516.759703309997,None,516.759703309997,None,,,,,,,,,,,130,27,Male,2022-05-11_13h59.53.626,Boat,2022.1.1,60.193099489994275,
positive,negative,1,l,j,,,,,,,,,10,14,194,5,,,,,,,,,,,,,,,,,,,,,,,,main,2,2,1,negative,positive,l,l,1,0.9881910999538377,516.7814247000497,517.7946795000462,517.776258100057,None,516.7814247000497,None,516.7814247000497,None,516.7814247000497,None,518.7484005100793,None,518.7484005100793,None,518.7484005100793,None,,,,,,,,,,,130,27,Male,2022-05-11_13h59.53.626,Boat,2022.1.1,60.193099489994275,
positive,neutral,1,l,j,,,,,,,,,10,15,195,8,,,,,,,,,,,,,,,,,,,,,,,,main,1,1,1,neutral,positive,l,l,1,0.6858228000346571,518.7698020000244,519.7822283999994,519.7481003000867,None,518.7698020000244,None,518.7698020000244,None,518.7698020000244,None,520.4404658100335,None,520.4404658100335,None,520.4404658100335,None,,,,,,,,,,,130,27,Male,2022-05-11_13h59.53.626,Boat,2022.1.1,60.193099489994275,
positive,positive,1,l,j,,,,,,,,,10,16,196,2,,,,,,,,,,,,,,,,,,,,,,,,main,2,2,1,positive,positive,l,l,1,0.6454743000213057,520.4629149000393,521.4651363000739,521.4463168000802,None,520.4629149000393,None,520.4629149000393,None,520.4629149000393,None,522.0856869099895,None,522.0856869099895,None,522.0856869099895,None,,,,,,,,,,,130,27,Male,2022-05-11_13h59.53.626,Boat,2022.1.1,60.193099489994275,
positive,positive,2,l,j,,,,,,,,,10,17,197,11,,,,,,,,,,,,,,,,,,,,,,,,main,2,2,2,positive,positive,l,l,1,0.699133999994956,522.107011700049,523.1152586999815,523.0957531000022,None,522.107011700049,None,522.107011700049,None,522.107011700049,None,523.7885694100056,None,523.7885694100056,None,523.7885694100056,None,,,,,,,,,,,130,27,Male,2022-05-11_13h59.53.626,Boat,2022.1.1,60.193099489994275,
negative,positive,2,j,l,,,,,,,,,11,0,198,15,,,,,,,,,,,,,,,,,,,,,,,,main,2,2,2,positive,negative,j,j,1,0.7253934000618756,523.8107572000008,524.814787600073,524.7950761000393,None,523.8107572000008,None,523.8107572000008,None,523.8107572000008,None,525.5169830100145,None,525.5169830100145,None,525.5169830100145,None,,,,,,,,,,,130,27,Male,2022-05-11_13h59.53.626,Boat,2022.1.1,60.193099489994275,
negative,neutral,2,j,l,,,,,,,,,11,1,199,12,,,,,,,,,,,,,,,,,,,,,,,,main,2,2,2,neutral,negative,j,j,1,0.7711715999757871,525.5386255000485,526.5488501000218,526.5152449000161,None,525.5386255000485,None,525.5386255000485,None,525.5386255000485,None,527.292400810076,None,527.292400810076,None,527.292400810076,None,,,,,,,,,,,130,27,Male,2022-05-11_13h59.53.626,Boat,2022.1.1,60.193099489994275,
positive,positive,2,l,j,,,,,,,,,11,2,200,11,,,,,,,,,,,,,,,,,,,,,,,,main,2,2,2,positive,positive,l,l,1,0.7447891000192612,527.312145999982,528.3206227000337,528.2843067999929,None,527.312145999982,None,527.312145999982,None,527.312145999982,None,529.0403555099853,None,529.0403555099853,None,529.0403555099853,None,,,,,,,,,,,130,27,Male,2022-05-11_13h59.53.626,Boat,2022.1.1,60.193099489994275,
positive,neutral,2,l,j,,,,,,,,,11,3,201,17,,,,,,,,,,,,,,,,,,,,,,,,main,1,1,2,neutral,positive,l,l,1,0.6492285000858828,529.058593200054,530.064903200022,530.0301377000287,None,529.058593200054,None,529.058593200054,None,529.058593200054,None,530.6921428099973,None,530.6921428099973,None,530.6921428099973,None,,,,,,,,,,,130,27,Male,2022-05-11_13h59.53.626,Boat,2022.1.1,60.193099489994275,
positive,negative,2,l,j,,,,,,,,,11,4,202,14,,,,,,,,,,,,,,,,,,,,,,,,main,2,2,2,negative,positive,l,l,1,1.1417801999486983,530.7128327999962,531.7321254999842,531.6893479999853,None,530.7128327999962,None,530.7128327999962,None,530.7128327999962,None,532.8427490200149,None,532.8427490200149,None,532.8427490200149,None,,,,,,,,,,,130,27,Male,2022-05-11_13h59.53.626,Boat,2022.1.1,60.193099489994275,
negative,positive,1,j,l,,,,,,,,,11,5,203,6,,,,,,,,,,,,,,,,,,,,,,,,main,2,2,1,positive,negative,j,j,1,1.0044322999892756,532.8812466000672,533.9319254000438,533.8587953000097,None,532.8812466000672,None,532.8812466000672,None,532.8812466000672,None,534.8554362199968,None,534.8554362199968,None,534.8554362199968,None,,,,,,,,,,,130,27,Male,2022-05-11_13h59.53.626,Boat,2022.1.1,60.193099489994275,
negative,negative,2,j,l,,,,,,,,,11,6,204,9,,,,,,,,,,,,,,,,,,,,,,,,main,2,2,2,negative,negative,j,j,1,0.8626734000863507,534.8936808999861,535.9148541000905,535.8736886000261,None,534.8936808999861,None,534.8936808999861,None,534.8936808999861,None,536.7149590100395,None,536.7149590100395,None,536.7149590100395,None,,,,,,,,,,,130,27,Male,2022-05-11_13h59.53.626,Boat,2022.1.1,60.193099489994275,
positive,neutral,1,l,j,,,,,,,,,11,7,205,8,,,,,,,,,,,,,,,,,,,,,,,,main,2,2,1,neutral,positive,l,l,1,0.8817640000488609,536.7479301000712,537.7605010999832,537.7399236999918,None,536.7479301000712,None,536.7479301000712,None,536.7479301000712,None,538.6124621200609,None,538.6124621200609,None,538.6124621200609,None,,,,,,,,,,,130,27,Male,2022-05-11_13h59.53.626,Boat,2022.1.1,60.193099489994275,
positive,negative,1,l,j,,,,,,,,,11,8,206,5,,,,,,,,,,,,,,,,,,,,,,,,main,1,1,1,negative,positive,l,l,1,0.7119250999530777,538.624567000079,539.6318465999793,539.6151303000515,None,538.624567000079,None,538.624567000079,None,538.624567000079,None,540.3175703099929,None,540.3175703099929,None,540.3175703099929,None,,,,,,,,,,,130,27,Male,2022-05-11_13h59.53.626,Boat,2022.1.1,60.193099489994275,
neutral,positive,1,k,k,,,,,,,,,11,9,207,4,,,,,,,,,,,,,,,,,,,,,,,,main,2,2,1,positive,neutral,k,k,1,0.8574585999595001,540.3375165000325,541.3490220999811,541.3153703000862,None,540.3375165000325,None,540.3375165000325,None,540.3375165000325,None,542.1790844099829,None,542.1790844099829,None,542.1790844099829,None,,,,,,,,,,,130,27,Male,2022-05-11_13h59.53.626,Boat,2022.1.1,60.193099489994275,
negative,negative,1,j,l,,,,,,,,,11,10,208,0,,,,,,,,,,,,,,,,,,,,,,,,main,1,1,1,negative,negative,j,j,1,0.9118443999905139,542.199910000083,543.2146738000447,543.1768351000501,None,542.199910000083,None,542.199910000083,None,542.199910000083,None,544.0940826100065,None,544.0940826100065,None,544.0940826100065,None,,,,,,,,,,,130,27,Male,2022-05-11_13h59.53.626,Boat,2022.1.1,60.193099489994275,
