target,distractor,set,ans1,ans2,rep_loop2.thisRepN,rep_loop2.thisTrialN,rep_loop2.thisN,rep_loop2.thisIndex,flanker_prac_loop.thisRepN,flanker_prac_loop.thisTrialN,flanker_prac_loop.thisN,flanker_prac_loop.thisIndex,flanker_main_loop.thisRepN,flanker_main_loop.thisTrialN,flanker_main_loop.thisN,flanker_main_loop.thisIndex,fl_inst_resp.keys,mouse.x,mouse.y,mouse.leftButton,mouse.midButton,mouse.rightButton,mouse.started,mouse.stopped,sound_1.started,sound_1.stopped,no_text.started,no_text.stopped,yes_text.started,yes_text.stopped,mouse_2.x,mouse_2.y,mouse_2.leftButton,mouse_2.midButton,mouse_2.rightButton,mouse_2.started,mouse_2.stopped,back_2.started,back_2.stopped,main_prac,fl_cold,fl_colt,fl_set,fl_dcond,fl_tcond,fl_ans,fl_res,fl_corr,fl_rt,fix_fl.started,fix_fl.stopped,targ.started,targ.stopped,j_button.started,j_button.stopped,k_button.started,k_button.stopped,l_button.started,l_button.stopped,j_button2.started,j_button2.stopped,k_button2.started,k_button2.stopped,l_button2.started,l_button2.stopped,mainback.started,mainback.stopped,key_resp.keys,mouse_6.x,mouse_6.y,mouse_6.leftButton,mouse_6.midButton,mouse_6.rightButton,mouse_6.started,mouse_6.stopped,id*,age*,gender*,date,expName,psychopyVersion,frameRate,
,,,,,0,0,0,0,,,,,,,,,None,0.10925926,-0.43425927,0,0,0,1.0255868744570762,None,26.767199770035223,None,76.05426459992304,None,76.05426459992304,None,-0.11666667,-0.08055556,0,0,0,0.012999070342630148,None,,,,,,,,,,,,,,,,,,,,,,,,,,,,,,,,,,,,,,,131,27,Female,2022-05-23_17h59.24.171,Boat,2022.1.1,59.89218209555224,
negative,positive,2,j,l,,,,,0,0,0,15,,,,,,,,,,,,,,,,,,,,,,,,,,81.47037909994833,None,prac,1,1,2,positive,negative,l,l,1,2.038026300026104,83.50662479992025,84.51636520004831,84.4906345999334,None,83.50662479992025,None,83.50662479992025,None,83.50662479992025,None,86.54469670006074,None,86.54469670006074,None,86.54469670006074,None,,,,,,,,,,,131,27,Female,2022-05-23_17h59.24.171,Boat,2022.1.1,59.89218209555224,
positive,neutral,1,l,j,,,,,0,1,1,8,,,,,,,,,,,,,,,,,,,,,,,,,,,,prac,2,2,1,neutral,positive,j,j,1,1.3563310999888927,87.5708756998647,88.58329589990899,88.55580569989979,None,87.5708756998647,None,87.5708756998647,None,87.5708756998647,None,89.90289156995713,None,89.90289156995713,None,89.90289156995713,None,,,,,,,,,,,131,27,Female,2022-05-23_17h59.24.171,Boat,2022.1.1,59.89218209555224,
negative,neutral,2,j,l,,,,,0,2,2,12,,,,,,,,,,,,,,,,,,,,,,,,,,,,prac,2,2,2,neutral,negative,l,l,1,1.043828299967572,89.92987779993564,90.93793529993854,90.9192321000155,None,89.92987779993564,None,89.92987779993564,None,89.92987779993564,None,91.9486616700422,None,91.9486616700422,None,91.9486616700422,None,,,,,,,,,,,131,27,Female,2022-05-23_17h59.24.171,Boat,2022.1.1,59.89218209555224,
negative,neutral,1,j,l,,,,,0,3,3,3,,,,,,,,,,,,,,,,,,,,,,,,,,,,prac,1,1,1,neutral,negative,l,l,1,0.8629380001220852,91.97844129987061,92.99273890000768,92.95809890003875,None,91.97844129987061,None,91.97844129987061,None,91.97844129987061,None,93.81167496992275,None,93.81167496992275,None,93.81167496992275,None,,,,,,,,,,,131,27,Female,2022-05-23_17h59.24.171,Boat,2022.1.1,59.89218209555224,
neutral,neutral,2,k,k,,,,,0,4,4,10,,,,,,,,,,,,,,,,,,,,,,,,,,,,prac,1,1,2,neutral,neutral,k,k,1,0.9659050998743623,93.84086499991827,94.84001230006106,94.82354879984632,None,93.84086499991827,None,93.84086499991827,None,93.84086499991827,None,95.7827218700666,None,95.7827218700666,None,95.7827218700666,None,,,,,,,,,,,131,27,Female,2022-05-23_17h59.24.171,Boat,2022.1.1,59.89218209555224,
positive,positive,2,l,j,,,,,0,5,5,11,,,,,,,,,,,,,,,,,,,,,,,,,,,,prac,2,2,2,positive,positive,j,j,1,0.8929123999550939,95.81012619985268,96.82476309989579,96.80681509990245,None,95.81012619985268,None,95.81012619985268,None,95.81012619985268,None,97.67657676986418,None,97.67657676986418,None,97.67657676986418,None,,,,,,,,,,,131,27,Female,2022-05-23_17h59.24.171,Boat,2022.1.1,59.89218209555224,
positive,negative,2,l,j,,,,,0,6,6,14,,,,,,,,,,,,,,,,,,,,,,,,,,,,prac,2,2,2,negative,positive,j,j,1,0.8986249000299722,97.70257269986905,98.70371420006268,98.68550639995374,None,97.70257269986905,None,97.70257269986905,None,97.70257269986905,None,99.57777037001215,None,99.57777037001215,None,99.57777037001215,None,,,,,,,,,,,131,27,Female,2022-05-23_17h59.24.171,Boat,2022.1.1,59.89218209555224,
neutral,neutral,1,k,k,,,,,0,7,7,1,,,,,,,,,,,,,,,,,,,,,,,,,,,,prac,2,2,1,neutral,neutral,k,k,1,0.6840520999394357,99.59572499990463,100.61702009988949,100.5739648998715,None,99.59572499990463,None,99.59572499990463,None,99.59572499990463,None,101.26545016998425,None,101.26545016998425,None,101.26545016998425,None,,,,,,,,,,,131,27,Female,2022-05-23_17h59.24.171,Boat,2022.1.1,59.89218209555224,
negative,positive,1,j,l,,,,,0,8,8,6,,,,,,,,,,,,,,,,,,,,,,,,,,,,prac,1,1,1,positive,negative,l,l,1,0.7743004998192191,101.2848715998698,102.29029899998568,102.27148579992354,None,101.2848715998698,None,101.2848715998698,None,101.2848715998698,None,103.04168676999397,None,103.04168676999397,None,103.04168676999397,None,,,,,,,,,,,131,27,Female,2022-05-23_17h59.24.171,Boat,2022.1.1,59.89218209555224,
neutral,positive,1,k,k,,,,,0,9,9,4,,,,,,,,,,,,,,,,,,,,,,,,,,,,prac,2,2,1,positive,neutral,k,k,1,0.7508533999789506,103.05953749991022,104.08498320006765,104.04037559987046,None,103.05953749991022,None,103.05953749991022,None,103.05953749991022,None,104.79520466988906,None,104.79520466988906,None,104.79520466988906,None,,,,,,,,,,,131,27,Female,2022-05-23_17h59.24.171,Boat,2022.1.1,59.89218209555224,
negative,negative,2,j,l,,,,,0,10,10,9,,,,,,,,,,,,,,,,,,,,,,,,,,,,prac,2,2,2,negative,negative,l,l,1,1.0685293001588434,104.81117019988596,105.82379809999838,105.79029159992933,None,104.81117019988596,None,104.81117019988596,None,104.81117019988596,None,106.86577476998791,None,106.86577476998791,None,106.86577476998791,None,,,,,,,,,,,131,27,Female,2022-05-23_17h59.24.171,Boat,2022.1.1,59.89218209555224,
negative,negative,1,j,l,,,,,0,11,11,0,,,,,,,,,,,,,,,,,,,,,,,,,,,,prac,2,2,1,negative,negative,l,l,1,0.8470536000095308,106.89247599989176,107.9071148999501,107.88866639998741,None,106.89247599989176,None,106.89247599989176,None,106.89247599989176,None,108.71442617005668,None,108.71442617005668,None,108.71442617005668,None,,,,,,,,,,,131,27,Female,2022-05-23_17h59.24.171,Boat,2022.1.1,59.89218209555224,
positive,negative,1,l,j,,,,,0,12,12,5,,,,,,,,,,,,,,,,,,,,,,,,,,,,prac,1,1,1,negative,positive,j,j,1,0.84548500017263,108.74256899999455,109.75682989996858,109.73782310006209,None,108.74256899999455,None,108.74256899999455,None,108.74256899999455,None,110.56219527004286,None,110.56219527004286,None,110.56219527004286,None,,,,,,,,,,,131,27,Female,2022-05-23_17h59.24.171,Boat,2022.1.1,59.89218209555224,
neutral,negative,2,k,k,,,,,0,13,13,16,,,,,,,,,,,,,,,,,,,,,,,,,,,,prac,1,1,2,negative,neutral,k,k,1,0.7404208998195827,110.58761289995164,111.59054080001079,111.5738740998786,None,110.58761289995164,None,110.58761289995164,None,110.58761289995164,None,112.30644496991299,None,112.30644496991299,None,112.30644496991299,None,,,,,,,,,,,131,27,Female,2022-05-23_17h59.24.171,Boat,2022.1.1,59.89218209555224,
positive,positive,1,l,j,,,,,0,14,14,2,,,,,,,,,,,,,,,,,,,,,,,,,,,,prac,2,2,1,positive,positive,j,l,0,0.6233211001381278,112.32300950004719,113.35027309996076,113.30404409999028,None,112.32300950004719,None,112.32300950004719,None,112.32300950004719,None,113.93999950005673,None,113.93999950005673,None,113.93999950005673,None,,,,,,,,,,,131,27,Female,2022-05-23_17h59.24.171,Boat,2022.1.1,59.89218209555224,
neutral,positive,2,k,k,,,,,0,15,15,13,,,,,,,,,,,,,,,,,,,,,,,,,,,,prac,2,2,2,positive,neutral,k,k,1,0.9512628000229597,114.96052800002508,115.97142639989033,115.95226689986885,None,114.96052800002508,None,114.96052800002508,None,114.96052800002508,None,116.89601817000657,None,116.89601817000657,None,116.89601817000657,None,,,,,,,,,,,131,27,Female,2022-05-23_17h59.24.171,Boat,2022.1.1,59.89218209555224,
neutral,negative,1,k,k,,,,,0,16,16,7,,,,,,,,,,,,,,,,,,,,,,,,,,,,prac,1,1,1,negative,neutral,k,k,1,1.2609378998167813,116.9139364999719,117.92382510006428,117.89045759988949,None,116.9139364999719,None,116.9139364999719,None,116.9139364999719,None,119.16004307004623,None,119.16004307004623,None,119.16004307004623,None,,,,,,,,,,,131,27,Female,2022-05-23_17h59.24.171,Boat,2022.1.1,59.89218209555224,
positive,neutral,2,l,j,,,,,0,17,17,17,,,,,,,,,,,,,,,,,,,,,,,,,,,,prac,2,2,2,neutral,positive,j,j,1,0.8048686999827623,119.17921549989842,120.20098139997572,120.15428139991127,None,119.17921549989842,None,119.17921549989842,None,119.17921549989842,None,120.9689372700639,None,120.9689372700639,None,120.9689372700639,None,,,,,,,,,,,131,27,Female,2022-05-23_17h59.24.171,Boat,2022.1.1,59.89218209555224,
neutral,neutral,2,k,k,,,,,1,0,18,10,,,,,,,,,,,,,,,,,,,,,,,,,,,,prac,2,2,2,neutral,neutral,k,k,1,0.7544217999093235,120.9879101999104,121.99139619991183,121.974214799935,None,120.9879101999104,None,120.9879101999104,None,120.9879101999104,None,122.72480707005597,None,122.72480707005597,None,122.72480707005597,None,,,,,,,,,,,131,27,Female,2022-05-23_17h59.24.171,Boat,2022.1.1,59.89218209555224,
neutral,positive,2,k,k,,,,,1,1,19,13,,,,,,,,,,,,,,,,,,,,,,,,,,,,prac,1,1,2,positive,neutral,k,k,1,0.6526531998533756,122.74228450004011,123.76730629988015,123.72297600004822,None,122.74228450004011,None,122.74228450004011,None,122.74228450004011,None,124.37972266990691,None,124.37972266990691,None,124.37972266990691,None,,,,,,,,,,,131,27,Female,2022-05-23_17h59.24.171,Boat,2022.1.1,59.89218209555224,
negative,neutral,2,j,l,,,,,1,2,20,12,,,,,,,,,,,,,,,,,,,,,,,,,,,,prac,2,2,2,neutral,negative,l,l,1,0.7836871000472456,124.39778609992936,125.40759920002893,125.37187899998389,None,124.39778609992936,None,124.39778609992936,None,124.39778609992936,None,126.16414387007244,None,126.16414387007244,None,126.16414387007244,None,,,,,,,,,,,131,27,Female,2022-05-23_17h59.24.171,Boat,2022.1.1,59.89218209555224,
positive,neutral,2,l,j,,,,,1,3,21,17,,,,,,,,,,,,,,,,,,,,,,,,,,,,prac,2,2,2,neutral,positive,j,j,1,0.8548862000461668,126.18305139988661,127.20046149985865,127.15751829999499,None,126.18305139988661,None,126.18305139988661,None,126.18305139988661,None,128.02432217001916,None,128.02432217001916,None,128.02432217001916,None,,,,,,,,,,,131,27,Female,2022-05-23_17h59.24.171,Boat,2022.1.1,59.89218209555224,
positive,positive,1,l,j,,,,,1,4,22,2,,,,,,,,,,,,,,,,,,,,,,,,,,,,prac,1,1,1,positive,positive,j,j,1,1.3240776001475751,128.03997249994427,129.04096319992095,129.02278189989738,None,128.03997249994427,None,128.03997249994427,None,128.03997249994427,None,130.35088456999512,None,130.35088456999512,None,130.35088456999512,None,,,,,,,,,,,131,27,Female,2022-05-23_17h59.24.171,Boat,2022.1.1,59.89218209555224,
negative,negative,2,j,l,,,,,1,5,23,9,,,,,,,,,,,,,,,,,,,,,,,,,,,,prac,1,1,2,negative,negative,l,l,1,0.9139626999385655,130.36830560001545,131.38387749996036,131.34089499991387,None,130.36830560001545,None,130.36830560001545,None,130.36830560001545,None,132.26681527001784,None,132.26681527001784,None,132.26681527001784,None,,,,,,,,,,,131,27,Female,2022-05-23_17h59.24.171,Boat,2022.1.1,59.89218209555224,
negative,neutral,1,j,l,,,,,1,6,24,3,,,,,,,,,,,,,,,,,,,,,,,,,,,,prac,2,2,1,neutral,negative,l,l,1,0.8672444999683648,132.2846105999779,133.28722819988616,133.269082600018,None,132.2846105999779,None,132.2846105999779,None,132.2846105999779,None,134.13734106994235,None,134.13734106994235,None,134.13734106994235,None,,,,,,,,,,,131,27,Female,2022-05-23_17h59.24.171,Boat,2022.1.1,59.89218209555224,
positive,negative,2,l,j,,,,,1,7,25,14,,,,,,,,,,,,,,,,,,,,,,,,,,,,prac,1,1,2,negative,positive,j,j,1,0.8156769000925124,134.15259899990633,135.15493239997886,135.13601180003025,None,134.15259899990633,None,134.15259899990633,None,134.15259899990633,None,135.95476976986976,None,135.95476976986976,None,135.95476976986976,None,,,,,,,,,,,131,27,Female,2022-05-23_17h59.24.171,Boat,2022.1.1,59.89218209555224,
neutral,negative,1,k,k,,,,,1,8,26,7,,,,,,,,,,,,,,,,,,,,,,,,,,,,prac,1,1,1,negative,neutral,k,j,0,-0.7914586002007127,135.9727737000212,None,None,None,135.9727737000212,None,135.9727737000212,None,135.9727737000212,None,136.17604189994745,None,136.17604189994745,None,136.17604189994745,None,,,,,,,,,,,131,27,Female,2022-05-23_17h59.24.171,Boat,2022.1.1,59.89218209555224,
neutral,positive,1,k,k,,,,,1,9,27,4,,,,,,,,,,,,,,,,,,,,,,,,,,,,prac,1,1,1,positive,neutral,k,k,1,0.8322486998513341,139.19228289998136,140.20884500001557,140.17429580003954,None,139.19228289998136,None,139.19228289998136,None,139.19228289998136,None,141.0103091699537,None,141.0103091699537,None,141.0103091699537,None,,,,,,,,,,,131,27,Female,2022-05-23_17h59.24.171,Boat,2022.1.1,59.89218209555224,
neutral,neutral,1,k,k,,,,,1,10,28,1,,,,,,,,,,,,,,,,,,,,,,,,,,,,prac,1,1,1,neutral,neutral,k,k,1,0.6835781000554562,141.0285660000518,142.0409820000641,142.00470389984548,None,141.0285660000518,None,141.0285660000518,None,141.0285660000518,None,142.6951059698593,None,142.6951059698593,None,142.6951059698593,None,,,,,,,,,,,131,27,Female,2022-05-23_17h59.24.171,Boat,2022.1.1,59.89218209555224,
neutral,negative,2,k,k,,,,,1,11,29,16,,,,,,,,,,,,,,,,,,,,,,,,,,,,prac,1,1,2,negative,neutral,k,k,1,0.8244169999379665,142.71383149991743,143.72474249987863,143.69116170005873,None,142.71383149991743,None,142.71383149991743,None,142.71383149991743,None,144.52446527006106,None,144.52446527006106,None,144.52446527006106,None,,,,,,,,,,,131,27,Female,2022-05-23_17h59.24.171,Boat,2022.1.1,59.89218209555224,
positive,negative,1,l,j,,,,,1,12,30,5,,,,,,,,,,,,,,,,,,,,,,,,,,,,prac,2,2,1,negative,positive,j,j,1,0.7583576999604702,144.54167209984735,145.54597479989752,145.5271588000469,None,144.54167209984735,None,144.54167209984735,None,144.54167209984735,None,146.28651347006672,None,146.28651347006672,None,146.28651347006672,None,,,,,,,,,,,131,27,Female,2022-05-23_17h59.24.171,Boat,2022.1.1,59.89218209555224,
positive,neutral,1,l,j,,,,,1,13,31,8,,,,,,,,,,,,,,,,,,,,,,,,,,,,prac,2,2,1,neutral,positive,j,j,1,0.7383832999039441,146.30394989997149,147.30922900000587,147.2751287999563,None,146.30394989997149,None,146.30394989997149,None,146.30394989997149,None,148.0256267699413,None,148.0256267699413,None,148.0256267699413,None,,,,,,,,,,,131,27,Female,2022-05-23_17h59.24.171,Boat,2022.1.1,59.89218209555224,
positive,positive,2,l,j,,,,,1,14,32,11,,,,,,,,,,,,,,,,,,,,,,,,,,,,prac,2,2,2,positive,positive,j,j,1,1.5024429000914097,148.04357239999808,149.05812010006048,149.02466330002062,None,148.04357239999808,None,148.04357239999808,None,148.04357239999808,None,150.53898009983823,None,150.53898009983823,None,150.53898009983823,None,,,,,,,,,,,131,27,Female,2022-05-23_17h59.24.171,Boat,2022.1.1,59.89218209555224,
negative,negative,1,j,l,,,,,1,15,33,0,,,,,,,,,,,,,,,,,,,,,,,,,,,,prac,1,1,1,negative,negative,l,l,1,0.8898501999210566,151.56088200001977,152.5846789998468,152.5414803000167,None,151.56088200001977,None,151.56088200001977,None,151.56088200001977,None,153.43644866994583,None,153.43644866994583,None,153.43644866994583,None,,,,,,,,,,,131,27,Female,2022-05-23_17h59.24.171,Boat,2022.1.1,59.89218209555224,
negative,positive,2,j,l,,,,,1,16,34,15,,,,,,,,,,,,,,,,,,,,,,,,,,,,prac,1,1,2,positive,negative,l,l,1,0.7937059001997113,153.45602759998292,154.47053429996595,154.45151809998788,None,153.45602759998292,None,153.45602759998292,None,153.45602759998292,None,155.23120486987756,None,155.23120486987756,None,155.23120486987756,None,,,,,,,,,,,131,27,Female,2022-05-23_17h59.24.171,Boat,2022.1.1,59.89218209555224,
negative,positive,1,j,l,,,,,1,17,35,6,,,,,,,,,,,,,,,,,,,,,,,,,,,,prac,2,2,1,positive,negative,l,l,1,0.8996269998606294,155.25080220005475,156.26785469986498,156.22509750002064,None,155.25080220005475,None,155.25080220005475,None,155.25080220005475,None,157.134945169976,None,157.134945169976,None,157.134945169976,None,,,,,,,,,,,131,27,Female,2022-05-23_17h59.24.171,Boat,2022.1.1,59.89218209555224,
,,,,,,,,,,,,,,,,,,,,,,,,,,,,,,,,,,,,,,,,,,,,,,,,,,,,,,,,,,,,,,,,,,157.14811649988405,None,None,,,,,,,,131,27,Female,2022-05-23_17h59.24.171,Boat,2022.1.1,59.89218209555224,
,,,,,,,,,,,,,,,,,,,,,,,,,,,,,,,,,,,,,,,,,,,,,,,,,,,,,,,,,,,,,,,,,,,,,0.20092593,-0.085185185,1,0,0,0.005686670076102018,None,131,27,Female,2022-05-23_17h59.24.171,Boat,2022.1.1,59.89218209555224,
neutral,negative,2,k,k,,,,,,,,,0,0,0,16,,,,,,,,,,,,,,,,,,,,,,166.58670910005458,None,main,2,2,2,negative,neutral,k,k,1,0.9766364002134651,168.6060460000299,169.6087102999445,169.59177159983665,None,168.6060460000299,None,168.6060460000299,None,168.6060460000299,None,170.56376116997563,None,170.56376116997563,None,170.56376116997563,None,,,,,,,,,,,131,27,Female,2022-05-23_17h59.24.171,Boat,2022.1.1,59.89218209555224,
negative,positive,2,j,l,,,,,,,,,0,1,1,15,,,,,,,,,,,,,,,,,,,,,,,,main,1,1,2,positive,negative,l,l,1,0.8022374000865966,170.5855590000283,171.58683779998682,171.56828480004333,None,170.5855590000283,None,170.5855590000283,None,170.5855590000283,None,172.3699855699204,None,172.3699855699204,None,172.3699855699204,None,,,,,,,,,,,131,27,Female,2022-05-23_17h59.24.171,Boat,2022.1.1,59.89218209555224,
positive,negative,1,l,j,,,,,,,,,0,2,2,5,,,,,,,,,,,,,,,,,,,,,,,,main,1,1,1,negative,positive,j,j,1,0.8097357000224292,172.3889208000619,173.39173409994692,173.37525109993294,None,172.3889208000619,None,172.3889208000619,None,172.3889208000619,None,174.18351177005098,None,174.18351177005098,None,174.18351177005098,None,,,,,,,,,,,131,27,Female,2022-05-23_17h59.24.171,Boat,2022.1.1,59.89218209555224,
negative,neutral,1,j,l,,,,,,,,,0,3,3,3,,,,,,,,,,,,,,,,,,,,,,,,main,2,2,1,neutral,negative,l,l,1,0.7297455999068916,174.20158279989846,175.20870229997672,175.1736003998667,None,174.20158279989846,None,174.20158279989846,None,174.20158279989846,None,175.91444987007418,None,175.91444987007418,None,175.91444987007418,None,,,,,,,,,,,131,27,Female,2022-05-23_17h59.24.171,Boat,2022.1.1,59.89218209555224,
positive,positive,2,l,j,,,,,,,,,0,4,4,11,,,,,,,,,,,,,,,,,,,,,,,,main,2,2,2,positive,positive,j,j,1,0.8143436000682414,175.93257389985956,176.94231009995565,176.9084472998511,None,175.93257389985956,None,175.93257389985956,None,175.93257389985956,None,177.73134066998028,None,177.73134066998028,None,177.73134066998028,None,,,,,,,,,,,131,27,Female,2022-05-23_17h59.24.171,Boat,2022.1.1,59.89218209555224,
positive,positive,1,l,j,,,,,,,,,0,5,5,2,,,,,,,,,,,,,,,,,,,,,,,,main,1,1,1,positive,positive,j,j,1,0.8165304998401552,177.74917969992384,178.75887889997102,178.72549799992703,None,177.74917969992384,None,177.74917969992384,None,177.74917969992384,None,179.55210056989455,None,179.55210056989455,None,179.55210056989455,None,,,,,,,,,,,131,27,Female,2022-05-23_17h59.24.171,Boat,2022.1.1,59.89218209555224,
negative,negative,2,j,l,,,,,,,,,0,6,6,9,,,,,,,,,,,,,,,,,,,,,,,,main,1,1,2,negative,negative,l,l,1,0.7776101999916136,179.56868699984625,180.57645220006816,180.54218150000088,None,179.56868699984625,None,179.56868699984625,None,179.56868699984625,None,181.33082176996396,None,181.33082176996396,None,181.33082176996396,None,,,,,,,,,,,131,27,Female,2022-05-23_17h59.24.171,Boat,2022.1.1,59.89218209555224,
neutral,neutral,2,k,k,,,,,,,,,0,7,7,10,,,,,,,,,,,,,,,,,,,,,,,,main,1,1,2,neutral,neutral,k,k,1,0.6837532999925315,181.34748920006678,182.36054229992442,182.3252489999868,None,181.34748920006678,None,181.34748920006678,None,181.34748920006678,None,183.0187573700212,None,183.0187573700212,None,183.0187573700212,None,,,,,,,,,,,131,27,Female,2022-05-23_17h59.24.171,Boat,2022.1.1,59.89218209555224,
positive,negative,2,l,j,,,,,,,,,0,8,8,14,,,,,,,,,,,,,,,,,,,,,,,,main,1,1,2,negative,positive,j,j,1,0.7635571998544037,183.03505359985866,184.0460767999757,184.01049749995582,None,183.03505359985866,None,183.03505359985866,None,183.03505359985866,None,184.7845243699383,None,184.7845243699383,None,184.7845243699383,None,,,,,,,,,,,131,27,Female,2022-05-23_17h59.24.171,Boat,2022.1.1,59.89218209555224,
negative,neutral,2,j,l,,,,,,,,,0,9,9,12,,,,,,,,,,,,,,,,,,,,,,,,main,1,1,2,neutral,negative,l,l,1,0.6942765999119729,184.8021932998672,185.80806529987603,185.78938289987855,None,184.8021932998672,None,184.8021932998672,None,184.8021932998672,None,186.47956437007525,None,186.47956437007525,None,186.47956437007525,None,,,,,,,,,,,131,27,Female,2022-05-23_17h59.24.171,Boat,2022.1.1,59.89218209555224,
neutral,positive,1,k,k,,,,,,,,,0,10,10,4,,,,,,,,,,,,,,,,,,,,,,,,main,2,2,1,positive,neutral,k,k,1,0.7299267998896539,186.49829589994624,187.5091627999209,187.47232439997606,None,186.49829589994624,None,186.49829589994624,None,186.49829589994624,None,188.21321696992965,None,188.21321696992965,None,188.21321696992965,None,,,,,,,,,,,131,27,Female,2022-05-23_17h59.24.171,Boat,2022.1.1,59.89218209555224,
negative,positive,1,j,l,,,,,,,,,0,11,11,6,,,,,,,,,,,,,,,,,,,,,,,,main,2,2,1,positive,negative,l,l,1,0.7932072998955846,188.23019539983943,189.25167609984055,189.20891160005704,None,188.23019539983943,None,188.23019539983943,None,188.23019539983943,None,190.0089937699493,None,190.0089937699493,None,190.0089937699493,None,,,,,,,,,,,131,27,Female,2022-05-23_17h59.24.171,Boat,2022.1.1,59.89218209555224,
neutral,positive,2,k,k,,,,,,,,,0,12,12,13,,,,,,,,,,,,,,,,,,,,,,,,main,2,2,2,positive,neutral,k,k,1,0.6795668001286685,190.02668979996815,191.04134200001135,191.02251629997045,None,190.02668979996815,None,190.02668979996815,None,190.02668979996815,None,191.6922527700197,None,191.6922527700197,None,191.6922527700197,None,,,,,,,,,,,131,27,Female,2022-05-23_17h59.24.171,Boat,2022.1.1,59.89218209555224,
neutral,neutral,1,k,k,,,,,,,,,0,13,13,1,,,,,,,,,,,,,,,,,,,,,,,,main,1,1,1,neutral,neutral,k,k,1,2.1172325001098216,191.70958189992234,192.72567359986715,192.69072659988888,None,191.70958189992234,None,191.70958189992234,None,191.70958189992234,None,194.81649219989777,None,194.81649219989777,None,194.81649219989777,None,,,,,,,,,,,131,27,Female,2022-05-23_17h59.24.171,Boat,2022.1.1,59.89218209555224,
positive,neutral,1,l,j,,,,,,,,,0,14,14,8,,,,,,,,,,,,,,,,,,,,,,,,main,1,1,1,neutral,positive,j,j,1,0.886689699953422,195.82754480000585,196.84253460005857,196.80560239986517,None,195.82754480000585,None,195.82754480000585,None,195.82754480000585,None,197.70097386995332,None,197.70097386995332,None,197.70097386995332,None,,,,,,,,,,,131,27,Female,2022-05-23_17h59.24.171,Boat,2022.1.1,59.89218209555224,
negative,negative,1,j,l,,,,,,,,,0,15,15,0,,,,,,,,,,,,,,,,,,,,,,,,main,1,1,1,negative,negative,l,l,1,0.8673666000831872,197.71805649995804,198.7307557000313,198.695168599952,None,197.71805649995804,None,197.71805649995804,None,197.71805649995804,None,199.57108326996678,None,199.57108326996678,None,199.57108326996678,None,,,,,,,,,,,131,27,Female,2022-05-23_17h59.24.171,Boat,2022.1.1,59.89218209555224,
positive,neutral,2,l,j,,,,,,,,,0,16,16,17,,,,,,,,,,,,,,,,,,,,,,,,main,2,2,2,neutral,positive,j,l,0,1.0318127998616546,199.58849609992467,200.59212039993145,200.57344639999792,None,199.58849609992467,None,199.58849609992467,None,199.58849609992467,None,201.60888820001855,None,201.60888820001855,None,201.60888820001855,None,,,,,,,,,,,131,27,Female,2022-05-23_17h59.24.171,Boat,2022.1.1,59.89218209555224,
neutral,negative,1,k,k,,,,,,,,,0,17,17,7,,,,,,,,,,,,,,,,,,,,,,,,main,1,1,1,negative,neutral,k,k,1,0.7698125001043081,202.6283853999339,203.64281630003825,203.6057853999082,None,202.6283853999339,None,202.6283853999339,None,202.6283853999339,None,204.38473577001133,None,204.38473577001133,None,204.38473577001133,None,,,,,,,,,,,131,27,Female,2022-05-23_17h59.24.171,Boat,2022.1.1,59.89218209555224,
positive,neutral,1,l,j,,,,,,,,,1,0,18,8,,,,,,,,,,,,,,,,,,,,,,,,main,1,1,1,neutral,positive,j,j,1,0.710089199943468,204.40391479991376,205.40921620000154,205.39265559986234,None,204.40391479991376,None,204.40391479991376,None,204.40391479991376,None,206.09811217007228,None,206.09811217007228,None,206.09811217007228,None,,,,,,,,,,,131,27,Female,2022-05-23_17h59.24.171,Boat,2022.1.1,59.89218209555224,
positive,positive,1,l,j,,,,,,,,,1,1,19,2,,,,,,,,,,,,,,,,,,,,,,,,main,1,1,1,positive,positive,j,j,1,0.6345264001283795,206.1153209998738,207.1376455000136,207.0926107999403,None,206.1153209998738,None,206.1153209998738,None,206.1153209998738,None,207.7351003698539,None,207.7351003698539,None,207.7351003698539,None,,,,,,,,,,,131,27,Female,2022-05-23_17h59.24.171,Boat,2022.1.1,59.89218209555224,
neutral,neutral,2,k,k,,,,,,,,,1,2,20,10,,,,,,,,,,,,,,,,,,,,,,,,main,1,1,2,neutral,neutral,k,k,1,1.0672598998062313,207.75318429991603,208.75709129986353,208.73856780002825,None,207.75318429991603,None,207.75318429991603,None,207.75318429991603,None,209.80623936997728,None,209.80623936997728,None,209.80623936997728,None,,,,,,,,,,,131,27,Female,2022-05-23_17h59.24.171,Boat,2022.1.1,59.89218209555224,
neutral,negative,2,k,k,,,,,,,,,1,3,21,16,,,,,,,,,,,,,,,,,,,,,,,,main,1,1,2,negative,neutral,k,k,1,0.8064319998957217,209.8262129998766,210.82607409986667,210.80923560005613,None,209.8262129998766,None,209.8262129998766,None,209.8262129998766,None,211.61386787001976,None,211.61386787001976,None,211.61386787001976,None,,,,,,,,,,,131,27,Female,2022-05-23_17h59.24.171,Boat,2022.1.1,59.89218209555224,
neutral,negative,1,k,k,,,,,,,,,1,4,22,7,,,,,,,,,,,,,,,,,,,,,,,,main,2,2,1,negative,neutral,k,k,1,0.8980666999705136,211.6313855999615,212.63798750005662,212.6195574000012,None,211.6313855999615,None,211.6313855999615,None,211.6313855999615,None,213.51444837003947,None,213.51444837003947,None,213.51444837003947,None,,,,,,,,,,,131,27,Female,2022-05-23_17h59.24.171,Boat,2022.1.1,59.89218209555224,
negative,negative,2,j,l,,,,,,,,,1,5,23,9,,,,,,,,,,,,,,,,,,,,,,,,main,2,2,2,negative,negative,l,l,1,0.6737804999575019,213.53207329986617,214.5440668000374,214.5075381998904,None,213.53207329986617,None,213.53207329986617,None,213.53207329986617,None,215.19179566991517,None,215.19179566991517,None,215.19179566991517,None,,,,,,,,,,,131,27,Female,2022-05-23_17h59.24.171,Boat,2022.1.1,59.89218209555224,
negative,neutral,2,j,l,,,,,,,,,1,6,24,12,,,,,,,,,,,,,,,,,,,,,,,,main,1,1,2,neutral,negative,l,l,1,0.5992638000752777,215.2099431999959,216.22627640003338,216.1916553999763,None,215.2099431999959,None,215.2099431999959,None,215.2099431999959,None,216.79274827004411,None,216.79274827004411,None,216.79274827004411,None,,,,,,,,,,,131,27,Female,2022-05-23_17h59.24.171,Boat,2022.1.1,59.89218209555224,
positive,neutral,2,l,j,,,,,,,,,1,7,25,17,,,,,,,,,,,,,,,,,,,,,,,,main,1,1,2,neutral,positive,j,j,1,1.1657159999012947,216.81225620000623,217.83760009985417,217.79248219984584,None,216.81225620000623,None,216.81225620000623,None,216.81225620000623,None,218.9621496700682,None,218.9621496700682,None,218.9621496700682,None,,,,,,,,,,,131,27,Female,2022-05-23_17h59.24.171,Boat,2022.1.1,59.89218209555224,
negative,neutral,1,j,l,,,,,,,,,1,8,26,3,,,,,,,,,,,,,,,,,,,,,,,,main,1,1,1,neutral,negative,l,l,1,0.7750852000899613,218.98098109988496,219.9931651998777,219.9580554999411,None,218.98098109988496,None,218.98098109988496,None,218.98098109988496,None,220.74116956996733,None,220.74116956996733,None,220.74116956996733,None,,,,,,,,,,,131,27,Female,2022-05-23_17h59.24.171,Boat,2022.1.1,59.89218209555224,
positive,negative,1,l,j,,,,,,,,,1,9,27,5,,,,,,,,,,,,,,,,,,,,,,,,main,1,1,1,negative,positive,j,j,1,0.8510210998356342,220.75876219989732,221.75953409983777,221.741671100026,None,220.75876219989732,None,220.75876219989732,None,220.75876219989732,None,222.593159769848,None,222.593159769848,None,222.593159769848,None,,,,,,,,,,,131,27,Female,2022-05-23_17h59.24.171,Boat,2022.1.1,59.89218209555224,
negative,positive,2,j,l,,,,,,,,,1,10,28,15,,,,,,,,,,,,,,,,,,,,,,,,main,2,2,2,positive,negative,l,l,1,0.7860611998476088,222.61394619988278,223.62837359984405,223.5925543999765,None,222.61394619988278,None,222.61394619988278,None,222.61394619988278,None,224.38374307001942,None,224.38374307001942,None,224.38374307001942,None,,,,,,,,,,,131,27,Female,2022-05-23_17h59.24.171,Boat,2022.1.1,59.89218209555224,
positive,positive,2,l,j,,,,,,,,,1,11,29,11,,,,,,,,,,,,,,,,,,,,,,,,main,1,1,2,positive,positive,j,j,1,0.7549851001240313,224.40177099988796,225.4156607000623,225.378646499943,None,224.40177099988796,None,224.40177099988796,None,224.40177099988796,None,226.14270087000915,None,226.14270087000915,None,226.14270087000915,None,,,,,,,,,,,131,27,Female,2022-05-23_17h59.24.171,Boat,2022.1.1,59.89218209555224,
neutral,neutral,1,k,k,,,,,,,,,1,12,30,1,,,,,,,,,,,,,,,,,,,,,,,,main,2,2,1,neutral,neutral,k,k,1,0.8876386000774801,226.1590992999263,227.17567449994385,227.15655600000173,None,226.1590992999263,None,226.1590992999263,None,226.1590992999263,None,228.03141356999987,None,228.03141356999987,None,228.03141356999987,None,,,,,,,,,,,131,27,Female,2022-05-23_17h59.24.171,Boat,2022.1.1,59.89218209555224,
negative,positive,1,j,l,,,,,,,,,1,13,31,6,,,,,,,,,,,,,,,,,,,,,,,,main,1,1,1,positive,negative,l,l,1,1.9079277000855654,228.04983270005323,229.0605440000072,229.02433299995027,None,228.04983270005323,None,228.04983270005323,None,228.04983270005323,None,230.94842149992473,None,230.94842149992473,None,230.94842149992473,None,,,,,,,,,,,131,27,Female,2022-05-23_17h59.24.171,Boat,2022.1.1,59.89218209555224,
neutral,positive,2,k,k,,,,,,,,,1,14,32,13,,,,,,,,,,,,,,,,,,,,,,,,main,2,2,2,positive,neutral,k,k,1,0.8546122000552714,231.9634098999668,232.98802489996888,232.94351290003397,None,231.9634098999668,None,231.9634098999668,None,231.9634098999668,None,233.80318466988393,None,233.80318466988393,None,233.80318466988393,None,,,,,,,,,,,131,27,Female,2022-05-23_17h59.24.171,Boat,2022.1.1,59.89218209555224,
negative,negative,1,j,l,,,,,,,,,1,15,33,0,,,,,,,,,,,,,,,,,,,,,,,,main,1,1,1,negative,negative,l,l,1,1.219495499972254,233.82052710000426,234.82651409995742,234.80784739996307,None,233.82052710000426,None,233.82052710000426,None,233.82052710000426,None,236.02543987003156,None,236.02543987003156,None,236.02543987003156,None,,,,,,,,,,,131,27,Female,2022-05-23_17h59.24.171,Boat,2022.1.1,59.89218209555224,
positive,negative,2,l,j,,,,,,,,,1,16,34,14,,,,,,,,,,,,,,,,,,,,,,,,main,2,2,2,negative,positive,j,j,1,0.8079700998496264,236.04305189987645,237.04339629993774,237.02553620003164,None,236.04305189987645,None,236.04305189987645,None,236.04305189987645,None,237.83673886996695,None,237.83673886996695,None,237.83673886996695,None,,,,,,,,,,,131,27,Female,2022-05-23_17h59.24.171,Boat,2022.1.1,59.89218209555224,
neutral,positive,1,k,k,,,,,,,,,1,17,35,4,,,,,,,,,,,,,,,,,,,,,,,,main,2,2,1,positive,neutral,k,k,1,0.8323571998625994,237.85678449994884,238.85989529988728,238.8431450999342,None,237.85678449994884,None,237.85678449994884,None,237.85678449994884,None,239.673232469894,None,239.673232469894,None,239.673232469894,None,,,,,,,,,,,131,27,Female,2022-05-23_17h59.24.171,Boat,2022.1.1,59.89218209555224,
positive,negative,2,l,j,,,,,,,,,2,0,36,14,,,,,,,,,,,,,,,,,,,,,,,,main,2,2,2,negative,positive,j,j,1,4.0220486000180244,239.69015030004084,240.69632069999352,240.66182609996758,None,239.69015030004084,None,239.69015030004084,None,239.69015030004084,None,244.70138409989886,None,244.70138409989886,None,244.70138409989886,None,,,,,,,,,,,131,27,Female,2022-05-23_17h59.24.171,Boat,2022.1.1,59.89218209555224,
positive,neutral,2,l,j,,,,,,,,,2,1,37,17,,,,,,,,,,,,,,,,,,,,,,,,main,2,2,2,neutral,positive,j,j,1,0.670139100169763,245.71224309992976,246.72933260002173,246.6938614998944,None,245.71224309992976,None,245.71224309992976,None,245.71224309992976,None,247.36717107002625,None,247.36717107002625,None,247.36717107002625,None,,,,,,,,,,,131,27,Female,2022-05-23_17h59.24.171,Boat,2022.1.1,59.89218209555224,
neutral,negative,2,k,k,,,,,,,,,2,2,38,16,,,,,,,,,,,,,,,,,,,,,,,,main,1,1,2,negative,neutral,k,k,1,0.8169536001514643,247.38509269990027,248.39357329998165,248.37587250000797,None,247.38509269990027,None,247.38509269990027,None,247.38509269990027,None,249.18888877001592,None,249.18888877001592,None,249.18888877001592,None,,,,,,,,,,,131,27,Female,2022-05-23_17h59.24.171,Boat,2022.1.1,59.89218209555224,
negative,positive,1,j,l,,,,,,,,,2,3,39,6,,,,,,,,,,,,,,,,,,,,,,,,main,1,1,1,positive,negative,l,l,1,0.7796310000121593,249.20760109997354,250.21121019986458,250.19446499994956,None,249.20760109997354,None,249.20760109997354,None,249.20760109997354,None,250.97114506987856,None,250.97114506987856,None,250.97114506987856,None,,,,,,,,,,,131,27,Female,2022-05-23_17h59.24.171,Boat,2022.1.1,59.89218209555224,
negative,negative,2,j,l,,,,,,,,,2,4,40,9,,,,,,,,,,,,,,,,,,,,,,,,main,1,1,2,negative,negative,l,l,1,4.392740400042385,250.99064099998213,252.00803669984452,251.9704456999898,None,250.99064099998213,None,250.99064099998213,None,250.99064099998213,None,256.3702569999732,None,256.3702569999732,None,256.3702569999732,None,,,,,,,,,,,131,27,Female,2022-05-23_17h59.24.171,Boat,2022.1.1,59.89218209555224,
neutral,negative,1,k,k,,,,,,,,,2,5,41,7,,,,,,,,,,,,,,,,,,,,,,,,main,2,2,1,negative,neutral,k,k,1,0.8252221001312137,257.3800216000527,258.39438209985383,258.36048739985563,None,257.3800216000527,None,257.3800216000527,None,257.3800216000527,None,259.19067516988144,None,259.19067516988144,None,259.19067516988144,None,,,,,,,,,,,131,27,Female,2022-05-23_17h59.24.171,Boat,2022.1.1,59.89218209555224,
negative,positive,2,j,l,,,,,,,,,2,6,42,15,,,,,,,,,,,,,,,,,,,,,,,,main,1,1,2,positive,negative,l,l,1,0.7915926999412477,259.2103883000091,260.2105010000523,260.1928560999222,None,259.2103883000091,None,259.2103883000091,None,259.2103883000091,None,260.9855275698472,None,260.9855275698472,None,260.9855275698472,None,,,,,,,,,,,131,27,Female,2022-05-23_17h59.24.171,Boat,2022.1.1,59.89218209555224,
positive,positive,1,l,j,,,,,,,,,2,7,43,2,,,,,,,,,,,,,,,,,,,,,,,,main,2,2,1,positive,positive,j,j,1,1.103441100101918,261.0033757998608,262.0105401999317,261.9760061998386,None,261.0033757998608,None,261.0033757998608,None,261.0033757998608,None,263.0922298698686,None,263.0922298698686,None,263.0922298698686,None,,,,,,,,,,,131,27,Female,2022-05-23_17h59.24.171,Boat,2022.1.1,59.89218209555224,
neutral,neutral,1,k,k,,,,,,,,,2,8,44,1,,,,,,,,,,,,,,,,,,,,,,,,main,2,2,1,neutral,neutral,k,k,1,0.7556457000318915,263.1095344000496,264.1106662999373,264.09379770001397,None,263.1095344000496,None,263.1095344000496,None,263.1095344000496,None,264.84888967005537,None,264.84888967005537,None,264.84888967005537,None,,,,,,,,,,,131,27,Female,2022-05-23_17h59.24.171,Boat,2022.1.1,59.89218209555224,
negative,neutral,1,j,l,,,,,,,,,2,9,45,3,,,,,,,,,,,,,,,,,,,,,,,,main,1,1,1,neutral,negative,l,l,1,0.7570301999803632,264.8670440998394,265.87920369999483,265.84389829984866,None,264.8670440998394,None,264.8670440998394,None,264.8670440998394,None,266.61057706987486,None,266.61057706987486,None,266.61057706987486,None,,,,,,,,,,,131,27,Female,2022-05-23_17h59.24.171,Boat,2022.1.1,59.89218209555224,
positive,positive,2,l,j,,,,,,,,,2,10,46,11,,,,,,,,,,,,,,,,,,,,,,,,main,2,2,2,positive,positive,j,j,1,0.832852500025183,266.6265108999796,267.6367844999768,267.6100496998988,None,266.6265108999796,None,266.6265108999796,None,266.6265108999796,None,268.44519646996633,None,268.44519646996633,None,268.44519646996633,None,,,,,,,,,,,131,27,Female,2022-05-23_17h59.24.171,Boat,2022.1.1,59.89218209555224,
positive,negative,1,l,j,,,,,,,,,2,11,47,5,,,,,,,,,,,,,,,,,,,,,,,,main,2,2,1,negative,positive,j,j,1,0.8455512998625636,268.46342469984666,269.47824539989233,269.4406915998552,None,268.46342469984666,None,268.46342469984666,None,268.46342469984666,None,270.2942475699354,None,270.2942475699354,None,270.2942475699354,None,,,,,,,,,,,131,27,Female,2022-05-23_17h59.24.171,Boat,2022.1.1,59.89218209555224,
neutral,positive,2,k,k,,,,,,,,,2,12,48,13,,,,,,,,,,,,,,,,,,,,,,,,main,2,2,2,positive,neutral,k,k,1,0.7432071000803262,270.31425950000994,271.327219999861,271.2914815999102,None,270.31425950000994,None,270.31425950000994,None,270.31425950000994,None,272.0420988699887,None,272.0420988699887,None,272.0420988699887,None,,,,,,,,,,,131,27,Female,2022-05-23_17h59.24.171,Boat,2022.1.1,59.89218209555224,
negative,neutral,2,j,l,,,,,,,,,2,13,49,12,,,,,,,,,,,,,,,,,,,,,,,,main,1,1,2,neutral,negative,l,l,1,0.5940022000577301,272.0612395000644,273.08908790000714,273.0433062999509,None,272.0612395000644,None,272.0612395000644,None,272.0612395000644,None,273.6396754700225,None,273.6396754700225,None,273.6396754700225,None,,,,,,,,,,,131,27,Female,2022-05-23_17h59.24.171,Boat,2022.1.1,59.89218209555224,
neutral,positive,1,k,k,,,,,,,,,2,14,50,4,,,,,,,,,,,,,,,,,,,,,,,,main,2,2,1,positive,neutral,k,k,1,0.6206159999128431,273.66034079995006,274.6609789999202,274.6444703999441,None,273.66034079995006,None,273.66034079995006,None,273.66034079995006,None,275.2606289700605,None,275.2606289700605,None,275.2606289700605,None,,,,,,,,,,,131,27,Female,2022-05-23_17h59.24.171,Boat,2022.1.1,59.89218209555224,
positive,neutral,1,l,j,,,,,,,,,2,15,51,8,,,,,,,,,,,,,,,,,,,,,,,,main,2,2,1,neutral,positive,j,k,0,0.618276699911803,275.2790385999251,276.30390780000016,276.26092249993235,None,275.2790385999251,None,275.2790385999251,None,275.2790385999251,None,276.88700219988823,None,276.88700219988823,None,276.88700219988823,None,,,,,,,,,,,131,27,Female,2022-05-23_17h59.24.171,Boat,2022.1.1,59.89218209555224,
neutral,neutral,2,k,k,,,,,,,,,2,16,52,10,,,,,,,,,,,,,,,,,,,,,,,,main,1,1,2,neutral,neutral,k,k,1,0.9163955000694841,277.89824249991216,278.9109004999045,278.8938104000408,None,277.89824249991216,None,277.89824249991216,None,277.89824249991216,None,279.7982640699018,None,279.7982640699018,None,279.7982640699018,None,,,,,,,,,,,131,27,Female,2022-05-23_17h59.24.171,Boat,2022.1.1,59.89218209555224,
negative,negative,1,j,l,,,,,,,,,2,17,53,0,,,,,,,,,,,,,,,,,,,,,,,,main,2,2,1,negative,negative,l,l,1,0.9158242999110371,279.8165207998827,280.82995609985664,280.794701699866,None,279.8165207998827,None,279.8165207998827,None,279.8165207998827,None,281.7163289698772,None,281.7163289698772,None,281.7163289698772,None,,,,,,,,,,,131,27,Female,2022-05-23_17h59.24.171,Boat,2022.1.1,59.89218209555224,
positive,negative,2,l,j,,,,,,,,,3,0,54,14,,,,,,,,,,,,,,,,,,,,,,,,main,2,2,2,negative,positive,j,j,1,0.745120600098744,281.7342496998608,282.75398140004836,282.7110238999594,None,281.7342496998608,None,281.7342496998608,None,281.7342496998608,None,283.46433237004095,None,283.46433237004095,None,283.46433237004095,None,,,,,,,,,,,131,27,Female,2022-05-23_17h59.24.171,Boat,2022.1.1,59.89218209555224,
positive,neutral,1,l,j,,,,,,,,,3,1,55,8,,,,,,,,,,,,,,,,,,,,,,,,main,2,2,1,neutral,positive,j,j,1,-0.6701174001209438,283.4833185998723,None,None,None,283.4833185998723,None,283.4833185998723,None,283.4833185998723,None,283.80227190000005,None,283.80227190000005,None,283.80227190000005,None,,,,,,,,,,,131,27,Female,2022-05-23_17h59.24.171,Boat,2022.1.1,59.89218209555224,
positive,negative,1,l,j,,,,,,,,,3,2,56,5,,,,,,,,,,,,,,,,,,,,,,,,main,1,1,1,negative,positive,j,j,1,1.1165606998838484,286.81305560003966,287.8286164999008,287.79468299984,None,286.81305560003966,None,286.81305560003966,None,286.81305560003966,None,288.9145106700715,None,288.9145106700715,None,288.9145106700715,None,,,,,,,,,,,131,27,Female,2022-05-23_17h59.24.171,Boat,2022.1.1,59.89218209555224,
negative,neutral,2,j,l,,,,,,,,,3,3,57,12,,,,,,,,,,,,,,,,,,,,,,,,main,2,2,2,neutral,negative,l,l,1,1.0165101001039147,288.9349082999397,289.94471960002556,289.9110022999812,None,288.9349082999397,None,288.9349082999397,None,288.9349082999397,None,290.93428716990167,None,290.93428716990167,None,290.93428716990167,None,,,,,,,,,,,131,27,Female,2022-05-23_17h59.24.171,Boat,2022.1.1,59.89218209555224,
positive,positive,2,l,j,,,,,,,,,3,4,58,11,,,,,,,,,,,,,,,,,,,,,,,,main,2,2,2,positive,positive,j,j,1,0.7415553999599069,290.9538682999555,291.9649085998535,291.9279056000523,None,290.9538682999555,None,290.9538682999555,None,290.9538682999555,None,292.6787606698461,None,292.6787606698461,None,292.6787606698461,None,,,,,,,,,,,131,27,Female,2022-05-23_17h59.24.171,Boat,2022.1.1,59.89218209555224,
positive,positive,1,l,j,,,,,,,,,3,5,59,2,,,,,,,,,,,,,,,,,,,,,,,,main,2,2,1,positive,positive,j,j,1,0.6381711999420077,292.6980105000548,293.7151509998366,293.67866689991206,None,292.6980105000548,None,292.6980105000548,None,292.6980105000548,None,294.32140726987274,None,294.32140726987274,None,294.32140726987274,None,,,,,,,,,,,131,27,Female,2022-05-23_17h59.24.171,Boat,2022.1.1,59.89218209555224,
neutral,neutral,1,k,k,,,,,,,,,3,6,60,1,,,,,,,,,,,,,,,,,,,,,,,,main,2,2,1,neutral,neutral,k,k,1,0.762724099913612,294.3389053000137,295.34524499997497,295.31143049988896,None,294.3389053000137,None,294.3389053000137,None,294.3389053000137,None,296.0838650699705,None,296.0838650699705,None,296.0838650699705,None,,,,,,,,,,,131,27,Female,2022-05-23_17h59.24.171,Boat,2022.1.1,59.89218209555224,
negative,positive,2,j,l,,,,,,,,,3,7,61,15,,,,,,,,,,,,,,,,,,,,,,,,main,2,2,2,positive,negative,l,l,1,1.3342856999952346,296.1033766998444,297.11144570005126,297.09256389993243,None,296.1033766998444,None,296.1033766998444,None,296.1033766998444,None,298.42354137003423,None,298.42354137003423,None,298.42354137003423,None,,,,,,,,,,,131,27,Female,2022-05-23_17h59.24.171,Boat,2022.1.1,59.89218209555224,
neutral,positive,2,k,k,,,,,,,,,3,8,62,13,,,,,,,,,,,,,,,,,,,,,,,,main,1,1,2,positive,neutral,k,k,1,0.7761725999880582,298.44458299991675,299.4468530998565,299.41095349984244,None,298.44458299991675,None,298.44458299991675,None,298.44458299991675,None,300.20109506994487,None,300.20109506994487,None,300.20109506994487,None,,,,,,,,,,,131,27,Female,2022-05-23_17h59.24.171,Boat,2022.1.1,59.89218209555224,
neutral,negative,2,k,k,,,,,,,,,3,9,63,16,,,,,,,,,,,,,,,,,,,,,,,,main,1,1,2,negative,neutral,k,k,1,3.392101100180298,300.21882850001566,301.2292166999541,301.19472949998453,None,300.21882850001566,None,300.21882850001566,None,300.21882850001566,None,304.6019085999578,None,304.6019085999578,None,304.6019085999578,None,,,,,,,,,,,131,27,Female,2022-05-23_17h59.24.171,Boat,2022.1.1,59.89218209555224,
negative,negative,1,j,l,,,,,,,,,3,10,64,0,,,,,,,,,,,,,,,,,,,,,,,,main,1,1,1,negative,negative,l,l,1,0.8140300998929888,305.6144961998798,306.63992629991844,306.59409729996696,None,305.6144961998798,None,305.6144961998798,None,305.6144961998798,None,307.41329417000526,None,307.41329417000526,None,307.41329417000526,None,,,,,,,,,,,131,27,Female,2022-05-23_17h59.24.171,Boat,2022.1.1,59.89218209555224,
neutral,positive,1,k,k,,,,,,,,,3,11,65,4,,,,,,,,,,,,,,,,,,,,,,,,main,2,2,1,positive,neutral,k,k,1,1.0509238000959158,307.4336550999433,308.4484836999327,308.41130839986727,None,307.4336550999433,None,307.4336550999433,None,307.4336550999433,None,309.4664327699691,None,309.4664327699691,None,309.4664327699691,None,,,,,,,,,,,131,27,Female,2022-05-23_17h59.24.171,Boat,2022.1.1,59.89218209555224,
negative,neutral,1,j,l,,,,,,,,,3,12,66,3,,,,,,,,,,,,,,,,,,,,,,,,main,2,2,1,neutral,negative,l,l,1,0.8298911000601947,309.48772410000674,310.50814579986036,310.4677374998573,None,309.48772410000674,None,309.48772410000674,None,309.48772410000674,None,311.30021036993713,None,311.30021036993713,None,311.30021036993713,None,,,,,,,,,,,131,27,Female,2022-05-23_17h59.24.171,Boat,2022.1.1,59.89218209555224,
positive,neutral,2,l,j,,,,,,,,,3,13,67,17,,,,,,,,,,,,,,,,,,,,,,,,main,2,2,2,neutral,positive,j,j,1,0.790345000103116,311.3188083998393,312.33206649986096,312.29606759990565,None,311.3188083998393,None,311.3188083998393,None,311.3188083998393,None,313.0952482700348,None,313.0952482700348,None,313.0952482700348,None,,,,,,,,,,,131,27,Female,2022-05-23_17h59.24.171,Boat,2022.1.1,59.89218209555224,
negative,negative,2,j,l,,,,,,,,,3,14,68,9,,,,,,,,,,,,,,,,,,,,,,,,main,2,2,2,negative,negative,l,l,1,0.919294600142166,313.1135179998819,314.12839880003594,314.0943976000417,None,313.1135179998819,None,313.1135179998819,None,313.1135179998819,None,315.0160891699605,None,315.0160891699605,None,315.0160891699605,None,,,,,,,,,,,131,27,Female,2022-05-23_17h59.24.171,Boat,2022.1.1,59.89218209555224,
neutral,negative,1,k,k,,,,,,,,,3,15,69,7,,,,,,,,,,,,,,,,,,,,,,,,main,2,2,1,negative,neutral,k,k,1,0.8502715998329222,315.03380319988355,316.04804819985293,316.0119455999229,None,315.03380319988355,None,315.03380319988355,None,315.03380319988355,None,316.87040846999736,None,316.87040846999736,None,316.87040846999736,None,,,,,,,,,,,131,27,Female,2022-05-23_17h59.24.171,Boat,2022.1.1,59.89218209555224,
negative,positive,1,j,l,,,,,,,,,3,16,70,6,,,,,,,,,,,,,,,,,,,,,,,,main,2,2,1,positive,negative,l,l,1,0.9631435999181122,316.8879445998464,317.89397149998695,317.87513309996575,None,316.8879445998464,None,316.8879445998464,None,316.8879445998464,None,318.83479147003965,None,318.83479147003965,None,318.83479147003965,None,,,,,,,,,,,131,27,Female,2022-05-23_17h59.24.171,Boat,2022.1.1,59.89218209555224,
neutral,neutral,2,k,k,,,,,,,,,3,17,71,10,,,,,,,,,,,,,,,,,,,,,,,,main,1,1,2,neutral,neutral,k,k,1,0.6214829999953508,318.85228660004213,319.8616631999612,319.8255467999261,None,318.85228660004213,None,318.85228660004213,None,318.85228660004213,None,320.4605428699404,None,320.4605428699404,None,320.4605428699404,None,,,,,,,,,,,131,27,Female,2022-05-23_17h59.24.171,Boat,2022.1.1,59.89218209555224,
neutral,positive,2,k,k,,,,,,,,,4,0,72,13,,,,,,,,,,,,,,,,,,,,,,,,main,1,1,2,positive,neutral,k,k,1,0.7520532999187708,320.4778543000575,321.47857300005853,321.46177639998496,None,320.4778543000575,None,320.4778543000575,None,320.4778543000575,None,322.21449276986533,None,322.21449276986533,None,322.21449276986533,None,,,,,,,,,,,131,27,Female,2022-05-23_17h59.24.171,Boat,2022.1.1,59.89218209555224,
positive,neutral,1,l,j,,,,,,,,,4,1,73,8,,,,,,,,,,,,,,,,,,,,,,,,main,2,2,1,neutral,positive,j,j,1,0.836843199795112,322.2324456998613,323.2548070999328,323.21239269990474,None,322.2324456998613,None,322.2324456998613,None,322.2324456998613,None,324.05580576993526,None,324.05580576993526,None,324.05580576993526,None,,,,,,,,,,,131,27,Female,2022-05-23_17h59.24.171,Boat,2022.1.1,59.89218209555224,
neutral,negative,2,k,k,,,,,,,,,4,2,74,16,,,,,,,,,,,,,,,,,,,,,,,,main,2,2,2,negative,neutral,k,k,1,0.6811941000632942,324.07249030005187,325.07818720000796,325.05804639984854,None,324.07249030005187,None,324.07249030005187,None,324.07249030005187,None,325.7396162698977,None,325.7396162698977,None,325.7396162698977,None,,,,,,,,,,,131,27,Female,2022-05-23_17h59.24.171,Boat,2022.1.1,59.89218209555224,
positive,negative,1,l,j,,,,,,,,,4,3,75,5,,,,,,,,,,,,,,,,,,,,,,,,main,1,1,1,negative,positive,j,j,1,0.7995311000850052,325.75913849985227,326.7646288999822,326.72985899983905,None,325.75913849985227,None,325.75913849985227,None,325.75913849985227,None,327.541726069944,None,327.541726069944,None,327.541726069944,None,,,,,,,,,,,131,27,Female,2022-05-23_17h59.24.171,Boat,2022.1.1,59.89218209555224,
positive,neutral,2,l,j,,,,,,,,,4,4,76,17,,,,,,,,,,,,,,,,,,,,,,,,main,1,1,2,neutral,positive,j,j,1,0.7833332000300288,327.56172370002605,328.57862879987806,328.5433054000605,None,327.56172370002605,None,327.56172370002605,None,327.56172370002605,None,329.32738176984714,None,329.32738176984714,None,329.32738176984714,None,,,,,,,,,,,131,27,Female,2022-05-23_17h59.24.171,Boat,2022.1.1,59.89218209555224,
negative,positive,2,j,l,,,,,,,,,4,5,77,15,,,,,,,,,,,,,,,,,,,,,,,,main,2,2,2,positive,negative,l,l,1,0.7260794998146594,329.34477539989166,330.3549033999443,330.3284684000537,None,329.34477539989166,None,329.34477539989166,None,329.34477539989166,None,331.05655277003535,None,331.05655277003535,None,331.05655277003535,None,,,,,,,,,,,131,27,Female,2022-05-23_17h59.24.171,Boat,2022.1.1,59.89218209555224,
negative,negative,1,j,l,,,,,,,,,4,6,78,0,,,,,,,,,,,,,,,,,,,,,,,,main,2,2,1,negative,negative,l,l,1,0.7694900000933558,331.07480389997363,332.07853729999624,332.0608375000302,None,331.07480389997363,None,331.07480389997363,None,331.07480389997363,None,332.82866246993655,None,332.82866246993655,None,332.82866246993655,None,,,,,,,,,,,131,27,Female,2022-05-23_17h59.24.171,Boat,2022.1.1,59.89218209555224,
neutral,positive,1,k,k,,,,,,,,,4,7,79,4,,,,,,,,,,,,,,,,,,,,,,,,main,2,2,1,positive,neutral,k,k,1,0.7264845999889076,332.8458771998994,333.8454892998561,333.8291112999432,None,332.8458771998994,None,332.8458771998994,None,332.8458771998994,None,334.5579461699352,None,334.5579461699352,None,334.5579461699352,None,,,,,,,,,,,131,27,Female,2022-05-23_17h59.24.171,Boat,2022.1.1,59.89218209555224,
negative,neutral,1,j,l,,,,,,,,,4,8,80,3,,,,,,,,,,,,,,,,,,,,,,,,main,1,1,1,neutral,negative,l,l,1,1.0200104000978172,334.57714139996096,335.5788845999632,335.56177389994264,None,334.57714139996096,None,334.57714139996096,None,334.57714139996096,None,336.579330970021,None,336.579330970021,None,336.579330970021,None,,,,,,,,,,,131,27,Female,2022-05-23_17h59.24.171,Boat,2022.1.1,59.89218209555224,
negative,negative,2,j,l,,,,,,,,,4,9,81,9,,,,,,,,,,,,,,,,,,,,,,,,main,2,2,2,negative,negative,l,l,1,0.7355161001905799,336.5995078999549,337.61561660002917,337.58081019995734,None,336.5995078999549,None,336.5995078999549,None,336.5995078999549,None,338.3184659699444,None,338.3184659699444,None,338.3184659699444,None,,,,,,,,,,,131,27,Female,2022-05-23_17h59.24.171,Boat,2022.1.1,59.89218209555224,
neutral,neutral,1,k,k,,,,,,,,,4,10,82,1,,,,,,,,,,,,,,,,,,,,,,,,main,2,2,1,neutral,neutral,k,k,1,0.6943252999335527,338.3350877999328,339.345553799998,339.3107894998975,None,338.3350877999328,None,338.3350877999328,None,338.3350877999328,None,340.01517406986096,None,340.01517406986096,None,340.01517406986096,None,,,,,,,,,,,131,27,Female,2022-05-23_17h59.24.171,Boat,2022.1.1,59.89218209555224,
neutral,neutral,2,k,k,,,,,,,,,4,11,83,10,,,,,,,,,,,,,,,,,,,,,,,,main,2,2,2,neutral,neutral,k,k,1,1.7345692000817508,340.03454579995014,341.0455098999664,341.0115280998871,None,340.03454579995014,None,340.03454579995014,None,340.03454579995014,None,342.75752420001663,None,342.75752420001663,None,342.75752420001663,None,,,,,,,,,,,131,27,Female,2022-05-23_17h59.24.171,Boat,2022.1.1,59.89218209555224,
negative,positive,1,j,l,,,,,,,,,4,12,84,6,,,,,,,,,,,,,,,,,,,,,,,,main,1,1,1,positive,negative,l,l,1,0.8220456999260932,343.76438839989714,344.7886206000112,344.74271749984473,None,343.76438839989714,None,343.76438839989714,None,343.76438839989714,None,345.5729263699148,None,345.5729263699148,None,345.5729263699148,None,,,,,,,,,,,131,27,Female,2022-05-23_17h59.24.171,Boat,2022.1.1,59.89218209555224,
positive,positive,1,l,j,,,,,,,,,4,13,85,2,,,,,,,,,,,,,,,,,,,,,,,,main,2,2,1,positive,positive,j,j,1,3.1295134001411498,345.5910900000017,346.59561239997856,346.5777638000436,None,345.5910900000017,None,345.5910900000017,None,345.5910900000017,None,349.71249559987336,None,349.71249559987336,None,349.71249559987336,None,,,,,,,,,,,131,27,Female,2022-05-23_17h59.24.171,Boat,2022.1.1,59.89218209555224,
negative,neutral,2,j,l,,,,,,,,,4,14,86,12,,,,,,,,,,,,,,,,,,,,,,,,main,2,2,2,neutral,negative,l,l,1,0.9516676999628544,350.7321961999405,351.74600639985874,351.71015780000016,None,350.7321961999405,None,350.7321961999405,None,350.7321961999405,None,352.6684069700539,None,352.6684069700539,None,352.6684069700539,None,,,,,,,,,,,131,27,Female,2022-05-23_17h59.24.171,Boat,2022.1.1,59.89218209555224,
positive,positive,2,l,j,,,,,,,,,4,15,87,11,,,,,,,,,,,,,,,,,,,,,,,,main,2,2,2,positive,positive,j,j,1,0.8331426000222564,352.68707609991543,353.70730490004644,353.662519400008,None,352.68707609991543,None,352.68707609991543,None,352.68707609991543,None,354.50640857005493,None,354.50640857005493,None,354.50640857005493,None,,,,,,,,,,,131,27,Female,2022-05-23_17h59.24.171,Boat,2022.1.1,59.89218209555224,
neutral,negative,1,k,k,,,,,,,,,4,16,88,7,,,,,,,,,,,,,,,,,,,,,,,,main,1,1,1,negative,neutral,k,k,1,0.1543048000894487,354.52251519984566,355.5292070999276,355.5115670999512,None,354.52251519984566,None,354.52251519984566,None,354.52251519984566,None,355.663003969891,None,355.663003969891,None,355.663003969891,None,,,,,,,,,,,131,27,Female,2022-05-23_17h59.24.171,Boat,2022.1.1,59.89218209555224,
positive,negative,2,l,j,,,,,,,,,4,17,89,14,,,,,,,,,,,,,,,,,,,,,,,,main,2,2,2,negative,positive,j,j,1,0.910500800004229,355.6814909998793,356.707215399947,356.6622947999276,None,355.6814909998793,None,355.6814909998793,None,355.6814909998793,None,357.5763516700361,None,357.5763516700361,None,357.5763516700361,None,,,,,,,,,,,131,27,Female,2022-05-23_17h59.24.171,Boat,2022.1.1,59.89218209555224,
negative,neutral,1,j,l,,,,,,,,,5,0,90,3,,,,,,,,,,,,,,,,,,,,,,,,main,2,2,1,neutral,negative,l,l,1,0.8858095000032336,357.5959669998847,358.6058171999175,358.5791885999497,None,357.5959669998847,None,357.5959669998847,None,357.5959669998847,None,359.46425887006336,None,359.46425887006336,None,359.46425887006336,None,,,,,,,,,,,131,27,Female,2022-05-23_17h59.24.171,Boat,2022.1.1,59.89218209555224,
neutral,neutral,2,k,k,,,,,,,,,5,1,91,10,,,,,,,,,,,,,,,,,,,,,,,,main,2,2,2,neutral,neutral,k,k,1,1.1225992999970913,359.48249630001374,360.50616790005006,360.46255409996957,None,359.48249630001374,None,359.48249630001374,None,359.48249630001374,None,361.59091476998293,None,361.59091476998293,None,361.59091476998293,None,,,,,,,,,,,131,27,Female,2022-05-23_17h59.24.171,Boat,2022.1.1,59.89218209555224,
positive,neutral,2,l,j,,,,,,,,,5,2,92,17,,,,,,,,,,,,,,,,,,,,,,,,main,1,1,2,neutral,positive,j,j,1,0.7427420001477003,361.6076410000678,362.612650899915,362.59619660000317,None,361.6076410000678,None,361.6076410000678,None,361.6076410000678,None,363.3349379698746,None,363.3349379698746,None,363.3349379698746,None,,,,,,,,,,,131,27,Female,2022-05-23_17h59.24.171,Boat,2022.1.1,59.89218209555224,
negative,neutral,2,j,l,,,,,,,,,5,3,93,12,,,,,,,,,,,,,,,,,,,,,,,,main,2,2,2,neutral,negative,l,l,1,0.7200726000592113,363.35200009983964,364.37261800002307,364.329453199869,None,363.35200009983964,None,363.35200009983964,None,363.35200009983964,None,365.05695586996154,None,365.05695586996154,None,365.05695586996154,None,,,,,,,,,,,131,27,Female,2022-05-23_17h59.24.171,Boat,2022.1.1,59.89218209555224,
neutral,negative,2,k,k,,,,,,,,,5,4,94,16,,,,,,,,,,,,,,,,,,,,,,,,main,1,1,2,negative,neutral,k,k,1,0.7480220999568701,365.07556729996577,366.07908369996585,366.06258439994417,None,365.07556729996577,None,365.07556729996577,None,365.07556729996577,None,366.80930277002045,None,366.80930277002045,None,366.80930277002045,None,,,,,,,,,,,131,27,Female,2022-05-23_17h59.24.171,Boat,2022.1.1,59.89218209555224,
neutral,positive,2,k,k,,,,,,,,,5,5,95,13,,,,,,,,,,,,,,,,,,,,,,,,main,2,2,2,positive,neutral,k,k,1,1.043101199902594,366.82774479989894,367.831473399885,367.8139452000614,None,366.82774479989894,None,366.82774479989894,None,366.82774479989894,None,368.854978369968,None,368.854978369968,None,368.854978369968,None,,,,,,,,,,,131,27,Female,2022-05-23_17h59.24.171,Boat,2022.1.1,59.89218209555224,
positive,positive,2,l,j,,,,,,,,,5,6,96,11,,,,,,,,,,,,,,,,,,,,,,,,main,2,2,2,positive,positive,j,j,1,1.4107882000971586,368.8723505998496,369.88038569991477,369.8458699998446,None,368.8723505998496,None,368.8723505998496,None,368.8723505998496,None,371.26658126986587,None,371.26658126986587,None,371.26658126986587,None,,,,,,,,,,,131,27,Female,2022-05-23_17h59.24.171,Boat,2022.1.1,59.89218209555224,
negative,negative,1,j,l,,,,,,,,,5,7,97,0,,,,,,,,,,,,,,,,,,,,,,,,main,1,1,1,negative,negative,l,l,1,0.6978525000158697,371.28515039989725,372.29969109990634,372.26471899985336,None,371.28515039989725,None,371.28515039989725,None,371.28515039989725,None,372.9680379698519,None,372.9680379698519,None,372.9680379698519,None,,,,,,,,,,,131,27,Female,2022-05-23_17h59.24.171,Boat,2022.1.1,59.89218209555224,
neutral,positive,1,k,k,,,,,,,,,5,8,98,4,,,,,,,,,,,,,,,,,,,,,,,,main,1,1,1,positive,neutral,k,k,1,1.7805706998333335,372.98502609995194,373.9961596999783,373.9618756000418,None,372.98502609995194,None,372.98502609995194,None,372.98502609995194,None,375.75585930002853,None,375.75585930002853,None,375.75585930002853,None,,,,,,,,,,,131,27,Female,2022-05-23_17h59.24.171,Boat,2022.1.1,59.89218209555224,
neutral,neutral,1,k,k,,,,,,,,,5,9,99,1,,,,,,,,,,,,,,,,,,,,,,,,main,2,2,1,neutral,neutral,k,k,1,1.3171822000294924,376.7651186999865,377.7796646999195,377.7443418998737,None,376.7651186999865,None,376.7651186999865,None,376.7651186999865,None,379.06794607006015,None,379.06794607006015,None,379.06794607006015,None,,,,,,,,,,,131,27,Female,2022-05-23_17h59.24.171,Boat,2022.1.1,59.89218209555224,
positive,positive,1,l,j,,,,,,,,,5,10,100,2,,,,,,,,,,,,,,,,,,,,,,,,main,1,1,1,positive,positive,j,j,1,0.7478795000351965,379.0844882999081,380.0964591000229,380.06268349988386,None,379.0844882999081,None,379.0844882999081,None,379.0844882999081,None,380.8183010699693,None,380.8183010699693,None,380.8183010699693,None,,,,,,,,,,,131,27,Female,2022-05-23_17h59.24.171,Boat,2022.1.1,59.89218209555224,
positive,neutral,1,l,j,,,,,,,,,5,11,101,8,,,,,,,,,,,,,,,,,,,,,,,,main,2,2,1,neutral,positive,j,j,1,0.6651866000611335,380.8360957999248,381.8580417998601,381.8124835998751,None,380.8360957999248,None,380.8360957999248,None,380.8360957999248,None,382.4876899700146,None,382.4876899700146,None,382.4876899700146,None,,,,,,,,,,,131,27,Female,2022-05-23_17h59.24.171,Boat,2022.1.1,59.89218209555224,
negative,negative,2,j,l,,,,,,,,,5,12,102,9,,,,,,,,,,,,,,,,,,,,,,,,main,1,1,2,negative,negative,l,l,1,0.7358796999324113,382.50499300006777,383.5145972999744,383.48032710002735,None,382.50499300006777,None,382.50499300006777,None,382.50499300006777,None,384.2266452698503,None,384.2266452698503,None,384.2266452698503,None,,,,,,,,,,,131,27,Female,2022-05-23_17h59.24.171,Boat,2022.1.1,59.89218209555224,
neutral,negative,1,k,k,,,,,,,,,5,13,103,7,,,,,,,,,,,,,,,,,,,,,,,,main,2,2,1,negative,neutral,k,k,1,0.6875762999989092,384.24356119986624,385.26075789984316,385.2232717999723,None,384.24356119986624,None,384.24356119986624,None,384.24356119986624,None,385.915447469987,None,385.915447469987,None,385.915447469987,None,,,,,,,,,,,131,27,Female,2022-05-23_17h59.24.171,Boat,2022.1.1,59.89218209555224,
positive,negative,2,l,j,,,,,,,,,5,14,104,14,,,,,,,,,,,,,,,,,,,,,,,,main,2,2,2,negative,positive,j,j,1,0.7270158999599516,385.9324560998939,386.9472864000127,386.9134156999644,None,385.9324560998939,None,385.9324560998939,None,385.9324560998939,None,387.64644326986746,None,387.64644326986746,None,387.64644326986746,None,,,,,,,,,,,131,27,Female,2022-05-23_17h59.24.171,Boat,2022.1.1,59.89218209555224,
negative,positive,1,j,l,,,,,,,,,5,15,105,6,,,,,,,,,,,,,,,,,,,,,,,,main,2,2,1,positive,negative,l,l,1,1.8202692000195384,387.66425899998285,388.66412099986337,388.64690569997765,None,387.66425899998285,None,387.66425899998285,None,387.66425899998285,None,390.4737094999291,None,390.4737094999291,None,390.4737094999291,None,,,,,,,,,,,131,27,Female,2022-05-23_17h59.24.171,Boat,2022.1.1,59.89218209555224,
positive,negative,1,l,j,,,,,,,,,5,16,106,5,,,,,,,,,,,,,,,,,,,,,,,,main,2,2,1,negative,positive,j,l,0,0.8697775001637638,391.4823871999979,392.5081559000537,392.46279300004244,None,391.4823871999979,None,391.4823871999979,None,391.4823871999979,None,393.3454628000036,None,393.3454628000036,None,393.3454628000036,None,,,,,,,,,,,131,27,Female,2022-05-23_17h59.24.171,Boat,2022.1.1,59.89218209555224,
negative,positive,2,j,l,,,,,,,,,5,17,107,15,,,,,,,,,,,,,,,,,,,,,,,,main,1,1,2,positive,negative,l,l,1,0.9368383998516947,394.3663854000624,395.3806844998617,395.3470864999108,None,394.3663854000624,None,394.3663854000624,None,394.3663854000624,None,396.2878526700195,None,396.2878526700195,None,396.2878526700195,None,,,,,,,,,,,131,27,Female,2022-05-23_17h59.24.171,Boat,2022.1.1,59.89218209555224,
positive,negative,1,l,j,,,,,,,,,6,0,108,5,,,,,,,,,,,,,,,,,,,,,,,,main,2,2,1,negative,positive,j,l,0,0.6926676000002772,396.3071796000004,397.31242770003155,397.29373240005225,None,396.3071796000004,None,396.3071796000004,None,396.3071796000004,None,397.9878489000257,None,397.9878489000257,None,397.9878489000257,None,,,,,,,,,,,131,27,Female,2022-05-23_17h59.24.171,Boat,2022.1.1,59.89218209555224,
neutral,positive,2,k,k,,,,,,,,,6,1,109,13,,,,,,,,,,,,,,,,,,,,,,,,main,2,2,2,positive,neutral,k,k,1,0.74968699994497,399.00063739996403,400.0160205999855,399.98027050006203,None,399.00063739996403,None,399.00063739996403,None,399.00063739996403,None,400.73424006993883,None,400.73424006993883,None,400.73424006993883,None,,,,,,,,,,,131,27,Female,2022-05-23_17h59.24.171,Boat,2022.1.1,59.89218209555224,
positive,positive,1,l,j,,,,,,,,,6,2,110,2,,,,,,,,,,,,,,,,,,,,,,,,main,2,2,1,positive,positive,j,j,1,1.0359504001680762,400.75240730005316,401.7638834998943,401.72791630006395,None,400.75240730005316,None,400.75240730005316,None,400.75240730005316,None,402.77488096985036,None,402.77488096985036,None,402.77488096985036,None,,,,,,,,,,,131,27,Female,2022-05-23_17h59.24.171,Boat,2022.1.1,59.89218209555224,
negative,neutral,2,j,l,,,,,,,,,6,3,111,12,,,,,,,,,,,,,,,,,,,,,,,,main,2,2,2,neutral,negative,l,l,1,0.776706799864769,402.7931086998433,403.7949279998429,403.77581249992363,None,402.7931086998433,None,402.7931086998433,None,402.7931086998433,None,404.5528310699854,None,404.5528310699854,None,404.5528310699854,None,,,,,,,,,,,131,27,Female,2022-05-23_17h59.24.171,Boat,2022.1.1,59.89218209555224,
negative,positive,2,j,l,,,,,,,,,6,4,112,15,,,,,,,,,,,,,,,,,,,,,,,,main,2,2,2,positive,negative,l,j,0,0.6249943000730127,404.5704252999276,405.581032600021,405.5453049999196,None,404.5704252999276,None,404.5704252999276,None,404.5704252999276,None,406.1852275999263,None,406.1852275999263,None,406.1852275999263,None,,,,,,,,,,,131,27,Female,2022-05-23_17h59.24.171,Boat,2022.1.1,59.89218209555224,
negative,positive,1,j,l,,,,,,,,,6,5,113,6,,,,,,,,,,,,,,,,,,,,,,,,main,1,1,1,positive,negative,l,l,1,2.0055855000391603,407.2000518999994,408.2107885000296,408.19206969998777,None,407.2000518999994,None,407.2000518999994,None,407.2000518999994,None,410.19668649998493,None,410.19668649998493,None,410.19668649998493,None,,,,,,,,,,,131,27,Female,2022-05-23_17h59.24.171,Boat,2022.1.1,59.89218209555224,
negative,neutral,1,j,l,,,,,,,,,6,6,114,3,,,,,,,,,,,,,,,,,,,,,,,,main,2,2,1,neutral,negative,l,l,1,0.767646900145337,411.21682929992676,412.230222000042,412.1947880999651,None,411.21682929992676,None,411.21682929992676,None,411.21682929992676,None,412.96886186995545,None,412.96886186995545,None,412.96886186995545,None,,,,,,,,,,,131,27,Female,2022-05-23_17h59.24.171,Boat,2022.1.1,59.89218209555224,
positive,negative,2,l,j,,,,,,,,,6,7,115,14,,,,,,,,,,,,,,,,,,,,,,,,main,2,2,2,negative,positive,j,j,1,0.7549829999916255,412.98663019994274,413.9981235000305,413.96388989989646,None,412.98663019994274,None,412.98663019994274,None,412.98663019994274,None,414.7287508700509,None,414.7287508700509,None,414.7287508700509,None,,,,,,,,,,,131,27,Female,2022-05-23_17h59.24.171,Boat,2022.1.1,59.89218209555224,
positive,neutral,1,l,j,,,,,,,,,6,8,116,8,,,,,,,,,,,,,,,,,,,,,,,,main,2,2,1,neutral,positive,j,j,1,0.7774292000103742,414.7472967999056,415.75855099991895,415.74079099996015,None,414.7472967999056,None,414.7472967999056,None,414.7472967999056,None,416.5084150698502,None,416.5084150698502,None,416.5084150698502,None,,,,,,,,,,,131,27,Female,2022-05-23_17h59.24.171,Boat,2022.1.1,59.89218209555224,
neutral,negative,1,k,k,,,,,,,,,6,9,117,7,,,,,,,,,,,,,,,,,,,,,,,,main,2,2,1,negative,neutral,k,,0,0.9491307998541743,416.5297343998682,417.5313194000628,417.5140897000674,None,416.5297343998682,None,416.5297343998682,None,416.5297343998682,None,418.4642064999789,None,418.4642064999789,None,418.4642064999789,None,,,,,,,,,,,131,27,Female,2022-05-23_17h59.24.171,Boat,2022.1.1,59.89218209555224,
neutral,positive,1,k,k,,,,,,,,,6,10,118,4,,,,,,,,,,,,,,,,,,,,,,,,main,2,2,1,positive,neutral,k,k,1,0.884509899886325,419.4827401000075,420.53947580000386,420.5214503998868,None,419.4827401000075,None,419.4827401000075,None,419.4827401000075,None,421.3527215700131,None,421.3527215700131,None,421.3527215700131,None,,,,,,,,,,,131,27,Female,2022-05-23_17h59.24.171,Boat,2022.1.1,59.89218209555224,
positive,neutral,2,l,j,,,,,,,,,6,11,119,17,,,,,,,,,,,,,,,,,,,,,,,,main,1,1,2,neutral,positive,j,j,1,1.02018230012618,421.3711104998365,422.390605899971,422.3472629999742,None,421.3711104998365,None,421.3711104998365,None,421.3711104998365,None,423.3779465700034,None,423.3779465700034,None,423.3779465700034,None,,,,,,,,,,,131,27,Female,2022-05-23_17h59.24.171,Boat,2022.1.1,59.89218209555224,
positive,positive,2,l,j,,,,,,,,,6,12,120,11,,,,,,,,,,,,,,,,,,,,,,,,main,1,1,2,positive,positive,j,j,1,2.4108555000275373,423.39583329996094,424.39751549996436,424.38086099992506,None,423.39583329996094,None,423.39583329996094,None,423.39583329996094,None,426.79700989997946,None,426.79700989997946,None,426.79700989997946,None,,,,,,,,,,,131,27,Female,2022-05-23_17h59.24.171,Boat,2022.1.1,59.89218209555224,
neutral,neutral,2,k,k,,,,,,,,,6,13,121,10,,,,,,,,,,,,,,,,,,,,,,,,main,1,1,2,neutral,neutral,k,k,1,0.8716630998533219,427.8169678999111,428.84254730003886,428.7973676000256,None,427.8169678999111,None,427.8169678999111,None,427.8169678999111,None,429.6751005700324,None,429.6751005700324,None,429.6751005700324,None,,,,,,,,,,,131,27,Female,2022-05-23_17h59.24.171,Boat,2022.1.1,59.89218209555224,
neutral,neutral,1,k,k,,,,,,,,,6,14,122,1,,,,,,,,,,,,,,,,,,,,,,,,main,1,1,1,neutral,neutral,k,k,1,3.4570049999747425,429.6959217998665,430.70900519983843,430.6643979998771,None,429.6959217998665,None,429.6959217998665,None,429.6959217998665,None,434.1388369000051,None,434.1388369000051,None,434.1388369000051,None,,,,,,,,,,,131,27,Female,2022-05-23_17h59.24.171,Boat,2022.1.1,59.89218209555224,
negative,negative,1,j,l,,,,,,,,,6,15,123,0,,,,,,,,,,,,,,,,,,,,,,,,main,2,2,1,negative,negative,l,l,1,0.8113604998216033,435.1508179998491,436.1759436998982,436.1313223000616,None,435.1508179998491,None,435.1508179998491,None,435.1508179998491,None,436.94757226989606,None,436.94757226989606,None,436.94757226989606,None,,,,,,,,,,,131,27,Female,2022-05-23_17h59.24.171,Boat,2022.1.1,59.89218209555224,
negative,negative,2,j,l,,,,,,,,,6,16,124,9,,,,,,,,,,,,,,,,,,,,,,,,main,1,1,2,negative,negative,l,l,1,4.581435800064355,436.9658712998498,437.9815783998929,437.94529809989035,None,436.9658712998498,None,436.9658712998498,None,436.9658712998498,None,442.5368667000439,None,442.5368667000439,None,442.5368667000439,None,,,,,,,,,,,131,27,Female,2022-05-23_17h59.24.171,Boat,2022.1.1,59.89218209555224,
neutral,negative,2,k,k,,,,,,,,,6,17,125,16,,,,,,,,,,,,,,,,,,,,,,,,main,2,2,2,negative,neutral,k,k,1,0.7687814999371767,443.5512743999716,444.5660752998665,444.53151239990257,None,443.5512743999716,None,443.5512743999716,None,443.5512743999716,None,445.30611496996136,None,445.30611496996136,None,445.30611496996136,None,,,,,,,,,,,131,27,Female,2022-05-23_17h59.24.171,Boat,2022.1.1,59.89218209555224,
negative,negative,2,j,l,,,,,,,,,7,0,126,9,,,,,,,,,,,,,,,,,,,,,,,,main,2,2,2,negative,negative,l,l,1,0.9873038998339325,445.3233310999349,446.33135690004565,446.29439549986273,None,445.3233310999349,None,445.3233310999349,None,445.3233310999349,None,447.2964627700392,None,447.2964627700392,None,447.2964627700392,None,,,,,,,,,,,131,27,Female,2022-05-23_17h59.24.171,Boat,2022.1.1,59.89218209555224,
positive,positive,2,l,j,,,,,,,,,7,1,127,11,,,,,,,,,,,,,,,,,,,,,,,,main,1,1,2,positive,positive,j,j,1,0.7056949001271278,447.3127428998705,448.31465759989806,448.29588959994726,None,447.3127428998705,None,447.3127428998705,None,447.3127428998705,None,449.0039396699984,None,449.0039396699984,None,449.0039396699984,None,,,,,,,,,,,131,27,Female,2022-05-23_17h59.24.171,Boat,2022.1.1,59.89218209555224,
neutral,positive,1,k,k,,,,,,,,,7,2,128,4,,,,,,,,,,,,,,,,,,,,,,,,main,1,1,1,positive,neutral,k,k,1,0.8487223999109119,449.02196080004796,450.03379289992154,449.9973462000489,None,449.02196080004796,None,449.02196080004796,None,449.02196080004796,None,450.8551970698871,None,450.8551970698871,None,450.8551970698871,None,,,,,,,,,,,131,27,Female,2022-05-23_17h59.24.171,Boat,2022.1.1,59.89218209555224,
positive,neutral,2,l,j,,,,,,,,,7,3,129,17,,,,,,,,,,,,,,,,,,,,,,,,main,1,1,2,neutral,positive,j,j,1,1.2414261000230908,450.8777560000308,451.888725399971,451.8520557999145,None,450.8777560000308,None,450.8777560000308,None,450.8777560000308,None,453.10051997001284,None,453.10051997001284,None,453.10051997001284,None,,,,,,,,,,,131,27,Female,2022-05-23_17h59.24.171,Boat,2022.1.1,59.89218209555224,
negative,negative,1,j,l,,,,,,,,,7,4,130,0,,,,,,,,,,,,,,,,,,,,,,,,main,1,1,1,negative,negative,l,l,1,0.8138625000137836,453.119846599875,454.1285959999077,454.1099288999103,None,453.119846599875,None,453.119846599875,None,453.119846599875,None,454.91782317003236,None,454.91782317003236,None,454.91782317003236,None,,,,,,,,,,,131,27,Female,2022-05-23_17h59.24.171,Boat,2022.1.1,59.89218209555224,
positive,negative,1,l,j,,,,,,,,,7,5,131,5,,,,,,,,,,,,,,,,,,,,,,,,main,2,2,1,negative,positive,j,j,1,0.8523837001994252,454.93542600004,455.9471634000074,455.9274573000148,None,454.93542600004,None,454.93542600004,None,454.93542600004,None,456.7741075700149,None,456.7741075700149,None,456.7741075700149,None,,,,,,,,,,,131,27,Female,2022-05-23_17h59.24.171,Boat,2022.1.1,59.89218209555224,
neutral,neutral,2,k,k,,,,,,,,,7,6,132,10,,,,,,,,,,,,,,,,,,,,,,,,main,2,2,2,neutral,neutral,k,k,1,0.8458897999953479,456.7918966000434,457.79836070002057,457.7789506998379,None,456.7918966000434,None,456.7918966000434,None,456.7918966000434,None,458.62103926991114,None,458.62103926991114,None,458.62103926991114,None,,,,,,,,,,,131,27,Female,2022-05-23_17h59.24.171,Boat,2022.1.1,59.89218209555224,
negative,neutral,2,j,l,,,,,,,,,7,7,133,12,,,,,,,,,,,,,,,,,,,,,,,,main,2,2,2,neutral,negative,l,l,1,0.9305507999379188,458.63897469989024,459.64832919999026,459.6128742999863,None,458.63897469989024,None,458.63897469989024,None,458.63897469989024,None,460.55387856992894,None,460.55387856992894,None,460.55387856992894,None,,,,,,,,,,,131,27,Female,2022-05-23_17h59.24.171,Boat,2022.1.1,59.89218209555224,
negative,positive,2,j,l,,,,,,,,,7,8,134,15,,,,,,,,,,,,,,,,,,,,,,,,main,1,1,2,positive,negative,l,l,1,1.2819092001300305,460.5726399999112,461.59150379989296,461.5451169000007,None,460.5726399999112,None,460.5726399999112,None,460.5726399999112,None,462.83896726993845,None,462.83896726993845,None,462.83896726993845,None,,,,,,,,,,,131,27,Female,2022-05-23_17h59.24.171,Boat,2022.1.1,59.89218209555224,
positive,negative,2,l,j,,,,,,,,,7,9,135,14,,,,,,,,,,,,,,,,,,,,,,,,main,2,2,2,negative,positive,j,j,1,0.8925143999513239,462.85803489992395,463.8653744000476,463.83162719989195,None,462.85803489992395,None,462.85803489992395,None,462.85803489992395,None,464.73485676986166,None,464.73485676986166,None,464.73485676986166,None,,,,,,,,,,,131,27,Female,2022-05-23_17h59.24.171,Boat,2022.1.1,59.89218209555224,
positive,positive,1,l,j,,,,,,,,,7,10,136,2,,,,,,,,,,,,,,,,,,,,,,,,main,1,1,1,positive,positive,j,j,1,0.9095577001571655,464.751294599846,465.76476689986885,465.72880170005374,None,464.751294599846,None,464.751294599846,None,464.751294599846,None,466.64778686985375,None,466.64778686985375,None,466.64778686985375,None,,,,,,,,,,,131,27,Female,2022-05-23_17h59.24.171,Boat,2022.1.1,59.89218209555224,
positive,neutral,1,l,j,,,,,,,,,7,11,137,8,,,,,,,,,,,,,,,,,,,,,,,,main,2,2,1,neutral,positive,j,j,1,2.127391899935901,466.665297199972,467.6654786998406,467.6485452000052,None,466.665297199972,None,466.665297199972,None,466.665297199972,None,469.7822952999268,None,469.7822952999268,None,469.7822952999268,None,,,,,,,,,,,131,27,Female,2022-05-23_17h59.24.171,Boat,2022.1.1,59.89218209555224,
neutral,positive,2,k,k,,,,,,,,,7,12,138,13,,,,,,,,,,,,,,,,,,,,,,,,main,1,1,2,positive,neutral,k,k,1,0.9526043001096696,470.80110200005583,471.8130989000201,471.7937350999564,None,470.80110200005583,None,470.80110200005583,None,470.80110200005583,None,472.739744269941,None,472.739744269941,None,472.739744269941,None,,,,,,,,,,,131,27,Female,2022-05-23_17h59.24.171,Boat,2022.1.1,59.89218209555224,
neutral,neutral,1,k,k,,,,,,,,,7,13,139,1,,,,,,,,,,,,,,,,,,,,,,,,main,1,1,1,neutral,neutral,k,k,1,4.214666899992153,472.76036489987746,473.7648556998465,473.73088869987987,None,472.76036489987746,None,472.76036489987746,None,472.76036489987746,None,477.9643071000464,None,477.9643071000464,None,477.9643071000464,None,,,,,,,,,,,131,27,Female,2022-05-23_17h59.24.171,Boat,2022.1.1,59.89218209555224,
negative,neutral,1,j,l,,,,,,,,,7,14,140,3,,,,,,,,,,,,,,,,,,,,,,,,main,1,1,1,neutral,negative,l,l,1,0.9494372000917792,478.9850671000313,479.99632589984685,479.97798199998215,None,478.9850671000313,None,478.9850671000313,None,478.9850671000313,None,480.91923866998405,None,480.91923866998405,None,480.91923866998405,None,,,,,,,,,,,131,27,Female,2022-05-23_17h59.24.171,Boat,2022.1.1,59.89218209555224,
neutral,negative,1,k,k,,,,,,,,,7,15,141,7,,,,,,,,,,,,,,,,,,,,,,,,main,2,2,1,negative,neutral,k,k,1,2.1974869000259787,480.93805449991487,481.95078279986046,481.91517210006714,None,480.93805449991487,None,480.93805449991487,None,480.93805449991487,None,484.12459099991247,None,484.12459099991247,None,484.12459099991247,None,,,,,,,,,,,131,27,Female,2022-05-23_17h59.24.171,Boat,2022.1.1,59.89218209555224,
negative,positive,1,j,l,,,,,,,,,7,16,142,6,,,,,,,,,,,,,,,,,,,,,,,,main,2,2,1,positive,negative,l,l,1,0.9214673000387847,485.13482109992765,486.14926579990424,486.11531109991483,None,485.13482109992765,None,485.13482109992765,None,485.13482109992765,None,487.0416569699999,None,487.0416569699999,None,487.0416569699999,None,,,,,,,,,,,131,27,Female,2022-05-23_17h59.24.171,Boat,2022.1.1,59.89218209555224,
neutral,negative,2,k,k,,,,,,,,,7,17,143,16,,,,,,,,,,,,,,,,,,,,,,,,main,2,2,2,negative,neutral,k,k,1,0.861792900133878,487.05995270004496,488.07566590001807,488.03206250001676,None,487.05995270004496,None,487.05995270004496,None,487.05995270004496,None,488.90740496986547,None,488.90740496986547,None,488.90740496986547,None,,,,,,,,,,,131,27,Female,2022-05-23_17h59.24.171,Boat,2022.1.1,59.89218209555224,
negative,positive,2,j,l,,,,,,,,,8,0,144,15,,,,,,,,,,,,,,,,,,,,,,,,main,1,1,2,positive,negative,l,l,1,0.8809066999237984,488.9267432000488,489.93227200000547,489.89494919986464,None,488.9267432000488,None,488.9267432000488,None,488.9267432000488,None,490.789107769914,None,490.789107769914,None,490.789107769914,None,,,,,,,,,,,131,27,Female,2022-05-23_17h59.24.171,Boat,2022.1.1,59.89218209555224,
negative,neutral,2,j,l,,,,,,,,,8,1,145,12,,,,,,,,,,,,,,,,,,,,,,,,main,2,2,2,neutral,negative,l,l,1,2.781827999977395,490.8074763000477,491.8177527000662,491.78224490000866,None,490.8074763000477,None,490.8074763000477,None,490.8074763000477,None,494.5826143999584,None,494.5826143999584,None,494.5826143999584,None,,,,,,,,,,,131,27,Female,2022-05-23_17h59.24.171,Boat,2022.1.1,59.89218209555224,
positive,neutral,2,l,j,,,,,,,,,8,2,146,17,,,,,,,,,,,,,,,,,,,,,,,,main,1,1,2,neutral,positive,j,j,1,1.3695421000011265,495.6023256999906,496.6269104999956,496.58198939985596,None,495.6023256999906,None,495.6023256999906,None,495.6023256999906,None,497.95787476999686,None,497.95787476999686,None,497.95787476999686,None,,,,,,,,,,,131,27,Female,2022-05-23_17h59.24.171,Boat,2022.1.1,59.89218209555224,
negative,neutral,1,j,l,,,,,,,,,8,3,147,3,,,,,,,,,,,,,,,,,,,,,,,,main,2,2,1,neutral,negative,l,l,1,1.005190100055188,497.9760290000122,498.99371899990365,498.9491749999579,None,497.9760290000122,None,497.9760290000122,None,497.9760290000122,None,499.9657595699653,None,499.9657595699653,None,499.9657595699653,None,,,,,,,,,,,131,27,Female,2022-05-23_17h59.24.171,Boat,2022.1.1,59.89218209555224,
negative,positive,1,j,l,,,,,,,,,8,4,148,6,,,,,,,,,,,,,,,,,,,,,,,,main,1,1,1,positive,negative,l,l,1,1.4447649999056011,499.982414299855,500.99973699986003,500.9646783999633,None,499.982414299855,None,499.982414299855,None,499.982414299855,None,502.4140528698452,None,502.4140528698452,None,502.4140528698452,None,,,,,,,,,,,131,27,Female,2022-05-23_17h59.24.171,Boat,2022.1.1,59.89218209555224,
neutral,negative,1,k,k,,,,,,,,,8,5,149,7,,,,,,,,,,,,,,,,,,,,,,,,main,2,2,1,negative,neutral,k,l,0,1.470434300135821,502.4321701999288,503.44936009985395,503.4120982000604,None,502.4321701999288,None,502.4321701999288,None,502.4321701999288,None,504.8915500000585,None,504.8915500000585,None,504.8915500000585,None,,,,,,,,,,,131,27,Female,2022-05-23_17h59.24.171,Boat,2022.1.1,59.89218209555224,
positive,positive,2,l,j,,,,,,,,,8,6,150,11,,,,,,,,,,,,,,,,,,,,,,,,main,1,1,2,positive,positive,j,j,1,3.6188495000824332,505.9024727998767,506.91598029993474,506.8807866999414,None,505.9024727998767,None,505.9024727998767,None,505.9024727998767,None,510.5155716999434,None,510.5155716999434,None,510.5155716999434,None,,,,,,,,,,,131,27,Female,2022-05-23_17h59.24.171,Boat,2022.1.1,59.89218209555224,
positive,negative,1,l,j,,,,,,,,,8,7,151,5,,,,,,,,,,,,,,,,,,,,,,,,main,1,1,1,negative,positive,j,j,1,0.9944879000540823,511.53573390003294,512.5441570000257,512.5259948000312,None,511.53573390003294,None,511.53573390003294,None,511.53573390003294,None,513.5162785700056,None,513.5162785700056,None,513.5162785700056,None,,,,,,,,,,,131,27,Female,2022-05-23_17h59.24.171,Boat,2022.1.1,59.89218209555224,
negative,negative,1,j,l,,,,,,,,,8,8,152,0,,,,,,,,,,,,,,,,,,,,,,,,main,2,2,1,negative,negative,l,l,1,0.7795432999264449,513.5330608000513,514.542650599964,514.5155503998976,None,513.5330608000513,None,513.5330608000513,None,513.5330608000513,None,515.2995871698483,None,515.2995871698483,None,515.2995871698483,None,,,,,,,,,,,131,27,Female,2022-05-23_17h59.24.171,Boat,2022.1.1,59.89218209555224,
negative,negative,2,j,l,,,,,,,,,8,9,153,9,,,,,,,,,,,,,,,,,,,,,,,,main,1,1,2,negative,negative,l,,0,0.9711504001170397,515.3163415000308,516.3157480999362,516.2995184999891,None,515.3163415000308,None,515.3163415000308,None,515.3163415000308,None,517.2802855998743,None,517.2802855998743,None,517.2802855998743,None,,,,,,,,,,,131,27,Female,2022-05-23_17h59.24.171,Boat,2022.1.1,59.89218209555224,
neutral,neutral,2,k,k,,,,,,,,,8,10,154,10,,,,,,,,,,,,,,,,,,,,,,,,main,2,2,2,neutral,neutral,k,k,1,1.1505311999935657,518.3025863000657,519.3181912999135,519.2827614999842,None,518.3025863000657,None,518.3025863000657,None,518.3025863000657,None,520.4379435700364,None,520.4379435700364,None,520.4379435700364,None,,,,,,,,,,,131,27,Female,2022-05-23_17h59.24.171,Boat,2022.1.1,59.89218209555224,
neutral,neutral,1,k,k,,,,,,,,,8,11,155,1,,,,,,,,,,,,,,,,,,,,,,,,main,2,2,1,neutral,neutral,k,k,1,1.0572295999154449,520.4569889998529,521.4782258998603,521.4323898998555,None,520.4569889998529,None,520.4569889998529,None,520.4569889998529,None,522.4992859700694,None,522.4992859700694,None,522.4992859700694,None,,,,,,,,,,,131,27,Female,2022-05-23_17h59.24.171,Boat,2022.1.1,59.89218209555224,
neutral,negative,2,k,k,,,,,,,,,8,12,156,16,,,,,,,,,,,,,,,,,,,,,,,,main,1,1,2,negative,neutral,k,k,1,0.8513073001522571,522.5165510000661,523.5262908998411,523.4993018000387,None,522.5165510000661,None,522.5165510000661,None,522.5165510000661,None,524.3530423698946,None,524.3530423698946,None,524.3530423698946,None,,,,,,,,,,,131,27,Female,2022-05-23_17h59.24.171,Boat,2022.1.1,59.89218209555224,
neutral,positive,2,k,k,,,,,,,,,8,13,157,13,,,,,,,,,,,,,,,,,,,,,,,,main,1,1,2,positive,neutral,k,k,1,1.4848869999404997,524.3708975999616,525.3784165999386,525.3598537000362,None,524.3708975999616,None,524.3708975999616,None,524.3708975999616,None,526.8405595700722,None,526.8405595700722,None,526.8405595700722,None,,,,,,,,,,,131,27,Female,2022-05-23_17h59.24.171,Boat,2022.1.1,59.89218209555224,
positive,positive,1,l,j,,,,,,,,,8,14,158,2,,,,,,,,,,,,,,,,,,,,,,,,main,2,2,1,positive,positive,j,j,1,1.0246651000343263,526.8586358998436,527.8668198999949,527.8314396999776,None,526.8586358998436,None,526.8586358998436,None,526.8586358998436,None,528.8678304699249,None,528.8678304699249,None,528.8678304699249,None,,,,,,,,,,,131,27,Female,2022-05-23_17h59.24.171,Boat,2022.1.1,59.89218209555224,
neutral,positive,1,k,k,,,,,,,,,8,15,159,4,,,,,,,,,,,,,,,,,,,,,,,,main,2,2,1,positive,neutral,k,k,1,0.9989120999816805,528.8861197000369,529.8996685999446,529.86245889985,None,528.8861197000369,None,528.8861197000369,None,528.8861197000369,None,530.8699938698671,None,530.8699938698671,None,530.8699938698671,None,,,,,,,,,,,131,27,Female,2022-05-23_17h59.24.171,Boat,2022.1.1,59.89218209555224,
positive,neutral,1,l,j,,,,,,,,,8,16,160,8,,,,,,,,,,,,,,,,,,,,,,,,main,2,2,1,neutral,positive,j,j,1,1.1127118000295013,530.8874194999225,531.8998867999762,531.8622194998898,None,530.8874194999225,None,530.8874194999225,None,530.8874194999225,None,532.9846883699763,None,532.9846883699763,None,532.9846883699763,None,,,,,,,,,,,131,27,Female,2022-05-23_17h59.24.171,Boat,2022.1.1,59.89218209555224,
positive,negative,2,l,j,,,,,,,,,8,17,161,14,,,,,,,,,,,,,,,,,,,,,,,,main,1,1,2,negative,positive,j,j,1,1.1437776000238955,533.0015540998429,534.0160431999248,533.9785796999931,None,533.0015540998429,None,533.0015540998429,None,533.0015540998429,None,535.1321839699056,None,535.1321839699056,None,535.1321839699056,None,,,,,,,,,,,131,27,Female,2022-05-23_17h59.24.171,Boat,2022.1.1,59.89218209555224,
neutral,positive,1,k,k,,,,,,,,,9,0,162,4,,,,,,,,,,,,,,,,,,,,,,,,main,2,2,1,positive,neutral,k,k,1,0.8556534999515861,535.1494279999752,536.1500031999312,536.1332729998976,None,535.1494279999752,None,535.1494279999752,None,535.1494279999752,None,536.9900740698911,None,536.9900740698911,None,536.9900740698911,None,,,,,,,,,,,131,27,Female,2022-05-23_17h59.24.171,Boat,2022.1.1,59.89218209555224,
negative,positive,1,j,l,,,,,,,,,9,1,163,6,,,,,,,,,,,,,,,,,,,,,,,,main,2,2,1,positive,negative,l,l,1,0.8118703998625278,537.0080673999619,538.0280078998767,537.9829979999922,None,537.0080673999619,None,537.0080673999619,None,537.0080673999619,None,538.8042035700753,None,538.8042035700753,None,538.8042035700753,None,,,,,,,,,,,131,27,Female,2022-05-23_17h59.24.171,Boat,2022.1.1,59.89218209555224,
positive,neutral,2,l,j,,,,,,,,,9,2,164,17,,,,,,,,,,,,,,,,,,,,,,,,main,2,2,2,neutral,positive,j,j,1,0.9378078998997808,538.8213802999817,539.8333387000021,539.7982846000232,None,538.8213802999817,None,538.8213802999817,None,538.8213802999817,None,540.7458723699208,None,540.7458723699208,None,540.7458723699208,None,,,,,,,,,,,131,27,Female,2022-05-23_17h59.24.171,Boat,2022.1.1,59.89218209555224,
positive,positive,2,l,j,,,,,,,,,9,3,165,11,,,,,,,,,,,,,,,,,,,,,,,,main,1,1,2,positive,positive,j,j,1,0.8172071001026779,540.7635156000033,541.7681040999014,541.7342745000497,None,540.7635156000033,None,540.7635156000033,None,540.7635156000033,None,542.5642929700668,None,542.5642929700668,None,542.5642929700668,None,,,,,,,,,,,131,27,Female,2022-05-23_17h59.24.171,Boat,2022.1.1,59.89218209555224,
negative,neutral,1,j,l,,,,,,,,,9,4,166,3,,,,,,,,,,,,,,,,,,,,,,,,main,2,2,1,neutral,negative,l,l,1,0.9005362999159843,542.5825346999336,543.5839404999278,543.5666976000648,None,542.5825346999336,None,542.5825346999336,None,542.5825346999336,None,544.4685884699691,None,544.4685884699691,None,544.4685884699691,None,,,,,,,,,,,131,27,Female,2022-05-23_17h59.24.171,Boat,2022.1.1,59.89218209555224,
neutral,positive,2,k,k,,,,,,,,,9,5,167,13,,,,,,,,,,,,,,,,,,,,,,,,main,1,1,2,positive,neutral,k,k,1,0.9104323999490589,544.4857848000247,545.5005518998951,545.4665099999402,None,544.4857848000247,None,544.4857848000247,None,544.4857848000247,None,546.3831502699293,None,546.3831502699293,None,546.3831502699293,None,,,,,,,,,,,131,27,Female,2022-05-23_17h59.24.171,Boat,2022.1.1,59.89218209555224,
negative,negative,2,j,l,,,,,,,,,9,6,168,9,,,,,,,,,,,,,,,,,,,,,,,,main,1,1,2,negative,negative,l,l,1,2.628689300036058,546.4003212000243,547.4165543999989,547.3811981000472,None,546.4003212000243,None,546.4003212000243,None,546.4003212000243,None,550.0192156999838,None,550.0192156999838,None,550.0192156999838,None,,,,,,,,,,,131,27,Female,2022-05-23_17h59.24.171,Boat,2022.1.1,59.89218209555224,
positive,negative,2,l,j,,,,,,,,,9,7,169,14,,,,,,,,,,,,,,,,,,,,,,,,main,2,2,2,negative,positive,j,j,1,0.9824707000516355,551.0358752000611,552.0517692998983,552.0167568000033,None,551.0358752000611,None,551.0358752000611,None,551.0358752000611,None,553.0025958700105,None,553.0025958700105,None,553.0025958700105,None,,,,,,,,,,,131,27,Female,2022-05-23_17h59.24.171,Boat,2022.1.1,59.89218209555224,
negative,negative,1,j,l,,,,,,,,,9,8,170,0,,,,,,,,,,,,,,,,,,,,,,,,main,1,1,1,negative,negative,l,l,1,1.1195031001698226,553.0206208999734,554.0304068999831,554.0119717998896,None,553.0206208999734,None,553.0206208999734,None,553.0206208999734,None,555.1267229699995,None,555.1267229699995,None,555.1267229699995,None,,,,,,,,,,,131,27,Female,2022-05-23_17h59.24.171,Boat,2022.1.1,59.89218209555224,
neutral,negative,2,k,k,,,,,,,,,9,9,171,16,,,,,,,,,,,,,,,,,,,,,,,,main,1,1,2,negative,neutral,k,k,1,0.9604588998481631,555.1442169998772,556.1602018000558,556.1171724998858,None,555.1442169998772,None,555.1442169998772,None,555.1442169998772,None,557.0890531700104,None,557.0890531700104,None,557.0890531700104,None,,,,,,,,,,,131,27,Female,2022-05-23_17h59.24.171,Boat,2022.1.1,59.89218209555224,
negative,neutral,2,j,l,,,,,,,,,9,10,172,12,,,,,,,,,,,,,,,,,,,,,,,,main,1,1,2,neutral,negative,l,l,1,0.8589801997877657,557.1072885999456,558.1179671999998,558.0838425999973,None,557.1072885999456,None,557.1072885999456,None,557.1072885999456,None,558.950892870035,None,558.950892870035,None,558.950892870035,None,,,,,,,,,,,131,27,Female,2022-05-23_17h59.24.171,Boat,2022.1.1,59.89218209555224,
positive,neutral,1,l,j,,,,,,,,,9,11,173,8,,,,,,,,,,,,,,,,,,,,,,,,main,1,1,1,neutral,positive,j,j,1,0.7694569998420775,558.967849199893,559.9766325999517,559.9504186999984,None,558.967849199893,None,558.967849199893,None,558.967849199893,None,560.7234417700208,None,560.7234417700208,None,560.7234417700208,None,,,,,,,,,,,131,27,Female,2022-05-23_17h59.24.171,Boat,2022.1.1,59.89218209555224,
neutral,neutral,2,k,k,,,,,,,,,9,12,174,10,,,,,,,,,,,,,,,,,,,,,,,,main,2,2,2,neutral,neutral,k,k,1,2.5450738999061286,560.7410935000516,561.7505361000076,561.7155483998358,None,560.7410935000516,None,560.7410935000516,None,560.7410935000516,None,564.2753232000396,None,564.2753232000396,None,564.2753232000396,None,,,,,,,,,,,131,27,Female,2022-05-23_17h59.24.171,Boat,2022.1.1,59.89218209555224,
negative,positive,2,j,l,,,,,,,,,9,13,175,15,,,,,,,,,,,,,,,,,,,,,,,,main,1,1,2,positive,negative,l,l,1,0.9434169998858124,565.2873158999719,566.3104813999962,566.2670583999716,None,565.2873158999719,None,565.2873158999719,None,565.2873158999719,None,567.2162319700699,None,567.2162319700699,None,567.2162319700699,None,,,,,,,,,,,131,27,Female,2022-05-23_17h59.24.171,Boat,2022.1.1,59.89218209555224,
neutral,neutral,1,k,k,,,,,,,,,9,14,176,1,,,,,,,,,,,,,,,,,,,,,,,,main,1,1,1,neutral,neutral,k,k,1,0.7729442999698222,567.2329090998974,568.2336072998587,568.2161635998636,None,567.2329090998974,None,567.2329090998974,None,567.2329090998974,None,568.9913489699363,None,568.9913489699363,None,568.9913489699363,None,,,,,,,,,,,131,27,Female,2022-05-23_17h59.24.171,Boat,2022.1.1,59.89218209555224,
positive,positive,1,l,j,,,,,,,,,9,15,177,2,,,,,,,,,,,,,,,,,,,,,,,,main,2,2,1,positive,positive,j,j,1,4.978586399927735,569.0091939999256,570.0268500999082,569.983599799918,None,569.0091939999256,None,569.0091939999256,None,569.0091939999256,None,574.9789917999879,None,574.9789917999879,None,574.9789917999879,None,,,,,,,,,,,131,27,Female,2022-05-23_17h59.24.171,Boat,2022.1.1,59.89218209555224,
positive,negative,1,l,j,,,,,,,,,9,16,178,5,,,,,,,,,,,,,,,,,,,,,,,,main,1,1,1,negative,positive,j,j,1,0.884765800088644,575.9875556000043,577.013093000045,576.9670790999662,None,575.9875556000043,None,575.9875556000043,None,575.9875556000043,None,577.8565649699419,None,577.8565649699419,None,577.8565649699419,None,,,,,,,,,,,131,27,Female,2022-05-23_17h59.24.171,Boat,2022.1.1,59.89218209555224,
neutral,negative,1,k,k,,,,,,,,,9,17,179,7,,,,,,,,,,,,,,,,,,,,,,,,main,2,2,1,negative,neutral,k,k,1,1.2992600998841226,577.8739414999727,578.8847352999728,578.850999899907,None,577.8739414999727,None,577.8739414999727,None,577.8739414999727,None,580.1575865698512,None,580.1575865698512,None,580.1575865698512,None,,,,,,,,,,,131,27,Female,2022-05-23_17h59.24.171,Boat,2022.1.1,59.89218209555224,
neutral,neutral,1,k,k,,,,,,,,,10,0,180,1,,,,,,,,,,,,,,,,,,,,,,,,main,2,2,1,neutral,neutral,k,k,1,2.617602000012994,580.1757861999795,581.1842728999909,581.1489611000288,None,580.1757861999795,None,580.1757861999795,None,580.1757861999795,None,583.7840449998621,None,583.7840449998621,None,583.7840449998621,None,,,,,,,,,,,131,27,Female,2022-05-23_17h59.24.171,Boat,2022.1.1,59.89218209555224,
positive,negative,1,l,j,,,,,,,,,10,1,181,5,,,,,,,,,,,,,,,,,,,,,,,,main,2,2,1,negative,positive,j,j,1,4.1252355999313295,584.8044781000353,585.8125883999746,585.7943261000328,None,584.8044781000353,None,584.8044781000353,None,584.8044781000353,None,589.9172642999329,None,589.9172642999329,None,589.9172642999329,None,,,,,,,,,,,131,27,Female,2022-05-23_17h59.24.171,Boat,2022.1.1,59.89218209555224,
negative,positive,2,j,l,,,,,,,,,10,2,182,15,,,,,,,,,,,,,,,,,,,,,,,,main,2,2,2,positive,negative,l,l,1,0.8256772998720407,590.937173999846,591.9511011999566,591.9146491999272,None,590.937173999846,None,590.937173999846,None,590.937173999846,None,592.7471997700166,None,592.7471997700166,None,592.7471997700166,None,,,,,,,,,,,131,27,Female,2022-05-23_17h59.24.171,Boat,2022.1.1,59.89218209555224,
positive,positive,2,l,j,,,,,,,,,10,3,183,11,,,,,,,,,,,,,,,,,,,,,,,,main,2,2,2,positive,positive,j,j,1,0.8701622998341918,592.7673945999704,593.7778874998912,593.7510456999298,None,592.7673945999704,None,592.7673945999704,None,592.7673945999704,None,594.6215297700371,None,594.6215297700371,None,594.6215297700371,None,,,,,,,,,,,131,27,Female,2022-05-23_17h59.24.171,Boat,2022.1.1,59.89218209555224,
positive,neutral,1,l,j,,,,,,,,,10,4,184,8,,,,,,,,,,,,,,,,,,,,,,,,main,1,1,1,neutral,positive,j,j,1,0.7992505999282002,594.640098300064,595.6518862000667,595.6178539998364,None,594.640098300064,None,594.640098300064,None,594.640098300064,None,596.4238829700741,None,596.4238829700741,None,596.4238829700741,None,,,,,,,,,,,131,27,Female,2022-05-23_17h59.24.171,Boat,2022.1.1,59.89218209555224,
neutral,neutral,2,k,k,,,,,,,,,10,5,185,10,,,,,,,,,,,,,,,,,,,,,,,,main,1,1,2,neutral,neutral,k,k,1,0.7145897999871522,596.4407802999485,597.4509286999237,597.4137138999067,None,596.4407802999485,None,596.4407802999485,None,596.4407802999485,None,598.1411690699867,None,598.1411690699867,None,598.1411690699867,None,,,,,,,,,,,131,27,Female,2022-05-23_17h59.24.171,Boat,2022.1.1,59.89218209555224,
positive,neutral,2,l,j,,,,,,,,,10,6,186,17,,,,,,,,,,,,,,,,,,,,,,,,main,2,2,2,neutral,positive,j,j,1,0.7347462000325322,598.157736199908,599.1799979000352,599.1328270998783,None,598.157736199908,None,598.157736199908,None,598.157736199908,None,599.8788333700038,None,599.8788333700038,None,599.8788333700038,None,,,,,,,,,,,131,27,Female,2022-05-23_17h59.24.171,Boat,2022.1.1,59.89218209555224,
neutral,positive,2,k,k,,,,,,,,,10,7,187,13,,,,,,,,,,,,,,,,,,,,,,,,main,1,1,2,positive,neutral,k,j,0,0.8074338999576867,599.8972831999417,600.8980926000513,600.8797676998656,None,599.8972831999417,None,599.8972831999417,None,599.8972831999417,None,601.692217099946,None,601.692217099946,None,601.692217099946,None,,,,,,,,,,,131,27,Female,2022-05-23_17h59.24.171,Boat,2022.1.1,59.89218209555224,
positive,positive,1,l,j,,,,,,,,,10,8,188,2,,,,,,,,,,,,,,,,,,,,,,,,main,1,1,1,positive,positive,j,j,1,2.354140399955213,602.703901699977,603.7169331000187,603.6979262998793,None,602.703901699977,None,602.703901699977,None,602.703901699977,None,606.0507183999289,None,606.0507183999289,None,606.0507183999289,None,,,,,,,,,,,131,27,Female,2022-05-23_17h59.24.171,Boat,2022.1.1,59.89218209555224,
negative,positive,1,j,l,,,,,,,,,10,9,189,6,,,,,,,,,,,,,,,,,,,,,,,,main,1,1,1,positive,negative,l,l,1,0.8730152999050915,607.0695535000414,608.0849478999153,608.0466024999041,None,607.0695535000414,None,607.0695535000414,None,607.0695535000414,None,608.9293909698724,None,608.9293909698724,None,608.9293909698724,None,,,,,,,,,,,131,27,Female,2022-05-23_17h59.24.171,Boat,2022.1.1,59.89218209555224,
neutral,negative,2,k,k,,,,,,,,,10,10,190,16,,,,,,,,,,,,,,,,,,,,,,,,main,2,2,2,negative,neutral,k,k,1,0.859178900020197,608.9473991000559,609.9615771998651,609.9179823999293,None,608.9473991000559,None,608.9473991000559,None,608.9473991000559,None,610.7901075700763,None,610.7901075700763,None,610.7901075700763,None,,,,,,,,,,,131,27,Female,2022-05-23_17h59.24.171,Boat,2022.1.1,59.89218209555224,
positive,negative,2,l,j,,,,,,,,,10,11,191,14,,,,,,,,,,,,,,,,,,,,,,,,main,2,2,2,negative,positive,j,j,1,0.8301591000054032,610.8080756999552,611.8195799998939,611.7851893999614,None,610.8080756999552,None,610.8080756999552,None,610.8080756999552,None,612.6230205699801,None,612.6230205699801,None,612.6230205699801,None,,,,,,,,,,,131,27,Female,2022-05-23_17h59.24.171,Boat,2022.1.1,59.89218209555224,
neutral,negative,1,k,k,,,,,,,,,10,12,192,7,,,,,,,,,,,,,,,,,,,,,,,,main,1,1,1,negative,neutral,k,k,1,0.8881534000393003,612.6418695999309,613.6509997998364,613.6133007998578,None,612.6418695999309,None,612.6418695999309,None,612.6418695999309,None,614.5149959700182,None,614.5149959700182,None,614.5149959700182,None,,,,,,,,,,,131,27,Female,2022-05-23_17h59.24.171,Boat,2022.1.1,59.89218209555224,
negative,neutral,2,j,l,,,,,,,,,10,13,193,12,,,,,,,,,,,,,,,,,,,,,,,,main,2,2,2,neutral,negative,l,l,1,1.034225800074637,614.533706799848,615.5517599999439,615.5144410000648,None,614.533706799848,None,614.533706799848,None,614.533706799848,None,616.5518287699203,None,616.5518287699203,None,616.5518287699203,None,,,,,,,,,,,131,27,Female,2022-05-23_17h59.24.171,Boat,2022.1.1,59.89218209555224,
neutral,positive,1,k,k,,,,,,,,,10,14,194,4,,,,,,,,,,,,,,,,,,,,,,,,main,2,2,1,positive,neutral,k,k,1,0.8263093000277877,616.5692886998877,617.5851203000639,617.5483393999748,None,616.5692886998877,None,616.5692886998877,None,616.5692886998877,None,618.3818626699037,None,618.3818626699037,None,618.3818626699037,None,,,,,,,,,,,131,27,Female,2022-05-23_17h59.24.171,Boat,2022.1.1,59.89218209555224,
negative,neutral,1,j,l,,,,,,,,,10,15,195,3,,,,,,,,,,,,,,,,,,,,,,,,main,2,2,1,neutral,negative,l,k,0,0.9571080999448895,618.4021029998548,619.4198712999932,619.3830313999206,None,618.4021029998548,None,618.4021029998548,None,618.4021029998548,None,620.3474252999295,None,620.3474252999295,None,620.3474252999295,None,,,,,,,,,,,131,27,Female,2022-05-23_17h59.24.171,Boat,2022.1.1,59.89218209555224,
negative,negative,2,j,l,,,,,,,,,10,16,196,9,,,,,,,,,,,,,,,,,,,,,,,,main,2,2,2,negative,negative,l,l,1,0.762863399926573,621.3535943999887,622.3705922998488,622.3356302999891,None,621.3535943999887,None,621.3535943999887,None,621.3535943999887,None,623.1028789700474,None,623.1028789700474,None,623.1028789700474,None,,,,,,,,,,,131,27,Female,2022-05-23_17h59.24.171,Boat,2022.1.1,59.89218209555224,
negative,negative,1,j,l,,,,,,,,,10,17,197,0,,,,,,,,,,,,,,,,,,,,,,,,main,2,2,1,negative,negative,l,l,1,0.6895361000206321,623.1198666999117,624.1331066000275,624.0965211000293,None,623.1198666999117,None,623.1198666999117,None,623.1198666999117,None,624.7958508699201,None,624.7958508699201,None,624.7958508699201,None,,,,,,,,,,,131,27,Female,2022-05-23_17h59.24.171,Boat,2022.1.1,59.89218209555224,
positive,positive,1,l,j,,,,,,,,,11,0,198,2,,,,,,,,,,,,,,,,,,,,,,,,main,1,1,1,positive,positive,j,j,1,0.8282394998241216,624.8141848999076,625.8298559999093,625.8116253998596,None,624.8141848999076,None,624.8141848999076,None,624.8141848999076,None,626.6258154699578,None,626.6258154699578,None,626.6258154699578,None,,,,,,,,,,,131,27,Female,2022-05-23_17h59.24.171,Boat,2022.1.1,59.89218209555224,
positive,negative,2,l,j,,,,,,,,,11,1,199,14,,,,,,,,,,,,,,,,,,,,,,,,main,1,1,2,negative,positive,j,j,1,1.2152131998445839,626.6432517999783,627.655393499881,627.6191428999882,None,626.6432517999783,None,626.6432517999783,None,626.6432517999783,None,628.8446611698716,None,628.8446611698716,None,628.8446611698716,None,,,,,,,,,,,131,27,Female,2022-05-23_17h59.24.171,Boat,2022.1.1,59.89218209555224,
negative,negative,1,j,l,,,,,,,,,11,2,200,0,,,,,,,,,,,,,,,,,,,,,,,,main,1,1,1,negative,negative,l,l,1,4.615193699952215,628.8629389000125,629.8800567998551,629.8351624000352,None,628.8629389000125,None,628.8629389000125,None,628.8629389000125,None,634.4685440000612,None,634.4685440000612,None,634.4685440000612,None,,,,,,,,,,,131,27,Female,2022-05-23_17h59.24.171,Boat,2022.1.1,59.89218209555224,
neutral,negative,1,k,k,,,,,,,,,11,3,201,7,,,,,,,,,,,,,,,,,,,,,,,,main,2,2,1,negative,neutral,k,k,1,0.8374192998744547,635.4883852000348,636.5022460999899,636.4670038998593,None,635.4883852000348,None,635.4883852000348,None,635.4883852000348,None,637.3110831700731,None,637.3110831700731,None,637.3110831700731,None,,,,,,,,,,,131,27,Female,2022-05-23_17h59.24.171,Boat,2022.1.1,59.89218209555224,
negative,positive,2,j,l,,,,,,,,,11,4,202,15,,,,,,,,,,,,,,,,,,,,,,,,main,2,2,2,positive,negative,l,l,1,4.599036799976602,637.3289482998662,638.3456603998784,638.3024208999705,None,637.3289482998662,None,637.3289482998662,None,637.3289482998662,None,642.9186195000075,None,642.9186195000075,None,642.9186195000075,None,,,,,,,,,,,131,27,Female,2022-05-23_17h59.24.171,Boat,2022.1.1,59.89218209555224,
neutral,neutral,2,k,k,,,,,,,,,11,5,203,10,,,,,,,,,,,,,,,,,,,,,,,,main,2,2,2,neutral,neutral,k,k,1,2.3866479001007974,643.9401984000579,644.9491254000459,644.9313145000488,None,643.9401984000579,None,643.9401984000579,None,643.9401984000579,None,647.3159723000135,None,647.3159723000135,None,647.3159723000135,None,,,,,,,,,,,131,27,Female,2022-05-23_17h59.24.171,Boat,2022.1.1,59.89218209555224,
positive,negative,1,l,j,,,,,,,,,11,6,204,5,,,,,,,,,,,,,,,,,,,,,,,,main,2,2,1,negative,positive,j,j,1,1.0051649999804795,648.3394112000242,649.3547479000408,649.3193256000523,None,648.3394112000242,None,648.3394112000242,None,648.3394112000242,None,650.3293999698478,None,650.3293999698478,None,650.3293999698478,None,,,,,,,,,,,131,27,Female,2022-05-23_17h59.24.171,Boat,2022.1.1,59.89218209555224,
neutral,neutral,1,k,k,,,,,,,,,11,7,205,1,,,,,,,,,,,,,,,,,,,,,,,,main,1,1,1,neutral,neutral,k,k,1,1.8544691000133753,650.3501408000011,651.3635964998975,651.3187332998496,None,650.3501408000011,None,650.3501408000011,None,650.3501408000011,None,653.190630499972,None,653.190630499972,None,653.190630499972,None,,,,,,,,,,,131,27,Female,2022-05-23_17h59.24.171,Boat,2022.1.1,59.89218209555224,
negative,neutral,2,j,l,,,,,,,,,11,8,206,12,,,,,,,,,,,,,,,,,,,,,,,,main,2,2,2,neutral,negative,l,l,1,2.194910599850118,654.2049269999843,655.2193990000524,655.1832172998693,None,654.2049269999843,None,654.2049269999843,None,654.2049269999843,None,657.3876523999497,None,657.3876523999497,None,657.3876523999497,None,,,,,,,,,,,131,27,Female,2022-05-23_17h59.24.171,Boat,2022.1.1,59.89218209555224,
positive,neutral,2,l,j,,,,,,,,,11,9,207,17,,,,,,,,,,,,,,,,,,,,,,,,main,2,2,2,neutral,positive,j,,0,1.2286608000285923,658.4047538000159,659.4195719999261,659.3860821998678,None,658.4047538000159,None,658.4047538000159,None,658.4047538000159,None,660.6233242999297,None,660.6233242999297,None,660.6233242999297,None,,,,,,,,,,,131,27,Female,2022-05-23_17h59.24.171,Boat,2022.1.1,59.89218209555224,
negative,positive,1,j,l,,,,,,,,,11,10,208,6,,,,,,,,,,,,,,,,,,,,,,,,main,2,2,1,positive,negative,l,k,0,0.956508900038898,661.638859000057,662.6527283999603,662.6191916000098,None,661.638859000057,None,661.638859000057,None,661.638859000057,None,663.585797399981,None,663.585797399981,None,663.585797399981,None,,,,,,,,,,,131,27,Female,2022-05-23_17h59.24.171,Boat,2022.1.1,59.89218209555224,
