target,distractor,set,ans1,ans2,rep_loop2.thisRepN,rep_loop2.thisTrialN,rep_loop2.thisN,rep_loop2.thisIndex,flanker_prac_loop.thisRepN,flanker_prac_loop.thisTrialN,flanker_prac_loop.thisN,flanker_prac_loop.thisIndex,flanker_main_loop.thisRepN,flanker_main_loop.thisTrialN,flanker_main_loop.thisN,flanker_main_loop.thisIndex,fl_inst_resp.keys,mouse.x,mouse.y,mouse.leftButton,mouse.midButton,mouse.rightButton,mouse.started,mouse.stopped,sound_1.started,sound_1.stopped,no_text.started,no_text.stopped,yes_text.started,yes_text.stopped,mouse_2.x,mouse_2.y,mouse_2.leftButton,mouse_2.midButton,mouse_2.rightButton,mouse_2.started,mouse_2.stopped,back_2.started,back_2.stopped,main_prac,fl_cold,fl_colt,fl_set,fl_dcond,fl_tcond,fl_ans,fl_res,fl_corr,fl_rt,fix_fl.started,fix_fl.stopped,targ.started,targ.stopped,j_button.started,j_button.stopped,k_button.started,k_button.stopped,l_button.started,l_button.stopped,j_button2.started,j_button2.stopped,k_button2.started,k_button2.stopped,l_button2.started,l_button2.stopped,mainback.started,mainback.stopped,key_resp.keys,mouse_6.x,mouse_6.y,mouse_6.leftButton,mouse_6.midButton,mouse_6.rightButton,mouse_6.started,mouse_6.stopped,id*,age*,gender*,date,expName,psychopyVersion,frameRate,
,,,,,0,0,0,0,,,,,,,,,None,0.18981482,-0.36481482,0,0,0,1.027411614311859,None,31.825960320024752,None,82.01165890018456,None,82.01165890018456,None,0.08425926,-0.12962963,0,0,0,0.00989921996369958,None,,,,,,,,,,,,,,,,,,,,,,,,,,,,,,,,,,,,,,,132,24,Female,2022-05-17_17h09.34.567,Boat,2022.1.1,59.99743211829064,
,,,,,1,0,1,0,,,,,,,,,None,0.03425926,-0.11296296,0,0,0,None,None,None,None,87.44354970008135,None,87.44354970008135,None,-0.073148146,-0.108333334,0,0,0,0.01283121993765235,None,,,,,,,,,,,,,,,,,,,,,,,,,,,,,,,,,,,,,,,132,24,Female,2022-05-17_17h09.34.567,Boat,2022.1.1,59.99743211829064,
positive,positive,1,l,j,,,,,0,0,0,2,,,,,,,,,,,,,,,,,,,,,,,,,,89.66221870016307,None,prac,2,2,1,positive,positive,l,l,1,1.7143238000571728,91.69351040013134,92.69918890018016,92.66536940005608,None,91.69351040013134,None,91.69351040013134,None,91.69351040013134,None,94.40273640002124,None,94.40273640002124,None,94.40273640002124,None,,,,,,,,,,,132,24,Female,2022-05-17_17h09.34.567,Boat,2022.1.1,59.99743211829064,
positive,neutral,1,l,j,,,,,0,1,1,8,,,,,,,,,,,,,,,,,,,,,,,,,,,,prac,2,2,1,neutral,positive,l,l,1,0.9544149001594633,95.42971940012649,96.433466500137,96.39872559998184,None,95.42971940012649,None,95.42971940012649,None,95.42971940012649,None,97.35690792005043,None,97.35690792005043,None,97.35690792005043,None,,,,,,,,,,,132,24,Female,2022-05-17_17h09.34.567,Boat,2022.1.1,59.99743211829064,
positive,positive,2,l,j,,,,,0,2,2,11,,,,,,,,,,,,,,,,,,,,,,,,,,,,prac,2,2,2,positive,positive,l,l,1,0.7430084999650717,97.38258690014482,98.38232149998657,98.36556060006842,None,97.38258690014482,None,97.38258690014482,None,97.38258690014482,None,99.10448302009608,None,99.10448302009608,None,99.10448302009608,None,,,,,,,,,,,132,24,Female,2022-05-17_17h09.34.567,Boat,2022.1.1,59.99743211829064,
positive,negative,1,l,j,,,,,0,3,3,5,,,,,,,,,,,,,,,,,,,,,,,,,,,,prac,1,1,1,negative,positive,l,l,1,0.916173999896273,99.1374921000097,100.14893340016715,100.13198700011708,None,99.1374921000097,None,99.1374921000097,None,99.1374921000097,None,101.0232620200375,None,101.0232620200375,None,101.0232620200375,None,,,,,,,,,,,132,24,Female,2022-05-17_17h09.34.567,Boat,2022.1.1,59.99743211829064,
positive,negative,2,l,j,,,,,0,4,4,14,,,,,,,,,,,,,,,,,,,,,,,,,,,,prac,2,2,2,negative,positive,l,l,1,0.7652662999462336,101.05259780003689,102.06770780007355,102.0489591001533,None,101.05259780003689,None,101.05259780003689,None,101.05259780003689,None,102.79240842007566,None,102.79240842007566,None,102.79240842007566,None,,,,,,,,,,,132,24,Female,2022-05-17_17h09.34.567,Boat,2022.1.1,59.99743211829064,
neutral,neutral,1,k,k,,,,,0,5,5,1,,,,,,,,,,,,,,,,,,,,,,,,,,,,prac,2,2,1,neutral,neutral,k,,0,1.5339352001901716,102.8124796000775,103.8330877001863,103.8088225000538,None,102.8124796000775,None,102.8124796000775,None,102.8124796000775,None,105.34011410013773,None,105.34011410013773,None,105.34011410013773,None,,,,,,,,,,,132,24,Female,2022-05-17_17h09.34.567,Boat,2022.1.1,59.99743211829064,
negative,negative,2,j,l,,,,,0,6,6,9,,,,,,,,,,,,,,,,,,,,,,,,,,,,prac,1,1,2,negative,negative,j,j,1,0.8407732001505792,106.35547110019252,107.36552350013517,107.34647790016606,None,106.35547110019252,None,106.35547110019252,None,106.35547110019252,None,108.17508272018749,None,108.17508272018749,None,108.17508272018749,None,,,,,,,,,,,132,24,Female,2022-05-17_17h09.34.567,Boat,2022.1.1,59.99743211829064,
neutral,positive,2,k,k,,,,,0,7,7,13,,,,,,,,,,,,,,,,,,,,,,,,,,,,prac,2,2,2,positive,neutral,k,k,1,0.7107203998602927,108.21492750011384,109.21615200000815,109.19835950015113,None,108.21492750011384,None,108.21492750011384,None,108.21492750011384,None,109.89476861997973,None,109.89476861997973,None,109.89476861997973,None,,,,,,,,,,,132,24,Female,2022-05-17_17h09.34.567,Boat,2022.1.1,59.99743211829064,
negative,positive,2,j,l,,,,,0,8,8,15,,,,,,,,,,,,,,,,,,,,,,,,,,,,prac,1,1,2,positive,negative,j,j,1,1.2092166999354959,109.92321350006387,110.93241520016454,110.91399440006353,None,109.92321350006387,None,109.92321350006387,None,109.92321350006387,None,112.10510202015284,None,112.10510202015284,None,112.10510202015284,None,,,,,,,,,,,132,24,Female,2022-05-17_17h09.34.567,Boat,2022.1.1,59.99743211829064,
neutral,neutral,2,k,k,,,,,0,9,9,10,,,,,,,,,,,,,,,,,,,,,,,,,,,,prac,1,1,2,neutral,neutral,k,k,1,0.8540094001218677,112.13024590001442,113.14874950004742,113.1274833001662,None,112.13024590001442,None,112.13024590001442,None,112.13024590001442,None,113.96245842014905,None,113.96245842014905,None,113.96245842014905,None,,,,,,,,,,,132,24,Female,2022-05-17_17h09.34.567,Boat,2022.1.1,59.99743211829064,
neutral,positive,1,k,k,,,,,0,10,10,4,,,,,,,,,,,,,,,,,,,,,,,,,,,,prac,2,2,1,positive,neutral,k,k,1,0.848253000061959,113.98434410011396,114.9923135000281,114.9733758000657,None,113.98434410011396,None,113.98434410011396,None,113.98434410011396,None,115.81346692012157,None,115.81346692012157,None,115.81346692012157,None,,,,,,,,,,,132,24,Female,2022-05-17_17h09.34.567,Boat,2022.1.1,59.99743211829064,
negative,neutral,1,j,l,,,,,0,11,11,3,,,,,,,,,,,,,,,,,,,,,,,,,,,,prac,1,1,1,neutral,negative,j,j,1,0.901926799910143,115.83445930015296,116.8494957999792,116.81281460006721,None,115.83445930015296,None,115.83445930015296,None,115.83445930015296,None,117.71704612004105,None,117.71704612004105,None,117.71704612004105,None,,,,,,,,,,,132,24,Female,2022-05-17_17h09.34.567,Boat,2022.1.1,59.99743211829064,
positive,neutral,2,l,j,,,,,0,12,12,17,,,,,,,,,,,,,,,,,,,,,,,,,,,,prac,2,2,2,neutral,positive,l,l,1,0.6552472999319434,117.74891940015368,118.75104930019006,118.73345319996588,None,117.74891940015368,None,117.74891940015368,None,117.74891940015368,None,119.37677032018546,None,119.37677032018546,None,119.37677032018546,None,,,,,,,,,,,132,24,Female,2022-05-17_17h09.34.567,Boat,2022.1.1,59.99743211829064,
negative,neutral,2,j,l,,,,,0,13,13,12,,,,,,,,,,,,,,,,,,,,,,,,,,,,prac,2,2,2,neutral,negative,j,j,1,0.9610232999548316,119.39807640016079,120.40184780000709,120.38409750000574,None,119.39807640016079,None,119.39807640016079,None,119.39807640016079,None,121.33912442002911,None,121.33912442002911,None,121.33912442002911,None,,,,,,,,,,,132,24,Female,2022-05-17_17h09.34.567,Boat,2022.1.1,59.99743211829064,
neutral,negative,2,k,k,,,,,0,14,14,16,,,,,,,,,,,,,,,,,,,,,,,,,,,,prac,2,2,2,negative,neutral,k,k,1,0.7404696999583393,121.35806690016761,122.36859269998968,122.33211040007882,None,121.35806690016761,None,121.35806690016761,None,121.35806690016761,None,123.08297341999132,None,123.08297341999132,None,123.08297341999132,None,,,,,,,,,,,132,24,Female,2022-05-17_17h09.34.567,Boat,2022.1.1,59.99743211829064,
negative,positive,1,j,l,,,,,0,15,15,6,,,,,,,,,,,,,,,,,,,,,,,,,,,,prac,2,2,1,positive,negative,j,j,1,0.7984172001015395,123.11349560017698,124.12217040010728,124.10431670001708,None,123.11349560017698,None,123.11349560017698,None,123.11349560017698,None,124.88332912006881,None,124.88332912006881,None,124.88332912006881,None,,,,,,,,,,,132,24,Female,2022-05-17_17h09.34.567,Boat,2022.1.1,59.99743211829064,
negative,negative,1,j,l,,,,,0,16,16,0,,,,,,,,,,,,,,,,,,,,,,,,,,,,prac,2,2,1,negative,negative,j,j,1,1.9180728001520038,124.91535160015337,125.91786210006103,125.89947100006975,None,124.91535160015337,None,124.91535160015337,None,124.91535160015337,None,127.81177010014653,None,127.81177010014653,None,127.81177010014653,None,,,,,,,,,,,132,24,Female,2022-05-17_17h09.34.567,Boat,2022.1.1,59.99743211829064,
neutral,negative,1,k,k,,,,,0,17,17,7,,,,,,,,,,,,,,,,,,,,,,,,,,,,prac,1,1,1,negative,neutral,k,k,1,0.8637012001127005,128.81983150006272,129.8352749000769,129.7976119001396,None,128.81983150006272,None,128.81983150006272,None,128.81983150006272,None,130.66638132005465,None,130.66638132005465,None,130.66638132005465,None,,,,,,,,,,,132,24,Female,2022-05-17_17h09.34.567,Boat,2022.1.1,59.99743211829064,
positive,neutral,2,l,j,,,,,1,0,18,17,,,,,,,,,,,,,,,,,,,,,,,,,,,,prac,1,1,2,neutral,positive,l,l,1,0.6774064998608083,130.68908380018547,131.70938280015253,131.66636140015908,None,130.68908380018547,None,130.68908380018547,None,130.68908380018547,None,132.34818762012293,None,132.34818762012293,None,132.34818762012293,None,,,,,,,,,,,132,24,Female,2022-05-17_17h09.34.567,Boat,2022.1.1,59.99743211829064,
negative,positive,1,j,l,,,,,1,1,19,6,,,,,,,,,,,,,,,,,,,,,,,,,,,,prac,1,1,1,positive,negative,j,j,1,0.8618197999894619,132.38000480015762,133.38305529998615,133.36419160012156,None,132.38000480015762,None,132.38000480015762,None,132.38000480015762,None,134.21353492008058,None,134.21353492008058,None,134.21353492008058,None,,,,,,,,,,,132,24,Female,2022-05-17_17h09.34.567,Boat,2022.1.1,59.99743211829064,
positive,positive,2,l,j,,,,,1,2,20,11,,,,,,,,,,,,,,,,,,,,,,,,,,,,prac,2,2,2,positive,positive,l,l,1,0.7073462998960167,134.2333714000415,135.23739560018294,135.21895540016703,None,134.2333714000415,None,134.2333714000415,None,134.2333714000415,None,135.9215298200259,None,135.9215298200259,None,135.9215298200259,None,,,,,,,,,,,132,24,Female,2022-05-17_17h09.34.567,Boat,2022.1.1,59.99743211829064,
negative,neutral,1,j,l,,,,,1,3,21,3,,,,,,,,,,,,,,,,,,,,,,,,,,,,prac,2,2,1,neutral,negative,j,j,1,0.8800784000195563,135.94442630000412,136.9502644999884,136.9164839000441,None,135.94442630000412,None,135.94442630000412,None,135.94442630000412,None,137.80477861997207,None,137.80477861997207,None,137.80477861997207,None,,,,,,,,,,,132,24,Female,2022-05-17_17h09.34.567,Boat,2022.1.1,59.99743211829064,
positive,negative,1,l,j,,,,,1,4,22,5,,,,,,,,,,,,,,,,,,,,,,,,,,,,prac,2,2,1,negative,positive,l,l,1,0.8311479000840336,137.82527640019543,138.83875210001133,138.80260830000043,None,137.82527640019543,None,137.82527640019543,None,137.82527640019543,None,139.6377286201576,None,139.6377286201576,None,139.6377286201576,None,,,,,,,,,,,132,24,Female,2022-05-17_17h09.34.567,Boat,2022.1.1,59.99743211829064,
positive,positive,1,l,j,,,,,1,5,23,2,,,,,,,,,,,,,,,,,,,,,,,,,,,,prac,1,1,1,positive,positive,l,l,1,0.6944667000789195,139.66112090018578,140.668194900034,140.63350500003435,None,139.66112090018578,None,139.66112090018578,None,139.66112090018578,None,141.33580622014125,None,141.33580622014125,None,141.33580622014125,None,,,,,,,,,,,132,24,Female,2022-05-17_17h09.34.567,Boat,2022.1.1,59.99743211829064,
positive,negative,2,l,j,,,,,1,6,24,14,,,,,,,,,,,,,,,,,,,,,,,,,,,,prac,1,1,2,negative,positive,l,l,1,0.7627266000490636,141.35709220007993,142.3668693001382,142.3322740001604,None,141.35709220007993,None,141.35709220007993,None,141.35709220007993,None,143.10303512013053,None,143.10303512013053,None,143.10303512013053,None,,,,,,,,,,,132,24,Female,2022-05-17_17h09.34.567,Boat,2022.1.1,59.99743211829064,
negative,positive,2,j,l,,,,,1,7,25,15,,,,,,,,,,,,,,,,,,,,,,,,,,,,prac,2,2,2,positive,negative,j,j,1,1.601982699939981,143.12194179999642,144.13080980000086,144.11209519999102,None,143.12194179999642,None,143.12194179999642,None,143.12194179999642,None,145.714563800022,None,145.714563800022,None,145.714563800022,None,,,,,,,,,,,132,24,Female,2022-05-17_17h09.34.567,Boat,2022.1.1,59.99743211829064,
neutral,positive,1,k,k,,,,,1,8,26,4,,,,,,,,,,,,,,,,,,,,,,,,,,,,prac,1,1,1,positive,neutral,k,j,0,1.9353954999241978,146.73773619998246,147.75217340001836,147.71697290008888,None,146.73773619998246,None,146.73773619998246,None,146.73773619998246,None,149.6635118999984,None,149.6635118999984,None,149.6635118999984,None,,,,,,,,,,,132,24,Female,2022-05-17_17h09.34.567,Boat,2022.1.1,59.99743211829064,
neutral,negative,1,k,k,,,,,1,9,27,7,,,,,,,,,,,,,,,,,,,,,,,,,,,,prac,1,1,1,negative,neutral,k,k,1,1.1496540999505669,150.68740160018206,151.6892891000025,151.67062630015425,None,150.68740160018206,None,150.68740160018206,None,150.68740160018206,None,152.81740352006165,None,152.81740352006165,None,152.81740352006165,None,,,,,,,,,,,132,24,Female,2022-05-17_17h09.34.567,Boat,2022.1.1,59.99743211829064,
negative,neutral,2,j,l,,,,,1,10,28,12,,,,,,,,,,,,,,,,,,,,,,,,,,,,prac,2,2,2,neutral,negative,j,j,1,1.1833188000600785,152.848567500012,153.85119189997204,153.83379880012944,None,152.848567500012,None,152.848567500012,None,152.848567500012,None,155.0068371201167,None,155.0068371201167,None,155.0068371201167,None,,,,,,,,,,,132,24,Female,2022-05-17_17h09.34.567,Boat,2022.1.1,59.99743211829064,
neutral,negative,2,k,k,,,,,1,11,29,16,,,,,,,,,,,,,,,,,,,,,,,,,,,,prac,1,1,2,negative,neutral,k,k,1,0.843944099964574,155.02591710002162,156.0344997001812,156.00018950016238,None,155.02591710002162,None,155.02591710002162,None,155.02591710002162,None,156.85345052003396,None,156.85345052003396,None,156.85345052003396,None,,,,,,,,,,,132,24,Female,2022-05-17_17h09.34.567,Boat,2022.1.1,59.99743211829064,
neutral,positive,2,k,k,,,,,1,12,30,13,,,,,,,,,,,,,,,,,,,,,,,,,,,,prac,1,1,2,positive,neutral,k,k,1,0.874876500107348,156.87255450012162,157.88341450016014,157.8469999001827,None,156.87255450012162,None,156.87255450012162,None,156.87255450012162,None,158.73200062017423,None,158.73200062017423,None,158.73200062017423,None,,,,,,,,,,,132,24,Female,2022-05-17_17h09.34.567,Boat,2022.1.1,59.99743211829064,
neutral,neutral,1,k,k,,,,,1,13,31,1,,,,,,,,,,,,,,,,,,,,,,,,,,,,prac,1,1,1,neutral,neutral,k,k,1,0.9020827000495046,158.75168890017085,159.76515200012363,159.74508900009096,None,158.75168890017085,None,158.75168890017085,None,158.75168890017085,None,160.6358189201681,None,160.6358189201681,None,160.6358189201681,None,,,,,,,,,,,132,24,Female,2022-05-17_17h09.34.567,Boat,2022.1.1,59.99743211829064,
positive,neutral,1,l,j,,,,,1,14,32,8,,,,,,,,,,,,,,,,,,,,,,,,,,,,prac,1,1,1,neutral,positive,l,l,1,0.7272882999386638,160.65436460007913,161.67121440009214,161.63593190000392,None,160.65436460007913,None,160.65436460007913,None,160.65436460007913,None,162.36657701998485,None,162.36657701998485,None,162.36657701998485,None,,,,,,,,,,,132,24,Female,2022-05-17_17h09.34.567,Boat,2022.1.1,59.99743211829064,
neutral,neutral,2,k,k,,,,,1,15,33,10,,,,,,,,,,,,,,,,,,,,,,,,,,,,prac,2,2,2,neutral,neutral,k,k,1,0.7685416999738663,162.38532720017247,163.40433800010942,163.36745360004716,None,162.38532720017247,None,162.38532720017247,None,162.38532720017247,None,164.13704282005784,None,164.13704282005784,None,164.13704282005784,None,,,,,,,,,,,132,24,Female,2022-05-17_17h09.34.567,Boat,2022.1.1,59.99743211829064,
negative,negative,1,j,l,,,,,1,16,34,0,,,,,,,,,,,,,,,,,,,,,,,,,,,,prac,2,2,1,negative,negative,j,j,1,1.0621405001729727,164.15689560002647,165.16706050001085,165.13104450004175,None,164.15689560002647,None,164.15689560002647,None,164.15689560002647,None,166.20101471997333,None,166.20101471997333,None,166.20101471997333,None,,,,,,,,,,,132,24,Female,2022-05-17_17h09.34.567,Boat,2022.1.1,59.99743211829064,
negative,negative,2,j,l,,,,,1,17,35,9,,,,,,,,,,,,,,,,,,,,,,,,,,,,prac,2,2,2,negative,negative,j,j,1,0.7015957999974489,166.22415100014769,167.23463680013083,167.20059350016527,None,166.22415100014769,None,166.22415100014769,None,166.22415100014769,None,167.9061713200761,None,167.9061713200761,None,167.9061713200761,None,,,,,,,,,,,132,24,Female,2022-05-17_17h09.34.567,Boat,2022.1.1,59.99743211829064,
,,,,,,,,,,,,,,,,,,,,,,,,,,,,,,,,,,,,,,,,,,,,,,,,,,,,,,,,,,,,,,,,,,167.9172472001519,None,None,,,,,,,,132,24,Female,2022-05-17_17h09.34.567,Boat,2022.1.1,59.99743211829064,
,,,,,,,,,,,,,,,,,,,,,,,,,,,,,,,,,,,,,,,,,,,,,,,,,,,,,,,,,,,,,,,,,,,,,0.3351852,-0.37314814,1,0,0,0.005295819835737348,None,132,24,Female,2022-05-17_17h09.34.567,Boat,2022.1.1,59.99743211829064,
positive,positive,2,l,j,,,,,,,,,0,0,0,11,,,,,,,,,,,,,,,,,,,,,,179.67885350016877,None,main,1,1,2,positive,positive,l,l,1,1.0253596999682486,181.69824270019308,182.7007508999668,182.68414010014385,None,181.69824270019308,None,181.69824270019308,None,181.69824270019308,None,183.70493882016746,None,183.70493882016746,None,183.70493882016746,None,,,,,,,,,,,132,24,Female,2022-05-17_17h09.34.567,Boat,2022.1.1,59.99743211829064,
neutral,negative,1,k,k,,,,,,,,,0,1,1,7,,,,,,,,,,,,,,,,,,,,,,,,main,2,2,1,negative,neutral,k,k,1,0.7131939998362213,183.72785839997232,184.73456420004368,184.6992783001624,None,183.72785839997232,None,183.72785839997232,None,183.72785839997232,None,185.42283812009265,None,185.42283812009265,None,185.42283812009265,None,,,,,,,,,,,132,24,Female,2022-05-17_17h09.34.567,Boat,2022.1.1,59.99743211829064,
negative,neutral,1,j,l,,,,,,,,,0,2,2,3,,,,,,,,,,,,,,,,,,,,,,,,main,1,1,1,neutral,negative,j,j,1,0.8135836001019925,185.4401732000988,186.4514130000025,186.41699170018546,None,185.4401732000988,None,185.4401732000988,None,185.4401732000988,None,187.23578902014998,None,187.23578902014998,None,187.23578902014998,None,,,,,,,,,,,132,24,Female,2022-05-17_17h09.34.567,Boat,2022.1.1,59.99743211829064,
neutral,negative,2,k,k,,,,,,,,,0,3,3,16,,,,,,,,,,,,,,,,,,,,,,,,main,2,2,2,negative,neutral,k,k,1,0.6211173001211137,187.25829769996926,188.2701440001838,188.23420260008425,None,187.25829769996926,None,187.25829769996926,None,187.25829769996926,None,188.86385501998012,None,188.86385501998012,None,188.86385501998012,None,,,,,,,,,,,132,24,Female,2022-05-17_17h09.34.567,Boat,2022.1.1,59.99743211829064,
neutral,positive,1,k,k,,,,,,,,,0,4,4,4,,,,,,,,,,,,,,,,,,,,,,,,main,2,2,1,positive,neutral,k,k,1,0.8050115997903049,188.88471100013703,189.89781860006042,189.87919520004652,None,188.88471100013703,None,188.88471100013703,None,188.88471100013703,None,190.66987521999982,None,190.66987521999982,None,190.66987521999982,None,,,,,,,,,,,132,24,Female,2022-05-17_17h09.34.567,Boat,2022.1.1,59.99743211829064,
positive,negative,1,l,j,,,,,,,,,0,5,5,5,,,,,,,,,,,,,,,,,,,,,,,,main,1,1,1,negative,positive,l,l,1,0.704547300003469,190.6907478000503,191.70139190019108,191.6675946000032,None,190.6907478000503,None,190.6907478000503,None,190.6907478000503,None,192.37418522017543,None,192.37418522017543,None,192.37418522017543,None,,,,,,,,,,,132,24,Female,2022-05-17_17h09.34.567,Boat,2022.1.1,59.99743211829064,
negative,neutral,2,j,l,,,,,,,,,0,6,6,12,,,,,,,,,,,,,,,,,,,,,,,,main,2,2,2,neutral,negative,j,j,1,0.9313132001552731,192.39675670000724,193.41078430018388,193.3831921000965,None,192.39675670000724,None,192.39675670000724,None,192.39675670000724,None,194.31234862010461,None,194.31234862010461,None,194.31234862010461,None,,,,,,,,,,,132,24,Female,2022-05-17_17h09.34.567,Boat,2022.1.1,59.99743211829064,
positive,positive,1,l,j,,,,,,,,,0,7,7,2,,,,,,,,,,,,,,,,,,,,,,,,main,1,1,1,positive,positive,l,l,1,0.7677759998477995,194.3347197000403,195.36076170019805,195.31434600008652,None,194.3347197000403,None,194.3347197000403,None,194.3347197000403,None,196.0815997201251,None,196.0815997201251,None,196.0815997201251,None,,,,,,,,,,,132,24,Female,2022-05-17_17h09.34.567,Boat,2022.1.1,59.99743211829064,
neutral,neutral,2,k,k,,,,,,,,,0,8,8,10,,,,,,,,,,,,,,,,,,,,,,,,main,2,2,2,neutral,neutral,k,k,1,0.7974461999256164,196.10300510004163,197.12047339999117,197.0848141000606,None,196.10300510004163,None,196.10300510004163,None,196.10300510004163,None,197.88450062002522,None,197.88450062002522,None,197.88450062002522,None,,,,,,,,,,,132,24,Female,2022-05-17_17h09.34.567,Boat,2022.1.1,59.99743211829064,
neutral,neutral,1,k,k,,,,,,,,,0,9,9,1,,,,,,,,,,,,,,,,,,,,,,,,main,2,2,1,neutral,neutral,k,k,1,0.7190922999288887,197.90300630009733,198.9214908001013,198.88476789998822,None,197.90300630009733,None,197.90300630009733,None,197.90300630009733,None,199.60557382002008,None,199.60557382002008,None,199.60557382002008,None,,,,,,,,,,,132,24,Female,2022-05-17_17h09.34.567,Boat,2022.1.1,59.99743211829064,
negative,positive,2,j,l,,,,,,,,,0,10,10,15,,,,,,,,,,,,,,,,,,,,,,,,main,1,1,2,positive,negative,j,j,1,0.7530049001798034,199.62578860018402,200.6318173999898,200.6128500001505,None,199.62578860018402,None,199.62578860018402,None,199.62578860018402,None,201.36298191996758,None,201.36298191996758,None,201.36298191996758,None,,,,,,,,,,,132,24,Female,2022-05-17_17h09.34.567,Boat,2022.1.1,59.99743211829064,
negative,negative,2,j,l,,,,,,,,,0,11,11,9,,,,,,,,,,,,,,,,,,,,,,,,main,1,1,2,negative,negative,j,j,1,0.6576463999226689,201.38491330016404,202.38561080000363,202.36838290002197,None,201.38491330016404,None,201.38491330016404,None,201.38491330016404,None,203.02353032010143,None,203.02353032010143,None,203.02353032010143,None,,,,,,,,,,,132,24,Female,2022-05-17_17h09.34.567,Boat,2022.1.1,59.99743211829064,
negative,positive,1,j,l,,,,,,,,,0,12,12,6,,,,,,,,,,,,,,,,,,,,,,,,main,1,1,1,positive,negative,j,j,1,1.296620500041172,203.04532040003687,204.0630524000153,204.04440980008803,None,203.04532040003687,None,203.04532040003687,None,203.04532040003687,None,205.32211032004562,None,205.32211032004562,None,205.32211032004562,None,,,,,,,,,,,132,24,Female,2022-05-17_17h09.34.567,Boat,2022.1.1,59.99743211829064,
neutral,positive,2,k,k,,,,,,,,,0,13,13,13,,,,,,,,,,,,,,,,,,,,,,,,main,2,2,2,positive,neutral,k,k,1,0.7479083999060094,205.34280150011182,206.3494949999731,206.3300193999894,None,205.34280150011182,None,205.34280150011182,None,205.34280150011182,None,207.07331282000524,None,207.07331282000524,None,207.07331282000524,None,,,,,,,,,,,132,24,Female,2022-05-17_17h09.34.567,Boat,2022.1.1,59.99743211829064,
positive,negative,2,l,j,,,,,,,,,0,14,14,14,,,,,,,,,,,,,,,,,,,,,,,,main,1,1,2,negative,positive,l,l,1,0.6830831000115722,207.0923185001593,208.10061060008593,208.07987460005097,None,207.0923185001593,None,207.0923185001593,None,207.0923185001593,None,208.76050121996087,None,208.76050121996087,None,208.76050121996087,None,,,,,,,,,,,132,24,Female,2022-05-17_17h09.34.567,Boat,2022.1.1,59.99743211829064,
positive,neutral,1,l,j,,,,,,,,,0,15,15,8,,,,,,,,,,,,,,,,,,,,,,,,main,2,2,1,neutral,positive,l,l,1,0.6977113001048565,208.7792496001348,209.78551750001498,209.76852730009705,None,208.7792496001348,None,208.7792496001348,None,208.7792496001348,None,210.46036232013722,None,210.46036232013722,None,210.46036232013722,None,,,,,,,,,,,132,24,Female,2022-05-17_17h09.34.567,Boat,2022.1.1,59.99743211829064,
positive,neutral,2,l,j,,,,,,,,,0,16,16,17,,,,,,,,,,,,,,,,,,,,,,,,main,2,2,2,neutral,positive,l,l,1,0.665874799946323,210.48012820002623,211.48467870010063,211.46601520013064,None,210.48012820002623,None,210.48012820002623,None,210.48012820002623,None,212.12670772017447,None,212.12670772017447,None,212.12670772017447,None,,,,,,,,,,,132,24,Female,2022-05-17_17h09.34.567,Boat,2022.1.1,59.99743211829064,
negative,negative,1,j,l,,,,,,,,,0,17,17,0,,,,,,,,,,,,,,,,,,,,,,,,main,2,2,1,negative,negative,j,j,1,0.8970170998945832,212.15183400013484,213.15469340002164,213.1371591000352,None,212.15183400013484,None,212.15183400013484,None,212.15183400013484,None,214.02898511996028,None,214.02898511996028,None,214.02898511996028,None,,,,,,,,,,,132,24,Female,2022-05-17_17h09.34.567,Boat,2022.1.1,59.99743211829064,
positive,positive,1,l,j,,,,,,,,,1,0,18,2,,,,,,,,,,,,,,,,,,,,,,,,main,2,2,1,positive,positive,l,j,0,0.7343260999768972,214.04805140011013,215.053870000178,215.0356714001391,None,214.04805140011013,None,214.04805140011013,None,214.04805140011013,None,215.7713425999973,None,215.7713425999973,None,215.7713425999973,None,,,,,,,,,,,132,24,Female,2022-05-17_17h09.34.567,Boat,2022.1.1,59.99743211829064,
neutral,neutral,2,k,k,,,,,,,,,1,1,19,10,,,,,,,,,,,,,,,,,,,,,,,,main,1,1,2,neutral,neutral,k,k,1,0.9585667999926955,216.78825490013696,217.801955900155,217.78296800004318,None,216.78825490013696,None,216.78825490013696,None,216.78825490013696,None,218.73174431996887,None,218.73174431996887,None,218.73174431996887,None,,,,,,,,,,,132,24,Female,2022-05-17_17h09.34.567,Boat,2022.1.1,59.99743211829064,
positive,negative,1,l,j,,,,,,,,,1,2,20,5,,,,,,,,,,,,,,,,,,,,,,,,main,1,1,1,negative,positive,l,l,1,0.8203253999818116,218.75206029997207,219.76865019998513,219.73282280005515,None,218.75206029997207,None,218.75206029997207,None,218.75206029997207,None,220.55344022002538,None,220.55344022002538,None,220.55344022002538,None,,,,,,,,,,,132,24,Female,2022-05-17_17h09.34.567,Boat,2022.1.1,59.99743211829064,
negative,negative,1,j,l,,,,,,,,,1,3,21,0,,,,,,,,,,,,,,,,,,,,,,,,main,2,2,1,negative,negative,j,j,1,0.8696957000065595,220.57419780013151,221.58012509997934,221.56142080016434,None,220.57419780013151,None,220.57419780013151,None,220.57419780013151,None,222.42788061995526,None,222.42788061995526,None,222.42788061995526,None,,,,,,,,,,,132,24,Female,2022-05-17_17h09.34.567,Boat,2022.1.1,59.99743211829064,
negative,neutral,1,j,l,,,,,,,,,1,4,22,3,,,,,,,,,,,,,,,,,,,,,,,,main,2,2,1,neutral,negative,j,j,1,0.8305097999982536,222.44989390019327,223.4520980999805,223.43501080013812,None,222.44989390019327,None,222.44989390019327,None,222.44989390019327,None,224.26105872013142,None,224.26105872013142,None,224.26105872013142,None,,,,,,,,,,,132,24,Female,2022-05-17_17h09.34.567,Boat,2022.1.1,59.99743211829064,
neutral,negative,2,k,k,,,,,,,,,1,5,23,16,,,,,,,,,,,,,,,,,,,,,,,,main,2,2,2,negative,neutral,k,k,1,0.7212804998271167,224.28088840004057,225.28397820005193,225.26333260000683,None,224.28088840004057,None,224.28088840004057,None,224.28088840004057,None,225.98544691998978,None,225.98544691998978,None,225.98544691998978,None,,,,,,,,,,,132,24,Female,2022-05-17_17h09.34.567,Boat,2022.1.1,59.99743211829064,
neutral,positive,1,k,k,,,,,,,,,1,6,24,4,,,,,,,,,,,,,,,,,,,,,,,,main,2,2,1,positive,neutral,k,k,1,0.8235265000257641,226.00438270019367,227.0045772001613,226.98706910014153,None,226.00438270019367,None,226.00438270019367,None,226.00438270019367,None,227.810514820111,None,227.810514820111,None,227.810514820111,None,,,,,,,,,,,132,24,Female,2022-05-17_17h09.34.567,Boat,2022.1.1,59.99743211829064,
positive,negative,2,l,j,,,,,,,,,1,7,25,14,,,,,,,,,,,,,,,,,,,,,,,,main,2,2,2,negative,positive,l,l,1,0.6766828999388963,227.83427710016258,228.83538070018403,228.81676549999975,None,227.83427710016258,None,227.83427710016258,None,227.83427710016258,None,229.49062332005707,None,229.49062332005707,None,229.49062332005707,None,,,,,,,,,,,132,24,Female,2022-05-17_17h09.34.567,Boat,2022.1.1,59.99743211829064,
positive,neutral,2,l,j,,,,,,,,,1,8,26,17,,,,,,,,,,,,,,,,,,,,,,,,main,2,2,2,neutral,positive,l,l,1,0.592909500002861,229.5129450999666,230.51895080017857,230.48516380018555,None,229.5129450999666,None,229.5129450999666,None,229.5129450999666,None,231.08646652016324,None,231.08646652016324,None,231.08646652016324,None,,,,,,,,,,,132,24,Female,2022-05-17_17h09.34.567,Boat,2022.1.1,59.99743211829064,
positive,neutral,1,l,j,,,,,,,,,1,9,27,8,,,,,,,,,,,,,,,,,,,,,,,,main,1,1,1,neutral,positive,l,l,1,0.7421645000576973,231.10582439997233,232.11846580007114,232.08455580007285,None,231.10582439997233,None,231.10582439997233,None,231.10582439997233,None,232.83272132005078,None,232.83272132005078,None,232.83272132005078,None,,,,,,,,,,,132,24,Female,2022-05-17_17h09.34.567,Boat,2022.1.1,59.99743211829064,
positive,positive,2,l,j,,,,,,,,,1,10,28,11,,,,,,,,,,,,,,,,,,,,,,,,main,1,1,2,positive,positive,l,l,1,0.7248747998382896,232.8521271001082,233.85189930000342,233.83515960001387,None,232.8521271001082,None,232.8521271001082,None,232.8521271001082,None,234.56018142013346,None,234.56018142013346,None,234.56018142013346,None,,,,,,,,,,,132,24,Female,2022-05-17_17h09.34.567,Boat,2022.1.1,59.99743211829064,
neutral,neutral,1,k,k,,,,,,,,,1,11,29,1,,,,,,,,,,,,,,,,,,,,,,,,main,2,2,1,neutral,neutral,k,k,1,0.6384866000153124,234.58277550013736,235.58985089999624,235.55444420012645,None,234.58277550013736,None,234.58277550013736,None,234.58277550013736,None,236.2015216199914,None,236.2015216199914,None,236.2015216199914,None,,,,,,,,,,,132,24,Female,2022-05-17_17h09.34.567,Boat,2022.1.1,59.99743211829064,
negative,neutral,2,j,l,,,,,,,,,1,12,30,12,,,,,,,,,,,,,,,,,,,,,,,,main,1,1,2,neutral,negative,j,j,1,1.4387479999568313,236.2208693001885,237.23871790012345,237.20226550009102,None,236.2208693001885,None,236.2208693001885,None,236.2208693001885,None,238.6436355200829,None,238.6436355200829,None,238.6436355200829,None,,,,,,,,,,,132,24,Female,2022-05-17_17h09.34.567,Boat,2022.1.1,59.99743211829064,
negative,positive,1,j,l,,,,,,,,,1,13,31,6,,,,,,,,,,,,,,,,,,,,,,,,main,1,1,1,positive,negative,j,j,1,0.6618723999708891,238.66582840005867,239.66962729999796,239.65247970004566,None,238.66582840005867,None,238.66582840005867,None,238.66582840005867,None,240.30729052012322,None,240.30729052012322,None,240.30729052012322,None,,,,,,,,,,,132,24,Female,2022-05-17_17h09.34.567,Boat,2022.1.1,59.99743211829064,
negative,negative,2,j,l,,,,,,,,,1,14,32,9,,,,,,,,,,,,,,,,,,,,,,,,main,2,2,2,negative,negative,j,j,1,0.7819785000756383,240.32693420001306,241.33194810012355,241.31357700005174,None,240.32693420001306,None,240.32693420001306,None,240.32693420001306,None,242.09218042001595,None,242.09218042001595,None,242.09218042001595,None,,,,,,,,,,,132,24,Female,2022-05-17_17h09.34.567,Boat,2022.1.1,59.99743211829064,
neutral,positive,2,k,k,,,,,,,,,1,15,33,13,,,,,,,,,,,,,,,,,,,,,,,,main,2,2,2,positive,neutral,k,k,1,0.7857927998993546,242.11586720007472,243.12025100016035,243.08552610012703,None,242.11586720007472,None,242.11586720007472,None,242.11586720007472,None,243.88255602011924,None,243.88255602011924,None,243.88255602011924,None,,,,,,,,,,,132,24,Female,2022-05-17_17h09.34.567,Boat,2022.1.1,59.99743211829064,
neutral,negative,1,k,k,,,,,,,,,1,16,34,7,,,,,,,,,,,,,,,,,,,,,,,,main,2,2,1,negative,neutral,k,k,1,0.7856620000675321,243.90455960016698,244.91885380004533,244.88064120011404,None,243.90455960016698,None,243.90455960016698,None,243.90455960016698,None,245.67291542009917,None,245.67291542009917,None,245.67291542009917,None,,,,,,,,,,,132,24,Female,2022-05-17_17h09.34.567,Boat,2022.1.1,59.99743211829064,
negative,positive,2,j,l,,,,,,,,,1,17,35,15,,,,,,,,,,,,,,,,,,,,,,,,main,2,2,2,positive,negative,j,j,1,0.8812090000137687,245.6927848001942,246.70493780006655,246.66886120010167,None,245.6927848001942,None,245.6927848001942,None,245.6927848001942,None,247.5568269200856,None,247.5568269200856,None,247.5568269200856,None,,,,,,,,,,,132,24,Female,2022-05-17_17h09.34.567,Boat,2022.1.1,59.99743211829064,
neutral,negative,1,k,k,,,,,,,,,2,0,36,7,,,,,,,,,,,,,,,,,,,,,,,,main,2,2,1,negative,neutral,k,k,1,0.6291390999685973,247.57631520018913,248.59522050013766,248.55258650006726,None,247.57631520018913,None,247.57631520018913,None,247.57631520018913,None,249.1882562200306,None,249.1882562200306,None,249.1882562200306,None,,,,,,,,,,,132,24,Female,2022-05-17_17h09.34.567,Boat,2022.1.1,59.99743211829064,
positive,positive,2,l,j,,,,,,,,,2,1,37,11,,,,,,,,,,,,,,,,,,,,,,,,main,2,2,2,positive,positive,l,l,1,0.6588255001697689,249.2103079999797,250.22394270007499,250.18554139998741,None,249.2103079999797,None,249.2103079999797,None,249.2103079999797,None,250.85213412002196,None,250.85213412002196,None,250.85213412002196,None,,,,,,,,,,,132,24,Female,2022-05-17_17h09.34.567,Boat,2022.1.1,59.99743211829064,
negative,negative,1,j,l,,,,,,,,,2,2,38,0,,,,,,,,,,,,,,,,,,,,,,,,main,2,2,1,negative,negative,j,,0,1.3396480998490006,250.87270110007375,251.89080210006796,251.85276370006613,None,250.87270110007375,None,250.87270110007375,None,250.87270110007375,None,253.2022122000344,None,253.2022122000344,None,253.2022122000344,None,,,,,,,,,,,132,24,Female,2022-05-17_17h09.34.567,Boat,2022.1.1,59.99743211829064,
negative,neutral,2,j,l,,,,,,,,,2,3,39,12,,,,,,,,,,,,,,,,,,,,,,,,main,1,1,2,neutral,negative,j,j,1,0.8961831000633538,254.22222300013527,255.2484047000762,255.20106670004316,None,254.22222300013527,None,254.22222300013527,None,254.22222300013527,None,256.10183601996397,None,256.10183601996397,None,256.10183601996397,None,,,,,,,,,,,132,24,Female,2022-05-17_17h09.34.567,Boat,2022.1.1,59.99743211829064,
positive,negative,2,l,j,,,,,,,,,2,4,40,14,,,,,,,,,,,,,,,,,,,,,,,,main,1,1,2,negative,positive,l,l,1,0.8618661998771131,256.1224410000723,257.13842730014585,257.1023989999667,None,256.1224410000723,None,256.1224410000723,None,256.1224410000723,None,257.96884382010904,None,257.96884382010904,None,257.96884382010904,None,,,,,,,,,,,132,24,Female,2022-05-17_17h09.34.567,Boat,2022.1.1,59.99743211829064,
negative,neutral,1,j,l,,,,,,,,,2,5,41,3,,,,,,,,,,,,,,,,,,,,,,,,main,2,2,1,neutral,negative,j,j,1,0.7613154000137001,257.9877609000541,259.001126000192,258.9640021000523,None,257.9877609000541,None,257.9877609000541,None,257.9877609000541,None,259.7343602199806,None,259.7343602199806,None,259.7343602199806,None,,,,,,,,,,,132,24,Female,2022-05-17_17h09.34.567,Boat,2022.1.1,59.99743211829064,
negative,negative,2,j,l,,,,,,,,,2,6,42,9,,,,,,,,,,,,,,,,,,,,,,,,main,2,2,2,negative,negative,j,j,1,1.1225915998220444,259.75428050011396,260.7691375000868,260.73416900006123,None,259.75428050011396,None,259.75428050011396,None,259.75428050011396,None,261.8585261200322,None,261.8585261200322,None,261.8585261200322,None,,,,,,,,,,,132,24,Female,2022-05-17_17h09.34.567,Boat,2022.1.1,59.99743211829064,
negative,positive,2,j,l,,,,,,,,,2,7,43,15,,,,,,,,,,,,,,,,,,,,,,,,main,2,2,2,positive,negative,j,j,1,0.8114978999365121,261.8775325000752,262.8899237001315,262.8524991001468,None,261.8775325000752,None,261.8775325000752,None,261.8775325000752,None,263.67315971998033,None,263.67315971998033,None,263.67315971998033,None,,,,,,,,,,,132,24,Female,2022-05-17_17h09.34.567,Boat,2022.1.1,59.99743211829064,
negative,positive,1,j,l,,,,,,,,,2,8,44,6,,,,,,,,,,,,,,,,,,,,,,,,main,2,2,1,positive,negative,j,j,1,0.8343452999833971,263.6939789999742,264.6974229000043,264.678973400034,None,263.6939789999742,None,263.6939789999742,None,263.6939789999742,None,265.5094673201209,None,265.5094673201209,None,265.5094673201209,None,,,,,,,,,,,132,24,Female,2022-05-17_17h09.34.567,Boat,2022.1.1,59.99743211829064,
neutral,neutral,1,k,k,,,,,,,,,2,9,45,1,,,,,,,,,,,,,,,,,,,,,,,,main,1,1,1,neutral,neutral,k,k,1,0.6348552000708878,265.5290219001472,266.5361433001235,266.5170887000859,None,265.5290219001472,None,265.5290219001472,None,265.5290219001472,None,267.14884771995713,None,267.14884771995713,None,267.14884771995713,None,,,,,,,,,,,132,24,Female,2022-05-17_17h09.34.567,Boat,2022.1.1,59.99743211829064,
neutral,positive,2,k,k,,,,,,,,,2,10,46,13,,,,,,,,,,,,,,,,,,,,,,,,main,2,2,2,positive,neutral,k,k,1,0.9101444999687374,267.16938100010157,268.1877011000179,268.1498686000705,None,267.16938100010157,None,267.16938100010157,None,267.16938100010157,None,269.05853821996135,None,269.05853821996135,None,269.05853821996135,None,,,,,,,,,,,132,24,Female,2022-05-17_17h09.34.567,Boat,2022.1.1,59.99743211829064,
positive,positive,1,l,j,,,,,,,,,2,11,47,2,,,,,,,,,,,,,,,,,,,,,,,,main,1,1,1,positive,positive,l,l,1,0.784894400043413,269.0829189000651,270.08719190000556,270.0695816001389,None,269.0829189000651,None,269.0829189000651,None,269.0829189000651,None,270.84921362001916,None,270.84921362001916,None,270.84921362001916,None,,,,,,,,,,,132,24,Female,2022-05-17_17h09.34.567,Boat,2022.1.1,59.99743211829064,
positive,neutral,1,l,j,,,,,,,,,2,12,48,8,,,,,,,,,,,,,,,,,,,,,,,,main,2,2,1,neutral,positive,l,l,1,0.9118264999706298,270.8706909001339,271.8884440001566,271.8523570999969,None,270.8706909001339,None,270.8706909001339,None,270.8706909001339,None,272.76348342008424,None,272.76348342008424,None,272.76348342008424,None,,,,,,,,,,,132,24,Female,2022-05-17_17h09.34.567,Boat,2022.1.1,59.99743211829064,
positive,negative,1,l,j,,,,,,,,,2,13,49,5,,,,,,,,,,,,,,,,,,,,,,,,main,1,1,1,negative,positive,l,l,1,0.6438891999423504,272.7824435001239,273.7863190001808,273.76688230014406,None,272.7824435001239,None,272.7824435001239,None,272.7824435001239,None,274.40914322000464,None,274.40914322000464,None,274.40914322000464,None,,,,,,,,,,,132,24,Female,2022-05-17_17h09.34.567,Boat,2022.1.1,59.99743211829064,
positive,neutral,2,l,j,,,,,,,,,2,14,50,17,,,,,,,,,,,,,,,,,,,,,,,,main,1,1,2,neutral,positive,l,l,1,0.7143117000814527,274.43259390001185,275.43535250006244,275.4170346001629,None,274.43259390001185,None,274.43259390001185,None,274.43259390001185,None,276.1260248199804,None,276.1260248199804,None,276.1260248199804,None,,,,,,,,,,,132,24,Female,2022-05-17_17h09.34.567,Boat,2022.1.1,59.99743211829064,
neutral,neutral,2,k,k,,,,,,,,,2,15,51,10,,,,,,,,,,,,,,,,,,,,,,,,main,2,2,2,neutral,neutral,k,k,1,0.6119833001866937,276.14786759996787,277.152876800159,277.13623280008323,None,276.14786759996787,None,276.14786759996787,None,276.14786759996787,None,277.7442733201431,None,277.7442733201431,None,277.7442733201431,None,,,,,,,,,,,132,24,Female,2022-05-17_17h09.34.567,Boat,2022.1.1,59.99743211829064,
neutral,negative,2,k,k,,,,,,,,,2,16,52,16,,,,,,,,,,,,,,,,,,,,,,,,main,2,2,2,negative,neutral,k,k,1,0.629794699838385,277.7664173999801,278.78520350018516,278.7478279999923,None,277.7664173999801,None,277.7664173999801,None,277.7664173999801,None,279.3758215201786,None,279.3758215201786,None,279.3758215201786,None,,,,,,,,,,,132,24,Female,2022-05-17_17h09.34.567,Boat,2022.1.1,59.99743211829064,
neutral,positive,1,k,k,,,,,,,,,2,17,53,4,,,,,,,,,,,,,,,,,,,,,,,,main,1,1,1,positive,neutral,k,k,1,0.6353505000006407,279.3949708000291,280.40564430016093,280.37053970014676,None,279.3949708000291,None,279.3949708000291,None,279.3949708000291,None,281.01487841999625,None,281.01487841999625,None,281.01487841999625,None,,,,,,,,,,,132,24,Female,2022-05-17_17h09.34.567,Boat,2022.1.1,59.99743211829064,
neutral,positive,2,k,k,,,,,,,,,3,0,54,13,,,,,,,,,,,,,,,,,,,,,,,,main,1,1,2,positive,neutral,k,k,1,0.7270793998613954,281.0344026000239,282.03760759998113,282.0199482999742,None,281.0344026000239,None,281.0344026000239,None,281.0344026000239,None,282.74349682016765,None,282.74349682016765,None,282.74349682016765,None,,,,,,,,,,,132,24,Female,2022-05-17_17h09.34.567,Boat,2022.1.1,59.99743211829064,
positive,positive,2,l,j,,,,,,,,,3,1,55,11,,,,,,,,,,,,,,,,,,,,,,,,main,1,1,2,positive,positive,l,,0,0.9631797999609262,282.7651657999959,283.76914019999094,283.7499581000302,None,282.7651657999959,None,282.7651657999959,None,282.7651657999959,None,284.71680250018835,None,284.71680250018835,None,284.71680250018835,None,,,,,,,,,,,132,24,Female,2022-05-17_17h09.34.567,Boat,2022.1.1,59.99743211829064,
neutral,neutral,2,k,k,,,,,,,,,3,2,56,10,,,,,,,,,,,,,,,,,,,,,,,,main,2,2,2,neutral,neutral,k,k,1,0.8888183999806643,285.7399292001501,286.7534181000665,286.7342443000525,None,285.7399292001501,None,285.7399292001501,None,285.7399292001501,None,287.6133839200018,None,287.6133839200018,None,287.6133839200018,None,,,,,,,,,,,132,24,Female,2022-05-17_17h09.34.567,Boat,2022.1.1,59.99743211829064,
negative,negative,1,j,l,,,,,,,,,3,3,57,0,,,,,,,,,,,,,,,,,,,,,,,,main,2,2,1,negative,negative,j,j,1,1.4541607000865042,287.63327109999955,288.65169520000927,288.6320377001539,None,287.63327109999955,None,287.63327109999955,None,287.63327109999955,None,290.06996882015375,None,290.06996882015375,None,290.06996882015375,None,,,,,,,,,,,132,24,Female,2022-05-17_17h09.34.567,Boat,2022.1.1,59.99743211829064,
positive,neutral,2,l,j,,,,,,,,,3,4,58,17,,,,,,,,,,,,,,,,,,,,,,,,main,1,1,2,neutral,positive,l,l,1,0.8096829000860453,290.08985320013016,291.1040019001812,291.0678849001415,None,290.08985320013016,None,290.08985320013016,None,290.08985320013016,None,291.883416620153,None,291.883416620153,None,291.883416620153,None,,,,,,,,,,,132,24,Female,2022-05-17_17h09.34.567,Boat,2022.1.1,59.99743211829064,
neutral,positive,1,k,k,,,,,,,,,3,5,59,4,,,,,,,,,,,,,,,,,,,,,,,,main,1,1,1,positive,neutral,k,k,1,1.2827023998834193,291.90357409999706,292.92006230005063,292.8857084000483,None,291.90357409999706,None,291.90357409999706,None,291.90357409999706,None,294.1675835201284,None,294.1675835201284,None,294.1675835201284,None,,,,,,,,,,,132,24,Female,2022-05-17_17h09.34.567,Boat,2022.1.1,59.99743211829064,
negative,neutral,1,j,l,,,,,,,,,3,6,60,3,,,,,,,,,,,,,,,,,,,,,,,,main,1,1,1,neutral,negative,j,j,1,0.7722081998363137,294.1886866001878,295.18925100006163,295.1714683000464,None,294.1886866001878,None,294.1886866001878,None,294.1886866001878,None,295.94510562003126,None,295.94510562003126,None,295.94510562003126,None,,,,,,,,,,,132,24,Female,2022-05-17_17h09.34.567,Boat,2022.1.1,59.99743211829064,
neutral,neutral,1,k,k,,,,,,,,,3,7,61,1,,,,,,,,,,,,,,,,,,,,,,,,main,2,2,1,neutral,neutral,k,k,1,0.6881561998743564,295.96714990003966,296.97422250011005,296.93866570014507,None,295.96714990003966,None,295.96714990003966,None,295.96714990003966,None,297.6358800200513,None,297.6358800200513,None,297.6358800200513,None,,,,,,,,,,,132,24,Female,2022-05-17_17h09.34.567,Boat,2022.1.1,59.99743211829064,
negative,negative,2,j,l,,,,,,,,,3,8,62,9,,,,,,,,,,,,,,,,,,,,,,,,main,2,2,2,negative,negative,j,j,1,1.0452352999709547,297.65652750013396,298.6563365000766,298.63903010007925,None,297.65652750013396,None,297.65652750013396,None,297.65652750013396,None,299.68629572012,None,299.68629572012,None,299.68629572012,None,,,,,,,,,,,132,24,Female,2022-05-17_17h09.34.567,Boat,2022.1.1,59.99743211829064,
positive,neutral,1,l,j,,,,,,,,,3,9,63,8,,,,,,,,,,,,,,,,,,,,,,,,main,1,1,1,neutral,positive,l,l,1,0.7883196999318898,299.7054841001518,300.7196331000887,300.68168530007824,None,299.7054841001518,None,299.7054841001518,None,299.7054841001518,None,301.4757460200461,None,301.4757460200461,None,301.4757460200461,None,,,,,,,,,,,132,24,Female,2022-05-17_17h09.34.567,Boat,2022.1.1,59.99743211829064,
positive,negative,2,l,j,,,,,,,,,3,10,64,14,,,,,,,,,,,,,,,,,,,,,,,,main,1,1,2,negative,positive,l,l,1,0.7385878001805395,301.4963171000127,302.50013569998555,302.48174470011145,None,301.4963171000127,None,301.4963171000127,None,301.4963171000127,None,303.2199130201014,None,303.2199130201014,None,303.2199130201014,None,,,,,,,,,,,132,24,Female,2022-05-17_17h09.34.567,Boat,2022.1.1,59.99743211829064,
positive,negative,1,l,j,,,,,,,,,3,11,65,5,,,,,,,,,,,,,,,,,,,,,,,,main,2,2,1,negative,positive,l,l,1,0.7694927998818457,303.2402686001733,304.25761860003695,304.22065900010057,None,303.2402686001733,None,303.2402686001733,None,303.2402686001733,None,304.9922294200631,None,304.9922294200631,None,304.9922294200631,None,,,,,,,,,,,132,24,Female,2022-05-17_17h09.34.567,Boat,2022.1.1,59.99743211829064,
negative,neutral,2,j,l,,,,,,,,,3,12,66,12,,,,,,,,,,,,,,,,,,,,,,,,main,2,2,2,neutral,negative,j,j,1,0.9048617000225931,305.01239729998633,306.02094560000114,305.99917760002427,None,305.01239729998633,None,305.01239729998633,None,305.01239729998633,None,306.9017613200238,None,306.9017613200238,None,306.9017613200238,None,,,,,,,,,,,132,24,Female,2022-05-17_17h09.34.567,Boat,2022.1.1,59.99743211829064,
negative,positive,2,j,l,,,,,,,,,3,13,67,15,,,,,,,,,,,,,,,,,,,,,,,,main,2,2,2,positive,negative,j,j,1,0.6914526999462396,306.92103380011395,307.9283611001447,307.8924108000938,None,306.92103380011395,None,306.92103380011395,None,306.92103380011395,None,308.59567482008134,None,308.59567482008134,None,308.59567482008134,None,,,,,,,,,,,132,24,Female,2022-05-17_17h09.34.567,Boat,2022.1.1,59.99743211829064,
positive,positive,1,l,j,,,,,,,,,3,14,68,2,,,,,,,,,,,,,,,,,,,,,,,,main,1,1,1,positive,positive,l,l,1,0.8559481000993401,308.6177511999849,309.62023540004157,309.60361080011353,None,308.6177511999849,None,308.6177511999849,None,308.6177511999849,None,310.4537250200054,None,310.4537250200054,None,310.4537250200054,None,,,,,,,,,,,132,24,Female,2022-05-17_17h09.34.567,Boat,2022.1.1,59.99743211829064,
neutral,negative,2,k,k,,,,,,,,,3,15,69,16,,,,,,,,,,,,,,,,,,,,,,,,main,2,2,2,negative,neutral,k,k,1,1.9169461999554187,310.47355500003323,311.4777578001376,311.46005980018526,None,310.47355500003323,None,310.47355500003323,None,310.47355500003323,None,313.37842640001327,None,313.37842640001327,None,313.37842640001327,None,,,,,,,,,,,132,24,Female,2022-05-17_17h09.34.567,Boat,2022.1.1,59.99743211829064,
neutral,negative,1,k,k,,,,,,,,,3,16,70,7,,,,,,,,,,,,,,,,,,,,,,,,main,1,1,1,negative,neutral,k,k,1,0.837137300055474,314.3904786000494,315.40434150001965,315.3698864001781,None,314.3904786000494,None,314.3904786000494,None,314.3904786000494,None,316.21233602014837,None,316.21233602014837,None,316.21233602014837,None,,,,,,,,,,,132,24,Female,2022-05-17_17h09.34.567,Boat,2022.1.1,59.99743211829064,
negative,positive,1,j,l,,,,,,,,,3,17,71,6,,,,,,,,,,,,,,,,,,,,,,,,main,1,1,1,positive,negative,j,j,1,1.3570154998451471,316.2353735000361,317.2417319000233,317.2038642000407,None,316.2353735000361,None,316.2353735000361,None,316.2353735000361,None,318.57206342003775,None,318.57206342003775,None,318.57206342003775,None,,,,,,,,,,,132,24,Female,2022-05-17_17h09.34.567,Boat,2022.1.1,59.99743211829064,
neutral,positive,1,k,k,,,,,,,,,4,0,72,4,,,,,,,,,,,,,,,,,,,,,,,,main,2,2,1,positive,neutral,k,k,1,0.9758096998557448,318.5914168001618,319.6042237000074,319.5690435001161,None,318.5914168001618,None,318.5914168001618,None,318.5914168001618,None,320.55158942013514,None,320.55158942013514,None,320.55158942013514,None,,,,,,,,,,,132,24,Female,2022-05-17_17h09.34.567,Boat,2022.1.1,59.99743211829064,
neutral,positive,2,k,k,,,,,,,,,4,1,73,13,,,,,,,,,,,,,,,,,,,,,,,,main,2,2,2,positive,neutral,k,k,1,0.7006326001137495,320.5715638999827,321.57083290000446,321.5539318001829,None,320.5715638999827,None,320.5715638999827,None,320.5715638999827,None,322.25402672013735,None,322.25402672013735,None,322.25402672013735,None,,,,,,,,,,,132,24,Female,2022-05-17_17h09.34.567,Boat,2022.1.1,59.99743211829064,
negative,negative,1,j,l,,,,,,,,,4,2,74,0,,,,,,,,,,,,,,,,,,,,,,,,main,2,2,1,negative,negative,j,j,1,0.9475388000719249,322.2751094000414,323.27924070018344,323.26131950016133,None,322.2751094000414,None,322.2751094000414,None,322.2751094000414,None,324.2044222199591,None,324.2044222199591,None,324.2044222199591,None,,,,,,,,,,,132,24,Female,2022-05-17_17h09.34.567,Boat,2022.1.1,59.99743211829064,
neutral,negative,1,k,k,,,,,,,,,4,3,75,7,,,,,,,,,,,,,,,,,,,,,,,,main,2,2,1,negative,neutral,k,k,1,0.8081070999614894,324.2262997000944,325.23901180014946,325.20196270011365,None,324.2262997000944,None,324.2262997000944,None,324.2262997000944,None,326.01781782002655,None,326.01781782002655,None,326.01781782002655,None,,,,,,,,,,,132,24,Female,2022-05-17_17h09.34.567,Boat,2022.1.1,59.99743211829064,
neutral,neutral,1,k,k,,,,,,,,,4,4,76,1,,,,,,,,,,,,,,,,,,,,,,,,main,2,2,1,neutral,neutral,k,j,0,0.7990120002068579,326.0377544001676,327.0403502001427,327.0225770000834,None,326.0377544001676,None,326.0377544001676,None,326.0377544001676,None,327.8249586999882,None,327.8249586999882,None,327.8249586999882,None,,,,,,,,,,,132,24,Female,2022-05-17_17h09.34.567,Boat,2022.1.1,59.99743211829064,
positive,negative,1,l,j,,,,,,,,,4,5,77,5,,,,,,,,,,,,,,,,,,,,,,,,main,1,1,1,negative,positive,l,l,1,0.9423940000124276,328.8413755001966,329.8638506999705,329.83669260004535,None,328.8413755001966,None,328.8413755001966,None,328.8413755001966,None,330.76754122001586,None,330.76754122001586,None,330.76754122001586,None,,,,,,,,,,,132,24,Female,2022-05-17_17h09.34.567,Boat,2022.1.1,59.99743211829064,
positive,neutral,2,l,j,,,,,,,,,4,6,78,17,,,,,,,,,,,,,,,,,,,,,,,,main,2,2,2,neutral,positive,l,l,1,0.9352096000220627,330.7908185000997,331.79591970006004,331.77817750000395,None,330.7908185000997,None,330.7908185000997,None,330.7908185000997,None,332.7067435200559,None,332.7067435200559,None,332.7067435200559,None,,,,,,,,,,,132,24,Female,2022-05-17_17h09.34.567,Boat,2022.1.1,59.99743211829064,
positive,positive,2,l,j,,,,,,,,,4,7,79,11,,,,,,,,,,,,,,,,,,,,,,,,main,1,1,2,positive,positive,l,l,1,0.655983200063929,332.72781429998577,333.7395999999717,333.70417170017026,None,332.72781429998577,None,332.72781429998577,None,332.72781429998577,None,334.3669621200068,None,334.3669621200068,None,334.3669621200068,None,,,,,,,,,,,132,24,Female,2022-05-17_17h09.34.567,Boat,2022.1.1,59.99743211829064,
positive,negative,2,l,j,,,,,,,,,4,8,80,14,,,,,,,,,,,,,,,,,,,,,,,,main,1,1,2,negative,positive,l,l,1,0.623533699894324,334.3876761000138,335.406631299993,335.36904240003787,None,334.3876761000138,None,334.3876761000138,None,334.3876761000138,None,335.9917849200545,None,335.9917849200545,None,335.9917849200545,None,,,,,,,,,,,132,24,Female,2022-05-17_17h09.34.567,Boat,2022.1.1,59.99743211829064,
positive,neutral,1,l,j,,,,,,,,,4,9,81,8,,,,,,,,,,,,,,,,,,,,,,,,main,2,2,1,neutral,positive,l,l,1,1.1390925000887364,336.01714080013335,337.03646269999444,336.99923510011286,None,336.01714080013335,None,336.01714080013335,None,336.01714080013335,None,338.1345211200649,None,338.1345211200649,None,338.1345211200649,None,,,,,,,,,,,132,24,Female,2022-05-17_17h09.34.567,Boat,2022.1.1,59.99743211829064,
negative,positive,1,j,l,,,,,,,,,4,10,82,6,,,,,,,,,,,,,,,,,,,,,,,,main,2,2,1,positive,negative,j,j,1,0.8495899001136422,338.15592340007424,339.1713128001429,339.13694710005075,None,338.15592340007424,None,338.15592340007424,None,338.15592340007424,None,339.9877746201353,None,339.9877746201353,None,339.9877746201353,None,,,,,,,,,,,132,24,Female,2022-05-17_17h09.34.567,Boat,2022.1.1,59.99743211829064,
neutral,neutral,2,k,k,,,,,,,,,4,11,83,10,,,,,,,,,,,,,,,,,,,,,,,,main,1,1,2,neutral,neutral,k,k,1,0.8196793999522924,340.00672470009886,341.02093860018067,340.98529620002955,None,340.00672470009886,None,340.00672470009886,None,340.00672470009886,None,341.809581219987,None,341.809581219987,None,341.809581219987,None,,,,,,,,,,,132,24,Female,2022-05-17_17h09.34.567,Boat,2022.1.1,59.99743211829064,
negative,positive,2,j,l,,,,,,,,,4,12,84,15,,,,,,,,,,,,,,,,,,,,,,,,main,2,2,2,positive,negative,j,j,1,0.9023003000766039,341.828718499979,342.83766359998845,342.81765810004435,None,341.828718499979,None,341.828718499979,None,341.828718499979,None,343.7159441200318,None,343.7159441200318,None,343.7159441200318,None,,,,,,,,,,,132,24,Female,2022-05-17_17h09.34.567,Boat,2022.1.1,59.99743211829064,
neutral,negative,2,k,k,,,,,,,,,4,13,85,16,,,,,,,,,,,,,,,,,,,,,,,,main,1,1,2,negative,neutral,k,k,1,1.0879365000873804,343.73632730008103,344.73789119999856,344.7198215001263,None,343.73632730008103,None,343.73632730008103,None,343.73632730008103,None,345.804975919961,None,345.804975919961,None,345.804975919961,None,,,,,,,,,,,132,24,Female,2022-05-17_17h09.34.567,Boat,2022.1.1,59.99743211829064,
positive,positive,1,l,j,,,,,,,,,4,14,86,2,,,,,,,,,,,,,,,,,,,,,,,,main,1,1,1,positive,positive,l,l,1,0.718121400102973,345.8249888999853,346.84079160005786,346.804836000083,None,345.8249888999853,None,345.8249888999853,None,345.8249888999853,None,347.5265127199935,None,347.5265127199935,None,347.5265127199935,None,,,,,,,,,,,132,24,Female,2022-05-17_17h09.34.567,Boat,2022.1.1,59.99743211829064,
negative,negative,2,j,l,,,,,,,,,4,15,87,9,,,,,,,,,,,,,,,,,,,,,,,,main,2,2,2,negative,negative,j,j,1,0.8899016000796109,347.5453833001666,348.55559170013294,348.5211347001605,None,347.5453833001666,None,347.5453833001666,None,347.5453833001666,None,349.42047542014626,None,349.42047542014626,None,349.42047542014626,None,,,,,,,,,,,132,24,Female,2022-05-17_17h09.34.567,Boat,2022.1.1,59.99743211829064,
negative,neutral,2,j,l,,,,,,,,,4,16,88,12,,,,,,,,,,,,,,,,,,,,,,,,main,1,1,2,neutral,negative,j,j,1,0.8571563998702914,349.4401748999953,350.4544785001781,350.4164549000561,None,349.4401748999953,None,349.4401748999953,None,349.4401748999953,None,351.27897072008346,None,351.27897072008346,None,351.27897072008346,None,,,,,,,,,,,132,24,Female,2022-05-17_17h09.34.567,Boat,2022.1.1,59.99743211829064,
negative,neutral,1,j,l,,,,,,,,,4,17,89,3,,,,,,,,,,,,,,,,,,,,,,,,main,2,2,1,neutral,negative,j,j,1,0.9874678999185562,351.3025176001247,352.3046899000183,352.2880212001037,None,351.3025176001247,None,351.3025176001247,None,351.3025176001247,None,353.27104812006,None,353.27104812006,None,353.27104812006,None,,,,,,,,,,,132,24,Female,2022-05-17_17h09.34.567,Boat,2022.1.1,59.99743211829064,
negative,negative,2,j,l,,,,,,,,,5,0,90,9,,,,,,,,,,,,,,,,,,,,,,,,main,2,2,2,negative,negative,j,j,1,0.7809040998108685,353.2915183000732,354.3036208001431,354.2661034001503,None,353.2915183000732,None,353.2915183000732,None,353.2915183000732,None,355.0553149199812,None,355.0553149199812,None,355.0553149199812,None,,,,,,,,,,,132,24,Female,2022-05-17_17h09.34.567,Boat,2022.1.1,59.99743211829064,
negative,positive,2,j,l,,,,,,,,,5,1,91,15,,,,,,,,,,,,,,,,,,,,,,,,main,2,2,2,positive,negative,j,j,1,0.7711567999795079,355.07558390009217,356.09090130007826,356.0545515001286,None,355.07558390009217,None,355.07558390009217,None,355.07558390009217,None,356.8289439201588,None,356.8289439201588,None,356.8289439201588,None,,,,,,,,,,,132,24,Female,2022-05-17_17h09.34.567,Boat,2022.1.1,59.99743211829064,
positive,negative,2,l,j,,,,,,,,,5,2,92,14,,,,,,,,,,,,,,,,,,,,,,,,main,1,1,2,negative,positive,l,l,1,1.080767200095579,356.8520586001687,357.86977019999176,357.8328952000011,None,356.8520586001687,None,356.8520586001687,None,356.8520586001687,None,358.9107832201524,None,358.9107832201524,None,358.9107832201524,None,,,,,,,,,,,132,24,Female,2022-05-17_17h09.34.567,Boat,2022.1.1,59.99743211829064,
neutral,neutral,2,k,k,,,,,,,,,5,3,93,10,,,,,,,,,,,,,,,,,,,,,,,,main,2,2,2,neutral,neutral,k,k,1,0.8122149999253452,358.93518709996715,359.93807140015997,359.9213980000932,None,358.93518709996715,None,358.93518709996715,None,358.93518709996715,None,360.72754612013233,None,360.72754612013233,None,360.72754612013233,None,,,,,,,,,,,132,24,Female,2022-05-17_17h09.34.567,Boat,2022.1.1,59.99743211829064,
neutral,positive,1,k,k,,,,,,,,,5,4,94,4,,,,,,,,,,,,,,,,,,,,,,,,main,1,1,1,positive,neutral,k,k,1,0.9136369999032468,360.75176310003735,361.75878530018963,361.7217264000792,None,360.75176310003735,None,360.75176310003735,None,360.75176310003735,None,362.64385141998065,None,362.64385141998065,None,362.64385141998065,None,,,,,,,,,,,132,24,Female,2022-05-17_17h09.34.567,Boat,2022.1.1,59.99743211829064,
positive,neutral,2,l,j,,,,,,,,,5,5,95,17,,,,,,,,,,,,,,,,,,,,,,,,main,2,2,2,neutral,positive,l,l,1,0.7429180000908673,362.66648720018566,363.6812039001379,363.6533815001603,None,362.66648720018566,None,362.66648720018566,None,362.66648720018566,None,364.38977472002153,None,364.38977472002153,None,364.38977472002153,None,,,,,,,,,,,132,24,Female,2022-05-17_17h09.34.567,Boat,2022.1.1,59.99743211829064,
neutral,negative,1,k,k,,,,,,,,,5,6,96,7,,,,,,,,,,,,,,,,,,,,,,,,main,2,2,1,negative,neutral,k,k,1,0.873282799962908,364.4095444001723,365.4215278001502,365.385078900028,None,364.4095444001723,None,364.4095444001723,None,364.4095444001723,None,366.2667414199794,None,366.2667414199794,None,366.2667414199794,None,,,,,,,,,,,132,24,Female,2022-05-17_17h09.34.567,Boat,2022.1.1,59.99743211829064,
positive,positive,1,l,j,,,,,,,,,5,7,97,2,,,,,,,,,,,,,,,,,,,,,,,,main,1,1,1,positive,positive,l,l,1,0.8138462000060827,366.28914890019223,367.29175390000455,367.2715040000621,None,366.28914890019223,None,366.28914890019223,None,366.28914890019223,None,368.07951532008593,None,368.07951532008593,None,368.07951532008593,None,,,,,,,,,,,132,24,Female,2022-05-17_17h09.34.567,Boat,2022.1.1,59.99743211829064,
negative,negative,1,j,l,,,,,,,,,5,8,98,0,,,,,,,,,,,,,,,,,,,,,,,,main,1,1,1,negative,negative,j,j,1,0.8732895001303405,368.1050095001701,369.11280250013806,369.0949407001026,None,368.1050095001701,None,368.1050095001701,None,368.1050095001701,None,369.95776332013776,None,369.95776332013776,None,369.95776332013776,None,,,,,,,,,,,132,24,Female,2022-05-17_17h09.34.567,Boat,2022.1.1,59.99743211829064,
neutral,negative,2,k,k,,,,,,,,,5,9,99,16,,,,,,,,,,,,,,,,,,,,,,,,main,1,1,2,negative,neutral,k,k,1,0.7131897998042405,369.9776875001844,370.99982909997925,370.9538873999845,None,369.9776875001844,None,369.9776875001844,None,369.9776875001844,None,371.6748030200368,None,371.6748030200368,None,371.6748030200368,None,,,,,,,,,,,132,24,Female,2022-05-17_17h09.34.567,Boat,2022.1.1,59.99743211829064,
positive,negative,1,l,j,,,,,,,,,5,10,100,5,,,,,,,,,,,,,,,,,,,,,,,,main,1,1,1,negative,positive,l,l,1,0.9433050998486578,371.6936171001289,372.7018896001391,372.6832702001557,None,371.6936171001289,None,371.6936171001289,None,371.6936171001289,None,373.6214702199912,None,373.6214702199912,None,373.6214702199912,None,,,,,,,,,,,132,24,Female,2022-05-17_17h09.34.567,Boat,2022.1.1,59.99743211829064,
neutral,positive,2,k,k,,,,,,,,,5,11,101,13,,,,,,,,,,,,,,,,,,,,,,,,main,1,1,2,positive,neutral,k,k,1,0.7868536000605673,373.6403179001063,374.65510450000875,374.63555460004136,None,373.6403179001063,None,373.6403179001063,None,373.6403179001063,None,375.41075712007006,None,375.41075712007006,None,375.41075712007006,None,,,,,,,,,,,132,24,Female,2022-05-17_17h09.34.567,Boat,2022.1.1,59.99743211829064,
neutral,neutral,1,k,k,,,,,,,,,5,12,102,1,,,,,,,,,,,,,,,,,,,,,,,,main,2,2,1,neutral,neutral,k,k,1,0.8693051000591367,375.4305158001371,376.43721550004557,376.4184564000461,None,375.4305158001371,None,375.4305158001371,None,375.4305158001371,None,377.2838455201825,None,377.2838455201825,None,377.2838455201825,None,,,,,,,,,,,132,24,Female,2022-05-17_17h09.34.567,Boat,2022.1.1,59.99743211829064,
negative,positive,1,j,l,,,,,,,,,5,13,103,6,,,,,,,,,,,,,,,,,,,,,,,,main,2,2,1,positive,negative,j,j,1,0.9808263999875635,377.30616130004637,378.30913080018945,378.29135960014537,None,377.30616130004637,None,377.30616130004637,None,377.30616130004637,None,379.26727242006456,None,379.26727242006456,None,379.26727242006456,None,,,,,,,,,,,132,24,Female,2022-05-17_17h09.34.567,Boat,2022.1.1,59.99743211829064,
negative,neutral,2,j,l,,,,,,,,,5,14,104,12,,,,,,,,,,,,,,,,,,,,,,,,main,1,1,2,neutral,negative,j,j,1,0.8111154001671821,379.2878380001057,380.2884655999951,380.27131970017217,None,379.2878380001057,None,379.2878380001057,None,379.2878380001057,None,381.08275632008446,None,381.08275632008446,None,381.08275632008446,None,,,,,,,,,,,132,24,Female,2022-05-17_17h09.34.567,Boat,2022.1.1,59.99743211829064,
positive,neutral,1,l,j,,,,,,,,,5,15,105,8,,,,,,,,,,,,,,,,,,,,,,,,main,2,2,1,neutral,positive,l,l,1,0.8769990000873804,381.1053906001616,382.1167745999992,382.09819330018945,None,381.1053906001616,None,381.1053906001616,None,381.1053906001616,None,382.9612508200342,None,382.9612508200342,None,382.9612508200342,None,,,,,,,,,,,132,24,Female,2022-05-17_17h09.34.567,Boat,2022.1.1,59.99743211829064,
negative,neutral,1,j,l,,,,,,,,,5,16,106,3,,,,,,,,,,,,,,,,,,,,,,,,main,2,2,1,neutral,negative,j,,0,1.0952502998989075,382.9830583999865,383.9870645001065,383.96859000017866,None,382.9830583999865,None,382.9830583999865,None,382.9830583999865,None,385.0670347001869,None,385.0670347001869,None,385.0670347001869,None,,,,,,,,,,,132,24,Female,2022-05-17_17h09.34.567,Boat,2022.1.1,59.99743211829064,
positive,positive,2,l,j,,,,,,,,,5,17,107,11,,,,,,,,,,,,,,,,,,,,,,,,main,2,2,2,positive,positive,l,l,1,0.9370577000081539,386.0758521000389,387.0885910000652,387.0543965001125,None,386.0758521000389,None,386.0758521000389,None,386.0758521000389,None,387.9930891199736,None,387.9930891199736,None,387.9930891199736,None,,,,,,,,,,,132,24,Female,2022-05-17_17h09.34.567,Boat,2022.1.1,59.99743211829064,
neutral,negative,2,k,k,,,,,,,,,6,0,108,16,,,,,,,,,,,,,,,,,,,,,,,,main,2,2,2,negative,neutral,k,k,1,0.79278409993276,388.0187310001347,389.03171150013804,389.00389649998397,None,388.0187310001347,None,388.0187310001347,None,388.0187310001347,None,389.79240402004217,None,389.79240402004217,None,389.79240402004217,None,,,,,,,,,,,132,24,Female,2022-05-17_17h09.34.567,Boat,2022.1.1,59.99743211829064,
negative,neutral,1,j,l,,,,,,,,,6,1,109,3,,,,,,,,,,,,,,,,,,,,,,,,main,2,2,1,neutral,negative,j,j,1,1.1071377999614924,389.81117290002294,390.82372450013645,390.78875500010327,None,389.81117290002294,None,389.81117290002294,None,389.81117290002294,None,391.90214382002597,None,391.90214382002597,None,391.90214382002597,None,,,,,,,,,,,132,24,Female,2022-05-17_17h09.34.567,Boat,2022.1.1,59.99743211829064,
positive,neutral,2,l,j,,,,,,,,,6,2,110,17,,,,,,,,,,,,,,,,,,,,,,,,main,2,2,2,neutral,positive,l,l,1,1.0582924000918865,391.92230830015615,392.9220902000088,392.90541660017334,None,391.92230830015615,None,391.92230830015615,None,391.92230830015615,None,393.9623942201259,None,393.9623942201259,None,393.9623942201259,None,,,,,,,,,,,132,24,Female,2022-05-17_17h09.34.567,Boat,2022.1.1,59.99743211829064,
negative,negative,1,j,l,,,,,,,,,6,3,111,0,,,,,,,,,,,,,,,,,,,,,,,,main,1,1,1,negative,negative,j,j,1,0.955973100150004,393.98270050017163,394.99171270010993,394.9565423000604,None,393.98270050017163,None,393.98270050017163,None,393.98270050017163,None,395.92231132003946,None,395.92231132003946,None,395.92231132003946,None,,,,,,,,,,,132,24,Female,2022-05-17_17h09.34.567,Boat,2022.1.1,59.99743211829064,
positive,neutral,1,l,j,,,,,,,,,6,4,112,8,,,,,,,,,,,,,,,,,,,,,,,,main,1,1,1,neutral,positive,l,l,1,0.9331972000654787,395.9423136000987,396.95597350015305,396.9205377001781,None,395.9423136000987,None,395.9423136000987,None,395.9423136000987,None,397.8582055201521,None,397.8582055201521,None,397.8582055201521,None,,,,,,,,,,,132,24,Female,2022-05-17_17h09.34.567,Boat,2022.1.1,59.99743211829064,
negative,negative,2,j,l,,,,,,,,,6,5,113,9,,,,,,,,,,,,,,,,,,,,,,,,main,1,1,2,negative,negative,j,j,1,1.049528099829331,397.8769524001982,398.891237200005,398.8554776001256,None,397.8769524001982,None,397.8769524001982,None,397.8769524001982,None,399.91033772013617,None,399.91033772013617,None,399.91033772013617,None,,,,,,,,,,,132,24,Female,2022-05-17_17h09.34.567,Boat,2022.1.1,59.99743211829064,
negative,positive,1,j,l,,,,,,,,,6,6,114,6,,,,,,,,,,,,,,,,,,,,,,,,main,1,1,1,positive,negative,j,j,1,0.8667043000459671,399.92899220017716,400.93890680000186,400.9032201000955,None,399.92899220017716,None,399.92899220017716,None,399.92899220017716,None,401.7806536199758,None,401.7806536199758,None,401.7806536199758,None,,,,,,,,,,,132,24,Female,2022-05-17_17h09.34.567,Boat,2022.1.1,59.99743211829064,
negative,neutral,2,j,l,,,,,,,,,6,7,115,12,,,,,,,,,,,,,,,,,,,,,,,,main,1,1,2,neutral,negative,j,j,1,0.7578799000475556,401.8039957000874,402.8056352001149,402.7891522999853,None,401.8039957000874,None,401.8039957000874,None,401.8039957000874,None,403.5510409401264,None,403.5510409401264,None,403.5510409401264,None,,,,,,,,,,,132,24,Female,2022-05-17_17h09.34.567,Boat,2022.1.1,59.99743211829064,
neutral,neutral,1,k,k,,,,,,,,,6,8,116,1,,,,,,,,,,,,,,,,,,,,,,,,main,2,2,1,neutral,neutral,k,k,1,0.7640609999652952,403.56873990013264,404.58164570014924,404.56169040012173,None,403.56873990013264,None,403.56873990013264,None,403.56873990013264,None,405.3060396200279,None,405.3060396200279,None,405.3060396200279,None,,,,,,,,,,,132,24,Female,2022-05-17_17h09.34.567,Boat,2022.1.1,59.99743211829064,
neutral,neutral,2,k,k,,,,,,,,,6,9,117,10,,,,,,,,,,,,,,,,,,,,,,,,main,1,1,2,neutral,neutral,k,k,1,0.9400645999703556,405.3377637001686,406.33909490006045,406.3224520001095,None,405.3377637001686,None,405.3377637001686,None,405.3377637001686,None,407.25202232000885,None,407.25202232000885,None,407.25202232000885,None,,,,,,,,,,,132,24,Female,2022-05-17_17h09.34.567,Boat,2022.1.1,59.99743211829064,
positive,negative,1,l,j,,,,,,,,,6,10,118,5,,,,,,,,,,,,,,,,,,,,,,,,main,2,2,1,negative,positive,l,l,1,0.8262958999257535,407.27899510017596,408.2958486001007,408.2735125001054,None,407.27899510017596,None,407.27899510017596,None,407.27899510017596,None,409.083946620184,None,409.083946620184,None,409.083946620184,None,,,,,,,,,,,132,24,Female,2022-05-17_17h09.34.567,Boat,2022.1.1,59.99743211829064,
neutral,positive,2,k,k,,,,,,,,,6,11,119,13,,,,,,,,,,,,,,,,,,,,,,,,main,1,1,2,positive,neutral,k,k,1,1.1399848000146449,409.1086139001418,410.1144354001153,410.0947241000831,None,409.1086139001418,None,409.1086139001418,None,409.1086139001418,None,411.22534682003317,None,411.22534682003317,None,411.22534682003317,None,,,,,,,,,,,132,24,Female,2022-05-17_17h09.34.567,Boat,2022.1.1,59.99743211829064,
neutral,negative,1,k,k,,,,,,,,,6,12,120,7,,,,,,,,,,,,,,,,,,,,,,,,main,2,2,1,negative,neutral,k,k,1,0.7665107999928296,411.2521304001566,412.2599626001902,412.2368473999668,None,411.2521304001566,None,411.2521304001566,None,411.2521304001566,None,412.9957546201302,None,412.9957546201302,None,412.9957546201302,None,,,,,,,,,,,132,24,Female,2022-05-17_17h09.34.567,Boat,2022.1.1,59.99743211829064,
neutral,positive,1,k,k,,,,,,,,,6,13,121,4,,,,,,,,,,,,,,,,,,,,,,,,main,2,2,1,positive,neutral,k,k,1,1.4205330999102443,413.02195019996725,414.0322777000256,414.004289700184,None,413.02195019996725,None,413.02195019996725,None,413.02195019996725,None,415.42189272011166,None,415.42189272011166,None,415.42189272011166,None,,,,,,,,,,,132,24,Female,2022-05-17_17h09.34.567,Boat,2022.1.1,59.99743211829064,
negative,positive,2,j,l,,,,,,,,,6,14,122,15,,,,,,,,,,,,,,,,,,,,,,,,main,2,2,2,positive,negative,j,j,1,0.8135409997776151,415.4421845001634,416.44326349999756,416.4253321001306,None,415.4421845001634,None,415.4421845001634,None,415.4421845001634,None,417.2392398201162,None,417.2392398201162,None,417.2392398201162,None,,,,,,,,,,,132,24,Female,2022-05-17_17h09.34.567,Boat,2022.1.1,59.99743211829064,
positive,positive,2,l,j,,,,,,,,,6,15,123,11,,,,,,,,,,,,,,,,,,,,,,,,main,1,1,2,positive,positive,l,l,1,0.8640226998832077,417.2589025001507,418.2676242000889,418.2491155001335,None,417.2589025001507,None,417.2589025001507,None,417.2589025001507,None,419.10613531998825,None,419.10613531998825,None,419.10613531998825,None,,,,,,,,,,,132,24,Female,2022-05-17_17h09.34.567,Boat,2022.1.1,59.99743211829064,
positive,negative,2,l,j,,,,,,,,,6,16,124,14,,,,,,,,,,,,,,,,,,,,,,,,main,2,2,2,negative,positive,l,l,1,0.7376128998585045,419.1254988000728,420.1491576000117,420.10613980004564,None,419.1254988000728,None,419.1254988000728,None,419.1254988000728,None,420.84799662006554,None,420.84799662006554,None,420.84799662006554,None,,,,,,,,,,,132,24,Female,2022-05-17_17h09.34.567,Boat,2022.1.1,59.99743211829064,
positive,positive,1,l,j,,,,,,,,,6,17,125,2,,,,,,,,,,,,,,,,,,,,,,,,main,2,2,1,positive,positive,l,l,1,1.0353563998360187,420.8673472001683,421.8731164999772,421.8561277000699,None,420.8673472001683,None,420.8673472001683,None,420.8673472001683,None,422.88611912012567,None,422.88611912012567,None,422.88611912012567,None,,,,,,,,,,,132,24,Female,2022-05-17_17h09.34.567,Boat,2022.1.1,59.99743211829064,
neutral,negative,2,k,k,,,,,,,,,7,0,126,16,,,,,,,,,,,,,,,,,,,,,,,,main,2,2,2,negative,neutral,k,k,1,0.8421382999513298,422.906465300126,423.9230279000476,423.8863522000611,None,422.906465300126,None,422.906465300126,None,422.906465300126,None,424.72981152015274,None,424.72981152015274,None,424.72981152015274,None,,,,,,,,,,,132,24,Female,2022-05-17_17h09.34.567,Boat,2022.1.1,59.99743211829064,
negative,negative,2,j,l,,,,,,,,,7,1,127,9,,,,,,,,,,,,,,,,,,,,,,,,main,1,1,2,negative,negative,j,j,1,1.071957099949941,424.7543932001572,425.75537320016883,425.73673370014876,None,424.7543932001572,None,424.7543932001572,None,424.7543932001572,None,426.8060714200372,None,426.8060714200372,None,426.8060714200372,None,,,,,,,,,,,132,24,Female,2022-05-17_17h09.34.567,Boat,2022.1.1,59.99743211829064,
neutral,positive,2,k,k,,,,,,,,,7,2,128,13,,,,,,,,,,,,,,,,,,,,,,,,main,1,1,2,positive,neutral,k,k,1,0.809499500086531,426.82701390003785,427.849018300185,427.8088408000767,None,426.82701390003785,None,426.82701390003785,None,426.82701390003785,None,428.6180333200144,None,428.6180333200144,None,428.6180333200144,None,,,,,,,,,,,132,24,Female,2022-05-17_17h09.34.567,Boat,2022.1.1,59.99743211829064,
neutral,negative,1,k,k,,,,,,,,,7,3,129,7,,,,,,,,,,,,,,,,,,,,,,,,main,2,2,1,negative,neutral,k,k,1,0.8031218000687659,428.6431561000645,429.660506100161,429.62290209997445,None,428.6431561000645,None,428.6431561000645,None,428.6431561000645,None,430.42542071996724,None,430.42542071996724,None,430.42542071996724,None,,,,,,,,,,,132,24,Female,2022-05-17_17h09.34.567,Boat,2022.1.1,59.99743211829064,
negative,neutral,2,j,l,,,,,,,,,7,4,130,12,,,,,,,,,,,,,,,,,,,,,,,,main,1,1,2,neutral,negative,j,j,1,0.9821949999313802,430.44675920018926,431.4565992001444,431.42080299998634,None,430.44675920018926,None,430.44675920018926,None,430.44675920018926,None,432.4112790199695,None,432.4112790199695,None,432.4112790199695,None,,,,,,,,,,,132,24,Female,2022-05-17_17h09.34.567,Boat,2022.1.1,59.99743211829064,
positive,positive,1,l,j,,,,,,,,,7,5,131,2,,,,,,,,,,,,,,,,,,,,,,,,main,2,2,1,positive,positive,l,l,1,0.8037272999063134,432.43244620016776,433.44435900007375,433.4259242999833,None,432.43244620016776,None,432.43244620016776,None,432.43244620016776,None,434.2186718199635,None,434.2186718199635,None,434.2186718199635,None,,,,,,,,,,,132,24,Female,2022-05-17_17h09.34.567,Boat,2022.1.1,59.99743211829064,
positive,neutral,2,l,j,,,,,,,,,7,6,132,17,,,,,,,,,,,,,,,,,,,,,,,,main,1,1,2,neutral,positive,l,l,1,0.7669718000106514,434.2414103001356,435.25644300016575,435.2186921001412,None,434.2414103001356,None,434.2414103001356,None,434.2414103001356,None,435.99000862014947,None,435.99000862014947,None,435.99000862014947,None,,,,,,,,,,,132,24,Female,2022-05-17_17h09.34.567,Boat,2022.1.1,59.99743211829064,
negative,negative,1,j,l,,,,,,,,,7,7,133,0,,,,,,,,,,,,,,,,,,,,,,,,main,1,1,1,negative,negative,j,j,1,0.8318092999979854,436.01168940006755,437.0326541000977,436.9896148000844,None,436.01168940006755,None,436.01168940006755,None,436.01168940006755,None,437.82480561996346,None,437.82480561996346,None,437.82480561996346,None,,,,,,,,,,,132,24,Female,2022-05-17_17h09.34.567,Boat,2022.1.1,59.99743211829064,
negative,neutral,1,j,l,,,,,,,,,7,8,134,3,,,,,,,,,,,,,,,,,,,,,,,,main,2,2,1,neutral,negative,j,j,1,0.7127695998642594,437.8425688999705,438.86018060008064,438.8231772000436,None,437.8425688999705,None,437.8425688999705,None,437.8425688999705,None,439.5405281200772,None,439.5405281200772,None,439.5405281200772,None,,,,,,,,,,,132,24,Female,2022-05-17_17h09.34.567,Boat,2022.1.1,59.99743211829064,
positive,negative,2,l,j,,,,,,,,,7,9,135,14,,,,,,,,,,,,,,,,,,,,,,,,main,1,1,2,negative,positive,l,l,1,0.9283110999967903,439.5585105000064,440.5745478000026,440.5399386000354,None,439.5585105000064,None,439.5585105000064,None,439.5585105000064,None,441.47217462009286,None,441.47217462009286,None,441.47217462009286,None,,,,,,,,,,,132,24,Female,2022-05-17_17h09.34.567,Boat,2022.1.1,59.99743211829064,
neutral,positive,1,k,k,,,,,,,,,7,10,136,4,,,,,,,,,,,,,,,,,,,,,,,,main,2,2,1,positive,neutral,k,k,1,1.1729743999894708,441.49197570001706,442.50632110005245,442.4682432000991,None,441.49197570001706,None,441.49197570001706,None,441.49197570001706,None,443.64724232007285,None,443.64724232007285,None,443.64724232007285,None,,,,,,,,,,,132,24,Female,2022-05-17_17h09.34.567,Boat,2022.1.1,59.99743211829064,
neutral,neutral,1,k,k,,,,,,,,,7,11,137,1,,,,,,,,,,,,,,,,,,,,,,,,main,2,2,1,neutral,neutral,k,k,1,0.6717770998366177,443.6670363000594,444.6817576000467,444.64571920013987,None,443.6670363000594,None,443.6670363000594,None,443.6670363000594,None,445.32306392008906,None,445.32306392008906,None,445.32306392008906,None,,,,,,,,,,,132,24,Female,2022-05-17_17h09.34.567,Boat,2022.1.1,59.99743211829064,
negative,positive,2,j,l,,,,,,,,,7,12,138,15,,,,,,,,,,,,,,,,,,,,,,,,main,1,1,2,positive,negative,j,j,1,0.8384179999120533,445.34181850007735,446.3431891000364,446.3256107000634,None,445.34181850007735,None,445.34181850007735,None,445.34181850007735,None,447.1639034201624,None,447.1639034201624,None,447.1639034201624,None,,,,,,,,,,,132,24,Female,2022-05-17_17h09.34.567,Boat,2022.1.1,59.99743211829064,
positive,neutral,1,l,j,,,,,,,,,7,13,139,8,,,,,,,,,,,,,,,,,,,,,,,,main,2,2,1,neutral,positive,l,l,1,0.7750441001262516,447.18277220008895,448.20160210016184,448.15553790004924,None,447.18277220008895,None,447.18277220008895,None,447.18277220008895,None,448.9414779199986,None,448.9414779199986,None,448.9414779199986,None,,,,,,,,,,,132,24,Female,2022-05-17_17h09.34.567,Boat,2022.1.1,59.99743211829064,
positive,negative,1,l,j,,,,,,,,,7,14,140,5,,,,,,,,,,,,,,,,,,,,,,,,main,2,2,1,negative,positive,l,l,1,0.8272440999280661,448.9612861000933,449.97414640011266,449.93519069999456,None,448.9612861000933,None,448.9612861000933,None,448.9612861000933,None,450.772249620012,None,450.772249620012,None,450.772249620012,None,,,,,,,,,,,132,24,Female,2022-05-17_17h09.34.567,Boat,2022.1.1,59.99743211829064,
positive,positive,2,l,j,,,,,,,,,7,15,141,11,,,,,,,,,,,,,,,,,,,,,,,,main,2,2,2,positive,positive,l,l,1,0.927905699936673,450.79400850017555,451.8087107001338,451.77365390001796,None,450.79400850017555,None,450.79400850017555,None,450.79400850017555,None,452.7027200200362,None,452.7027200200362,None,452.7027200200362,None,,,,,,,,,,,132,24,Female,2022-05-17_17h09.34.567,Boat,2022.1.1,59.99743211829064,
negative,positive,1,j,l,,,,,,,,,7,16,142,6,,,,,,,,,,,,,,,,,,,,,,,,main,2,2,1,positive,negative,j,j,1,1.0011322998907417,452.72961900010705,453.7351553000044,453.71576030016877,None,452.72961900010705,None,452.72961900010705,None,452.72961900010705,None,454.7080379201332,None,454.7080379201332,None,454.7080379201332,None,,,,,,,,,,,132,24,Female,2022-05-17_17h09.34.567,Boat,2022.1.1,59.99743211829064,
neutral,neutral,2,k,k,,,,,,,,,7,17,143,10,,,,,,,,,,,,,,,,,,,,,,,,main,2,2,2,neutral,neutral,k,k,1,1.1109812001232058,454.7289819000289,455.7430499000475,455.70549189997837,None,454.7289819000289,None,454.7289819000289,None,454.7289819000289,None,456.82355452009944,None,456.82355452009944,None,456.82355452009944,None,,,,,,,,,,,132,24,Female,2022-05-17_17h09.34.567,Boat,2022.1.1,59.99743211829064,
negative,positive,2,j,l,,,,,,,,,8,0,144,15,,,,,,,,,,,,,,,,,,,,,,,,main,1,1,2,positive,negative,j,j,1,2.0414923999924213,456.8424582001753,457.86142710014246,457.82451740000397,None,456.8424582001753,None,456.8424582001753,None,456.8424582001753,None,459.87336450000294,None,459.87336450000294,None,459.87336450000294,None,,,,,,,,,,,132,24,Female,2022-05-17_17h09.34.567,Boat,2022.1.1,59.99743211829064,
neutral,positive,2,k,k,,,,,,,,,8,1,145,13,,,,,,,,,,,,,,,,,,,,,,,,main,1,1,2,positive,neutral,k,k,1,0.9788945000618696,460.89531560009345,461.90301420004107,461.8831373001449,None,460.89531560009345,None,460.89531560009345,None,460.89531560009345,None,462.85711282009726,None,462.85711282009726,None,462.85711282009726,None,,,,,,,,,,,132,24,Female,2022-05-17_17h09.34.567,Boat,2022.1.1,59.99743211829064,
positive,positive,1,l,j,,,,,,,,,8,2,146,2,,,,,,,,,,,,,,,,,,,,,,,,main,2,2,1,positive,positive,l,l,1,1.0726924000773579,462.87739700009115,463.88122280011885,463.86232750001363,None,462.87739700009115,None,462.87739700009115,None,462.87739700009115,None,464.9335831201868,None,464.9335831201868,None,464.9335831201868,None,,,,,,,,,,,132,24,Female,2022-05-17_17h09.34.567,Boat,2022.1.1,59.99743211829064,
negative,positive,1,j,l,,,,,,,,,8,3,147,6,,,,,,,,,,,,,,,,,,,,,,,,main,1,1,1,positive,negative,j,j,1,0.770413699792698,464.9569355000276,465.9752762001008,465.9387258000206,None,464.9569355000276,None,464.9569355000276,None,464.9569355000276,None,466.7070949201705,None,466.7070949201705,None,466.7070949201705,None,,,,,,,,,,,132,24,Female,2022-05-17_17h09.34.567,Boat,2022.1.1,59.99743211829064,
positive,positive,2,l,j,,,,,,,,,8,4,148,11,,,,,,,,,,,,,,,,,,,,,,,,main,2,2,2,positive,positive,l,l,1,0.7297272998839617,466.72611220018007,467.72860150015913,467.7106363000348,None,466.72611220018007,None,466.72611220018007,None,466.72611220018007,None,468.4400846199831,None,468.4400846199831,None,468.4400846199831,None,,,,,,,,,,,132,24,Female,2022-05-17_17h09.34.567,Boat,2022.1.1,59.99743211829064,
negative,negative,1,j,l,,,,,,,,,8,5,149,0,,,,,,,,,,,,,,,,,,,,,,,,main,1,1,1,negative,negative,j,j,1,0.7557707000523806,468.46257510012947,469.4797398999799,469.4393148999661,None,468.46257510012947,None,468.46257510012947,None,468.46257510012947,None,470.1991018199595,None,470.1991018199595,None,470.1991018199595,None,,,,,,,,,,,132,24,Female,2022-05-17_17h09.34.567,Boat,2022.1.1,59.99743211829064,
positive,negative,1,l,j,,,,,,,,,8,6,150,5,,,,,,,,,,,,,,,,,,,,,,,,main,1,1,1,negative,positive,l,l,1,0.9880464000161737,470.2220595001709,471.2251548001077,471.1906211001333,None,470.2220595001709,None,470.2220595001709,None,470.2220595001709,None,472.18567372004037,None,472.18567372004037,None,472.18567372004037,None,,,,,,,,,,,132,24,Female,2022-05-17_17h09.34.567,Boat,2022.1.1,59.99743211829064,
neutral,negative,1,k,k,,,,,,,,,8,7,151,7,,,,,,,,,,,,,,,,,,,,,,,,main,2,2,1,negative,neutral,k,k,1,0.7312690999824554,472.21082200016826,473.22571070003323,473.1905881999992,None,472.21082200016826,None,472.21082200016826,None,472.21082200016826,None,473.9255852201721,None,473.9255852201721,None,473.9255852201721,None,,,,,,,,,,,132,24,Female,2022-05-17_17h09.34.567,Boat,2022.1.1,59.99743211829064,
neutral,neutral,2,k,k,,,,,,,,,8,8,152,10,,,,,,,,,,,,,,,,,,,,,,,,main,1,1,2,neutral,neutral,k,k,1,0.6434362998697907,473.9442533000838,474.95871730009094,474.924131100066,None,473.9442533000838,None,473.9442533000838,None,473.9442533000838,None,475.57259251999204,None,475.57259251999204,None,475.57259251999204,None,,,,,,,,,,,132,24,Female,2022-05-17_17h09.34.567,Boat,2022.1.1,59.99743211829064,
negative,neutral,1,j,l,,,,,,,,,8,9,153,3,,,,,,,,,,,,,,,,,,,,,,,,main,1,1,1,neutral,negative,j,j,1,1.3460494000464678,475.59205940016545,476.6046991001349,476.58593349996954,None,475.59205940016545,None,475.59205940016545,None,475.59205940016545,None,477.9224265199853,None,477.9224265199853,None,477.9224265199853,None,,,,,,,,,,,132,24,Female,2022-05-17_17h09.34.567,Boat,2022.1.1,59.99743211829064,
negative,neutral,2,j,l,,,,,,,,,8,10,154,12,,,,,,,,,,,,,,,,,,,,,,,,main,1,1,2,neutral,negative,j,j,1,0.7106269998475909,477.9409965001978,478.94131100014783,478.9241643999703,None,477.9409965001978,None,477.9409965001978,None,477.9409965001978,None,479.6348585200729,None,479.6348585200729,None,479.6348585200729,None,,,,,,,,,,,132,24,Female,2022-05-17_17h09.34.567,Boat,2022.1.1,59.99743211829064,
positive,neutral,1,l,j,,,,,,,,,8,11,155,8,,,,,,,,,,,,,,,,,,,,,,,,main,2,2,1,neutral,positive,l,l,1,1.1537562001030892,479.6560733001679,480.6713513999712,480.6523663001135,None,479.6560733001679,None,479.6560733001679,None,479.6560733001679,None,481.7914676201297,None,481.7914676201297,None,481.7914676201297,None,,,,,,,,,,,132,24,Female,2022-05-17_17h09.34.567,Boat,2022.1.1,59.99743211829064,
neutral,neutral,1,k,k,,,,,,,,,8,12,156,1,,,,,,,,,,,,,,,,,,,,,,,,main,2,2,1,neutral,neutral,k,k,1,0.8448179999832064,481.81122020003386,482.82270690007135,482.78575410018675,None,481.81122020003386,None,481.81122020003386,None,481.81122020003386,None,483.6409050201299,None,483.6409050201299,None,483.6409050201299,None,,,,,,,,,,,132,24,Female,2022-05-17_17h09.34.567,Boat,2022.1.1,59.99743211829064,
neutral,negative,2,k,k,,,,,,,,,8,13,157,16,,,,,,,,,,,,,,,,,,,,,,,,main,2,2,2,negative,neutral,k,k,1,0.9106101000215858,483.66103220009245,484.6837830999866,484.6408698000014,None,483.66103220009245,None,483.66103220009245,None,483.66103220009245,None,485.5545402200194,None,485.5545402200194,None,485.5545402200194,None,,,,,,,,,,,132,24,Female,2022-05-17_17h09.34.567,Boat,2022.1.1,59.99743211829064,
negative,negative,2,j,l,,,,,,,,,8,14,158,9,,,,,,,,,,,,,,,,,,,,,,,,main,2,2,2,negative,negative,j,j,1,0.8557611000724137,485.57523420010693,486.60233030002564,486.5563926000614,None,485.57523420010693,None,485.57523420010693,None,485.57523420010693,None,487.41534672009294,None,487.41534672009294,None,487.41534672009294,None,,,,,,,,,,,132,24,Female,2022-05-17_17h09.34.567,Boat,2022.1.1,59.99743211829064,
positive,negative,2,l,j,,,,,,,,,8,15,159,14,,,,,,,,,,,,,,,,,,,,,,,,main,1,1,2,negative,positive,l,l,1,0.8867754999082536,487.434941300191,488.4450795999728,488.4100707999896,None,487.434941300191,None,487.434941300191,None,487.434941300191,None,489.3051790199941,None,489.3051790199941,None,489.3051790199941,None,,,,,,,,,,,132,24,Female,2022-05-17_17h09.34.567,Boat,2022.1.1,59.99743211829064,
positive,neutral,2,l,j,,,,,,,,,8,16,160,17,,,,,,,,,,,,,,,,,,,,,,,,main,1,1,2,neutral,positive,l,l,1,0.6345816000830382,489.3245549001731,490.3409609000664,490.3031158000231,None,489.3245549001731,None,489.3245549001731,None,489.3245549001731,None,490.94243172004354,None,490.94243172004354,None,490.94243172004354,None,,,,,,,,,,,132,24,Female,2022-05-17_17h09.34.567,Boat,2022.1.1,59.99743211829064,
neutral,positive,1,k,k,,,,,,,,,8,17,161,4,,,,,,,,,,,,,,,,,,,,,,,,main,2,2,1,positive,neutral,k,k,1,0.8511295998468995,490.96145120006986,491.97171570011415,491.95293470006436,None,490.96145120006986,None,490.96145120006986,None,490.96145120006986,None,492.79603141995614,None,492.79603141995614,None,492.79603141995614,None,,,,,,,,,,,132,24,Female,2022-05-17_17h09.34.567,Boat,2022.1.1,59.99743211829064,
negative,neutral,1,j,l,,,,,,,,,9,0,162,3,,,,,,,,,,,,,,,,,,,,,,,,main,2,2,1,neutral,negative,j,j,1,0.8046851998660713,492.815330500016,493.8249932001345,493.79106210009195,None,492.815330500016,None,492.815330500016,None,492.815330500016,None,494.6042996200966,None,494.6042996200966,None,494.6042996200966,None,,,,,,,,,,,132,24,Female,2022-05-17_17h09.34.567,Boat,2022.1.1,59.99743211829064,
neutral,neutral,2,k,k,,,,,,,,,9,1,163,10,,,,,,,,,,,,,,,,,,,,,,,,main,1,1,2,neutral,neutral,k,k,1,0.7540732000488788,494.6234340001829,495.62430440005846,495.6072735001799,None,494.6234340001829,None,494.6234340001829,None,494.6234340001829,None,496.3605426201364,None,496.3605426201364,None,496.3605426201364,None,,,,,,,,,,,132,24,Female,2022-05-17_17h09.34.567,Boat,2022.1.1,59.99743211829064,
neutral,negative,2,k,k,,,,,,,,,9,2,164,16,,,,,,,,,,,,,,,,,,,,,,,,main,1,1,2,negative,neutral,k,k,1,1.370092400116846,496.3801216001157,497.38783710007556,497.36951830005273,None,496.3801216001157,None,496.3801216001157,None,496.3801216001157,None,498.734826420038,None,498.734826420038,None,498.734826420038,None,,,,,,,,,,,132,24,Female,2022-05-17_17h09.34.567,Boat,2022.1.1,59.99743211829064,
negative,neutral,2,j,l,,,,,,,,,9,3,165,12,,,,,,,,,,,,,,,,,,,,,,,,main,1,1,2,neutral,negative,j,j,1,1.1787145999260247,498.7560917001683,499.7605397000443,499.72478780010715,None,498.7560917001683,None,498.7560917001683,None,498.7560917001683,None,500.9131934201112,None,500.9131934201112,None,500.9131934201112,None,,,,,,,,,,,132,24,Female,2022-05-17_17h09.34.567,Boat,2022.1.1,59.99743211829064,
neutral,negative,1,k,k,,,,,,,,,9,4,166,7,,,,,,,,,,,,,,,,,,,,,,,,main,1,1,1,negative,neutral,k,k,1,0.7217669000383466,500.9340515001677,501.95087389997207,501.9081926001236,None,500.9340515001677,None,500.9340515001677,None,500.9340515001677,None,502.64062542009634,None,502.64062542009634,None,502.64062542009634,None,,,,,,,,,,,132,24,Female,2022-05-17_17h09.34.567,Boat,2022.1.1,59.99743211829064,
neutral,positive,1,k,k,,,,,,,,,9,5,167,4,,,,,,,,,,,,,,,,,,,,,,,,main,1,1,1,positive,neutral,k,k,1,0.6264221000019461,502.65916760009713,503.674579200102,503.63865550002083,None,502.65916760009713,None,502.65916760009713,None,502.65916760009713,None,504.2700460199965,None,504.2700460199965,None,504.2700460199965,None,,,,,,,,,,,132,24,Female,2022-05-17_17h09.34.567,Boat,2022.1.1,59.99743211829064,
negative,positive,2,j,l,,,,,,,,,9,6,168,15,,,,,,,,,,,,,,,,,,,,,,,,main,2,2,2,positive,negative,j,j,1,1.0242922001052648,504.290310600074,505.2917119001504,505.27428610017523,None,504.290310600074,None,504.290310600074,None,504.290310600074,None,506.2968269200763,None,506.2968269200763,None,506.2968269200763,None,,,,,,,,,,,132,24,Female,2022-05-17_17h09.34.567,Boat,2022.1.1,59.99743211829064,
positive,positive,1,l,j,,,,,,,,,9,7,169,2,,,,,,,,,,,,,,,,,,,,,,,,main,1,1,1,positive,positive,l,l,1,0.8047714999411255,506.3167026001029,507.32629100000486,507.29165410017595,None,506.3167026001029,None,506.3167026001029,None,506.3167026001029,None,508.10612552014646,None,508.10612552014646,None,508.10612552014646,None,,,,,,,,,,,132,24,Female,2022-05-17_17h09.34.567,Boat,2022.1.1,59.99743211829064,
positive,positive,2,l,j,,,,,,,,,9,8,170,11,,,,,,,,,,,,,,,,,,,,,,,,main,2,2,2,positive,positive,l,l,1,0.6044985000044107,508.12549070012756,509.14226830005646,509.1063767001033,None,508.12549070012756,None,508.12549070012756,None,508.12549070012756,None,509.71289392008913,None,509.71289392008913,None,509.71289392008913,None,,,,,,,,,,,132,24,Female,2022-05-17_17h09.34.567,Boat,2022.1.1,59.99743211829064,
positive,negative,2,l,j,,,,,,,,,9,9,171,14,,,,,,,,,,,,,,,,,,,,,,,,main,1,1,2,negative,positive,l,l,1,0.7915515000931919,509.73215480009094,510.7434672000818,510.7055051000789,None,509.73215480009094,None,509.73215480009094,None,509.73215480009094,None,511.5086927200435,None,511.5086927200435,None,511.5086927200435,None,,,,,,,,,,,132,24,Female,2022-05-17_17h09.34.567,Boat,2022.1.1,59.99743211829064,
negative,negative,2,j,l,,,,,,,,,9,10,172,9,,,,,,,,,,,,,,,,,,,,,,,,main,2,2,2,negative,negative,j,j,1,0.7173854000866413,511.5272232000716,512.5427561001852,512.5061800000258,None,511.5272232000716,None,511.5272232000716,None,511.5272232000716,None,513.2277809200575,None,513.2277809200575,None,513.2277809200575,None,,,,,,,,,,,132,24,Female,2022-05-17_17h09.34.567,Boat,2022.1.1,59.99743211829064,
positive,neutral,2,l,j,,,,,,,,,9,11,173,17,,,,,,,,,,,,,,,,,,,,,,,,main,2,2,2,neutral,positive,l,l,1,0.6284718997776508,513.2496992000379,514.2580804000609,514.2406582999974,None,513.2496992000379,None,513.2496992000379,None,513.2496992000379,None,514.860119220172,None,514.860119220172,None,514.860119220172,None,,,,,,,,,,,132,24,Female,2022-05-17_17h09.34.567,Boat,2022.1.1,59.99743211829064,
neutral,neutral,1,k,k,,,,,,,,,9,12,174,1,,,,,,,,,,,,,,,,,,,,,,,,main,1,1,1,neutral,neutral,k,k,1,0.634972200030461,514.8808669999707,515.8937752000056,515.858231500024,None,514.8808669999707,None,514.8808669999707,None,514.8808669999707,None,516.4966550200013,None,516.4966550200013,None,516.4966550200013,None,,,,,,,,,,,132,24,Female,2022-05-17_17h09.34.567,Boat,2022.1.1,59.99743211829064,
positive,negative,1,l,j,,,,,,,,,9,13,175,5,,,,,,,,,,,,,,,,,,,,,,,,main,2,2,1,negative,positive,l,l,1,1.0224925999063998,516.519024600042,517.5255387001671,517.5085234001745,None,516.519024600042,None,516.519024600042,None,516.519024600042,None,518.5235015201149,None,518.5235015201149,None,518.5235015201149,None,,,,,,,,,,,132,24,Female,2022-05-17_17h09.34.567,Boat,2022.1.1,59.99743211829064,
negative,negative,1,j,l,,,,,,,,,9,14,176,0,,,,,,,,,,,,,,,,,,,,,,,,main,1,1,1,negative,negative,j,j,1,0.9577830000780523,518.5445477000903,519.5580281000584,519.519789100159,None,518.5445477000903,None,518.5445477000903,None,518.5445477000903,None,520.4857509199762,None,520.4857509199762,None,520.4857509199762,None,,,,,,,,,,,132,24,Female,2022-05-17_17h09.34.567,Boat,2022.1.1,59.99743211829064,
positive,neutral,1,l,j,,,,,,,,,9,15,177,8,,,,,,,,,,,,,,,,,,,,,,,,main,1,1,1,neutral,positive,l,l,1,0.8605440000537783,520.508796100039,521.5339956001844,521.511206000112,None,520.508796100039,None,520.508796100039,None,520.508796100039,None,522.3472015201812,None,522.3472015201812,None,522.3472015201812,None,,,,,,,,,,,132,24,Female,2022-05-17_17h09.34.567,Boat,2022.1.1,59.99743211829064,
neutral,positive,2,k,k,,,,,,,,,9,16,178,13,,,,,,,,,,,,,,,,,,,,,,,,main,1,1,2,positive,neutral,k,k,1,0.8087989999912679,522.3729077000171,523.3752526000608,523.358221600065,None,522.3729077000171,None,522.3729077000171,None,522.3729077000171,None,524.1606318201636,None,524.1606318201636,None,524.1606318201636,None,,,,,,,,,,,132,24,Female,2022-05-17_17h09.34.567,Boat,2022.1.1,59.99743211829064,
negative,positive,1,j,l,,,,,,,,,9,17,179,6,,,,,,,,,,,,,,,,,,,,,,,,main,1,1,1,positive,negative,j,j,1,0.9966682998929173,524.1807205001824,525.1917952001095,525.1537357000634,None,524.1807205001824,None,524.1807205001824,None,524.1807205001824,None,526.1588973201112,None,526.1588973201112,None,526.1588973201112,None,,,,,,,,,,,132,24,Female,2022-05-17_17h09.34.567,Boat,2022.1.1,59.99743211829064,
negative,neutral,1,j,l,,,,,,,,,10,0,180,3,,,,,,,,,,,,,,,,,,,,,,,,main,2,2,1,neutral,negative,j,j,1,0.7449429000262171,526.1844505001791,527.1918478000443,527.1718564999755,None,526.1844505001791,None,526.1844505001791,None,526.1844505001791,None,527.909557120013,None,527.909557120013,None,527.909557120013,None,,,,,,,,,,,132,24,Female,2022-05-17_17h09.34.567,Boat,2022.1.1,59.99743211829064,
positive,neutral,1,l,j,,,,,,,,,10,1,181,8,,,,,,,,,,,,,,,,,,,,,,,,main,2,2,1,neutral,positive,l,l,1,0.8032394000329077,527.9288459001109,528.9478890001774,528.9088177999947,None,527.9288459001109,None,527.9288459001109,None,527.9288459001109,None,529.7148272200254,None,529.7148272200254,None,529.7148272200254,None,,,,,,,,,,,132,24,Female,2022-05-17_17h09.34.567,Boat,2022.1.1,59.99743211829064,
negative,negative,1,j,l,,,,,,,,,10,2,182,0,,,,,,,,,,,,,,,,,,,,,,,,main,1,1,1,negative,negative,j,j,1,1.0212182998657227,529.7391070001759,530.7561248000711,530.7373971000779,None,529.7391070001759,None,529.7391070001759,None,529.7391070001759,None,531.7421486201463,None,531.7421486201463,None,531.7421486201463,None,,,,,,,,,,,132,24,Female,2022-05-17_17h09.34.567,Boat,2022.1.1,59.99743211829064,
neutral,negative,1,k,k,,,,,,,,,10,3,183,7,,,,,,,,,,,,,,,,,,,,,,,,main,1,1,1,negative,neutral,k,k,1,0.8219050001353025,531.7607342000119,532.7751513000112,532.7408143000212,None,531.7607342000119,None,531.7607342000119,None,531.7607342000119,None,533.5653013201197,None,533.5653013201197,None,533.5653013201197,None,,,,,,,,,,,132,24,Female,2022-05-17_17h09.34.567,Boat,2022.1.1,59.99743211829064,
negative,positive,2,j,l,,,,,,,,,10,4,184,15,,,,,,,,,,,,,,,,,,,,,,,,main,2,2,2,positive,negative,j,j,1,0.9294406999833882,533.584859300172,534.6015382001642,534.5736305001192,None,533.584859300172,None,533.584859300172,None,533.584859300172,None,535.4985455200774,None,535.4985455200774,None,535.4985455200774,None,,,,,,,,,,,132,24,Female,2022-05-17_17h09.34.567,Boat,2022.1.1,59.99743211829064,
positive,neutral,2,l,j,,,,,,,,,10,5,185,17,,,,,,,,,,,,,,,,,,,,,,,,main,1,1,2,neutral,positive,l,l,1,0.7582800001837313,535.5170456001069,536.5234858000185,536.5042179999873,None,535.5170456001069,None,535.5170456001069,None,535.5170456001069,None,537.2593634201446,None,537.2593634201446,None,537.2593634201446,None,,,,,,,,,,,132,24,Female,2022-05-17_17h09.34.567,Boat,2022.1.1,59.99743211829064,
positive,positive,2,l,j,,,,,,,,,10,6,186,11,,,,,,,,,,,,,,,,,,,,,,,,main,2,2,2,positive,positive,l,l,1,0.7684386000037193,537.2806959000882,538.2975275001954,538.26135600009,None,537.2806959000882,None,537.2806959000882,None,537.2806959000882,None,539.0278182200389,None,539.0278182200389,None,539.0278182200389,None,,,,,,,,,,,132,24,Female,2022-05-17_17h09.34.567,Boat,2022.1.1,59.99743211829064,
neutral,positive,2,k,k,,,,,,,,,10,7,187,13,,,,,,,,,,,,,,,,,,,,,,,,main,2,2,2,positive,neutral,k,k,1,0.9214739999733865,539.0595063001383,540.0754562001675,540.0557970001828,None,539.0595063001383,None,539.0595063001383,None,539.0595063001383,None,540.9564761201152,None,540.9564761201152,None,540.9564761201152,None,,,,,,,,,,,132,24,Female,2022-05-17_17h09.34.567,Boat,2022.1.1,59.99743211829064,
neutral,neutral,2,k,k,,,,,,,,,10,8,188,10,,,,,,,,,,,,,,,,,,,,,,,,main,2,2,2,neutral,neutral,k,k,1,0.6779350000433624,540.9832369000651,542.0047534999903,541.958809300093,None,540.9832369000651,None,540.9832369000651,None,540.9832369000651,None,542.6390474201878,None,542.6390474201878,None,542.6390474201878,None,,,,,,,,,,,132,24,Female,2022-05-17_17h09.34.567,Boat,2022.1.1,59.99743211829064,
neutral,positive,1,k,k,,,,,,,,,10,9,189,4,,,,,,,,,,,,,,,,,,,,,,,,main,2,2,1,positive,neutral,k,k,1,0.9329188000410795,542.6649100000504,543.680438300129,543.6610357000027,None,542.6649100000504,None,542.6649100000504,None,542.6649100000504,None,544.5771621200954,None,544.5771621200954,None,544.5771621200954,None,,,,,,,,,,,132,24,Female,2022-05-17_17h09.34.567,Boat,2022.1.1,59.99743211829064,
positive,negative,2,l,j,,,,,,,,,10,10,190,14,,,,,,,,,,,,,,,,,,,,,,,,main,2,2,2,negative,positive,l,l,1,0.8459220000077039,544.6038830999751,545.6087748000864,545.5903334000614,None,544.6038830999751,None,544.6038830999751,None,544.6038830999751,None,546.4278014200506,None,546.4278014200506,None,546.4278014200506,None,,,,,,,,,,,132,24,Female,2022-05-17_17h09.34.567,Boat,2022.1.1,59.99743211829064,
negative,neutral,2,j,l,,,,,,,,,10,11,191,12,,,,,,,,,,,,,,,,,,,,,,,,main,2,2,2,neutral,negative,j,j,1,1.1387686000671238,546.4481811001897,547.4615913000889,547.4249999001622,None,546.4481811001897,None,546.4481811001897,None,546.4481811001897,None,548.5702565201325,None,548.5702565201325,None,548.5702565201325,None,,,,,,,,,,,132,24,Female,2022-05-17_17h09.34.567,Boat,2022.1.1,59.99743211829064,
neutral,neutral,1,k,k,,,,,,,,,10,12,192,1,,,,,,,,,,,,,,,,,,,,,,,,main,2,2,1,neutral,neutral,k,k,1,0.6930641999933869,548.5891553000547,549.5929774001706,549.5758277999703,None,548.5891553000547,None,548.5891553000547,None,548.5891553000547,None,550.2643804201623,None,550.2643804201623,None,550.2643804201623,None,,,,,,,,,,,132,24,Female,2022-05-17_17h09.34.567,Boat,2022.1.1,59.99743211829064,
neutral,negative,2,k,k,,,,,,,,,10,13,193,16,,,,,,,,,,,,,,,,,,,,,,,,main,2,2,2,negative,neutral,k,k,1,0.6969509001355618,550.2856011001859,551.2991920001805,551.2633259000722,None,550.2856011001859,None,550.2856011001859,None,550.2856011001859,None,551.9642853199737,None,551.9642853199737,None,551.9642853199737,None,,,,,,,,,,,132,24,Female,2022-05-17_17h09.34.567,Boat,2022.1.1,59.99743211829064,
positive,negative,1,l,j,,,,,,,,,10,14,194,5,,,,,,,,,,,,,,,,,,,,,,,,main,1,1,1,negative,positive,l,l,1,0.9908525000791997,551.9839539001696,553.0019634000491,552.958886400098,None,551.9839539001696,None,551.9839539001696,None,551.9839539001696,None,553.959324820037,None,553.959324820037,None,553.959324820037,None,,,,,,,,,,,132,24,Female,2022-05-17_17h09.34.567,Boat,2022.1.1,59.99743211829064,
negative,negative,2,j,l,,,,,,,,,10,15,195,9,,,,,,,,,,,,,,,,,,,,,,,,main,2,2,2,negative,negative,j,j,1,1.0013005000073463,553.9798843001481,554.9937434000894,554.9594652000815,None,553.9798843001481,None,553.9798843001481,None,553.9798843001481,None,555.9623998201685,None,555.9623998201685,None,555.9623998201685,None,,,,,,,,,,,132,24,Female,2022-05-17_17h09.34.567,Boat,2022.1.1,59.99743211829064,
negative,positive,1,j,l,,,,,,,,,10,16,196,6,,,,,,,,,,,,,,,,,,,,,,,,main,2,2,1,positive,negative,j,j,1,1.1764837999362499,555.9830219000578,556.993497100193,556.9570602001622,None,555.9830219000578,None,555.9830219000578,None,555.9830219000578,None,558.1425995201105,None,558.1425995201105,None,558.1425995201105,None,,,,,,,,,,,132,24,Female,2022-05-17_17h09.34.567,Boat,2022.1.1,59.99743211829064,
positive,positive,1,l,j,,,,,,,,,10,17,197,2,,,,,,,,,,,,,,,,,,,,,,,,main,1,1,1,positive,positive,l,l,1,0.757648800034076,558.1645351999905,559.1802110001445,559.1431713001803,None,558.1645351999905,None,558.1645351999905,None,558.1645351999905,None,559.9058471201686,None,559.9058471201686,None,559.9058471201686,None,,,,,,,,,,,132,24,Female,2022-05-17_17h09.34.567,Boat,2022.1.1,59.99743211829064,
neutral,neutral,2,k,k,,,,,,,,,11,0,198,10,,,,,,,,,,,,,,,,,,,,,,,,main,2,2,2,neutral,neutral,k,k,1,0.660020399838686,559.925886400044,560.9260893000755,560.9090468001086,None,559.925886400044,None,559.925886400044,None,559.925886400044,None,561.5689789201831,None,561.5689789201831,None,561.5689789201831,None,,,,,,,,,,,132,24,Female,2022-05-17_17h09.34.567,Boat,2022.1.1,59.99743211829064,
negative,positive,2,j,l,,,,,,,,,11,1,199,15,,,,,,,,,,,,,,,,,,,,,,,,main,2,2,2,positive,negative,j,j,1,0.8465620998758823,561.5884180001449,562.5924533000216,562.5737689000089,None,561.5884180001449,None,561.5884180001449,None,561.5884180001449,None,563.418049020064,None,563.418049020064,None,563.418049020064,None,,,,,,,,,,,132,24,Female,2022-05-17_17h09.34.567,Boat,2022.1.1,59.99743211829064,
negative,neutral,1,j,l,,,,,,,,,11,2,200,3,,,,,,,,,,,,,,,,,,,,,,,,main,2,2,1,neutral,negative,j,j,1,1.1610163999721408,563.4384524000343,564.4455834000837,564.425857400056,None,563.4384524000343,None,563.4384524000343,None,563.4384524000343,None,565.5817973199999,None,565.5817973199999,None,565.5817973199999,None,,,,,,,,,,,132,24,Female,2022-05-17_17h09.34.567,Boat,2022.1.1,59.99743211829064,
neutral,negative,2,k,k,,,,,,,,,11,3,201,16,,,,,,,,,,,,,,,,,,,,,,,,main,2,2,2,negative,neutral,k,k,1,0.8639458999969065,565.6010892000049,566.6092205001041,566.5909763001837,None,565.6010892000049,None,565.6010892000049,None,565.6010892000049,None,567.4487167201703,None,567.4487167201703,None,567.4487167201703,None,,,,,,,,,,,132,24,Female,2022-05-17_17h09.34.567,Boat,2022.1.1,59.99743211829064,
neutral,negative,1,k,k,,,,,,,,,11,4,202,7,,,,,,,,,,,,,,,,,,,,,,,,main,1,1,1,negative,neutral,k,j,0,0.9074069000780582,567.4675514001865,568.478036200162,568.4426920001861,None,567.4675514001865,None,567.4675514001865,None,567.4675514001865,None,569.3640633001924,None,569.3640633001924,None,569.3640633001924,None,,,,,,,,,,,132,24,Female,2022-05-17_17h09.34.567,Boat,2022.1.1,59.99743211829064,
positive,neutral,2,l,j,,,,,,,,,11,5,203,17,,,,,,,,,,,,,,,,,,,,,,,,main,2,2,2,neutral,positive,l,l,1,0.9067617000546306,570.3802508001681,571.3926231001969,571.3757290001959,None,570.3802508001681,None,570.3802508001681,None,570.3802508001681,None,572.2673608200391,None,572.2673608200391,None,572.2673608200391,None,,,,,,,,,,,132,24,Female,2022-05-17_17h09.34.567,Boat,2022.1.1,59.99743211829064,
neutral,positive,2,k,k,,,,,,,,,11,6,204,13,,,,,,,,,,,,,,,,,,,,,,,,main,1,1,2,positive,neutral,k,k,1,0.8413728999439627,572.293012100039,573.3095128000714,573.2712839001324,None,572.293012100039,None,572.293012100039,None,572.293012100039,None,574.1143013200024,None,574.1143013200024,None,574.1143013200024,None,,,,,,,,,,,132,24,Female,2022-05-17_17h09.34.567,Boat,2022.1.1,59.99743211829064,
positive,neutral,1,l,j,,,,,,,,,11,7,205,8,,,,,,,,,,,,,,,,,,,,,,,,main,1,1,1,neutral,positive,l,l,1,1.3915122000034899,574.1339738999959,575.142837600084,575.1245610001497,None,574.1339738999959,None,574.1339738999959,None,574.1339738999959,None,576.5097965200664,None,576.5097965200664,None,576.5097965200664,None,,,,,,,,,,,132,24,Female,2022-05-17_17h09.34.567,Boat,2022.1.1,59.99743211829064,
positive,negative,1,l,j,,,,,,,,,11,8,206,5,,,,,,,,,,,,,,,,,,,,,,,,main,2,2,1,negative,positive,l,l,1,0.877109199995175,576.5286873001605,577.5428798000794,577.506041200133,None,576.5286873001605,None,576.5286873001605,None,576.5286873001605,None,578.3898572200676,None,578.3898572200676,None,578.3898572200676,None,,,,,,,,,,,132,24,Female,2022-05-17_17h09.34.567,Boat,2022.1.1,59.99743211829064,
negative,negative,1,j,l,,,,,,,,,11,9,207,0,,,,,,,,,,,,,,,,,,,,,,,,main,2,2,1,negative,negative,j,j,1,0.8917097998782992,578.4108546001371,579.4253024000209,579.387731899973,None,578.4108546001371,None,578.4108546001371,None,578.4108546001371,None,580.2868526201462,None,580.2868526201462,None,580.2868526201462,None,,,,,,,,,,,132,24,Female,2022-05-17_17h09.34.567,Boat,2022.1.1,59.99743211829064,
