target,distractor,set,ans1,ans2,rep_loop2.thisRepN,rep_loop2.thisTrialN,rep_loop2.thisN,rep_loop2.thisIndex,flanker_prac_loop.thisRepN,flanker_prac_loop.thisTrialN,flanker_prac_loop.thisN,flanker_prac_loop.thisIndex,flanker_main_loop.thisRepN,flanker_main_loop.thisTrialN,flanker_main_loop.thisN,flanker_main_loop.thisIndex,fl_inst_resp.keys,mouse.x,mouse.y,mouse.leftButton,mouse.midButton,mouse.rightButton,mouse.started,mouse.stopped,sound_1.started,sound_1.stopped,no_text.started,no_text.stopped,yes_text.started,yes_text.stopped,mouse_2.x,mouse_2.y,mouse_2.leftButton,mouse_2.midButton,mouse_2.rightButton,mouse_2.started,mouse_2.stopped,back_2.started,back_2.stopped,main_prac,fl_cold,fl_colt,fl_set,fl_dcond,fl_tcond,fl_ans,fl_res,fl_corr,fl_rt,fix_fl.started,fix_fl.stopped,targ.started,targ.stopped,j_button.started,j_button.stopped,k_button.started,k_button.stopped,l_button.started,l_button.stopped,j_button2.started,j_button2.stopped,k_button2.started,k_button2.stopped,l_button2.started,l_button2.stopped,mainback.started,mainback.stopped,key_resp.keys,mouse_6.x,mouse_6.y,mouse_6.leftButton,mouse_6.midButton,mouse_6.rightButton,mouse_6.started,mouse_6.stopped,id*,age*,gender*,date,expName,psychopyVersion,frameRate,
,,,,,0,0,0,0,,,,,,,,,None,0.07777778,-0.38425925,0,0,0,1.0283089033327997,None,27.373961190041154,None,76.77702719997615,None,76.77702719997615,None,-0.108333334,-0.08425926,0,0,0,0.013245390728116035,None,,,,,,,,,,,,,,,,,,,,,,,,,,,,,,,,,,,,,,,133,22,Female,2022-05-31_15h56.56.347,Boat,2022.1.1,59.80764667208058,
positive,neutral,2,l,j,,,,,0,0,0,17,,,,,,,,,,,,,,,,,,,,,,,,,,83.0761609999463,None,prac,2,2,2,neutral,positive,j,j,1,1.265057200100273,85.11001419974491,86.11186440009624,86.09344159998,None,85.11001419974491,None,85.11001419974491,None,85.11001419974491,None,87.34211598969996,None,87.34211598969996,None,87.34211598969996,None,,,,,,,,,,,133,22,Female,2022-05-31_15h56.56.347,Boat,2022.1.1,59.80764667208058,
positive,positive,1,l,j,,,,,0,1,1,2,,,,,,,,,,,,,,,,,,,,,,,,,,,,prac,2,2,1,positive,positive,j,k,0,1.5859147999435663,87.36661029979587,88.39151969971135,88.34603999974206,None,87.36661029979587,None,87.36661029979587,None,87.36661029979587,None,89.96718839975074,None,89.96718839975074,None,89.96718839975074,None,,,,,,,,,,,133,22,Female,2022-05-31_15h56.56.347,Boat,2022.1.1,59.80764667208058,
positive,negative,1,l,j,,,,,0,2,2,5,,,,,,,,,,,,,,,,,,,,,,,,,,,,prac,1,1,1,negative,positive,j,j,1,0.8724767002277076,90.99414870003238,92.01090859994292,91.9749655998312,None,90.99414870003238,None,90.99414870003238,None,90.99414870003238,None,92.84057079004124,None,92.84057079004124,None,92.84057079004124,None,,,,,,,,,,,133,22,Female,2022-05-31_15h56.56.347,Boat,2022.1.1,59.80764667208058,
neutral,negative,2,k,k,,,,,0,3,3,16,,,,,,,,,,,,,,,,,,,,,,,,,,,,prac,1,1,2,negative,neutral,k,k,1,0.740267800167203,92.86134319985285,93.86361779971048,93.84707359969616,None,92.86134319985285,None,92.86134319985285,None,92.86134319985285,None,94.58215088983998,None,94.58215088983998,None,94.58215088983998,None,,,,,,,,,,,133,22,Female,2022-05-31_15h56.56.347,Boat,2022.1.1,59.80764667208058,
neutral,negative,1,k,k,,,,,0,4,4,7,,,,,,,,,,,,,,,,,,,,,,,,,,,,prac,2,2,1,negative,neutral,k,k,1,1.0551411001943052,94.60238289972767,95.61358689982444,95.57724069990218,None,94.60238289972767,None,94.60238289972767,None,94.60238289972767,None,96.64152509002015,None,96.64152509002015,None,96.64152509002015,None,,,,,,,,,,,133,22,Female,2022-05-31_15h56.56.347,Boat,2022.1.1,59.80764667208058,
positive,positive,2,l,j,,,,,0,5,5,11,,,,,,,,,,,,,,,,,,,,,,,,,,,,prac,2,2,2,positive,positive,j,k,0,-0.6944605000317097,96.66577469976619,None,None,None,96.66577469976619,None,96.66577469976619,None,96.66577469976619,None,96.9580230996944,None,96.9580230996944,None,96.9580230996944,None,,,,,,,,,,,133,22,Female,2022-05-31_15h56.56.347,Boat,2022.1.1,59.80764667208058,
neutral,neutral,1,k,k,,,,,0,6,6,1,,,,,,,,,,,,,,,,,,,,,,,,,,,,prac,2,2,1,neutral,neutral,k,k,1,0.585037199780345,99.97573640011251,100.98990749986842,100.94739269977435,None,99.97573640011251,None,99.97573640011251,None,99.97573640011251,None,101.53492378983647,None,101.53492378983647,None,101.53492378983647,None,,,,,,,,,,,133,22,Female,2022-05-31_15h56.56.347,Boat,2022.1.1,59.80764667208058,
negative,positive,2,j,l,,,,,0,7,7,15,,,,,,,,,,,,,,,,,,,,,,,,,,,,prac,1,1,2,positive,negative,l,l,1,0.763153700158,101.55528050009161,102.5638398998417,102.52824850007892,None,101.55528050009161,None,101.55528050009161,None,101.55528050009161,None,103.30206318972633,None,103.30206318972633,None,103.30206318972633,None,,,,,,,,,,,133,22,Female,2022-05-31_15h56.56.347,Boat,2022.1.1,59.80764667208058,
positive,neutral,1,l,j,,,,,0,8,8,8,,,,,,,,,,,,,,,,,,,,,,,,,,,,prac,2,2,1,neutral,positive,j,j,1,0.8916960000060499,103.31714250007644,104.32795129995793,104.29167350009084,None,103.31714250007644,None,103.31714250007644,None,103.31714250007644,None,105.19749288987369,None,105.19749288987369,None,105.19749288987369,None,,,,,,,,,,,133,22,Female,2022-05-31_15h56.56.347,Boat,2022.1.1,59.80764667208058,
neutral,neutral,2,k,k,,,,,0,9,9,10,,,,,,,,,,,,,,,,,,,,,,,,,,,,prac,2,2,2,neutral,neutral,k,k,1,0.5177074996754527,105.21405529975891,106.23017679993063,106.21239360002801,None,105.21405529975891,None,105.21405529975891,None,105.21405529975891,None,106.71665348978713,None,106.71665348978713,None,106.71665348978713,None,,,,,,,,,,,133,22,Female,2022-05-31_15h56.56.347,Boat,2022.1.1,59.80764667208058,
negative,negative,1,j,l,,,,,0,10,10,0,,,,,,,,,,,,,,,,,,,,,,,,,,,,prac,1,1,1,negative,negative,l,l,1,0.5833332999609411,106.73362089972943,107.7473152000457,107.7121838000603,None,106.73362089972943,None,106.73362089972943,None,106.73362089972943,None,108.30358288977295,None,108.30358288977295,None,108.30358288977295,None,,,,,,,,,,,133,22,Female,2022-05-31_15h56.56.347,Boat,2022.1.1,59.80764667208058,
neutral,positive,1,k,k,,,,,0,11,11,4,,,,,,,,,,,,,,,,,,,,,,,,,,,,prac,2,2,1,positive,neutral,k,k,1,0.7003767997957766,108.31887289974838,109.3308023000136,109.31196049973369,None,108.31887289974838,None,108.31887289974838,None,108.31887289974838,None,110.00444558989257,None,110.00444558989257,None,110.00444558989257,None,,,,,,,,,,,133,22,Female,2022-05-31_15h56.56.347,Boat,2022.1.1,59.80764667208058,
negative,negative,2,j,l,,,,,0,12,12,9,,,,,,,,,,,,,,,,,,,,,,,,,,,,prac,1,1,2,negative,negative,l,l,1,0.7249953001737595,110.0205719997175,111.0419926000759,110.99739569984376,None,110.0205719997175,None,110.0205719997175,None,110.0205719997175,None,111.73284219000489,None,111.73284219000489,None,111.73284219000489,None,,,,,,,,,,,133,22,Female,2022-05-31_15h56.56.347,Boat,2022.1.1,59.80764667208058,
negative,neutral,2,j,l,,,,,0,13,13,12,,,,,,,,,,,,,,,,,,,,,,,,,,,,prac,2,2,2,neutral,negative,l,l,1,0.6956707001663744,111.75939140003175,112.76247949991375,112.74394079996273,None,111.75939140003175,None,111.75939140003175,None,111.75939140003175,None,113.4315628901124,None,113.4315628901124,None,113.4315628901124,None,,,,,,,,,,,133,22,Female,2022-05-31_15h56.56.347,Boat,2022.1.1,59.80764667208058,
negative,positive,1,j,l,,,,,0,14,14,6,,,,,,,,,,,,,,,,,,,,,,,,,,,,prac,2,2,1,positive,negative,l,j,0,1.3517077001743019,113.44646049989387,114.45895509980619,114.41414069989696,None,113.44646049989387,None,113.44646049989387,None,113.44646049989387,None,115.78821619972587,None,115.78821619972587,None,115.78821619972587,None,,,,,,,,,,,133,22,Female,2022-05-31_15h56.56.347,Boat,2022.1.1,59.80764667208058,
neutral,positive,2,k,k,,,,,0,15,15,13,,,,,,,,,,,,,,,,,,,,,,,,,,,,prac,2,2,2,positive,neutral,k,k,1,0.7941334997303784,116.79868729971349,117.80972820008174,117.79200770007446,None,116.79868729971349,None,116.79868729971349,None,116.79868729971349,None,118.58100198982284,None,118.58100198982284,None,118.58100198982284,None,,,,,,,,,,,133,22,Female,2022-05-31_15h56.56.347,Boat,2022.1.1,59.80764667208058,
negative,neutral,1,j,l,,,,,0,16,16,3,,,,,,,,,,,,,,,,,,,,,,,,,,,,prac,1,1,1,neutral,negative,l,l,1,0.6051415000110865,118.60928109986708,119.62410379992798,119.59768609981984,None,118.60928109986708,None,118.60928109986708,None,118.60928109986708,None,120.18966429010034,None,120.18966429010034,None,120.18966429010034,None,,,,,,,,,,,133,22,Female,2022-05-31_15h56.56.347,Boat,2022.1.1,59.80764667208058,
positive,negative,2,l,j,,,,,0,17,17,14,,,,,,,,,,,,,,,,,,,,,,,,,,,,prac,1,1,2,negative,positive,j,j,1,0.6603193003684282,120.20418749982491,121.20893609989434,121.20893609989434,None,120.20418749982491,None,120.20418749982491,None,120.20418749982491,None,121.85053228987381,None,121.85053228987381,None,121.85053228987381,None,,,,,,,,,,,133,22,Female,2022-05-31_15h56.56.347,Boat,2022.1.1,59.80764667208058,
negative,negative,2,j,l,,,,,1,0,18,9,,,,,,,,,,,,,,,,,,,,,,,,,,,,prac,1,1,2,negative,negative,l,l,1,0.8276950996369123,121.86480579990894,122.88103389972821,122.86284579988569,None,121.86480579990894,None,121.86480579990894,None,121.86480579990894,None,123.68123048990965,None,123.68123048990965,None,123.68123048990965,None,,,,,,,,,,,133,22,Female,2022-05-31_15h56.56.347,Boat,2022.1.1,59.80764667208058,
neutral,positive,1,k,k,,,,,1,1,19,4,,,,,,,,,,,,,,,,,,,,,,,,,,,,prac,1,1,1,positive,neutral,k,k,1,0.701235800050199,123.70517339976504,124.72590920003131,124.70774649968371,None,123.70517339976504,None,123.70517339976504,None,123.70517339976504,None,125.38495649006218,None,125.38495649006218,None,125.38495649006218,None,,,,,,,,,,,133,22,Female,2022-05-31_15h56.56.347,Boat,2022.1.1,59.80764667208058,
positive,positive,1,l,j,,,,,1,2,20,2,,,,,,,,,,,,,,,,,,,,,,,,,,,,prac,2,2,1,positive,positive,j,j,1,0.549938099924475,125.40095609985292,126.42382919974625,126.38091559987515,None,125.40095609985292,None,125.40095609985292,None,125.40095609985292,None,126.93658799007535,None,126.93658799007535,None,126.93658799007535,None,,,,,,,,,,,133,22,Female,2022-05-31_15h56.56.347,Boat,2022.1.1,59.80764667208058,
positive,positive,2,l,j,,,,,1,3,21,11,,,,,,,,,,,,,,,,,,,,,,,,,,,,prac,2,2,2,positive,positive,j,j,1,0.5822217999957502,126.95181619981304,127.97579859988764,127.93267960008234,None,126.95181619981304,None,126.95181619981304,None,126.95181619981304,None,128.522612689808,None,128.522612689808,None,128.522612689808,None,,,,,,,,,,,133,22,Female,2022-05-31_15h56.56.347,Boat,2022.1.1,59.80764667208058,
neutral,negative,2,k,k,,,,,1,4,22,16,,,,,,,,,,,,,,,,,,,,,,,,,,,,prac,2,2,2,negative,neutral,k,k,1,0.49576509976759553,128.54855109984055,129.5480265999213,129.53148629982024,None,128.54855109984055,None,128.54855109984055,None,128.54855109984055,None,130.01908239005132,None,130.01908239005132,None,130.01908239005132,None,,,,,,,,,,,133,22,Female,2022-05-31_15h56.56.347,Boat,2022.1.1,59.80764667208058,
neutral,neutral,2,k,k,,,,,1,5,23,10,,,,,,,,,,,,,,,,,,,,,,,,,,,,prac,1,1,2,neutral,neutral,k,k,1,0.49183989968150854,130.0422224998474,131.04505599988624,131.02713839989156,None,130.0422224998474,None,130.0422224998474,None,130.0422224998474,None,131.51422219006344,None,131.51422219006344,None,131.51422219006344,None,,,,,,,,,,,133,22,Female,2022-05-31_15h56.56.347,Boat,2022.1.1,59.80764667208058,
negative,neutral,2,j,l,,,,,1,6,24,12,,,,,,,,,,,,,,,,,,,,,,,,,,,,prac,2,2,2,neutral,negative,l,l,1,0.6888963999226689,131.5294631998986,132.5407841000706,132.51424490008503,None,131.5294631998986,None,131.5294631998986,None,131.5294631998986,None,133.20491798995062,None,133.20491798995062,None,133.20491798995062,None,,,,,,,,,,,133,22,Female,2022-05-31_15h56.56.347,Boat,2022.1.1,59.80764667208058,
neutral,positive,2,k,k,,,,,1,7,25,13,,,,,,,,,,,,,,,,,,,,,,,,,,,,prac,2,2,2,positive,neutral,k,j,0,0.47917019994929433,133.22008859971538,134.24245849996805,134.1977391000837,None,133.22008859971538,None,133.22008859971538,None,133.22008859971538,None,134.69017930002883,None,134.69017930002883,None,134.69017930002883,None,,,,,,,,,,,133,22,Female,2022-05-31_15h56.56.347,Boat,2022.1.1,59.80764667208058,
neutral,neutral,1,k,k,,,,,1,8,26,1,,,,,,,,,,,,,,,,,,,,,,,,,,,,prac,1,1,1,neutral,neutral,k,k,1,0.5850019999779761,135.70101589988917,136.72456829994917,136.68175520002842,None,135.70101589988917,None,135.70101589988917,None,135.70101589988917,None,137.2707315900363,None,137.2707315900363,None,137.2707315900363,None,,,,,,,,,,,133,22,Female,2022-05-31_15h56.56.347,Boat,2022.1.1,59.80764667208058,
positive,neutral,2,l,j,,,,,1,9,27,17,,,,,,,,,,,,,,,,,,,,,,,,,,,,prac,2,2,2,neutral,positive,j,j,1,0.6301307999528944,137.28734879987314,138.29807349992916,138.26455429987982,None,137.28734879987314,None,137.28734879987314,None,137.28734879987314,None,138.90220338972284,None,138.90220338972284,None,138.90220338972284,None,,,,,,,,,,,133,22,Female,2022-05-31_15h56.56.347,Boat,2022.1.1,59.80764667208058,
positive,negative,1,l,j,,,,,1,10,28,5,,,,,,,,,,,,,,,,,,,,,,,,,,,,prac,1,1,1,negative,positive,j,j,1,0.8002961999736726,138.91934449970722,139.94054619967937,139.89784569991753,None,138.91934449970722,None,138.91934449970722,None,138.91934449970722,None,140.70745618995278,None,140.70745618995278,None,140.70745618995278,None,,,,,,,,,,,133,22,Female,2022-05-31_15h56.56.347,Boat,2022.1.1,59.80764667208058,
negative,positive,2,j,l,,,,,1,11,29,15,,,,,,,,,,,,,,,,,,,,,,,,,,,,prac,1,1,2,positive,negative,l,l,1,0.7275077002122998,140.72276020003483,141.7317193998024,141.6954267998226,None,140.72276020003483,None,140.72276020003483,None,140.72276020003483,None,142.434560390003,None,142.434560390003,None,142.434560390003,None,,,,,,,,,,,133,22,Female,2022-05-31_15h56.56.347,Boat,2022.1.1,59.80764667208058,
neutral,negative,1,k,k,,,,,1,12,30,7,,,,,,,,,,,,,,,,,,,,,,,,,,,,prac,2,2,1,negative,neutral,k,k,1,1.8178616999648511,142.4522486999631,143.46537699969485,143.43112540012226,None,142.4522486999631,None,142.4522486999631,None,142.4522486999631,None,145.2599176997319,None,145.2599176997319,None,145.2599176997319,None,,,,,,,,,,,133,22,Female,2022-05-31_15h56.56.347,Boat,2022.1.1,59.80764667208058,
negative,negative,1,j,l,,,,,1,13,31,0,,,,,,,,,,,,,,,,,,,,,,,,,,,,prac,1,1,1,negative,negative,l,l,1,1.5951046999543905,146.26663949992508,147.27667400008067,147.2578014996834,None,146.26663949992508,None,146.26663949992508,None,146.26663949992508,None,148.8494456000626,None,148.8494456000626,None,148.8494456000626,None,,,,,,,,,,,133,22,Female,2022-05-31_15h56.56.347,Boat,2022.1.1,59.80764667208058,
positive,neutral,1,l,j,,,,,1,14,32,8,,,,,,,,,,,,,,,,,,,,,,,,,,,,prac,2,2,1,neutral,positive,j,j,1,0.8333712997846305,149.86651480011642,150.89278490003198,150.84877309994772,None,149.86651480011642,None,149.86651480011642,None,149.86651480011642,None,151.68636499000712,None,151.68636499000712,None,151.68636499000712,None,,,,,,,,,,,133,22,Female,2022-05-31_15h56.56.347,Boat,2022.1.1,59.80764667208058,
negative,neutral,1,j,l,,,,,1,15,33,3,,,,,,,,,,,,,,,,,,,,,,,,,,,,prac,1,1,1,neutral,negative,l,l,1,0.7803831999190152,151.70186770008877,152.72473799996078,152.68152059987187,None,151.70186770008877,None,151.70186770008877,None,151.70186770008877,None,153.46952188974245,None,153.46952188974245,None,153.46952188974245,None,,,,,,,,,,,133,22,Female,2022-05-31_15h56.56.347,Boat,2022.1.1,59.80764667208058,
negative,positive,1,j,l,,,,,1,16,34,6,,,,,,,,,,,,,,,,,,,,,,,,,,,,prac,2,2,1,positive,negative,l,l,1,0.6388487000949681,153.486392499879,154.49391820002347,154.47621609969065,None,153.486392499879,None,153.486392499879,None,153.486392499879,None,155.11053638979791,None,155.11053638979791,None,155.11053638979791,None,,,,,,,,,,,133,22,Female,2022-05-31_15h56.56.347,Boat,2022.1.1,59.80764667208058,
positive,negative,2,l,j,,,,,1,17,35,14,,,,,,,,,,,,,,,,,,,,,,,,,,,,prac,1,1,2,negative,positive,j,j,1,1.0891757998615503,155.12891210010275,156.13165450002998,156.11522160004824,None,155.12891210010275,None,155.12891210010275,None,155.12891210010275,None,157.20307418964802,None,157.20307418964802,None,157.20307418964802,None,,,,,,,,,,,133,22,Female,2022-05-31_15h56.56.347,Boat,2022.1.1,59.80764667208058,
,,,,,,,,,,,,,,,,,,,,,,,,,,,,,,,,,,,,,,,,,,,,,,,,,,,,,,,,,,,,,,,,,,157.21468549966812,None,None,,,,,,,,133,22,Female,2022-05-31_15h56.56.347,Boat,2022.1.1,59.80764667208058,
,,,,,,,,,,,,,,,,,,,,,,,,,,,,,,,,,,,,,,,,,,,,,,,,,,,,,,,,,,,,,,,,,,,,,0.15648147,-0.025925925,1,0,0,0.006713989656418562,None,133,22,Female,2022-05-31_15h56.56.347,Boat,2022.1.1,59.80764667208058,
neutral,neutral,2,k,k,,,,,,,,,0,0,0,10,,,,,,,,,,,,,,,,,,,,,,168.86008720006794,None,main,1,1,2,neutral,neutral,k,k,1,0.6713152001611888,170.88391109975055,171.89427309995517,171.8768743998371,None,170.88391109975055,None,170.88391109975055,None,170.88391109975055,None,172.53364028995856,None,172.53364028995856,None,172.53364028995856,None,,,,,,,,,,,133,22,Female,2022-05-31_15h56.56.347,Boat,2022.1.1,59.80764667208058,
positive,neutral,1,l,j,,,,,,,,,0,1,1,8,,,,,,,,,,,,,,,,,,,,,,,,main,2,2,1,neutral,positive,j,j,1,0.7426705001853406,172.55539509980008,173.57518059993163,173.53203189978376,None,172.55539509980008,None,172.55539509980008,None,172.55539509980008,None,174.28158219000323,None,174.28158219000323,None,174.28158219000323,None,,,,,,,,,,,133,22,Female,2022-05-31_15h56.56.347,Boat,2022.1.1,59.80764667208058,
positive,positive,1,l,j,,,,,,,,,0,2,2,2,,,,,,,,,,,,,,,,,,,,,,,,main,1,1,1,positive,positive,j,l,0,0.46026840014383197,174.297100499738,175.30864130007103,175.26552170002833,None,174.297100499738,None,174.297100499738,None,174.297100499738,None,175.74913079990074,None,175.74913079990074,None,175.74913079990074,None,,,,,,,,,,,133,22,Female,2022-05-31_15h56.56.347,Boat,2022.1.1,59.80764667208058,
neutral,neutral,1,k,k,,,,,,,,,0,3,3,1,,,,,,,,,,,,,,,,,,,,,,,,main,2,2,1,neutral,neutral,k,k,1,0.6493478999473155,176.7677988000214,177.78063189983368,177.76160060008988,None,176.7677988000214,None,176.7677988000214,None,176.7677988000214,None,178.40356668997555,None,178.40356668997555,None,178.40356668997555,None,,,,,,,,,,,133,22,Female,2022-05-31_15h56.56.347,Boat,2022.1.1,59.80764667208058,
positive,negative,1,l,j,,,,,,,,,0,4,4,5,,,,,,,,,,,,,,,,,,,,,,,,main,1,1,1,negative,positive,j,j,1,0.4161251001060009,178.41879709996283,179.43284859973937,179.399201199878,None,178.41879709996283,None,178.41879709996283,None,178.41879709996283,None,179.82199269002302,None,179.82199269002302,None,179.82199269002302,None,,,,,,,,,,,133,22,Female,2022-05-31_15h56.56.347,Boat,2022.1.1,59.80764667208058,
negative,negative,2,j,l,,,,,,,,,0,5,5,9,,,,,,,,,,,,,,,,,,,,,,,,main,1,1,2,negative,negative,l,l,1,0.6401006998494267,179.83755660010502,180.858288299758,180.81543050007895,None,179.83755660010502,None,179.83755660010502,None,179.83755660010502,None,181.46590579003094,None,181.46590579003094,None,181.46590579003094,None,,,,,,,,,,,133,22,Female,2022-05-31_15h56.56.347,Boat,2022.1.1,59.80764667208058,
positive,negative,2,l,j,,,,,,,,,0,6,6,14,,,,,,,,,,,,,,,,,,,,,,,,main,1,1,2,negative,positive,j,j,1,0.8377352999523282,181.48072530003265,182.483211199753,182.46457629976794,None,181.48072530003265,None,181.48072530003265,None,181.48072530003265,None,183.30568848997353,None,183.30568848997353,None,183.30568848997353,None,,,,,,,,,,,133,22,Female,2022-05-31_15h56.56.347,Boat,2022.1.1,59.80764667208058,
negative,positive,2,j,l,,,,,,,,,0,7,7,15,,,,,,,,,,,,,,,,,,,,,,,,main,1,1,2,positive,negative,l,l,1,0.7641861997544765,183.3220223998651,184.33225199999288,184.29858900001273,None,183.3220223998651,None,183.3220223998651,None,183.3220223998651,None,185.07249078974127,None,185.07249078974127,None,185.07249078974127,None,,,,,,,,,,,133,22,Female,2022-05-31_15h56.56.347,Boat,2022.1.1,59.80764667208058,
negative,positive,1,j,l,,,,,,,,,0,8,8,6,,,,,,,,,,,,,,,,,,,,,,,,main,2,2,1,positive,negative,l,l,1,0.5672454996965826,185.0895142997615,186.10883049992844,186.06595419999212,None,185.0895142997615,None,185.0895142997615,None,185.0895142997615,None,186.64464008975773,None,186.64464008975773,None,186.64464008975773,None,,,,,,,,,,,133,22,Female,2022-05-31_15h56.56.347,Boat,2022.1.1,59.80764667208058,
positive,neutral,2,l,j,,,,,,,,,0,9,9,17,,,,,,,,,,,,,,,,,,,,,,,,main,2,2,2,neutral,positive,j,j,1,0.568219699896872,186.6590156997554,187.6658168998547,187.6306986999698,None,186.6590156997554,None,186.6590156997554,None,186.6590156997554,None,188.21515128975733,None,188.21515128975733,None,188.21515128975733,None,,,,,,,,,,,133,22,Female,2022-05-31_15h56.56.347,Boat,2022.1.1,59.80764667208058,
neutral,negative,2,k,k,,,,,,,,,0,10,10,16,,,,,,,,,,,,,,,,,,,,,,,,main,2,2,2,negative,neutral,k,k,1,0.5991533999331295,188.23287170007825,189.24567579990253,189.2088585998863,None,188.23287170007825,None,188.23287170007825,None,188.23287170007825,None,189.81636678967624,None,189.81636678967624,None,189.81636678967624,None,,,,,,,,,,,133,22,Female,2022-05-31_15h56.56.347,Boat,2022.1.1,59.80764667208058,
negative,neutral,1,j,l,,,,,,,,,0,11,11,3,,,,,,,,,,,,,,,,,,,,,,,,main,2,2,1,neutral,negative,l,l,1,0.49414729978889227,189.83315909979865,190.8422746998258,190.8156488998793,None,189.83315909979865,None,189.83315909979865,None,189.83315909979865,None,191.31427088966592,None,191.31427088966592,None,191.31427088966592,None,,,,,,,,,,,133,22,Female,2022-05-31_15h56.56.347,Boat,2022.1.1,59.80764667208058,
positive,positive,2,l,j,,,,,,,,,0,12,12,11,,,,,,,,,,,,,,,,,,,,,,,,main,2,2,2,positive,positive,j,j,1,0.6187553000636399,191.3317017997615,192.34372309967875,192.32543190009892,None,191.3317017997615,None,191.3317017997615,None,191.3317017997615,None,192.93627368966116,None,192.93627368966116,None,192.93627368966116,None,,,,,,,,,,,133,22,Female,2022-05-31_15h56.56.347,Boat,2022.1.1,59.80764667208058,
neutral,positive,1,k,k,,,,,,,,,0,13,13,4,,,,,,,,,,,,,,,,,,,,,,,,main,2,2,1,positive,neutral,k,k,1,0.48924290016293526,192.9532007998787,193.96583089977503,193.93226759973913,None,192.9532007998787,None,192.9532007998787,None,192.9532007998787,None,194.428677989915,None,194.428677989915,None,194.428677989915,None,,,,,,,,,,,133,22,Female,2022-05-31_15h56.56.347,Boat,2022.1.1,59.80764667208058,
negative,neutral,2,j,l,,,,,,,,,0,14,14,12,,,,,,,,,,,,,,,,,,,,,,,,main,2,2,2,neutral,negative,l,l,1,0.5066133001819253,194.4460427998565,195.45852610003203,195.4158553997986,None,194.4460427998565,None,194.4460427998565,None,194.4460427998565,None,195.93695818986743,None,195.93695818986743,None,195.93695818986743,None,,,,,,,,,,,133,22,Female,2022-05-31_15h56.56.347,Boat,2022.1.1,59.80764667208058,
negative,negative,1,j,l,,,,,,,,,0,15,15,0,,,,,,,,,,,,,,,,,,,,,,,,main,1,1,1,negative,negative,l,l,1,0.6812725001946092,195.9541823999025,196.96822190005332,196.93320369999856,None,195.9541823999025,None,195.9541823999025,None,195.9541823999025,None,197.62201338987796,None,197.62201338987796,None,197.62201338987796,None,,,,,,,,,,,133,22,Female,2022-05-31_15h56.56.347,Boat,2022.1.1,59.80764667208058,
neutral,negative,1,k,k,,,,,,,,,0,16,16,7,,,,,,,,,,,,,,,,,,,,,,,,main,2,2,1,negative,neutral,k,k,1,0.5812293998897076,197.63745049992576,198.64939019968733,198.63254329981282,None,197.63745049992576,None,197.63745049992576,None,197.63745049992576,None,199.20493679009377,None,199.20493679009377,None,199.20493679009377,None,,,,,,,,,,,133,22,Female,2022-05-31_15h56.56.347,Boat,2022.1.1,59.80764667208058,
neutral,positive,2,k,k,,,,,,,,,0,17,17,13,,,,,,,,,,,,,,,,,,,,,,,,main,2,2,2,positive,neutral,k,k,1,0.5170964999124408,199.22063069976866,200.24214030010626,200.1959345000796,None,199.22063069976866,None,199.22063069976866,None,199.22063069976866,None,200.72469328977166,None,200.72469328977166,None,200.72469328977166,None,,,,,,,,,,,133,22,Female,2022-05-31_15h56.56.347,Boat,2022.1.1,59.80764667208058,
positive,negative,1,l,j,,,,,,,,,1,0,18,5,,,,,,,,,,,,,,,,,,,,,,,,main,1,1,1,negative,positive,j,j,1,0.6920277001336217,200.74263129988685,201.74894500011578,201.7301362999715,None,200.74263129988685,None,200.74263129988685,None,200.74263129988685,None,202.41973819006233,None,202.41973819006233,None,202.41973819006233,None,,,,,,,,,,,133,22,Female,2022-05-31_15h56.56.347,Boat,2022.1.1,59.80764667208058,
positive,negative,2,l,j,,,,,,,,,1,1,19,14,,,,,,,,,,,,,,,,,,,,,,,,main,2,2,2,negative,positive,j,j,1,0.7513001002371311,202.43592990003526,203.44965349975973,203.41458619991317,None,202.43592990003526,None,202.43592990003526,None,202.43592990003526,None,204.1740513898432,None,204.1740513898432,None,204.1740513898432,None,,,,,,,,,,,133,22,Female,2022-05-31_15h56.56.347,Boat,2022.1.1,59.80764667208058,
negative,neutral,1,j,l,,,,,,,,,1,2,20,3,,,,,,,,,,,,,,,,,,,,,,,,main,1,1,1,neutral,negative,l,l,1,0.5455233003012836,204.18995489971712,205.19945299997926,205.18277029972523,None,204.18995489971712,None,204.18995489971712,None,204.18995489971712,None,205.71986648980527,None,205.71986648980527,None,205.71986648980527,None,,,,,,,,,,,133,22,Female,2022-05-31_15h56.56.347,Boat,2022.1.1,59.80764667208058,
positive,positive,1,l,j,,,,,,,,,1,3,21,2,,,,,,,,,,,,,,,,,,,,,,,,main,2,2,1,positive,positive,j,l,0,0.5574165997095406,205.73844720004126,206.75911840004846,206.71629999997094,None,205.73844720004126,None,205.73844720004126,None,205.73844720004126,None,207.28528090007603,None,207.28528090007603,None,207.28528090007603,None,,,,,,,,,,,133,22,Female,2022-05-31_15h56.56.347,Boat,2022.1.1,59.80764667208058,
negative,neutral,2,j,l,,,,,,,,,1,4,22,12,,,,,,,,,,,,,,,,,,,,,,,,main,2,2,2,neutral,negative,l,l,1,0.7528281002305448,208.30227229977027,209.32611039979383,209.28305759979412,None,208.30227229977027,None,208.30227229977027,None,208.30227229977027,None,210.041677790042,None,210.041677790042,None,210.041677790042,None,,,,,,,,,,,133,22,Female,2022-05-31_15h56.56.347,Boat,2022.1.1,59.80764667208058,
negative,negative,2,j,l,,,,,,,,,1,5,23,9,,,,,,,,,,,,,,,,,,,,,,,,main,2,2,2,negative,negative,l,l,1,0.6465479000471532,210.05740399984643,211.0661005997099,211.0294661996886,None,210.05740399984643,None,210.05740399984643,None,210.05740399984643,None,211.69107459001242,None,211.69107459001242,None,211.69107459001242,None,,,,,,,,,,,133,22,Female,2022-05-31_15h56.56.347,Boat,2022.1.1,59.80764667208058,
neutral,positive,2,k,k,,,,,,,,,1,6,24,13,,,,,,,,,,,,,,,,,,,,,,,,main,2,2,2,positive,neutral,k,k,1,0.630935300141573,211.70714689977467,212.72602019971237,212.68299830006436,None,211.70714689977467,None,211.70714689977467,None,211.70714689977467,None,213.3229360899888,None,213.3229360899888,None,213.3229360899888,None,,,,,,,,,,,133,22,Female,2022-05-31_15h56.56.347,Boat,2022.1.1,59.80764667208058,
neutral,neutral,1,k,k,,,,,,,,,1,7,25,1,,,,,,,,,,,,,,,,,,,,,,,,main,1,1,1,neutral,neutral,k,k,1,0.705481699667871,213.3391880998388,214.34416490001604,214.32602869998664,None,213.3391880998388,None,213.3391880998388,None,213.3391880998388,None,215.03287648996337,None,215.03287648996337,None,215.03287648996337,None,,,,,,,,,,,133,22,Female,2022-05-31_15h56.56.347,Boat,2022.1.1,59.80764667208058,
neutral,neutral,2,k,k,,,,,,,,,1,8,26,10,,,,,,,,,,,,,,,,,,,,,,,,main,1,1,2,neutral,neutral,k,k,1,0.5134310000576079,215.0476906998083,216.0494715999812,216.03291729977354,None,215.0476906998083,None,215.0476906998083,None,215.0476906998083,None,216.54942618990316,None,216.54942618990316,None,216.54942618990316,None,,,,,,,,,,,133,22,Female,2022-05-31_15h56.56.347,Boat,2022.1.1,59.80764667208058,
positive,neutral,2,l,j,,,,,,,,,1,9,27,17,,,,,,,,,,,,,,,,,,,,,,,,main,2,2,2,neutral,positive,j,j,1,0.5867046997882426,216.56502599967644,217.5773879000917,217.55953329987824,None,216.56502599967644,None,216.56502599967644,None,216.56502599967644,None,218.13658558977767,None,218.13658558977767,None,218.13658558977767,None,,,,,,,,,,,133,22,Female,2022-05-31_15h56.56.347,Boat,2022.1.1,59.80764667208058,
neutral,negative,1,k,k,,,,,,,,,1,10,28,7,,,,,,,,,,,,,,,,,,,,,,,,main,1,1,1,negative,neutral,k,k,1,1.075067900121212,218.1531203999184,219.17582669993863,219.13318819971755,None,218.1531203999184,None,218.1531203999184,None,218.1531203999184,None,220.21613328978418,None,220.21613328978418,None,220.21613328978418,None,,,,,,,,,,,133,22,Female,2022-05-31_15h56.56.347,Boat,2022.1.1,59.80764667208058,
positive,positive,2,l,j,,,,,,,,,1,11,29,11,,,,,,,,,,,,,,,,,,,,,,,,main,2,2,2,positive,positive,j,j,1,0.4740700996480882,220.23340649995953,221.23304549977183,221.21627119975165,None,220.23340649995953,None,220.23340649995953,None,220.23340649995953,None,221.69421369004993,None,221.69421369004993,None,221.69421369004993,None,,,,,,,,,,,133,22,Female,2022-05-31_15h56.56.347,Boat,2022.1.1,59.80764667208058,
neutral,positive,1,k,k,,,,,,,,,1,12,30,4,,,,,,,,,,,,,,,,,,,,,,,,main,2,2,1,positive,neutral,k,k,1,1.2299740999005735,221.70987039990723,222.72627489967272,222.6829054998234,None,221.70987039990723,None,221.70987039990723,None,221.70987039990723,None,223.92074986007063,None,223.92074986007063,None,223.92074986007063,None,,,,,,,,,,,133,22,Female,2022-05-31_15h56.56.347,Boat,2022.1.1,59.80764667208058,
neutral,negative,2,k,k,,,,,,,,,1,13,31,16,,,,,,,,,,,,,,,,,,,,,,,,main,1,1,2,negative,neutral,k,k,1,0.509961100295186,223.94393990002573,224.95956930005923,224.93287199968472,None,223.94393990002573,None,223.94393990002573,None,223.94393990002573,None,225.43802619008346,None,225.43802619008346,None,225.43802619008346,None,,,,,,,,,,,133,22,Female,2022-05-31_15h56.56.347,Boat,2022.1.1,59.80764667208058,
negative,positive,2,j,l,,,,,,,,,1,14,32,15,,,,,,,,,,,,,,,,,,,,,,,,main,1,1,2,positive,negative,l,l,1,0.581299299839884,225.45610919967294,226.477858599741,226.43455020012334,None,225.45610919967294,None,225.45610919967294,None,225.45610919967294,None,227.0216406898573,None,227.0216406898573,None,227.0216406898573,None,,,,,,,,,,,133,22,Female,2022-05-31_15h56.56.347,Boat,2022.1.1,59.80764667208058,
negative,positive,1,j,l,,,,,,,,,1,15,33,6,,,,,,,,,,,,,,,,,,,,,,,,main,2,2,1,positive,negative,l,l,1,1.1447819001041353,227.03812809986994,228.04887889977545,228.01252199988812,None,227.03812809986994,None,227.03812809986994,None,227.03812809986994,None,229.16927308989688,None,229.16927308989688,None,229.16927308989688,None,,,,,,,,,,,133,22,Female,2022-05-31_15h56.56.347,Boat,2022.1.1,59.80764667208058,
positive,neutral,1,l,j,,,,,,,,,1,16,34,8,,,,,,,,,,,,,,,,,,,,,,,,main,2,2,1,neutral,positive,j,j,1,1.0685534002259374,229.1847536000423,230.19985969970003,230.16361079970375,None,229.1847536000423,None,229.1847536000423,None,229.1847536000423,None,231.2394473900087,None,231.2394473900087,None,231.2394473900087,None,,,,,,,,,,,133,22,Female,2022-05-31_15h56.56.347,Boat,2022.1.1,59.80764667208058,
negative,negative,1,j,l,,,,,,,,,1,17,35,0,,,,,,,,,,,,,,,,,,,,,,,,main,2,2,1,negative,negative,l,l,1,0.7099609998986125,231.2573973000981,232.26616579992697,232.22969269985333,None,231.2573973000981,None,231.2573973000981,None,231.2573973000981,None,232.95256738997995,None,232.95256738997995,None,232.95256738997995,None,,,,,,,,,,,133,22,Female,2022-05-31_15h56.56.347,Boat,2022.1.1,59.80764667208058,
neutral,positive,1,k,k,,,,,,,,,2,0,36,4,,,,,,,,,,,,,,,,,,,,,,,,main,2,2,1,positive,neutral,k,k,1,0.633003399707377,232.96932639973238,233.98317059967667,233.94734079996124,None,232.96932639973238,None,232.96932639973238,None,232.96932639973238,None,234.58795178988947,None,234.58795178988947,None,234.58795178988947,None,,,,,,,,,,,133,22,Female,2022-05-31_15h56.56.347,Boat,2022.1.1,59.80764667208058,
neutral,positive,2,k,k,,,,,,,,,2,1,37,13,,,,,,,,,,,,,,,,,,,,,,,,main,1,1,2,positive,neutral,k,j,0,0.5802382999099791,234.60518739977852,235.62916360003874,235.5832609999925,None,234.60518739977852,None,234.60518739977852,None,234.60518739977852,None,236.17569650011137,None,236.17569650011137,None,236.17569650011137,None,,,,,,,,,,,133,22,Female,2022-05-31_15h56.56.347,Boat,2022.1.1,59.80764667208058,
neutral,neutral,2,k,k,,,,,,,,,2,2,38,10,,,,,,,,,,,,,,,,,,,,,,,,main,2,2,2,neutral,neutral,k,k,1,0.6653505996800959,237.1865265998058,238.2007124996744,238.1669624997303,None,237.1865265998058,None,237.1865265998058,None,237.1865265998058,None,238.83700518989934,None,238.83700518989934,None,238.83700518989934,None,,,,,,,,,,,133,22,Female,2022-05-31_15h56.56.347,Boat,2022.1.1,59.80764667208058,
positive,neutral,2,l,j,,,,,,,,,2,3,39,17,,,,,,,,,,,,,,,,,,,,,,,,main,2,2,2,neutral,positive,j,j,1,1.5968077001161873,238.8529452998191,239.85246839979663,239.835274099838,None,238.8529452998191,None,238.8529452998191,None,238.8529452998191,None,241.4402218000032,None,241.4402218000032,None,241.4402218000032,None,,,,,,,,,,,133,22,Female,2022-05-31_15h56.56.347,Boat,2022.1.1,59.80764667208058,
negative,neutral,2,j,l,,,,,,,,,2,4,40,12,,,,,,,,,,,,,,,,,,,,,,,,main,1,1,2,neutral,negative,l,l,1,0.5654289000667632,242.45146659994498,243.466086700093,243.43003439996392,None,242.45146659994498,None,242.45146659994498,None,242.45146659994498,None,244.0028799900785,None,244.0028799900785,None,244.0028799900785,None,,,,,,,,,,,133,22,Female,2022-05-31_15h56.56.347,Boat,2022.1.1,59.80764667208058,
negative,positive,2,j,l,,,,,,,,,2,5,41,15,,,,,,,,,,,,,,,,,,,,,,,,main,2,2,2,positive,negative,l,l,1,0.7136800000444055,244.02036149986088,245.04356289980933,245.00088409986347,None,244.02036149986088,None,244.02036149986088,None,244.02036149986088,None,245.71980528980492,None,245.71980528980492,None,245.71980528980492,None,,,,,,,,,,,133,22,Female,2022-05-31_15h56.56.347,Boat,2022.1.1,59.80764667208058,
neutral,neutral,1,k,k,,,,,,,,,2,6,42,1,,,,,,,,,,,,,,,,,,,,,,,,main,1,1,1,neutral,neutral,k,k,1,0.5304650999605656,245.73580429982394,246.75999929988757,246.71728079998866,None,245.73580429982394,None,245.73580429982394,None,245.73580429982394,None,247.2533575899899,None,247.2533575899899,None,247.2533575899899,None,,,,,,,,,,,133,22,Female,2022-05-31_15h56.56.347,Boat,2022.1.1,59.80764667208058,
negative,neutral,1,j,l,,,,,,,,,2,7,43,3,,,,,,,,,,,,,,,,,,,,,,,,main,2,2,1,neutral,negative,l,l,1,0.7266583000309765,247.26847249967977,248.27845659991726,248.2598291998729,None,247.26847249967977,None,247.26847249967977,None,247.26847249967977,None,248.9834203899838,None,248.9834203899838,None,248.9834203899838,None,,,,,,,,,,,133,22,Female,2022-05-31_15h56.56.347,Boat,2022.1.1,59.80764667208058,
negative,negative,2,j,l,,,,,,,,,2,8,44,9,,,,,,,,,,,,,,,,,,,,,,,,main,1,1,2,negative,negative,l,l,1,0.6501294998452067,248.99864999996498,250.01020219968632,249.96703389985487,None,248.99864999996498,None,248.99864999996498,None,248.99864999996498,None,250.63548748968168,None,250.63548748968168,None,250.63548748968168,None,,,,,,,,,,,133,22,Female,2022-05-31_15h56.56.347,Boat,2022.1.1,59.80764667208058,
positive,negative,2,l,j,,,,,,,,,2,9,45,14,,,,,,,,,,,,,,,,,,,,,,,,main,1,1,2,negative,positive,j,j,1,0.8013789998367429,250.65065379999578,251.66505960002542,251.62986700003967,None,250.65065379999578,None,250.65065379999578,None,250.65065379999578,None,252.438458389882,None,252.438458389882,None,252.438458389882,None,,,,,,,,,,,133,22,Female,2022-05-31_15h56.56.347,Boat,2022.1.1,59.80764667208058,
negative,negative,1,j,l,,,,,,,,,2,10,46,0,,,,,,,,,,,,,,,,,,,,,,,,main,2,2,1,negative,negative,l,l,1,0.813162200152874,252.4543685996905,253.46783229988068,253.43136420007795,None,252.4543685996905,None,252.4543685996905,None,252.4543685996905,None,254.25483498983084,None,254.25483498983084,None,254.25483498983084,None,,,,,,,,,,,133,22,Female,2022-05-31_15h56.56.347,Boat,2022.1.1,59.80764667208058,
positive,positive,2,l,j,,,,,,,,,2,11,47,11,,,,,,,,,,,,,,,,,,,,,,,,main,1,1,2,positive,positive,j,j,1,0.7754135997965932,254.27106299996376,255.28381799999624,255.25051489984617,None,254.27106299996376,None,254.27106299996376,None,254.27106299996376,None,256.03362988987936,None,256.03362988987936,None,256.03362988987936,None,,,,,,,,,,,133,22,Female,2022-05-31_15h56.56.347,Boat,2022.1.1,59.80764667208058,
positive,negative,1,l,j,,,,,,,,,2,12,48,5,,,,,,,,,,,,,,,,,,,,,,,,main,2,2,1,negative,positive,j,l,0,0.6361374002881348,256.050242099911,257.0630900999531,257.0451254998334,None,256.050242099911,None,256.050242099911,None,256.050242099911,None,257.67561759985983,None,257.67561759985983,None,257.67561759985983,None,,,,,,,,,,,133,22,Female,2022-05-31_15h56.56.347,Boat,2022.1.1,59.80764667208058,
neutral,negative,2,k,k,,,,,,,,,2,13,49,16,,,,,,,,,,,,,,,,,,,,,,,,main,2,2,2,negative,neutral,k,k,1,0.7602742002345622,258.68569569988176,259.70023910002783,259.66310709994286,None,258.68569569988176,None,258.68569569988176,None,258.68569569988176,None,260.4337827896699,None,260.4337827896699,None,260.4337827896699,None,,,,,,,,,,,133,22,Female,2022-05-31_15h56.56.347,Boat,2022.1.1,59.80764667208058,
positive,neutral,1,l,j,,,,,,,,,2,14,50,8,,,,,,,,,,,,,,,,,,,,,,,,main,2,2,1,neutral,positive,j,j,1,0.9904164997860789,260.4499037996866,261.45081079984084,261.4344009999186,None,260.4499037996866,None,260.4499037996866,None,260.4499037996866,None,262.4273819898255,None,262.4273819898255,None,262.4273819898255,None,,,,,,,,,,,133,22,Female,2022-05-31_15h56.56.347,Boat,2022.1.1,59.80764667208058,
neutral,negative,1,k,k,,,,,,,,,2,15,51,7,,,,,,,,,,,,,,,,,,,,,,,,main,1,1,1,negative,neutral,k,k,1,0.5622526998631656,262.4430251996964,263.46057080011815,263.4172271997668,None,262.4430251996964,None,262.4430251996964,None,262.4430251996964,None,263.9906649899669,None,263.9906649899669,None,263.9906649899669,None,,,,,,,,,,,133,22,Female,2022-05-31_15h56.56.347,Boat,2022.1.1,59.80764667208058,
negative,positive,1,j,l,,,,,,,,,2,16,52,6,,,,,,,,,,,,,,,,,,,,,,,,main,2,2,1,positive,negative,l,l,1,0.6820257999934256,264.0082752997987,265.0268584997393,264.9840510999784,None,264.0082752997987,None,264.0082752997987,None,264.0082752997987,None,265.67469088993965,None,265.67469088993965,None,265.67469088993965,None,,,,,,,,,,,133,22,Female,2022-05-31_15h56.56.347,Boat,2022.1.1,59.80764667208058,
positive,positive,1,l,j,,,,,,,,,2,17,53,2,,,,,,,,,,,,,,,,,,,,,,,,main,2,2,1,positive,positive,j,j,1,1.1111222002655268,265.69179240008816,266.71049769967794,266.66764619993046,None,265.69179240008816,None,265.69179240008816,None,265.69179240008816,None,267.78872888982295,None,267.78872888982295,None,267.78872888982295,None,,,,,,,,,,,133,22,Female,2022-05-31_15h56.56.347,Boat,2022.1.1,59.80764667208058,
neutral,negative,2,k,k,,,,,,,,,3,0,54,16,,,,,,,,,,,,,,,,,,,,,,,,main,2,2,2,negative,neutral,k,k,1,0.4963571997359395,267.8042294997722,268.8173066996969,268.78418659977615,None,267.8042294997722,None,267.8042294997722,None,267.8042294997722,None,269.2878663896583,None,269.2878663896583,None,269.2878663896583,None,,,,,,,,,,,133,22,Female,2022-05-31_15h56.56.347,Boat,2022.1.1,59.80764667208058,
positive,neutral,1,l,j,,,,,,,,,3,1,55,8,,,,,,,,,,,,,,,,,,,,,,,,main,1,1,1,neutral,positive,j,j,1,0.6986181000247598,269.303078699857,270.3138656998053,270.2958370000124,None,269.303078699857,None,269.303078699857,None,269.303078699857,None,270.9890015901066,None,270.9890015901066,None,270.9890015901066,None,,,,,,,,,,,133,22,Female,2022-05-31_15h56.56.347,Boat,2022.1.1,59.80764667208058,
neutral,negative,1,k,k,,,,,,,,,3,2,56,7,,,,,,,,,,,,,,,,,,,,,,,,main,2,2,1,negative,neutral,k,k,1,1.4312188001349568,271.0044888998382,272.0291953999549,271.9833116000518,None,271.0044888998382,None,271.0044888998382,None,271.0044888998382,None,273.4222756897099,None,273.4222756897099,None,273.4222756897099,None,,,,,,,,,,,133,22,Female,2022-05-31_15h56.56.347,Boat,2022.1.1,59.80764667208058,
negative,positive,2,j,l,,,,,,,,,3,3,57,15,,,,,,,,,,,,,,,,,,,,,,,,main,1,1,2,positive,negative,l,l,1,0.618601799942553,273.43825430003926,274.4493149998598,274.4125855998136,None,273.43825430003926,None,273.43825430003926,None,273.43825430003926,None,275.04468188975005,None,275.04468188975005,None,275.04468188975005,None,,,,,,,,,,,133,22,Female,2022-05-31_15h56.56.347,Boat,2022.1.1,59.80764667208058,
positive,positive,1,l,j,,,,,,,,,3,4,58,2,,,,,,,,,,,,,,,,,,,,,,,,main,2,2,1,positive,positive,j,j,1,1.1031830003485084,275.0631494997069,276.0811743000522,276.04389690002427,None,275.0631494997069,None,275.0631494997069,None,275.0631494997069,None,277.15100949006154,None,277.15100949006154,None,277.15100949006154,None,,,,,,,,,,,133,22,Female,2022-05-31_15h56.56.347,Boat,2022.1.1,59.80764667208058,
positive,negative,2,l,j,,,,,,,,,3,5,59,14,,,,,,,,,,,,,,,,,,,,,,,,main,1,1,2,negative,positive,j,j,1,0.6684179999865592,277.1675570998341,278.16791449999437,278.1510828998871,None,277.1675570998341,None,277.1675570998341,None,277.1675570998341,None,278.8223776899278,None,278.8223776899278,None,278.8223776899278,None,,,,,,,,,,,133,22,Female,2022-05-31_15h56.56.347,Boat,2022.1.1,59.80764667208058,
positive,neutral,2,l,j,,,,,,,,,3,6,60,17,,,,,,,,,,,,,,,,,,,,,,,,main,2,2,2,neutral,positive,j,j,1,0.6985212001018226,278.8379385001026,279.85046279989183,279.81315909978,None,278.8379385001026,None,278.8379385001026,None,278.8379385001026,None,280.52315728999673,None,280.52315728999673,None,280.52315728999673,None,,,,,,,,,,,133,22,Female,2022-05-31_15h56.56.347,Boat,2022.1.1,59.80764667208058,
neutral,neutral,2,k,k,,,,,,,,,3,7,61,10,,,,,,,,,,,,,,,,,,,,,,,,main,2,2,2,neutral,neutral,k,k,1,0.6193833998404443,280.538960499689,281.5488827000372,281.51244249986485,None,280.538960499689,None,280.538960499689,None,280.538960499689,None,282.1461961900815,None,282.1461961900815,None,282.1461961900815,None,,,,,,,,,,,133,22,Female,2022-05-31_15h56.56.347,Boat,2022.1.1,59.80764667208058,
negative,negative,1,j,l,,,,,,,,,3,8,62,0,,,,,,,,,,,,,,,,,,,,,,,,main,1,1,1,negative,negative,l,l,1,1.2759739002212882,282.16210380010307,283.177453499753,283.1348453001119,None,282.16210380010307,None,282.16210380010307,None,282.16210380010307,None,284.4232492896728,None,284.4232492896728,None,284.4232492896728,None,,,,,,,,,,,133,22,Female,2022-05-31_15h56.56.347,Boat,2022.1.1,59.80764667208058,
neutral,neutral,1,k,k,,,,,,,,,3,9,63,1,,,,,,,,,,,,,,,,,,,,,,,,main,1,1,1,neutral,neutral,k,k,1,0.6002484001219273,284.43808239977807,285.4623438999988,285.41786299971864,None,284.43808239977807,None,284.43808239977807,None,284.43808239977807,None,286.0273659897968,None,286.0273659897968,None,286.0273659897968,None,,,,,,,,,,,133,22,Female,2022-05-31_15h56.56.347,Boat,2022.1.1,59.80764667208058,
positive,positive,2,l,j,,,,,,,,,3,10,64,11,,,,,,,,,,,,,,,,,,,,,,,,main,2,2,2,positive,positive,j,j,1,0.5136835998855531,286.0420476999134,287.0511302999221,287.03471809998155,None,286.0420476999134,None,286.0420476999134,None,286.0420476999134,None,287.54128148993476,None,287.54128148993476,None,287.54128148993476,None,,,,,,,,,,,133,22,Female,2022-05-31_15h56.56.347,Boat,2022.1.1,59.80764667208058,
negative,negative,2,j,l,,,,,,,,,3,11,65,9,,,,,,,,,,,,,,,,,,,,,,,,main,2,2,2,negative,negative,l,l,1,0.6304081999696791,287.55834829993546,288.56419369997457,288.5462609999813,None,287.55834829993546,None,287.55834829993546,None,287.55834829993546,None,289.17609828971325,None,289.17609828971325,None,289.17609828971325,None,,,,,,,,,,,133,22,Female,2022-05-31_15h56.56.347,Boat,2022.1.1,59.80764667208058,
negative,neutral,2,j,l,,,,,,,,,3,12,66,12,,,,,,,,,,,,,,,,,,,,,,,,main,2,2,2,neutral,negative,l,l,1,0.6549955997616053,289.1917604999617,290.1989144999534,290.180392799899,None,289.1917604999617,None,289.1917604999617,None,289.1917604999617,None,290.83260188978164,None,290.83260188978164,None,290.83260188978164,None,,,,,,,,,,,133,22,Female,2022-05-31_15h56.56.347,Boat,2022.1.1,59.80764667208058,
neutral,positive,2,k,k,,,,,,,,,3,13,67,13,,,,,,,,,,,,,,,,,,,,,,,,main,1,1,2,positive,neutral,k,k,1,0.6190664004534483,290.85013699997216,291.8669161000289,291.8304598000832,None,290.85013699997216,None,290.85013699997216,None,290.85013699997216,None,292.45448238989337,None,292.45448238989337,None,292.45448238989337,None,,,,,,,,,,,133,22,Female,2022-05-31_15h56.56.347,Boat,2022.1.1,59.80764667208058,
negative,neutral,1,j,l,,,,,,,,,3,14,68,3,,,,,,,,,,,,,,,,,,,,,,,,main,2,2,1,neutral,negative,l,l,1,0.6272955001331866,292.47006940003484,293.48490469995886,293.4511440000497,None,292.47006940003484,None,292.47006940003484,None,292.47006940003484,None,294.0846130897291,None,294.0846130897291,None,294.0846130897291,None,,,,,,,,,,,133,22,Female,2022-05-31_15h56.56.347,Boat,2022.1.1,59.80764667208058,
positive,negative,1,l,j,,,,,,,,,3,15,69,5,,,,,,,,,,,,,,,,,,,,,,,,main,2,2,1,negative,positive,j,j,1,0.6528334999457002,294.10211890004575,295.11793070007116,295.083200099878,None,294.10211890004575,None,294.10211890004575,None,294.10211890004575,None,295.7399391897954,None,295.7399391897954,None,295.7399391897954,None,,,,,,,,,,,133,22,Female,2022-05-31_15h56.56.347,Boat,2022.1.1,59.80764667208058,
negative,positive,1,j,l,,,,,,,,,3,16,70,6,,,,,,,,,,,,,,,,,,,,,,,,main,2,2,1,positive,negative,l,l,1,0.6949609001167119,295.7568540000357,296.77940939972177,296.7349127996713,None,295.7568540000357,None,295.7568540000357,None,295.7568540000357,None,297.437130489666,None,297.437130489666,None,297.437130489666,None,,,,,,,,,,,133,22,Female,2022-05-31_15h56.56.347,Boat,2022.1.1,59.80764667208058,
neutral,positive,1,k,k,,,,,,,,,3,17,71,4,,,,,,,,,,,,,,,,,,,,,,,,main,1,1,1,positive,neutral,k,k,1,0.7847866001538932,297.453069599811,298.4682634999044,298.43368359981105,None,297.453069599811,None,297.453069599811,None,297.453069599811,None,299.2260135899298,None,299.2260135899298,None,299.2260135899298,None,,,,,,,,,,,133,22,Female,2022-05-31_15h56.56.347,Boat,2022.1.1,59.80764667208058,
negative,negative,2,j,l,,,,,,,,,4,0,72,9,,,,,,,,,,,,,,,,,,,,,,,,main,2,2,2,negative,negative,l,l,1,0.7800588002428412,299.2416572999209,300.2513109999709,300.2347507998347,None,299.2416572999209,None,299.2416572999209,None,299.2416572999209,None,301.0071743897162,None,301.0071743897162,None,301.0071743897162,None,,,,,,,,,,,133,22,Female,2022-05-31_15h56.56.347,Boat,2022.1.1,59.80764667208058,
negative,positive,1,j,l,,,,,,,,,4,1,73,6,,,,,,,,,,,,,,,,,,,,,,,,main,2,2,1,positive,negative,l,l,1,0.5739981001242995,301.0238720998168,302.0458964998834,302.00239360006526,None,301.0238720998168,None,301.0238720998168,None,301.0238720998168,None,302.58485668972133,None,302.58485668972133,None,302.58485668972133,None,,,,,,,,,,,133,22,Female,2022-05-31_15h56.56.347,Boat,2022.1.1,59.80764667208058,
negative,neutral,1,j,l,,,,,,,,,4,2,74,3,,,,,,,,,,,,,,,,,,,,,,,,main,2,2,1,neutral,negative,l,l,1,0.7877746000885963,302.6021556998603,303.6186341997236,303.5817847000435,None,302.6021556998603,None,302.6021556998603,None,302.6021556998603,None,304.3739882896654,None,304.3739882896654,None,304.3739882896654,None,,,,,,,,,,,133,22,Female,2022-05-31_15h56.56.347,Boat,2022.1.1,59.80764667208058,
neutral,neutral,2,k,k,,,,,,,,,4,3,75,10,,,,,,,,,,,,,,,,,,,,,,,,main,1,1,2,neutral,neutral,k,k,1,0.6426854003220797,304.3896602001041,305.41266759997234,305.36865679966286,None,304.3896602001041,None,304.3896602001041,None,304.3896602001041,None,306.01989189004524,None,306.01989189004524,None,306.01989189004524,None,,,,,,,,,,,133,22,Female,2022-05-31_15h56.56.347,Boat,2022.1.1,59.80764667208058,
positive,positive,1,l,j,,,,,,,,,4,4,76,2,,,,,,,,,,,,,,,,,,,,,,,,main,2,2,1,positive,positive,j,l,0,0.6336012999527156,306.03533579967916,307.0493087996729,307.0130574000068,None,306.03533579967916,None,306.03533579967916,None,306.03533579967916,None,307.6593180000782,None,307.6593180000782,None,307.6593180000782,None,,,,,,,,,,,133,22,Female,2022-05-31_15h56.56.347,Boat,2022.1.1,59.80764667208058,
positive,negative,1,l,j,,,,,,,,,4,5,77,5,,,,,,,,,,,,,,,,,,,,,,,,main,2,2,1,negative,positive,j,j,1,0.6266851997934282,308.66972839972004,309.69474799977615,309.65157929994166,None,308.66972839972004,None,308.66972839972004,None,308.66972839972004,None,310.2842792899348,None,310.2842792899348,None,310.2842792899348,None,,,,,,,,,,,133,22,Female,2022-05-31_15h56.56.347,Boat,2022.1.1,59.80764667208058,
neutral,positive,1,k,k,,,,,,,,,4,6,78,4,,,,,,,,,,,,,,,,,,,,,,,,main,2,2,1,positive,neutral,k,k,1,0.76967340009287,310.30210250010714,311.3017671997659,311.2848400999792,None,310.30210250010714,None,310.30210250010714,None,310.30210250010714,None,312.05622958978637,None,312.05622958978637,None,312.05622958978637,None,,,,,,,,,,,133,22,Female,2022-05-31_15h56.56.347,Boat,2022.1.1,59.80764667208058,
positive,negative,2,l,j,,,,,,,,,4,7,79,14,,,,,,,,,,,,,,,,,,,,,,,,main,1,1,2,negative,positive,j,j,1,0.741055800113827,312.0731146996841,313.08359969966114,313.0473564998247,None,312.0731146996841,None,312.0731146996841,None,312.0731146996841,None,313.8025636899285,None,313.8025636899285,None,313.8025636899285,None,,,,,,,,,,,133,22,Female,2022-05-31_15h56.56.347,Boat,2022.1.1,59.80764667208058,
negative,neutral,2,j,l,,,,,,,,,4,8,80,12,,,,,,,,,,,,,,,,,,,,,,,,main,2,2,2,neutral,negative,l,l,1,0.7436763998121023,313.8183137997985,314.8284180997871,314.80354709969833,None,313.8183137997985,None,313.8183137997985,None,313.8183137997985,None,315.54846468968316,None,315.54846468968316,None,315.54846468968316,None,,,,,,,,,,,133,22,Female,2022-05-31_15h56.56.347,Boat,2022.1.1,59.80764667208058,
neutral,negative,1,k,k,,,,,,,,,4,9,81,7,,,,,,,,,,,,,,,,,,,,,,,,main,1,1,1,negative,neutral,k,k,1,0.7767293998040259,315.56915450003,316.5843094997108,316.5480331000872,None,315.56915450003,None,315.56915450003,None,315.56915450003,None,317.3281794901006,None,317.3281794901006,None,317.3281794901006,None,,,,,,,,,,,133,22,Female,2022-05-31_15h56.56.347,Boat,2022.1.1,59.80764667208058,
neutral,positive,2,k,k,,,,,,,,,4,10,82,13,,,,,,,,,,,,,,,,,,,,,,,,main,1,1,2,positive,neutral,k,k,1,1.2965348004363477,317.34331389982253,318.3638868997805,318.3183527998626,None,317.34331389982253,None,317.34331389982253,None,317.34331389982253,None,319.6258968899958,None,319.6258968899958,None,319.6258968899958,None,,,,,,,,,,,133,22,Female,2022-05-31_15h56.56.347,Boat,2022.1.1,59.80764667208058,
negative,positive,2,j,l,,,,,,,,,4,11,83,15,,,,,,,,,,,,,,,,,,,,,,,,main,1,1,2,positive,negative,l,l,1,0.6723052999004722,319.64230189984664,320.6470972998068,320.62830360000953,None,319.64230189984664,None,319.64230189984664,None,319.64230189984664,None,321.3020185900852,None,321.3020185900852,None,321.3020185900852,None,,,,,,,,,,,133,22,Female,2022-05-31_15h56.56.347,Boat,2022.1.1,59.80764667208058,
positive,neutral,2,l,j,,,,,,,,,4,12,84,17,,,,,,,,,,,,,,,,,,,,,,,,main,2,2,2,neutral,positive,j,j,1,1.2038683998398483,321.3181527997367,322.33002439979464,322.31189849972725,None,321.3181527997367,None,321.3181527997367,None,321.3181527997367,None,323.5082361896522,None,323.5082361896522,None,323.5082361896522,None,,,,,,,,,,,133,22,Female,2022-05-31_15h56.56.347,Boat,2022.1.1,59.80764667208058,
positive,neutral,1,l,j,,,,,,,,,4,13,85,8,,,,,,,,,,,,,,,,,,,,,,,,main,2,2,1,neutral,positive,j,j,1,0.8477183999493718,323.5238073999062,324.53543519973755,324.49705339968204,None,323.5238073999062,None,323.5238073999062,None,323.5238073999062,None,325.3564532900229,None,325.3564532900229,None,325.3564532900229,None,,,,,,,,,,,133,22,Female,2022-05-31_15h56.56.347,Boat,2022.1.1,59.80764667208058,
positive,positive,2,l,j,,,,,,,,,4,14,86,11,,,,,,,,,,,,,,,,,,,,,,,,main,2,2,2,positive,positive,j,j,1,1.1479774001054466,325.37443610001355,326.37617939990014,326.35787319997326,None,325.37443610001355,None,325.37443610001355,None,325.37443610001355,None,327.5095700899139,None,327.5095700899139,None,327.5095700899139,None,,,,,,,,,,,133,22,Female,2022-05-31_15h56.56.347,Boat,2022.1.1,59.80764667208058,
neutral,negative,2,k,k,,,,,,,,,4,15,87,16,,,,,,,,,,,,,,,,,,,,,,,,main,2,2,2,negative,neutral,k,k,1,0.6218477003276348,327.5262742997147,328.5336492001079,328.4977780999616,None,327.5262742997147,None,327.5262742997147,None,327.5262742997147,None,329.1297934900969,None,329.1297934900969,None,329.1297934900969,None,,,,,,,,,,,133,22,Female,2022-05-31_15h56.56.347,Boat,2022.1.1,59.80764667208058,
neutral,neutral,1,k,k,,,,,,,,,4,16,88,1,,,,,,,,,,,,,,,,,,,,,,,,main,1,1,1,neutral,neutral,k,k,1,1.3396975002251565,329.15510779991746,330.1645573996939,330.1470237998292,None,329.15510779991746,None,329.15510779991746,None,329.15510779991746,None,331.47563848998396,None,331.47563848998396,None,331.47563848998396,None,,,,,,,,,,,133,22,Female,2022-05-31_15h56.56.347,Boat,2022.1.1,59.80764667208058,
negative,negative,1,j,l,,,,,,,,,4,17,89,0,,,,,,,,,,,,,,,,,,,,,,,,main,2,2,1,negative,negative,l,l,1,0.9141691997647285,331.4937156997621,332.51005719974637,332.4812394999899,None,331.4937156997621,None,331.4937156997621,None,331.4937156997621,None,333.3987418800592,None,333.3987418800592,None,333.3987418800592,None,,,,,,,,,,,133,22,Female,2022-05-31_15h56.56.347,Boat,2022.1.1,59.80764667208058,
positive,negative,1,l,j,,,,,,,,,5,0,90,5,,,,,,,,,,,,,,,,,,,,,,,,main,2,2,1,negative,positive,j,j,1,0.7262043999508023,333.4407774996944,334.46148950001225,334.4309429996647,None,333.4407774996944,None,333.4407774996944,None,333.4407774996944,None,335.12646808968856,None,335.12646808968856,None,335.12646808968856,None,,,,,,,,,,,133,22,Female,2022-05-31_15h56.56.347,Boat,2022.1.1,59.80764667208058,
negative,neutral,2,j,l,,,,,,,,,5,1,91,12,,,,,,,,,,,,,,,,,,,,,,,,main,2,2,2,neutral,negative,l,l,1,0.7524764998815954,335.1498048999347,336.15203409967944,336.1321606999263,None,335.1498048999347,None,335.1498048999347,None,335.1498048999347,None,336.88824827978385,None,336.88824827978385,None,336.88824827978385,None,,,,,,,,,,,133,22,Female,2022-05-31_15h56.56.347,Boat,2022.1.1,59.80764667208058,
neutral,neutral,1,k,k,,,,,,,,,5,2,92,1,,,,,,,,,,,,,,,,,,,,,,,,main,1,1,1,neutral,neutral,k,k,1,0.6860584001988173,336.9286464001052,337.94019859982654,337.90218270011246,None,336.9286464001052,None,336.9286464001052,None,336.9286464001052,None,338.5746976898983,None,338.5746976898983,None,338.5746976898983,None,,,,,,,,,,,133,22,Female,2022-05-31_15h56.56.347,Boat,2022.1.1,59.80764667208058,
positive,neutral,2,l,j,,,,,,,,,5,3,93,17,,,,,,,,,,,,,,,,,,,,,,,,main,2,2,2,neutral,positive,j,j,1,0.988601999823004,338.5952304000966,339.6011604000814,339.5821405998431,None,338.5952304000966,None,338.5952304000966,None,338.5952304000966,None,340.5687640898861,None,340.5687640898861,None,340.5687640898861,None,,,,,,,,,,,133,22,Female,2022-05-31_15h56.56.347,Boat,2022.1.1,59.80764667208058,
positive,neutral,1,l,j,,,,,,,,,5,4,94,8,,,,,,,,,,,,,,,,,,,,,,,,main,1,1,1,neutral,positive,j,l,0,0.6532109002582729,340.5858720000833,341.58618550002575,341.5691426997073,None,340.5858720000833,None,340.5858720000833,None,340.5858720000833,None,342.22849449981004,None,342.22849449981004,None,342.22849449981004,None,,,,,,,,,,,133,22,Female,2022-05-31_15h56.56.347,Boat,2022.1.1,59.80764667208058,
neutral,positive,1,k,k,,,,,,,,,5,5,95,4,,,,,,,,,,,,,,,,,,,,,,,,main,1,1,1,positive,neutral,k,k,1,2.084108100272715,343.2381808999926,344.25254869973287,344.21550490008667,None,343.2381808999926,None,343.2381808999926,None,343.2381808999926,None,346.31216019997373,None,346.31216019997373,None,346.31216019997373,None,,,,,,,,,,,133,22,Female,2022-05-31_15h56.56.347,Boat,2022.1.1,59.80764667208058,
negative,positive,2,j,l,,,,,,,,,5,6,96,15,,,,,,,,,,,,,,,,,,,,,,,,main,1,1,2,positive,negative,l,l,1,0.85100660007447,347.32255439972505,348.33524890011176,348.2991911000572,None,347.32255439972505,None,347.32255439972505,None,347.32255439972505,None,349.15821098983287,None,349.15821098983287,None,349.15821098983287,None,,,,,,,,,,,133,22,Female,2022-05-31_15h56.56.347,Boat,2022.1.1,59.80764667208058,
neutral,neutral,2,k,k,,,,,,,,,5,7,97,10,,,,,,,,,,,,,,,,,,,,,,,,main,2,2,2,neutral,neutral,k,k,1,1.1503024999983609,349.1741357999854,350.19727039989084,350.15246760006994,None,349.1741357999854,None,349.1741357999854,None,349.1741357999854,None,351.3123459897935,None,351.3123459897935,None,351.3123459897935,None,,,,,,,,,,,133,22,Female,2022-05-31_15h56.56.347,Boat,2022.1.1,59.80764667208058,
negative,positive,1,j,l,,,,,,,,,5,8,98,6,,,,,,,,,,,,,,,,,,,,,,,,main,2,2,1,positive,negative,l,l,1,0.6703150998800993,351.3286395999603,352.33759950008243,352.3037466998212,None,351.3286395999603,None,351.3286395999603,None,351.3286395999603,None,352.98588688978924,None,352.98588688978924,None,352.98588688978924,None,,,,,,,,,,,133,22,Female,2022-05-31_15h56.56.347,Boat,2022.1.1,59.80764667208058,
neutral,positive,2,k,k,,,,,,,,,5,9,99,13,,,,,,,,,,,,,,,,,,,,,,,,main,1,1,2,positive,neutral,k,k,1,0.6138360002078116,352.99989009974524,354.01362879993394,353.9952941997908,None,352.99989009974524,None,352.99989009974524,None,352.99989009974524,None,354.60281778993084,None,354.60281778993084,None,354.60281778993084,None,,,,,,,,,,,133,22,Female,2022-05-31_15h56.56.347,Boat,2022.1.1,59.80764667208058,
negative,neutral,1,j,l,,,,,,,,,5,10,100,3,,,,,,,,,,,,,,,,,,,,,,,,main,1,1,1,neutral,negative,l,l,1,0.6704445998184383,354.61754080001265,355.62138570006937,355.60260319989175,None,354.61754080001265,None,354.61754080001265,None,354.61754080001265,None,356.2726830898784,None,356.2726830898784,None,356.2726830898784,None,,,,,,,,,,,133,22,Female,2022-05-31_15h56.56.347,Boat,2022.1.1,59.80764667208058,
positive,negative,2,l,j,,,,,,,,,5,11,101,14,,,,,,,,,,,,,,,,,,,,,,,,main,2,2,2,negative,positive,j,j,1,0.7124351998791099,356.2953468998894,357.30217280006036,357.2840740997344,None,356.2953468998894,None,356.2953468998894,None,356.2953468998894,None,357.9907681898214,None,357.9907681898214,None,357.9907681898214,None,,,,,,,,,,,133,22,Female,2022-05-31_15h56.56.347,Boat,2022.1.1,59.80764667208058,
negative,negative,1,j,l,,,,,,,,,5,12,102,0,,,,,,,,,,,,,,,,,,,,,,,,main,1,1,1,negative,negative,l,l,1,1.2847426999360323,358.00514520006254,359.02927820011973,358.9860612000339,None,358.00514520006254,None,358.00514520006254,None,358.00514520006254,None,360.27630698988213,None,360.27630698988213,None,360.27630698988213,None,,,,,,,,,,,133,22,Female,2022-05-31_15h56.56.347,Boat,2022.1.1,59.80764667208058,
positive,positive,2,l,j,,,,,,,,,5,13,103,11,,,,,,,,,,,,,,,,,,,,,,,,main,1,1,2,positive,positive,j,j,1,0.6722273002378643,360.29290799982846,361.29857990005985,361.2808576999232,None,360.29290799982846,None,360.29290799982846,None,360.29290799982846,None,361.95236728973686,None,361.95236728973686,None,361.95236728973686,None,,,,,,,,,,,133,22,Female,2022-05-31_15h56.56.347,Boat,2022.1.1,59.80764667208058,
neutral,negative,2,k,k,,,,,,,,,5,14,104,16,,,,,,,,,,,,,,,,,,,,,,,,main,2,2,2,negative,neutral,k,k,1,1.0283595998771489,361.9708281997591,362.99592910008505,362.9528202000074,None,361.9708281997591,None,361.9708281997591,None,361.9708281997591,None,363.98512468980624,None,363.98512468980624,None,363.98512468980624,None,,,,,,,,,,,133,22,Female,2022-05-31_15h56.56.347,Boat,2022.1.1,59.80764667208058,
neutral,negative,1,k,k,,,,,,,,,5,15,105,7,,,,,,,,,,,,,,,,,,,,,,,,main,2,2,1,negative,neutral,k,k,1,1.7909897002391517,364.00337389996275,365.01441829977557,364.9692297996953,None,364.00337389996275,None,364.00337389996275,None,364.00337389996275,None,366.7846621000208,None,366.7846621000208,None,366.7846621000208,None,,,,,,,,,,,133,22,Female,2022-05-31_15h56.56.347,Boat,2022.1.1,59.80764667208058,
positive,positive,1,l,j,,,,,,,,,5,16,106,2,,,,,,,,,,,,,,,,,,,,,,,,main,2,2,1,positive,positive,j,j,1,1.2495426000095904,367.8060353999026,368.8164198999293,368.79805290000513,None,367.8060353999026,None,367.8060353999026,None,367.8060353999026,None,370.04085968974977,None,370.04085968974977,None,370.04085968974977,None,,,,,,,,,,,133,22,Female,2022-05-31_15h56.56.347,Boat,2022.1.1,59.80764667208058,
negative,negative,2,j,l,,,,,,,,,5,17,107,9,,,,,,,,,,,,,,,,,,,,,,,,main,1,1,2,negative,negative,l,l,1,0.5656347000040114,370.05641839979216,371.06960269995034,371.0339103997685,None,370.05641839979216,None,370.05641839979216,None,370.05641839979216,None,371.6088013898581,None,371.6088013898581,None,371.6088013898581,None,,,,,,,,,,,133,22,Female,2022-05-31_15h56.56.347,Boat,2022.1.1,59.80764667208058,
neutral,positive,1,k,k,,,,,,,,,6,0,108,4,,,,,,,,,,,,,,,,,,,,,,,,main,1,1,1,positive,neutral,k,k,1,0.544866300188005,371.6253649997525,372.63487929990515,372.59899909980595,None,371.6253649997525,None,371.6253649997525,None,371.6253649997525,None,373.15630938978865,None,373.15630938978865,None,373.15630938978865,None,,,,,,,,,,,133,22,Female,2022-05-31_15h56.56.347,Boat,2022.1.1,59.80764667208058,
negative,positive,2,j,l,,,,,,,,,6,1,109,15,,,,,,,,,,,,,,,,,,,,,,,,main,2,2,2,positive,negative,l,l,1,1.9491534000262618,373.17198069998994,374.1810057000257,374.1627273000777,None,373.17198069998994,None,373.17198069998994,None,373.17198069998994,None,376.11226039985195,None,376.11226039985195,None,376.11226039985195,None,,,,,,,,,,,133,22,Female,2022-05-31_15h56.56.347,Boat,2022.1.1,59.80764667208058,
neutral,negative,2,k,k,,,,,,,,,6,2,110,16,,,,,,,,,,,,,,,,,,,,,,,,main,2,2,2,negative,neutral,k,k,1,0.7685341001488268,377.1205091997981,378.1314987000078,378.1130908001214,None,377.1205091997981,None,377.1205091997981,None,377.1205091997981,None,378.87617318965493,None,378.87617318965493,None,378.87617318965493,None,,,,,,,,,,,133,22,Female,2022-05-31_15h56.56.347,Boat,2022.1.1,59.80764667208058,
negative,neutral,1,j,l,,,,,,,,,6,3,111,3,,,,,,,,,,,,,,,,,,,,,,,,main,2,2,1,neutral,negative,l,l,1,1.1956600002013147,378.89214899996296,379.9031710997224,379.86794700007886,None,378.89214899996296,None,378.89214899996296,None,378.89214899996296,None,381.0743237899616,None,381.0743237899616,None,381.0743237899616,None,,,,,,,,,,,133,22,Female,2022-05-31_15h56.56.347,Boat,2022.1.1,59.80764667208058,
positive,positive,1,l,j,,,,,,,,,6,4,112,2,,,,,,,,,,,,,,,,,,,,,,,,main,2,2,1,positive,positive,j,j,1,0.8121245000511408,381.09032139973715,382.10196559969336,382.06592720001936,None,381.09032139973715,None,381.09032139973715,None,381.09032139973715,None,382.8893561896868,None,382.8893561896868,None,382.8893561896868,None,,,,,,,,,,,133,22,Female,2022-05-31_15h56.56.347,Boat,2022.1.1,59.80764667208058,
negative,negative,1,j,l,,,,,,,,,6,5,113,0,,,,,,,,,,,,,,,,,,,,,,,,main,2,2,1,negative,negative,l,l,1,0.9047010997310281,382.9047101000324,383.92001379979774,383.8855031998828,None,382.9047101000324,None,382.9047101000324,None,382.9047101000324,None,384.7966816898435,None,384.7966816898435,None,384.7966816898435,None,,,,,,,,,,,133,22,Female,2022-05-31_15h56.56.347,Boat,2022.1.1,59.80764667208058,
positive,neutral,2,l,j,,,,,,,,,6,6,114,17,,,,,,,,,,,,,,,,,,,,,,,,main,1,1,2,neutral,positive,j,k,0,1.4112215996719897,384.81305939983577,385.8202161998488,385.78409609990194,None,384.81305939983577,None,384.81305939983577,None,384.81305939983577,None,387.2135911998339,None,387.2135911998339,None,387.2135911998339,None,,,,,,,,,,,133,22,Female,2022-05-31_15h56.56.347,Boat,2022.1.1,59.80764667208058,
neutral,negative,1,k,k,,,,,,,,,6,7,115,7,,,,,,,,,,,,,,,,,,,,,,,,main,1,1,1,negative,neutral,k,k,1,0.683532000053674,388.2212966000661,389.2463189000264,389.20348779996857,None,388.2212966000661,None,388.2212966000661,None,388.2212966000661,None,389.89191139005123,None,389.89191139005123,None,389.89191139005123,None,,,,,,,,,,,133,22,Female,2022-05-31_15h56.56.347,Boat,2022.1.1,59.80764667208058,
positive,negative,2,l,j,,,,,,,,,6,8,116,14,,,,,,,,,,,,,,,,,,,,,,,,main,1,1,2,negative,positive,j,j,1,1.3107225000858307,389.9074045997113,390.93016389990225,390.8850324000232,None,389.9074045997113,None,389.9074045997113,None,389.9074045997113,None,392.20566948996856,None,392.20566948996856,None,392.20566948996856,None,,,,,,,,,,,133,22,Female,2022-05-31_15h56.56.347,Boat,2022.1.1,59.80764667208058,
neutral,neutral,1,k,k,,,,,,,,,6,9,117,1,,,,,,,,,,,,,,,,,,,,,,,,main,1,1,1,neutral,neutral,k,l,0,1.1359303002245724,392.2205591998063,393.2312766998075,393.2129974998534,None,392.2205591998063,None,392.2205591998063,None,392.2205591998063,None,394.35019710008055,None,394.35019710008055,None,394.35019710008055,None,,,,,,,,,,,133,22,Female,2022-05-31_15h56.56.347,Boat,2022.1.1,59.80764667208058,
negative,neutral,2,j,l,,,,,,,,,6,10,118,12,,,,,,,,,,,,,,,,,,,,,,,,main,2,2,2,neutral,negative,l,l,1,0.5972539000213146,395.3725858000107,396.3981876000762,396.3533491999842,None,395.3725858000107,None,395.3725858000107,None,395.3725858000107,None,396.9557003898546,None,396.9557003898546,None,396.9557003898546,None,,,,,,,,,,,133,22,Female,2022-05-31_15h56.56.347,Boat,2022.1.1,59.80764667208058,
positive,positive,2,l,j,,,,,,,,,6,11,119,11,,,,,,,,,,,,,,,,,,,,,,,,main,2,2,2,positive,positive,j,j,1,0.6277339002117515,396.97127200011164,397.98186879977584,397.9634622996673,None,396.97127200011164,None,396.97127200011164,None,396.97127200011164,None,398.5871372900903,None,398.5871372900903,None,398.5871372900903,None,,,,,,,,,,,133,22,Female,2022-05-31_15h56.56.347,Boat,2022.1.1,59.80764667208058,
positive,neutral,1,l,j,,,,,,,,,6,12,120,8,,,,,,,,,,,,,,,,,,,,,,,,main,1,1,1,neutral,positive,j,j,1,0.8854445996694267,398.603027400095,399.60348029993474,399.5863200998865,None,398.603027400095,None,398.603027400095,None,398.603027400095,None,400.4749227900058,None,400.4749227900058,None,400.4749227900058,None,,,,,,,,,,,133,22,Female,2022-05-31_15h56.56.347,Boat,2022.1.1,59.80764667208058,
neutral,neutral,2,k,k,,,,,,,,,6,13,121,10,,,,,,,,,,,,,,,,,,,,,,,,main,1,1,2,neutral,neutral,k,k,1,0.9982447996735573,400.4901998001151,401.4982924996875,401.4801282999106,None,400.4901998001151,None,400.4901998001151,None,400.4901998001151,None,402.47543478971346,None,402.47543478971346,None,402.47543478971346,None,,,,,,,,,,,133,22,Female,2022-05-31_15h56.56.347,Boat,2022.1.1,59.80764667208058,
negative,positive,1,j,l,,,,,,,,,6,14,122,6,,,,,,,,,,,,,,,,,,,,,,,,main,2,2,1,positive,negative,l,l,1,2.0081720002926886,402.4904001997784,403.49985149968415,403.48201549984515,None,402.4904001997784,None,402.4904001997784,None,402.4904001997784,None,405.49038610002026,None,405.49038610002026,None,405.49038610002026,None,,,,,,,,,,,133,22,Female,2022-05-31_15h56.56.347,Boat,2022.1.1,59.80764667208058,
neutral,positive,2,k,k,,,,,,,,,6,15,123,13,,,,,,,,,,,,,,,,,,,,,,,,main,1,1,2,positive,neutral,k,k,1,1.5489489999599755,406.5051478999667,407.5039451997727,407.4874933999963,None,406.5051478999667,None,406.5051478999667,None,406.5051478999667,None,409.04238849971443,None,409.04238849971443,None,409.04238849971443,None,,,,,,,,,,,133,22,Female,2022-05-31_15h56.56.347,Boat,2022.1.1,59.80764667208058,
negative,negative,2,j,l,,,,,,,,,6,16,124,9,,,,,,,,,,,,,,,,,,,,,,,,main,2,2,2,negative,negative,l,l,1,1.0283559001982212,410.05550229968503,411.08024249970913,411.0370819000527,None,410.05550229968503,None,410.05550229968503,None,410.05550229968503,None,412.0704149900004,None,412.0704149900004,None,412.0704149900004,None,,,,,,,,,,,133,22,Female,2022-05-31_15h56.56.347,Boat,2022.1.1,59.80764667208058,
positive,negative,1,l,j,,,,,,,,,6,17,125,5,,,,,,,,,,,,,,,,,,,,,,,,main,1,1,1,negative,positive,j,j,1,0.5882649002596736,412.087441300042,413.10446400009096,413.0673607997596,None,412.087441300042,None,412.087441300042,None,412.087441300042,None,413.66328548993914,None,413.66328548993914,None,413.66328548993914,None,,,,,,,,,,,133,22,Female,2022-05-31_15h56.56.347,Boat,2022.1.1,59.80764667208058,
negative,positive,1,j,l,,,,,,,,,7,0,126,6,,,,,,,,,,,,,,,,,,,,,,,,main,1,1,1,positive,negative,l,l,1,0.6799126998521388,413.68342279968783,414.68763389997184,414.669087999966,None,413.68342279968783,None,413.68342279968783,None,413.68342279968783,None,415.34561478979884,None,415.34561478979884,None,415.34561478979884,None,,,,,,,,,,,133,22,Female,2022-05-31_15h56.56.347,Boat,2022.1.1,59.80764667208058,
positive,positive,1,l,j,,,,,,,,,7,1,127,2,,,,,,,,,,,,,,,,,,,,,,,,main,2,2,1,positive,positive,j,j,1,1.5443363999947906,415.3627217998728,416.38053169986233,416.3373388997279,None,415.3627217998728,None,415.3627217998728,None,415.3627217998728,None,417.89470859989524,None,417.89470859989524,None,417.89470859989524,None,,,,,,,,,,,133,22,Female,2022-05-31_15h56.56.347,Boat,2022.1.1,59.80764667208058,
positive,negative,2,l,j,,,,,,,,,7,2,128,14,,,,,,,,,,,,,,,,,,,,,,,,main,1,1,2,negative,positive,j,j,1,0.5848858002573252,418.9054278000258,419.9307315996848,419.88444119971246,None,418.9054278000258,None,418.9054278000258,None,418.9054278000258,None,420.4766820900142,None,420.4766820900142,None,420.4766820900142,None,,,,,,,,,,,133,22,Female,2022-05-31_15h56.56.347,Boat,2022.1.1,59.80764667208058,
neutral,neutral,2,k,k,,,,,,,,,7,3,129,10,,,,,,,,,,,,,,,,,,,,,,,,main,1,1,2,neutral,neutral,k,k,1,0.564408200327307,420.49309400003403,421.500587800052,421.4825353999622,None,420.49309400003403,None,420.49309400003403,None,420.49309400003403,None,422.04544599009677,None,422.04544599009677,None,422.04544599009677,None,,,,,,,,,,,133,22,Female,2022-05-31_15h56.56.347,Boat,2022.1.1,59.80764667208058,
neutral,neutral,1,k,k,,,,,,,,,7,4,130,1,,,,,,,,,,,,,,,,,,,,,,,,main,2,2,1,neutral,neutral,k,k,1,0.5632527000270784,422.0612995000556,423.0709517998621,423.05397980008274,None,422.0612995000556,None,422.0612995000556,None,422.0612995000556,None,423.6096910897642,None,423.6096910897642,None,423.6096910897642,None,,,,,,,,,,,133,22,Female,2022-05-31_15h56.56.347,Boat,2022.1.1,59.80764667208058,
positive,neutral,1,l,j,,,,,,,,,7,5,131,8,,,,,,,,,,,,,,,,,,,,,,,,main,1,1,1,neutral,positive,j,j,1,0.6631510001607239,423.62698659999296,424.6321904999204,424.61428589979187,None,423.62698659999296,None,423.62698659999296,None,423.62698659999296,None,425.2757223898545,None,425.2757223898545,None,425.2757223898545,None,,,,,,,,,,,133,22,Female,2022-05-31_15h56.56.347,Boat,2022.1.1,59.80764667208058,
negative,negative,2,j,l,,,,,,,,,7,6,132,9,,,,,,,,,,,,,,,,,,,,,,,,main,2,2,2,negative,negative,l,l,1,0.7289946000091732,425.2920359997079,426.31395890004933,426.27112470008433,None,425.2920359997079,None,425.2920359997079,None,425.2920359997079,None,427.00726618971674,None,427.00726618971674,None,427.00726618971674,None,,,,,,,,,,,133,22,Female,2022-05-31_15h56.56.347,Boat,2022.1.1,59.80764667208058,
neutral,negative,2,k,k,,,,,,,,,7,7,133,16,,,,,,,,,,,,,,,,,,,,,,,,main,1,1,2,negative,neutral,k,k,1,0.6016319999471307,427.021742799785,428.03761369967833,428.0030612000264,None,427.021742799785,None,427.021742799785,None,427.021742799785,None,428.61084758983924,None,428.61084758983924,None,428.61084758983924,None,,,,,,,,,,,133,22,Female,2022-05-31_15h56.56.347,Boat,2022.1.1,59.80764667208058,
neutral,negative,1,k,k,,,,,,,,,7,8,134,7,,,,,,,,,,,,,,,,,,,,,,,,main,2,2,1,negative,neutral,k,k,1,1.0321360998786986,428.6269803000614,429.6349510997534,429.61543309967965,None,428.6269803000614,None,428.6269803000614,None,428.6269803000614,None,430.6466020897962,None,430.6466020897962,None,430.6466020897962,None,,,,,,,,,,,133,22,Female,2022-05-31_15h56.56.347,Boat,2022.1.1,59.80764667208058,
neutral,positive,1,k,k,,,,,,,,,7,9,135,4,,,,,,,,,,,,,,,,,,,,,,,,main,2,2,1,positive,neutral,k,k,1,0.794934400357306,430.6616909997538,431.6711617996916,431.65305100008845,None,430.6616909997538,None,430.6616909997538,None,430.6616909997538,None,432.44275908991693,None,432.44275908991693,None,432.44275908991693,None,,,,,,,,,,,133,22,Female,2022-05-31_15h56.56.347,Boat,2022.1.1,59.80764667208058,
negative,negative,1,j,l,,,,,,,,,7,10,136,0,,,,,,,,,,,,,,,,,,,,,,,,main,1,1,1,negative,negative,l,l,1,1.2628172999247909,432.4585969001055,433.4661548999138,433.4475360997021,None,432.4585969001055,None,432.4585969001055,None,432.4585969001055,None,434.70716438982635,None,434.70716438982635,None,434.70716438982635,None,,,,,,,,,,,133,22,Female,2022-05-31_15h56.56.347,Boat,2022.1.1,59.80764667208058,
positive,positive,2,l,j,,,,,,,,,7,11,137,11,,,,,,,,,,,,,,,,,,,,,,,,main,2,2,2,positive,positive,j,j,1,0.5523539995774627,434.72400410007685,435.73390519991517,435.7145684999414,None,434.72400410007685,None,434.72400410007685,None,434.72400410007685,None,436.2638563898392,None,436.2638563898392,None,436.2638563898392,None,,,,,,,,,,,133,22,Female,2022-05-31_15h56.56.347,Boat,2022.1.1,59.80764667208058,
positive,negative,1,l,j,,,,,,,,,7,12,138,5,,,,,,,,,,,,,,,,,,,,,,,,main,2,2,1,negative,positive,j,j,1,1.177466300316155,436.2796219000593,437.29780060006306,437.2554027000442,None,436.2796219000593,None,436.2796219000593,None,436.2796219000593,None,438.4426289897412,None,438.4426289897412,None,438.4426289897412,None,,,,,,,,,,,133,22,Female,2022-05-31_15h56.56.347,Boat,2022.1.1,59.80764667208058,
neutral,positive,2,k,k,,,,,,,,,7,13,139,13,,,,,,,,,,,,,,,,,,,,,,,,main,2,2,2,positive,neutral,k,l,0,0.6566665000282228,438.4576109996997,439.47337319981307,439.43791410000995,None,438.4576109996997,None,438.4576109996997,None,438.4576109996997,None,440.1057198997587,None,440.1057198997587,None,440.1057198997587,None,,,,,,,,,,,133,22,Female,2022-05-31_15h56.56.347,Boat,2022.1.1,59.80764667208058,
negative,neutral,1,j,l,,,,,,,,,7,14,140,3,,,,,,,,,,,,,,,,,,,,,,,,main,2,2,1,neutral,negative,l,k,0,1.1202433998696506,441.1233385000378,442.14760740008205,442.10459030000493,None,441.1233385000378,None,441.1233385000378,None,441.1233385000378,None,443.233740999829,None,443.233740999829,None,443.233740999829,None,,,,,,,,,,,133,22,Female,2022-05-31_15h56.56.347,Boat,2022.1.1,59.80764667208058,
negative,neutral,2,j,l,,,,,,,,,7,15,141,12,,,,,,,,,,,,,,,,,,,,,,,,main,2,2,2,neutral,negative,l,l,1,1.0342012997716665,444.23958189971745,445.2567862998694,445.22135340003297,None,444.23958189971745,None,444.23958189971745,None,444.23958189971745,None,446.25854048999025,None,446.25854048999025,None,446.25854048999025,None,,,,,,,,,,,133,22,Female,2022-05-31_15h56.56.347,Boat,2022.1.1,59.80764667208058,
negative,positive,2,j,l,,,,,,,,,7,16,142,15,,,,,,,,,,,,,,,,,,,,,,,,main,2,2,2,positive,negative,l,l,1,0.6790903997607529,446.2799177998677,447.28690150007606,447.26855119969696,None,446.2799177998677,None,446.2799177998677,None,446.2799177998677,None,447.9429622900672,None,447.9429622900672,None,447.9429622900672,None,,,,,,,,,,,133,22,Female,2022-05-31_15h56.56.347,Boat,2022.1.1,59.80764667208058,
positive,neutral,2,l,j,,,,,,,,,7,17,143,17,,,,,,,,,,,,,,,,,,,,,,,,main,1,1,2,neutral,positive,j,j,1,0.7464553001336753,447.95885539986193,448.9716245997697,448.9382086000405,None,447.95885539986193,None,447.95885539986193,None,447.95885539986193,None,449.69167949007823,None,449.69167949007823,None,449.69167949007823,None,,,,,,,,,,,133,22,Female,2022-05-31_15h56.56.347,Boat,2022.1.1,59.80764667208058,
positive,positive,2,l,j,,,,,,,,,8,0,144,11,,,,,,,,,,,,,,,,,,,,,,,,main,1,1,2,positive,positive,j,j,1,0.8656569002196193,449.7068256000057,450.72182950004935,450.6860778001137,None,449.7068256000057,None,449.7068256000057,None,449.7068256000057,None,451.55984619008376,None,451.55984619008376,None,451.55984619008376,None,,,,,,,,,,,133,22,Female,2022-05-31_15h56.56.347,Boat,2022.1.1,59.80764667208058,
negative,neutral,2,j,l,,,,,,,,,8,1,145,12,,,,,,,,,,,,,,,,,,,,,,,,main,1,1,2,neutral,negative,l,l,1,1.4271039003506303,451.57502690004185,452.58279850007966,452.56452979985625,None,451.57502690004185,None,451.57502690004185,None,451.57502690004185,None,453.98827798971905,None,453.98827798971905,None,453.98827798971905,None,,,,,,,,,,,133,22,Female,2022-05-31_15h56.56.347,Boat,2022.1.1,59.80764667208058,
positive,neutral,2,l,j,,,,,,,,,8,2,146,17,,,,,,,,,,,,,,,,,,,,,,,,main,2,2,2,neutral,positive,j,j,1,1.290466499980539,454.0053153000772,455.01496549975127,454.9882586998865,None,454.0053153000772,None,454.0053153000772,None,454.0053153000772,None,456.2834435899742,None,456.2834435899742,None,456.2834435899742,None,,,,,,,,,,,133,22,Female,2022-05-31_15h56.56.347,Boat,2022.1.1,59.80764667208058,
negative,negative,1,j,l,,,,,,,,,8,3,147,0,,,,,,,,,,,,,,,,,,,,,,,,main,2,2,1,negative,negative,l,l,1,1.9932026998139918,456.3026427999139,457.31789809977636,457.28149439999834,None,456.3026427999139,None,456.3026427999139,None,456.3026427999139,None,459.28308699978516,None,459.28308699978516,None,459.28308699978516,None,,,,,,,,,,,133,22,Female,2022-05-31_15h56.56.347,Boat,2022.1.1,59.80764667208058,
negative,positive,2,j,l,,,,,,,,,8,4,148,15,,,,,,,,,,,,,,,,,,,,,,,,main,2,2,2,positive,negative,l,l,1,0.9825399001128972,460.28973679989576,461.3072194000706,461.271671500057,None,460.28973679989576,None,460.28973679989576,None,460.28973679989576,None,462.25874719005077,None,462.25874719005077,None,462.25874719005077,None,,,,,,,,,,,133,22,Female,2022-05-31_15h56.56.347,Boat,2022.1.1,59.80764667208058,
negative,positive,1,j,l,,,,,,,,,8,5,149,6,,,,,,,,,,,,,,,,,,,,,,,,main,1,1,1,positive,negative,l,l,1,1.346986799966544,462.2743152999319,463.2891997001134,463.2551604998298,None,462.2743152999319,None,462.2743152999319,None,462.2743152999319,None,464.6086546897888,None,464.6086546897888,None,464.6086546897888,None,,,,,,,,,,,133,22,Female,2022-05-31_15h56.56.347,Boat,2022.1.1,59.80764667208058,
positive,positive,1,l,j,,,,,,,,,8,6,150,2,,,,,,,,,,,,,,,,,,,,,,,,main,2,2,1,positive,positive,j,l,0,0.5983567000366747,464.6251962999813,465.64990139985457,465.605126099661,None,464.6251962999813,None,464.6251962999813,None,464.6251962999813,None,466.2135676997714,None,466.2135676997714,None,466.2135676997714,None,,,,,,,,,,,133,22,Female,2022-05-31_15h56.56.347,Boat,2022.1.1,59.80764667208058,
negative,negative,2,j,l,,,,,,,,,8,7,151,9,,,,,,,,,,,,,,,,,,,,,,,,main,1,1,2,negative,negative,l,l,1,0.7851935001090169,467.22442810004577,468.2482834998518,468.2051609996706,None,467.22442810004577,None,467.22442810004577,None,467.22442810004577,None,468.99472468979656,None,468.99472468979656,None,468.99472468979656,None,,,,,,,,,,,133,22,Female,2022-05-31_15h56.56.347,Boat,2022.1.1,59.80764667208058,
negative,neutral,1,j,l,,,,,,,,,8,8,152,3,,,,,,,,,,,,,,,,,,,,,,,,main,2,2,1,neutral,negative,l,l,1,1.1448799995705485,469.0106647000648,470.0209238999523,469.98491889983416,None,469.0106647000648,None,469.0106647000648,None,469.0106647000648,None,471.1426606898196,None,471.1426606898196,None,471.1426606898196,None,,,,,,,,,,,133,22,Female,2022-05-31_15h56.56.347,Boat,2022.1.1,59.80764667208058,
neutral,neutral,1,k,k,,,,,,,,,8,9,153,1,,,,,,,,,,,,,,,,,,,,,,,,main,2,2,1,neutral,neutral,k,k,1,1.386129300110042,471.1580197997391,472.1683755996637,472.15012989984825,None,471.1580197997391,None,471.1580197997391,None,471.1580197997391,None,473.5317679897882,None,473.5317679897882,None,473.5317679897882,None,,,,,,,,,,,133,22,Female,2022-05-31_15h56.56.347,Boat,2022.1.1,59.80764667208058,
positive,neutral,1,l,j,,,,,,,,,8,10,154,8,,,,,,,,,,,,,,,,,,,,,,,,main,1,1,1,neutral,positive,j,j,1,1.776138599961996,473.54824259970337,474.5551470001228,474.51936820009723,None,473.54824259970337,None,473.54824259970337,None,473.54824259970337,None,476.3152314000763,None,476.3152314000763,None,476.3152314000763,None,,,,,,,,,,,133,22,Female,2022-05-31_15h56.56.347,Boat,2022.1.1,59.80764667208058,
neutral,negative,1,k,k,,,,,,,,,8,11,155,7,,,,,,,,,,,,,,,,,,,,,,,,main,1,1,1,negative,neutral,k,k,1,0.6116879000328481,477.32328539993614,478.3506708997302,478.3053190000355,None,477.32328539993614,None,477.32328539993614,None,477.32328539993614,None,478.9218782897107,None,478.9218782897107,None,478.9218782897107,None,,,,,,,,,,,133,22,Female,2022-05-31_15h56.56.347,Boat,2022.1.1,59.80764667208058,
positive,negative,1,l,j,,,,,,,,,8,12,156,5,,,,,,,,,,,,,,,,,,,,,,,,main,2,2,1,negative,positive,j,j,1,0.7183503000997007,478.9401499000378,479.9537257999182,479.9182448000647,None,478.9401499000378,None,478.9401499000378,None,478.9401499000378,None,480.6437064900994,None,480.6437064900994,None,480.6437064900994,None,,,,,,,,,,,133,22,Female,2022-05-31_15h56.56.347,Boat,2022.1.1,59.80764667208058,
positive,negative,2,l,j,,,,,,,,,8,13,157,14,,,,,,,,,,,,,,,,,,,,,,,,main,2,2,2,negative,positive,j,j,1,1.3003877000883222,480.6587376999669,481.68343599978834,481.6383569999598,None,480.6587376999669,None,480.6587376999669,None,480.6587376999669,None,482.9463481896557,None,482.9463481896557,None,482.9463481896557,None,,,,,,,,,,,133,22,Female,2022-05-31_15h56.56.347,Boat,2022.1.1,59.80764667208058,
neutral,positive,1,k,k,,,,,,,,,8,14,158,4,,,,,,,,,,,,,,,,,,,,,,,,main,1,1,1,positive,neutral,k,k,1,0.6553289000876248,482.96150070009753,483.97294869972393,483.93643279979005,None,482.96150070009753,None,482.96150070009753,None,482.96150070009753,None,484.6057015897706,None,484.6057015897706,None,484.6057015897706,None,,,,,,,,,,,133,22,Female,2022-05-31_15h56.56.347,Boat,2022.1.1,59.80764667208058,
neutral,positive,2,k,k,,,,,,,,,8,15,159,13,,,,,,,,,,,,,,,,,,,,,,,,main,2,2,2,positive,neutral,k,l,0,0.5552625996060669,484.6218689996749,485.6350345998071,485.61545130005106,None,484.6218689996749,None,484.6218689996749,None,484.6218689996749,None,486.1692192996852,None,486.1692192996852,None,486.1692192996852,None,,,,,,,,,,,133,22,Female,2022-05-31_15h56.56.347,Boat,2022.1.1,59.80764667208058,
neutral,neutral,2,k,k,,,,,,,,,8,16,160,10,,,,,,,,,,,,,,,,,,,,,,,,main,1,1,2,neutral,neutral,k,k,1,0.48486890038475394,487.1905029998161,488.2152972999029,488.1723413998261,None,487.1905029998161,None,487.1905029998161,None,487.1905029998161,None,488.6621128900908,None,488.6621128900908,None,488.6621128900908,None,,,,,,,,,,,133,22,Female,2022-05-31_15h56.56.347,Boat,2022.1.1,59.80764667208058,
neutral,negative,2,k,k,,,,,,,,,8,17,161,16,,,,,,,,,,,,,,,,,,,,,,,,main,1,1,2,negative,neutral,k,k,1,0.6252111997455359,488.677690200042,489.7003238000907,489.655681299977,None,488.677690200042,None,488.677690200042,None,488.677690200042,None,490.2905835898593,None,490.2905835898593,None,490.2905835898593,None,,,,,,,,,,,133,22,Female,2022-05-31_15h56.56.347,Boat,2022.1.1,59.80764667208058,
positive,positive,2,l,j,,,,,,,,,9,0,162,11,,,,,,,,,,,,,,,,,,,,,,,,main,2,2,2,positive,positive,j,j,1,0.6535692000761628,490.30591359967366,491.31549410009757,491.2887399997562,None,490.30591359967366,None,490.30591359967366,None,490.30591359967366,None,491.94719179002567,None,491.94719179002567,None,491.94719179002567,None,,,,,,,,,,,133,22,Female,2022-05-31_15h56.56.347,Boat,2022.1.1,59.80764667208058,
neutral,negative,1,k,k,,,,,,,,,9,1,163,7,,,,,,,,,,,,,,,,,,,,,,,,main,2,2,1,negative,neutral,k,k,1,0.6242057997733355,491.9629816999659,492.97257030010223,492.95583859970793,None,491.9629816999659,None,491.9629816999659,None,491.9629816999659,None,493.573289889656,None,493.573289889656,None,493.573289889656,None,,,,,,,,,,,133,22,Female,2022-05-31_15h56.56.347,Boat,2022.1.1,59.80764667208058,
negative,positive,1,j,l,,,,,,,,,9,2,164,6,,,,,,,,,,,,,,,,,,,,,,,,main,1,1,1,positive,negative,l,l,1,0.7309743999503553,493.5887965997681,494.58903770009056,494.5715544000268,None,493.5887965997681,None,493.5887965997681,None,493.5887965997681,None,495.30689198970794,None,495.30689198970794,None,495.30689198970794,None,,,,,,,,,,,133,22,Female,2022-05-31_15h56.56.347,Boat,2022.1.1,59.80764667208058,
negative,neutral,1,j,l,,,,,,,,,9,3,165,3,,,,,,,,,,,,,,,,,,,,,,,,main,2,2,1,neutral,negative,l,l,1,0.5690542999655008,495.3231441997923,496.3319717999548,496.30564279993996,None,495.3231441997923,None,495.3231441997923,None,495.3231441997923,None,496.877287789993,None,496.877287789993,None,496.877287789993,None,,,,,,,,,,,133,22,Female,2022-05-31_15h56.56.347,Boat,2022.1.1,59.80764667208058,
neutral,negative,2,k,k,,,,,,,,,9,4,166,16,,,,,,,,,,,,,,,,,,,,,,,,main,2,2,2,negative,neutral,k,k,1,0.6319556999951601,496.8940918999724,497.9173825997859,497.8724058000371,None,496.8940918999724,None,496.8940918999724,None,496.8940918999724,None,498.5126423899084,None,498.5126423899084,None,498.5126423899084,None,,,,,,,,,,,133,22,Female,2022-05-31_15h56.56.347,Boat,2022.1.1,59.80764667208058,
neutral,neutral,1,k,k,,,,,,,,,9,5,167,1,,,,,,,,,,,,,,,,,,,,,,,,main,2,2,1,neutral,neutral,k,j,0,0.8135204999707639,498.52818170003593,499.53897199966013,499.50181839987636,None,498.52818170003593,None,498.52818170003593,None,498.52818170003593,None,500.3346786997281,None,500.3346786997281,None,500.3346786997281,None,,,,,,,,,,,133,22,Female,2022-05-31_15h56.56.347,Boat,2022.1.1,59.80764667208058,
neutral,positive,1,k,k,,,,,,,,,9,6,168,4,,,,,,,,,,,,,,,,,,,,,,,,main,2,2,1,positive,neutral,k,k,1,0.6339962002821267,501.3411333998665,502.3561637001112,502.31936670001596,None,501.3411333998665,None,501.3411333998665,None,501.3411333998665,None,502.96125718979164,None,502.96125718979164,None,502.96125718979164,None,,,,,,,,,,,133,22,Female,2022-05-31_15h56.56.347,Boat,2022.1.1,59.80764667208058,
negative,negative,2,j,l,,,,,,,,,9,7,169,9,,,,,,,,,,,,,,,,,,,,,,,,main,2,2,2,negative,negative,l,l,1,0.9594171000644565,502.9772332999855,503.9892056998797,503.9513981998898,None,502.9772332999855,None,502.9772332999855,None,502.9772332999855,None,504.92425349010153,None,504.92425349010153,None,504.92425349010153,None,,,,,,,,,,,133,22,Female,2022-05-31_15h56.56.347,Boat,2022.1.1,59.80764667208058,
positive,negative,2,l,j,,,,,,,,,9,8,170,14,,,,,,,,,,,,,,,,,,,,,,,,main,2,2,2,negative,positive,j,j,1,0.7282782001420856,504.9399593998678,505.95628539985046,505.9218060998246,None,504.9399593998678,None,504.9399593998678,None,504.9399593998678,None,506.6559397897683,None,506.6559397897683,None,506.6559397897683,None,,,,,,,,,,,133,22,Female,2022-05-31_15h56.56.347,Boat,2022.1.1,59.80764667208058,
positive,positive,1,l,j,,,,,,,,,9,9,171,2,,,,,,,,,,,,,,,,,,,,,,,,main,1,1,1,positive,positive,j,k,0,2.164086500182748,506.6715333000757,507.6839943998493,507.63937749993056,None,506.6715333000757,None,506.6715333000757,None,506.6715333000757,None,509.82699179975316,None,509.82699179975316,None,509.82699179975316,None,,,,,,,,,,,133,22,Female,2022-05-31_15h56.56.347,Boat,2022.1.1,59.80764667208058,
neutral,neutral,2,k,k,,,,,,,,,9,10,172,10,,,,,,,,,,,,,,,,,,,,,,,,main,1,1,2,neutral,neutral,k,k,1,0.650261300150305,510.84072449989617,511.8555573998019,511.83543019974604,None,510.84072449989617,None,510.84072449989617,None,510.84072449989617,None,512.4772732898593,None,512.4772732898593,None,512.4772732898593,None,,,,,,,,,,,133,22,Female,2022-05-31_15h56.56.347,Boat,2022.1.1,59.80764667208058,
negative,positive,2,j,l,,,,,,,,,9,11,173,15,,,,,,,,,,,,,,,,,,,,,,,,main,2,2,2,positive,negative,l,l,1,0.6577675002627075,512.4943987997249,513.5161182000302,513.4725421001203,None,512.4943987997249,None,512.4943987997249,None,512.4943987997249,None,514.1394558900968,None,514.1394558900968,None,514.1394558900968,None,,,,,,,,,,,133,22,Female,2022-05-31_15h56.56.347,Boat,2022.1.1,59.80764667208058,
positive,negative,1,l,j,,,,,,,,,9,12,174,5,,,,,,,,,,,,,,,,,,,,,,,,main,2,2,1,negative,positive,j,j,1,0.7710262998007238,514.1546175996773,515.1661136997864,515.1397263999097,None,514.1546175996773,None,514.1546175996773,None,514.1546175996773,None,515.9123804898002,None,515.9123804898002,None,515.9123804898002,None,,,,,,,,,,,133,22,Female,2022-05-31_15h56.56.347,Boat,2022.1.1,59.80764667208058,
positive,neutral,2,l,j,,,,,,,,,9,13,175,17,,,,,,,,,,,,,,,,,,,,,,,,main,2,2,2,neutral,positive,j,j,1,1.0790581000037491,515.9292317000218,516.9394547999837,516.9060802999884,None,515.9292317000218,None,515.9292317000218,None,515.9292317000218,None,517.9938835900277,None,517.9938835900277,None,517.9938835900277,None,,,,,,,,,,,133,22,Female,2022-05-31_15h56.56.347,Boat,2022.1.1,59.80764667208058,
negative,neutral,2,j,l,,,,,,,,,9,14,176,12,,,,,,,,,,,,,,,,,,,,,,,,main,1,1,2,neutral,negative,l,k,0,1.1641893996857107,518.0096726999618,519.0324539998546,518.9889937997796,None,518.0096726999618,None,518.0096726999618,None,518.0096726999618,None,520.1674130996689,None,520.1674130996689,None,520.1674130996689,None,,,,,,,,,,,133,22,Female,2022-05-31_15h56.56.347,Boat,2022.1.1,59.80764667208058,
positive,neutral,1,l,j,,,,,,,,,9,15,177,8,,,,,,,,,,,,,,,,,,,,,,,,main,1,1,1,neutral,positive,j,j,1,0.8134670997969806,521.174385999795,522.1995942997746,522.1564054000191,None,521.174385999795,None,521.174385999795,None,521.174385999795,None,522.9749963901006,None,522.9749963901006,None,522.9749963901006,None,,,,,,,,,,,133,22,Female,2022-05-31_15h56.56.347,Boat,2022.1.1,59.80764667208058,
neutral,positive,2,k,k,,,,,,,,,9,16,178,13,,,,,,,,,,,,,,,,,,,,,,,,main,1,1,2,positive,neutral,k,k,1,0.9346877997741103,522.9897567997687,523.9996909000911,523.973253400065,None,522.9897567997687,None,522.9897567997687,None,522.9897567997687,None,524.9110862899572,None,524.9110862899572,None,524.9110862899572,None,,,,,,,,,,,133,22,Female,2022-05-31_15h56.56.347,Boat,2022.1.1,59.80764667208058,
negative,negative,1,j,l,,,,,,,,,9,17,179,0,,,,,,,,,,,,,,,,,,,,,,,,main,2,2,1,negative,negative,l,l,1,0.6673221001401544,524.9276984999888,525.9492339999415,525.9063368998468,None,524.9276984999888,None,524.9276984999888,None,524.9276984999888,None,526.5806413901039,None,526.5806413901039,None,526.5806413901039,None,,,,,,,,,,,133,22,Female,2022-05-31_15h56.56.347,Boat,2022.1.1,59.80764667208058,
negative,neutral,1,j,l,,,,,,,,,10,0,180,3,,,,,,,,,,,,,,,,,,,,,,,,main,1,1,1,neutral,negative,l,l,1,1.196304699871689,526.5965535999276,527.6052418998443,527.5693783997558,None,526.5965535999276,None,526.5965535999276,None,526.5965535999276,None,528.7793777899817,None,528.7793777899817,None,528.7793777899817,None,,,,,,,,,,,133,22,Female,2022-05-31_15h56.56.347,Boat,2022.1.1,59.80764667208058,
negative,negative,1,j,l,,,,,,,,,10,1,181,0,,,,,,,,,,,,,,,,,,,,,,,,main,1,1,1,negative,negative,l,l,1,1.0453706998378038,528.7958030998707,529.8184595997445,529.7730578999035,None,528.7958030998707,None,528.7958030998707,None,528.7958030998707,None,530.8278060898185,None,530.8278060898185,None,530.8278060898185,None,,,,,,,,,,,133,22,Female,2022-05-31_15h56.56.347,Boat,2022.1.1,59.80764667208058,
neutral,negative,2,k,k,,,,,,,,,10,2,182,16,,,,,,,,,,,,,,,,,,,,,,,,main,1,1,2,negative,neutral,k,k,1,0.6638258998282254,530.8438562001102,531.8662620000541,531.8230694998056,None,530.8438562001102,None,530.8438562001102,None,530.8438562001102,None,532.494216489885,None,532.494216489885,None,532.494216489885,None,,,,,,,,,,,133,22,Female,2022-05-31_15h56.56.347,Boat,2022.1.1,59.80764667208058,
positive,neutral,2,l,j,,,,,,,,,10,3,183,17,,,,,,,,,,,,,,,,,,,,,,,,main,1,1,2,neutral,positive,j,j,1,0.7550148996524513,532.5106863998808,533.5218487996608,533.4852952999063,None,532.5106863998808,None,532.5106863998808,None,532.5106863998808,None,534.2531235900708,None,534.2531235900708,None,534.2531235900708,None,,,,,,,,,,,133,22,Female,2022-05-31_15h56.56.347,Boat,2022.1.1,59.80764667208058,
positive,neutral,1,l,j,,,,,,,,,10,4,184,8,,,,,,,,,,,,,,,,,,,,,,,,main,2,2,1,neutral,positive,j,j,1,0.8683931003324687,534.2720451001078,535.2828611000441,535.2420426998287,None,534.2720451001078,None,534.2720451001078,None,534.2720451001078,None,536.1234439898283,None,536.1234439898283,None,536.1234439898283,None,,,,,,,,,,,133,22,Female,2022-05-31_15h56.56.347,Boat,2022.1.1,59.80764667208058,
positive,negative,1,l,j,,,,,,,,,10,5,185,5,,,,,,,,,,,,,,,,,,,,,,,,main,1,1,1,negative,positive,j,j,1,2.0752142001874745,536.1399199999869,537.1401006998494,537.1236200998537,None,536.1399199999869,None,536.1399199999869,None,536.1399199999869,None,539.2065892000683,None,539.2065892000683,None,539.2065892000683,None,,,,,,,,,,,133,22,Female,2022-05-31_15h56.56.347,Boat,2022.1.1,59.80764667208058,
neutral,neutral,1,k,k,,,,,,,,,10,6,186,1,,,,,,,,,,,,,,,,,,,,,,,,main,1,1,1,neutral,neutral,k,k,1,1.5841858997009695,540.2247258997522,541.2499723997898,541.2019632998854,None,540.2247258997522,None,540.2247258997522,None,540.2247258997522,None,542.7973162000999,None,542.7973162000999,None,542.7973162000999,None,,,,,,,,,,,133,22,Female,2022-05-31_15h56.56.347,Boat,2022.1.1,59.80764667208058,
neutral,negative,1,k,k,,,,,,,,,10,7,187,7,,,,,,,,,,,,,,,,,,,,,,,,main,1,1,1,negative,neutral,k,k,1,1.986874799709767,543.8085415996611,544.8199096997268,544.8016617996618,None,543.8085415996611,None,543.8085415996611,None,543.8085415996611,None,546.7863382999785,None,546.7863382999785,None,546.7863382999785,None,,,,,,,,,,,133,22,Female,2022-05-31_15h56.56.347,Boat,2022.1.1,59.80764667208058,
positive,negative,2,l,j,,,,,,,,,10,8,188,14,,,,,,,,,,,,,,,,,,,,,,,,main,1,1,2,negative,positive,j,j,1,0.6439608000218868,547.8090121001005,548.8335810001008,548.7881772997789,None,547.8090121001005,None,547.8090121001005,None,547.8090121001005,None,549.4404248900712,None,549.4404248900712,None,549.4404248900712,None,,,,,,,,,,,133,22,Female,2022-05-31_15h56.56.347,Boat,2022.1.1,59.80764667208058,
positive,positive,1,l,j,,,,,,,,,10,9,189,2,,,,,,,,,,,,,,,,,,,,,,,,main,2,2,1,positive,positive,j,j,1,1.395948600023985,549.4566335999407,550.474386499729,550.4381725997664,None,549.4566335999407,None,549.4566335999407,None,549.4566335999407,None,551.8408750899137,None,551.8408750899137,None,551.8408750899137,None,,,,,,,,,,,133,22,Female,2022-05-31_15h56.56.347,Boat,2022.1.1,59.80764667208058,
negative,negative,2,j,l,,,,,,,,,10,10,190,9,,,,,,,,,,,,,,,,,,,,,,,,main,1,1,2,negative,negative,l,l,1,0.8365155998617411,551.8571441997774,552.8573638000526,552.8406243999489,None,551.8571441997774,None,551.8571441997774,None,551.8571441997774,None,553.6790043900721,None,553.6790043900721,None,553.6790043900721,None,,,,,,,,,,,133,22,Female,2022-05-31_15h56.56.347,Boat,2022.1.1,59.80764667208058,
positive,positive,2,l,j,,,,,,,,,10,11,191,11,,,,,,,,,,,,,,,,,,,,,,,,main,1,1,2,positive,positive,j,l,0,0.8116560000926256,553.6944498997182,554.7034884998575,554.685131999664,None,553.6944498997182,None,553.6944498997182,None,553.6944498997182,None,555.4967898000032,None,555.4967898000032,None,555.4967898000032,None,,,,,,,,,,,133,22,Female,2022-05-31_15h56.56.347,Boat,2022.1.1,59.80764667208058,
negative,positive,1,j,l,,,,,,,,,10,12,192,6,,,,,,,,,,,,,,,,,,,,,,,,main,1,1,1,positive,negative,l,l,1,0.7659629001282156,556.5092775998637,557.5236931997351,557.4903794000857,None,556.5092775998637,None,556.5092775998637,None,556.5092775998637,None,558.2612651896663,None,558.2612651896663,None,558.2612651896663,None,,,,,,,,,,,133,22,Female,2022-05-31_15h56.56.347,Boat,2022.1.1,59.80764667208058,
neutral,positive,1,k,k,,,,,,,,,10,13,193,4,,,,,,,,,,,,,,,,,,,,,,,,main,2,2,1,positive,neutral,k,k,1,0.6625768002122641,558.2783646997996,559.2905442998745,559.2572270999663,None,558.2783646997996,None,558.2783646997996,None,558.2783646997996,None,559.9266357899644,None,559.9266357899644,None,559.9266357899644,None,,,,,,,,,,,133,22,Female,2022-05-31_15h56.56.347,Boat,2022.1.1,59.80764667208058,
neutral,neutral,2,k,k,,,,,,,,,10,14,194,10,,,,,,,,,,,,,,,,,,,,,,,,main,2,2,2,neutral,neutral,k,k,1,0.9161029001697898,559.9433360998519,560.9668848998845,560.9241701997817,None,559.9433360998519,None,559.9433360998519,None,559.9433360998519,None,561.8447471897118,None,561.8447471897118,None,561.8447471897118,None,,,,,,,,,,,133,22,Female,2022-05-31_15h56.56.347,Boat,2022.1.1,59.80764667208058,
negative,neutral,2,j,l,,,,,,,,,10,15,195,12,,,,,,,,,,,,,,,,,,,,,,,,main,1,1,2,neutral,negative,l,l,1,0.6481174998916686,561.8619400998577,562.8707518000156,562.8353168996982,None,561.8619400998577,None,561.8619400998577,None,561.8619400998577,None,563.4951165898703,None,563.4951165898703,None,563.4951165898703,None,,,,,,,,,,,133,22,Female,2022-05-31_15h56.56.347,Boat,2022.1.1,59.80764667208058,
neutral,positive,2,k,k,,,,,,,,,10,16,196,13,,,,,,,,,,,,,,,,,,,,,,,,main,2,2,2,positive,neutral,k,k,1,0.5763841001316905,563.5128601999022,564.5216780998744,564.485420699697,None,563.5128601999022,None,563.5128601999022,None,563.5128601999022,None,565.0753421898,None,565.0753421898,None,565.0753421898,None,,,,,,,,,,,133,22,Female,2022-05-31_15h56.56.347,Boat,2022.1.1,59.80764667208058,
negative,positive,2,j,l,,,,,,,,,10,17,197,15,,,,,,,,,,,,,,,,,,,,,,,,main,2,2,2,positive,negative,l,l,1,0.8071829997934401,565.0912576001137,566.1036926000379,566.0854277000763,None,565.0912576001137,None,565.0912576001137,None,565.0912576001137,None,566.8853351900354,None,566.8853351900354,None,566.8853351900354,None,,,,,,,,,,,133,22,Female,2022-05-31_15h56.56.347,Boat,2022.1.1,59.80764667208058,
positive,neutral,1,l,j,,,,,,,,,11,0,198,8,,,,,,,,,,,,,,,,,,,,,,,,main,1,1,1,neutral,positive,j,j,1,1.0604670997709036,566.9053222998045,567.9072610996664,567.8888058997691,None,566.9053222998045,None,566.9053222998045,None,566.9053222998045,None,568.9477479898371,None,568.9477479898371,None,568.9477479898371,None,,,,,,,,,,,133,22,Female,2022-05-31_15h56.56.347,Boat,2022.1.1,59.80764667208058,
neutral,negative,1,k,k,,,,,,,,,11,1,199,7,,,,,,,,,,,,,,,,,,,,,,,,main,2,2,1,negative,neutral,k,k,1,0.8794522997923195,568.9643975999206,569.9838990997523,569.9407859998755,None,568.9643975999206,None,568.9643975999206,None,568.9643975999206,None,570.8291705900804,None,570.8291705900804,None,570.8291705900804,None,,,,,,,,,,,133,22,Female,2022-05-31_15h56.56.347,Boat,2022.1.1,59.80764667208058,
neutral,neutral,1,k,k,,,,,,,,,11,2,200,1,,,,,,,,,,,,,,,,,,,,,,,,main,2,2,1,neutral,neutral,k,k,1,0.9799692998640239,570.8460924997926,571.8574155997485,571.8239043997601,None,570.8460924997926,None,570.8460924997926,None,570.8460924997926,None,572.8121994899586,None,572.8121994899586,None,572.8121994899586,None,,,,,,,,,,,133,22,Female,2022-05-31_15h56.56.347,Boat,2022.1.1,59.80764667208058,
neutral,positive,1,k,k,,,,,,,,,11,3,201,4,,,,,,,,,,,,,,,,,,,,,,,,main,1,1,1,positive,neutral,k,k,1,0.5313300001434982,572.8276359001175,573.8506303001195,573.8045604997315,None,572.8276359001175,None,572.8276359001175,None,572.8276359001175,None,574.345882090088,None,574.345882090088,None,574.345882090088,None,,,,,,,,,,,133,22,Female,2022-05-31_15h56.56.347,Boat,2022.1.1,59.80764667208058,
negative,neutral,1,j,l,,,,,,,,,11,4,202,3,,,,,,,,,,,,,,,,,,,,,,,,main,2,2,1,neutral,negative,l,l,1,1.2119641997851431,574.3617630000226,575.3840085999109,575.340903900098,None,574.3617630000226,None,574.3617630000226,None,574.3617630000226,None,576.560470589716,None,576.560470589716,None,576.560470589716,None,,,,,,,,,,,133,22,Female,2022-05-31_15h56.56.347,Boat,2022.1.1,59.80764667208058,
negative,positive,1,j,l,,,,,,,,,11,5,203,6,,,,,,,,,,,,,,,,,,,,,,,,main,1,1,1,positive,negative,l,l,1,0.6469991998746991,576.5760858999565,577.591034699697,577.5551402997226,None,576.5760858999565,None,576.5760858999565,None,576.5760858999565,None,578.2094574899413,None,578.2094574899413,None,578.2094574899413,None,,,,,,,,,,,133,22,Female,2022-05-31_15h56.56.347,Boat,2022.1.1,59.80764667208058,
positive,neutral,2,l,j,,,,,,,,,11,6,204,17,,,,,,,,,,,,,,,,,,,,,,,,main,1,1,2,neutral,positive,j,j,1,0.7185067003592849,578.2268293998204,579.25246399967,579.2074104999192,None,578.2268293998204,None,578.2268293998204,None,578.2268293998204,None,579.9307086898946,None,579.9307086898946,None,579.9307086898946,None,,,,,,,,,,,133,22,Female,2022-05-31_15h56.56.347,Boat,2022.1.1,59.80764667208058,
positive,negative,2,l,j,,,,,,,,,11,7,205,14,,,,,,,,,,,,,,,,,,,,,,,,main,1,1,2,negative,positive,j,j,1,1.43101939978078,579.9472559997812,580.9676055000164,580.9211149998009,None,579.9472559997812,None,579.9472559997812,None,579.9472559997812,None,582.3655762898736,None,582.3655762898736,None,582.3655762898736,None,,,,,,,,,,,133,22,Female,2022-05-31_15h56.56.347,Boat,2022.1.1,59.80764667208058,
neutral,neutral,2,k,k,,,,,,,,,11,8,206,10,,,,,,,,,,,,,,,,,,,,,,,,main,1,1,2,neutral,neutral,k,k,1,0.6637177998200059,582.3815993000753,583.390886399895,583.3741349996999,None,582.3815993000753,None,582.3815993000753,None,582.3815993000753,None,584.0303062897176,None,584.0303062897176,None,584.0303062897176,None,,,,,,,,,,,133,22,Female,2022-05-31_15h56.56.347,Boat,2022.1.1,59.80764667208058,
negative,neutral,2,j,l,,,,,,,,,11,9,207,12,,,,,,,,,,,,,,,,,,,,,,,,main,2,2,2,neutral,negative,l,l,1,0.8615224999375641,584.0469542997889,585.0542866997421,585.036139999982,None,584.0469542997889,None,584.0469542997889,None,584.0469542997889,None,585.894453990087,None,585.894453990087,None,585.894453990087,None,,,,,,,,,,,133,22,Female,2022-05-31_15h56.56.347,Boat,2022.1.1,59.80764667208058,
negative,positive,2,j,l,,,,,,,,,11,10,208,15,,,,,,,,,,,,,,,,,,,,,,,,main,1,1,2,positive,negative,l,l,1,0.651950600091368,585.9110516998917,586.933845099993,586.8911619996652,None,585.9110516998917,None,585.9110516998917,None,585.9110516998917,None,587.5484434899874,None,587.5484434899874,None,587.5484434899874,None,,,,,,,,,,,133,22,Female,2022-05-31_15h56.56.347,Boat,2022.1.1,59.80764667208058,
