target,distractor,set,ans1,ans2,rep_loop2.thisRepN,rep_loop2.thisTrialN,rep_loop2.thisN,rep_loop2.thisIndex,flanker_prac_loop.thisRepN,flanker_prac_loop.thisTrialN,flanker_prac_loop.thisN,flanker_prac_loop.thisIndex,flanker_main_loop.thisRepN,flanker_main_loop.thisTrialN,flanker_main_loop.thisN,flanker_main_loop.thisIndex,fl_inst_resp.keys,mouse.x,mouse.y,mouse.leftButton,mouse.midButton,mouse.rightButton,mouse.started,mouse.stopped,sound_1.started,sound_1.stopped,no_text.started,no_text.stopped,yes_text.started,yes_text.stopped,mouse_2.x,mouse_2.y,mouse_2.leftButton,mouse_2.midButton,mouse_2.rightButton,mouse_2.started,mouse_2.stopped,back_2.started,back_2.stopped,main_prac,fl_cold,fl_colt,fl_set,fl_dcond,fl_tcond,fl_ans,fl_res,fl_corr,fl_rt,fix_fl.started,fix_fl.stopped,targ.started,targ.stopped,j_button.started,j_button.stopped,k_button.started,k_button.stopped,l_button.started,l_button.stopped,j_button2.started,j_button2.stopped,k_button2.started,k_button2.stopped,l_button2.started,l_button2.stopped,mainback.started,mainback.stopped,key_resp.keys,mouse_6.x,mouse_6.y,mouse_6.leftButton,mouse_6.midButton,mouse_6.rightButton,mouse_6.started,mouse_6.stopped,id*,age*,gender*,date,expName,psychopyVersion,frameRate,
,,,,,0,0,0,0,,,,,,,,,None,0.17037037,-0.40925926,0,0,0,1.0036083400132156,None,22.773292059999996,None,73.28594159999966,None,73.28594159999966,None,-0.096296296,-0.062037036,0,0,0,0.012580060000345838,None,,,,,,,,,,,,,,,,,,,,,,,,,,,,,,,,,,,,,,,201,24,Female,2022-04-26_13h52.41.118,Main,2022.1.1,60.00088801313762,
negative,neutral,1,j,l,,,,,0,0,0,3,,,,,,,,,,,,,,,,,,,,,,,,,,76.5496962999996,None,prac,1,1,1,neutral,negative,l,l,1,2.0103157000003193,78.60653079999975,79.60919389999981,79.58957369999962,None,78.60653079999975,None,78.60653079999975,None,78.60653079999975,None,81.60699699999986,None,81.60699699999986,None,81.60699699999986,None,,,,,,,,,,,201,24,Female,2022-04-26_13h52.41.118,Main,2022.1.1,60.00088801313762,
neutral,positive,2,k,k,,,,,0,1,1,13,,,,,,,,,,,,,,,,,,,,,,,,,,,,prac,2,2,2,positive,neutral,k,k,1,1.0803603999997904,82.64934669999957,83.66508849999991,83.62578969999959,None,82.64934669999957,None,82.64934669999957,None,82.64934669999957,None,84.68731655999986,None,84.68731655999986,None,84.68731655999986,None,,,,,,,,,,,201,24,Female,2022-04-26_13h52.41.118,Main,2022.1.1,60.00088801313762,
negative,positive,1,j,l,,,,,0,2,2,6,,,,,,,,,,,,,,,,,,,,,,,,,,,,prac,2,2,1,positive,negative,l,l,1,0.9179907000002459,84.73348679999981,85.7402431999999,85.70235749999983,None,84.73348679999981,None,84.73348679999981,None,84.73348679999981,None,86.60800835999984,None,86.60800835999984,None,86.60800835999984,None,,,,,,,,,,,201,24,Female,2022-04-26_13h52.41.118,Main,2022.1.1,60.00088801313762,
neutral,positive,1,k,k,,,,,0,3,3,4,,,,,,,,,,,,,,,,,,,,,,,,,,,,prac,1,1,1,positive,neutral,k,k,1,0.9344374999996035,86.64794159999974,87.6612484999996,87.64208759999974,None,86.64794159999974,None,86.64794159999974,None,86.64794159999974,None,88.54709025999986,None,88.54709025999986,None,88.54709025999986,None,,,,,,,,,,,201,24,Female,2022-04-26_13h52.41.118,Main,2022.1.1,60.00088801313762,
positive,negative,2,l,j,,,,,0,4,4,14,,,,,,,,,,,,,,,,,,,,,,,,,,,,prac,2,2,2,negative,positive,j,j,1,0.8385783000003357,88.5819150999996,89.58749009999974,89.56710729999986,None,88.5819150999996,None,88.5819150999996,None,88.5819150999996,None,90.38677335999986,None,90.38677335999986,None,90.38677335999986,None,,,,,,,,,,,201,24,Female,2022-04-26_13h52.41.118,Main,2022.1.1,60.00088801313762,
neutral,negative,1,k,k,,,,,0,5,5,7,,,,,,,,,,,,,,,,,,,,,,,,,,,,prac,1,1,1,negative,neutral,k,k,1,0.9279102000000421,90.42022109999971,91.4262733999999,91.40421109999988,None,90.42022109999971,None,90.42022109999971,None,90.42022109999971,None,92.31565506000001,None,92.31565506000001,None,92.31565506000001,None,,,,,,,,,,,201,24,Female,2022-04-26_13h52.41.118,Main,2022.1.1,60.00088801313762,
positive,neutral,1,l,j,,,,,0,6,6,8,,,,,,,,,,,,,,,,,,,,,,,,,,,,prac,2,2,1,neutral,positive,j,j,1,0.9225861999998415,92.35118669999974,93.3643775999999,93.34254859999965,None,92.35118669999974,None,92.35118669999974,None,92.35118669999974,None,94.2413668599996,None,94.2413668599996,None,94.2413668599996,None,,,,,,,,,,,201,24,Female,2022-04-26_13h52.41.118,Main,2022.1.1,60.00088801313762,
positive,negative,1,l,j,,,,,0,7,7,5,,,,,,,,,,,,,,,,,,,,,,,,,,,,prac,1,1,1,negative,positive,j,j,1,0.7384074999999939,94.26805389999981,95.27488210000001,95.25403639999968,None,94.26805389999981,None,94.26805389999981,None,94.26805389999981,None,95.98481615999967,None,95.98481615999967,None,95.98481615999967,None,,,,,,,,,,,201,24,Female,2022-04-26_13h52.41.118,Main,2022.1.1,60.00088801313762,
neutral,neutral,1,k,k,,,,,0,8,8,1,,,,,,,,,,,,,,,,,,,,,,,,,,,,prac,1,1,1,neutral,neutral,k,k,1,0.8095682999996825,96.00638709999976,97.02527239999972,96.9843093999998,None,96.00638709999976,None,96.00638709999976,None,96.00638709999976,None,97.79603605999986,None,97.79603605999986,None,97.79603605999986,None,,,,,,,,,,,201,24,Female,2022-04-26_13h52.41.118,Main,2022.1.1,60.00088801313762,
negative,negative,2,j,l,,,,,0,9,9,9,,,,,,,,,,,,,,,,,,,,,,,,,,,,prac,2,2,2,negative,negative,l,l,1,0.9061740000001919,97.83393149999984,98.8559421,98.81278809999958,None,97.83393149999984,None,97.83393149999984,None,97.83393149999984,None,99.71009505999959,None,99.71009505999959,None,99.71009505999959,None,,,,,,,,,,,201,24,Female,2022-04-26_13h52.41.118,Main,2022.1.1,60.00088801313762,
neutral,negative,2,k,k,,,,,0,10,10,16,,,,,,,,,,,,,,,,,,,,,,,,,,,,prac,1,1,2,negative,neutral,k,k,1,0.8091177999999672,99.75250779999988,100.7711589999999,100.73357149999993,None,99.75250779999988,None,99.75250779999988,None,99.75250779999988,None,101.52052645999979,None,101.52052645999979,None,101.52052645999979,None,,,,,,,,,,,201,24,Female,2022-04-26_13h52.41.118,Main,2022.1.1,60.00088801313762,
positive,neutral,2,l,j,,,,,0,11,11,17,,,,,,,,,,,,,,,,,,,,,,,,,,,,prac,1,1,2,neutral,positive,j,j,1,0.7531847000000198,101.55912929999977,102.56815749999987,102.54844009999988,None,101.55912929999977,None,101.55912929999977,None,101.55912929999977,None,103.27835315999968,None,103.27835315999968,None,103.27835315999968,None,,,,,,,,,,,201,24,Female,2022-04-26_13h52.41.118,Main,2022.1.1,60.00088801313762,
negative,positive,2,j,l,,,,,0,12,12,15,,,,,,,,,,,,,,,,,,,,,,,,,,,,prac,1,1,2,positive,negative,l,l,1,0.8148489999998674,103.30780619999996,104.31807359999993,104.29878679999956,None,103.30780619999996,None,103.30780619999996,None,103.30780619999996,None,105.09184655999965,None,105.09184655999965,None,105.09184655999965,None,,,,,,,,,,,201,24,Female,2022-04-26_13h52.41.118,Main,2022.1.1,60.00088801313762,
positive,positive,2,l,j,,,,,0,13,13,11,,,,,,,,,,,,,,,,,,,,,,,,,,,,prac,2,2,2,positive,positive,j,j,1,0.8104730999998537,105.11771409999983,106.11917210000001,106.10064569999986,None,105.11771409999983,None,105.11771409999983,None,105.11771409999983,None,106.9057907599998,None,106.9057907599998,None,106.9057907599998,None,,,,,,,,,,,201,24,Female,2022-04-26_13h52.41.118,Main,2022.1.1,60.00088801313762,
negative,neutral,2,j,l,,,,,0,14,14,12,,,,,,,,,,,,,,,,,,,,,,,,,,,,prac,1,1,2,neutral,negative,l,l,1,0.8445154000000912,106.92651660000001,107.93117359999997,107.91216429999986,None,106.92651660000001,None,106.92651660000001,None,106.92651660000001,None,108.75211465999959,None,108.75211465999959,None,108.75211465999959,None,,,,,,,,,,,201,24,Female,2022-04-26_13h52.41.118,Main,2022.1.1,60.00088801313762,
positive,positive,1,l,j,,,,,0,15,15,2,,,,,,,,,,,,,,,,,,,,,,,,,,,,prac,2,2,1,positive,positive,j,j,1,0.7563187000000653,108.77456509999956,109.79035699999986,109.7528471999999,None,108.77456509999956,None,108.77456509999956,None,108.77456509999956,None,110.51295485999967,None,110.51295485999967,None,110.51295485999967,None,,,,,,,,,,,201,24,Female,2022-04-26_13h52.41.118,Main,2022.1.1,60.00088801313762,
neutral,neutral,2,k,k,,,,,0,16,16,10,,,,,,,,,,,,,,,,,,,,,,,,,,,,prac,2,2,2,neutral,neutral,k,k,1,0.7392775999996957,110.54630689999976,111.56287219999967,111.54217989999961,None,110.54630689999976,None,110.54630689999976,None,110.54630689999976,None,112.25243285999963,None,112.25243285999963,None,112.25243285999963,None,,,,,,,,,,,201,24,Female,2022-04-26_13h52.41.118,Main,2022.1.1,60.00088801313762,
negative,negative,1,j,l,,,,,0,17,17,0,,,,,,,,,,,,,,,,,,,,,,,,,,,,prac,2,2,1,negative,negative,l,l,1,0.7661235999999008,112.28660489999993,113.28954799999974,113.26993689999972,None,112.28660489999993,None,112.28660489999993,None,112.28660489999993,None,114.02117205999988,None,114.02117205999988,None,114.02117205999988,None,,,,,,,,,,,201,24,Female,2022-04-26_13h52.41.118,Main,2022.1.1,60.00088801313762,
positive,neutral,2,l,j,,,,,1,0,18,17,,,,,,,,,,,,,,,,,,,,,,,,,,,,prac,2,2,2,neutral,positive,j,j,1,0.729975000000195,114.0417539,115.05732309999985,115.01931839999997,None,114.0417539,None,114.0417539,None,114.0417539,None,115.75324515999986,None,115.75324515999986,None,115.75324515999986,None,,,,,,,,,,,201,24,Female,2022-04-26_13h52.41.118,Main,2022.1.1,60.00088801313762,
neutral,negative,2,k,k,,,,,1,1,19,16,,,,,,,,,,,,,,,,,,,,,,,,,,,,prac,1,1,2,negative,neutral,k,k,1,0.8014673000002404,115.77817919999961,116.78724229999989,116.74974039999961,None,115.77817919999961,None,115.77817919999961,None,115.77817919999961,None,117.55773495999969,None,117.55773495999969,None,117.55773495999969,None,,,,,,,,,,,201,24,Female,2022-04-26_13h52.41.118,Main,2022.1.1,60.00088801313762,
positive,positive,1,l,j,,,,,1,2,20,2,,,,,,,,,,,,,,,,,,,,,,,,,,,,prac,2,2,1,positive,positive,j,j,1,0.7915072000000691,117.5815507999996,118.59799949999979,118.55849609999996,None,117.5815507999996,None,117.5815507999996,None,117.5815507999996,None,119.35053465999985,None,119.35053465999985,None,119.35053465999985,None,,,,,,,,,,,201,24,Female,2022-04-26_13h52.41.118,Main,2022.1.1,60.00088801313762,
negative,positive,2,j,l,,,,,1,3,21,15,,,,,,,,,,,,,,,,,,,,,,,,,,,,prac,2,2,2,positive,negative,l,l,1,0.7405319000004056,119.37102449999975,120.3832465999999,120.3444158999996,None,119.37102449999975,None,119.37102449999975,None,119.37102449999975,None,121.0946361599998,None,121.0946361599998,None,121.0946361599998,None,,,,,,,,,,,201,24,Female,2022-04-26_13h52.41.118,Main,2022.1.1,60.00088801313762,
neutral,negative,1,k,k,,,,,1,4,22,7,,,,,,,,,,,,,,,,,,,,,,,,,,,,prac,2,2,1,negative,neutral,k,k,1,0.756512500000099,121.11460149999994,122.12047279999979,122.10198059999993,None,121.11460149999994,None,121.11460149999994,None,121.11460149999994,None,122.85178405999963,None,122.85178405999963,None,122.85178405999963,None,,,,,,,,,,,201,24,Female,2022-04-26_13h52.41.118,Main,2022.1.1,60.00088801313762,
positive,negative,2,l,j,,,,,1,5,23,14,,,,,,,,,,,,,,,,,,,,,,,,,,,,prac,1,1,2,negative,positive,j,j,1,0.7049038999998629,122.87330299999985,123.88862589999962,123.85068929999989,None,122.87330299999985,None,122.87330299999985,None,122.87330299999985,None,124.56060725999973,None,124.56060725999973,None,124.56060725999973,None,,,,,,,,,,,201,24,Female,2022-04-26_13h52.41.118,Main,2022.1.1,60.00088801313762,
neutral,positive,1,k,k,,,,,1,6,24,4,,,,,,,,,,,,,,,,,,,,,,,,,,,,prac,2,2,1,positive,neutral,k,k,1,0.7825826000002962,124.58213289999958,125.60051499999963,125.56284829999959,None,124.58213289999958,None,124.58213289999958,None,124.58213289999958,None,126.34675585999989,None,126.34675585999989,None,126.34675585999989,None,,,,,,,,,,,201,24,Female,2022-04-26_13h52.41.118,Main,2022.1.1,60.00088801313762,
neutral,neutral,1,k,k,,,,,1,7,25,1,,,,,,,,,,,,,,,,,,,,,,,,,,,,prac,1,1,1,neutral,neutral,k,k,1,0.8930303000001913,126.36749359999976,127.37257460000001,127.35397869999997,None,126.36749359999976,None,126.36749359999976,None,126.36749359999976,None,128.2433469599999,None,128.2433469599999,None,128.2433469599999,None,,,,,,,,,,,201,24,Female,2022-04-26_13h52.41.118,Main,2022.1.1,60.00088801313762,
negative,negative,1,j,l,,,,,1,8,26,0,,,,,,,,,,,,,,,,,,,,,,,,,,,,prac,1,1,1,negative,negative,l,l,1,0.771999600000072,128.2636620999997,129.28046209999957,129.24066949999997,None,128.2636620999997,None,128.2636620999997,None,128.2636620999997,None,130.0262203199997,None,130.0262203199997,None,130.0262203199997,None,,,,,,,,,,,201,24,Female,2022-04-26_13h52.41.118,Main,2022.1.1,60.00088801313762,
positive,negative,1,l,j,,,,,1,9,27,5,,,,,,,,,,,,,,,,,,,,,,,,,,,,prac,2,2,1,negative,positive,j,j,1,0.785177400000066,130.03808019999997,131.04543769999964,131.02593149999984,None,130.03808019999997,None,130.03808019999997,None,130.03808019999997,None,131.80321255999965,None,131.80321255999965,None,131.80321255999965,None,,,,,,,,,,,201,24,Female,2022-04-26_13h52.41.118,Main,2022.1.1,60.00088801313762,
positive,positive,2,l,j,,,,,1,10,28,11,,,,,,,,,,,,,,,,,,,,,,,,,,,,prac,2,2,2,positive,positive,j,j,1,0.8377452999998241,131.82718569999997,132.8364105999999,132.81741599999987,None,131.82718569999997,None,131.82718569999997,None,131.82718569999997,None,133.64460635999998,None,133.64460635999998,None,133.64460635999998,None,,,,,,,,,,,201,24,Female,2022-04-26_13h52.41.118,Main,2022.1.1,60.00088801313762,
negative,neutral,2,j,l,,,,,1,11,29,12,,,,,,,,,,,,,,,,,,,,,,,,,,,,prac,1,1,2,neutral,negative,l,l,1,0.7431590000001052,133.66749189999973,134.68063569999958,134.64237649999995,None,133.66749189999973,None,133.66749189999973,None,133.66749189999973,None,135.39240175999961,None,135.39240175999961,None,135.39240175999961,None,,,,,,,,,,,201,24,Female,2022-04-26_13h52.41.118,Main,2022.1.1,60.00088801313762,
positive,neutral,1,l,j,,,,,1,12,30,8,,,,,,,,,,,,,,,,,,,,,,,,,,,,prac,2,2,1,neutral,positive,j,j,1,0.7710765000001629,135.41495149999992,136.42887599999995,136.3897651999996,None,135.41495149999992,None,135.41495149999992,None,135.41495149999992,None,137.16398975999968,None,137.16398975999968,None,137.16398975999968,None,,,,,,,,,,,201,24,Female,2022-04-26_13h52.41.118,Main,2022.1.1,60.00088801313762,
negative,positive,1,j,l,,,,,1,13,31,6,,,,,,,,,,,,,,,,,,,,,,,,,,,,prac,2,2,1,positive,negative,l,l,1,0.867098199999873,137.18584219999957,138.20236909999994,138.16492389999985,None,137.18584219999957,None,137.18584219999957,None,137.18584219999957,None,139.0325536599997,None,139.0325536599997,None,139.0325536599997,None,,,,,,,,,,,201,24,Female,2022-04-26_13h52.41.118,Main,2022.1.1,60.00088801313762,
negative,neutral,1,j,l,,,,,1,14,32,3,,,,,,,,,,,,,,,,,,,,,,,,,,,,prac,1,1,1,neutral,negative,l,l,1,0.7262228999998115,139.05483989999993,140.07069079999974,140.03144889999976,None,139.05483989999993,None,139.05483989999993,None,139.05483989999993,None,140.76270045999976,None,140.76270045999976,None,140.76270045999976,None,,,,,,,,,,,201,24,Female,2022-04-26_13h52.41.118,Main,2022.1.1,60.00088801313762,
neutral,positive,2,k,k,,,,,1,15,33,13,,,,,,,,,,,,,,,,,,,,,,,,,,,,prac,2,2,2,positive,neutral,k,k,1,0.6522475000001577,140.7845643999999,141.8020603,141.76465329999974,None,140.7845643999999,None,140.7845643999999,None,140.7845643999999,None,142.4173176599996,None,142.4173176599996,None,142.4173176599996,None,,,,,,,,,,,201,24,Female,2022-04-26_13h52.41.118,Main,2022.1.1,60.00088801313762,
negative,negative,2,j,l,,,,,1,16,34,9,,,,,,,,,,,,,,,,,,,,,,,,,,,,prac,2,2,2,negative,negative,l,l,1,0.8141199000001507,142.43741039999986,143.45323059999964,143.41544469999963,None,142.43741039999986,None,142.43741039999986,None,142.43741039999986,None,144.23414265999995,None,144.23414265999995,None,144.23414265999995,None,,,,,,,,,,,201,24,Female,2022-04-26_13h52.41.118,Main,2022.1.1,60.00088801313762,
neutral,neutral,2,k,k,,,,,1,17,35,10,,,,,,,,,,,,,,,,,,,,,,,,,,,,prac,1,1,2,neutral,neutral,k,k,1,0.900067399999898,144.25751969999965,145.27413409999963,145.23573339999984,None,144.25751969999965,None,144.25751969999965,None,144.25751969999965,None,146.1356816599999,None,146.1356816599999,None,146.1356816599999,None,,,,,,,,,,,201,24,Female,2022-04-26_13h52.41.118,Main,2022.1.1,60.00088801313762,
,,,,,,,,,,,,,,,,,,,,,,,,,,,,,,,,,,,,,,,,,,,,,,,,,,,,,,,,,,,,,,,,,,146.14455119999957,None,None,,,,,,,,201,24,Female,2022-04-26_13h52.41.118,Main,2022.1.1,60.00088801313762,
,,,,,,,,,,,,,,,,,,,,,,,,,,,,,,,,,,,,,,,,,,,,,,,,,,,,,,,,,,,,,,,,,,,,,0.0064814813,-0.31203705,1,0,0,0.004348660000232485,None,201,24,Female,2022-04-26_13h52.41.118,Main,2022.1.1,60.00088801313762,
neutral,neutral,2,k,k,,,,,,,,,0,0,0,10,,,,,,,,,,,,,,,,,,,,,,152.95662959999981,None,main,1,1,2,neutral,neutral,k,k,1,0.8114983999998913,154.9771154,155.9840347999998,155.96552249999968,None,154.9771154,None,154.9771154,None,154.9771154,None,156.76981216,None,156.76981216,None,156.76981216,None,,,,,,,,,,,201,24,Female,2022-04-26_13h52.41.118,Main,2022.1.1,60.00088801313762,
positive,positive,2,l,j,,,,,,,,,0,1,1,11,,,,,,,,,,,,,,,,,,,,,,,,main,2,2,2,positive,positive,j,j,1,0.7106808000003184,156.79154449999987,157.80933770000001,157.7689747999998,None,156.79154449999987,None,156.79154449999987,None,156.79154449999987,None,158.48214275999985,None,158.48214275999985,None,158.48214275999985,None,,,,,,,,,,,201,24,Female,2022-04-26_13h52.41.118,Main,2022.1.1,60.00088801313762,
positive,negative,1,l,j,,,,,,,,,0,2,2,5,,,,,,,,,,,,,,,,,,,,,,,,main,1,1,1,negative,positive,j,j,1,0.84315609999976,158.5067638999999,159.5191461999998,159.48246549999976,None,158.5067638999999,None,158.5067638999999,None,158.5067638999999,None,160.32798625999962,None,160.32798625999962,None,160.32798625999962,None,,,,,,,,,,,201,24,Female,2022-04-26_13h52.41.118,Main,2022.1.1,60.00088801313762,
neutral,negative,2,k,k,,,,,,,,,0,3,3,16,,,,,,,,,,,,,,,,,,,,,,,,main,2,2,2,negative,neutral,k,k,1,0.6889646999998149,160.3510852999998,161.36791829999993,161.3315407,None,160.3510852999998,None,160.3510852999998,None,160.3510852999998,None,162.0228734599999,None,162.0228734599999,None,162.0228734599999,None,,,,,,,,,,,201,24,Female,2022-04-26_13h52.41.118,Main,2022.1.1,60.00088801313762,
negative,positive,2,j,l,,,,,,,,,0,4,4,15,,,,,,,,,,,,,,,,,,,,,,,,main,2,2,2,positive,negative,l,l,1,0.630460999999741,162.04493469999989,163.05523779999976,163.01748969999971,None,162.04493469999989,None,162.04493469999989,None,162.04493469999989,None,163.65594595999968,None,163.65594595999968,None,163.65594595999968,None,,,,,,,,,,,201,24,Female,2022-04-26_13h52.41.118,Main,2022.1.1,60.00088801313762,
positive,positive,1,l,j,,,,,,,,,0,5,5,2,,,,,,,,,,,,,,,,,,,,,,,,main,1,1,1,positive,positive,j,j,1,0.7387260999998944,163.67623969999977,164.68637209999997,164.66635659999974,None,163.67623969999977,None,163.67623969999977,None,163.67623969999977,None,165.3952742599998,None,165.3952742599998,None,165.3952742599998,None,,,,,,,,,,,201,24,Female,2022-04-26_13h52.41.118,Main,2022.1.1,60.00088801313762,
neutral,positive,2,k,k,,,,,,,,,0,6,6,13,,,,,,,,,,,,,,,,,,,,,,,,main,2,2,2,positive,neutral,k,k,1,0.7057108000003609,165.41825439999957,166.42667669999992,166.4071985999999,None,165.41825439999957,None,165.41825439999957,None,165.41825439999957,None,167.10599125999974,None,167.10599125999974,None,167.10599125999974,None,,,,,,,,,,,201,24,Female,2022-04-26_13h52.41.118,Main,2022.1.1,60.00088801313762,
negative,negative,2,j,l,,,,,,,,,0,7,7,9,,,,,,,,,,,,,,,,,,,,,,,,main,2,2,2,negative,negative,l,l,1,0.7201574000000619,167.1268087999997,168.13425319999988,168.0985112999997,None,167.1268087999997,None,167.1268087999997,None,167.1268087999997,None,168.8273986599996,None,168.8273986599996,None,168.8273986599996,None,,,,,,,,,,,201,24,Female,2022-04-26_13h52.41.118,Main,2022.1.1,60.00088801313762,
positive,negative,2,l,j,,,,,,,,,0,8,8,14,,,,,,,,,,,,,,,,,,,,,,,,main,2,2,2,negative,positive,j,j,1,0.7379656000002797,168.8476241999997,169.85890599999993,169.83803579999994,None,168.8476241999997,None,168.8476241999997,None,168.8476241999997,None,170.56909475999996,None,170.56909475999996,None,170.56909475999996,None,,,,,,,,,,,201,24,Female,2022-04-26_13h52.41.118,Main,2022.1.1,60.00088801313762,
positive,neutral,1,l,j,,,,,,,,,0,9,9,8,,,,,,,,,,,,,,,,,,,,,,,,main,1,1,1,neutral,positive,j,j,1,0.861328400000275,170.58939889999965,171.59213549999959,171.5732920999999,None,170.58939889999965,None,170.58939889999965,None,170.58939889999965,None,172.43156675999975,None,172.43156675999975,None,172.43156675999975,None,,,,,,,,,,,201,24,Female,2022-04-26_13h52.41.118,Main,2022.1.1,60.00088801313762,
neutral,positive,1,k,k,,,,,,,,,0,10,10,4,,,,,,,,,,,,,,,,,,,,,,,,main,1,1,1,positive,neutral,k,k,1,0.6486302999996951,172.45630489999985,173.46715129999984,173.42981409999993,None,172.45630489999985,None,172.45630489999985,None,172.45630489999985,None,174.0814067599998,None,174.0814067599998,None,174.0814067599998,None,,,,,,,,,,,201,24,Female,2022-04-26_13h52.41.118,Main,2022.1.1,60.00088801313762,
positive,neutral,2,l,j,,,,,,,,,0,11,11,17,,,,,,,,,,,,,,,,,,,,,,,,main,1,1,2,neutral,positive,j,j,1,0.7304848999997375,174.1028070999996,175.10646279999992,175.08714849999978,None,174.1028070999996,None,174.1028070999996,None,174.1028070999996,None,175.81649805999982,None,175.81649805999982,None,175.81649805999982,None,,,,,,,,,,,201,24,Female,2022-04-26_13h52.41.118,Main,2022.1.1,60.00088801313762,
neutral,negative,1,k,k,,,,,,,,,0,12,12,7,,,,,,,,,,,,,,,,,,,,,,,,main,1,1,1,negative,neutral,k,k,1,0.8135858999999073,175.84055469999976,176.85548709999966,176.83657559999983,None,175.84055469999976,None,175.84055469999976,None,175.84055469999976,None,177.6339031599999,None,177.6339031599999,None,177.6339031599999,None,,,,,,,,,,,201,24,Female,2022-04-26_13h52.41.118,Main,2022.1.1,60.00088801313762,
negative,positive,1,j,l,,,,,,,,,0,13,13,6,,,,,,,,,,,,,,,,,,,,,,,,main,2,2,1,positive,negative,l,l,1,0.7657100000001265,177.65375929999982,178.6731278999996,178.6340607999996,None,177.65375929999982,None,177.65375929999982,None,177.65375929999982,None,179.40232555999987,None,179.40232555999987,None,179.40232555999987,None,,,,,,,,,,,201,24,Female,2022-04-26_13h52.41.118,Main,2022.1.1,60.00088801313762,
negative,negative,1,j,l,,,,,,,,,0,14,14,0,,,,,,,,,,,,,,,,,,,,,,,,main,1,1,1,negative,negative,l,l,1,0.7586129999999685,179.42260579999993,180.4292750999998,180.41014319999977,None,179.42260579999993,None,179.42260579999993,None,179.42260579999993,None,181.1608806599996,None,181.1608806599996,None,181.1608806599996,None,,,,,,,,,,,201,24,Female,2022-04-26_13h52.41.118,Main,2022.1.1,60.00088801313762,
negative,neutral,2,j,l,,,,,,,,,0,15,15,12,,,,,,,,,,,,,,,,,,,,,,,,main,1,1,2,neutral,negative,l,l,1,0.7567161000001761,181.18279959999973,182.1929879999998,182.1557101999997,None,181.18279959999973,None,181.18279959999973,None,181.18279959999973,None,182.9219283599999,None,182.9219283599999,None,182.9219283599999,None,,,,,,,,,,,201,24,Female,2022-04-26_13h52.41.118,Main,2022.1.1,60.00088801313762,
negative,neutral,1,j,l,,,,,,,,,0,16,16,3,,,,,,,,,,,,,,,,,,,,,,,,main,2,2,1,neutral,negative,l,l,1,0.6854669999997896,182.94387749999987,183.9581347999997,183.91944779999994,None,182.94387749999987,None,182.94387749999987,None,182.94387749999987,None,184.6102630599997,None,184.6102630599997,None,184.6102630599997,None,,,,,,,,,,,201,24,Female,2022-04-26_13h52.41.118,Main,2022.1.1,60.00088801313762,
neutral,neutral,1,k,k,,,,,,,,,0,17,17,1,,,,,,,,,,,,,,,,,,,,,,,,main,1,1,1,neutral,neutral,k,k,1,0.7782850000003236,184.63068209999983,185.6408664999999,185.6217385,None,184.63068209999983,None,184.63068209999983,None,184.63068209999983,None,186.39134895999982,None,186.39134895999982,None,186.39134895999982,None,,,,,,,,,,,201,24,Female,2022-04-26_13h52.41.118,Main,2022.1.1,60.00088801313762,
positive,negative,2,l,j,,,,,,,,,1,0,18,14,,,,,,,,,,,,,,,,,,,,,,,,main,2,2,2,negative,positive,j,j,1,0.7500932999996621,186.41289199999983,187.4184726999997,187.39892979999968,None,186.41289199999983,None,186.41289199999983,None,186.41289199999983,None,188.14383106,None,188.14383106,None,188.14383106,None,,,,,,,,,,,201,24,Female,2022-04-26_13h52.41.118,Main,2022.1.1,60.00088801313762,
negative,neutral,2,j,l,,,,,,,,,1,1,19,12,,,,,,,,,,,,,,,,,,,,,,,,main,1,1,2,neutral,negative,l,l,1,0.7682638999999654,188.16546219999964,189.18201939999972,189.1451864999999,None,188.16546219999964,None,188.16546219999964,None,188.16546219999964,None,189.91446575999984,None,189.91446575999984,None,189.91446575999984,None,,,,,,,,,,,201,24,Female,2022-04-26_13h52.41.118,Main,2022.1.1,60.00088801313762,
positive,negative,1,l,j,,,,,,,,,1,2,20,5,,,,,,,,,,,,,,,,,,,,,,,,main,2,2,1,negative,positive,j,j,1,0.8037579000001642,189.93512529999998,190.94578339999998,190.92688769999995,None,189.93512529999998,None,189.93512529999998,None,189.93512529999998,None,191.7224277599997,None,191.7224277599997,None,191.7224277599997,None,,,,,,,,,,,201,24,Female,2022-04-26_13h52.41.118,Main,2022.1.1,60.00088801313762,
negative,positive,1,j,l,,,,,,,,,1,3,21,6,,,,,,,,,,,,,,,,,,,,,,,,main,2,2,1,positive,negative,l,l,1,0.8102807000000212,191.7437749999999,192.75997229999984,192.7221953999997,None,191.7437749999999,None,191.7437749999999,None,191.7437749999999,None,193.53687525999962,None,193.53687525999962,None,193.53687525999962,None,,,,,,,,,,,201,24,Female,2022-04-26_13h52.41.118,Main,2022.1.1,60.00088801313762,
neutral,negative,1,k,k,,,,,,,,,1,4,22,7,,,,,,,,,,,,,,,,,,,,,,,,main,2,2,1,negative,neutral,k,k,1,0.7706157000002349,193.55915239999968,194.56148909999956,194.54294789999994,None,193.55915239999968,None,193.55915239999968,None,193.55915239999968,None,195.31001825999996,None,195.31001825999996,None,195.31001825999996,None,,,,,,,,,,,201,24,Female,2022-04-26_13h52.41.118,Main,2022.1.1,60.00088801313762,
negative,negative,2,j,l,,,,,,,,,1,5,23,9,,,,,,,,,,,,,,,,,,,,,,,,main,2,2,2,negative,negative,l,l,1,0.7734242999999879,195.33101839999972,196.3413126999999,196.32197909999968,None,195.33101839999972,None,195.33101839999972,None,195.33101839999972,None,197.08815045999958,None,197.08815045999958,None,197.08815045999958,None,,,,,,,,,,,201,24,Female,2022-04-26_13h52.41.118,Main,2022.1.1,60.00088801313762,
neutral,positive,2,k,k,,,,,,,,,1,6,24,13,,,,,,,,,,,,,,,,,,,,,,,,main,2,2,2,positive,neutral,k,k,1,0.7592091000001346,197.1099365,198.12089349999997,198.08193849999998,None,197.1099365,None,197.1099365,None,197.1099365,None,198.85002075999986,None,198.85002075999986,None,198.85002075999986,None,,,,,,,,,,,201,24,Female,2022-04-26_13h52.41.118,Main,2022.1.1,60.00088801313762,
positive,neutral,1,l,j,,,,,,,,,1,7,25,8,,,,,,,,,,,,,,,,,,,,,,,,main,1,1,1,neutral,positive,j,j,1,0.7906115999999201,198.87146229999962,199.87701349999998,199.85864739999988,None,198.87146229999962,None,198.87146229999962,None,198.87146229999962,None,200.64305615999987,None,200.64305615999987,None,200.64305615999987,None,,,,,,,,,,,201,24,Female,2022-04-26_13h52.41.118,Main,2022.1.1,60.00088801313762,
negative,negative,1,j,l,,,,,,,,,1,8,26,0,,,,,,,,,,,,,,,,,,,,,,,,main,2,2,1,negative,negative,l,l,1,0.7094910999999229,200.66351349999968,201.6797961999996,201.64158119999956,None,200.66351349999968,None,200.66351349999968,None,200.66351349999968,None,202.35520566,None,202.35520566,None,202.35520566,None,,,,,,,,,,,201,24,Female,2022-04-26_13h52.41.118,Main,2022.1.1,60.00088801313762,
negative,neutral,1,j,l,,,,,,,,,1,9,27,3,,,,,,,,,,,,,,,,,,,,,,,,main,2,2,1,neutral,negative,l,l,1,0.8012982000000193,202.37732559999995,203.3959305999997,203.3773581999999,None,202.37732559999995,None,202.37732559999995,None,202.37732559999995,None,204.15921495999996,None,204.15921495999996,None,204.15921495999996,None,,,,,,,,,,,201,24,Female,2022-04-26_13h52.41.118,Main,2022.1.1,60.00088801313762,
positive,positive,2,l,j,,,,,,,,,1,10,28,11,,,,,,,,,,,,,,,,,,,,,,,,main,1,1,2,positive,positive,j,j,1,0.8466523000001871,204.18417829999999,205.20111689999976,205.16276149999976,None,204.18417829999999,None,204.18417829999999,None,204.18417829999999,None,206.0087730599997,None,206.0087730599997,None,206.0087730599997,None,,,,,,,,,,,201,24,Female,2022-04-26_13h52.41.118,Main,2022.1.1,60.00088801313762,
positive,neutral,2,l,j,,,,,,,,,1,11,29,17,,,,,,,,,,,,,,,,,,,,,,,,main,2,2,2,neutral,positive,j,j,1,1.2090471000001344,206.03324479999992,207.0444980999996,207.00699929999973,None,206.03324479999992,None,206.03324479999992,None,206.03324479999992,None,208.22109375999966,None,208.22109375999966,None,208.22109375999966,None,,,,,,,,,,,201,24,Female,2022-04-26_13h52.41.118,Main,2022.1.1,60.00088801313762,
neutral,positive,1,k,k,,,,,,,,,1,12,30,4,,,,,,,,,,,,,,,,,,,,,,,,main,2,2,1,positive,neutral,k,k,1,0.6748657999996794,208.24151999999958,209.24333909999996,209.2244883999997,None,208.24151999999958,None,208.24151999999958,None,208.24151999999958,None,209.9002349599999,None,209.9002349599999,None,209.9002349599999,None,,,,,,,,,,,201,24,Female,2022-04-26_13h52.41.118,Main,2022.1.1,60.00088801313762,
neutral,negative,2,k,k,,,,,,,,,1,13,31,16,,,,,,,,,,,,,,,,,,,,,,,,main,1,1,2,negative,neutral,k,k,1,0.7553136999999879,209.91986569999972,210.92777009999963,210.90898359999983,None,209.91986569999972,None,209.91986569999972,None,209.91986569999972,None,211.65634315999964,None,211.65634315999964,None,211.65634315999964,None,,,,,,,,,,,201,24,Female,2022-04-26_13h52.41.118,Main,2022.1.1,60.00088801313762,
negative,positive,2,j,l,,,,,,,,,1,14,32,15,,,,,,,,,,,,,,,,,,,,,,,,main,1,1,2,positive,negative,l,l,1,0.7894665999997414,211.6767487999996,212.6924426999999,212.65534879999996,None,211.6767487999996,None,211.6767487999996,None,211.6767487999996,None,213.4502671599997,None,213.4502671599997,None,213.4502671599997,None,,,,,,,,,,,201,24,Female,2022-04-26_13h52.41.118,Main,2022.1.1,60.00088801313762,
neutral,neutral,2,k,k,,,,,,,,,1,15,33,10,,,,,,,,,,,,,,,,,,,,,,,,main,1,1,2,neutral,neutral,k,k,1,0.6964995000003,213.4705729999996,214.4728516,214.4542266999997,None,213.4705729999996,None,213.4705729999996,None,213.4705729999996,None,215.14982915999994,None,215.14982915999994,None,215.14982915999994,None,,,,,,,,,,,201,24,Female,2022-04-26_13h52.41.118,Main,2022.1.1,60.00088801313762,
neutral,neutral,1,k,k,,,,,,,,,1,16,34,1,,,,,,,,,,,,,,,,,,,,,,,,main,2,2,1,neutral,neutral,k,k,1,0.7879709000003459,215.17126029999963,216.17639499999996,216.15703529999973,None,215.17126029999963,None,215.17126029999963,None,215.17126029999963,None,216.94061636,None,216.94061636,None,216.94061636,None,,,,,,,,,,,201,24,Female,2022-04-26_13h52.41.118,Main,2022.1.1,60.00088801313762,
positive,positive,1,l,j,,,,,,,,,1,17,35,2,,,,,,,,,,,,,,,,,,,,,,,,main,1,1,1,positive,positive,j,j,1,0.6906420000000253,216.9611143999996,217.98137629999974,217.94293229999994,None,216.9611143999996,None,216.9611143999996,None,216.9611143999996,None,218.63560085999993,None,218.63560085999993,None,218.63560085999993,None,,,,,,,,,,,201,24,Female,2022-04-26_13h52.41.118,Main,2022.1.1,60.00088801313762,
neutral,neutral,1,k,k,,,,,,,,,2,0,36,1,,,,,,,,,,,,,,,,,,,,,,,,main,1,1,1,neutral,neutral,k,k,1,0.7976754999999685,218.6574857999999,219.67688409999982,219.63405909999983,None,218.6574857999999,None,218.6574857999999,None,218.6574857999999,None,220.43671585999968,None,220.43671585999968,None,220.43671585999968,None,,,,,,,,,,,201,24,Female,2022-04-26_13h52.41.118,Main,2022.1.1,60.00088801313762,
neutral,neutral,2,k,k,,,,,,,,,2,1,37,10,,,,,,,,,,,,,,,,,,,,,,,,main,2,2,2,neutral,neutral,k,k,1,0.7756273999998484,220.4575622999996,221.46409259999973,221.44502749999992,None,220.4575622999996,None,220.4575622999996,None,220.4575622999996,None,222.21583435999977,None,222.21583435999977,None,222.21583435999977,None,,,,,,,,,,,201,24,Female,2022-04-26_13h52.41.118,Main,2022.1.1,60.00088801313762,
negative,neutral,2,j,l,,,,,,,,,2,2,38,12,,,,,,,,,,,,,,,,,,,,,,,,main,1,1,2,neutral,negative,l,l,1,0.7092051999998148,222.23694549999982,223.2407530999999,223.2223984999996,None,222.23694549999982,None,222.23694549999982,None,222.23694549999982,None,223.92589566,None,223.92589566,None,223.92589566,None,,,,,,,,,,,201,24,Female,2022-04-26_13h52.41.118,Main,2022.1.1,60.00088801313762,
positive,negative,2,l,j,,,,,,,,,2,3,39,14,,,,,,,,,,,,,,,,,,,,,,,,main,2,2,2,negative,positive,j,j,1,1.3349591999999575,223.95143689999986,224.95730989999993,224.9386626999999,None,223.95143689999986,None,223.95143689999986,None,223.95143689999986,None,226.26537115999994,None,226.26537115999994,None,226.26537115999994,None,,,,,,,,,,,201,24,Female,2022-04-26_13h52.41.118,Main,2022.1.1,60.00088801313762,
positive,positive,1,l,j,,,,,,,,,2,4,40,2,,,,,,,,,,,,,,,,,,,,,,,,main,2,2,1,positive,positive,j,j,1,-0.6801575999998022,226.2877268999996,None,None,None,226.2877268999996,None,226.2877268999996,None,226.2877268999996,None,226.60161179999977,None,226.60161179999977,None,226.60161179999977,None,,,,,,,,,,,201,24,Female,2022-04-26_13h52.41.118,Main,2022.1.1,60.00088801313762,
neutral,positive,2,k,k,,,,,,,,,2,5,41,13,,,,,,,,,,,,,,,,,,,,,,,,main,2,2,2,positive,neutral,k,k,1,0.9599427999996806,229.62473819999968,230.64090279999982,230.60323589999962,None,229.62473819999968,None,229.62473819999968,None,229.62473819999968,None,231.5661516599997,None,231.5661516599997,None,231.5661516599997,None,,,,,,,,,,,201,24,Female,2022-04-26_13h52.41.118,Main,2022.1.1,60.00088801313762,
positive,neutral,2,l,j,,,,,,,,,2,6,42,17,,,,,,,,,,,,,,,,,,,,,,,,main,2,2,2,neutral,positive,j,j,1,0.8035092000000077,231.58888789999992,232.6035866999996,232.5655167,None,231.58888789999992,None,231.58888789999992,None,231.58888789999992,None,233.37175755999974,None,233.37175755999974,None,233.37175755999974,None,,,,,,,,,,,201,24,Female,2022-04-26_13h52.41.118,Main,2022.1.1,60.00088801313762,
negative,negative,2,j,l,,,,,,,,,2,7,43,9,,,,,,,,,,,,,,,,,,,,,,,,main,2,2,2,negative,negative,l,l,1,0.732099400000152,233.39690689999998,234.41515019999997,234.37687759999972,None,233.39690689999998,None,233.39690689999998,None,233.39690689999998,None,235.10678525999978,None,235.10678525999978,None,235.10678525999978,None,,,,,,,,,,,201,24,Female,2022-04-26_13h52.41.118,Main,2022.1.1,60.00088801313762,
negative,neutral,1,j,l,,,,,,,,,2,8,44,3,,,,,,,,,,,,,,,,,,,,,,,,main,1,1,1,neutral,negative,l,l,1,0.8504410000000462,235.1319096999996,236.1396494999999,236.12089369999967,None,235.1319096999996,None,235.1319096999996,None,235.1319096999996,None,236.96248365999995,None,236.96248365999995,None,236.96248365999995,None,,,,,,,,,,,201,24,Female,2022-04-26_13h52.41.118,Main,2022.1.1,60.00088801313762,
negative,positive,1,j,l,,,,,,,,,2,9,45,6,,,,,,,,,,,,,,,,,,,,,,,,main,1,1,1,positive,negative,l,l,1,0.7450122000000192,236.98463999999967,237.9922591999998,237.9568402,None,236.98463999999967,None,236.98463999999967,None,236.98463999999967,None,238.7064954599999,None,238.7064954599999,None,238.7064954599999,None,,,,,,,,,,,201,24,Female,2022-04-26_13h52.41.118,Main,2022.1.1,60.00088801313762,
positive,negative,1,l,j,,,,,,,,,2,10,46,5,,,,,,,,,,,,,,,,,,,,,,,,main,1,1,1,negative,positive,j,j,1,0.8343163000004097,238.72805909999988,239.73839259999977,239.7194631999996,None,238.72805909999988,None,238.72805909999988,None,238.72805909999988,None,240.54651125999985,None,240.54651125999985,None,240.54651125999985,None,,,,,,,,,,,201,24,Female,2022-04-26_13h52.41.118,Main,2022.1.1,60.00088801313762,
neutral,negative,2,k,k,,,,,,,,,2,11,47,16,,,,,,,,,,,,,,,,,,,,,,,,main,2,2,2,negative,neutral,k,k,1,0.7001234000003933,240.56771749999962,241.57965109999986,241.54153769999994,None,240.56771749999962,None,240.56771749999962,None,240.56771749999962,None,242.24933865999978,None,242.24933865999978,None,242.24933865999978,None,,,,,,,,,,,201,24,Female,2022-04-26_13h52.41.118,Main,2022.1.1,60.00088801313762,
positive,positive,2,l,j,,,,,,,,,2,12,48,11,,,,,,,,,,,,,,,,,,,,,,,,main,1,1,2,positive,positive,j,j,1,0.7320112000002155,242.27126069999986,243.2890342999999,243.2506441999999,None,242.27126069999986,None,242.27126069999986,None,242.27126069999986,None,243.98443875999996,None,243.98443875999996,None,243.98443875999996,None,,,,,,,,,,,201,24,Female,2022-04-26_13h52.41.118,Main,2022.1.1,60.00088801313762,
neutral,negative,1,k,k,,,,,,,,,2,13,49,7,,,,,,,,,,,,,,,,,,,,,,,,main,1,1,1,negative,neutral,k,k,1,0.7771833000001607,244.0046782999998,245.01833009999973,244.98035469999968,None,244.0046782999998,None,244.0046782999998,None,244.0046782999998,None,245.76566215999978,None,245.76566215999978,None,245.76566215999978,None,,,,,,,,,,,201,24,Female,2022-04-26_13h52.41.118,Main,2022.1.1,60.00088801313762,
neutral,positive,1,k,k,,,,,,,,,2,14,50,4,,,,,,,,,,,,,,,,,,,,,,,,main,2,2,1,positive,neutral,k,k,1,0.811161400000401,245.78605089999974,246.79467329999989,246.77438779999966,None,245.78605089999974,None,245.78605089999974,None,245.78605089999974,None,247.58045226,None,247.58045226,None,247.58045226,None,,,,,,,,,,,201,24,Female,2022-04-26_13h52.41.118,Main,2022.1.1,60.00088801313762,
positive,neutral,1,l,j,,,,,,,,,2,15,51,8,,,,,,,,,,,,,,,,,,,,,,,,main,1,1,1,neutral,positive,j,j,1,0.8066904000002069,247.6014894,248.60799889999998,248.58903259999988,None,247.6014894,None,247.6014894,None,247.6014894,None,249.39258315999982,None,249.39258315999982,None,249.39258315999982,None,,,,,,,,,,,201,24,Female,2022-04-26_13h52.41.118,Main,2022.1.1,60.00088801313762,
negative,negative,1,j,l,,,,,,,,,2,16,52,0,,,,,,,,,,,,,,,,,,,,,,,,main,1,1,1,negative,negative,l,l,1,0.7809902000003603,249.4127099999996,250.42973889999985,250.38989999999967,None,249.4127099999996,None,249.4127099999996,None,249.4127099999996,None,251.17606065999993,None,251.17606065999993,None,251.17606065999993,None,,,,,,,,,,,201,24,Female,2022-04-26_13h52.41.118,Main,2022.1.1,60.00088801313762,
negative,positive,2,j,l,,,,,,,,,2,17,53,15,,,,,,,,,,,,,,,,,,,,,,,,main,2,2,2,positive,negative,l,l,1,0.8559149000002435,251.19647459999987,252.20622429999958,252.18717389999983,None,251.19647459999987,None,251.19647459999987,None,251.19647459999987,None,253.03248265999977,None,253.03248265999977,None,253.03248265999977,None,,,,,,,,,,,201,24,Female,2022-04-26_13h52.41.118,Main,2022.1.1,60.00088801313762,
neutral,negative,1,k,k,,,,,,,,,3,0,54,7,,,,,,,,,,,,,,,,,,,,,,,,main,2,2,1,negative,neutral,k,k,1,0.7421946999997999,253.0542516999999,254.06705349999993,254.0287899,None,253.0542516999999,None,253.0542516999999,None,253.0542516999999,None,254.77932915999995,None,254.77932915999995,None,254.77932915999995,None,,,,,,,,,,,201,24,Female,2022-04-26_13h52.41.118,Main,2022.1.1,60.00088801313762,
negative,negative,2,j,l,,,,,,,,,3,1,55,9,,,,,,,,,,,,,,,,,,,,,,,,main,1,1,2,negative,negative,l,l,1,0.802441600000293,254.79925669999966,255.8024089999999,255.78360359999988,None,254.79925669999966,None,254.79925669999966,None,254.79925669999966,None,256.58471055999996,None,256.58471055999996,None,256.58471055999996,None,,,,,,,,,,,201,24,Female,2022-04-26_13h52.41.118,Main,2022.1.1,60.00088801313762,
negative,neutral,1,j,l,,,,,,,,,3,2,56,3,,,,,,,,,,,,,,,,,,,,,,,,main,2,2,1,neutral,negative,l,l,1,0.7802040999999917,256.61035159999983,257.6217922999999,257.5845244999996,None,256.61035159999983,None,256.61035159999983,None,256.61035159999983,None,258.36720865999985,None,258.36720865999985,None,258.36720865999985,None,,,,,,,,,,,201,24,Female,2022-04-26_13h52.41.118,Main,2022.1.1,60.00088801313762,
neutral,positive,1,k,k,,,,,,,,,3,3,57,4,,,,,,,,,,,,,,,,,,,,,,,,main,2,2,1,positive,neutral,k,k,1,0.7500603000003139,258.3881303999997,259.3895702,259.37052619999986,None,258.3881303999997,None,258.3881303999997,None,258.3881303999997,None,260.1200149599998,None,260.1200149599998,None,260.1200149599998,None,,,,,,,,,,,201,24,Female,2022-04-26_13h52.41.118,Main,2022.1.1,60.00088801313762,
negative,negative,1,j,l,,,,,,,,,3,4,58,0,,,,,,,,,,,,,,,,,,,,,,,,main,2,2,1,negative,negative,l,l,1,0.7293094999999994,260.1410031999999,261.1591051999999,261.12076549999983,None,260.1410031999999,None,260.1410031999999,None,260.1410031999999,None,261.8521595599999,None,261.8521595599999,None,261.8521595599999,None,,,,,,,,,,,201,24,Female,2022-04-26_13h52.41.118,Main,2022.1.1,60.00088801313762,
positive,neutral,1,l,j,,,,,,,,,3,5,59,8,,,,,,,,,,,,,,,,,,,,,,,,main,2,2,1,neutral,positive,j,j,1,0.739857199999733,261.8763823999998,262.8892105,262.8522958999997,None,261.8763823999998,None,261.8763823999998,None,261.8763823999998,None,263.5961136599998,None,263.5961136599998,None,263.5961136599998,None,,,,,,,,,,,201,24,Female,2022-04-26_13h52.41.118,Main,2022.1.1,60.00088801313762,
positive,neutral,2,l,j,,,,,,,,,3,6,60,17,,,,,,,,,,,,,,,,,,,,,,,,main,2,2,2,neutral,positive,j,j,1,0.752576500000032,263.6195507999996,264.6371632999999,264.5989963999996,None,263.6195507999996,None,263.6195507999996,None,263.6195507999996,None,265.35207716,None,265.35207716,None,265.35207716,None,,,,,,,,,,,201,24,Female,2022-04-26_13h52.41.118,Main,2022.1.1,60.00088801313762,
positive,positive,2,l,j,,,,,,,,,3,7,61,11,,,,,,,,,,,,,,,,,,,,,,,,main,2,2,2,positive,positive,j,j,1,0.7326127000001179,265.3774595,266.3925770999999,266.35466899999983,None,265.3774595,None,265.3774595,None,265.3774595,None,267.08735825999963,None,267.08735825999963,None,267.08735825999963,None,,,,,,,,,,,201,24,Female,2022-04-26_13h52.41.118,Main,2022.1.1,60.00088801313762,
neutral,neutral,1,k,k,,,,,,,,,3,8,62,1,,,,,,,,,,,,,,,,,,,,,,,,main,1,1,1,neutral,neutral,k,k,1,0.6769339000002219,267.1092096999996,268.11476449999964,268.0957977999997,None,267.1092096999996,None,267.1092096999996,None,267.1092096999996,None,268.76707185999965,None,268.76707185999965,None,268.76707185999965,None,,,,,,,,,,,201,24,Female,2022-04-26_13h52.41.118,Main,2022.1.1,60.00088801313762,
positive,positive,1,l,j,,,,,,,,,3,9,63,2,,,,,,,,,,,,,,,,,,,,,,,,main,2,2,1,positive,positive,j,j,1,0.7784119999996619,268.7886934999997,269.79894969999987,269.7797093999998,None,268.7886934999997,None,268.7886934999997,None,268.7886934999997,None,270.54884925999966,None,270.54884925999966,None,270.54884925999966,None,,,,,,,,,,,201,24,Female,2022-04-26_13h52.41.118,Main,2022.1.1,60.00088801313762,
negative,positive,1,j,l,,,,,,,,,3,10,64,6,,,,,,,,,,,,,,,,,,,,,,,,main,1,1,1,positive,negative,l,l,1,0.8019787000002907,270.57111499999974,271.5936783999996,271.5523439999997,None,270.57111499999974,None,270.57111499999974,None,270.57111499999974,None,272.35170976000006,None,272.35170976000006,None,272.35170976000006,None,,,,,,,,,,,201,24,Female,2022-04-26_13h52.41.118,Main,2022.1.1,60.00088801313762,
neutral,neutral,2,k,k,,,,,,,,,3,11,65,10,,,,,,,,,,,,,,,,,,,,,,,,main,2,2,2,neutral,neutral,k,k,1,0.7261681999998473,272.37774599999966,273.3839057,273.3607287,None,272.37774599999966,None,272.37774599999966,None,272.37774599999966,None,274.08254355999986,None,274.08254355999986,None,274.08254355999986,None,,,,,,,,,,,201,24,Female,2022-04-26_13h52.41.118,Main,2022.1.1,60.00088801313762,
negative,neutral,2,j,l,,,,,,,,,3,12,66,12,,,,,,,,,,,,,,,,,,,,,,,,main,2,2,2,neutral,negative,l,l,1,0.7631797999997616,274.10412659999974,275.10710659999995,275.08734939999977,None,274.10412659999974,None,274.10412659999974,None,274.10412659999974,None,275.84704025999997,None,275.84704025999997,None,275.84704025999997,None,,,,,,,,,,,201,24,Female,2022-04-26_13h52.41.118,Main,2022.1.1,60.00088801313762,
positive,negative,2,l,j,,,,,,,,,3,13,67,14,,,,,,,,,,,,,,,,,,,,,,,,main,1,1,2,negative,positive,j,j,1,0.8282005999999456,275.8740272,276.8906648999996,276.85012819999974,None,275.8740272,None,275.8740272,None,275.8740272,None,277.6795261599999,None,277.6795261599999,None,277.6795261599999,None,,,,,,,,,,,201,24,Female,2022-04-26_13h52.41.118,Main,2022.1.1,60.00088801313762,
neutral,negative,2,k,k,,,,,,,,,3,14,68,16,,,,,,,,,,,,,,,,,,,,,,,,main,1,1,2,negative,neutral,k,k,1,0.7685505999997986,277.7009598999998,278.70552979999957,278.68570569999974,None,277.7009598999998,None,277.7009598999998,None,277.7009598999998,None,279.4510785599999,None,279.4510785599999,None,279.4510785599999,None,,,,,,,,,,,201,24,Female,2022-04-26_13h52.41.118,Main,2022.1.1,60.00088801313762,
positive,negative,1,l,j,,,,,,,,,3,15,69,5,,,,,,,,,,,,,,,,,,,,,,,,main,1,1,1,negative,positive,j,j,1,0.8419595999998819,279.47256609999977,280.48671349999995,280.44842579999977,None,279.47256609999977,None,279.47256609999977,None,279.47256609999977,None,281.29526625999995,None,281.29526625999995,None,281.29526625999995,None,,,,,,,,,,,201,24,Female,2022-04-26_13h52.41.118,Main,2022.1.1,60.00088801313762,
negative,positive,2,j,l,,,,,,,,,3,16,70,15,,,,,,,,,,,,,,,,,,,,,,,,main,2,2,2,positive,negative,l,l,1,0.8530591000003369,281.3163631999996,282.31982709999966,282.30270629999995,None,281.3163631999996,None,281.3163631999996,None,281.3163631999996,None,283.15070535999973,None,283.15070535999973,None,283.15070535999973,None,,,,,,,,,,,201,24,Female,2022-04-26_13h52.41.118,Main,2022.1.1,60.00088801313762,
neutral,positive,2,k,k,,,,,,,,,3,17,71,13,,,,,,,,,,,,,,,,,,,,,,,,main,2,2,2,positive,neutral,k,k,1,0.8435162000000673,283.17182679999996,284.18410879999965,284.14672819999987,None,283.17182679999996,None,283.17182679999996,None,283.17182679999996,None,284.9973662599999,None,284.9973662599999,None,284.9973662599999,None,,,,,,,,,,,201,24,Female,2022-04-26_13h52.41.118,Main,2022.1.1,60.00088801313762,
positive,positive,2,l,j,,,,,,,,,4,0,72,11,,,,,,,,,,,,,,,,,,,,,,,,main,2,2,2,positive,positive,j,j,1,0.8487193999999363,285.0192585,286.0375946999998,285.99933539999984,None,285.0192585,None,285.0192585,None,285.0192585,None,286.8482804599997,None,286.8482804599997,None,286.8482804599997,None,,,,,,,,,,,201,24,Female,2022-04-26_13h52.41.118,Main,2022.1.1,60.00088801313762,
neutral,positive,2,k,k,,,,,,,,,4,1,73,13,,,,,,,,,,,,,,,,,,,,,,,,main,1,1,2,positive,neutral,k,k,1,0.8464814999997543,286.8739349999996,287.88692619999983,287.8489920999996,None,286.8739349999996,None,286.8739349999996,None,286.8739349999996,None,288.69831385999976,None,288.69831385999976,None,288.69831385999976,None,,,,,,,,,,,201,24,Female,2022-04-26_13h52.41.118,Main,2022.1.1,60.00088801313762,
neutral,neutral,2,k,k,,,,,,,,,4,2,74,10,,,,,,,,,,,,,,,,,,,,,,,,main,2,2,2,neutral,neutral,k,k,1,1.0509213000000273,288.7242537999996,289.7364306999998,289.6984846999999,None,288.7242537999996,None,288.7242537999996,None,288.7242537999996,None,290.7532749599999,None,290.7532749599999,None,290.7532749599999,None,,,,,,,,,,,201,24,Female,2022-04-26_13h52.41.118,Main,2022.1.1,60.00088801313762,
positive,positive,1,l,j,,,,,,,,,4,3,75,2,,,,,,,,,,,,,,,,,,,,,,,,main,2,2,1,positive,positive,j,j,1,0.7260024000001977,290.77385809999987,291.7853557999997,291.74956539999994,None,290.77385809999987,None,290.77385809999987,None,290.77385809999987,None,292.4797182599999,None,292.4797182599999,None,292.4797182599999,None,,,,,,,,,,,201,24,Female,2022-04-26_13h52.41.118,Main,2022.1.1,60.00088801313762,
positive,negative,1,l,j,,,,,,,,,4,4,76,5,,,,,,,,,,,,,,,,,,,,,,,,main,2,2,1,negative,positive,j,j,1,0.8471557999996548,292.50085569999965,293.5220916999997,293.48210869999957,None,292.50085569999965,None,292.50085569999965,None,292.50085569999965,None,294.32970126,None,294.32970126,None,294.32970126,None,,,,,,,,,,,201,24,Female,2022-04-26_13h52.41.118,Main,2022.1.1,60.00088801313762,
negative,negative,2,j,l,,,,,,,,,4,5,77,9,,,,,,,,,,,,,,,,,,,,,,,,main,2,2,2,negative,negative,l,l,1,0.7348692999999002,294.35162549999995,295.36262179999994,295.32555379999985,None,294.35162549999995,None,294.35162549999995,None,294.35162549999995,None,296.0670875599998,None,296.0670875599998,None,296.0670875599998,None,,,,,,,,,,,201,24,Female,2022-04-26_13h52.41.118,Main,2022.1.1,60.00088801313762,
positive,negative,2,l,j,,,,,,,,,4,6,78,14,,,,,,,,,,,,,,,,,,,,,,,,main,1,1,2,negative,positive,j,j,1,0.7940358999999262,296.09195009999985,297.10013649999973,297.0627909,None,296.09195009999985,None,296.09195009999985,None,296.09195009999985,None,297.86394935999976,None,297.86394935999976,None,297.86394935999976,None,,,,,,,,,,,201,24,Female,2022-04-26_13h52.41.118,Main,2022.1.1,60.00088801313762,
positive,neutral,2,l,j,,,,,,,,,4,7,79,17,,,,,,,,,,,,,,,,,,,,,,,,main,2,2,2,neutral,positive,j,j,1,0.822602199999892,297.88458979999996,298.90250689999993,298.8644541999997,None,297.88458979999996,None,297.88458979999996,None,297.88458979999996,None,299.6914204599997,None,299.6914204599997,None,299.6914204599997,None,,,,,,,,,,,201,24,Female,2022-04-26_13h52.41.118,Main,2022.1.1,60.00088801313762,
neutral,neutral,1,k,k,,,,,,,,,4,8,80,1,,,,,,,,,,,,,,,,,,,,,,,,main,1,1,1,neutral,neutral,k,k,1,0.6553294000000278,299.7138181999999,300.7205881,300.70112279999967,None,299.7138181999999,None,299.7138181999999,None,299.7138181999999,None,301.35279495999964,None,301.35279495999964,None,301.35279495999964,None,,,,,,,,,,,201,24,Female,2022-04-26_13h52.41.118,Main,2022.1.1,60.00088801313762,
negative,positive,2,j,l,,,,,,,,,4,9,81,15,,,,,,,,,,,,,,,,,,,,,,,,main,2,2,2,positive,negative,l,l,1,0.6766970999997284,301.3766440999998,302.39525219999996,302.35675249999986,None,301.3766440999998,None,301.3766440999998,None,301.3766440999998,None,303.0293898599997,None,303.0293898599997,None,303.0293898599997,None,,,,,,,,,,,201,24,Female,2022-04-26_13h52.41.118,Main,2022.1.1,60.00088801313762,
neutral,negative,2,k,k,,,,,,,,,4,10,82,16,,,,,,,,,,,,,,,,,,,,,,,,main,2,2,2,negative,neutral,k,k,1,0.7309863000000405,303.05498119999993,304.0750202999998,304.03694159999986,None,303.05498119999993,None,303.05498119999993,None,303.05498119999993,None,304.7630769599999,None,304.7630769599999,None,304.7630769599999,None,,,,,,,,,,,201,24,Female,2022-04-26_13h52.41.118,Main,2022.1.1,60.00088801313762,
negative,positive,1,j,l,,,,,,,,,4,11,83,6,,,,,,,,,,,,,,,,,,,,,,,,main,2,2,1,positive,negative,l,l,1,0.7022066000004088,304.78771979999965,305.7963115999996,305.7751024999998,None,304.78771979999965,None,304.78771979999965,None,304.78771979999965,None,306.46558995999965,None,306.46558995999965,None,306.46558995999965,None,,,,,,,,,,,201,24,Female,2022-04-26_13h52.41.118,Main,2022.1.1,60.00088801313762,
negative,negative,1,j,l,,,,,,,,,4,12,84,0,,,,,,,,,,,,,,,,,,,,,,,,main,1,1,1,negative,negative,l,l,1,0.6872880000000805,306.48785769999995,307.50599779999993,307.46706399999994,None,306.48785769999995,None,306.48785769999995,None,306.48785769999995,None,308.15835146000006,None,308.15835146000006,None,308.15835146000006,None,,,,,,,,,,,201,24,Female,2022-04-26_13h52.41.118,Main,2022.1.1,60.00088801313762,
negative,neutral,2,j,l,,,,,,,,,4,13,85,12,,,,,,,,,,,,,,,,,,,,,,,,main,2,2,2,neutral,negative,l,l,1,0.7488403000002108,308.1809357999996,309.1998738999996,309.1615677,None,308.1809357999996,None,308.1809357999996,None,308.1809357999996,None,309.9107643599999,None,309.9107643599999,None,309.9107643599999,None,,,,,,,,,,,201,24,Female,2022-04-26_13h52.41.118,Main,2022.1.1,60.00088801313762,
neutral,negative,1,k,k,,,,,,,,,4,14,86,7,,,,,,,,,,,,,,,,,,,,,,,,main,1,1,1,negative,neutral,k,k,1,0.7281207999999424,309.9314453999996,310.9470646,310.90978619999987,None,309.9314453999996,None,309.9314453999996,None,309.9314453999996,None,311.6416456599999,None,311.6416456599999,None,311.6416456599999,None,,,,,,,,,,,201,24,Female,2022-04-26_13h52.41.118,Main,2022.1.1,60.00088801313762,
negative,neutral,1,j,l,,,,,,,,,4,15,87,3,,,,,,,,,,,,,,,,,,,,,,,,main,1,1,1,neutral,negative,l,l,1,0.9760218999999779,311.6617073999996,312.6651474999999,312.64637159999984,None,311.6617073999996,None,311.6617073999996,None,311.6617073999996,None,313.62136055999997,None,313.62136055999997,None,313.62136055999997,None,,,,,,,,,,,201,24,Female,2022-04-26_13h52.41.118,Main,2022.1.1,60.00088801313762,
neutral,positive,1,k,k,,,,,,,,,4,16,88,4,,,,,,,,,,,,,,,,,,,,,,,,main,1,1,1,positive,neutral,k,k,1,0.7499296000000868,313.6420697999997,314.64541519999966,314.6267521999998,None,313.6420697999997,None,313.6420697999997,None,313.6420697999997,None,315.3737787599997,None,315.3737787599997,None,315.3737787599997,None,,,,,,,,,,,201,24,Female,2022-04-26_13h52.41.118,Main,2022.1.1,60.00088801313762,
positive,neutral,1,l,j,,,,,,,,,4,17,89,8,,,,,,,,,,,,,,,,,,,,,,,,main,2,2,1,neutral,positive,j,j,1,0.7840588999997635,315.3956014999999,316.4115701999999,316.3732565999999,None,315.3956014999999,None,315.3956014999999,None,315.3956014999999,None,317.1598288599997,None,317.1598288599997,None,317.1598288599997,None,,,,,,,,,,,201,24,Female,2022-04-26_13h52.41.118,Main,2022.1.1,60.00088801313762,
positive,neutral,2,l,j,,,,,,,,,5,0,90,17,,,,,,,,,,,,,,,,,,,,,,,,main,1,1,2,neutral,positive,j,j,1,0.8277952999997069,317.1855667,318.20436199999995,318.16649659999985,None,317.1855667,None,317.1855667,None,317.1855667,None,318.99084746000005,None,318.99084746000005,None,318.99084746000005,None,,,,,,,,,,,201,24,Female,2022-04-26_13h52.41.118,Main,2022.1.1,60.00088801313762,
negative,negative,2,j,l,,,,,,,,,5,1,91,9,,,,,,,,,,,,,,,,,,,,,,,,main,2,2,2,negative,negative,l,l,1,0.7878137000002425,319.01193319999993,320.0200130999997,320.00064129999964,None,319.01193319999993,None,319.01193319999993,None,319.01193319999993,None,320.7797544599997,None,320.7797544599997,None,320.7797544599997,None,,,,,,,,,,,201,24,Female,2022-04-26_13h52.41.118,Main,2022.1.1,60.00088801313762,
neutral,positive,1,k,k,,,,,,,,,5,2,92,4,,,,,,,,,,,,,,,,,,,,,,,,main,1,1,1,positive,neutral,k,k,1,0.8103941000003942,320.8011901,321.80783859999974,321.7888198999999,None,320.8011901,None,320.8011901,None,320.8011901,None,322.59352155999966,None,322.59352155999966,None,322.59352155999966,None,,,,,,,,,,,201,24,Female,2022-04-26_13h52.41.118,Main,2022.1.1,60.00088801313762,
positive,negative,1,l,j,,,,,,,,,5,3,93,5,,,,,,,,,,,,,,,,,,,,,,,,main,2,2,1,negative,positive,j,j,1,0.9284738000001198,322.6195829999997,323.63977989999967,323.6012114,None,322.6195829999997,None,322.6195829999997,None,322.6195829999997,None,324.5248037599998,None,324.5248037599998,None,324.5248037599998,None,,,,,,,,,,,201,24,Female,2022-04-26_13h52.41.118,Main,2022.1.1,60.00088801313762,
neutral,neutral,1,k,k,,,,,,,,,5,4,94,1,,,,,,,,,,,,,,,,,,,,,,,,main,1,1,1,neutral,neutral,k,k,1,0.6626338000000942,324.5453748,325.55710739999995,325.5381338999996,None,324.5453748,None,324.5453748,None,324.5453748,None,326.19063636,None,326.19063636,None,326.19063636,None,,,,,,,,,,,201,24,Female,2022-04-26_13h52.41.118,Main,2022.1.1,60.00088801313762,
negative,positive,2,j,l,,,,,,,,,5,5,95,15,,,,,,,,,,,,,,,,,,,,,,,,main,2,2,2,positive,negative,l,l,1,0.6955343999998149,326.2115219999996,327.2230536999996,327.18463429999974,None,326.2115219999996,None,326.2115219999996,None,326.2115219999996,None,327.88823046000005,None,327.88823046000005,None,327.88823046000005,None,,,,,,,,,,,201,24,Female,2022-04-26_13h52.41.118,Main,2022.1.1,60.00088801313762,
positive,negative,2,l,j,,,,,,,,,5,6,96,14,,,,,,,,,,,,,,,,,,,,,,,,main,2,2,2,negative,positive,j,j,1,0.7334805000000415,327.91044669999974,328.91461489999983,328.8952241999996,None,327.91044669999974,None,327.91044669999974,None,327.91044669999974,None,329.62522395999974,None,329.62522395999974,None,329.62522395999974,None,,,,,,,,,,,201,24,Female,2022-04-26_13h52.41.118,Main,2022.1.1,60.00088801313762,
negative,positive,1,j,l,,,,,,,,,5,7,97,6,,,,,,,,,,,,,,,,,,,,,,,,main,1,1,1,positive,negative,l,l,1,0.8621632999997928,329.64685059999965,330.66205139999965,330.6240681999998,None,329.64685059999965,None,329.64685059999965,None,329.64685059999965,None,331.48851995999973,None,331.48851995999973,None,331.48851995999973,None,,,,,,,,,,,201,24,Female,2022-04-26_13h52.41.118,Main,2022.1.1,60.00088801313762,
neutral,negative,2,k,k,,,,,,,,,5,8,98,16,,,,,,,,,,,,,,,,,,,,,,,,main,2,2,2,negative,neutral,k,k,1,0.8152318000002197,331.51126899999963,332.5138629999997,332.4953501,None,331.51126899999963,None,331.51126899999963,None,331.51126899999963,None,333.30680335999966,None,333.30680335999966,None,333.30680335999966,None,,,,,,,,,,,201,24,Female,2022-04-26_13h52.41.118,Main,2022.1.1,60.00088801313762,
negative,neutral,2,j,l,,,,,,,,,5,9,99,12,,,,,,,,,,,,,,,,,,,,,,,,main,1,1,2,neutral,negative,l,l,1,0.8088364000000183,333.3288957,334.3399915,334.30218209999975,None,333.3288957,None,333.3288957,None,333.3288957,None,335.12086315999966,None,335.12086315999966,None,335.12086315999966,None,,,,,,,,,,,201,24,Female,2022-04-26_13h52.41.118,Main,2022.1.1,60.00088801313762,
positive,neutral,1,l,j,,,,,,,,,5,10,100,8,,,,,,,,,,,,,,,,,,,,,,,,main,1,1,1,neutral,positive,j,j,1,0.9922440000000279,335.14337499999965,336.1446166999999,336.12574229999973,None,335.14337499999965,None,335.14337499999965,None,335.14337499999965,None,337.11861846,None,337.11861846,None,337.11861846,None,,,,,,,,,,,201,24,Female,2022-04-26_13h52.41.118,Main,2022.1.1,60.00088801313762,
negative,negative,1,j,l,,,,,,,,,5,11,101,0,,,,,,,,,,,,,,,,,,,,,,,,main,1,1,1,negative,negative,l,l,1,0.7068597000002228,337.1392517999998,338.1504023999996,338.1125294999997,None,337.1392517999998,None,337.1392517999998,None,337.1392517999998,None,338.82877905999965,None,338.82877905999965,None,338.82877905999965,None,,,,,,,,,,,201,24,Female,2022-04-26_13h52.41.118,Main,2022.1.1,60.00088801313762,
positive,positive,1,l,j,,,,,,,,,5,12,102,2,,,,,,,,,,,,,,,,,,,,,,,,main,1,1,1,positive,positive,j,j,1,0.7074241999998776,338.85291789999974,339.8619784999996,339.8249708999997,None,338.85291789999974,None,338.85291789999974,None,338.85291789999974,None,340.5379081599998,None,340.5379081599998,None,340.5379081599998,None,,,,,,,,,,,201,24,Female,2022-04-26_13h52.41.118,Main,2022.1.1,60.00088801313762,
neutral,negative,1,k,k,,,,,,,,,5,13,103,7,,,,,,,,,,,,,,,,,,,,,,,,main,1,1,1,negative,neutral,k,k,1,0.7754919999997583,340.5582445,341.56727279999996,341.5473981,None,340.5582445,None,340.5582445,None,340.5582445,None,342.31728845999976,None,342.31728845999976,None,342.31728845999976,None,,,,,,,,,,,201,24,Female,2022-04-26_13h52.41.118,Main,2022.1.1,60.00088801313762,
neutral,positive,2,k,k,,,,,,,,,5,14,104,13,,,,,,,,,,,,,,,,,,,,,,,,main,1,1,2,positive,neutral,k,k,1,0.8106510000002345,342.33941589999995,343.3451676999998,343.32798609999963,None,342.33941589999995,None,342.33941589999995,None,342.33941589999995,None,344.13332795999975,None,344.13332795999975,None,344.13332795999975,None,,,,,,,,,,,201,24,Female,2022-04-26_13h52.41.118,Main,2022.1.1,60.00088801313762,
negative,neutral,1,j,l,,,,,,,,,5,15,105,3,,,,,,,,,,,,,,,,,,,,,,,,main,1,1,1,neutral,negative,l,l,1,0.7527445000000625,344.1537409999996,345.1598987999996,345.1408475999997,None,344.1537409999996,None,344.1537409999996,None,344.1537409999996,None,345.88665265999987,None,345.88665265999987,None,345.88665265999987,None,,,,,,,,,,,201,24,Female,2022-04-26_13h52.41.118,Main,2022.1.1,60.00088801313762,
neutral,neutral,2,k,k,,,,,,,,,5,16,106,10,,,,,,,,,,,,,,,,,,,,,,,,main,1,1,2,neutral,neutral,k,k,1,0.749627899999723,345.90844049999987,346.9151568999996,346.8960883999998,None,345.90844049999987,None,345.90844049999987,None,345.90844049999987,None,347.63875756000004,None,347.63875756000004,None,347.63875756000004,None,,,,,,,,,,,201,24,Female,2022-04-26_13h52.41.118,Main,2022.1.1,60.00088801313762,
positive,positive,2,l,j,,,,,,,,,5,17,107,11,,,,,,,,,,,,,,,,,,,,,,,,main,2,2,2,positive,positive,j,j,1,0.845539600000393,347.65997279999965,348.6748048999998,348.6371716999997,None,347.65997279999965,None,347.65997279999965,None,347.65997279999965,None,349.4865533599999,None,349.4865533599999,None,349.4865533599999,None,,,,,,,,,,,201,24,Female,2022-04-26_13h52.41.118,Main,2022.1.1,60.00088801313762,
positive,negative,1,l,j,,,,,,,,,6,0,108,5,,,,,,,,,,,,,,,,,,,,,,,,main,2,2,1,negative,positive,j,j,1,0.9870737999999619,349.5086444999997,350.5205466999996,350.5000814,None,349.5086444999997,None,349.5086444999997,None,349.5086444999997,None,351.47710515999995,None,351.47710515999995,None,351.47710515999995,None,,,,,,,,,,,201,24,Female,2022-04-26_13h52.41.118,Main,2022.1.1,60.00088801313762,
neutral,positive,2,k,k,,,,,,,,,6,1,109,13,,,,,,,,,,,,,,,,,,,,,,,,main,2,2,2,positive,neutral,k,k,1,0.7200188000001617,351.5045747999998,352.51219909999963,352.4915467999999,None,351.5045747999998,None,351.5045747999998,None,351.5045747999998,None,353.19911495999975,None,353.19911495999975,None,353.19911495999975,None,,,,,,,,,,,201,24,Female,2022-04-26_13h52.41.118,Main,2022.1.1,60.00088801313762,
neutral,negative,1,k,k,,,,,,,,,6,2,110,7,,,,,,,,,,,,,,,,,,,,,,,,main,2,2,1,negative,neutral,k,k,1,0.8301250999998047,353.2272902999998,354.24256879999984,354.2215629999996,None,353.2272902999998,None,353.2272902999998,None,353.2272902999998,None,355.0336837599997,None,355.0336837599997,None,355.0336837599997,None,,,,,,,,,,,201,24,Female,2022-04-26_13h52.41.118,Main,2022.1.1,60.00088801313762,
positive,neutral,1,l,j,,,,,,,,,6,3,111,8,,,,,,,,,,,,,,,,,,,,,,,,main,2,2,1,neutral,positive,j,j,1,0.8926640999998199,355.06291109999984,356.0800912999998,356.0377017999999,None,355.06291109999984,None,355.06291109999984,None,355.06291109999984,None,356.92991545999973,None,356.92991545999973,None,356.92991545999973,None,,,,,,,,,,,201,24,Female,2022-04-26_13h52.41.118,Main,2022.1.1,60.00088801313762,
neutral,neutral,1,k,k,,,,,,,,,6,4,112,1,,,,,,,,,,,,,,,,,,,,,,,,main,1,1,1,neutral,neutral,k,k,1,1.0171755000001212,356.95925339999985,357.97215339999957,357.9516486999996,None,356.95925339999985,None,356.95925339999985,None,356.95925339999985,None,358.95197696,None,358.95197696,None,358.95197696,None,,,,,,,,,,,201,24,Female,2022-04-26_13h52.41.118,Main,2022.1.1,60.00088801313762,
negative,neutral,1,j,l,,,,,,,,,6,5,113,3,,,,,,,,,,,,,,,,,,,,,,,,main,2,2,1,neutral,negative,l,l,1,0.9626705999999103,358.98097989999997,359.99171799999976,359.9718660999997,None,358.98097989999997,None,358.98097989999997,None,358.98097989999997,None,360.91794765999964,None,360.91794765999964,None,360.91794765999964,None,,,,,,,,,,,201,24,Female,2022-04-26_13h52.41.118,Main,2022.1.1,60.00088801313762,
neutral,neutral,2,k,k,,,,,,,,,6,6,114,10,,,,,,,,,,,,,,,,,,,,,,,,main,1,1,2,neutral,neutral,k,k,1,0.9791409000004023,360.9429046999999,361.9615609999996,361.9397383999999,None,360.9429046999999,None,360.9429046999999,None,360.9429046999999,None,362.89970626,None,362.89970626,None,362.89970626,None,,,,,,,,,,,201,24,Female,2022-04-26_13h52.41.118,Main,2022.1.1,60.00088801313762,
negative,positive,1,j,l,,,,,,,,,6,7,115,6,,,,,,,,,,,,,,,,,,,,,,,,main,1,1,1,positive,negative,l,l,1,1.0343508999999358,362.9254778999998,363.9342004,363.9132545999996,None,362.9254778999998,None,362.9254778999998,None,362.9254778999998,None,364.93776025999966,None,364.93776025999966,None,364.93776025999966,None,,,,,,,,,,,201,24,Female,2022-04-26_13h52.41.118,Main,2022.1.1,60.00088801313762,
positive,positive,1,l,j,,,,,,,,,6,8,116,2,,,,,,,,,,,,,,,,,,,,,,,,main,2,2,1,positive,positive,j,j,1,1.5541336999999658,364.9668259,365.9724756999999,365.95170169999983,None,364.9668259,None,364.9668259,None,364.9668259,None,367.5059670999999,None,367.5059670999999,None,367.5059670999999,None,,,,,,,,,,,201,24,Female,2022-04-26_13h52.41.118,Main,2022.1.1,60.00088801313762,
neutral,negative,2,k,k,,,,,,,,,6,9,117,16,,,,,,,,,,,,,,,,,,,,,,,,main,1,1,2,negative,neutral,k,k,1,0.9136334999998326,368.5281917999996,369.54442219999964,369.52279739999994,None,368.5281917999996,None,368.5281917999996,None,368.5281917999996,None,370.41607515999965,None,370.41607515999965,None,370.41607515999965,None,,,,,,,,,,,201,24,Female,2022-04-26_13h52.41.118,Main,2022.1.1,60.00088801313762,
positive,positive,2,l,j,,,,,,,,,6,10,118,11,,,,,,,,,,,,,,,,,,,,,,,,main,2,2,2,positive,positive,j,j,1,0.88202339999998,370.44212649999963,371.45524879999994,371.4350846999996,None,370.44212649999963,None,370.44212649999963,None,370.44212649999963,None,372.3014508599998,None,372.3014508599998,None,372.3014508599998,None,,,,,,,,,,,201,24,Female,2022-04-26_13h52.41.118,Main,2022.1.1,60.00088801313762,
positive,negative,2,l,j,,,,,,,,,6,11,119,14,,,,,,,,,,,,,,,,,,,,,,,,main,1,1,2,negative,positive,j,j,1,0.8564985000002707,372.32689349999964,373.34730739999986,373.3062093999997,None,372.32689349999964,None,372.32689349999964,None,372.32689349999964,None,374.1622682599999,None,374.1622682599999,None,374.1622682599999,None,,,,,,,,,,,201,24,Female,2022-04-26_13h52.41.118,Main,2022.1.1,60.00088801313762,
neutral,positive,1,k,k,,,,,,,,,6,12,120,4,,,,,,,,,,,,,,,,,,,,,,,,main,1,1,1,positive,neutral,k,k,1,0.7178876000002674,374.18896529999984,375.1940631999996,375.17344019999973,None,374.18896529999984,None,374.18896529999984,None,374.18896529999984,None,375.8847003599998,None,375.8847003599998,None,375.8847003599998,None,,,,,,,,,,,201,24,Female,2022-04-26_13h52.41.118,Main,2022.1.1,60.00088801313762,
negative,negative,1,j,l,,,,,,,,,6,13,121,0,,,,,,,,,,,,,,,,,,,,,,,,main,1,1,1,negative,negative,l,l,1,0.8222405999999864,375.91076299999986,376.9341224,376.8928409,None,375.91076299999986,None,375.91076299999986,None,375.91076299999986,None,377.71119506,None,377.71119506,None,377.71119506,None,,,,,,,,,,,201,24,Female,2022-04-26_13h52.41.118,Main,2022.1.1,60.00088801313762,
positive,neutral,2,l,j,,,,,,,,,6,14,122,17,,,,,,,,,,,,,,,,,,,,,,,,main,2,2,2,neutral,positive,j,j,1,0.8735359000002063,377.7438794999998,378.7670506999998,378.72417799999994,None,377.7438794999998,None,377.7438794999998,None,377.7438794999998,None,379.5880865599996,None,379.5880865599996,None,379.5880865599996,None,,,,,,,,,,,201,24,Female,2022-04-26_13h52.41.118,Main,2022.1.1,60.00088801313762,
negative,positive,2,j,l,,,,,,,,,6,15,123,15,,,,,,,,,,,,,,,,,,,,,,,,main,2,2,2,positive,negative,l,l,1,0.9944150000001173,379.61787159999994,380.62813819999974,380.6062136999999,None,379.61787159999994,None,379.61787159999994,None,379.61787159999994,None,381.58591855999964,None,381.58591855999964,None,381.58591855999964,None,,,,,,,,,,,201,24,Female,2022-04-26_13h52.41.118,Main,2022.1.1,60.00088801313762,
negative,negative,2,j,l,,,,,,,,,6,16,124,9,,,,,,,,,,,,,,,,,,,,,,,,main,1,1,2,negative,negative,l,l,1,0.7192653000001883,381.6116221999996,382.6233588,382.60165089999964,None,381.6116221999996,None,381.6116221999996,None,381.6116221999996,None,383.31035175999966,None,383.31035175999966,None,383.31035175999966,None,,,,,,,,,,,201,24,Female,2022-04-26_13h52.41.118,Main,2022.1.1,60.00088801313762,
negative,neutral,2,j,l,,,,,,,,,6,17,125,12,,,,,,,,,,,,,,,,,,,,,,,,main,2,2,2,neutral,negative,l,l,1,0.7017720999997437,383.3375895999998,384.3543292999998,384.33321939999996,None,383.3375895999998,None,383.3375895999998,None,383.3375895999998,None,385.0180848599997,None,385.0180848599997,None,385.0180848599997,None,,,,,,,,,,,201,24,Female,2022-04-26_13h52.41.118,Main,2022.1.1,60.00088801313762,
negative,neutral,1,j,l,,,,,,,,,7,0,126,3,,,,,,,,,,,,,,,,,,,,,,,,main,1,1,1,neutral,negative,l,l,1,1.0678273000003173,385.04312649999974,386.0481708999996,386.0274089999998,None,385.04312649999974,None,385.04312649999974,None,385.04312649999974,None,387.0897148599996,None,387.0897148599996,None,387.0897148599996,None,,,,,,,,,,,201,24,Female,2022-04-26_13h52.41.118,Main,2022.1.1,60.00088801313762,
neutral,positive,2,k,k,,,,,,,,,7,1,127,13,,,,,,,,,,,,,,,,,,,,,,,,main,1,1,2,positive,neutral,k,k,1,0.8144701000001078,387.1153812999996,388.12122,388.10138979999965,None,387.1153812999996,None,387.1153812999996,None,387.1153812999996,None,388.9069705599999,None,388.9069705599999,None,388.9069705599999,None,,,,,,,,,,,201,24,Female,2022-04-26_13h52.41.118,Main,2022.1.1,60.00088801313762,
positive,negative,1,l,j,,,,,,,,,7,2,128,5,,,,,,,,,,,,,,,,,,,,,,,,main,2,2,1,negative,positive,j,j,1,0.8003777000003538,388.9317609,389.9362322999996,389.91615729999967,None,388.9317609,None,388.9317609,None,388.9317609,None,390.70990556000004,None,390.70990556000004,None,390.70990556000004,None,,,,,,,,,,,201,24,Female,2022-04-26_13h52.41.118,Main,2022.1.1,60.00088801313762,
neutral,neutral,1,k,k,,,,,,,,,7,3,129,1,,,,,,,,,,,,,,,,,,,,,,,,main,2,2,1,neutral,neutral,k,k,1,0.7133696000000782,390.73828079999976,391.7608083,391.7189470999997,None,390.73828079999976,None,390.73828079999976,None,390.73828079999976,None,392.42869075999977,None,392.42869075999977,None,392.42869075999977,None,,,,,,,,,,,201,24,Female,2022-04-26_13h52.41.118,Main,2022.1.1,60.00088801313762,
positive,positive,1,l,j,,,,,,,,,7,4,130,2,,,,,,,,,,,,,,,,,,,,,,,,main,2,2,1,positive,positive,j,j,1,0.7909800000002178,392.45505589999993,393.47455089999994,393.4342179999999,None,392.45505589999993,None,392.45505589999993,None,392.45505589999993,None,394.2239031599996,None,394.2239031599996,None,394.2239031599996,None,,,,,,,,,,,201,24,Female,2022-04-26_13h52.41.118,Main,2022.1.1,60.00088801313762,
negative,negative,2,j,l,,,,,,,,,7,5,131,9,,,,,,,,,,,,,,,,,,,,,,,,main,2,2,2,negative,negative,l,l,1,0.8328406000000541,394.2492964999997,395.2556671999996,395.23459269999967,None,394.2492964999997,None,394.2492964999997,None,394.2492964999997,None,396.06010486,None,396.06010486,None,396.06010486,None,,,,,,,,,,,201,24,Female,2022-04-26_13h52.41.118,Main,2022.1.1,60.00088801313762,
neutral,negative,2,k,k,,,,,,,,,7,6,132,16,,,,,,,,,,,,,,,,,,,,,,,,main,1,1,2,negative,neutral,k,k,1,0.8814357999999629,396.0852494999999,397.09321299999965,397.07245369999964,None,396.0852494999999,None,396.0852494999999,None,396.0852494999999,None,397.9451322599997,None,397.9451322599997,None,397.9451322599997,None,,,,,,,,,,,201,24,Female,2022-04-26_13h52.41.118,Main,2022.1.1,60.00088801313762,
neutral,positive,1,k,k,,,,,,,,,7,7,133,4,,,,,,,,,,,,,,,,,,,,,,,,main,1,1,1,positive,neutral,k,k,1,1.0181053999999676,397.97128189999967,398.9943536999999,398.95319119999976,None,397.97128189999967,None,397.97128189999967,None,397.97128189999967,None,399.9664726599998,None,399.9664726599998,None,399.9664726599998,None,,,,,,,,,,,201,24,Female,2022-04-26_13h52.41.118,Main,2022.1.1,60.00088801313762,
negative,negative,1,j,l,,,,,,,,,7,8,134,0,,,,,,,,,,,,,,,,,,,,,,,,main,2,2,1,negative,negative,l,l,1,0.8027764000003117,399.9917839999998,400.99675039999966,400.97617999999966,None,399.9917839999998,None,399.9917839999998,None,399.9917839999998,None,401.77009106,None,401.77009106,None,401.77009106,None,,,,,,,,,,,201,24,Female,2022-04-26_13h52.41.118,Main,2022.1.1,60.00088801313762,
negative,positive,1,j,l,,,,,,,,,7,9,135,6,,,,,,,,,,,,,,,,,,,,,,,,main,2,2,1,positive,negative,l,l,1,0.9045467000000826,401.7974552999999,402.81713979999995,402.77694349999956,None,401.7974552999999,None,401.7974552999999,None,401.7974552999999,None,403.67993595999985,None,403.67993595999985,None,403.67993595999985,None,,,,,,,,,,,201,24,Female,2022-04-26_13h52.41.118,Main,2022.1.1,60.00088801313762,
negative,neutral,2,j,l,,,,,,,,,7,10,136,12,,,,,,,,,,,,,,,,,,,,,,,,main,2,2,2,neutral,negative,l,l,1,1.0282374999997046,403.70722439999963,404.72696149999956,404.70500939999965,None,403.70722439999963,None,403.70722439999963,None,403.70722439999963,None,405.71138285999984,None,405.71138285999984,None,405.71138285999984,None,,,,,,,,,,,201,24,Female,2022-04-26_13h52.41.118,Main,2022.1.1,60.00088801313762,
negative,positive,2,j,l,,,,,,,,,7,11,137,15,,,,,,,,,,,,,,,,,,,,,,,,main,2,2,2,positive,negative,l,l,1,0.6885250000000269,405.7367298999998,406.75880089999964,406.7148552999997,None,405.7367298999998,None,405.7367298999998,None,405.7367298999998,None,407.4040481599999,None,407.4040481599999,None,407.4040481599999,None,,,,,,,,,,,201,24,Female,2022-04-26_13h52.41.118,Main,2022.1.1,60.00088801313762,
positive,positive,2,l,j,,,,,,,,,7,12,138,11,,,,,,,,,,,,,,,,,,,,,,,,main,2,2,2,positive,positive,j,j,1,0.9890338000000156,407.42934279999963,408.43521139999984,408.4152156,None,407.42934279999963,None,407.42934279999963,None,407.42934279999963,None,409.39506875999984,None,409.39506875999984,None,409.39506875999984,None,,,,,,,,,,,201,24,Female,2022-04-26_13h52.41.118,Main,2022.1.1,60.00088801313762,
positive,neutral,2,l,j,,,,,,,,,7,13,139,17,,,,,,,,,,,,,,,,,,,,,,,,main,2,2,2,neutral,positive,j,j,1,0.9307776000000558,409.42145569999957,410.42536189999964,410.40382699999964,None,409.42145569999957,None,409.42145569999957,None,409.42145569999957,None,411.3286798599996,None,411.3286798599996,None,411.3286798599996,None,,,,,,,,,,,201,24,Female,2022-04-26_13h52.41.118,Main,2022.1.1,60.00088801313762,
positive,neutral,1,l,j,,,,,,,,,7,14,140,8,,,,,,,,,,,,,,,,,,,,,,,,main,2,2,1,neutral,positive,j,j,1,1.4690522000000783,411.3583725999997,412.37592259999974,412.35521759999983,None,411.3583725999997,None,411.3583725999997,None,411.3583725999997,None,413.80283905999966,None,413.80283905999966,None,413.80283905999966,None,,,,,,,,,,,201,24,Female,2022-04-26_13h52.41.118,Main,2022.1.1,60.00088801313762,
neutral,negative,1,k,k,,,,,,,,,7,15,141,7,,,,,,,,,,,,,,,,,,,,,,,,main,2,2,1,negative,neutral,k,k,1,0.7592359000000215,413.8286321999999,414.8340036999998,414.81331699999964,None,413.8286321999999,None,413.8286321999999,None,413.8286321999999,None,415.56323515999964,None,415.56323515999964,None,415.56323515999964,None,,,,,,,,,,,201,24,Female,2022-04-26_13h52.41.118,Main,2022.1.1,60.00088801313762,
neutral,neutral,2,k,k,,,,,,,,,7,16,142,10,,,,,,,,,,,,,,,,,,,,,,,,main,2,2,2,neutral,neutral,k,k,1,0.9873210000000654,415.59450249999963,416.6146974999997,416.57188789999964,None,415.59450249999963,None,415.59450249999963,None,415.59450249999963,None,417.5556041599997,None,417.5556041599997,None,417.5556041599997,None,,,,,,,,,,,201,24,Female,2022-04-26_13h52.41.118,Main,2022.1.1,60.00088801313762,
positive,negative,2,l,j,,,,,,,,,7,17,143,14,,,,,,,,,,,,,,,,,,,,,,,,main,1,1,2,negative,positive,j,j,1,0.8862527999999656,417.5813446999996,418.5868369,418.5657143999997,None,417.5813446999996,None,417.5813446999996,None,417.5813446999996,None,419.44421015999967,None,419.44421015999967,None,419.44421015999967,None,,,,,,,,,,,201,24,Female,2022-04-26_13h52.41.118,Main,2022.1.1,60.00088801313762,
positive,positive,2,l,j,,,,,,,,,8,0,144,11,,,,,,,,,,,,,,,,,,,,,,,,main,2,2,2,positive,positive,j,j,1,0.8028079000000616,419.4740988999997,420.4800594999997,420.45883239999966,None,419.4740988999997,None,419.4740988999997,None,419.4740988999997,None,421.25000395999984,None,421.25000395999984,None,421.25000395999984,None,,,,,,,,,,,201,24,Female,2022-04-26_13h52.41.118,Main,2022.1.1,60.00088801313762,
negative,negative,2,j,l,,,,,,,,,8,1,145,9,,,,,,,,,,,,,,,,,,,,,,,,main,2,2,2,negative,negative,l,l,1,0.690747100000408,421.2779504,422.3001505999996,422.2595044999998,None,421.2779504,None,421.2779504,None,421.2779504,None,422.94472325999993,None,422.94472325999993,None,422.94472325999993,None,,,,,,,,,,,201,24,Female,2022-04-26_13h52.41.118,Main,2022.1.1,60.00088801313762,
neutral,positive,2,k,k,,,,,,,,,8,2,146,13,,,,,,,,,,,,,,,,,,,,,,,,main,1,1,2,positive,neutral,k,k,1,0.7780655999999908,422.9756460999997,423.98878779999995,423.9691782,None,422.9756460999997,None,422.9756460999997,None,422.9756460999997,None,424.7274880599997,None,424.7274880599997,None,424.7274880599997,None,,,,,,,,,,,201,24,Female,2022-04-26_13h52.41.118,Main,2022.1.1,60.00088801313762,
neutral,neutral,2,k,k,,,,,,,,,8,3,147,10,,,,,,,,,,,,,,,,,,,,,,,,main,1,1,2,neutral,neutral,k,k,1,0.816964800000278,424.7583099999997,425.7633083999999,425.74237219999986,None,424.7583099999997,None,424.7583099999997,None,424.7583099999997,None,426.5516625599997,None,426.5516625599997,None,426.5516625599997,None,,,,,,,,,,,201,24,Female,2022-04-26_13h52.41.118,Main,2022.1.1,60.00088801313762,
neutral,positive,1,k,k,,,,,,,,,8,4,148,4,,,,,,,,,,,,,,,,,,,,,,,,main,1,1,1,positive,neutral,k,k,1,0.8233108999997967,426.5727256,427.5936150999996,427.55166999999983,None,426.5727256,None,426.5727256,None,426.5727256,None,428.37271185999987,None,428.37271185999987,None,428.37271185999987,None,,,,,,,,,,,201,24,Female,2022-04-26_13h52.41.118,Main,2022.1.1,60.00088801313762,
negative,neutral,2,j,l,,,,,,,,,8,5,149,12,,,,,,,,,,,,,,,,,,,,,,,,main,1,1,2,neutral,negative,l,l,1,0.8415829000000485,428.40101609999965,429.41688799999974,429.3958740999997,None,428.40101609999965,None,428.40101609999965,None,428.40101609999965,None,430.2214044599999,None,430.2214044599999,None,430.2214044599999,None,,,,,,,,,,,201,24,Female,2022-04-26_13h52.41.118,Main,2022.1.1,60.00088801313762,
neutral,negative,1,k,k,,,,,,,,,8,6,150,7,,,,,,,,,,,,,,,,,,,,,,,,main,1,1,1,negative,neutral,k,j,0,1.162488100000246,430.24808939999957,431.25594969999975,431.2337169999996,None,430.24808939999957,None,430.24808939999957,None,430.24808939999957,None,432.40156449999995,None,432.40156449999995,None,432.40156449999995,None,,,,,,,,,,,201,24,Female,2022-04-26_13h52.41.118,Main,2022.1.1,60.00088801313762,
positive,negative,2,l,j,,,,,,,,,8,7,151,14,,,,,,,,,,,,,,,,,,,,,,,,main,1,1,2,negative,positive,j,j,1,1.0934621000001243,433.4204557999997,434.44273699999985,434.42181549999987,None,433.4204557999997,None,433.4204557999997,None,433.4204557999997,None,435.48940705999973,None,435.48940705999973,None,435.48940705999973,None,,,,,,,,,,,201,24,Female,2022-04-26_13h52.41.118,Main,2022.1.1,60.00088801313762,
negative,positive,1,j,l,,,,,,,,,8,8,152,6,,,,,,,,,,,,,,,,,,,,,,,,main,2,2,1,positive,negative,l,l,1,0.8164682000001449,435.51622799999996,436.5307955999997,436.50920789999964,None,435.51622799999996,None,435.51622799999996,None,435.51622799999996,None,437.3093850599997,None,437.3093850599997,None,437.3093850599997,None,,,,,,,,,,,201,24,Female,2022-04-26_13h52.41.118,Main,2022.1.1,60.00088801313762,
negative,positive,2,j,l,,,,,,,,,8,9,153,15,,,,,,,,,,,,,,,,,,,,,,,,main,1,1,2,positive,negative,l,l,1,1.2492020000004231,437.339293,438.3589735999999,438.3191386999997,None,437.339293,None,437.339293,None,437.339293,None,439.56038075999993,None,439.56038075999993,None,439.56038075999993,None,,,,,,,,,,,201,24,Female,2022-04-26_13h52.41.118,Main,2022.1.1,60.00088801313762,
neutral,neutral,1,k,k,,,,,,,,,8,10,154,1,,,,,,,,,,,,,,,,,,,,,,,,main,1,1,1,neutral,neutral,k,k,1,0.707837599999948,439.5895286,440.59684609999977,440.5788865999998,None,439.5895286,None,439.5895286,None,439.5895286,None,441.27411175999976,None,441.27411175999976,None,441.27411175999976,None,,,,,,,,,,,201,24,Female,2022-04-26_13h52.41.118,Main,2022.1.1,60.00088801313762,
neutral,negative,2,k,k,,,,,,,,,8,11,155,16,,,,,,,,,,,,,,,,,,,,,,,,main,1,1,2,negative,neutral,k,k,1,0.8242147999999361,441.2994442999998,442.3138823999998,442.2937316999996,None,441.2994442999998,None,441.2994442999998,None,441.2994442999998,None,443.1023430599997,None,443.1023430599997,None,443.1023430599997,None,,,,,,,,,,,201,24,Female,2022-04-26_13h52.41.118,Main,2022.1.1,60.00088801313762,
positive,neutral,1,l,j,,,,,,,,,8,12,156,8,,,,,,,,,,,,,,,,,,,,,,,,main,1,1,1,neutral,positive,j,j,1,0.7987983000002714,443.12888559999965,444.1328116999998,444.11213359999965,None,443.12888559999965,None,443.12888559999965,None,443.12888559999965,None,444.90565116000005,None,444.90565116000005,None,444.90565116000005,None,,,,,,,,,,,201,24,Female,2022-04-26_13h52.41.118,Main,2022.1.1,60.00088801313762,
negative,neutral,1,j,l,,,,,,,,,8,13,157,3,,,,,,,,,,,,,,,,,,,,,,,,main,2,2,1,neutral,negative,l,l,1,0.7644847000001391,444.93275289999974,445.95398179999984,445.9136315999999,None,444.93275289999974,None,444.93275289999974,None,444.93275289999974,None,446.6719094599997,None,446.6719094599997,None,446.6719094599997,None,,,,,,,,,,,201,24,Female,2022-04-26_13h52.41.118,Main,2022.1.1,60.00088801313762,
negative,negative,1,j,l,,,,,,,,,8,14,158,0,,,,,,,,,,,,,,,,,,,,,,,,main,2,2,1,negative,negative,l,l,1,0.7259357000002638,446.7020848999996,447.72773099999995,447.68434929999967,None,446.7020848999996,None,446.7020848999996,None,446.7020848999996,None,448.4024886599999,None,448.4024886599999,None,448.4024886599999,None,,,,,,,,,,,201,24,Female,2022-04-26_13h52.41.118,Main,2022.1.1,60.00088801313762,
positive,neutral,2,l,j,,,,,,,,,8,15,159,17,,,,,,,,,,,,,,,,,,,,,,,,main,1,1,2,neutral,positive,j,j,1,0.7867106000003332,448.42939909999996,449.4332860999998,449.41322309999987,None,448.42939909999996,None,448.42939909999996,None,448.42939909999996,None,450.19308195999963,None,450.19308195999963,None,450.19308195999963,None,,,,,,,,,,,201,24,Female,2022-04-26_13h52.41.118,Main,2022.1.1,60.00088801313762,
positive,positive,1,l,j,,,,,,,,,8,16,160,2,,,,,,,,,,,,,,,,,,,,,,,,main,1,1,1,positive,positive,j,j,1,0.731543800000054,450.21813779999957,451.22531169999957,451.2043501999997,None,450.21813779999957,None,450.21813779999957,None,450.21813779999957,None,451.92749236,None,451.92749236,None,451.92749236,None,,,,,,,,,,,201,24,Female,2022-04-26_13h52.41.118,Main,2022.1.1,60.00088801313762,
positive,negative,1,l,j,,,,,,,,,8,17,161,5,,,,,,,,,,,,,,,,,,,,,,,,main,2,2,1,negative,positive,j,j,1,0.7786528000001454,451.95241179999994,452.9615260999999,452.94168569999965,None,451.95241179999994,None,451.95241179999994,None,451.95241179999994,None,453.70821676,None,453.70821676,None,453.70821676,None,,,,,,,,,,,201,24,Female,2022-04-26_13h52.41.118,Main,2022.1.1,60.00088801313762,
positive,neutral,1,l,j,,,,,,,,,9,0,162,8,,,,,,,,,,,,,,,,,,,,,,,,main,2,2,1,neutral,positive,j,j,1,0.8147859999999127,453.74321859999964,454.7574050999997,454.7376684999999,None,453.74321859999964,None,453.74321859999964,None,453.74321859999964,None,455.5275649599997,None,455.5275649599997,None,455.5275649599997,None,,,,,,,,,,,201,24,Female,2022-04-26_13h52.41.118,Main,2022.1.1,60.00088801313762,
positive,neutral,2,l,j,,,,,,,,,9,1,163,17,,,,,,,,,,,,,,,,,,,,,,,,main,2,2,2,neutral,positive,j,j,1,0.7965462000001935,455.5526157999998,456.56855499999983,456.5458560999996,None,455.5526157999998,None,455.5526157999998,None,455.5526157999998,None,457.3301372599998,None,457.3301372599998,None,457.3301372599998,None,,,,,,,,,,,201,24,Female,2022-04-26_13h52.41.118,Main,2022.1.1,60.00088801313762,
neutral,negative,2,k,k,,,,,,,,,9,2,164,16,,,,,,,,,,,,,,,,,,,,,,,,main,2,2,2,negative,neutral,k,k,1,0.7047441999998227,457.3559848,458.3730836,458.3325769999997,None,457.3559848,None,457.3559848,None,457.3559848,None,459.03454636000004,None,459.03454636000004,None,459.03454636000004,None,,,,,,,,,,,201,24,Female,2022-04-26_13h52.41.118,Main,2022.1.1,60.00088801313762,
neutral,negative,1,k,k,,,,,,,,,9,3,165,7,,,,,,,,,,,,,,,,,,,,,,,,main,2,2,1,negative,neutral,k,k,1,0.8914823999998589,459.06496789999983,460.0869679999996,460.06552439999996,None,459.06496789999983,None,459.06496789999983,None,459.06496789999983,None,460.9330914599999,None,460.9330914599999,None,460.9330914599999,None,,,,,,,,,,,201,24,Female,2022-04-26_13h52.41.118,Main,2022.1.1,60.00088801313762,
positive,positive,2,l,j,,,,,,,,,9,4,166,11,,,,,,,,,,,,,,,,,,,,,,,,main,2,2,2,positive,positive,j,j,1,0.9997942999998486,460.96076089999997,461.9733892999998,461.953211,None,460.96076089999997,None,460.96076089999997,None,460.96076089999997,None,462.93706396000005,None,462.93706396000005,None,462.93706396000005,None,,,,,,,,,,,201,24,Female,2022-04-26_13h52.41.118,Main,2022.1.1,60.00088801313762,
neutral,positive,2,k,k,,,,,,,,,9,5,167,13,,,,,,,,,,,,,,,,,,,,,,,,main,1,1,2,positive,neutral,k,k,1,0.9144154999999046,462.96336969999993,463.9876842999997,463.94493839999996,None,462.96336969999993,None,462.96336969999993,None,462.96336969999993,None,464.85263225999995,None,464.85263225999995,None,464.85263225999995,None,,,,,,,,,,,201,24,Female,2022-04-26_13h52.41.118,Main,2022.1.1,60.00088801313762,
negative,negative,2,j,l,,,,,,,,,9,6,168,9,,,,,,,,,,,,,,,,,,,,,,,,main,1,1,2,negative,negative,l,l,1,0.8330277000000024,464.8830823999997,465.90410889999976,465.8624184999999,None,464.8830823999997,None,464.8830823999997,None,464.8830823999997,None,466.69134215999964,None,466.69134215999964,None,466.69134215999964,None,,,,,,,,,,,201,24,Female,2022-04-26_13h52.41.118,Main,2022.1.1,60.00088801313762,
positive,negative,2,l,j,,,,,,,,,9,7,169,14,,,,,,,,,,,,,,,,,,,,,,,,main,2,2,2,negative,positive,j,j,1,0.9856218999998418,466.7130745999998,467.72490259999995,467.70426369999996,None,466.7130745999998,None,466.7130745999998,None,466.7130745999998,None,468.6825121599999,None,468.6825121599999,None,468.6825121599999,None,,,,,,,,,,,201,24,Female,2022-04-26_13h52.41.118,Main,2022.1.1,60.00088801313762,
negative,negative,1,j,l,,,,,,,,,9,8,170,0,,,,,,,,,,,,,,,,,,,,,,,,main,1,1,1,negative,negative,l,l,1,0.8088050999999723,468.70373789999985,469.7157881999997,469.69506079999974,None,468.70373789999985,None,468.70373789999985,None,468.70373789999985,None,470.48965166000005,None,470.48965166000005,None,470.48965166000005,None,,,,,,,,,,,201,24,Female,2022-04-26_13h52.41.118,Main,2022.1.1,60.00088801313762,
neutral,neutral,2,k,k,,,,,,,,,9,9,171,10,,,,,,,,,,,,,,,,,,,,,,,,main,2,2,2,neutral,neutral,k,k,1,0.9156733999998323,470.5186480999996,471.5406449999996,471.4992434999999,None,470.5186480999996,None,470.5186480999996,None,470.5186480999996,None,472.40810715999976,None,472.40810715999976,None,472.40810715999976,None,,,,,,,,,,,201,24,Female,2022-04-26_13h52.41.118,Main,2022.1.1,60.00088801313762,
negative,neutral,1,j,l,,,,,,,,,9,10,172,3,,,,,,,,,,,,,,,,,,,,,,,,main,2,2,1,neutral,negative,l,l,1,0.8965551999999661,472.43893819999994,473.4563896999998,473.4354564999999,None,472.43893819999994,None,472.43893819999994,None,472.43893819999994,None,474.3103430599998,None,474.3103430599998,None,474.3103430599998,None,,,,,,,,,,,201,24,Female,2022-04-26_13h52.41.118,Main,2022.1.1,60.00088801313762,
positive,positive,1,l,j,,,,,,,,,9,11,173,2,,,,,,,,,,,,,,,,,,,,,,,,main,1,1,1,positive,positive,j,j,1,0.780813500000022,474.33571429999984,475.3451522999999,475.3223754999999,None,474.33571429999984,None,474.33571429999984,None,474.33571429999984,None,476.0927614599999,None,476.0927614599999,None,476.0927614599999,None,,,,,,,,,,,201,24,Female,2022-04-26_13h52.41.118,Main,2022.1.1,60.00088801313762,
neutral,positive,1,k,k,,,,,,,,,9,12,174,4,,,,,,,,,,,,,,,,,,,,,,,,main,1,1,1,positive,neutral,k,k,1,0.906043899999986,476.12216709999984,477.1263829999998,477.10715279999977,None,476.12216709999984,None,476.12216709999984,None,476.12216709999984,None,478.0016893599999,None,478.0016893599999,None,478.0016893599999,None,,,,,,,,,,,201,24,Female,2022-04-26_13h52.41.118,Main,2022.1.1,60.00088801313762,
negative,positive,2,j,l,,,,,,,,,9,13,175,15,,,,,,,,,,,,,,,,,,,,,,,,main,2,2,2,positive,negative,l,l,1,0.8400398000003406,478.02621519999957,479.0459615999998,479.02198309999994,None,478.02621519999957,None,478.02621519999957,None,478.02621519999957,None,479.85442911999985,None,479.85442911999985,None,479.85442911999985,None,,,,,,,,,,,201,24,Female,2022-04-26_13h52.41.118,Main,2022.1.1,60.00088801313762,
positive,negative,1,l,j,,,,,,,,,9,14,176,5,,,,,,,,,,,,,,,,,,,,,,,,main,2,2,1,negative,positive,j,j,1,0.9079712999996445,479.8803189999999,480.8899047,480.8680145999997,None,479.8803189999999,None,479.8803189999999,None,479.8803189999999,None,481.7711441199997,None,481.7711441199997,None,481.7711441199997,None,,,,,,,,,,,201,24,Female,2022-04-26_13h52.41.118,Main,2022.1.1,60.00088801313762,
neutral,neutral,1,k,k,,,,,,,,,9,15,177,1,,,,,,,,,,,,,,,,,,,,,,,,main,1,1,1,neutral,neutral,k,k,1,0.7795020999997178,481.7866036999999,482.8042717999997,482.7819617,None,481.7866036999999,None,481.7866036999999,None,481.7866036999999,None,483.54053095999996,None,483.54053095999996,None,483.54053095999996,None,,,,,,,,,,,201,24,Female,2022-04-26_13h52.41.118,Main,2022.1.1,60.00088801313762,
negative,neutral,2,j,l,,,,,,,,,9,16,178,12,,,,,,,,,,,,,,,,,,,,,,,,main,1,1,2,neutral,negative,l,l,1,0.8097249000002193,483.5689232999998,484.59731459999966,484.5493210999998,None,483.5689232999998,None,483.5689232999998,None,483.5689232999998,None,485.35244255999976,None,485.35244255999976,None,485.35244255999976,None,,,,,,,,,,,201,24,Female,2022-04-26_13h52.41.118,Main,2022.1.1,60.00088801313762,
negative,positive,1,j,l,,,,,,,,,9,17,179,6,,,,,,,,,,,,,,,,,,,,,,,,main,1,1,1,positive,negative,l,l,1,0.8774253999999928,485.3860190999999,486.4047440999998,486.3840575999998,None,485.3860190999999,None,485.3860190999999,None,485.3860190999999,None,487.23382435999963,None,487.23382435999963,None,487.23382435999963,None,,,,,,,,,,,201,24,Female,2022-04-26_13h52.41.118,Main,2022.1.1,60.00088801313762,
neutral,neutral,2,k,k,,,,,,,,,10,0,180,10,,,,,,,,,,,,,,,,,,,,,,,,main,1,1,2,neutral,neutral,k,k,1,0.8211577000001853,487.26529709999977,488.2777655,488.25712169999997,None,487.26529709999977,None,487.26529709999977,None,487.26529709999977,None,489.0581301599999,None,489.0581301599999,None,489.0581301599999,None,,,,,,,,,,,201,24,Female,2022-04-26_13h52.41.118,Main,2022.1.1,60.00088801313762,
negative,neutral,2,j,l,,,,,,,,,10,1,181,12,,,,,,,,,,,,,,,,,,,,,,,,main,2,2,2,neutral,negative,l,l,1,1.2712993000000097,489.0917708999996,490.1010303999997,490.07869379999966,None,489.0917708999996,None,489.0917708999996,None,489.0917708999996,None,491.35036332000004,None,491.35036332000004,None,491.35036332000004,None,,,,,,,,,,,201,24,Female,2022-04-26_13h52.41.118,Main,2022.1.1,60.00088801313762,
positive,negative,1,l,j,,,,,,,,,10,2,182,5,,,,,,,,,,,,,,,,,,,,,,,,main,2,2,1,negative,positive,j,j,1,0.8946031999998922,491.37294539999994,492.3936463,492.3485000999999,None,491.37294539999994,None,491.37294539999994,None,491.37294539999994,None,493.2346573599997,None,493.2346573599997,None,493.2346573599997,None,,,,,,,,,,,201,24,Female,2022-04-26_13h52.41.118,Main,2022.1.1,60.00088801313762,
positive,neutral,2,l,j,,,,,,,,,10,3,183,17,,,,,,,,,,,,,,,,,,,,,,,,main,1,1,2,neutral,positive,j,j,1,0.9598375000000487,493.26636169999983,494.28204989999995,494.25916129999996,None,493.26636169999983,None,493.26636169999983,None,493.26636169999983,None,495.1991833599999,None,495.1991833599999,None,495.1991833599999,None,,,,,,,,,,,201,24,Female,2022-04-26_13h52.41.118,Main,2022.1.1,60.00088801313762,
positive,positive,2,l,j,,,,,,,,,10,4,184,11,,,,,,,,,,,,,,,,,,,,,,,,main,2,2,2,positive,positive,j,j,1,0.8474937000000864,495.2296586999996,496.2420565999996,496.2206529,None,495.2296586999996,None,495.2296586999996,None,495.2296586999996,None,497.05150786,None,497.05150786,None,497.05150786,None,,,,,,,,,,,201,24,Female,2022-04-26_13h52.41.118,Main,2022.1.1,60.00088801313762,
positive,negative,2,l,j,,,,,,,,,10,5,185,14,,,,,,,,,,,,,,,,,,,,,,,,main,1,1,2,negative,positive,j,j,1,0.9034346000003097,497.0740168999996,498.09392979999984,498.0713026999997,None,497.0740168999996,None,497.0740168999996,None,497.0740168999996,None,498.96038295999995,None,498.96038295999995,None,498.96038295999995,None,,,,,,,,,,,201,24,Female,2022-04-26_13h52.41.118,Main,2022.1.1,60.00088801313762,
positive,neutral,1,l,j,,,,,,,,,10,6,186,8,,,,,,,,,,,,,,,,,,,,,,,,main,2,2,1,neutral,positive,j,j,1,0.7464036999999735,498.98295039999994,499.9878913999996,499.96832349999977,None,498.98295039999994,None,498.98295039999994,None,498.98295039999994,None,500.7054322599996,None,500.7054322599996,None,500.7054322599996,None,,,,,,,,,,,201,24,Female,2022-04-26_13h52.41.118,Main,2022.1.1,60.00088801313762,
neutral,negative,1,k,k,,,,,,,,,10,7,187,7,,,,,,,,,,,,,,,,,,,,,,,,main,1,1,1,negative,neutral,k,k,1,0.8062251000001197,500.73555039999974,501.73765149999963,501.7180930999998,None,500.73555039999974,None,500.73555039999974,None,500.73555039999974,None,502.5155254599998,None,502.5155254599998,None,502.5155254599998,None,,,,,,,,,,,201,24,Female,2022-04-26_13h52.41.118,Main,2022.1.1,60.00088801313762,
negative,negative,1,j,l,,,,,,,,,10,8,188,0,,,,,,,,,,,,,,,,,,,,,,,,main,1,1,1,negative,negative,l,l,1,0.7026392000002488,502.54904819999956,503.5612672999996,503.5428611999996,None,502.54904819999956,None,502.54904819999956,None,502.54904819999956,None,504.22507355999994,None,504.22507355999994,None,504.22507355999994,None,,,,,,,,,,,201,24,Female,2022-04-26_13h52.41.118,Main,2022.1.1,60.00088801313762,
negative,negative,2,j,l,,,,,,,,,10,9,189,9,,,,,,,,,,,,,,,,,,,,,,,,main,2,2,2,negative,negative,l,l,1,0.8779602999998133,504.24968169999966,505.26899239999966,505.22623909999993,None,504.24968169999966,None,504.24968169999966,None,504.24968169999966,None,506.10040825999965,None,506.10040825999965,None,506.10040825999965,None,,,,,,,,,,,201,24,Female,2022-04-26_13h52.41.118,Main,2022.1.1,60.00088801313762,
neutral,neutral,1,k,k,,,,,,,,,10,10,190,1,,,,,,,,,,,,,,,,,,,,,,,,main,1,1,1,neutral,neutral,k,k,1,0.8473981000001913,506.12777179999966,507.1469714,507.12388629999987,None,506.12777179999966,None,506.12777179999966,None,506.12777179999966,None,507.95122045999994,None,507.95122045999994,None,507.95122045999994,None,,,,,,,,,,,201,24,Female,2022-04-26_13h52.41.118,Main,2022.1.1,60.00088801313762,
positive,positive,1,l,j,,,,,,,,,10,11,191,2,,,,,,,,,,,,,,,,,,,,,,,,main,2,2,1,positive,positive,j,l,0,0.7972600000002785,507.9850306999997,509.00183749999997,508.98225179999963,None,507.9850306999997,None,507.9850306999997,None,507.9850306999997,None,509.76576879999993,None,509.76576879999993,None,509.76576879999993,None,,,,,,,,,,,201,24,Female,2022-04-26_13h52.41.118,Main,2022.1.1,60.00088801313762,
negative,positive,2,j,l,,,,,,,,,10,12,192,15,,,,,,,,,,,,,,,,,,,,,,,,main,1,1,2,positive,negative,l,l,1,1.04264749999993,510.79528809999965,511.8150989999999,511.79482389999976,None,510.79528809999965,None,510.79528809999965,None,510.79528809999965,None,512.8116521599999,None,512.8116521599999,None,512.8116521599999,None,,,,,,,,,,,201,24,Female,2022-04-26_13h52.41.118,Main,2022.1.1,60.00088801313762,
negative,positive,1,j,l,,,,,,,,,10,13,193,6,,,,,,,,,,,,,,,,,,,,,,,,main,2,2,1,positive,negative,l,l,1,0.9239431000000877,512.8457291999998,513.8646991999999,513.8405651999997,None,512.8457291999998,None,512.8457291999998,None,512.8457291999998,None,514.7421811599996,None,514.7421811599996,None,514.7421811599996,None,,,,,,,,,,,201,24,Female,2022-04-26_13h52.41.118,Main,2022.1.1,60.00088801313762,
neutral,negative,2,k,k,,,,,,,,,10,14,194,16,,,,,,,,,,,,,,,,,,,,,,,,main,1,1,2,negative,neutral,k,k,1,1.005063699999937,514.7688919999996,515.7847098999996,515.7647389999997,None,514.7688919999996,None,514.7688919999996,None,514.7688919999996,None,516.7478243599998,None,516.7478243599998,None,516.7478243599998,None,,,,,,,,,,,201,24,Female,2022-04-26_13h52.41.118,Main,2022.1.1,60.00088801313762,
neutral,positive,1,k,k,,,,,,,,,10,15,195,4,,,,,,,,,,,,,,,,,,,,,,,,main,2,2,1,positive,neutral,k,k,1,0.8788481999999931,516.7725658999998,517.7926069999999,517.7538471999997,None,516.7725658999998,None,516.7725658999998,None,516.7725658999998,None,518.62822546,None,518.62822546,None,518.62822546,None,,,,,,,,,,,201,24,Female,2022-04-26_13h52.41.118,Main,2022.1.1,60.00088801313762,
negative,neutral,1,j,l,,,,,,,,,10,16,196,3,,,,,,,,,,,,,,,,,,,,,,,,main,1,1,1,neutral,negative,l,l,1,0.7507786000001033,518.6555334999998,519.6616061999998,519.6396231999997,None,518.6555334999998,None,518.6555334999998,None,518.6555334999998,None,520.3836890599999,None,520.3836890599999,None,520.3836890599999,None,,,,,,,,,,,201,24,Female,2022-04-26_13h52.41.118,Main,2022.1.1,60.00088801313762,
neutral,positive,2,k,k,,,,,,,,,10,17,197,13,,,,,,,,,,,,,,,,,,,,,,,,main,2,2,2,positive,neutral,k,k,1,0.8369043999996393,520.4066501999996,521.4170612999997,521.3938003999997,None,520.4066501999996,None,520.4066501999996,None,520.4066501999996,None,522.22441526,None,522.22441526,None,522.22441526,None,,,,,,,,,,,201,24,Female,2022-04-26_13h52.41.118,Main,2022.1.1,60.00088801313762,
positive,negative,1,l,j,,,,,,,,,11,0,198,5,,,,,,,,,,,,,,,,,,,,,,,,main,1,1,1,negative,positive,j,j,1,0.9912277000003087,522.2493974999998,523.2664565999999,523.2443475999999,None,522.2493974999998,None,522.2493974999998,None,522.2493974999998,None,524.2151887599997,None,524.2151887599997,None,524.2151887599997,None,,,,,,,,,,,201,24,Female,2022-04-26_13h52.41.118,Main,2022.1.1,60.00088801313762,
positive,negative,2,l,j,,,,,,,,,11,1,199,14,,,,,,,,,,,,,,,,,,,,,,,,main,2,2,2,negative,positive,j,j,1,0.8219626999998582,524.2462578,525.2586610999997,525.2388114999999,None,524.2462578,None,524.2462578,None,524.2462578,None,526.04417456,None,526.04417456,None,526.04417456,None,,,,,,,,,,,201,24,Female,2022-04-26_13h52.41.118,Main,2022.1.1,60.00088801313762,
positive,neutral,2,l,j,,,,,,,,,11,2,200,17,,,,,,,,,,,,,,,,,,,,,,,,main,1,1,2,neutral,positive,j,j,1,0.8594510000002629,526.0699932999996,527.0755593999997,527.0538333,None,526.0699932999996,None,526.0699932999996,None,526.0699932999996,None,527.90877966,None,527.90877966,None,527.90877966,None,,,,,,,,,,,201,24,Female,2022-04-26_13h52.41.118,Main,2022.1.1,60.00088801313762,
negative,positive,2,j,l,,,,,,,,,11,3,201,15,,,,,,,,,,,,,,,,,,,,,,,,main,2,2,2,positive,negative,l,l,1,0.8092640999998366,527.9320322999997,528.9382246999999,528.9171812999998,None,527.9320322999997,None,527.9320322999997,None,527.9320322999997,None,529.72096236,None,529.72096236,None,529.72096236,None,,,,,,,,,,,201,24,Female,2022-04-26_13h52.41.118,Main,2022.1.1,60.00088801313762,
negative,negative,1,j,l,,,,,,,,,11,4,202,0,,,,,,,,,,,,,,,,,,,,,,,,main,2,2,1,negative,negative,l,l,1,0.7737884999996822,529.7514692999998,530.7532309999997,530.7345181999999,None,529.7514692999998,None,529.7514692999998,None,529.7514692999998,None,531.49773546,None,531.49773546,None,531.49773546,None,,,,,,,,,,,201,24,Female,2022-04-26_13h52.41.118,Main,2022.1.1,60.00088801313762,
negative,negative,2,j,l,,,,,,,,,11,5,203,9,,,,,,,,,,,,,,,,,,,,,,,,main,1,1,2,negative,negative,l,l,1,0.7481302999999571,531.5280435,532.5348214999999,532.5127927999997,None,531.5280435,None,531.5280435,None,531.5280435,None,533.2485406599998,None,533.2485406599998,None,533.2485406599998,None,,,,,,,,,,,201,24,Female,2022-04-26_13h52.41.118,Main,2022.1.1,60.00088801313762,
positive,positive,1,l,j,,,,,,,,,11,6,204,2,,,,,,,,,,,,,,,,,,,,,,,,main,1,1,1,positive,positive,j,j,1,0.9123146000001725,533.2760435,534.2905672999996,534.2667743999996,None,533.2760435,None,533.2760435,None,533.2760435,None,535.16388176,None,535.16388176,None,535.16388176,None,,,,,,,,,,,201,24,Female,2022-04-26_13h52.41.118,Main,2022.1.1,60.00088801313762,
negative,positive,1,j,l,,,,,,,,,11,7,205,6,,,,,,,,,,,,,,,,,,,,,,,,main,2,2,1,positive,negative,l,l,1,0.9329736999998204,535.1952787999999,536.2047055999997,536.18579,None,535.1952787999999,None,535.1952787999999,None,535.1952787999999,None,537.1012129599998,None,537.1012129599998,None,537.1012129599998,None,,,,,,,,,,,201,24,Female,2022-04-26_13h52.41.118,Main,2022.1.1,60.00088801313762,
neutral,positive,2,k,k,,,,,,,,,11,8,206,13,,,,,,,,,,,,,,,,,,,,,,,,main,1,1,2,positive,neutral,k,k,1,0.797415699999874,537.1257877999997,538.1494186999998,538.1071219999999,None,537.1257877999997,None,537.1257877999997,None,537.1257877999997,None,538.9014424599999,None,538.9014424599999,None,538.9014424599999,None,,,,,,,,,,,201,24,Female,2022-04-26_13h52.41.118,Main,2022.1.1,60.00088801313762,
neutral,negative,1,k,k,,,,,,,,,11,9,207,7,,,,,,,,,,,,,,,,,,,,,,,,main,1,1,1,negative,neutral,k,k,1,0.8403476000003138,538.9268607999998,539.9419647999998,539.9187815999999,None,538.9268607999998,None,538.9268607999998,None,538.9268607999998,None,540.7450696599998,None,540.7450696599998,None,540.7450696599998,None,,,,,,,,,,,201,24,Female,2022-04-26_13h52.41.118,Main,2022.1.1,60.00088801313762,
positive,neutral,1,l,j,,,,,,,,,11,10,208,8,,,,,,,,,,,,,,,,,,,,,,,,main,2,2,1,neutral,positive,j,j,1,1.1186090999999578,540.7756330999996,541.7841251999998,541.7657104999998,None,540.7756330999996,None,540.7756330999996,None,540.7756330999996,None,542.86864426,None,542.86864426,None,542.86864426,None,,,,,,,,,,,201,24,Female,2022-04-26_13h52.41.118,Main,2022.1.1,60.00088801313762,
neutral,negative,2,k,k,,,,,,,,,11,11,209,16,,,,,,,,,,,,,,,,,,,,,,,,main,1,1,2,negative,neutral,k,k,1,0.8981761999998525,542.8958819,543.9031587,543.8827119999996,None,542.8958819,None,542.8958819,None,542.8958819,None,544.7714498599997,None,544.7714498599997,None,544.7714498599997,None,,,,,,,,,,,201,24,Female,2022-04-26_13h52.41.118,Main,2022.1.1,60.00088801313762,
neutral,positive,1,k,k,,,,,,,,,11,12,210,4,,,,,,,,,,,,,,,,,,,,,,,,main,2,2,1,positive,neutral,k,k,1,0.9746314999997594,544.7947784999997,545.8162973999997,545.7731477999996,None,544.7947784999997,None,544.7947784999997,None,544.7947784999997,None,546.7457613599998,None,546.7457613599998,None,546.7457613599998,None,,,,,,,,,,,201,24,Female,2022-04-26_13h52.41.118,Main,2022.1.1,60.00088801313762,
