target,distractor,set,ans1,ans2,rep_loop2.thisRepN,rep_loop2.thisTrialN,rep_loop2.thisN,rep_loop2.thisIndex,flanker_prac_loop.thisRepN,flanker_prac_loop.thisTrialN,flanker_prac_loop.thisN,flanker_prac_loop.thisIndex,flanker_main_loop.thisRepN,flanker_main_loop.thisTrialN,flanker_main_loop.thisN,flanker_main_loop.thisIndex,fl_inst_resp.keys,mouse.x,mouse.y,mouse.leftButton,mouse.midButton,mouse.rightButton,mouse.started,mouse.stopped,sound_1.started,sound_1.stopped,no_text.started,no_text.stopped,yes_text.started,yes_text.stopped,mouse_2.x,mouse_2.y,mouse_2.leftButton,mouse_2.midButton,mouse_2.rightButton,mouse_2.started,mouse_2.stopped,back_2.started,back_2.stopped,main_prac,fl_cold,fl_colt,fl_set,fl_dcond,fl_tcond,fl_ans,fl_res,fl_corr,fl_rt,fix_fl.started,fix_fl.stopped,targ.started,targ.stopped,j_button.started,j_button.stopped,k_button.started,k_button.stopped,l_button.started,l_button.stopped,j_button2.started,j_button2.stopped,k_button2.started,k_button2.stopped,l_button2.started,l_button2.stopped,mainback.started,mainback.stopped,key_resp.keys,mouse_6.x,mouse_6.y,mouse_6.leftButton,mouse_6.midButton,mouse_6.rightButton,mouse_6.started,mouse_6.stopped,id*,age*,gender*,date,expName,psychopyVersion,frameRate,
,,,,,0,0,0,0,,,,,,,,,None,0.35925925,-0.24814814,0,0,0,1.0036425999696803,None,22.0645625000001,None,73.99396370000068,None,73.99396370000068,None,-0.098148145,-0.06111111,0,0,0,0.011975599998550024,None,,,,,,,,,,,,,,,,,,,,,,,,,,,,,,,,,,,,,,,202,28,Male,2022-04-26_16h43.23.534,Main,2022.1.1,59.97494246915011,
negative,neutral,2,j,l,,,,,0,0,0,12,,,,,,,,,,,,,,,,,,,,,,,,,,81.67335280000043,None,prac,2,2,2,neutral,negative,j,j,1,1.4108596999994916,83.71018130000084,84.71605369999997,84.69792110000162,None,83.71018130000084,None,83.71018130000084,None,83.71018130000084,None,86.09548840000062,None,86.09548840000062,None,86.09548840000062,None,,,,,,,,,,,202,28,Male,2022-04-26_16h43.23.534,Main,2022.1.1,59.97494246915011,
negative,positive,2,j,l,,,,,0,1,1,15,,,,,,,,,,,,,,,,,,,,,,,,,,,,prac,2,2,2,positive,negative,j,j,1,0.865360599998894,86.12889560000076,87.13083410000036,87.1121718000013,None,86.12889560000076,None,86.12889560000076,None,86.12889560000076,None,87.96379150000067,None,87.96379150000067,None,87.96379150000067,None,,,,,,,,,,,202,28,Male,2022-04-26_16h43.23.534,Main,2022.1.1,59.97494246915011,
neutral,positive,1,k,k,,,,,0,2,2,4,,,,,,,,,,,,,,,,,,,,,,,,,,,,prac,2,2,1,positive,neutral,k,k,1,0.8739009000000806,87.99579130000166,88.99989070000083,88.98090720000073,None,87.99579130000166,None,87.99579130000166,None,87.99579130000166,None,89.83991060000008,None,89.83991060000008,None,89.83991060000008,None,,,,,,,,,,,202,28,Male,2022-04-26_16h43.23.534,Main,2022.1.1,59.97494246915011,
positive,positive,2,l,j,,,,,0,3,3,11,,,,,,,,,,,,,,,,,,,,,,,,,,,,prac,2,2,2,positive,positive,l,l,1,0.6077506000001449,89.8616189000004,90.86273270000129,90.84414749999996,None,89.8616189000004,None,89.8616189000004,None,89.8616189000004,None,91.4535744000008,None,91.4535744000008,None,91.4535744000008,None,,,,,,,,,,,202,28,Male,2022-04-26_16h43.23.534,Main,2022.1.1,59.97494246915011,
positive,positive,1,l,j,,,,,0,4,4,2,,,,,,,,,,,,,,,,,,,,,,,,,,,,prac,2,2,1,positive,positive,l,l,1,0.8517039999987901,91.47387270000036,92.4858402000009,92.44652530000167,None,91.47387270000036,None,91.47387270000036,None,91.47387270000036,None,93.30757290000147,None,93.30757290000147,None,93.30757290000147,None,,,,,,,,,,,202,28,Male,2022-04-26_16h43.23.534,Main,2022.1.1,59.97494246915011,
neutral,neutral,1,k,k,,,,,0,5,5,1,,,,,,,,,,,,,,,,,,,,,,,,,,,,prac,2,2,1,neutral,neutral,k,k,1,0.7567177000000811,93.33580410000104,94.34318210000129,94.32413610000003,None,93.33580410000104,None,93.33580410000104,None,93.33580410000104,None,95.06574180000135,None,95.06574180000135,None,95.06574180000135,None,,,,,,,,,,,202,28,Male,2022-04-26_16h43.23.534,Main,2022.1.1,59.97494246915011,
negative,negative,2,j,l,,,,,0,6,6,9,,,,,,,,,,,,,,,,,,,,,,,,,,,,prac,1,1,2,negative,negative,j,j,1,0.8096117000004597,95.0960253000012,96.10529420000057,96.08354130000043,None,95.0960253000012,None,95.0960253000012,None,95.0960253000012,None,96.87707540000011,None,96.87707540000011,None,96.87707540000011,None,,,,,,,,,,,202,28,Male,2022-04-26_16h43.23.534,Main,2022.1.1,59.97494246915011,
negative,positive,1,j,l,,,,,0,7,7,6,,,,,,,,,,,,,,,,,,,,,,,,,,,,prac,2,2,1,positive,negative,j,l,0,2.225430400001642,96.90412580000157,97.91679430000113,97.89793090000057,None,96.90412580000157,None,96.90412580000157,None,96.90412580000157,None,100.13319450000017,None,100.13319450000017,None,100.13319450000017,None,,,,,,,,,,,202,28,Male,2022-04-26_16h43.23.534,Main,2022.1.1,59.97494246915011,
neutral,positive,2,k,k,,,,,0,8,8,13,,,,,,,,,,,,,,,,,,,,,,,,,,,,prac,2,2,2,positive,neutral,k,k,1,0.8746434999993653,101.14814920000026,102.15170160000162,102.13352530000157,None,101.14814920000026,None,101.14814920000026,None,101.14814920000026,None,103.00561750000125,None,103.00561750000125,None,103.00561750000125,None,,,,,,,,,,,202,28,Male,2022-04-26_16h43.23.534,Main,2022.1.1,59.97494246915011,
neutral,negative,2,k,k,,,,,0,9,9,16,,,,,,,,,,,,,,,,,,,,,,,,,,,,prac,1,1,2,negative,neutral,k,k,1,0.9063998999990872,103.03288090000024,104.04700450000018,104.02896490000057,None,103.03288090000024,None,103.03288090000024,None,103.03288090000024,None,104.91278190000085,None,104.91278190000085,None,104.91278190000085,None,,,,,,,,,,,202,28,Male,2022-04-26_16h43.23.534,Main,2022.1.1,59.97494246915011,
positive,neutral,1,l,j,,,,,0,10,10,8,,,,,,,,,,,,,,,,,,,,,,,,,,,,prac,1,1,1,neutral,positive,l,l,1,0.881263700001,104.94095830000151,105.94973740000023,105.93116760000157,None,104.94095830000151,None,104.94095830000151,None,104.94095830000151,None,106.79626280000085,None,106.79626280000085,None,106.79626280000085,None,,,,,,,,,,,202,28,Male,2022-04-26_16h43.23.534,Main,2022.1.1,59.97494246915011,
positive,negative,1,l,j,,,,,0,11,11,5,,,,,,,,,,,,,,,,,,,,,,,,,,,,prac,2,2,1,negative,positive,l,l,1,0.6457758000015019,106.82474460000049,107.82837910000126,107.80961810000008,None,106.82474460000049,None,106.82474460000049,None,106.82474460000049,None,108.44437040000085,None,108.44437040000085,None,108.44437040000085,None,,,,,,,,,,,202,28,Male,2022-04-26_16h43.23.534,Main,2022.1.1,59.97494246915011,
negative,neutral,1,j,l,,,,,0,12,12,3,,,,,,,,,,,,,,,,,,,,,,,,,,,,prac,2,2,1,neutral,negative,j,l,0,0.9023445000002539,108.46563349999997,109.47687100000076,109.43881310000143,None,108.46563349999997,None,108.46563349999997,None,108.46563349999997,None,110.3537862000012,None,110.3537862000012,None,110.3537862000012,None,,,,,,,,,,,202,28,Male,2022-04-26_16h43.23.534,Main,2022.1.1,59.97494246915011,
positive,negative,2,l,j,,,,,0,13,13,14,,,,,,,,,,,,,,,,,,,,,,,,,,,,prac,1,1,2,negative,positive,l,l,1,0.760889600000155,111.36893730000156,112.38047150000057,112.36165930000061,None,111.36893730000156,None,111.36893730000156,None,111.36893730000156,None,113.1071130000004,None,113.1071130000004,None,113.1071130000004,None,,,,,,,,,,,202,28,Male,2022-04-26_16h43.23.534,Main,2022.1.1,59.97494246915011,
neutral,neutral,2,k,k,,,,,0,14,14,10,,,,,,,,,,,,,,,,,,,,,,,,,,,,prac,2,2,2,neutral,neutral,k,k,1,0.7916916000012861,113.12911800000074,114.14236540000093,114.1236699000001,None,113.12911800000074,None,113.12911800000074,None,113.12911800000074,None,114.90384269999996,None,114.90384269999996,None,114.90384269999996,None,,,,,,,,,,,202,28,Male,2022-04-26_16h43.23.534,Main,2022.1.1,59.97494246915011,
negative,negative,1,j,l,,,,,0,15,15,0,,,,,,,,,,,,,,,,,,,,,,,,,,,,prac,2,2,1,negative,negative,j,j,1,0.9494968999988487,114.9236664,115.94114910000098,115.90174079999997,None,114.9236664,None,114.9236664,None,114.9236664,None,116.85535689999998,None,116.85535689999998,None,116.85535689999998,None,,,,,,,,,,,202,28,Male,2022-04-26_16h43.23.534,Main,2022.1.1,59.97494246915011,
neutral,negative,1,k,k,,,,,0,16,16,7,,,,,,,,,,,,,,,,,,,,,,,,,,,,prac,2,2,1,negative,neutral,k,k,1,0.806536000000051,116.87579189999997,117.8818308000009,117.86331590000009,None,116.87579189999997,None,116.87579189999997,None,116.87579189999997,None,118.6638304000011,None,118.6638304000011,None,118.6638304000011,None,,,,,,,,,,,202,28,Male,2022-04-26_16h43.23.534,Main,2022.1.1,59.97494246915011,
positive,neutral,2,l,j,,,,,0,17,17,17,,,,,,,,,,,,,,,,,,,,,,,,,,,,prac,2,2,2,neutral,positive,l,l,1,0.7444568000009895,118.68856740000047,119.70470870000099,119.66622950000055,None,118.68856740000047,None,118.68856740000047,None,118.68856740000047,None,120.4106751000003,None,120.4106751000003,None,120.4106751000003,None,,,,,,,,,,,202,28,Male,2022-04-26_16h43.23.534,Main,2022.1.1,59.97494246915011,
negative,negative,2,j,l,,,,,1,0,18,9,,,,,,,,,,,,,,,,,,,,,,,,,,,,prac,2,2,2,negative,negative,j,j,1,0.8511963000000833,120.44054649999998,121.44853390000026,121.42832799999996,None,120.44054649999998,None,120.44054649999998,None,120.44054649999998,None,122.26605240000063,None,122.26605240000063,None,122.26605240000063,None,,,,,,,,,,,202,28,Male,2022-04-26_16h43.23.534,Main,2022.1.1,59.97494246915011,
neutral,positive,1,k,k,,,,,1,1,19,4,,,,,,,,,,,,,,,,,,,,,,,,,,,,prac,1,1,1,positive,neutral,k,k,1,0.9131965999986278,122.29181580000113,123.30687600000056,123.28749530000096,None,122.29181580000113,None,122.29181580000113,None,122.29181580000113,None,124.17936370000135,None,124.17936370000135,None,124.17936370000135,None,,,,,,,,,,,202,28,Male,2022-04-26_16h43.23.534,Main,2022.1.1,59.97494246915011,
neutral,neutral,2,k,k,,,,,1,2,20,10,,,,,,,,,,,,,,,,,,,,,,,,,,,,prac,1,1,2,neutral,neutral,k,k,1,0.8820728999999119,124.20616050000172,125.21225279999999,125.19380369999999,None,124.20616050000172,None,124.20616050000172,None,124.20616050000172,None,126.0656493999999,None,126.0656493999999,None,126.0656493999999,None,,,,,,,,,,,202,28,Male,2022-04-26_16h43.23.534,Main,2022.1.1,59.97494246915011,
negative,positive,1,j,l,,,,,1,3,21,6,,,,,,,,,,,,,,,,,,,,,,,,,,,,prac,2,2,1,positive,negative,j,j,1,0.9488101999995706,126.08543530000134,127.10410640000009,127.06504740000128,None,126.08543530000134,None,126.08543530000134,None,126.08543530000134,None,128.01654910000107,None,128.01654910000107,None,128.01654910000107,None,,,,,,,,,,,202,28,Male,2022-04-26_16h43.23.534,Main,2022.1.1,59.97494246915011,
positive,neutral,1,l,j,,,,,1,4,22,8,,,,,,,,,,,,,,,,,,,,,,,,,,,,prac,2,2,1,neutral,positive,l,l,1,0.6074537999993481,128.0353694000005,129.04723370000102,129.0102396000002,None,128.0353694000005,None,128.0353694000005,None,128.0353694000005,None,129.62415309999997,None,129.62415309999997,None,129.62415309999997,None,,,,,,,,,,,202,28,Male,2022-04-26_16h43.23.534,Main,2022.1.1,59.97494246915011,
neutral,negative,2,k,k,,,,,1,5,23,16,,,,,,,,,,,,,,,,,,,,,,,,,,,,prac,1,1,2,negative,neutral,k,k,1,0.8411594000008336,129.64378110000143,130.6585726000012,130.61952940000083,None,129.64378110000143,None,129.64378110000143,None,129.64378110000143,None,131.46931430000078,None,131.46931430000078,None,131.46931430000078,None,,,,,,,,,,,202,28,Male,2022-04-26_16h43.23.534,Main,2022.1.1,59.97494246915011,
positive,negative,1,l,j,,,,,1,6,24,5,,,,,,,,,,,,,,,,,,,,,,,,,,,,prac,1,1,1,negative,positive,l,l,1,1.0421846999997797,131.49862050000047,132.50843910000003,132.48966360000122,None,131.49862050000047,None,131.49862050000047,None,131.49862050000047,None,133.5162402000009,None,133.5162402000009,None,133.5162402000009,None,,,,,,,,,,,202,28,Male,2022-04-26_16h43.23.534,Main,2022.1.1,59.97494246915011,
neutral,negative,1,k,k,,,,,1,7,25,7,,,,,,,,,,,,,,,,,,,,,,,,,,,,prac,2,2,1,negative,neutral,k,k,1,0.7810238000001846,133.53582890000143,134.5382599000004,134.51918620000106,None,133.53582890000143,None,133.53582890000143,None,133.53582890000143,None,135.29968829999999,None,135.29968829999999,None,135.29968829999999,None,,,,,,,,,,,202,28,Male,2022-04-26_16h43.23.534,Main,2022.1.1,59.97494246915011,
negative,negative,1,j,l,,,,,1,8,26,0,,,,,,,,,,,,,,,,,,,,,,,,,,,,prac,1,1,1,negative,negative,j,l,0,0.8461336000000301,135.31925010000123,136.32161020000058,136.30285370000092,None,135.31925010000123,None,135.31925010000123,None,135.31925010000123,None,137.15314800000124,None,137.15314800000124,None,137.15314800000124,None,,,,,,,,,,,202,28,Male,2022-04-26_16h43.23.534,Main,2022.1.1,59.97494246915011,
negative,positive,2,j,l,,,,,1,9,27,15,,,,,,,,,,,,,,,,,,,,,,,,,,,,prac,2,2,2,positive,negative,j,j,1,0.8506133000009868,138.17673490000016,139.19754470000044,139.15900020000117,None,138.17673490000016,None,138.17673490000016,None,138.17673490000016,None,140.00818760000075,None,140.00818760000075,None,140.00818760000075,None,,,,,,,,,,,202,28,Male,2022-04-26_16h43.23.534,Main,2022.1.1,59.97494246915011,
positive,positive,1,l,j,,,,,1,10,28,2,,,,,,,,,,,,,,,,,,,,,,,,,,,,prac,2,2,1,positive,positive,l,l,1,0.7704483999987133,140.02835890000097,141.0346537000005,141.01563170000009,None,140.02835890000097,None,140.02835890000097,None,140.02835890000097,None,141.78267530000122,None,141.78267530000122,None,141.78267530000122,None,,,,,,,,,,,202,28,Male,2022-04-26_16h43.23.534,Main,2022.1.1,59.97494246915011,
negative,neutral,1,j,l,,,,,1,11,29,3,,,,,,,,,,,,,,,,,,,,,,,,,,,,prac,1,1,1,neutral,negative,j,j,1,0.7250922000002902,141.80152690000068,142.8099286000015,142.7731900000017,None,141.80152690000068,None,141.80152690000068,None,141.80152690000068,None,143.50804500000086,None,143.50804500000086,None,143.50804500000086,None,,,,,,,,,,,202,28,Male,2022-04-26_16h43.23.534,Main,2022.1.1,59.97494246915011,
positive,neutral,2,l,j,,,,,1,12,30,17,,,,,,,,,,,,,,,,,,,,,,,,,,,,prac,1,1,2,neutral,positive,l,l,1,0.7223518999999214,143.5290367000016,144.54416240000137,144.50578790000145,None,143.5290367000016,None,143.5290367000016,None,143.5290367000016,None,145.23463910000137,None,145.23463910000137,None,145.23463910000137,None,,,,,,,,,,,202,28,Male,2022-04-26_16h43.23.534,Main,2022.1.1,59.97494246915011,
negative,neutral,2,j,l,,,,,1,13,31,12,,,,,,,,,,,,,,,,,,,,,,,,,,,,prac,2,2,2,neutral,negative,j,j,1,0.8351383999997779,145.25417590000143,146.27240500000153,146.2342535000007,None,145.25417590000143,None,145.25417590000143,None,145.25417590000143,None,147.07127540000002,None,147.07127540000002,None,147.07127540000002,None,,,,,,,,,,,202,28,Male,2022-04-26_16h43.23.534,Main,2022.1.1,59.97494246915011,
positive,positive,2,l,j,,,,,1,14,32,11,,,,,,,,,,,,,,,,,,,,,,,,,,,,prac,2,2,2,positive,positive,l,l,1,0.6801969000007375,147.0905943000016,148.09278880000056,148.07447500000126,None,147.0905943000016,None,147.0905943000016,None,147.0905943000016,None,148.7530359000015,None,148.7530359000015,None,148.7530359000015,None,,,,,,,,,,,202,28,Male,2022-04-26_16h43.23.534,Main,2022.1.1,59.97494246915011,
positive,negative,2,l,j,,,,,1,15,33,14,,,,,,,,,,,,,,,,,,,,,,,,,,,,prac,1,1,2,negative,positive,l,l,1,0.6752426000002743,148.7723087000013,149.79170330000125,149.75326230000064,None,148.7723087000013,None,148.7723087000013,None,148.7723087000013,None,150.4331440000009,None,150.4331440000009,None,150.4331440000009,None,,,,,,,,,,,202,28,Male,2022-04-26_16h43.23.534,Main,2022.1.1,59.97494246915011,
neutral,neutral,1,k,k,,,,,1,16,34,1,,,,,,,,,,,,,,,,,,,,,,,,,,,,prac,2,2,1,neutral,neutral,k,k,1,0.7569984999990993,150.45209910000085,151.4559528000009,151.43692420000116,None,150.45209910000085,None,150.45209910000085,None,150.45209910000085,None,152.19020720000154,None,152.19020720000154,None,152.19020720000154,None,,,,,,,,,,,202,28,Male,2022-04-26_16h43.23.534,Main,2022.1.1,59.97494246915011,
neutral,positive,2,k,k,,,,,1,17,35,13,,,,,,,,,,,,,,,,,,,,,,,,,,,,prac,1,1,2,positive,neutral,k,k,1,0.6512785000013537,152.21701240000039,153.21906600000148,153.20005370000035,None,152.21701240000039,None,152.21701240000039,None,152.21701240000039,None,153.84268720000037,None,153.84268720000037,None,153.84268720000037,None,,,,,,,,,,,202,28,Male,2022-04-26_16h43.23.534,Main,2022.1.1,59.97494246915011,
,,,,,,,,,,,,,,,,,,,,,,,,,,,,,,,,,,,,,,,,,,,,,,,,,,,,,,,,,,,,,,,,,,153.84981660000085,None,None,,,,,,,,202,28,Male,2022-04-26_16h43.23.534,Main,2022.1.1,59.97494246915011,
,,,,,,,,,,,,,,,,,,,,,,,,,,,,,,,,,,,,,,,,,,,,,,,,,,,,,,,,,,,,,,,,,,,,,0.22870371,-0.0074074073,1,0,0,0.0035016999991057673,None,202,28,Male,2022-04-26_16h43.23.534,Main,2022.1.1,59.97494246915011,
positive,negative,1,l,j,,,,,,,,,0,0,0,5,,,,,,,,,,,,,,,,,,,,,,157.08052690000113,None,main,2,2,1,negative,positive,l,l,1,0.7112421000001632,159.1004453000005,160.10716970000067,160.08833310000045,None,159.1004453000005,None,159.1004453000005,None,159.1004453000005,None,160.79295720000155,None,160.79295720000155,None,160.79295720000155,None,,,,,,,,,,,202,28,Male,2022-04-26_16h43.23.534,Main,2022.1.1,59.97494246915011,
negative,positive,1,j,l,,,,,,,,,0,1,1,6,,,,,,,,,,,,,,,,,,,,,,,,main,1,1,1,positive,negative,j,j,1,0.7165751000011369,160.81617189999997,161.82701290000114,161.78986690000056,None,160.81617189999997,None,160.81617189999997,None,160.81617189999997,None,162.51268270000074,None,162.51268270000074,None,162.51268270000074,None,,,,,,,,,,,202,28,Male,2022-04-26_16h43.23.534,Main,2022.1.1,59.97494246915011,
neutral,negative,2,k,k,,,,,,,,,0,2,2,16,,,,,,,,,,,,,,,,,,,,,,,,main,1,1,2,negative,neutral,k,k,1,0.5917785999990883,162.53362570000172,163.54207470000074,163.52376630000072,None,162.53362570000172,None,162.53362570000172,None,162.53362570000172,None,164.1061663000004,None,164.1061663000004,None,164.1061663000004,None,,,,,,,,,,,202,28,Male,2022-04-26_16h43.23.534,Main,2022.1.1,59.97494246915011,
neutral,negative,1,k,k,,,,,,,,,0,3,3,7,,,,,,,,,,,,,,,,,,,,,,,,main,2,2,1,negative,neutral,k,k,1,0.7338010000003123,164.12592500000028,165.14374769999995,165.1059950000017,None,164.12592500000028,None,164.12592500000028,None,164.12592500000028,None,165.84452840000122,None,165.84452840000122,None,165.84452840000122,None,,,,,,,,,,,202,28,Male,2022-04-26_16h43.23.534,Main,2022.1.1,59.97494246915011,
negative,negative,1,j,l,,,,,,,,,0,4,4,0,,,,,,,,,,,,,,,,,,,,,,,,main,1,1,1,negative,negative,j,j,1,0.8265321999988373,165.86332550000043,166.87220570000136,166.85284430000138,None,165.86332550000043,None,165.86332550000043,None,165.86332550000043,None,167.67184410000155,None,167.67184410000155,None,167.67184410000155,None,,,,,,,,,,,202,28,Male,2022-04-26_16h43.23.534,Main,2022.1.1,59.97494246915011,
positive,neutral,2,l,j,,,,,,,,,0,5,5,17,,,,,,,,,,,,,,,,,,,,,,,,main,2,2,2,neutral,positive,l,l,1,0.612194699999236,167.69171240000105,168.6918319000015,168.6750389000008,None,167.69171240000105,None,167.69171240000105,None,167.69171240000105,None,169.28606400000027,None,169.28606400000027,None,169.28606400000027,None,,,,,,,,,,,202,28,Male,2022-04-26_16h43.23.534,Main,2022.1.1,59.97494246915011,
negative,neutral,2,j,l,,,,,,,,,0,6,6,12,,,,,,,,,,,,,,,,,,,,,,,,main,2,2,2,neutral,negative,j,j,1,0.8050672999997914,169.30647250000038,170.3184581000005,170.28076940000028,None,169.30647250000038,None,169.30647250000038,None,169.30647250000038,None,171.0958295000004,None,171.0958295000004,None,171.0958295000004,None,,,,,,,,,,,202,28,Male,2022-04-26_16h43.23.534,Main,2022.1.1,59.97494246915011,
neutral,neutral,2,k,k,,,,,,,,,0,7,7,10,,,,,,,,,,,,,,,,,,,,,,,,main,2,2,2,neutral,neutral,k,k,1,0.7030164000007062,171.11793300000136,172.13554100000147,172.09758760000113,None,171.11793300000136,None,171.11793300000136,None,171.11793300000136,None,172.8026311000016,None,172.8026311000016,None,172.8026311000016,None,,,,,,,,,,,202,28,Male,2022-04-26_16h43.23.534,Main,2022.1.1,59.97494246915011,
neutral,neutral,1,k,k,,,,,,,,,0,8,8,1,,,,,,,,,,,,,,,,,,,,,,,,main,1,1,1,neutral,neutral,k,k,1,0.6896678000011889,172.82313900000008,173.83379140000034,173.81388230000084,None,172.82313900000008,None,172.82313900000008,None,172.82313900000008,None,174.49667310000078,None,174.49667310000078,None,174.49667310000078,None,,,,,,,,,,,202,28,Male,2022-04-26_16h43.23.534,Main,2022.1.1,59.97494246915011,
positive,positive,2,l,j,,,,,,,,,0,9,9,11,,,,,,,,,,,,,,,,,,,,,,,,main,2,2,2,positive,positive,l,l,1,0.6967476999998325,174.5166207000002,175.52958600000056,175.49117110000043,None,174.5166207000002,None,174.5166207000002,None,174.5166207000002,None,176.19545070000132,None,176.19545070000132,None,176.19545070000132,None,,,,,,,,,,,202,28,Male,2022-04-26_16h43.23.534,Main,2022.1.1,59.97494246915011,
neutral,positive,2,k,k,,,,,,,,,0,10,10,13,,,,,,,,,,,,,,,,,,,,,,,,main,2,2,2,positive,neutral,k,k,1,0.6288103999995656,176.2154459000012,177.22041360000003,177.20145390000107,None,176.2154459000012,None,176.2154459000012,None,176.2154459000012,None,177.82698910000036,None,177.82698910000036,None,177.82698910000036,None,,,,,,,,,,,202,28,Male,2022-04-26_16h43.23.534,Main,2022.1.1,59.97494246915011,
positive,neutral,1,l,j,,,,,,,,,0,11,11,8,,,,,,,,,,,,,,,,,,,,,,,,main,1,1,1,neutral,positive,l,l,1,0.924127899999803,177.84696390000136,178.86367320000136,178.82431010000073,None,177.84696390000136,None,177.84696390000136,None,177.84696390000136,None,179.75156720000123,None,179.75156720000123,None,179.75156720000123,None,,,,,,,,,,,202,28,Male,2022-04-26_16h43.23.534,Main,2022.1.1,59.97494246915011,
positive,positive,1,l,j,,,,,,,,,0,12,12,2,,,,,,,,,,,,,,,,,,,,,,,,main,1,1,1,positive,positive,l,l,1,0.6625024000004487,179.77151670000057,180.77335850000054,180.75510120000035,None,179.77151670000057,None,179.77151670000057,None,179.77151670000057,None,181.41701640000102,None,181.41701640000102,None,181.41701640000102,None,,,,,,,,,,,202,28,Male,2022-04-26_16h43.23.534,Main,2022.1.1,59.97494246915011,
negative,neutral,1,j,l,,,,,,,,,0,13,13,3,,,,,,,,,,,,,,,,,,,,,,,,main,2,2,1,neutral,negative,j,j,1,0.8171507999995811,181.43709220000164,182.45720320000146,182.41809340000145,None,181.43709220000164,None,181.43709220000164,None,181.43709220000164,None,183.23584770000016,None,183.23584770000016,None,183.23584770000016,None,,,,,,,,,,,202,28,Male,2022-04-26_16h43.23.534,Main,2022.1.1,59.97494246915011,
positive,negative,2,l,j,,,,,,,,,0,14,14,14,,,,,,,,,,,,,,,,,,,,,,,,main,1,1,2,negative,positive,l,l,1,0.8260560999988229,183.2566067000007,184.26013560000138,184.24068920000173,None,183.2566067000007,None,183.2566067000007,None,183.2566067000007,None,185.0651318000004,None,185.0651318000004,None,185.0651318000004,None,,,,,,,,,,,202,28,Male,2022-04-26_16h43.23.534,Main,2022.1.1,59.97494246915011,
neutral,positive,1,k,k,,,,,,,,,0,15,15,4,,,,,,,,,,,,,,,,,,,,,,,,main,1,1,1,positive,neutral,k,k,1,0.7874262999994244,185.08540690000154,186.10437560000173,186.0669867000015,None,185.08540690000154,None,185.08540690000154,None,185.08540690000154,None,186.85487720000165,None,186.85487720000165,None,186.85487720000165,None,,,,,,,,,,,202,28,Male,2022-04-26_16h43.23.534,Main,2022.1.1,59.97494246915011,
negative,negative,2,j,l,,,,,,,,,0,16,16,9,,,,,,,,,,,,,,,,,,,,,,,,main,2,2,2,negative,negative,j,j,1,1.012514400001237,186.87456480000037,187.8869190000005,187.84990460000154,None,186.87456480000037,None,186.87456480000037,None,186.87456480000037,None,188.87045740000067,None,188.87045740000067,None,188.87045740000067,None,,,,,,,,,,,202,28,Male,2022-04-26_16h43.23.534,Main,2022.1.1,59.97494246915011,
negative,positive,2,j,l,,,,,,,,,0,17,17,15,,,,,,,,,,,,,,,,,,,,,,,,main,2,2,2,positive,negative,j,j,1,0.7513124999986758,188.8899953,189.90923660000044,189.87196870000116,None,188.8899953,None,188.8899953,None,188.8899953,None,190.62559730000103,None,190.62559730000103,None,190.62559730000103,None,,,,,,,,,,,202,28,Male,2022-04-26_16h43.23.534,Main,2022.1.1,59.97494246915011,
positive,negative,1,l,j,,,,,,,,,1,0,18,5,,,,,,,,,,,,,,,,,,,,,,,,main,2,2,1,negative,positive,l,l,1,0.6960834000001341,190.64531830000124,191.64955850000115,191.63123190000078,None,190.64531830000124,None,190.64531830000124,None,190.64531830000124,None,192.324395,None,192.324395,None,192.324395,None,,,,,,,,,,,202,28,Male,2022-04-26_16h43.23.534,Main,2022.1.1,59.97494246915011,
positive,positive,1,l,j,,,,,,,,,1,1,19,2,,,,,,,,,,,,,,,,,,,,,,,,main,2,2,1,positive,positive,l,l,1,0.708283100000699,192.34394659999998,193.34643040000083,193.32780700000148,None,192.34394659999998,None,192.34394659999998,None,192.34394659999998,None,194.03338590000058,None,194.03338590000058,None,194.03338590000058,None,,,,,,,,,,,202,28,Male,2022-04-26_16h43.23.534,Main,2022.1.1,59.97494246915011,
positive,positive,2,l,j,,,,,,,,,1,2,20,11,,,,,,,,,,,,,,,,,,,,,,,,main,2,2,2,positive,positive,l,l,1,0.6543759999985923,194.0534499000005,195.06651110000166,195.02822640000159,None,194.0534499000005,None,194.0534499000005,None,194.0534499000005,None,195.69237450000074,None,195.69237450000074,None,195.69237450000074,None,,,,,,,,,,,202,28,Male,2022-04-26_16h43.23.534,Main,2022.1.1,59.97494246915011,
negative,neutral,1,j,l,,,,,,,,,1,3,21,3,,,,,,,,,,,,,,,,,,,,,,,,main,2,2,1,neutral,negative,j,j,1,0.942718700000114,195.71438360000138,196.72733530000005,196.68886070000008,None,195.71438360000138,None,195.71438360000138,None,195.71438360000138,None,197.63510870000064,None,197.63510870000064,None,197.63510870000064,None,,,,,,,,,,,202,28,Male,2022-04-26_16h43.23.534,Main,2022.1.1,59.97494246915011,
negative,neutral,2,j,l,,,,,,,,,1,4,22,12,,,,,,,,,,,,,,,,,,,,,,,,main,1,1,2,neutral,negative,j,j,1,0.7090363999996043,197.65526260000115,198.66736800000035,198.63072470000043,None,197.65526260000115,None,197.65526260000115,None,197.65526260000115,None,199.3471162000009,None,199.3471162000009,None,199.3471162000009,None,,,,,,,,,,,202,28,Male,2022-04-26_16h43.23.534,Main,2022.1.1,59.97494246915011,
neutral,neutral,1,k,k,,,,,,,,,1,5,23,1,,,,,,,,,,,,,,,,,,,,,,,,main,2,2,1,neutral,neutral,k,k,1,0.6869425000004412,199.36668559999998,200.37480210000103,200.35604990000138,None,199.36668559999998,None,199.36668559999998,None,199.36668559999998,None,201.03840130000063,None,201.03840130000063,None,201.03840130000063,None,,,,,,,,,,,202,28,Male,2022-04-26_16h43.23.534,Main,2022.1.1,59.97494246915011,
positive,neutral,1,l,j,,,,,,,,,1,6,24,8,,,,,,,,,,,,,,,,,,,,,,,,main,2,2,1,neutral,positive,l,l,1,0.593967499999053,201.05982060000133,202.0660953000006,202.04759150000064,None,201.05982060000133,None,201.05982060000133,None,201.05982060000133,None,202.63196720000124,None,202.63196720000124,None,202.63196720000124,None,,,,,,,,,,,202,28,Male,2022-04-26_16h43.23.534,Main,2022.1.1,59.97494246915011,
negative,positive,1,j,l,,,,,,,,,1,7,25,6,,,,,,,,,,,,,,,,,,,,,,,,main,2,2,1,positive,negative,j,l,0,0.6650004000002809,202.65325030000167,203.66867080000156,203.6315908000015,None,202.65325030000167,None,202.65325030000167,None,202.65325030000167,None,204.3056720000004,None,204.3056720000004,None,204.3056720000004,None,,,,,,,,,,,202,28,Male,2022-04-26_16h43.23.534,Main,2022.1.1,59.97494246915011,
positive,negative,2,l,j,,,,,,,,,1,8,26,14,,,,,,,,,,,,,,,,,,,,,,,,main,1,1,2,negative,positive,l,l,1,0.730301599998711,205.31787720000102,206.33079640000142,206.31228499999997,None,205.31787720000102,None,205.31787720000102,None,205.31787720000102,None,207.02874320000083,None,207.02874320000083,None,207.02874320000083,None,,,,,,,,,,,202,28,Male,2022-04-26_16h43.23.534,Main,2022.1.1,59.97494246915011,
neutral,negative,1,k,k,,,,,,,,,1,9,27,7,,,,,,,,,,,,,,,,,,,,,,,,main,1,1,1,negative,neutral,k,k,1,0.7468104999989009,207.05073990000164,208.06086120000145,208.04036560000168,None,207.05073990000164,None,207.05073990000164,None,207.05073990000164,None,208.7788938000016,None,208.7788938000016,None,208.7788938000016,None,,,,,,,,,,,202,28,Male,2022-04-26_16h43.23.534,Main,2022.1.1,59.97494246915011,
negative,negative,1,j,l,,,,,,,,,1,10,28,0,,,,,,,,,,,,,,,,,,,,,,,,main,1,1,1,negative,negative,j,j,1,0.8765789000008226,208.79998820000037,209.8036733000008,209.78566030000002,None,208.79998820000037,None,208.79998820000037,None,208.79998820000037,None,210.65956120000047,None,210.65956120000047,None,210.65956120000047,None,,,,,,,,,,,202,28,Male,2022-04-26_16h43.23.534,Main,2022.1.1,59.97494246915011,
negative,negative,2,j,l,,,,,,,,,1,11,29,9,,,,,,,,,,,,,,,,,,,,,,,,main,2,2,2,negative,negative,j,j,1,0.6920529999988503,210.6797101000011,211.6942439000013,211.6564515000009,None,210.6797101000011,None,210.6797101000011,None,210.6797101000011,None,212.35660660000067,None,212.35660660000067,None,212.35660660000067,None,,,,,,,,,,,202,28,Male,2022-04-26_16h43.23.534,Main,2022.1.1,59.97494246915011,
positive,neutral,2,l,j,,,,,,,,,1,12,30,17,,,,,,,,,,,,,,,,,,,,,,,,main,2,2,2,neutral,positive,l,l,1,0.6784598999984155,212.37854810000135,213.38982550000037,213.3522939000013,None,212.37854810000135,None,212.37854810000135,None,212.37854810000135,None,214.03750770000116,None,214.03750770000116,None,214.03750770000116,None,,,,,,,,,,,202,28,Male,2022-04-26_16h43.23.534,Main,2022.1.1,59.97494246915011,
neutral,neutral,2,k,k,,,,,,,,,1,13,31,10,,,,,,,,,,,,,,,,,,,,,,,,main,2,2,2,neutral,neutral,k,k,1,0.7305326999994577,214.0580346000006,215.0678964000017,215.04903390000072,None,214.0580346000006,None,214.0580346000006,None,214.0580346000006,None,215.77112680000064,None,215.77112680000064,None,215.77112680000064,None,,,,,,,,,,,202,28,Male,2022-04-26_16h43.23.534,Main,2022.1.1,59.97494246915011,
neutral,positive,1,k,k,,,,,,,,,1,14,32,4,,,,,,,,,,,,,,,,,,,,,,,,main,2,2,1,positive,neutral,k,k,1,0.7915334000008443,215.7911563000016,216.80330620000132,216.76596170000084,None,215.7911563000016,None,215.7911563000016,None,215.7911563000016,None,217.5632488000014,None,217.5632488000014,None,217.5632488000014,None,,,,,,,,,,,202,28,Male,2022-04-26_16h43.23.534,Main,2022.1.1,59.97494246915011,
neutral,negative,2,k,k,,,,,,,,,1,15,33,16,,,,,,,,,,,,,,,,,,,,,,,,main,2,2,2,negative,neutral,k,k,1,0.6684225000008155,217.58255780000036,218.6060221000007,218.55915650000134,None,217.58255780000036,None,217.58255780000036,None,217.58255780000036,None,219.23438750000096,None,219.23438750000096,None,219.23438750000096,None,,,,,,,,,,,202,28,Male,2022-04-26_16h43.23.534,Main,2022.1.1,59.97494246915011,
neutral,positive,2,k,k,,,,,,,,,1,16,34,13,,,,,,,,,,,,,,,,,,,,,,,,main,2,2,2,positive,neutral,k,k,1,0.6611501000006683,219.25542380000115,220.26840550000088,220.23065620000125,None,219.25542380000115,None,219.25542380000115,None,219.25542380000115,None,220.89809580000147,None,220.89809580000147,None,220.89809580000147,None,,,,,,,,,,,202,28,Male,2022-04-26_16h43.23.534,Main,2022.1.1,59.97494246915011,
negative,positive,2,j,l,,,,,,,,,1,17,35,15,,,,,,,,,,,,,,,,,,,,,,,,main,1,1,2,positive,negative,j,j,1,0.7150601999983337,220.91905970000153,221.93088410000018,221.89369530000113,None,220.91905970000153,None,220.91905970000153,None,220.91905970000153,None,222.61433190000062,None,222.61433190000062,None,222.61433190000062,None,,,,,,,,,,,202,28,Male,2022-04-26_16h43.23.534,Main,2022.1.1,59.97494246915011,
neutral,neutral,1,k,k,,,,,,,,,2,0,36,1,,,,,,,,,,,,,,,,,,,,,,,,main,2,2,1,neutral,neutral,k,k,1,0.6219535999989603,222.63620530000117,223.65481060000093,223.61621860000014,None,222.63620530000117,None,222.63620530000117,None,222.63620530000117,None,224.24224859999995,None,224.24224859999995,None,224.24224859999995,None,,,,,,,,,,,202,28,Male,2022-04-26_16h43.23.534,Main,2022.1.1,59.97494246915011,
negative,positive,2,j,l,,,,,,,,,2,1,37,15,,,,,,,,,,,,,,,,,,,,,,,,main,2,2,2,positive,negative,j,j,1,0.7211277999995218,224.26348980000148,225.28317610000158,225.24546420000115,None,224.26348980000148,None,224.26348980000148,None,224.26348980000148,None,225.96537840000056,None,225.96537840000056,None,225.96537840000056,None,,,,,,,,,,,202,28,Male,2022-04-26_16h43.23.534,Main,2022.1.1,59.97494246915011,
neutral,neutral,2,k,k,,,,,,,,,2,2,38,10,,,,,,,,,,,,,,,,,,,,,,,,main,2,2,2,neutral,neutral,k,k,1,0.8260884999999689,225.98828660000072,226.98997960000088,226.97104560000116,None,225.98828660000072,None,225.98828660000072,None,225.98828660000072,None,227.79352020000115,None,227.79352020000115,None,227.79352020000115,None,,,,,,,,,,,202,28,Male,2022-04-26_16h43.23.534,Main,2022.1.1,59.97494246915011,
neutral,positive,2,k,k,,,,,,,,,2,3,39,13,,,,,,,,,,,,,,,,,,,,,,,,main,2,2,2,positive,neutral,k,k,1,0.6372806999988825,227.8140314000011,228.8210983000008,228.8015714000012,None,227.8140314000011,None,227.8140314000011,None,227.8140314000011,None,229.43555310000048,None,229.43555310000048,None,229.43555310000048,None,,,,,,,,,,,202,28,Male,2022-04-26_16h43.23.534,Main,2022.1.1,59.97494246915011,
positive,negative,2,l,j,,,,,,,,,2,4,40,14,,,,,,,,,,,,,,,,,,,,,,,,main,2,2,2,negative,positive,l,l,1,0.7337864000000991,229.45513520000168,230.47303470000043,230.43472810000094,None,229.45513520000168,None,229.45513520000168,None,229.45513520000168,None,231.17208670000073,None,231.17208670000073,None,231.17208670000073,None,,,,,,,,,,,202,28,Male,2022-04-26_16h43.23.534,Main,2022.1.1,59.97494246915011,
negative,positive,1,j,l,,,,,,,,,2,5,41,6,,,,,,,,,,,,,,,,,,,,,,,,main,2,2,1,positive,negative,j,j,1,0.865076099998987,231.19268660000125,232.20017540000117,232.18026460000146,None,231.19268660000125,None,231.19268660000125,None,231.19268660000125,None,233.03888370000132,None,233.03888370000132,None,233.03888370000132,None,,,,,,,,,,,202,28,Male,2022-04-26_16h43.23.534,Main,2022.1.1,59.97494246915011,
positive,neutral,2,l,j,,,,,,,,,2,6,42,17,,,,,,,,,,,,,,,,,,,,,,,,main,2,2,2,neutral,positive,l,l,1,0.7593284999984462,233.06052550000095,234.0801988000003,234.04258860000118,None,233.06052550000095,None,233.06052550000095,None,233.06052550000095,None,234.80358730000117,None,234.80358730000117,None,234.80358730000117,None,,,,,,,,,,,202,28,Male,2022-04-26_16h43.23.534,Main,2022.1.1,59.97494246915011,
negative,negative,1,j,l,,,,,,,,,2,7,43,0,,,,,,,,,,,,,,,,,,,,,,,,main,1,1,1,negative,negative,j,j,1,0.8344768000006297,234.8248110000004,235.84202610000102,235.8035174000015,None,234.8248110000004,None,234.8248110000004,None,234.8248110000004,None,236.63985119999998,None,236.63985119999998,None,236.63985119999998,None,,,,,,,,,,,202,28,Male,2022-04-26_16h43.23.534,Main,2022.1.1,59.97494246915011,
positive,positive,1,l,j,,,,,,,,,2,8,44,2,,,,,,,,,,,,,,,,,,,,,,,,main,1,1,1,positive,positive,l,l,1,1.0228710999999748,236.66025179999997,237.67213270000138,237.6333848000013,None,236.66025179999997,None,236.66025179999997,None,236.66025179999997,None,238.66511910000045,None,238.66511910000045,None,238.66511910000045,None,,,,,,,,,,,202,28,Male,2022-04-26_16h43.23.534,Main,2022.1.1,59.97494246915011,
positive,neutral,1,l,j,,,,,,,,,2,9,45,8,,,,,,,,,,,,,,,,,,,,,,,,main,1,1,1,neutral,positive,l,l,1,0.6450184999994235,238.6849654000016,239.68819780000013,239.6694832000012,None,238.6849654000016,None,238.6849654000016,None,238.6849654000016,None,240.31319010000007,None,240.31319010000007,None,240.31319010000007,None,,,,,,,,,,,202,28,Male,2022-04-26_16h43.23.534,Main,2022.1.1,59.97494246915011,
positive,negative,1,l,j,,,,,,,,,2,10,46,5,,,,,,,,,,,,,,,,,,,,,,,,main,2,2,1,negative,positive,l,l,1,0.6765804000006028,240.3334259000003,241.35279530000116,241.3143656000011,None,240.3334259000003,None,240.3334259000003,None,240.3334259000003,None,241.9927584000001,None,241.9927584000001,None,241.9927584000001,None,,,,,,,,,,,202,28,Male,2022-04-26_16h43.23.534,Main,2022.1.1,59.97494246915011,
neutral,negative,1,k,k,,,,,,,,,2,11,47,7,,,,,,,,,,,,,,,,,,,,,,,,main,1,1,1,negative,neutral,k,k,1,0.7830408999998326,242.01241670000127,243.0153416000012,242.9968467000017,None,242.01241670000127,None,242.01241670000127,None,242.01241670000127,None,243.77653490000048,None,243.77653490000048,None,243.77653490000048,None,,,,,,,,,,,202,28,Male,2022-04-26_16h43.23.534,Main,2022.1.1,59.97494246915011,
positive,positive,2,l,j,,,,,,,,,2,12,48,11,,,,,,,,,,,,,,,,,,,,,,,,main,1,1,2,positive,positive,l,l,1,0.7458431999984896,243.79878440000175,244.8150865000007,244.79375730000174,None,243.79878440000175,None,243.79878440000175,None,243.79878440000175,None,245.52392700000055,None,245.52392700000055,None,245.52392700000055,None,,,,,,,,,,,202,28,Male,2022-04-26_16h43.23.534,Main,2022.1.1,59.97494246915011,
negative,negative,2,j,l,,,,,,,,,2,13,49,9,,,,,,,,,,,,,,,,,,,,,,,,main,2,2,2,negative,negative,j,j,1,0.7793971999999485,245.5536806,246.5733618000013,246.53517550000106,None,245.5536806,None,245.5536806,None,245.5536806,None,247.3086094000013,None,247.3086094000013,None,247.3086094000013,None,,,,,,,,,,,202,28,Male,2022-04-26_16h43.23.534,Main,2022.1.1,59.97494246915011,
neutral,negative,2,k,k,,,,,,,,,2,14,50,16,,,,,,,,,,,,,,,,,,,,,,,,main,1,1,2,negative,neutral,k,k,1,0.6479497000000265,247.32816170000115,248.33084380000037,248.3113030000004,None,247.32816170000115,None,247.32816170000115,None,247.32816170000115,None,248.95853360000038,None,248.95853360000038,None,248.95853360000038,None,,,,,,,,,,,202,28,Male,2022-04-26_16h43.23.534,Main,2022.1.1,59.97494246915011,
negative,neutral,2,j,l,,,,,,,,,2,15,51,12,,,,,,,,,,,,,,,,,,,,,,,,main,1,1,2,neutral,negative,j,j,1,0.6849065999995219,248.97899510000025,249.9882264000007,249.9681569000004,None,248.97899510000025,None,248.97899510000025,None,248.97899510000025,None,250.64799390000044,None,250.64799390000044,None,250.64799390000044,None,,,,,,,,,,,202,28,Male,2022-04-26_16h43.23.534,Main,2022.1.1,59.97494246915011,
neutral,positive,1,k,k,,,,,,,,,2,16,52,4,,,,,,,,,,,,,,,,,,,,,,,,main,1,1,1,positive,neutral,k,k,1,0.7089522000005672,250.66758690000097,251.6761441000017,251.65547289999995,None,250.66758690000097,None,250.66758690000097,None,250.66758690000097,None,252.35787650000057,None,252.35787650000057,None,252.35787650000057,None,,,,,,,,,,,202,28,Male,2022-04-26_16h43.23.534,Main,2022.1.1,59.97494246915011,
negative,neutral,1,j,l,,,,,,,,,2,17,53,3,,,,,,,,,,,,,,,,,,,,,,,,main,2,2,1,neutral,negative,j,j,1,0.7503559999986464,252.3772353000004,253.38671550000072,253.34906500000034,None,252.3772353000004,None,252.3772353000004,None,252.3772353000004,None,254.10991170000162,None,254.10991170000162,None,254.10991170000162,None,,,,,,,,,,,202,28,Male,2022-04-26_16h43.23.534,Main,2022.1.1,59.97494246915011,
positive,neutral,1,l,j,,,,,,,,,3,0,54,8,,,,,,,,,,,,,,,,,,,,,,,,main,2,2,1,neutral,positive,l,l,1,0.6622119000003295,254.1298822000008,255.14838840000084,255.1108464000008,None,254.1298822000008,None,254.1298822000008,None,254.1298822000008,None,255.77497600000098,None,255.77497600000098,None,255.77497600000098,None,,,,,,,,,,,202,28,Male,2022-04-26_16h43.23.534,Main,2022.1.1,59.97494246915011,
negative,neutral,2,j,l,,,,,,,,,3,1,55,12,,,,,,,,,,,,,,,,,,,,,,,,main,2,2,2,neutral,negative,j,j,1,0.7749804000013683,255.79635400000006,256.810123700001,256.7728689000014,None,255.79635400000006,None,255.79635400000006,None,255.79635400000006,None,257.55461120000143,None,257.55461120000143,None,257.55461120000143,None,,,,,,,,,,,202,28,Male,2022-04-26_16h43.23.534,Main,2022.1.1,59.97494246915011,
positive,positive,2,l,j,,,,,,,,,3,2,56,11,,,,,,,,,,,,,,,,,,,,,,,,main,1,1,2,positive,positive,l,l,1,0.7807948999998189,257.57474710000133,258.59454930000174,258.55586960000073,None,257.57474710000133,None,257.57474710000133,None,257.57474710000133,None,259.33868890000156,None,259.33868890000156,None,259.33868890000156,None,,,,,,,,,,,202,28,Male,2022-04-26_16h43.23.534,Main,2022.1.1,59.97494246915011,
negative,negative,1,j,l,,,,,,,,,3,3,57,0,,,,,,,,,,,,,,,,,,,,,,,,main,1,1,1,negative,negative,j,j,1,0.7051492999999027,259.3581111000003,260.36375040000166,260.34515550000106,None,259.3581111000003,None,259.3581111000003,None,259.3581111000003,None,261.04630400000167,None,261.04630400000167,None,261.04630400000167,None,,,,,,,,,,,202,28,Male,2022-04-26_16h43.23.534,Main,2022.1.1,59.97494246915011,
negative,positive,1,j,l,,,,,,,,,3,4,58,6,,,,,,,,,,,,,,,,,,,,,,,,main,1,1,1,positive,negative,j,j,1,1.9066060999994079,261.06681860000026,262.0834992,262.04607600000054,None,261.06681860000026,None,261.06681860000026,None,261.06681860000026,None,263.9606005000005,None,263.9606005000005,None,263.9606005000005,None,,,,,,,,,,,202,28,Male,2022-04-26_16h43.23.534,Main,2022.1.1,59.97494246915011,
neutral,positive,1,k,k,,,,,,,,,3,5,59,4,,,,,,,,,,,,,,,,,,,,,,,,main,1,1,1,positive,neutral,k,k,1,0.7343173000008392,264.9767982000012,265.98744310000075,265.96836090000033,None,264.9767982000012,None,264.9767982000012,None,264.9767982000012,None,266.6918225000012,None,266.6918225000012,None,266.6918225000012,None,,,,,,,,,,,202,28,Male,2022-04-26_16h43.23.534,Main,2022.1.1,59.97494246915011,
positive,negative,1,l,j,,,,,,,,,3,6,60,5,,,,,,,,,,,,,,,,,,,,,,,,main,2,2,1,negative,positive,l,l,1,0.7427325000007841,266.71288650000133,267.7158582000011,267.69655740000053,None,266.71288650000133,None,266.71288650000133,None,266.71288650000133,None,268.43766110000104,None,268.43766110000104,None,268.43766110000104,None,,,,,,,,,,,202,28,Male,2022-04-26_16h43.23.534,Main,2022.1.1,59.97494246915011,
neutral,positive,2,k,k,,,,,,,,,3,7,61,13,,,,,,,,,,,,,,,,,,,,,,,,main,2,2,2,positive,neutral,k,k,1,0.8576013999991119,268.4577889000011,269.4773064000001,269.43948810000074,None,268.4577889000011,None,268.4577889000011,None,268.4577889000011,None,270.2994601000013,None,270.2994601000013,None,270.2994601000013,None,,,,,,,,,,,202,28,Male,2022-04-26_16h43.23.534,Main,2022.1.1,59.97494246915011,
neutral,neutral,2,k,k,,,,,,,,,3,8,62,10,,,,,,,,,,,,,,,,,,,,,,,,main,2,2,2,neutral,neutral,k,k,1,0.7140918999994028,270.31980380000095,271.32248170000094,271.30396370000017,None,270.31980380000095,None,270.31980380000095,None,270.31980380000095,None,272.01636330000144,None,272.01636330000144,None,272.01636330000144,None,,,,,,,,,,,202,28,Male,2022-04-26_16h43.23.534,Main,2022.1.1,59.97494246915011,
negative,positive,2,j,l,,,,,,,,,3,9,63,15,,,,,,,,,,,,,,,,,,,,,,,,main,1,1,2,positive,negative,j,j,1,0.9283087000003434,272.0359840000001,273.03794000000016,273.01937890000045,None,272.0359840000001,None,272.0359840000001,None,272.0359840000001,None,273.94705310000097,None,273.94705310000097,None,273.94705310000097,None,,,,,,,,,,,202,28,Male,2022-04-26_16h43.23.534,Main,2022.1.1,59.97494246915011,
neutral,negative,1,k,k,,,,,,,,,3,10,64,7,,,,,,,,,,,,,,,,,,,,,,,,main,2,2,1,negative,neutral,k,k,1,0.7413868999992701,273.96662150000157,274.9733436000006,274.9549457000012,None,273.96662150000157,None,273.96662150000157,None,273.96662150000157,None,275.68862220000153,None,275.68862220000153,None,275.68862220000153,None,,,,,,,,,,,202,28,Male,2022-04-26_16h43.23.534,Main,2022.1.1,59.97494246915011,
neutral,neutral,1,k,k,,,,,,,,,3,11,65,1,,,,,,,,,,,,,,,,,,,,,,,,main,1,1,1,neutral,neutral,k,k,1,0.6365977000004932,275.70876750000025,276.7254104000003,276.6882413000003,None,275.70876750000025,None,275.70876750000025,None,275.70876750000025,None,277.3303737000009,None,277.3303737000009,None,277.3303737000009,None,,,,,,,,,,,202,28,Male,2022-04-26_16h43.23.534,Main,2022.1.1,59.97494246915011,
negative,negative,2,j,l,,,,,,,,,3,12,66,9,,,,,,,,,,,,,,,,,,,,,,,,main,1,1,2,negative,negative,j,j,1,0.7771436000002723,277.3493700000017,278.36469450000004,278.3272850000012,None,277.3493700000017,None,277.3493700000017,None,277.3493700000017,None,279.10737260000167,None,279.10737260000167,None,279.10737260000167,None,,,,,,,,,,,202,28,Male,2022-04-26_16h43.23.534,Main,2022.1.1,59.97494246915011,
positive,positive,1,l,j,,,,,,,,,3,13,67,2,,,,,,,,,,,,,,,,,,,,,,,,main,1,1,1,positive,positive,l,l,1,0.9425132000014855,279.1335426000005,280.1408983000001,280.1221591000012,None,279.1335426000005,None,279.1335426000005,None,279.1335426000005,None,281.05437930000005,None,281.05437930000005,None,281.05437930000005,None,,,,,,,,,,,202,28,Male,2022-04-26_16h43.23.534,Main,2022.1.1,59.97494246915011,
negative,neutral,1,j,l,,,,,,,,,3,14,68,3,,,,,,,,,,,,,,,,,,,,,,,,main,2,2,1,neutral,negative,j,j,1,0.8439156999993429,281.0749747000009,282.0936208000003,282.0567335000014,None,281.0749747000009,None,281.0749747000009,None,281.0749747000009,None,282.9018479000009,None,282.9018479000009,None,282.9018479000009,None,,,,,,,,,,,202,28,Male,2022-04-26_16h43.23.534,Main,2022.1.1,59.97494246915011,
neutral,negative,2,k,k,,,,,,,,,3,15,69,16,,,,,,,,,,,,,,,,,,,,,,,,main,2,2,2,negative,neutral,k,k,1,0.7222032999998191,282.92272310000044,283.92804440000145,283.90951530000166,None,282.92272310000044,None,282.92272310000044,None,282.92272310000044,None,284.6284202999999,None,284.6284202999999,None,284.6284202999999,None,,,,,,,,,,,202,28,Male,2022-04-26_16h43.23.534,Main,2022.1.1,59.97494246915011,
positive,negative,2,l,j,,,,,,,,,3,16,70,14,,,,,,,,,,,,,,,,,,,,,,,,main,2,2,2,negative,positive,l,l,1,0.6453861000009056,284.64741310000136,285.66109960000176,285.62355600000046,None,284.64741310000136,None,284.64741310000136,None,284.64741310000136,None,286.2742535000001,None,286.2742535000001,None,286.2742535000001,None,,,,,,,,,,,202,28,Male,2022-04-26_16h43.23.534,Main,2022.1.1,59.97494246915011,
positive,neutral,2,l,j,,,,,,,,,3,17,71,17,,,,,,,,,,,,,,,,,,,,,,,,main,1,1,2,neutral,positive,l,l,1,0.7778343999998469,286.29377620000014,287.29927210000096,287.280472800001,None,286.29377620000014,None,286.29377620000014,None,286.29377620000014,None,288.05459330000156,None,288.05459330000156,None,288.05459330000156,None,,,,,,,,,,,202,28,Male,2022-04-26_16h43.23.534,Main,2022.1.1,59.97494246915011,
neutral,negative,1,k,k,,,,,,,,,4,0,72,7,,,,,,,,,,,,,,,,,,,,,,,,main,2,2,1,negative,neutral,k,k,1,0.7446257000010519,288.0753999000008,289.0830078000017,289.0631602000012,None,288.0753999000008,None,288.0753999000008,None,288.0753999000008,None,289.80172810000147,None,289.80172810000147,None,289.80172810000147,None,,,,,,,,,,,202,28,Male,2022-04-26_16h43.23.534,Main,2022.1.1,59.97494246915011,
positive,negative,1,l,j,,,,,,,,,4,1,73,5,,,,,,,,,,,,,,,,,,,,,,,,main,1,1,1,negative,positive,l,l,1,0.7083545999994385,289.82180810000136,290.8272607000017,290.80848160000096,None,289.82180810000136,None,289.82180810000136,None,289.82180810000136,None,291.51447640000004,None,291.51447640000004,None,291.51447640000004,None,,,,,,,,,,,202,28,Male,2022-04-26_16h43.23.534,Main,2022.1.1,59.97494246915011,
neutral,positive,1,k,k,,,,,,,,,4,2,74,4,,,,,,,,,,,,,,,,,,,,,,,,main,2,2,1,positive,neutral,k,k,1,0.7254856999988988,291.53434820000075,292.5367055000006,292.51804130000164,None,291.53434820000075,None,291.53434820000075,None,291.53434820000075,None,293.2380988000008,None,293.2380988000008,None,293.2380988000008,None,,,,,,,,,,,202,28,Male,2022-04-26_16h43.23.534,Main,2022.1.1,59.97494246915011,
negative,negative,2,j,l,,,,,,,,,4,3,75,9,,,,,,,,,,,,,,,,,,,,,,,,main,1,1,2,negative,negative,j,j,1,0.8096370000002935,293.2633633000005,294.2739773000012,294.2554144000005,None,293.2633633000005,None,293.2633633000005,None,293.2633633000005,None,295.0529678000006,None,295.0529678000006,None,295.0529678000006,None,,,,,,,,,,,202,28,Male,2022-04-26_16h43.23.534,Main,2022.1.1,59.97494246915011,
negative,negative,1,j,l,,,,,,,,,4,4,76,0,,,,,,,,,,,,,,,,,,,,,,,,main,2,2,1,negative,negative,j,j,1,0.9017472000014095,295.0741312000009,296.0833721000017,296.0641155000012,None,295.0741312000009,None,295.0741312000009,None,295.0741312000009,None,296.9570212000002,None,296.9570212000002,None,296.9570212000002,None,,,,,,,,,,,202,28,Male,2022-04-26_16h43.23.534,Main,2022.1.1,59.97494246915011,
neutral,neutral,1,k,k,,,,,,,,,4,5,77,1,,,,,,,,,,,,,,,,,,,,,,,,main,2,2,1,neutral,neutral,k,k,1,0.7557727000003069,296.97696630000064,297.9810877,297.96205230000123,None,296.97696630000064,None,296.97696630000064,None,296.97696630000064,None,298.71683950000113,None,298.71683950000113,None,298.71683950000113,None,,,,,,,,,,,202,28,Male,2022-04-26_16h43.23.534,Main,2022.1.1,59.97494246915011,
positive,negative,2,l,j,,,,,,,,,4,6,78,14,,,,,,,,,,,,,,,,,,,,,,,,main,1,1,2,negative,positive,l,l,1,0.7350253999993583,298.73672110000007,299.7471243,299.70847780000076,None,298.73672110000007,None,298.73672110000007,None,298.73672110000007,None,300.45381900000064,None,300.45381900000064,None,300.45381900000064,None,,,,,,,,,,,202,28,Male,2022-04-26_16h43.23.534,Main,2022.1.1,59.97494246915011,
neutral,neutral,2,k,k,,,,,,,,,4,7,79,10,,,,,,,,,,,,,,,,,,,,,,,,main,2,2,2,neutral,neutral,k,k,1,0.7126639000016439,300.47363210000003,301.48804250000103,301.45060960000046,None,300.47363210000003,None,300.47363210000003,None,300.47363210000003,None,302.16887150000036,None,302.16887150000036,None,302.16887150000036,None,,,,,,,,,,,202,28,Male,2022-04-26_16h43.23.534,Main,2022.1.1,59.97494246915011,
negative,positive,1,j,l,,,,,,,,,4,8,80,6,,,,,,,,,,,,,,,,,,,,,,,,main,1,1,1,positive,negative,j,j,1,0.6967261000008875,302.19087990000116,303.2043440000016,303.1674998000017,None,302.19087990000116,None,302.19087990000116,None,302.19087990000116,None,303.86826360000157,None,303.86826360000157,None,303.86826360000157,None,,,,,,,,,,,202,28,Male,2022-04-26_16h43.23.534,Main,2022.1.1,59.97494246915011,
negative,neutral,1,j,l,,,,,,,,,4,9,81,3,,,,,,,,,,,,,,,,,,,,,,,,main,1,1,1,neutral,negative,j,j,1,0.7799467999993794,303.8892360000009,304.91138390000015,304.8650524000004,None,303.8892360000009,None,303.8892360000009,None,303.8892360000009,None,305.65195620000156,None,305.65195620000156,None,305.65195620000156,None,,,,,,,,,,,202,28,Male,2022-04-26_16h43.23.534,Main,2022.1.1,59.97494246915011,
positive,positive,2,l,j,,,,,,,,,4,10,82,11,,,,,,,,,,,,,,,,,,,,,,,,main,1,1,2,positive,positive,l,l,1,0.692335899999307,305.6722125000015,306.6886118000002,306.6523894000002,None,305.6722125000015,None,305.6722125000015,None,305.6722125000015,None,307.3471981000006,None,307.3471981000006,None,307.3471981000006,None,,,,,,,,,,,202,28,Male,2022-04-26_16h43.23.534,Main,2022.1.1,59.97494246915011,
negative,positive,2,j,l,,,,,,,,,4,11,83,15,,,,,,,,,,,,,,,,,,,,,,,,main,1,1,2,positive,negative,j,j,1,0.7121643999998923,307.3685835000015,308.38218400000005,308.34343179999996,None,307.3685835000015,None,307.3685835000015,None,307.3685835000015,None,309.06484000000125,None,309.06484000000125,None,309.06484000000125,None,,,,,,,,,,,202,28,Male,2022-04-26_16h43.23.534,Main,2022.1.1,59.97494246915011,
positive,neutral,2,l,j,,,,,,,,,4,12,84,17,,,,,,,,,,,,,,,,,,,,,,,,main,1,1,2,neutral,positive,l,l,1,0.8421751000005315,309.0848315000003,310.09860750000007,310.06061950000003,None,309.0848315000003,None,309.0848315000003,None,309.0848315000003,None,310.9117398000002,None,310.9117398000002,None,310.9117398000002,None,,,,,,,,,,,202,28,Male,2022-04-26_16h43.23.534,Main,2022.1.1,59.97494246915011,
positive,positive,1,l,j,,,,,,,,,4,13,85,2,,,,,,,,,,,,,,,,,,,,,,,,main,1,1,1,positive,positive,l,l,1,0.6259203999998135,310.9305714000002,311.9322275000013,311.9135817000006,None,310.9305714000002,None,310.9305714000002,None,310.9305714000002,None,312.54009670000084,None,312.54009670000084,None,312.54009670000084,None,,,,,,,,,,,202,28,Male,2022-04-26_16h43.23.534,Main,2022.1.1,59.97494246915011,
neutral,negative,2,k,k,,,,,,,,,4,14,86,16,,,,,,,,,,,,,,,,,,,,,,,,main,1,1,2,negative,neutral,k,k,1,0.748341900000014,312.5597942000004,313.57199440000113,313.5349717000008,None,312.5597942000004,None,312.5597942000004,None,312.5597942000004,None,314.2900849000001,None,314.2900849000001,None,314.2900849000001,None,,,,,,,,,,,202,28,Male,2022-04-26_16h43.23.534,Main,2022.1.1,59.97494246915011,
neutral,positive,2,k,k,,,,,,,,,4,15,87,13,,,,,,,,,,,,,,,,,,,,,,,,main,1,1,2,positive,neutral,k,k,1,0.7624367999997048,314.31070510000063,315.31324270000005,315.2943156000001,None,314.31070510000063,None,314.31070510000063,None,314.31070510000063,None,316.0523689000005,None,316.0523689000005,None,316.0523689000005,None,,,,,,,,,,,202,28,Male,2022-04-26_16h43.23.534,Main,2022.1.1,59.97494246915011,
negative,neutral,2,j,l,,,,,,,,,4,16,88,12,,,,,,,,,,,,,,,,,,,,,,,,main,1,1,2,neutral,negative,j,j,1,0.8332501999993838,316.07366770000044,317.0805711000012,317.0620007000016,None,316.07366770000044,None,316.07366770000044,None,316.07366770000044,None,317.8907418000002,None,317.8907418000002,None,317.8907418000002,None,,,,,,,,,,,202,28,Male,2022-04-26_16h43.23.534,Main,2022.1.1,59.97494246915011,
positive,neutral,1,l,j,,,,,,,,,4,17,89,8,,,,,,,,,,,,,,,,,,,,,,,,main,2,2,1,neutral,positive,l,l,1,0.8096912999990309,317.91087550000157,318.91644030000134,318.89799910000147,None,317.91087550000157,None,317.91087550000157,None,317.91087550000157,None,319.7016754,None,319.7016754,None,319.7016754,None,,,,,,,,,,,202,28,Male,2022-04-26_16h43.23.534,Main,2022.1.1,59.97494246915011,
neutral,positive,1,k,k,,,,,,,,,5,0,90,4,,,,,,,,,,,,,,,,,,,,,,,,main,2,2,1,positive,neutral,k,k,1,0.7132904999998573,319.72186150000016,320.7430744000012,320.7039050000003,None,319.72186150000016,None,319.72186150000016,None,319.72186150000016,None,321.41758719999996,None,321.41758719999996,None,321.41758719999996,None,,,,,,,,,,,202,28,Male,2022-04-26_16h43.23.534,Main,2022.1.1,59.97494246915011,
neutral,negative,2,k,k,,,,,,,,,5,1,91,16,,,,,,,,,,,,,,,,,,,,,,,,main,2,2,2,negative,neutral,k,k,1,0.744640500000969,321.4376744000001,322.4461100000008,322.4255920000014,None,321.4376744000001,None,321.4376744000001,None,321.4376744000001,None,323.1647056000005,None,323.1647056000005,None,323.1647056000005,None,,,,,,,,,,,202,28,Male,2022-04-26_16h43.23.534,Main,2022.1.1,59.97494246915011,
neutral,neutral,2,k,k,,,,,,,,,5,2,92,10,,,,,,,,,,,,,,,,,,,,,,,,main,1,1,2,neutral,neutral,k,k,1,0.6870471000001999,323.1848435000011,324.19408420000036,324.17513529999997,None,323.1848435000011,None,323.1848435000011,None,323.1848435000011,None,324.85458440000036,None,324.85458440000036,None,324.85458440000036,None,,,,,,,,,,,202,28,Male,2022-04-26_16h43.23.534,Main,2022.1.1,59.97494246915011,
neutral,neutral,1,k,k,,,,,,,,,5,3,93,1,,,,,,,,,,,,,,,,,,,,,,,,main,1,1,1,neutral,neutral,k,k,1,0.6076751000000513,324.874141100001,325.8818205000007,325.8633832000014,None,324.874141100001,None,324.874141100001,None,324.874141100001,None,326.46492590000014,None,326.46492590000014,None,326.46492590000014,None,,,,,,,,,,,202,28,Male,2022-04-26_16h43.23.534,Main,2022.1.1,59.97494246915011,
neutral,negative,1,k,k,,,,,,,,,5,4,94,7,,,,,,,,,,,,,,,,,,,,,,,,main,2,2,1,negative,neutral,k,k,1,1.2506463000008807,326.4835657000003,327.4995060000001,327.46208210000077,None,326.4835657000003,None,326.4835657000003,None,326.4835657000003,None,328.71720290000155,None,328.71720290000155,None,328.71720290000155,None,,,,,,,,,,,202,28,Male,2022-04-26_16h43.23.534,Main,2022.1.1,59.97494246915011,
positive,neutral,1,l,j,,,,,,,,,5,5,95,8,,,,,,,,,,,,,,,,,,,,,,,,main,1,1,1,neutral,positive,l,l,1,0.7189225000001898,328.7368055000006,329.74187789999996,329.7225339000015,None,328.7368055000006,None,328.7368055000006,None,328.7368055000006,None,330.4400938000002,None,330.4400938000002,None,330.4400938000002,None,,,,,,,,,,,202,28,Male,2022-04-26_16h43.23.534,Main,2022.1.1,59.97494246915011,
positive,positive,1,l,j,,,,,,,,,5,6,96,2,,,,,,,,,,,,,,,,,,,,,,,,main,1,1,1,positive,positive,l,l,1,0.6061153999999078,330.4605803000013,331.47409900000093,331.43556480000007,None,330.4605803000013,None,330.4605803000013,None,330.4605803000013,None,332.0462922999999,None,332.0462922999999,None,332.0462922999999,None,,,,,,,,,,,202,28,Male,2022-04-26_16h43.23.534,Main,2022.1.1,59.97494246915011,
negative,neutral,2,j,l,,,,,,,,,5,7,97,12,,,,,,,,,,,,,,,,,,,,,,,,main,1,1,2,neutral,negative,j,j,1,0.7024932999993325,332.0663250000016,333.07666510000126,333.05777840000155,None,332.0663250000016,None,332.0663250000016,None,332.0663250000016,None,333.75450240000134,None,333.75450240000134,None,333.75450240000134,None,,,,,,,,,,,202,28,Male,2022-04-26_16h43.23.534,Main,2022.1.1,59.97494246915011,
neutral,positive,2,k,k,,,,,,,,,5,8,98,13,,,,,,,,,,,,,,,,,,,,,,,,main,2,2,2,positive,neutral,k,k,1,0.6480207000004157,333.77581700000155,334.79112500000156,334.7533776,None,333.77581700000155,None,333.77581700000155,None,333.77581700000155,None,335.40278460000116,None,335.40278460000116,None,335.40278460000116,None,,,,,,,,,,,202,28,Male,2022-04-26_16h43.23.534,Main,2022.1.1,59.97494246915011,
positive,neutral,2,l,j,,,,,,,,,5,9,99,17,,,,,,,,,,,,,,,,,,,,,,,,main,1,1,2,neutral,positive,l,l,1,1.1257490999996662,335.4232323000015,336.44192100000146,336.40377250000165,None,335.4232323000015,None,335.4232323000015,None,335.4232323000015,None,337.5309342000004,None,337.5309342000004,None,337.5309342000004,None,,,,,,,,,,,202,28,Male,2022-04-26_16h43.23.534,Main,2022.1.1,59.97494246915011,
positive,positive,2,l,j,,,,,,,,,5,10,100,11,,,,,,,,,,,,,,,,,,,,,,,,main,2,2,2,positive,positive,l,l,1,0.7188196000006428,337.55270760000167,338.5689968000006,338.5300447000009,None,337.55270760000167,None,337.55270760000167,None,337.55270760000167,None,339.2540628999999,None,339.2540628999999,None,339.2540628999999,None,,,,,,,,,,,202,28,Male,2022-04-26_16h43.23.534,Main,2022.1.1,59.97494246915011,
negative,negative,2,j,l,,,,,,,,,5,11,101,9,,,,,,,,,,,,,,,,,,,,,,,,main,2,2,2,negative,negative,j,j,1,0.7371867999991082,339.2738455000017,340.2926079000008,340.2540041000011,None,339.2738455000017,None,339.2738455000017,None,339.2738455000017,None,340.99436190000085,None,340.99436190000085,None,340.99436190000085,None,,,,,,,,,,,202,28,Male,2022-04-26_16h43.23.534,Main,2022.1.1,59.97494246915011,
negative,positive,2,j,l,,,,,,,,,5,12,102,15,,,,,,,,,,,,,,,,,,,,,,,,main,1,1,2,positive,negative,j,j,1,0.7268050000002404,341.0150390000017,342.0204379000006,342.0021682000006,None,341.0150390000017,None,341.0150390000017,None,341.0150390000017,None,342.724433400001,None,342.724433400001,None,342.724433400001,None,,,,,,,,,,,202,28,Male,2022-04-26_16h43.23.534,Main,2022.1.1,59.97494246915011,
negative,neutral,1,j,l,,,,,,,,,5,13,103,3,,,,,,,,,,,,,,,,,,,,,,,,main,2,2,1,neutral,negative,j,j,1,0.8381138999993709,342.7465948000008,343.7520075000011,343.7333335000003,None,342.7465948000008,None,342.7465948000008,None,342.7465948000008,None,344.5657760000016,None,344.5657760000016,None,344.5657760000016,None,,,,,,,,,,,202,28,Male,2022-04-26_16h43.23.534,Main,2022.1.1,59.97494246915011,
negative,negative,1,j,l,,,,,,,,,5,14,104,0,,,,,,,,,,,,,,,,,,,,,,,,main,2,2,1,negative,negative,j,j,1,0.6852201000001514,344.585306500001,345.58913510000093,345.56985840000016,None,344.585306500001,None,344.585306500001,None,344.585306500001,None,346.25451030000147,None,346.25451030000147,None,346.25451030000147,None,,,,,,,,,,,202,28,Male,2022-04-26_16h43.23.534,Main,2022.1.1,59.97494246915011,
positive,negative,1,l,j,,,,,,,,,5,15,105,5,,,,,,,,,,,,,,,,,,,,,,,,main,1,1,1,negative,positive,l,l,1,0.7333741000002192,346.2748895000004,347.2917653000004,347.25326190000123,None,346.2748895000004,None,346.2748895000004,None,346.2748895000004,None,347.9907954000013,None,347.9907954000013,None,347.9907954000013,None,,,,,,,,,,,202,28,Male,2022-04-26_16h43.23.534,Main,2022.1.1,59.97494246915011,
positive,negative,2,l,j,,,,,,,,,5,16,106,14,,,,,,,,,,,,,,,,,,,,,,,,main,1,1,2,negative,positive,l,l,1,0.7965034999997442,348.0109687000004,349.0137590000013,348.9959161000006,None,348.0109687000004,None,348.0109687000004,None,348.0109687000004,None,349.79112759999987,None,349.79112759999987,None,349.79112759999987,None,,,,,,,,,,,202,28,Male,2022-04-26_16h43.23.534,Main,2022.1.1,59.97494246915011,
negative,positive,1,j,l,,,,,,,,,5,17,107,6,,,,,,,,,,,,,,,,,,,,,,,,main,2,2,1,positive,negative,j,j,1,0.6708384000012302,349.8113962000007,350.8140953000002,350.79479470000115,None,349.8113962000007,None,349.8113962000007,None,349.8113962000007,None,351.46447470000055,None,351.46447470000055,None,351.46447470000055,None,,,,,,,,,,,202,28,Male,2022-04-26_16h43.23.534,Main,2022.1.1,59.97494246915011,
negative,neutral,1,j,l,,,,,,,,,6,0,108,3,,,,,,,,,,,,,,,,,,,,,,,,main,1,1,1,neutral,negative,j,j,1,0.823122499999954,351.4851619000001,352.4978955000006,352.4608270000008,None,351.4851619000001,None,351.4851619000001,None,351.4851619000001,None,353.2922189000004,None,353.2922189000004,None,353.2922189000004,None,,,,,,,,,,,202,28,Male,2022-04-26_16h43.23.534,Main,2022.1.1,59.97494246915011,
positive,negative,2,l,j,,,,,,,,,6,1,109,14,,,,,,,,,,,,,,,,,,,,,,,,main,2,2,2,negative,positive,l,l,1,0.8388316000000486,353.3123564000016,354.3144942000017,354.29555130000153,None,353.3123564000016,None,353.3123564000016,None,353.3123564000016,None,355.1358426999999,None,355.1358426999999,None,355.1358426999999,None,,,,,,,,,,,202,28,Male,2022-04-26_16h43.23.534,Main,2022.1.1,59.97494246915011,
positive,neutral,2,l,j,,,,,,,,,6,2,110,17,,,,,,,,,,,,,,,,,,,,,,,,main,2,2,2,neutral,positive,l,l,1,0.6384419000005437,355.1551020000006,356.16549250000025,356.1281290000006,None,355.1551020000006,None,355.1551020000006,None,355.1551020000006,None,356.7756004000006,None,356.7756004000006,None,356.7756004000006,None,,,,,,,,,,,202,28,Male,2022-04-26_16h43.23.534,Main,2022.1.1,59.97494246915011,
positive,negative,1,l,j,,,,,,,,,6,3,111,5,,,,,,,,,,,,,,,,,,,,,,,,main,1,1,1,negative,positive,l,l,1,0.89324569999917,356.7962316000012,357.80199860000175,357.7828210000007,None,356.7962316000012,None,356.7962316000012,None,356.7962316000012,None,358.6741095000001,None,358.6741095000001,None,358.6741095000001,None,,,,,,,,,,,202,28,Male,2022-04-26_16h43.23.534,Main,2022.1.1,59.97494246915011,
positive,neutral,1,l,j,,,,,,,,,6,4,112,8,,,,,,,,,,,,,,,,,,,,,,,,main,1,1,1,neutral,positive,l,l,1,0.5828308000000106,358.69490570000016,359.7065908000004,359.66879100000006,None,358.69490570000016,None,358.69490570000016,None,358.69490570000016,None,360.25945050000007,None,360.25945050000007,None,360.25945050000007,None,,,,,,,,,,,202,28,Male,2022-04-26_16h43.23.534,Main,2022.1.1,59.97494246915011,
negative,positive,2,j,l,,,,,,,,,6,5,113,15,,,,,,,,,,,,,,,,,,,,,,,,main,1,1,2,positive,negative,j,j,1,0.7413267000010819,360.28094520000013,361.2987667000016,361.26112770000145,None,360.28094520000013,None,360.28094520000013,None,360.28094520000013,None,362.00535590000106,None,362.00535590000106,None,362.00535590000106,None,,,,,,,,,,,202,28,Male,2022-04-26_16h43.23.534,Main,2022.1.1,59.97494246915011,
positive,positive,2,l,j,,,,,,,,,6,6,114,11,,,,,,,,,,,,,,,,,,,,,,,,main,2,2,2,positive,positive,l,l,1,0.7174543000000995,362.02526670000043,363.0300763000014,363.0116708000005,None,362.02526670000043,None,362.02526670000043,None,362.02526670000043,None,363.72520960000145,None,363.72520960000145,None,363.72520960000145,None,,,,,,,,,,,202,28,Male,2022-04-26_16h43.23.534,Main,2022.1.1,59.97494246915011,
neutral,positive,1,k,k,,,,,,,,,6,7,115,4,,,,,,,,,,,,,,,,,,,,,,,,main,1,1,1,positive,neutral,k,k,1,0.8546084999998129,363.7473431000017,364.76572080000005,364.7293730000001,None,363.7473431000017,None,363.7473431000017,None,363.7473431000017,None,365.58241920000034,None,365.58241920000034,None,365.58241920000034,None,,,,,,,,,,,202,28,Male,2022-04-26_16h43.23.534,Main,2022.1.1,59.97494246915011,
neutral,negative,1,k,k,,,,,,,,,6,8,116,7,,,,,,,,,,,,,,,,,,,,,,,,main,1,1,1,negative,neutral,k,k,1,0.7536588000002666,365.6028931000001,366.6222806000005,366.58406230000037,None,365.6028931000001,None,365.6028931000001,None,365.6028931000001,None,367.3406286000012,None,367.3406286000012,None,367.3406286000012,None,,,,,,,,,,,202,28,Male,2022-04-26_16h43.23.534,Main,2022.1.1,59.97494246915011,
negative,neutral,2,j,l,,,,,,,,,6,9,117,12,,,,,,,,,,,,,,,,,,,,,,,,main,1,1,2,neutral,negative,j,j,1,0.7240656000012677,367.3618866000015,368.3803689000015,368.3429337000016,None,367.3618866000015,None,367.3618866000015,None,367.3618866000015,None,369.06984630000113,None,369.06984630000113,None,369.06984630000113,None,,,,,,,,,,,202,28,Male,2022-04-26_16h43.23.534,Main,2022.1.1,59.97494246915011,
positive,positive,1,l,j,,,,,,,,,6,10,118,2,,,,,,,,,,,,,,,,,,,,,,,,main,2,2,1,positive,positive,l,l,1,0.6842019999985496,369.09279940000124,370.10763880000013,370.0697611000014,None,369.09279940000124,None,369.09279940000124,None,369.09279940000124,None,370.75665570000126,None,370.75665570000126,None,370.75665570000126,None,,,,,,,,,,,202,28,Male,2022-04-26_16h43.23.534,Main,2022.1.1,59.97494246915011,
negative,negative,1,j,l,,,,,,,,,6,11,119,0,,,,,,,,,,,,,,,,,,,,,,,,main,2,2,1,negative,negative,j,j,1,0.6853109999992739,370.7777444000003,371.7966540000016,371.75939500000095,None,370.7777444000003,None,370.7777444000003,None,370.7777444000003,None,372.44268190000037,None,372.44268190000037,None,372.44268190000037,None,,,,,,,,,,,202,28,Male,2022-04-26_16h43.23.534,Main,2022.1.1,59.97494246915011,
negative,positive,1,j,l,,,,,,,,,6,12,120,6,,,,,,,,,,,,,,,,,,,,,,,,main,1,1,1,positive,negative,j,j,1,0.8018515999992815,372.4692704000008,373.4741257000005,373.45622620000177,None,372.4692704000008,None,372.4692704000008,None,372.4692704000008,None,374.2513532000015,None,374.2513532000015,None,374.2513532000015,None,,,,,,,,,,,202,28,Male,2022-04-26_16h43.23.534,Main,2022.1.1,59.97494246915011,
negative,negative,2,j,l,,,,,,,,,6,13,121,9,,,,,,,,,,,,,,,,,,,,,,,,main,1,1,2,negative,negative,j,j,1,0.7602626999996573,374.27090580000004,375.2859928000016,375.24748,None,374.27090580000004,None,374.27090580000004,None,374.27090580000004,None,376.0125575000005,None,376.0125575000005,None,376.0125575000005,None,,,,,,,,,,,202,28,Male,2022-04-26_16h43.23.534,Main,2022.1.1,59.97494246915011,
neutral,neutral,1,k,k,,,,,,,,,6,14,122,1,,,,,,,,,,,,,,,,,,,,,,,,main,2,2,1,neutral,neutral,k,k,1,0.6956766000002972,376.032057800001,377.04507510000076,377.0080617000003,None,376.032057800001,None,376.032057800001,None,376.032057800001,None,377.7107268000003,None,377.7107268000003,None,377.7107268000003,None,,,,,,,,,,,202,28,Male,2022-04-26_16h43.23.534,Main,2022.1.1,59.97494246915011,
neutral,negative,2,k,k,,,,,,,,,6,15,123,16,,,,,,,,,,,,,,,,,,,,,,,,main,1,1,2,negative,neutral,k,k,1,0.6803859999999986,377.7319361000009,378.73550350000005,378.7148732000005,None,377.7319361000009,None,377.7319361000009,None,377.7319361000009,None,379.3932574000013,None,379.3932574000013,None,379.3932574000013,None,,,,,,,,,,,202,28,Male,2022-04-26_16h43.23.534,Main,2022.1.1,59.97494246915011,
neutral,neutral,2,k,k,,,,,,,,,6,16,124,10,,,,,,,,,,,,,,,,,,,,,,,,main,2,2,2,neutral,neutral,k,k,1,0.5691578999994817,379.41840910000064,380.4348134000011,380.3970345000016,None,379.41840910000064,None,379.41840910000064,None,379.41840910000064,None,380.9681495000008,None,380.9681495000008,None,380.9681495000008,None,,,,,,,,,,,202,28,Male,2022-04-26_16h43.23.534,Main,2022.1.1,59.97494246915011,
neutral,positive,2,k,k,,,,,,,,,6,17,125,13,,,,,,,,,,,,,,,,,,,,,,,,main,1,1,2,positive,neutral,k,k,1,0.5987065999997867,380.9879152000012,381.99043240000174,381.9716100000005,None,380.9879152000012,None,380.9879152000012,None,380.9879152000012,None,382.56979700000045,None,382.56979700000045,None,382.56979700000045,None,,,,,,,,,,,202,28,Male,2022-04-26_16h43.23.534,Main,2022.1.1,59.97494246915011,
negative,negative,2,j,l,,,,,,,,,7,0,126,9,,,,,,,,,,,,,,,,,,,,,,,,main,2,2,2,negative,negative,j,j,1,0.8035388000007515,382.5889969,383.59729830000106,383.56228420000116,None,382.5889969,None,382.5889969,None,382.5889969,None,384.3735939000002,None,384.3735939000002,None,384.3735939000002,None,,,,,,,,,,,202,28,Male,2022-04-26_16h43.23.534,Main,2022.1.1,59.97494246915011,
neutral,neutral,1,k,k,,,,,,,,,7,1,127,1,,,,,,,,,,,,,,,,,,,,,,,,main,1,1,1,neutral,neutral,k,k,1,0.8069118000003073,384.39360300000044,385.41328240000075,385.37573860000157,None,384.39360300000044,None,384.39360300000044,None,384.39360300000044,None,386.1846618000003,None,386.1846618000003,None,386.1846618000003,None,,,,,,,,,,,202,28,Male,2022-04-26_16h43.23.534,Main,2022.1.1,59.97494246915011,
negative,negative,1,j,l,,,,,,,,,7,2,128,0,,,,,,,,,,,,,,,,,,,,,,,,main,2,2,1,negative,negative,j,j,1,0.7934987000007823,386.20450730000084,387.2074343000004,387.18921820000105,None,386.20450730000084,None,386.20450730000084,None,386.20450730000084,None,387.9791858000011,None,387.9791858000011,None,387.9791858000011,None,,,,,,,,,,,202,28,Male,2022-04-26_16h43.23.534,Main,2022.1.1,59.97494246915011,
negative,neutral,1,j,l,,,,,,,,,7,3,129,3,,,,,,,,,,,,,,,,,,,,,,,,main,2,2,1,neutral,negative,j,j,1,0.7800066999989212,387.9996490000012,389.01469480000014,388.9768658000012,None,387.9996490000012,None,387.9996490000012,None,387.9996490000012,None,389.76301620000083,None,389.76301620000083,None,389.76301620000083,None,,,,,,,,,,,202,28,Male,2022-04-26_16h43.23.534,Main,2022.1.1,59.97494246915011,
neutral,neutral,2,k,k,,,,,,,,,7,4,130,10,,,,,,,,,,,,,,,,,,,,,,,,main,1,1,2,neutral,neutral,k,k,1,0.7702757999995811,389.7827734000002,390.7914389000016,390.77292840000155,None,389.7827734000002,None,389.7827734000002,None,389.7827734000002,None,391.5361138000011,None,391.5361138000011,None,391.5361138000011,None,,,,,,,,,,,202,28,Male,2022-04-26_16h43.23.534,Main,2022.1.1,59.97494246915011,
neutral,negative,1,k,k,,,,,,,,,7,5,131,7,,,,,,,,,,,,,,,,,,,,,,,,main,2,2,1,negative,neutral,k,k,1,0.704149299999699,391.5555759000017,392.5568757000001,392.53814760000023,None,391.5555759000017,None,391.5555759000017,None,391.5555759000017,None,393.2418637000013,None,393.2418637000013,None,393.2418637000013,None,,,,,,,,,,,202,28,Male,2022-04-26_16h43.23.534,Main,2022.1.1,59.97494246915011,
positive,positive,2,l,j,,,,,,,,,7,6,132,11,,,,,,,,,,,,,,,,,,,,,,,,main,1,1,2,positive,positive,l,l,1,0.6659928000008222,393.2658241000008,394.28338090000034,394.24603449999995,None,393.2658241000008,None,393.2658241000008,None,393.2658241000008,None,394.912874,None,394.912874,None,394.912874,None,,,,,,,,,,,202,28,Male,2022-04-26_16h43.23.534,Main,2022.1.1,59.97494246915011,
positive,neutral,1,l,j,,,,,,,,,7,7,133,8,,,,,,,,,,,,,,,,,,,,,,,,main,1,1,1,neutral,positive,l,l,1,1.051094499998726,394.93392140000105,395.93920660000003,395.9193625000007,None,394.93392140000105,None,394.93392140000105,None,394.93392140000105,None,396.9681744000012,None,396.9681744000012,None,396.9681744000012,None,,,,,,,,,,,202,28,Male,2022-04-26_16h43.23.534,Main,2022.1.1,59.97494246915011,
neutral,positive,1,k,k,,,,,,,,,7,8,134,4,,,,,,,,,,,,,,,,,,,,,,,,main,2,2,1,positive,neutral,k,k,1,0.749025499999334,396.98928220000016,398.0082742000013,397.9704745000017,None,396.98928220000016,None,396.98928220000016,None,396.98928220000016,None,398.7207665000009,None,398.7207665000009,None,398.7207665000009,None,,,,,,,,,,,202,28,Male,2022-04-26_16h43.23.534,Main,2022.1.1,59.97494246915011,
negative,positive,2,j,l,,,,,,,,,7,9,135,15,,,,,,,,,,,,,,,,,,,,,,,,main,1,1,2,positive,negative,j,j,1,0.7444279999999708,398.7424154,399.74950570000146,399.72897750000084,None,398.7424154,None,398.7424154,None,398.7424154,None,400.46882570000014,None,400.46882570000014,None,400.46882570000014,None,,,,,,,,,,,202,28,Male,2022-04-26_16h43.23.534,Main,2022.1.1,59.97494246915011,
positive,negative,2,l,j,,,,,,,,,7,10,136,14,,,,,,,,,,,,,,,,,,,,,,,,main,2,2,2,negative,positive,l,l,1,0.7532694000001356,400.48996480000096,401.50111000000106,401.48233860000073,None,400.48996480000096,None,400.48996480000096,None,400.48996480000096,None,402.2246375000017,None,402.2246375000017,None,402.2246375000017,None,,,,,,,,,,,202,28,Male,2022-04-26_16h43.23.534,Main,2022.1.1,59.97494246915011,
positive,negative,1,l,j,,,,,,,,,7,11,137,5,,,,,,,,,,,,,,,,,,,,,,,,main,2,2,1,negative,positive,l,l,1,0.8408273000004556,402.2479234000002,403.26082850000057,403.2234363000007,None,402.2479234000002,None,402.2479234000002,None,402.2479234000002,None,404.0703520999999,None,404.0703520999999,None,404.0703520999999,None,,,,,,,,,,,202,28,Male,2022-04-26_16h43.23.534,Main,2022.1.1,59.97494246915011,
positive,positive,1,l,j,,,,,,,,,7,12,138,2,,,,,,,,,,,,,,,,,,,,,,,,main,2,2,1,positive,positive,l,l,1,0.5975620000008348,404.09021700000085,405.11489580000125,405.06839590000163,None,404.09021700000085,None,404.09021700000085,None,404.09021700000085,None,405.670118800001,None,405.670118800001,None,405.670118800001,None,,,,,,,,,,,202,28,Male,2022-04-26_16h43.23.534,Main,2022.1.1,59.97494246915011,
neutral,negative,2,k,k,,,,,,,,,7,13,139,16,,,,,,,,,,,,,,,,,,,,,,,,main,1,1,2,negative,neutral,k,k,1,0.7371708000009676,405.69013280000036,406.69422120000127,406.67744270000003,None,405.69013280000036,None,405.69013280000036,None,405.69013280000036,None,407.41020270000115,None,407.41020270000115,None,407.41020270000115,None,,,,,,,,,,,202,28,Male,2022-04-26_16h43.23.534,Main,2022.1.1,59.97494246915011,
negative,neutral,2,j,l,,,,,,,,,7,14,140,12,,,,,,,,,,,,,,,,,,,,,,,,main,2,2,2,neutral,negative,j,j,1,1.1940494999998919,407.43020510000133,408.45000380000056,408.4313344000002,None,407.43020510000133,None,407.43020510000133,None,407.43020510000133,None,409.606728000001,None,409.606728000001,None,409.606728000001,None,,,,,,,,,,,202,28,Male,2022-04-26_16h43.23.534,Main,2022.1.1,59.97494246915011,
neutral,positive,2,k,k,,,,,,,,,7,15,141,13,,,,,,,,,,,,,,,,,,,,,,,,main,2,2,2,positive,neutral,k,k,1,0.8948961000005511,409.62686360000043,410.62834770000154,410.61015920000136,None,409.62686360000043,None,409.62686360000043,None,409.62686360000043,None,411.502474700001,None,411.502474700001,None,411.502474700001,None,,,,,,,,,,,202,28,Male,2022-04-26_16h43.23.534,Main,2022.1.1,59.97494246915011,
negative,positive,1,j,l,,,,,,,,,7,16,142,6,,,,,,,,,,,,,,,,,,,,,,,,main,2,2,1,positive,negative,j,j,1,0.7415691000005609,411.52423010000166,412.5448926000008,412.50626850000117,None,411.52423010000166,None,411.52423010000166,None,411.52423010000166,None,413.25010560000044,None,413.25010560000044,None,413.25010560000044,None,,,,,,,,,,,202,28,Male,2022-04-26_16h43.23.534,Main,2022.1.1,59.97494246915011,
positive,neutral,2,l,j,,,,,,,,,7,17,143,17,,,,,,,,,,,,,,,,,,,,,,,,main,1,1,2,neutral,positive,l,l,1,0.8702522000003228,413.2710422,414.2748612000014,414.2563190000001,None,413.2710422,None,413.2710422,None,413.2710422,None,415.1226698000013,None,415.1226698000013,None,415.1226698000013,None,,,,,,,,,,,202,28,Male,2022-04-26_16h43.23.534,Main,2022.1.1,59.97494246915011,
positive,neutral,1,l,j,,,,,,,,,8,0,144,8,,,,,,,,,,,,,,,,,,,,,,,,main,2,2,1,neutral,positive,l,l,1,0.6595176999999239,415.1430356000001,416.1608090000009,416.1222424000007,None,415.1430356000001,None,415.1430356000001,None,415.1430356000001,None,416.78509800000063,None,416.78509800000063,None,416.78509800000063,None,,,,,,,,,,,202,28,Male,2022-04-26_16h43.23.534,Main,2022.1.1,59.97494246915011,
neutral,positive,1,k,k,,,,,,,,,8,1,145,4,,,,,,,,,,,,,,,,,,,,,,,,main,1,1,1,positive,neutral,k,k,1,0.7594384999993053,416.80535820000114,417.81013820000044,417.79106180000053,None,416.80535820000114,None,416.80535820000114,None,416.80535820000114,None,418.5488061,None,418.5488061,None,418.5488061,None,,,,,,,,,,,202,28,Male,2022-04-26_16h43.23.534,Main,2022.1.1,59.97494246915011,
positive,positive,2,l,j,,,,,,,,,8,2,146,11,,,,,,,,,,,,,,,,,,,,,,,,main,1,1,2,positive,positive,l,l,1,0.7218951999984711,418.56847130000097,419.58007160000125,419.54266270000153,None,418.56847130000097,None,418.56847130000097,None,418.56847130000097,None,420.27223190000075,None,420.27223190000075,None,420.27223190000075,None,,,,,,,,,,,202,28,Male,2022-04-26_16h43.23.534,Main,2022.1.1,59.97494246915011,
positive,negative,1,l,j,,,,,,,,,8,3,147,5,,,,,,,,,,,,,,,,,,,,,,,,main,2,2,1,negative,positive,l,l,1,0.7464392000001681,420.295900000001,421.31520610000007,421.2768324000008,None,420.295900000001,None,420.295900000001,None,420.295900000001,None,422.02173360000086,None,422.02173360000086,None,422.02173360000086,None,,,,,,,,,,,202,28,Male,2022-04-26_16h43.23.534,Main,2022.1.1,59.97494246915011,
neutral,neutral,2,k,k,,,,,,,,,8,4,148,10,,,,,,,,,,,,,,,,,,,,,,,,main,2,2,2,neutral,neutral,k,k,1,0.7405247999995481,422.04342970000107,423.0624692000001,423.02442620000147,None,422.04342970000107,None,422.04342970000107,None,422.04342970000107,None,423.76643250000086,None,423.76643250000086,None,423.76643250000086,None,,,,,,,,,,,202,28,Male,2022-04-26_16h43.23.534,Main,2022.1.1,59.97494246915011,
negative,negative,1,j,l,,,,,,,,,8,5,149,0,,,,,,,,,,,,,,,,,,,,,,,,main,2,2,1,negative,negative,j,j,1,0.8235678000000917,423.7882124000007,424.7928703000016,424.77428520000103,None,423.7882124000007,None,423.7882124000007,None,423.7882124000007,None,425.5911849000007,None,425.5911849000007,None,425.5911849000007,None,,,,,,,,,,,202,28,Male,2022-04-26_16h43.23.534,Main,2022.1.1,59.97494246915011,
positive,positive,1,l,j,,,,,,,,,8,6,150,2,,,,,,,,,,,,,,,,,,,,,,,,main,2,2,1,positive,positive,l,l,1,0.8125640999987809,425.62251860000106,426.6373811000012,426.61517660000027,None,425.62251860000106,None,425.62251860000106,None,425.62251860000106,None,427.4077955000015,None,427.4077955000015,None,427.4077955000015,None,,,,,,,,,,,202,28,Male,2022-04-26_16h43.23.534,Main,2022.1.1,59.97494246915011,
positive,neutral,2,l,j,,,,,,,,,8,7,151,17,,,,,,,,,,,,,,,,,,,,,,,,main,1,1,2,neutral,positive,l,l,1,0.7038549999997485,427.4351690000003,428.44124120000015,428.4207755000007,None,427.4351690000003,None,427.4351690000003,None,427.4351690000003,None,429.11360900000034,None,429.11360900000034,None,429.11360900000034,None,,,,,,,,,,,202,28,Male,2022-04-26_16h43.23.534,Main,2022.1.1,59.97494246915011,
neutral,negative,1,k,k,,,,,,,,,8,8,152,7,,,,,,,,,,,,,,,,,,,,,,,,main,1,1,1,negative,neutral,k,k,1,0.7875559999993129,429.1427542000001,430.15135850000115,430.1293013000013,None,429.1427542000001,None,429.1427542000001,None,429.1427542000001,None,430.90549040000076,None,430.90549040000076,None,430.90549040000076,None,,,,,,,,,,,202,28,Male,2022-04-26_16h43.23.534,Main,2022.1.1,59.97494246915011,
neutral,negative,2,k,k,,,,,,,,,8,9,153,16,,,,,,,,,,,,,,,,,,,,,,,,main,2,2,2,negative,neutral,k,k,1,0.6928028999991511,430.9339981000012,431.9468588,431.92481900000166,None,430.9339981000012,None,430.9339981000012,None,430.9339981000012,None,432.60162590000107,None,432.60162590000107,None,432.60162590000107,None,,,,,,,,,,,202,28,Male,2022-04-26_16h43.23.534,Main,2022.1.1,59.97494246915011,
negative,negative,2,j,l,,,,,,,,,8,10,154,9,,,,,,,,,,,,,,,,,,,,,,,,main,2,2,2,negative,negative,j,j,1,0.7672074000001885,432.6270157000017,433.6390841000011,433.6184596000003,None,432.6270157000017,None,432.6270157000017,None,432.6270157000017,None,434.3690358000007,None,434.3690358000007,None,434.3690358000007,None,,,,,,,,,,,202,28,Male,2022-04-26_16h43.23.534,Main,2022.1.1,59.97494246915011,
negative,neutral,1,j,l,,,,,,,,,8,11,155,3,,,,,,,,,,,,,,,,,,,,,,,,main,1,1,1,neutral,negative,j,l,0,0.9000882000000274,434.39961850000145,435.4106281000004,435.3884799000007,None,434.39961850000145,None,434.39961850000145,None,434.39961850000145,None,436.28543660000105,None,436.28543660000105,None,436.28543660000105,None,,,,,,,,,,,202,28,Male,2022-04-26_16h43.23.534,Main,2022.1.1,59.97494246915011,
neutral,positive,2,k,k,,,,,,,,,8,12,156,13,,,,,,,,,,,,,,,,,,,,,,,,main,2,2,2,positive,neutral,k,k,1,0.7287116999996215,437.3094684000007,438.31744140000046,438.2968206000005,None,437.3094684000007,None,437.3094684000007,None,437.3094684000007,None,439.0133371000014,None,439.0133371000014,None,439.0133371000014,None,,,,,,,,,,,202,28,Male,2022-04-26_16h43.23.534,Main,2022.1.1,59.97494246915011,
positive,negative,2,l,j,,,,,,,,,8,13,157,14,,,,,,,,,,,,,,,,,,,,,,,,main,2,2,2,negative,positive,l,l,1,0.7436068999995769,439.04427060000125,440.05054700000073,440.02817530000175,None,439.04427060000125,None,439.04427060000125,None,439.04427060000125,None,440.76194780000003,None,440.76194780000003,None,440.76194780000003,None,,,,,,,,,,,202,28,Male,2022-04-26_16h43.23.534,Main,2022.1.1,59.97494246915011,
negative,neutral,2,j,l,,,,,,,,,8,14,158,12,,,,,,,,,,,,,,,,,,,,,,,,main,2,2,2,neutral,negative,j,j,1,1.315581699998802,440.7903393000015,441.81323560000055,441.7719193000012,None,440.7903393000015,None,440.7903393000015,None,440.7903393000015,None,443.08158820000097,None,443.08158820000097,None,443.08158820000097,None,,,,,,,,,,,202,28,Male,2022-04-26_16h43.23.534,Main,2022.1.1,59.97494246915011,
negative,positive,2,j,l,,,,,,,,,8,15,159,15,,,,,,,,,,,,,,,,,,,,,,,,main,2,2,2,positive,negative,j,j,1,0.7197477999998227,443.1090854000013,444.11266890000115,444.0917577,None,443.1090854000013,None,443.1090854000013,None,443.1090854000013,None,444.806480900001,None,444.806480900001,None,444.806480900001,None,,,,,,,,,,,202,28,Male,2022-04-26_16h43.23.534,Main,2022.1.1,59.97494246915011,
neutral,neutral,1,k,k,,,,,,,,,8,16,160,1,,,,,,,,,,,,,,,,,,,,,,,,main,2,2,1,neutral,neutral,k,k,1,0.7336976999995386,444.83258560000104,445.84599660000094,445.8244941000012,None,444.83258560000104,None,444.83258560000104,None,444.83258560000104,None,446.5427706000013,None,446.5427706000013,None,446.5427706000013,None,,,,,,,,,,,202,28,Male,2022-04-26_16h43.23.534,Main,2022.1.1,59.97494246915011,
negative,positive,1,j,l,,,,,,,,,8,17,161,6,,,,,,,,,,,,,,,,,,,,,,,,main,1,1,1,positive,negative,j,j,1,0.821369200000845,446.5715402000005,447.58420670000123,447.56447500000104,None,446.5715402000005,None,446.5715402000005,None,446.5715402000005,None,448.3686833000014,None,448.3686833000014,None,448.3686833000014,None,,,,,,,,,,,202,28,Male,2022-04-26_16h43.23.534,Main,2022.1.1,59.97494246915011,
neutral,neutral,2,k,k,,,,,,,,,9,0,162,10,,,,,,,,,,,,,,,,,,,,,,,,main,1,1,2,neutral,neutral,k,k,1,0.7764088999992964,448.3987900000011,449.40389270000014,449.3835186000015,None,448.3987900000011,None,448.3987900000011,None,448.3987900000011,None,450.147046800001,None,450.147046800001,None,450.147046800001,None,,,,,,,,,,,202,28,Male,2022-04-26_16h43.23.534,Main,2022.1.1,59.97494246915011,
positive,neutral,2,l,j,,,,,,,,,9,1,163,17,,,,,,,,,,,,,,,,,,,,,,,,main,1,1,2,neutral,positive,l,l,1,0.6861690000005183,450.17665020000095,451.1888084000002,451.1674627000011,None,450.17665020000095,None,450.17665020000095,None,450.17665020000095,None,451.8392467000016,None,451.8392467000016,None,451.8392467000016,None,,,,,,,,,,,202,28,Male,2022-04-26_16h43.23.534,Main,2022.1.1,59.97494246915011,
negative,positive,1,j,l,,,,,,,,,9,2,164,6,,,,,,,,,,,,,,,,,,,,,,,,main,1,1,1,positive,negative,j,j,1,0.870770800000173,451.86874120000175,452.8827951000003,452.8620578000009,None,451.86874120000175,None,451.86874120000175,None,451.86874120000175,None,453.7110765000001,None,453.7110765000001,None,453.7110765000001,None,,,,,,,,,,,202,28,Male,2022-04-26_16h43.23.534,Main,2022.1.1,59.97494246915011,
neutral,positive,1,k,k,,,,,,,,,9,3,165,4,,,,,,,,,,,,,,,,,,,,,,,,main,2,2,1,positive,neutral,k,k,1,0.8101807999992161,453.73871750000035,454.7559162000016,454.7351028000012,None,453.73871750000035,None,453.73871750000035,None,453.73871750000035,None,455.52677230000006,None,455.52677230000006,None,455.52677230000006,None,,,,,,,,,,,202,28,Male,2022-04-26_16h43.23.534,Main,2022.1.1,59.97494246915011,
neutral,neutral,1,k,k,,,,,,,,,9,4,166,1,,,,,,,,,,,,,,,,,,,,,,,,main,2,2,1,neutral,neutral,k,k,1,0.6822658000000956,455.5579630000011,456.5644998000007,456.5431228000016,None,455.5579630000011,None,455.5579630000011,None,455.5579630000011,None,457.2145382000002,None,457.2145382000002,None,457.2145382000002,None,,,,,,,,,,,202,28,Male,2022-04-26_16h43.23.534,Main,2022.1.1,59.97494246915011,
positive,negative,2,l,j,,,,,,,,,9,5,167,14,,,,,,,,,,,,,,,,,,,,,,,,main,1,1,2,negative,positive,l,l,1,0.8673263000000588,457.24058290000175,458.2501800000009,458.23035790000176,None,457.24058290000175,None,457.24058290000175,None,457.24058290000175,None,459.08595190000085,None,459.08595190000085,None,459.08595190000085,None,,,,,,,,,,,202,28,Male,2022-04-26_16h43.23.534,Main,2022.1.1,59.97494246915011,
positive,positive,2,l,j,,,,,,,,,9,6,168,11,,,,,,,,,,,,,,,,,,,,,,,,main,2,2,2,positive,positive,l,l,1,0.7112429999997403,459.10877530000107,460.12677930000063,460.1056773,None,459.10877530000107,None,459.10877530000107,None,459.10877530000107,None,460.7970927000009,None,460.7970927000009,None,460.7970927000009,None,,,,,,,,,,,202,28,Male,2022-04-26_16h43.23.534,Main,2022.1.1,59.97494246915011,
negative,neutral,1,j,l,,,,,,,,,9,7,169,3,,,,,,,,,,,,,,,,,,,,,,,,main,2,2,1,neutral,negative,j,j,1,0.8528857999990578,460.8283928000001,461.8509894000017,461.8300710000003,None,460.8283928000001,None,460.8283928000001,None,460.8283928000001,None,462.6583318000015,None,462.6583318000015,None,462.6583318000015,None,,,,,,,,,,,202,28,Male,2022-04-26_16h43.23.534,Main,2022.1.1,59.97494246915011,
neutral,negative,2,k,k,,,,,,,,,9,8,170,16,,,,,,,,,,,,,,,,,,,,,,,,main,1,1,2,negative,neutral,k,k,1,0.8041353999997227,462.68699820000074,463.7054089000012,463.68341580000015,None,462.68699820000074,None,462.68699820000074,None,462.68699820000074,None,464.46561150000014,None,464.46561150000014,None,464.46561150000014,None,,,,,,,,,,,202,28,Male,2022-04-26_16h43.23.534,Main,2022.1.1,59.97494246915011,
positive,positive,1,l,j,,,,,,,,,9,9,171,2,,,,,,,,,,,,,,,,,,,,,,,,main,2,2,1,positive,positive,l,l,1,0.7340012999993633,464.4953774000005,465.5125654000003,465.4893404000013,None,464.4953774000005,None,464.4953774000005,None,464.4953774000005,None,466.20387020000123,None,466.20387020000123,None,466.20387020000123,None,,,,,,,,,,,202,28,Male,2022-04-26_16h43.23.534,Main,2022.1.1,59.97494246915011,
positive,neutral,1,l,j,,,,,,,,,9,10,172,8,,,,,,,,,,,,,,,,,,,,,,,,main,1,1,1,neutral,positive,l,l,1,0.783151399999042,466.229440000001,467.2410912000014,467.21987080000144,None,466.229440000001,None,466.229440000001,None,466.229440000001,None,467.9927809000004,None,467.9927809000004,None,467.9927809000004,None,,,,,,,,,,,202,28,Male,2022-04-26_16h43.23.534,Main,2022.1.1,59.97494246915011,
negative,negative,2,j,l,,,,,,,,,9,11,173,9,,,,,,,,,,,,,,,,,,,,,,,,main,2,2,2,negative,negative,j,j,1,0.7924769000001106,468.0186638000014,469.04141380000146,468.9961039000009,None,468.0186638000014,None,468.0186638000014,None,468.0186638000014,None,469.7895476000016,None,469.7895476000016,None,469.7895476000016,None,,,,,,,,,,,202,28,Male,2022-04-26_16h43.23.534,Main,2022.1.1,59.97494246915011,
positive,negative,1,l,j,,,,,,,,,9,12,174,5,,,,,,,,,,,,,,,,,,,,,,,,main,2,2,1,negative,positive,l,l,1,0.963013200000205,469.81643710000026,470.8417754000002,470.7984236000011,None,469.81643710000026,None,469.81643710000026,None,469.81643710000026,None,471.7520020000014,None,471.7520020000014,None,471.7520020000014,None,,,,,,,,,,,202,28,Male,2022-04-26_16h43.23.534,Main,2022.1.1,59.97494246915011,
negative,neutral,2,j,l,,,,,,,,,9,13,175,12,,,,,,,,,,,,,,,,,,,,,,,,main,1,1,2,neutral,negative,j,j,1,0.845402799999647,471.7810735000003,472.8007406000015,472.7797814000005,None,471.7810735000003,None,471.7810735000003,None,471.7810735000003,None,473.6056831000009,None,473.6056831000009,None,473.6056831000009,None,,,,,,,,,,,202,28,Male,2022-04-26_16h43.23.534,Main,2022.1.1,59.97494246915011,
negative,negative,1,j,l,,,,,,,,,9,14,176,0,,,,,,,,,,,,,,,,,,,,,,,,main,1,1,1,negative,negative,j,j,1,0.7969460000003892,473.6303553000016,474.6416979000005,474.6206247000009,None,473.6303553000016,None,473.6303553000016,None,473.6303553000016,None,475.40272070000026,None,475.40272070000026,None,475.40272070000026,None,,,,,,,,,,,202,28,Male,2022-04-26_16h43.23.534,Main,2022.1.1,59.97494246915011,
negative,positive,2,j,l,,,,,,,,,9,15,177,15,,,,,,,,,,,,,,,,,,,,,,,,main,2,2,2,positive,negative,j,j,1,0.7344185999991169,475.42905110000174,476.44176040000093,476.42024610000044,None,475.42905110000174,None,475.42905110000174,None,475.42905110000174,None,477.1402242000007,None,477.1402242000007,None,477.1402242000007,None,,,,,,,,,,,202,28,Male,2022-04-26_16h43.23.534,Main,2022.1.1,59.97494246915011,
neutral,negative,1,k,k,,,,,,,,,9,16,178,7,,,,,,,,,,,,,,,,,,,,,,,,main,2,2,1,negative,neutral,k,k,1,0.7872195999989344,477.1678109000004,478.18595300000015,478.16509230000156,None,477.1678109000004,None,477.1678109000004,None,477.1678109000004,None,478.93532410000114,None,478.93532410000114,None,478.93532410000114,None,,,,,,,,,,,202,28,Male,2022-04-26_16h43.23.534,Main,2022.1.1,59.97494246915011,
neutral,positive,2,k,k,,,,,,,,,9,17,179,13,,,,,,,,,,,,,,,,,,,,,,,,main,1,1,2,positive,neutral,k,k,1,0.6779757000003883,478.96193180000046,479.97378690000005,479.95415310000135,None,478.96193180000046,None,478.96193180000046,None,478.96193180000046,None,480.61326210000004,None,480.61326210000004,None,480.61326210000004,None,,,,,,,,,,,202,28,Male,2022-04-26_16h43.23.534,Main,2022.1.1,59.97494246915011,
positive,positive,1,l,j,,,,,,,,,10,0,180,2,,,,,,,,,,,,,,,,,,,,,,,,main,2,2,1,positive,positive,l,l,1,0.7990853999999672,480.6436648000017,481.65383870000005,481.6330917000014,None,480.6436648000017,None,480.6436648000017,None,480.6436648000017,None,482.41809690000116,None,482.41809690000116,None,482.41809690000116,None,,,,,,,,,,,202,28,Male,2022-04-26_16h43.23.534,Main,2022.1.1,59.97494246915011,
neutral,neutral,2,k,k,,,,,,,,,10,1,181,10,,,,,,,,,,,,,,,,,,,,,,,,main,2,2,2,neutral,neutral,k,k,1,0.8848110999988421,482.4426087000011,483.4644130000015,483.4240359000014,None,482.4426087000011,None,482.4426087000011,None,482.4426087000011,None,484.30126340000095,None,484.30126340000095,None,484.30126340000095,None,,,,,,,,,,,202,28,Male,2022-04-26_16h43.23.534,Main,2022.1.1,59.97494246915011,
negative,negative,2,j,l,,,,,,,,,10,2,182,9,,,,,,,,,,,,,,,,,,,,,,,,main,2,2,2,negative,negative,j,j,1,0.8988511999996263,484.3432881000008,485.3599473000013,485.31936490000044,None,484.3432881000008,None,484.3432881000008,None,484.3432881000008,None,486.2086180000009,None,486.2086180000009,None,486.2086180000009,None,,,,,,,,,,,202,28,Male,2022-04-26_16h43.23.534,Main,2022.1.1,59.97494246915011,
neutral,positive,2,k,k,,,,,,,,,10,3,183,13,,,,,,,,,,,,,,,,,,,,,,,,main,1,1,2,positive,neutral,k,k,1,0.8470508999998856,486.2352557000013,487.2459753000003,487.22744520000015,None,486.2352557000013,None,486.2352557000013,None,486.2352557000013,None,488.0594409000008,None,488.0594409000008,None,488.0594409000008,None,,,,,,,,,,,202,28,Male,2022-04-26_16h43.23.534,Main,2022.1.1,59.97494246915011,
negative,positive,2,j,l,,,,,,,,,10,4,184,15,,,,,,,,,,,,,,,,,,,,,,,,main,2,2,2,positive,negative,j,j,1,0.7324267999993026,488.0831882000002,489.10376990000077,489.06550510000125,None,488.0831882000002,None,488.0831882000002,None,488.0831882000002,None,489.7946691000001,None,489.7946691000001,None,489.7946691000001,None,,,,,,,,,,,202,28,Male,2022-04-26_16h43.23.534,Main,2022.1.1,59.97494246915011,
positive,negative,2,l,j,,,,,,,,,10,5,185,14,,,,,,,,,,,,,,,,,,,,,,,,main,2,2,2,negative,positive,l,l,1,0.6458114000015485,489.8189882000006,490.8338624000007,490.8130299000004,None,489.8189882000006,None,489.8189882000006,None,489.8189882000006,None,491.44386690000135,None,491.44386690000135,None,491.44386690000135,None,,,,,,,,,,,202,28,Male,2022-04-26_16h43.23.534,Main,2022.1.1,59.97494246915011,
negative,negative,1,j,l,,,,,,,,,10,6,186,0,,,,,,,,,,,,,,,,,,,,,,,,main,2,2,1,negative,negative,j,j,1,0.7062875000010536,491.46613960000104,492.4886458000001,492.44660940000176,None,491.46613960000104,None,491.46613960000104,None,491.46613960000104,None,493.1527098999999,None,493.1527098999999,None,493.1527098999999,None,,,,,,,,,,,202,28,Male,2022-04-26_16h43.23.534,Main,2022.1.1,59.97494246915011,
positive,positive,2,l,j,,,,,,,,,10,7,187,11,,,,,,,,,,,,,,,,,,,,,,,,main,1,1,2,positive,positive,l,l,1,0.807452099999864,493.1771367000001,494.1849845000015,494.1630709000001,None,493.1771367000001,None,493.1771367000001,None,493.1771367000001,None,494.961552000001,None,494.961552000001,None,494.961552000001,None,,,,,,,,,,,202,28,Male,2022-04-26_16h43.23.534,Main,2022.1.1,59.97494246915011,
neutral,negative,1,k,k,,,,,,,,,10,8,188,7,,,,,,,,,,,,,,,,,,,,,,,,main,1,1,1,negative,neutral,k,k,1,0.7775461000001087,494.994243000001,496.00982880000083,495.9900182000001,None,494.994243000001,None,494.994243000001,None,494.994243000001,None,496.74476340000035,None,496.74476340000035,None,496.74476340000035,None,,,,,,,,,,,202,28,Male,2022-04-26_16h43.23.534,Main,2022.1.1,59.97494246915011,
neutral,positive,1,k,k,,,,,,,,,10,9,189,4,,,,,,,,,,,,,,,,,,,,,,,,main,2,2,1,positive,neutral,k,k,1,0.8022445999995398,496.7712003000015,497.7868460000009,497.74434940000174,None,496.7712003000015,None,496.7712003000015,None,496.7712003000015,None,498.5492056000006,None,498.5492056000006,None,498.5492056000006,None,,,,,,,,,,,202,28,Male,2022-04-26_16h43.23.534,Main,2022.1.1,59.97494246915011,
negative,neutral,2,j,l,,,,,,,,,10,10,190,12,,,,,,,,,,,,,,,,,,,,,,,,main,2,2,2,neutral,negative,j,j,1,0.8290164999998524,498.58095850000063,499.58934670000053,499.56766140000036,None,498.58095850000063,None,498.58095850000063,None,498.58095850000063,None,500.3792631,None,500.3792631,None,500.3792631,None,,,,,,,,,,,202,28,Male,2022-04-26_16h43.23.534,Main,2022.1.1,59.97494246915011,
neutral,negative,2,k,k,,,,,,,,,10,11,191,16,,,,,,,,,,,,,,,,,,,,,,,,main,1,1,2,negative,neutral,k,k,1,0.7974790000007488,500.40412970000034,501.4191303000007,501.39887400000043,None,500.40412970000034,None,500.40412970000034,None,500.40412970000034,None,502.1813237000009,None,502.1813237000009,None,502.1813237000009,None,,,,,,,,,,,202,28,Male,2022-04-26_16h43.23.534,Main,2022.1.1,59.97494246915011,
neutral,neutral,1,k,k,,,,,,,,,10,12,192,1,,,,,,,,,,,,,,,,,,,,,,,,main,2,2,1,neutral,neutral,k,k,1,0.725380399999267,502.21023270000114,503.2304821000016,503.18892510000114,None,502.21023270000114,None,502.21023270000114,None,502.21023270000114,None,503.91112199999986,None,503.91112199999986,None,503.91112199999986,None,,,,,,,,,,,202,28,Male,2022-04-26_16h43.23.534,Main,2022.1.1,59.97494246915011,
positive,neutral,1,l,j,,,,,,,,,10,13,193,8,,,,,,,,,,,,,,,,,,,,,,,,main,2,2,1,neutral,positive,l,l,1,0.8246440000002622,503.93529900000067,504.94676580000123,504.92409810000026,None,503.93529900000067,None,503.93529900000067,None,503.93529900000067,None,505.7368786999999,None,505.7368786999999,None,505.7368786999999,None,,,,,,,,,,,202,28,Male,2022-04-26_16h43.23.534,Main,2022.1.1,59.97494246915011,
positive,neutral,2,l,j,,,,,,,,,10,14,194,17,,,,,,,,,,,,,,,,,,,,,,,,main,1,1,2,neutral,positive,l,l,1,0.7026992999999493,505.76895830000103,506.7845945000008,506.7429903000011,None,505.76895830000103,None,505.76895830000103,None,505.76895830000103,None,507.4451327999999,None,507.4451327999999,None,507.4451327999999,None,,,,,,,,,,,202,28,Male,2022-04-26_16h43.23.534,Main,2022.1.1,59.97494246915011,
negative,neutral,1,j,l,,,,,,,,,10,15,195,3,,,,,,,,,,,,,,,,,,,,,,,,main,2,2,1,neutral,negative,j,j,1,0.84937329999957,507.4691053000006,508.4807187000006,508.45869140000104,None,507.4691053000006,None,507.4691053000006,None,507.4691053000006,None,509.2981514000006,None,509.2981514000006,None,509.2981514000006,None,,,,,,,,,,,202,28,Male,2022-04-26_16h43.23.534,Main,2022.1.1,59.97494246915011,
positive,negative,1,l,j,,,,,,,,,10,16,196,5,,,,,,,,,,,,,,,,,,,,,,,,main,2,2,1,negative,positive,l,l,1,0.7953939999988506,509.3257906000017,510.3332588000012,510.3115609000015,None,509.3257906000017,None,509.3257906000017,None,509.3257906000017,None,511.09259110000164,None,511.09259110000164,None,511.09259110000164,None,,,,,,,,,,,202,28,Male,2022-04-26_16h43.23.534,Main,2022.1.1,59.97494246915011,
negative,positive,1,j,l,,,,,,,,,10,17,197,6,,,,,,,,,,,,,,,,,,,,,,,,main,2,2,1,positive,negative,j,j,1,0.8078260999991471,511.1241994000011,512.1283389,512.1079456000007,None,511.1241994000011,None,511.1241994000011,None,511.1241994000011,None,512.9045067999999,None,512.9045067999999,None,512.9045067999999,None,,,,,,,,,,,202,28,Male,2022-04-26_16h43.23.534,Main,2022.1.1,59.97494246915011,
neutral,positive,1,k,k,,,,,,,,,11,0,198,4,,,,,,,,,,,,,,,,,,,,,,,,main,2,2,1,positive,neutral,k,k,1,0.7337992000011582,512.9363189000014,513.9599516000017,513.9178099000001,None,512.9363189000014,None,512.9363189000014,None,512.9363189000014,None,514.6432636000012,None,514.6432636000012,None,514.6432636000012,None,,,,,,,,,,,202,28,Male,2022-04-26_16h43.23.534,Main,2022.1.1,59.97494246915011,
positive,negative,2,l,j,,,,,,,,,11,1,199,14,,,,,,,,,,,,,,,,,,,,,,,,main,1,1,2,negative,positive,l,l,1,0.734906100000444,514.6651956000005,515.6797603000014,515.6519554000006,None,514.6651956000005,None,514.6651956000005,None,514.6651956000005,None,516.3929306000016,None,516.3929306000016,None,516.3929306000016,None,,,,,,,,,,,202,28,Male,2022-04-26_16h43.23.534,Main,2022.1.1,59.97494246915011,
negative,positive,2,j,l,,,,,,,,,11,2,200,15,,,,,,,,,,,,,,,,,,,,,,,,main,2,2,2,positive,negative,j,j,1,0.7925157000008767,516.4179024000005,517.4325583000009,517.4068846000009,None,516.4179024000005,None,516.4179024000005,None,516.4179024000005,None,518.174232400001,None,518.174232400001,None,518.174232400001,None,,,,,,,,,,,202,28,Male,2022-04-26_16h43.23.534,Main,2022.1.1,59.97494246915011,
positive,neutral,2,l,j,,,,,,,,,11,3,201,17,,,,,,,,,,,,,,,,,,,,,,,,main,2,2,2,neutral,positive,l,l,1,0.8233937999993941,518.2117942000004,519.2346441000009,519.2079637000006,None,518.2117942000004,None,518.2117942000004,None,518.2117942000004,None,520.0161394000013,None,520.0161394000013,None,520.0161394000013,None,,,,,,,,,,,202,28,Male,2022-04-26_16h43.23.534,Main,2022.1.1,59.97494246915011,
neutral,neutral,2,k,k,,,,,,,,,11,4,202,10,,,,,,,,,,,,,,,,,,,,,,,,main,2,2,2,neutral,neutral,k,k,1,0.7803665999999794,520.0418623000005,521.0665567000015,521.0171120000014,None,520.0418623000005,None,520.0418623000005,None,520.0418623000005,None,521.8028493999998,None,521.8028493999998,None,521.8028493999998,None,,,,,,,,,,,202,28,Male,2022-04-26_16h43.23.534,Main,2022.1.1,59.97494246915011,
positive,positive,2,l,j,,,,,,,,,11,5,203,11,,,,,,,,,,,,,,,,,,,,,,,,main,2,2,2,positive,positive,l,l,1,0.7310467000006611,521.8217775000012,522.8383837000001,522.8145755000005,None,521.8217775000012,None,521.8217775000012,None,521.8217775000012,None,523.5238814000007,None,523.5238814000007,None,523.5238814000007,None,,,,,,,,,,,202,28,Male,2022-04-26_16h43.23.534,Main,2022.1.1,59.97494246915011,
neutral,negative,2,k,k,,,,,,,,,11,6,204,16,,,,,,,,,,,,,,,,,,,,,,,,main,2,2,2,negative,neutral,k,k,1,0.741515800000343,523.5557551000002,524.5606019000006,524.5400089000013,None,523.5557551000002,None,523.5557551000002,None,523.5557551000002,None,525.2696776000015,None,525.2696776000015,None,525.2696776000015,None,,,,,,,,,,,202,28,Male,2022-04-26_16h43.23.534,Main,2022.1.1,59.97494246915011,
negative,negative,1,j,l,,,,,,,,,11,7,205,0,,,,,,,,,,,,,,,,,,,,,,,,main,1,1,1,negative,negative,j,j,1,0.9517065000000002,525.2998269,526.3179846000003,526.2957382000004,None,525.2998269,None,525.2998269,None,525.2998269,None,527.2247102000005,None,527.2247102000005,None,527.2247102000005,None,,,,,,,,,,,202,28,Male,2022-04-26_16h43.23.534,Main,2022.1.1,59.97494246915011,
negative,positive,1,j,l,,,,,,,,,11,8,206,6,,,,,,,,,,,,,,,,,,,,,,,,main,1,1,1,positive,negative,j,j,1,0.7243837999994867,527.2528734000007,528.2570423000016,528.2357333,None,527.2528734000007,None,527.2528734000007,None,527.2528734000007,None,528.9521379000001,None,528.9521379000001,None,528.9521379000001,None,,,,,,,,,,,202,28,Male,2022-04-26_16h43.23.534,Main,2022.1.1,59.97494246915011,
negative,neutral,1,j,l,,,,,,,,,11,9,207,3,,,,,,,,,,,,,,,,,,,,,,,,main,1,1,1,neutral,negative,j,j,1,0.7021941000002698,528.9828309000004,530.0016174000011,529.9792958000016,None,528.9828309000004,None,528.9828309000004,None,528.9828309000004,None,530.6726340000012,None,530.6726340000012,None,530.6726340000012,None,,,,,,,,,,,202,28,Male,2022-04-26_16h43.23.534,Main,2022.1.1,59.97494246915011,
neutral,neutral,1,k,k,,,,,,,,,11,10,208,1,,,,,,,,,,,,,,,,,,,,,,,,main,1,1,1,neutral,neutral,k,k,1,0.7113596999988658,530.6863904000002,531.7082248000006,531.6854491000013,None,530.6863904000002,None,530.6863904000002,None,530.6863904000002,None,532.3735845000014,None,532.3735845000014,None,532.3735845000014,None,,,,,,,,,,,202,28,Male,2022-04-26_16h43.23.534,Main,2022.1.1,59.97494246915011,
negative,neutral,2,j,l,,,,,,,,,11,11,209,12,,,,,,,,,,,,,,,,,,,,,,,,main,2,2,2,neutral,negative,j,j,1,0.8095128000004479,532.404288400001,533.4186176000003,533.3963116000014,None,532.404288400001,None,532.404288400001,None,532.404288400001,None,534.1863476000002,None,534.1863476000002,None,534.1863476000002,None,,,,,,,,,,,202,28,Male,2022-04-26_16h43.23.534,Main,2022.1.1,59.97494246915011,
neutral,negative,1,k,k,,,,,,,,,11,12,210,7,,,,,,,,,,,,,,,,,,,,,,,,main,2,2,1,negative,neutral,k,k,1,0.7341343999996752,534.2120792000005,535.2272968000016,535.2052167000002,None,534.2120792000005,None,534.2120792000005,None,534.2120792000005,None,535.9207322000005,None,535.9207322000005,None,535.9207322000005,None,,,,,,,,,,,202,28,Male,2022-04-26_16h43.23.534,Main,2022.1.1,59.97494246915011,
