target,distractor,set,ans1,ans2,rep_loop2.thisRepN,rep_loop2.thisTrialN,rep_loop2.thisN,rep_loop2.thisIndex,flanker_prac_loop.thisRepN,flanker_prac_loop.thisTrialN,flanker_prac_loop.thisN,flanker_prac_loop.thisIndex,flanker_main_loop.thisRepN,flanker_main_loop.thisTrialN,flanker_main_loop.thisN,flanker_main_loop.thisIndex,fl_inst_resp.keys,mouse.x,mouse.y,mouse.leftButton,mouse.midButton,mouse.rightButton,mouse.started,mouse.stopped,sound_1.started,sound_1.stopped,no_text.started,no_text.stopped,yes_text.started,yes_text.stopped,mouse_2.x,mouse_2.y,mouse_2.leftButton,mouse_2.midButton,mouse_2.rightButton,mouse_2.started,mouse_2.stopped,back_2.started,back_2.stopped,main_prac,fl_cold,fl_colt,fl_set,fl_dcond,fl_tcond,fl_ans,fl_res,fl_corr,fl_rt,fix_fl.started,fix_fl.stopped,targ.started,targ.stopped,j_button.started,j_button.stopped,k_button.started,k_button.stopped,l_button.started,l_button.stopped,j_button2.started,j_button2.stopped,k_button2.started,k_button2.stopped,l_button2.started,l_button2.stopped,mainback.started,mainback.stopped,key_resp.keys,mouse_6.x,mouse_6.y,mouse_6.leftButton,mouse_6.midButton,mouse_6.rightButton,mouse_6.started,mouse_6.stopped,id*,age*,gender*,date,expName,psychopyVersion,frameRate,
,,,,,0,0,0,0,,,,,,,,,None,0.24259259,-0.39722222,0,0,0,1.0004677200004153,None,21.014630970000145,None,71.71116269999993,None,71.71116269999993,None,-0.09166667,-0.08055556,0,0,0,0.01225817000022289,None,,,,,,,,,,,,,,,,,,,,,,,,,,,,,,,,,,,,,,,203,24,Male,2022-04-27_11h20.10.307,Main,2022.1.1,60.06085365696551,
neutral,neutral,1,k,k,,,,,0,0,0,1,,,,,,,,,,,,,,,,,,,,,,,,,,76.50743229999989,None,prac,2,2,1,neutral,neutral,k,k,1,1.8021620000004077,78.55770510000002,79.56806809999989,79.54915960000017,None,78.55770510000002,None,78.55770510000002,None,78.55770510000002,None,81.35895570000002,None,81.35895570000002,None,81.35895570000002,None,,,,,,,,,,,203,24,Male,2022-04-27_11h20.10.307,Main,2022.1.1,60.06085365696551,
negative,positive,2,j,l,,,,,0,1,1,15,,,,,,,,,,,,,,,,,,,,,,,,,,,,prac,1,1,2,positive,negative,l,l,1,1.4640258999997968,82.40575910000007,83.41465659999994,83.39539139999988,None,82.40575910000007,None,82.40575910000007,None,82.40575910000007,None,84.82825437000001,None,84.82825437000001,None,84.82825437000001,None,,,,,,,,,,,203,24,Male,2022-04-27_11h20.10.307,Main,2022.1.1,60.06085365696551,
positive,positive,2,l,j,,,,,0,2,2,11,,,,,,,,,,,,,,,,,,,,,,,,,,,,prac,2,2,2,positive,positive,j,j,1,1.0236288999999488,84.86845369999992,85.87098900000001,85.85196709999991,None,84.86845369999992,None,84.86845369999992,None,84.86845369999992,None,86.85697507000013,None,86.85697507000013,None,86.85697507000013,None,,,,,,,,,,,203,24,Male,2022-04-27_11h20.10.307,Main,2022.1.1,60.06085365696551,
neutral,positive,2,k,k,,,,,0,3,3,13,,,,,,,,,,,,,,,,,,,,,,,,,,,,prac,2,2,2,positive,neutral,k,k,1,0.9563111999996181,86.89282950000006,87.9103299000003,87.89090560000022,None,86.89282950000006,None,86.89282950000006,None,86.89282950000006,None,88.8131876700002,None,88.8131876700002,None,88.8131876700002,None,,,,,,,,,,,203,24,Male,2022-04-27_11h20.10.307,Main,2022.1.1,60.06085365696551,
neutral,positive,1,k,k,,,,,0,4,4,4,,,,,,,,,,,,,,,,,,,,,,,,,,,,prac,2,2,1,positive,neutral,k,k,1,1.3391638000002786,88.85222460000023,89.86671569999999,89.8274776000003,None,88.85222460000023,None,88.85222460000023,None,88.85222460000023,None,91.1568518699999,None,91.1568518699999,None,91.1568518699999,None,,,,,,,,,,,203,24,Male,2022-04-27_11h20.10.307,Main,2022.1.1,60.06085365696551,
negative,negative,1,j,l,,,,,0,5,5,0,,,,,,,,,,,,,,,,,,,,,,,,,,,,prac,2,2,1,negative,negative,l,l,1,1.6395982999997614,91.19491800000014,92.20363829999997,92.1666095999999,None,91.19491800000014,None,91.19491800000014,None,91.19491800000014,None,93.80534770000031,None,93.80534770000031,None,93.80534770000031,None,,,,,,,,,,,203,24,Male,2022-04-27_11h20.10.307,Main,2022.1.1,60.06085365696551,
negative,neutral,2,j,l,,,,,0,6,6,12,,,,,,,,,,,,,,,,,,,,,,,,,,,,prac,1,1,2,neutral,negative,l,l,1,0.9828904999999395,94.83239060000005,95.84909610000022,95.81096220000018,None,94.83239060000005,None,94.83239060000005,None,94.83239060000005,None,96.77899576999998,None,96.77899576999998,None,96.77899576999998,None,,,,,,,,,,,203,24,Male,2022-04-27_11h20.10.307,Main,2022.1.1,60.06085365696551,
positive,negative,2,l,j,,,,,0,7,7,14,,,,,,,,,,,,,,,,,,,,,,,,,,,,prac,2,2,2,negative,positive,j,j,1,1.0819033999996464,96.81833910000023,97.8388986,97.79992519999996,None,96.81833910000023,None,96.81833910000023,None,96.81833910000023,None,98.86325736999997,None,98.86325736999997,None,98.86325736999997,None,,,,,,,,,,,203,24,Male,2022-04-27_11h20.10.307,Main,2022.1.1,60.06085365696551,
negative,negative,2,j,l,,,,,0,8,8,9,,,,,,,,,,,,,,,,,,,,,,,,,,,,prac,1,1,2,negative,negative,l,l,1,1.553909300000214,98.89602169999989,99.90149229999997,99.88092430000006,None,98.89602169999989,None,98.89602169999989,None,98.89602169999989,None,101.4271563000002,None,101.4271563000002,None,101.4271563000002,None,,,,,,,,,,,203,24,Male,2022-04-27_11h20.10.307,Main,2022.1.1,60.06085365696551,
neutral,neutral,2,k,k,,,,,0,9,9,10,,,,,,,,,,,,,,,,,,,,,,,,,,,,prac,2,2,2,neutral,neutral,k,k,1,1.3825894999999946,102.45951689999993,103.46728040000016,103.45038329999988,None,102.45951689999993,None,102.45951689999993,None,102.45951689999993,None,104.8111203700003,None,104.8111203700003,None,104.8111203700003,None,,,,,,,,,,,203,24,Male,2022-04-27_11h20.10.307,Main,2022.1.1,60.06085365696551,
positive,neutral,1,l,j,,,,,0,10,10,8,,,,,,,,,,,,,,,,,,,,,,,,,,,,prac,1,1,1,neutral,positive,j,j,1,1.0654068000003463,104.85435469999993,105.86839270000019,105.83007240000006,None,104.85435469999993,None,104.85435469999993,None,104.85435469999993,None,106.87869667000022,None,106.87869667000022,None,106.87869667000022,None,,,,,,,,,,,203,24,Male,2022-04-27_11h20.10.307,Main,2022.1.1,60.06085365696551,
positive,positive,1,l,j,,,,,0,11,11,2,,,,,,,,,,,,,,,,,,,,,,,,,,,,prac,2,2,1,positive,positive,j,j,1,0.8670968999999786,106.90366750000021,107.92028849999997,107.8819037000003,None,106.90366750000021,None,106.90366750000021,None,106.90366750000021,None,108.7503902700003,None,108.7503902700003,None,108.7503902700003,None,,,,,,,,,,,203,24,Male,2022-04-27_11h20.10.307,Main,2022.1.1,60.06085365696551,
neutral,negative,1,k,k,,,,,0,12,12,7,,,,,,,,,,,,,,,,,,,,,,,,,,,,prac,1,1,1,negative,neutral,k,k,1,1.1745774000000893,108.78367030000027,109.79882420000013,109.76035490000004,None,108.78367030000027,None,108.78367030000027,None,108.78367030000027,None,110.9254711700003,None,110.9254711700003,None,110.9254711700003,None,,,,,,,,,,,203,24,Male,2022-04-27_11h20.10.307,Main,2022.1.1,60.06085365696551,
positive,negative,1,l,j,,,,,0,13,13,5,,,,,,,,,,,,,,,,,,,,,,,,,,,,prac,1,1,1,negative,positive,j,j,1,1.1884681999999884,110.9469551000002,111.96407799999997,111.92715300000009,None,110.9469551000002,None,110.9469551000002,None,110.9469551000002,None,113.11752237,None,113.11752237,None,113.11752237,None,,,,,,,,,,,203,24,Male,2022-04-27_11h20.10.307,Main,2022.1.1,60.06085365696551,
negative,neutral,1,j,l,,,,,0,14,14,3,,,,,,,,,,,,,,,,,,,,,,,,,,,,prac,1,1,1,neutral,negative,l,l,1,0.9602788000001965,113.13907319999998,114.14235180000014,114.1231584000002,None,113.13907319999998,None,113.13907319999998,None,113.13907319999998,None,115.07778596999997,None,115.07778596999997,None,115.07778596999997,None,,,,,,,,,,,203,24,Male,2022-04-27_11h20.10.307,Main,2022.1.1,60.06085365696551,
neutral,negative,2,k,k,,,,,0,15,15,16,,,,,,,,,,,,,,,,,,,,,,,,,,,,prac,2,2,2,negative,neutral,k,k,1,0.9531053999999131,115.09851340000023,116.10458620000009,116.08566130000008,None,115.09851340000023,None,115.09851340000023,None,115.09851340000023,None,117.03539966999988,None,117.03539966999988,None,117.03539966999988,None,,,,,,,,,,,203,24,Male,2022-04-27_11h20.10.307,Main,2022.1.1,60.06085365696551,
negative,positive,1,j,l,,,,,0,16,16,6,,,,,,,,,,,,,,,,,,,,,,,,,,,,prac,2,2,1,positive,negative,l,l,1,1.367810499999905,117.05536119999988,118.0637299,118.04510130000017,None,117.05536119999988,None,117.05536119999988,None,117.05536119999988,None,119.40516107000012,None,119.40516107000012,None,119.40516107000012,None,,,,,,,,,,,203,24,Male,2022-04-27_11h20.10.307,Main,2022.1.1,60.06085365696551,
positive,neutral,2,l,j,,,,,0,17,17,17,,,,,,,,,,,,,,,,,,,,,,,,,,,,prac,2,2,2,neutral,positive,j,j,1,1.0153018999999404,119.42578490000005,120.44147610000027,120.40312459999996,None,119.42578490000005,None,119.42578490000005,None,119.42578490000005,None,121.42349657000004,None,121.42349657000004,None,121.42349657000004,None,,,,,,,,,,,203,24,Male,2022-04-27_11h20.10.307,Main,2022.1.1,60.06085365696551,
positive,neutral,1,l,j,,,,,1,0,18,8,,,,,,,,,,,,,,,,,,,,,,,,,,,,prac,2,2,1,neutral,positive,j,j,1,1.299997600000097,121.44482319999997,122.45980409999993,122.42229010000028,None,121.44482319999997,None,121.44482319999997,None,121.44482319999997,None,123.72592956999988,None,123.72592956999988,None,123.72592956999988,None,,,,,,,,,,,203,24,Male,2022-04-27_11h20.10.307,Main,2022.1.1,60.06085365696551,
negative,neutral,1,j,l,,,,,1,1,19,3,,,,,,,,,,,,,,,,,,,,,,,,,,,,prac,2,2,1,neutral,negative,l,l,1,0.9867029000001821,123.74640820000013,124.7589396000003,124.72048859999995,None,123.74640820000013,None,123.74640820000013,None,123.74640820000013,None,125.71647147000003,None,125.71647147000003,None,125.71647147000003,None,,,,,,,,,,,203,24,Male,2022-04-27_11h20.10.307,Main,2022.1.1,60.06085365696551,
positive,neutral,2,l,j,,,,,1,2,20,17,,,,,,,,,,,,,,,,,,,,,,,,,,,,prac,1,1,2,neutral,positive,j,k,0,1.0230937999999696,125.73928000000024,126.74817729999995,126.71040369999992,None,125.73928000000024,None,125.73928000000024,None,125.73928000000024,None,127.75010220000013,None,127.75010220000013,None,127.75010220000013,None,,,,,,,,,,,203,24,Male,2022-04-27_11h20.10.307,Main,2022.1.1,60.06085365696551,
neutral,positive,1,k,k,,,,,1,3,21,4,,,,,,,,,,,,,,,,,,,,,,,,,,,,prac,2,2,1,positive,neutral,k,k,1,0.8737576999997145,128.7622848000001,129.77270020000014,129.75428640000018,None,128.7622848000001,None,128.7622848000001,None,128.7622848000001,None,130.61763097000022,None,130.61763097000022,None,130.61763097000022,None,,,,,,,,,,,203,24,Male,2022-04-27_11h20.10.307,Main,2022.1.1,60.06085365696551,
neutral,neutral,2,k,k,,,,,1,4,22,10,,,,,,,,,,,,,,,,,,,,,,,,,,,,prac,2,2,2,neutral,neutral,k,k,1,0.8725236999998742,130.63969730000008,131.64668380000012,131.6282215000001,None,130.63969730000008,None,130.63969730000008,None,130.63969730000008,None,132.49054757000005,None,132.49054757000005,None,132.49054757000005,None,,,,,,,,,,,203,24,Male,2022-04-27_11h20.10.307,Main,2022.1.1,60.06085365696551,
neutral,negative,2,k,k,,,,,1,5,23,16,,,,,,,,,,,,,,,,,,,,,,,,,,,,prac,2,2,2,negative,neutral,k,k,1,0.8629102999998395,132.51137370000015,133.5140136,133.49577050000016,None,132.51137370000015,None,132.51137370000015,None,132.51137370000015,None,134.35589997000017,None,134.35589997000017,None,134.35589997000017,None,,,,,,,,,,,203,24,Male,2022-04-27_11h20.10.307,Main,2022.1.1,60.06085365696551,
negative,negative,1,j,l,,,,,1,6,24,0,,,,,,,,,,,,,,,,,,,,,,,,,,,,prac,2,2,1,negative,negative,l,l,1,1.898939700000028,134.3762313000002,135.39032720000023,135.35208469999998,None,134.3762313000002,None,134.3762313000002,None,134.3762313000002,None,137.26276450000023,None,137.26276450000023,None,137.26276450000023,None,,,,,,,,,,,203,24,Male,2022-04-27_11h20.10.307,Main,2022.1.1,60.06085365696551,
negative,positive,2,j,l,,,,,1,7,25,15,,,,,,,,,,,,,,,,,,,,,,,,,,,,prac,2,2,2,positive,negative,l,l,1,0.7764342999998917,138.27715080000007,139.28818490000003,139.26837320000004,None,138.27715080000007,None,138.27715080000007,None,138.27715080000007,None,140.03548607000022,None,140.03548607000022,None,140.03548607000022,None,,,,,,,,,,,203,24,Male,2022-04-27_11h20.10.307,Main,2022.1.1,60.06085365696551,
negative,neutral,2,j,l,,,,,1,8,26,12,,,,,,,,,,,,,,,,,,,,,,,,,,,,prac,2,2,2,neutral,negative,l,l,1,0.7668154000002687,140.05607129999999,141.0733140000002,141.03548330000012,None,140.05607129999999,None,140.05607129999999,None,140.05607129999999,None,141.80302156999988,None,141.80302156999988,None,141.80302156999988,None,,,,,,,,,,,203,24,Male,2022-04-27_11h20.10.307,Main,2022.1.1,60.06085365696551,
positive,positive,2,l,j,,,,,1,9,27,11,,,,,,,,,,,,,,,,,,,,,,,,,,,,prac,1,1,2,positive,positive,j,j,1,0.8928917000002912,141.82523930000025,142.84041819999993,142.8016462999999,None,141.82523930000025,None,141.82523930000025,None,141.82523930000025,None,143.7019236700001,None,143.7019236700001,None,143.7019236700001,None,,,,,,,,,,,203,24,Male,2022-04-27_11h20.10.307,Main,2022.1.1,60.06085365696551,
neutral,neutral,1,k,k,,,,,1,10,28,1,,,,,,,,,,,,,,,,,,,,,,,,,,,,prac,2,2,1,neutral,neutral,k,k,1,0.7784947000000102,143.7229127999999,144.73637610000014,144.69553580000002,None,143.7229127999999,None,143.7229127999999,None,143.7229127999999,None,145.48495037000004,None,145.48495037000004,None,145.48495037000004,None,,,,,,,,,,,203,24,Male,2022-04-27_11h20.10.307,Main,2022.1.1,60.06085365696551,
neutral,negative,1,k,k,,,,,1,11,29,7,,,,,,,,,,,,,,,,,,,,,,,,,,,,prac,2,2,1,negative,neutral,k,k,1,0.6926671999999598,145.5059756999999,146.50941899999998,146.49031999999988,None,145.5059756999999,None,145.5059756999999,None,145.5059756999999,None,147.1816172699999,None,147.1816172699999,None,147.1816172699999,None,,,,,,,,,,,203,24,Male,2022-04-27_11h20.10.307,Main,2022.1.1,60.06085365696551,
positive,negative,2,l,j,,,,,1,12,30,14,,,,,,,,,,,,,,,,,,,,,,,,,,,,prac,1,1,2,negative,positive,j,j,1,1.490451199999825,147.20258550000017,148.22160209999993,148.17884760000015,None,147.20258550000017,None,147.20258550000017,None,147.20258550000017,None,149.67173437000002,None,149.67173437000002,None,149.67173437000002,None,,,,,,,,,,,203,24,Male,2022-04-27_11h20.10.307,Main,2022.1.1,60.06085365696551,
positive,positive,1,l,j,,,,,1,13,31,2,,,,,,,,,,,,,,,,,,,,,,,,,,,,prac,2,2,1,positive,positive,j,j,1,1.3130755000001955,149.69323669999994,150.71109239999987,150.67318890000024,None,149.69323669999994,None,149.69323669999994,None,149.69323669999994,None,151.9879591699999,None,151.9879591699999,None,151.9879591699999,None,,,,,,,,,,,203,24,Male,2022-04-27_11h20.10.307,Main,2022.1.1,60.06085365696551,
neutral,positive,2,k,k,,,,,1,14,32,13,,,,,,,,,,,,,,,,,,,,,,,,,,,,prac,2,2,2,positive,neutral,k,k,1,0.914549299999635,152.01006080000025,153.01973940000016,152.981405,None,152.01006080000025,None,152.01006080000025,None,152.01006080000025,None,153.90433317000026,None,153.90433317000026,None,153.90433317000026,None,,,,,,,,,,,203,24,Male,2022-04-27_11h20.10.307,Main,2022.1.1,60.06085365696551,
negative,negative,2,j,l,,,,,1,15,33,9,,,,,,,,,,,,,,,,,,,,,,,,,,,,prac,1,1,2,negative,negative,l,l,1,0.9154367999999522,153.93068010000025,154.9423842000001,154.90546600000016,None,153.93068010000025,None,153.93068010000025,None,153.93068010000025,None,155.82213877000032,None,155.82213877000032,None,155.82213877000032,None,,,,,,,,,,,203,24,Male,2022-04-27_11h20.10.307,Main,2022.1.1,60.06085365696551,
negative,positive,1,j,l,,,,,1,16,34,6,,,,,,,,,,,,,,,,,,,,,,,,,,,,prac,2,2,1,positive,negative,l,l,1,1.417366099999981,155.8430811000003,156.8602208000002,156.82212909999998,None,155.8430811000003,None,155.8430811000003,None,155.8430811000003,None,158.2438005699999,None,158.2438005699999,None,158.2438005699999,None,,,,,,,,,,,203,24,Male,2022-04-27_11h20.10.307,Main,2022.1.1,60.06085365696551,
positive,negative,1,l,j,,,,,1,17,35,5,,,,,,,,,,,,,,,,,,,,,,,,,,,,prac,2,2,1,negative,positive,j,j,1,1.6647299000001112,158.26339300000018,159.28331329999992,159.24333090000027,None,158.26339300000018,None,158.26339300000018,None,158.26339300000018,None,160.91486480000003,None,160.91486480000003,None,160.91486480000003,None,,,,,,,,,,,203,24,Male,2022-04-27_11h20.10.307,Main,2022.1.1,60.06085365696551,
,,,,,,,,,,,,,,,,,,,,,,,,,,,,,,,,,,,,,,,,,,,,,,,,,,,,,,,,,,,,,,,,,,161.92965330000015,None,None,,,,,,,,203,24,Male,2022-04-27_11h20.10.307,Main,2022.1.1,60.06085365696551,
,,,,,,,,,,,,,,,,,,,,,,,,,,,,,,,,,,,,,,,,,,,,,,,,,,,,,,,,,,,,,,,,,,,,,0.06481481,-0.07777778,1,0,0,0.0155570700003409,None,203,24,Male,2022-04-27_11h20.10.307,Main,2022.1.1,60.06085365696551,
negative,positive,2,j,l,,,,,,,,,0,0,0,15,,,,,,,,,,,,,,,,,,,,,,166.44610310000007,None,main,2,2,2,positive,negative,l,l,1,1.190540200000214,168.46745360000023,169.48095839999996,169.4418713,None,168.46745360000023,None,168.46745360000023,None,168.46745360000023,None,170.63692757000018,None,170.63692757000018,None,170.63692757000018,None,,,,,,,,,,,203,24,Male,2022-04-27_11h20.10.307,Main,2022.1.1,60.06085365696551,
neutral,positive,2,k,k,,,,,,,,,0,1,1,13,,,,,,,,,,,,,,,,,,,,,,,,main,2,2,2,positive,neutral,k,k,1,0.9442861000002267,170.6650625000002,171.6676293999999,171.6481942999999,None,170.6650625000002,None,170.6650625000002,None,170.6650625000002,None,172.58612367000006,None,172.58612367000006,None,172.58612367000006,None,,,,,,,,,,,203,24,Male,2022-04-27_11h20.10.307,Main,2022.1.1,60.06085365696551,
positive,negative,1,l,j,,,,,,,,,0,2,2,5,,,,,,,,,,,,,,,,,,,,,,,,main,2,2,1,negative,positive,j,j,1,1.1015996000000996,172.60741460000008,173.61114020000014,173.59140419999994,None,172.60741460000008,None,172.60741460000008,None,172.60741460000008,None,174.69070067000013,None,174.69070067000013,None,174.69070067000013,None,,,,,,,,,,,203,24,Male,2022-04-27_11h20.10.307,Main,2022.1.1,60.06085365696551,
negative,neutral,1,j,l,,,,,,,,,0,3,3,3,,,,,,,,,,,,,,,,,,,,,,,,main,2,2,1,neutral,negative,l,l,1,0.7954205000000911,174.71631860000025,175.72476110000025,175.6895142000003,None,174.71631860000025,None,174.71631860000025,None,174.71631860000025,None,176.4896493700001,None,176.4896493700001,None,176.4896493700001,None,,,,,,,,,,,203,24,Male,2022-04-27_11h20.10.307,Main,2022.1.1,60.06085365696551,
neutral,neutral,1,k,k,,,,,,,,,0,4,4,1,,,,,,,,,,,,,,,,,,,,,,,,main,1,1,1,neutral,neutral,k,k,1,0.840672799999993,176.51357260000032,177.53230220000023,177.49455190000026,None,176.51357260000032,None,176.51357260000032,None,176.51357260000032,None,178.3333251699999,None,178.3333251699999,None,178.3333251699999,None,,,,,,,,,,,203,24,Male,2022-04-27_11h20.10.307,Main,2022.1.1,60.06085365696551,
positive,neutral,1,l,j,,,,,,,,,0,5,5,8,,,,,,,,,,,,,,,,,,,,,,,,main,1,1,1,neutral,positive,j,j,1,0.9515845000000809,178.35465250000016,179.3726157000001,179.3349558,None,178.35465250000016,None,178.35465250000016,None,178.35465250000016,None,180.2904625700001,None,180.2904625700001,None,180.2904625700001,None,,,,,,,,,,,203,24,Male,2022-04-27_11h20.10.307,Main,2022.1.1,60.06085365696551,
negative,neutral,2,j,l,,,,,,,,,0,6,6,12,,,,,,,,,,,,,,,,,,,,,,,,main,1,1,2,neutral,negative,l,l,1,0.9298089999997501,180.31504840000025,181.33104920000005,181.29220329999998,None,180.31504840000025,None,180.31504840000025,None,180.31504840000025,None,182.22457216999993,None,182.22457216999993,None,182.22457216999993,None,,,,,,,,,,,203,24,Male,2022-04-27_11h20.10.307,Main,2022.1.1,60.06085365696551,
neutral,neutral,2,k,k,,,,,,,,,0,7,7,10,,,,,,,,,,,,,,,,,,,,,,,,main,2,2,2,neutral,neutral,k,k,1,1.2617261000000326,182.24543570000014,183.2603982999999,183.2219382000003,None,182.24543570000014,None,182.24543570000014,None,182.24543570000014,None,184.48624557000022,None,184.48624557000022,None,184.48624557000022,None,,,,,,,,,,,203,24,Male,2022-04-27_11h20.10.307,Main,2022.1.1,60.06085365696551,
positive,positive,2,l,j,,,,,,,,,0,8,8,11,,,,,,,,,,,,,,,,,,,,,,,,main,2,2,2,positive,positive,j,j,1,0.9620097000001806,184.50857440000027,185.5246299999999,185.48707550000017,None,184.50857440000027,None,184.50857440000027,None,184.50857440000027,None,186.45124337,None,186.45124337,None,186.45124337,None,,,,,,,,,,,203,24,Male,2022-04-27_11h20.10.307,Main,2022.1.1,60.06085365696551,
positive,negative,2,l,j,,,,,,,,,0,9,9,14,,,,,,,,,,,,,,,,,,,,,,,,main,1,1,2,negative,positive,j,j,1,0.992033999999876,186.47153000000026,187.47373040000002,187.45494559999997,None,186.47153000000026,None,186.47153000000026,None,186.47153000000026,None,188.44761236999994,None,188.44761236999994,None,188.44761236999994,None,,,,,,,,,,,203,24,Male,2022-04-27_11h20.10.307,Main,2022.1.1,60.06085365696551,
neutral,negative,2,k,k,,,,,,,,,0,10,10,16,,,,,,,,,,,,,,,,,,,,,,,,main,1,1,2,negative,neutral,k,k,1,0.9749314000000595,188.4692774,189.47167260000015,189.45280430000003,None,188.4692774,None,188.4692774,None,188.4692774,None,190.4282975700001,None,190.4282975700001,None,190.4282975700001,None,,,,,,,,,,,203,24,Male,2022-04-27_11h20.10.307,Main,2022.1.1,60.06085365696551,
negative,negative,2,j,l,,,,,,,,,0,11,11,9,,,,,,,,,,,,,,,,,,,,,,,,main,1,1,2,negative,negative,l,l,1,0.9532551999996031,190.45090140000002,191.4702371000003,191.43318390000013,None,190.45090140000002,None,190.45090140000002,None,190.45090140000002,None,192.3853121700002,None,192.3853121700002,None,192.3853121700002,None,,,,,,,,,,,203,24,Male,2022-04-27_11h20.10.307,Main,2022.1.1,60.06085365696551,
neutral,negative,1,k,k,,,,,,,,,0,12,12,7,,,,,,,,,,,,,,,,,,,,,,,,main,1,1,1,negative,neutral,k,k,1,1.449146599999949,192.41066980000005,193.4190510000003,193.40011890000005,None,192.41066980000005,None,192.41066980000005,None,192.41066980000005,None,194.83770827000018,None,194.83770827000018,None,194.83770827000018,None,,,,,,,,,,,203,24,Male,2022-04-27_11h20.10.307,Main,2022.1.1,60.06085365696551,
positive,neutral,2,l,j,,,,,,,,,0,13,13,17,,,,,,,,,,,,,,,,,,,,,,,,main,2,2,2,neutral,positive,j,j,1,0.9447058000000652,194.86230049999995,195.88261920000014,195.84342100000003,None,194.86230049999995,None,194.86230049999995,None,194.86230049999995,None,196.78469517000013,None,196.78469517000013,None,196.78469517000013,None,,,,,,,,,,,203,24,Male,2022-04-27_11h20.10.307,Main,2022.1.1,60.06085365696551,
negative,negative,1,j,l,,,,,,,,,0,14,14,0,,,,,,,,,,,,,,,,,,,,,,,,main,2,2,1,negative,negative,l,l,1,1.3127885999997488,196.80958899999996,197.8170299000003,197.79827320000004,None,196.80958899999996,None,196.80958899999996,None,196.80958899999996,None,199.10002447000016,None,199.10002447000016,None,199.10002447000016,None,,,,,,,,,,,203,24,Male,2022-04-27_11h20.10.307,Main,2022.1.1,60.06085365696551,
neutral,positive,1,k,k,,,,,,,,,0,15,15,4,,,,,,,,,,,,,,,,,,,,,,,,main,2,2,1,positive,neutral,k,k,1,0.9598072999997385,199.1214871000002,200.14154940000026,200.10324440000022,None,199.1214871000002,None,199.1214871000002,None,199.1214871000002,None,201.06327167,None,201.06327167,None,201.06327167,None,,,,,,,,,,,203,24,Male,2022-04-27_11h20.10.307,Main,2022.1.1,60.06085365696551,
positive,positive,1,l,j,,,,,,,,,0,16,16,2,,,,,,,,,,,,,,,,,,,,,,,,main,2,2,1,positive,positive,j,j,1,1.0388802000002215,201.08372959999997,202.08732529999997,202.0682979000003,None,201.08372959999997,None,201.08372959999997,None,201.08372959999997,None,203.10642506999994,None,203.10642506999994,None,203.10642506999994,None,,,,,,,,,,,203,24,Male,2022-04-27_11h20.10.307,Main,2022.1.1,60.06085365696551,
negative,positive,1,j,l,,,,,,,,,0,17,17,6,,,,,,,,,,,,,,,,,,,,,,,,main,1,1,1,positive,negative,l,l,1,1.2297983000003114,203.1372019999999,204.15029240000013,204.13135390000025,None,203.1372019999999,None,203.1372019999999,None,203.1372019999999,None,205.3365292700003,None,205.3365292700003,None,205.3365292700003,None,,,,,,,,,,,203,24,Male,2022-04-27_11h20.10.307,Main,2022.1.1,60.06085365696551,
negative,negative,1,j,l,,,,,,,,,1,0,18,0,,,,,,,,,,,,,,,,,,,,,,,,main,1,1,1,negative,negative,l,l,1,1.3937042000002293,205.3577866999999,206.36293440000009,206.34441100000004,None,205.3577866999999,None,205.3577866999999,None,205.3577866999999,None,207.73217576999997,None,207.73217576999997,None,207.73217576999997,None,,,,,,,,,,,203,24,Male,2022-04-27_11h20.10.307,Main,2022.1.1,60.06085365696551,
negative,positive,1,j,l,,,,,,,,,1,1,19,6,,,,,,,,,,,,,,,,,,,,,,,,main,1,1,1,positive,negative,l,l,1,0.8731823000002805,207.7540939999999,208.76666030000024,208.72933730000022,None,207.7540939999999,None,207.7540939999999,None,207.7540939999999,None,209.61043827000032,None,209.61043827000032,None,209.61043827000032,None,,,,,,,,,,,203,24,Male,2022-04-27_11h20.10.307,Main,2022.1.1,60.06085365696551,
positive,positive,1,l,j,,,,,,,,,1,2,20,2,,,,,,,,,,,,,,,,,,,,,,,,main,1,1,1,positive,positive,j,j,1,0.9225987999998324,209.6302679999999,210.64112380000006,210.60373359999994,None,209.6302679999999,None,209.6302679999999,None,209.6302679999999,None,211.53396097000024,None,211.53396097000024,None,211.53396097000024,None,,,,,,,,,,,203,24,Male,2022-04-27_11h20.10.307,Main,2022.1.1,60.06085365696551,
neutral,negative,2,k,k,,,,,,,,,1,3,21,16,,,,,,,,,,,,,,,,,,,,,,,,main,1,1,2,negative,neutral,k,k,1,0.9528883000002679,211.55582409999988,212.5735440000003,212.5358008000003,None,211.55582409999988,None,211.55582409999988,None,211.55582409999988,None,213.49306067000026,None,213.49306067000026,None,213.49306067000026,None,,,,,,,,,,,203,24,Male,2022-04-27_11h20.10.307,Main,2022.1.1,60.06085365696551,
negative,positive,2,j,l,,,,,,,,,1,4,22,15,,,,,,,,,,,,,,,,,,,,,,,,main,1,1,2,positive,negative,l,l,1,1.146422999999686,213.5154636000002,214.5312210000002,214.49213970000028,None,213.5154636000002,None,213.5154636000002,None,213.5154636000002,None,215.64434817000011,None,215.64434817000011,None,215.64434817000011,None,,,,,,,,,,,203,24,Male,2022-04-27_11h20.10.307,Main,2022.1.1,60.06085365696551,
neutral,positive,2,k,k,,,,,,,,,1,5,23,13,,,,,,,,,,,,,,,,,,,,,,,,main,2,2,2,positive,neutral,k,k,1,1.1082486000000245,215.6655082000002,216.68581570000015,216.64740729999994,None,215.6655082000002,None,215.6655082000002,None,215.6655082000002,None,217.75769137000026,None,217.75769137000026,None,217.75769137000026,None,,,,,,,,,,,203,24,Male,2022-04-27_11h20.10.307,Main,2022.1.1,60.06085365696551,
positive,neutral,1,l,j,,,,,,,,,1,6,24,8,,,,,,,,,,,,,,,,,,,,,,,,main,2,2,1,neutral,positive,j,j,1,1.1119407999999567,217.77886829999989,218.7846644000001,218.7661062000002,None,217.77886829999989,None,217.77886829999989,None,217.77886829999989,None,219.87291166999995,None,219.87291166999995,None,219.87291166999995,None,,,,,,,,,,,203,24,Male,2022-04-27_11h20.10.307,Main,2022.1.1,60.06085365696551,
neutral,neutral,1,k,k,,,,,,,,,1,7,25,1,,,,,,,,,,,,,,,,,,,,,,,,main,1,1,1,neutral,neutral,k,k,1,1.323333900000307,219.89566490000016,220.90843200000018,220.89032410000027,None,219.89566490000016,None,219.89566490000016,None,219.89566490000016,None,222.19805167000032,None,222.19805167000032,None,222.19805167000032,None,,,,,,,,,,,203,24,Male,2022-04-27_11h20.10.307,Main,2022.1.1,60.06085365696551,
neutral,negative,1,k,k,,,,,,,,,1,8,26,7,,,,,,,,,,,,,,,,,,,,,,,,main,2,2,1,negative,neutral,k,k,1,0.8871228999996674,222.22225320000007,223.24236509999992,223.2021211000001,None,222.22225320000007,None,222.22225320000007,None,222.22225320000007,None,224.08915697000003,None,224.08915697000003,None,224.08915697000003,None,,,,,,,,,,,203,24,Male,2022-04-27_11h20.10.307,Main,2022.1.1,60.06085365696551,
positive,neutral,2,l,j,,,,,,,,,1,9,27,17,,,,,,,,,,,,,,,,,,,,,,,,main,2,2,2,neutral,positive,j,j,1,1.2056416000000354,224.1139315999999,225.1219447000003,225.10316009999997,None,224.1139315999999,None,224.1139315999999,None,224.1139315999999,None,226.29573026999998,None,226.29573026999998,None,226.29573026999998,None,,,,,,,,,,,203,24,Male,2022-04-27_11h20.10.307,Main,2022.1.1,60.06085365696551,
negative,neutral,2,j,l,,,,,,,,,1,10,28,12,,,,,,,,,,,,,,,,,,,,,,,,main,2,2,2,neutral,negative,l,l,1,1.863332299999911,226.31734830000005,227.3333074000002,227.2938111000003,None,226.31734830000005,None,226.31734830000005,None,226.31734830000005,None,229.16808930000025,None,229.16808930000025,None,229.16808930000025,None,,,,,,,,,,,203,24,Male,2022-04-27_11h20.10.307,Main,2022.1.1,60.06085365696551,
positive,negative,1,l,j,,,,,,,,,1,11,29,5,,,,,,,,,,,,,,,,,,,,,,,,main,2,2,1,negative,positive,j,j,1,1.054863999999725,230.18240080000032,231.20215830000006,231.16436220000014,None,230.18240080000032,None,230.18240080000032,None,230.18240080000032,None,232.21907377000008,None,232.21907377000008,None,232.21907377000008,None,,,,,,,,,,,203,24,Male,2022-04-27_11h20.10.307,Main,2022.1.1,60.06085365696551,
positive,positive,2,l,j,,,,,,,,,1,12,30,11,,,,,,,,,,,,,,,,,,,,,,,,main,1,1,2,positive,positive,j,j,1,2.052420600000005,232.23954660000027,233.2488132000003,233.22934759999998,None,232.23954660000027,None,232.23954660000027,None,232.23954660000027,None,235.28163429999995,None,235.28163429999995,None,235.28163429999995,None,,,,,,,,,,,203,24,Male,2022-04-27_11h20.10.307,Main,2022.1.1,60.06085365696551,
negative,negative,2,j,l,,,,,,,,,1,13,31,9,,,,,,,,,,,,,,,,,,,,,,,,main,2,2,2,negative,negative,l,l,1,0.874722600000041,236.29782419999992,237.29934989999992,237.28099370000018,None,236.29782419999992,None,236.29782419999992,None,236.29782419999992,None,238.1551975700002,None,238.1551975700002,None,238.1551975700002,None,,,,,,,,,,,203,24,Male,2022-04-27_11h20.10.307,Main,2022.1.1,60.06085365696551,
positive,negative,2,l,j,,,,,,,,,1,14,32,14,,,,,,,,,,,,,,,,,,,,,,,,main,1,1,2,negative,positive,j,j,1,1.4146977000000334,238.17473169999994,239.18075410000029,239.16161640000018,None,238.17473169999994,None,238.17473169999994,None,238.17473169999994,None,240.5728465700002,None,240.5728465700002,None,240.5728465700002,None,,,,,,,,,,,203,24,Male,2022-04-27_11h20.10.307,Main,2022.1.1,60.06085365696551,
neutral,neutral,2,k,k,,,,,,,,,1,15,33,10,,,,,,,,,,,,,,,,,,,,,,,,main,1,1,2,neutral,neutral,k,k,1,0.7499471999999514,240.5936971000001,241.59657300000026,241.5780490000002,None,240.5936971000001,None,240.5936971000001,None,240.5936971000001,None,242.32490037000008,None,242.32490037000008,None,242.32490037000008,None,,,,,,,,,,,203,24,Male,2022-04-27_11h20.10.307,Main,2022.1.1,60.06085365696551,
neutral,positive,1,k,k,,,,,,,,,1,16,34,4,,,,,,,,,,,,,,,,,,,,,,,,main,2,2,1,positive,neutral,k,k,1,0.9145636000002924,242.34840669999994,243.35816990000012,243.33968589999995,None,242.34840669999994,None,242.34840669999994,None,242.34840669999994,None,244.24300687000033,None,244.24300687000033,None,244.24300687000033,None,,,,,,,,,,,203,24,Male,2022-04-27_11h20.10.307,Main,2022.1.1,60.06085365696551,
negative,neutral,1,j,l,,,,,,,,,1,17,35,3,,,,,,,,,,,,,,,,,,,,,,,,main,1,1,1,neutral,negative,l,l,1,0.9960318999997071,244.26453919999994,245.26658120000002,245.24824080000008,None,244.26453919999994,None,244.26453919999994,None,244.26453919999994,None,246.24153067000026,None,246.24153067000026,None,246.24153067000026,None,,,,,,,,,,,203,24,Male,2022-04-27_11h20.10.307,Main,2022.1.1,60.06085365696551,
neutral,negative,2,k,k,,,,,,,,,2,0,36,16,,,,,,,,,,,,,,,,,,,,,,,,main,2,2,2,negative,neutral,k,k,1,1.5133064999999988,246.2635524000002,247.26854230000026,247.25000630000022,None,246.2635524000002,None,246.2635524000002,None,246.2635524000002,None,248.76353270000027,None,248.76353270000027,None,248.76353270000027,None,,,,,,,,,,,203,24,Male,2022-04-27_11h20.10.307,Main,2022.1.1,60.06085365696551,
positive,negative,1,l,j,,,,,,,,,2,1,37,5,,,,,,,,,,,,,,,,,,,,,,,,main,1,1,1,negative,positive,j,j,1,0.8511923999999453,249.7793959999999,250.78537210000013,250.76624290000018,None,249.7793959999999,None,249.7793959999999,None,249.7793959999999,None,251.61080187,None,251.61080187,None,251.61080187,None,,,,,,,,,,,203,24,Male,2022-04-27_11h20.10.307,Main,2022.1.1,60.06085365696551,
negative,negative,2,j,l,,,,,,,,,2,2,38,9,,,,,,,,,,,,,,,,,,,,,,,,main,2,2,2,negative,negative,l,l,1,1.0858416000000943,251.63526140000022,252.65291400000024,252.61333620000005,None,251.63526140000022,None,251.63526140000022,None,251.63526140000022,None,253.70124567000022,None,253.70124567000022,None,253.70124567000022,None,,,,,,,,,,,203,24,Male,2022-04-27_11h20.10.307,Main,2022.1.1,60.06085365696551,
neutral,positive,1,k,k,,,,,,,,,2,3,39,4,,,,,,,,,,,,,,,,,,,,,,,,main,2,2,1,positive,neutral,k,k,1,1.1126435000001038,253.72152240000014,254.7251599000001,254.70678610000004,None,253.72152240000014,None,253.72152240000014,None,253.72152240000014,None,255.81659087000008,None,255.81659087000008,None,255.81659087000008,None,,,,,,,,,,,203,24,Male,2022-04-27_11h20.10.307,Main,2022.1.1,60.06085365696551,
neutral,negative,1,k,k,,,,,,,,,2,4,40,7,,,,,,,,,,,,,,,,,,,,,,,,main,2,2,1,negative,neutral,k,k,1,0.784739400000035,255.83685590000005,256.8504281999999,256.8120719000003,None,255.83685590000005,None,255.83685590000005,None,255.83685590000005,None,257.60394847000026,None,257.60394847000026,None,257.60394847000026,None,,,,,,,,,,,203,24,Male,2022-04-27_11h20.10.307,Main,2022.1.1,60.06085365696551,
positive,neutral,1,l,j,,,,,,,,,2,5,41,8,,,,,,,,,,,,,,,,,,,,,,,,main,2,2,1,neutral,positive,j,j,1,1.1989832999997816,257.6262483999999,258.6391324000001,258.6002813,None,257.6262483999999,None,257.6262483999999,None,257.6262483999999,None,259.8062400699999,None,259.8062400699999,None,259.8062400699999,None,,,,,,,,,,,203,24,Male,2022-04-27_11h20.10.307,Main,2022.1.1,60.06085365696551,
positive,negative,2,l,j,,,,,,,,,2,6,42,14,,,,,,,,,,,,,,,,,,,,,,,,main,1,1,2,negative,positive,j,j,1,1.1853959999998551,259.8262565,260.8422628000003,260.80334230000017,None,259.8262565,None,259.8262565,None,259.8262565,None,261.9938151700001,None,261.9938151700001,None,261.9938151700001,None,,,,,,,,,,,203,24,Male,2022-04-27_11h20.10.307,Main,2022.1.1,60.06085365696551,
neutral,positive,2,k,k,,,,,,,,,2,7,43,13,,,,,,,,,,,,,,,,,,,,,,,,main,2,2,2,positive,neutral,k,k,1,0.9382010999997874,262.01999430000023,263.03361700000005,262.9947301000002,None,262.01999430000023,None,262.01999430000023,None,262.01999430000023,None,263.93768457000016,None,263.93768457000016,None,263.93768457000016,None,,,,,,,,,,,203,24,Male,2022-04-27_11h20.10.307,Main,2022.1.1,60.06085365696551,
positive,positive,1,l,j,,,,,,,,,2,8,44,2,,,,,,,,,,,,,,,,,,,,,,,,main,1,1,1,positive,positive,j,j,1,1.0265660000000025,263.9601957,264.9715905000003,264.93270600000005,None,263.9601957,None,263.9601957,None,263.9601957,None,265.96860786999997,None,265.96860786999997,None,265.96860786999997,None,,,,,,,,,,,203,24,Male,2022-04-27_11h20.10.307,Main,2022.1.1,60.06085365696551,
negative,neutral,2,j,l,,,,,,,,,2,9,45,12,,,,,,,,,,,,,,,,,,,,,,,,main,1,1,2,neutral,negative,l,l,1,0.9031909000000269,265.9911205000003,266.9967977000001,266.9785031000001,None,265.9911205000003,None,265.9911205000003,None,265.9911205000003,None,267.8758162699999,None,267.8758162699999,None,267.8758162699999,None,,,,,,,,,,,203,24,Male,2022-04-27_11h20.10.307,Main,2022.1.1,60.06085365696551,
neutral,neutral,2,k,k,,,,,,,,,2,10,46,10,,,,,,,,,,,,,,,,,,,,,,,,main,1,1,2,neutral,neutral,k,k,1,0.9536576999998942,267.9004463000001,268.9211937,268.88267870000027,None,267.9004463000001,None,267.9004463000001,None,267.9004463000001,None,269.83394997000033,None,269.83394997000033,None,269.83394997000033,None,,,,,,,,,,,203,24,Male,2022-04-27_11h20.10.307,Main,2022.1.1,60.06085365696551,
negative,neutral,1,j,l,,,,,,,,,2,11,47,3,,,,,,,,,,,,,,,,,,,,,,,,main,2,2,1,neutral,negative,l,l,1,0.8087305000003653,269.8552923000002,270.8594094,270.84084110000003,None,269.8552923000002,None,269.8552923000002,None,269.8552923000002,None,271.6430303700002,None,271.6430303700002,None,271.6430303700002,None,,,,,,,,,,,203,24,Male,2022-04-27_11h20.10.307,Main,2022.1.1,60.06085365696551,
positive,neutral,2,l,j,,,,,,,,,2,12,48,17,,,,,,,,,,,,,,,,,,,,,,,,main,2,2,2,neutral,positive,j,j,1,0.912923000000319,271.66298340000003,272.67542760000015,272.6379291000003,None,271.66298340000003,None,271.66298340000003,None,271.66298340000003,None,273.55772177,None,273.55772177,None,273.55772177,None,,,,,,,,,,,203,24,Male,2022-04-27_11h20.10.307,Main,2022.1.1,60.06085365696551,
negative,positive,2,j,l,,,,,,,,,2,13,49,15,,,,,,,,,,,,,,,,,,,,,,,,main,1,1,2,positive,negative,l,l,1,0.8002802000000884,273.58327510000026,274.5959146,274.5580960000002,None,273.58327510000026,None,273.58327510000026,None,273.58327510000026,None,275.36307397,None,275.36307397,None,275.36307397,None,,,,,,,,,,,203,24,Male,2022-04-27_11h20.10.307,Main,2022.1.1,60.06085365696551,
neutral,neutral,1,k,k,,,,,,,,,2,14,50,1,,,,,,,,,,,,,,,,,,,,,,,,main,1,1,1,neutral,neutral,k,k,1,0.8703522000000703,275.3840508000003,276.3942723,276.37598879999996,None,275.3840508000003,None,275.3840508000003,None,275.3840508000003,None,277.23582727000013,None,277.23582727000013,None,277.23582727000013,None,,,,,,,,,,,203,24,Male,2022-04-27_11h20.10.307,Main,2022.1.1,60.06085365696551,
positive,positive,2,l,j,,,,,,,,,2,15,51,11,,,,,,,,,,,,,,,,,,,,,,,,main,1,1,2,positive,positive,j,j,1,0.9893455999999787,277.2575391999999,278.2692167,278.2484566000003,None,277.2575391999999,None,277.2575391999999,None,277.2575391999999,None,279.2300402700001,None,279.2300402700001,None,279.2300402700001,None,,,,,,,,,,,203,24,Male,2022-04-27_11h20.10.307,Main,2022.1.1,60.06085365696551,
negative,positive,1,j,l,,,,,,,,,2,16,52,6,,,,,,,,,,,,,,,,,,,,,,,,main,2,2,1,positive,negative,l,l,1,0.9533344000001307,279.24979870000016,280.26234909999994,280.2254662,None,279.24979870000016,None,279.24979870000016,None,279.24979870000016,None,281.18546467000016,None,281.18546467000016,None,281.18546467000016,None,,,,,,,,,,,203,24,Male,2022-04-27_11h20.10.307,Main,2022.1.1,60.06085365696551,
negative,negative,1,j,l,,,,,,,,,2,17,53,0,,,,,,,,,,,,,,,,,,,,,,,,main,1,1,1,negative,negative,l,l,1,1.173348100000112,281.20766219999996,282.2109891,282.19220029999997,None,281.20766219999996,None,281.20766219999996,None,281.20766219999996,None,283.36202807,None,283.36202807,None,283.36202807,None,,,,,,,,,,,203,24,Male,2022-04-27_11h20.10.307,Main,2022.1.1,60.06085365696551,
neutral,negative,2,k,k,,,,,,,,,3,0,54,16,,,,,,,,,,,,,,,,,,,,,,,,main,1,1,2,negative,neutral,k,k,1,0.8486806000000797,283.3836578999999,284.39365850000013,284.3745106000001,None,283.3836578999999,None,283.3836578999999,None,283.3836578999999,None,285.21468367000017,None,285.21468367000017,None,285.21468367000017,None,,,,,,,,,,,203,24,Male,2022-04-27_11h20.10.307,Main,2022.1.1,60.06085365696551,
negative,neutral,2,j,l,,,,,,,,,3,1,55,12,,,,,,,,,,,,,,,,,,,,,,,,main,2,2,2,neutral,negative,l,l,1,0.9064643000001524,285.2365995,286.2434082,286.2247215000002,None,285.2365995,None,285.2365995,None,285.2365995,None,287.1209984700002,None,287.1209984700002,None,287.1209984700002,None,,,,,,,,,,,203,24,Male,2022-04-27_11h20.10.307,Main,2022.1.1,60.06085365696551,
negative,negative,2,j,l,,,,,,,,,3,2,56,9,,,,,,,,,,,,,,,,,,,,,,,,main,1,1,2,negative,negative,l,l,1,0.7515854999996918,287.1434333000002,288.1484852000003,288.129269,None,287.1434333000002,None,287.1434333000002,None,287.1434333000002,None,288.8766407699998,None,288.8766407699998,None,288.8766407699998,None,,,,,,,,,,,203,24,Male,2022-04-27_11h20.10.307,Main,2022.1.1,60.06085365696551,
negative,neutral,1,j,l,,,,,,,,,3,3,57,3,,,,,,,,,,,,,,,,,,,,,,,,main,2,2,1,neutral,negative,l,l,1,0.757971400000315,288.9003951999998,289.90597240000034,289.8871802999997,None,288.9003951999998,None,288.9003951999998,None,288.9003951999998,None,290.63521247,None,290.63521247,None,290.63521247,None,,,,,,,,,,,203,24,Male,2022-04-27_11h20.10.307,Main,2022.1.1,60.06085365696551,
negative,positive,1,j,l,,,,,,,,,3,4,58,6,,,,,,,,,,,,,,,,,,,,,,,,main,1,1,1,positive,negative,l,l,1,0.8158944999995583,290.65795600000047,291.6626607000003,291.64308050000045,None,290.65795600000047,None,290.65795600000047,None,290.65795600000047,None,292.45398957000026,None,292.45398957000026,None,292.45398957000026,None,,,,,,,,,,,203,24,Male,2022-04-27_11h20.10.307,Main,2022.1.1,60.06085365696551,
neutral,positive,1,k,k,,,,,,,,,3,5,59,4,,,,,,,,,,,,,,,,,,,,,,,,main,1,1,1,positive,neutral,k,k,1,0.7554534000000785,292.4760957000003,293.48761520000016,293.44998239999995,None,292.4760957000003,None,292.4760957000003,None,292.4760957000003,None,294.2141942700003,None,294.2141942700003,None,294.2141942700003,None,,,,,,,,,,,203,24,Male,2022-04-27_11h20.10.307,Main,2022.1.1,60.06085365696551,
negative,negative,1,j,l,,,,,,,,,3,6,60,0,,,,,,,,,,,,,,,,,,,,,,,,main,1,1,1,negative,negative,l,l,1,0.7457711000006384,294.2362436999997,295.24111440000024,295.2219445000005,None,294.2362436999997,None,294.2362436999997,None,294.2362436999997,None,295.96276797,None,295.96276797,None,295.96276797,None,,,,,,,,,,,203,24,Male,2022-04-27_11h20.10.307,Main,2022.1.1,60.06085365696551,
positive,negative,1,l,j,,,,,,,,,3,7,61,5,,,,,,,,,,,,,,,,,,,,,,,,main,1,1,1,negative,positive,j,j,1,0.8299613999997746,295.9852394000004,296.9933501999999,296.9559830000003,None,295.9852394000004,None,295.9852394000004,None,295.9852394000004,None,297.7952592699997,None,297.7952592699997,None,297.7952592699997,None,,,,,,,,,,,203,24,Male,2022-04-27_11h20.10.307,Main,2022.1.1,60.06085365696551,
positive,neutral,1,l,j,,,,,,,,,3,8,62,8,,,,,,,,,,,,,,,,,,,,,,,,main,1,1,1,neutral,positive,j,j,1,0.6886125000000902,297.8184689000004,298.83231529999966,298.79366830000026,None,297.8184689000004,None,297.8184689000004,None,297.8184689000004,None,299.4846785700004,None,299.4846785700004,None,299.4846785700004,None,,,,,,,,,,,203,24,Male,2022-04-27_11h20.10.307,Main,2022.1.1,60.06085365696551,
positive,positive,2,l,j,,,,,,,,,3,9,63,11,,,,,,,,,,,,,,,,,,,,,,,,main,2,2,2,positive,positive,j,j,1,0.9005794000004244,299.5052523999998,300.5235477000001,300.4856974999998,None,299.5052523999998,None,299.5052523999998,None,299.5052523999998,None,301.38741607000003,None,301.38741607000003,None,301.38741607000003,None,,,,,,,,,,,203,24,Male,2022-04-27_11h20.10.307,Main,2022.1.1,60.06085365696551,
neutral,negative,1,k,k,,,,,,,,,3,10,64,7,,,,,,,,,,,,,,,,,,,,,,,,main,2,2,1,negative,neutral,k,k,1,1.0524080000004687,301.4083463000002,302.41146290000006,302.3919952000001,None,301.4083463000002,None,301.4083463000002,None,301.4083463000002,None,303.4440081699998,None,303.4440081699998,None,303.4440081699998,None,,,,,,,,,,,203,24,Male,2022-04-27_11h20.10.307,Main,2022.1.1,60.06085365696551,
neutral,neutral,1,k,k,,,,,,,,,3,11,65,1,,,,,,,,,,,,,,,,,,,,,,,,main,1,1,1,neutral,neutral,k,k,1,0.6783691999999064,303.4641475000003,304.4784153000005,304.4408606000002,None,303.4641475000003,None,303.4641475000003,None,303.4641475000003,None,305.1237392699998,None,305.1237392699998,None,305.1237392699998,None,,,,,,,,,,,203,24,Male,2022-04-27_11h20.10.307,Main,2022.1.1,60.06085365696551,
positive,neutral,2,l,j,,,,,,,,,3,12,66,17,,,,,,,,,,,,,,,,,,,,,,,,main,1,1,2,neutral,positive,j,j,1,0.9180896999996548,305.14296779999995,306.1503297000004,306.13071230000014,None,305.14296779999995,None,305.14296779999995,None,305.14296779999995,None,307.04602627000014,None,307.04602627000014,None,307.04602627000014,None,,,,,,,,,,,203,24,Male,2022-04-27_11h20.10.307,Main,2022.1.1,60.06085365696551,
neutral,neutral,2,k,k,,,,,,,,,3,13,67,10,,,,,,,,,,,,,,,,,,,,,,,,main,2,2,2,neutral,neutral,k,k,1,0.8420143999992433,307.0662685000002,308.0848338999999,308.04688380000016,None,307.0662685000002,None,307.0662685000002,None,307.0662685000002,None,308.8879686700005,None,308.8879686700005,None,308.8879686700005,None,,,,,,,,,,,203,24,Male,2022-04-27_11h20.10.307,Main,2022.1.1,60.06085365696551,
positive,positive,1,l,j,,,,,,,,,3,14,68,2,,,,,,,,,,,,,,,,,,,,,,,,main,2,2,1,positive,positive,j,j,1,0.7457995999993727,308.9091215000003,309.9243429000003,309.88854029999993,None,308.9091215000003,None,308.9091215000003,None,308.9091215000003,None,310.63708287000037,None,310.63708287000037,None,310.63708287000037,None,,,,,,,,,,,203,24,Male,2022-04-27_11h20.10.307,Main,2022.1.1,60.06085365696551,
negative,positive,2,j,l,,,,,,,,,3,15,69,15,,,,,,,,,,,,,,,,,,,,,,,,main,2,2,2,positive,negative,l,l,1,0.7870806999999331,310.6606777000002,311.6747811,311.636403,None,310.6606777000002,None,310.6606777000002,None,310.6606777000002,None,312.42832407,None,312.42832407,None,312.42832407,None,,,,,,,,,,,203,24,Male,2022-04-27_11h20.10.307,Main,2022.1.1,60.06085365696551,
positive,negative,2,l,j,,,,,,,,,3,16,70,14,,,,,,,,,,,,,,,,,,,,,,,,main,2,2,2,negative,positive,j,j,1,1.482981699999982,312.4502706999997,313.4707886000001,313.4320935999999,None,312.4502706999997,None,312.4502706999997,None,312.4502706999997,None,314.9139323700004,None,314.9139323700004,None,314.9139323700004,None,,,,,,,,,,,203,24,Male,2022-04-27_11h20.10.307,Main,2022.1.1,60.06085365696551,
neutral,positive,2,k,k,,,,,,,,,3,17,71,13,,,,,,,,,,,,,,,,,,,,,,,,main,2,2,2,positive,neutral,k,k,1,0.7968447000002925,314.9349398999998,315.9362845999999,315.91754439999977,None,314.9349398999998,None,314.9349398999998,None,314.9349398999998,None,316.7147095700005,None,316.7147095700005,None,316.7147095700005,None,,,,,,,,,,,203,24,Male,2022-04-27_11h20.10.307,Main,2022.1.1,60.06085365696551,
neutral,positive,1,k,k,,,,,,,,,4,0,72,4,,,,,,,,,,,,,,,,,,,,,,,,main,2,2,1,positive,neutral,k,k,1,0.6334839000001011,316.7361237,317.75410969999984,317.7141214999997,None,316.7361237,None,316.7361237,None,316.7361237,None,318.35041697000025,None,318.35041697000025,None,318.35041697000025,None,,,,,,,,,,,203,24,Male,2022-04-27_11h20.10.307,Main,2022.1.1,60.06085365696551,
positive,negative,2,l,j,,,,,,,,,4,1,73,14,,,,,,,,,,,,,,,,,,,,,,,,main,1,1,2,negative,positive,j,j,1,0.9514138000004095,318.37085890000026,319.3734393999998,319.35406639999974,None,318.37085890000026,None,318.37085890000026,None,318.37085890000026,None,320.3066319700004,None,320.3066319700004,None,320.3066319700004,None,,,,,,,,,,,203,24,Male,2022-04-27_11h20.10.307,Main,2022.1.1,60.06085365696551,
negative,negative,2,j,l,,,,,,,,,4,2,74,9,,,,,,,,,,,,,,,,,,,,,,,,main,2,2,2,negative,negative,l,l,1,1.043091299999105,320.3259770999998,321.33882570000014,321.3007167999999,None,320.3259770999998,None,320.3259770999998,None,320.3259770999998,None,322.35013917000043,None,322.35013917000043,None,322.35013917000043,None,,,,,,,,,,,203,24,Male,2022-04-27_11h20.10.307,Main,2022.1.1,60.06085365696551,
neutral,neutral,1,k,k,,,,,,,,,4,3,75,1,,,,,,,,,,,,,,,,,,,,,,,,main,1,1,1,neutral,neutral,k,k,1,0.7566415999999663,322.37212539999973,323.38849619999974,323.35100420000026,None,322.37212539999973,None,322.37212539999973,None,322.37212539999973,None,324.11156777000025,None,324.11156777000025,None,324.11156777000025,None,,,,,,,,,,,203,24,Male,2022-04-27_11h20.10.307,Main,2022.1.1,60.06085365696551,
negative,neutral,1,j,l,,,,,,,,,4,4,76,3,,,,,,,,,,,,,,,,,,,,,,,,main,2,2,1,neutral,negative,l,l,1,0.9945496000000276,324.13150410000026,325.1351024999999,325.1164936,None,324.13150410000026,None,324.13150410000026,None,324.13150410000026,None,326.1096381700002,None,326.1096381700002,None,326.1096381700002,None,,,,,,,,,,,203,24,Male,2022-04-27_11h20.10.307,Main,2022.1.1,60.06085365696551,
positive,positive,2,l,j,,,,,,,,,4,5,77,11,,,,,,,,,,,,,,,,,,,,,,,,main,2,2,2,positive,positive,j,j,1,0.788903599999685,326.1299203000003,327.14498539999977,327.1058786999997,None,326.1299203000003,None,326.1299203000003,None,326.1299203000003,None,327.89889436999994,None,327.89889436999994,None,327.89889436999994,None,,,,,,,,,,,203,24,Male,2022-04-27_11h20.10.307,Main,2022.1.1,60.06085365696551,
positive,negative,1,l,j,,,,,,,,,4,6,78,5,,,,,,,,,,,,,,,,,,,,,,,,main,2,2,1,negative,positive,j,j,1,0.7469154000000344,327.9194300000004,328.9350019999997,328.8973314,None,327.9194300000004,None,327.9194300000004,None,327.9194300000004,None,329.64871866999994,None,329.64871866999994,None,329.64871866999994,None,,,,,,,,,,,203,24,Male,2022-04-27_11h20.10.307,Main,2022.1.1,60.06085365696551,
negative,positive,2,j,l,,,,,,,,,4,7,79,15,,,,,,,,,,,,,,,,,,,,,,,,main,1,1,2,positive,negative,l,l,1,1.0905972999998994,329.67180979999966,330.6885511000005,330.6503201999999,None,329.67180979999966,None,329.67180979999966,None,329.67180979999966,None,331.74422547000023,None,331.74422547000023,None,331.74422547000023,None,,,,,,,,,,,203,24,Male,2022-04-27_11h20.10.307,Main,2022.1.1,60.06085365696551,
neutral,neutral,2,k,k,,,,,,,,,4,8,80,10,,,,,,,,,,,,,,,,,,,,,,,,main,2,2,2,neutral,neutral,k,k,1,0.6558508999996775,331.76456629999984,332.7856050000005,332.74533780000047,None,331.76456629999984,None,331.76456629999984,None,331.76456629999984,None,333.4027451699997,None,333.4027451699997,None,333.4027451699997,None,,,,,,,,,,,203,24,Male,2022-04-27_11h20.10.307,Main,2022.1.1,60.06085365696551,
positive,neutral,1,l,j,,,,,,,,,4,9,81,8,,,,,,,,,,,,,,,,,,,,,,,,main,1,1,1,neutral,positive,j,j,1,0.7291301999994175,333.42675850000023,334.42997460000015,334.4114921000005,None,333.42675850000023,None,333.42675850000023,None,333.42675850000023,None,335.13484026999987,None,335.13484026999987,None,335.13484026999987,None,,,,,,,,,,,203,24,Male,2022-04-27_11h20.10.307,Main,2022.1.1,60.06085365696551,
neutral,negative,2,k,k,,,,,,,,,4,10,82,16,,,,,,,,,,,,,,,,,,,,,,,,main,2,2,2,negative,neutral,k,k,1,0.8294383000002199,335.1550110000003,336.1608471000004,336.1405706999999,None,335.1550110000003,None,335.1550110000003,None,335.1550110000003,None,336.96477417000034,None,336.96477417000034,None,336.96477417000034,None,,,,,,,,,,,203,24,Male,2022-04-27_11h20.10.307,Main,2022.1.1,60.06085365696551,
positive,positive,1,l,j,,,,,,,,,4,11,83,2,,,,,,,,,,,,,,,,,,,,,,,,main,2,2,1,positive,positive,j,j,1,0.8208665000001929,336.9925736,338.0022303999999,337.98344210000005,None,336.9925736,None,336.9925736,None,336.9925736,None,338.7913929700001,None,338.7913929700001,None,338.7913929700001,None,,,,,,,,,,,203,24,Male,2022-04-27_11h20.10.307,Main,2022.1.1,60.06085365696551,
neutral,positive,2,k,k,,,,,,,,,4,12,84,13,,,,,,,,,,,,,,,,,,,,,,,,main,1,1,2,positive,neutral,k,k,1,0.8759933999999703,338.8117683000005,339.8158782000005,339.79695519999996,None,338.8117683000005,None,338.8117683000005,None,338.8117683000005,None,340.66933526999975,None,340.66933526999975,None,340.66933526999975,None,,,,,,,,,,,203,24,Male,2022-04-27_11h20.10.307,Main,2022.1.1,60.06085365696551,
negative,neutral,2,j,l,,,,,,,,,4,13,85,12,,,,,,,,,,,,,,,,,,,,,,,,main,2,2,2,neutral,negative,l,k,0,-0.6496096999999281,340.68938500000013,None,None,None,340.68938500000013,None,340.68938500000013,None,340.68938500000013,None,341.03655930000014,None,341.03655930000014,None,341.03655930000014,None,,,,,,,,,,,203,24,Male,2022-04-27_11h20.10.307,Main,2022.1.1,60.06085365696551,
positive,neutral,2,l,j,,,,,,,,,4,14,86,17,,,,,,,,,,,,,,,,,,,,,,,,main,2,2,2,neutral,positive,j,j,1,1.0361904000001232,344.05168280000044,345.0704477000004,345.0326369999998,None,344.05168280000044,None,344.05168280000044,None,344.05168280000044,None,346.0674077699999,None,346.0674077699999,None,346.0674077699999,None,,,,,,,,,,,203,24,Male,2022-04-27_11h20.10.307,Main,2022.1.1,60.06085365696551,
neutral,negative,1,k,k,,,,,,,,,4,15,87,7,,,,,,,,,,,,,,,,,,,,,,,,main,1,1,1,negative,neutral,k,k,1,0.8729222000001755,346.0896147999997,347.09800099999984,347.07948390000047,None,346.0896147999997,None,346.0896147999997,None,346.0896147999997,None,347.9442855700002,None,347.9442855700002,None,347.9442855700002,None,,,,,,,,,,,203,24,Male,2022-04-27_11h20.10.307,Main,2022.1.1,60.06085365696551,
negative,negative,1,j,l,,,,,,,,,4,16,88,0,,,,,,,,,,,,,,,,,,,,,,,,main,2,2,1,negative,negative,l,l,1,0.8679438999997728,347.9662392000005,348.9827344,348.94519249999985,None,347.9662392000005,None,347.9662392000005,None,347.9662392000005,None,349.8149818699997,None,349.8149818699997,None,349.8149818699997,None,,,,,,,,,,,203,24,Male,2022-04-27_11h20.10.307,Main,2022.1.1,60.06085365696551,
negative,positive,1,j,l,,,,,,,,,4,17,89,6,,,,,,,,,,,,,,,,,,,,,,,,main,2,2,1,positive,negative,l,l,1,0.7812402999998085,349.8353253999999,350.84802790000003,350.8090784000001,None,349.8353253999999,None,349.8353253999999,None,349.8353253999999,None,351.5982508700002,None,351.5982508700002,None,351.5982508700002,None,,,,,,,,,,,203,24,Male,2022-04-27_11h20.10.307,Main,2022.1.1,60.06085365696551,
neutral,negative,2,k,k,,,,,,,,,5,0,90,16,,,,,,,,,,,,,,,,,,,,,,,,main,2,2,2,negative,neutral,k,k,1,0.7933830000001763,351.6230846000003,352.6313766999997,352.61242730000004,None,351.6230846000003,None,351.6230846000003,None,351.6230846000003,None,353.39423887000004,None,353.39423887000004,None,353.39423887000004,None,,,,,,,,,,,203,24,Male,2022-04-27_11h20.10.307,Main,2022.1.1,60.06085365696551,
positive,negative,1,l,j,,,,,,,,,5,1,91,5,,,,,,,,,,,,,,,,,,,,,,,,main,2,2,1,negative,positive,j,j,1,0.8358150000003661,353.41589909999993,354.4223267000002,354.40299860000005,None,353.41589909999993,None,353.41589909999993,None,353.41589909999993,None,355.23270437,None,355.23270437,None,355.23270437,None,,,,,,,,,,,203,24,Male,2022-04-27_11h20.10.307,Main,2022.1.1,60.06085365696551,
positive,neutral,2,l,j,,,,,,,,,5,2,92,17,,,,,,,,,,,,,,,,,,,,,,,,main,2,2,2,neutral,positive,j,j,1,1.6622135000006892,355.25315830000045,356.26493419999997,356.2272528999997,None,355.25315830000045,None,355.25315830000045,None,355.25315830000045,None,357.9032282000003,None,357.9032282000003,None,357.9032282000003,None,,,,,,,,,,,203,24,Male,2022-04-27_11h20.10.307,Main,2022.1.1,60.06085365696551,
positive,positive,1,l,j,,,,,,,,,5,3,93,2,,,,,,,,,,,,,,,,,,,,,,,,main,1,1,1,positive,positive,j,j,1,0.7010509000001548,358.91550659999984,359.92461890000004,359.90406269999994,None,358.91550659999984,None,358.91550659999984,None,358.91550659999984,None,360.5966931699998,None,360.5966931699998,None,360.5966931699998,None,,,,,,,,,,,203,24,Male,2022-04-27_11h20.10.307,Main,2022.1.1,60.06085365696551,
positive,neutral,1,l,j,,,,,,,,,5,4,94,8,,,,,,,,,,,,,,,,,,,,,,,,main,2,2,1,neutral,positive,j,j,1,0.770226300000104,360.62190919999966,361.62760320000007,361.6083942,None,360.62190919999966,None,360.62190919999966,None,360.62190919999966,None,362.3722175699998,None,362.3722175699998,None,362.3722175699998,None,,,,,,,,,,,203,24,Male,2022-04-27_11h20.10.307,Main,2022.1.1,60.06085365696551,
negative,neutral,1,j,l,,,,,,,,,5,5,95,3,,,,,,,,,,,,,,,,,,,,,,,,main,2,2,1,neutral,negative,l,l,1,1.4528669000001173,362.39162480000005,363.3985396000003,363.3793584,None,362.39162480000005,None,362.39162480000005,None,362.39162480000005,None,364.82600097000005,None,364.82600097000005,None,364.82600097000005,None,,,,,,,,,,,203,24,Male,2022-04-27_11h20.10.307,Main,2022.1.1,60.06085365696551,
negative,negative,2,j,l,,,,,,,,,5,6,96,9,,,,,,,,,,,,,,,,,,,,,,,,main,1,1,2,negative,negative,l,l,1,1.008102599999802,364.8473423999999,365.85003410000036,365.83151730000054,None,364.8473423999999,None,364.8473423999999,None,364.8473423999999,None,366.83794316999985,None,366.83794316999985,None,366.83794316999985,None,,,,,,,,,,,203,24,Male,2022-04-27_11h20.10.307,Main,2022.1.1,60.06085365696551,
neutral,neutral,2,k,k,,,,,,,,,5,7,97,10,,,,,,,,,,,,,,,,,,,,,,,,main,1,1,2,neutral,neutral,k,k,1,0.7998858999999356,366.8582575000005,367.86167650000016,367.8426187,None,366.8582575000005,None,366.8582575000005,None,366.8582575000005,None,368.6388498700001,None,368.6388498700001,None,368.6388498700001,None,,,,,,,,,,,203,24,Male,2022-04-27_11h20.10.307,Main,2022.1.1,60.06085365696551,
negative,negative,1,j,l,,,,,,,,,5,8,98,0,,,,,,,,,,,,,,,,,,,,,,,,main,2,2,1,negative,negative,l,l,1,0.993777499999851,368.66129469999987,369.67989290000014,369.64217620000045,None,368.66129469999987,None,368.66129469999987,None,368.66129469999987,None,370.63892307,None,370.63892307,None,370.63892307,None,,,,,,,,,,,203,24,Male,2022-04-27_11h20.10.307,Main,2022.1.1,60.06085365696551,
positive,negative,2,l,j,,,,,,,,,5,9,99,14,,,,,,,,,,,,,,,,,,,,,,,,main,1,1,2,negative,positive,j,j,1,0.9727764999997817,370.65939780000053,371.66133240000045,371.6423729000003,None,370.65939780000053,None,370.65939780000053,None,370.65939780000053,None,372.6144467699999,None,372.6144467699999,None,372.6144467699999,None,,,,,,,,,,,203,24,Male,2022-04-27_11h20.10.307,Main,2022.1.1,60.06085365696551,
neutral,neutral,1,k,k,,,,,,,,,5,10,100,1,,,,,,,,,,,,,,,,,,,,,,,,main,2,2,1,neutral,neutral,k,k,1,0.9001537000003736,372.6347619000003,373.6436765000003,373.6247381999997,None,372.6347619000003,None,372.6347619000003,None,372.6347619000003,None,374.51919476999984,None,374.51919476999984,None,374.51919476999984,None,,,,,,,,,,,203,24,Male,2022-04-27_11h20.10.307,Main,2022.1.1,60.06085365696551,
negative,neutral,2,j,l,,,,,,,,,5,11,101,12,,,,,,,,,,,,,,,,,,,,,,,,main,1,1,2,neutral,negative,l,l,1,1.0741901000001235,374.5403859000003,375.5440463,375.5247513999998,None,374.5403859000003,None,374.5403859000003,None,374.5403859000003,None,376.59474617000006,None,376.59474617000006,None,376.59474617000006,None,,,,,,,,,,,203,24,Male,2022-04-27_11h20.10.307,Main,2022.1.1,60.06085365696551,
neutral,positive,2,k,k,,,,,,,,,5,12,102,13,,,,,,,,,,,,,,,,,,,,,,,,main,2,2,2,positive,neutral,k,k,1,1.662265899999511,376.61572620000015,377.63161739999987,377.5929927000002,None,376.61572620000015,None,376.61572620000015,None,376.61572620000015,None,379.26546329999974,None,379.26546329999974,None,379.26546329999974,None,,,,,,,,,,,203,24,Male,2022-04-27_11h20.10.307,Main,2022.1.1,60.06085365696551,
negative,positive,1,j,l,,,,,,,,,5,13,103,6,,,,,,,,,,,,,,,,,,,,,,,,main,1,1,1,positive,negative,l,l,1,0.8418695000000298,380.2812590999997,381.2997621999998,381.27139490000036,None,380.2812590999997,None,380.2812590999997,None,380.2812590999997,None,382.1035405699998,None,382.1035405699998,None,382.1035405699998,None,,,,,,,,,,,203,24,Male,2022-04-27_11h20.10.307,Main,2022.1.1,60.06085365696551,
negative,positive,2,j,l,,,,,,,,,5,14,104,15,,,,,,,,,,,,,,,,,,,,,,,,main,1,1,2,positive,negative,l,l,1,0.9106228000000556,382.12483440000005,383.13647660000015,383.11727290000044,None,382.12483440000005,None,382.12483440000005,None,382.12483440000005,None,384.0194109699999,None,384.0194109699999,None,384.0194109699999,None,,,,,,,,,,,203,24,Male,2022-04-27_11h20.10.307,Main,2022.1.1,60.06085365696551,
positive,positive,2,l,j,,,,,,,,,5,15,105,11,,,,,,,,,,,,,,,,,,,,,,,,main,2,2,2,positive,positive,j,j,1,0.9136315999994622,384.04069610000033,385.04798170000004,385.01241679999976,None,384.04069610000033,None,384.04069610000033,None,384.04069610000033,None,385.93564717000055,None,385.93564717000055,None,385.93564717000055,None,,,,,,,,,,,203,24,Male,2022-04-27_11h20.10.307,Main,2022.1.1,60.06085365696551,
neutral,negative,1,k,k,,,,,,,,,5,16,106,7,,,,,,,,,,,,,,,,,,,,,,,,main,1,1,1,negative,neutral,k,k,1,0.8629977000000508,385.9576801999997,386.96163300000035,386.94286239999974,None,385.9576801999997,None,385.9576801999997,None,385.9576801999997,None,387.80369597000055,None,387.80369597000055,None,387.80369597000055,None,,,,,,,,,,,203,24,Male,2022-04-27_11h20.10.307,Main,2022.1.1,60.06085365696551,
neutral,positive,1,k,k,,,,,,,,,5,17,107,4,,,,,,,,,,,,,,,,,,,,,,,,main,2,2,1,positive,neutral,k,k,1,0.7024632000002384,387.82396840000047,388.8379279000005,388.7974982999999,None,387.82396840000047,None,387.82396840000047,None,387.82396840000047,None,389.5083017700002,None,389.5083017700002,None,389.5083017700002,None,,,,,,,,,,,203,24,Male,2022-04-27_11h20.10.307,Main,2022.1.1,60.06085365696551,
neutral,neutral,1,k,k,,,,,,,,,6,0,108,1,,,,,,,,,,,,,,,,,,,,,,,,main,2,2,1,neutral,neutral,k,j,0,1.0782014999995226,389.52974529999983,390.5306230000001,390.51366370000005,None,389.52974529999983,None,389.52974529999983,None,389.52974529999983,None,391.5949602000005,None,391.5949602000005,None,391.5949602000005,None,,,,,,,,,,,203,24,Male,2022-04-27_11h20.10.307,Main,2022.1.1,60.06085365696551,
neutral,positive,1,k,k,,,,,,,,,6,1,109,4,,,,,,,,,,,,,,,,,,,,,,,,main,1,1,1,positive,neutral,k,k,1,0.8275401000000784,392.61152189999984,393.61665479999965,393.5981919000001,None,392.61152189999984,None,392.61152189999984,None,392.61152189999984,None,394.41976497000024,None,394.41976497000024,None,394.41976497000024,None,,,,,,,,,,,203,24,Male,2022-04-27_11h20.10.307,Main,2022.1.1,60.06085365696551,
positive,neutral,1,l,j,,,,,,,,,6,2,110,8,,,,,,,,,,,,,,,,,,,,,,,,main,2,2,1,neutral,positive,j,j,1,0.8197461999998268,394.4416003000001,395.44265120000045,395.4243981000004,None,394.4416003000001,None,394.4416003000001,None,394.4416003000001,None,396.24359726999984,None,396.24359726999984,None,396.24359726999984,None,,,,,,,,,,,203,24,Male,2022-04-27_11h20.10.307,Main,2022.1.1,60.06085365696551,
negative,neutral,1,j,l,,,,,,,,,6,3,111,3,,,,,,,,,,,,,,,,,,,,,,,,main,2,2,1,neutral,negative,l,l,1,1.0271536999998716,396.2639374000005,397.2809382999999,397.2531088999999,None,396.2639374000005,None,396.2639374000005,None,396.2639374000005,None,398.2728406700001,None,398.2728406700001,None,398.2728406700001,None,,,,,,,,,,,203,24,Male,2022-04-27_11h20.10.307,Main,2022.1.1,60.06085365696551,
neutral,negative,2,k,k,,,,,,,,,6,4,112,16,,,,,,,,,,,,,,,,,,,,,,,,main,2,2,2,negative,neutral,k,k,1,0.9661372999999003,398.2948444999997,399.31015290000005,399.2718838000005,None,398.2948444999997,None,398.2948444999997,None,398.2948444999997,None,400.2420682699997,None,400.2420682699997,None,400.2420682699997,None,,,,,,,,,,,203,24,Male,2022-04-27_11h20.10.307,Main,2022.1.1,60.06085365696551,
negative,neutral,2,j,l,,,,,,,,,6,5,113,12,,,,,,,,,,,,,,,,,,,,,,,,main,2,2,2,neutral,negative,l,l,1,0.9336898000001383,400.2628577999999,401.2766066999998,401.2390462999997,None,400.2628577999999,None,400.2628577999999,None,400.2628577999999,None,402.17796627000035,None,402.17796627000035,None,402.17796627000035,None,,,,,,,,,,,203,24,Male,2022-04-27_11h20.10.307,Main,2022.1.1,60.06085365696551,
negative,negative,1,j,l,,,,,,,,,6,6,114,0,,,,,,,,,,,,,,,,,,,,,,,,main,1,1,1,negative,negative,l,l,1,0.9638569000007919,402.19839699999966,403.20632539999997,403.18789909999987,None,402.19839699999966,None,402.19839699999966,None,402.19839699999966,None,404.1443742699997,None,404.1443742699997,None,404.1443742699997,None,,,,,,,,,,,203,24,Male,2022-04-27_11h20.10.307,Main,2022.1.1,60.06085365696551,
neutral,neutral,2,k,k,,,,,,,,,6,7,115,10,,,,,,,,,,,,,,,,,,,,,,,,main,1,1,2,neutral,neutral,k,k,1,1.2754866000004768,404.1663752999998,405.1748639000002,405.15641840000035,None,404.1663752999998,None,404.1663752999998,None,404.1663752999998,None,406.4241960700004,None,406.4241960700004,None,406.4241960700004,None,,,,,,,,,,,203,24,Male,2022-04-27_11h20.10.307,Main,2022.1.1,60.06085365696551,
positive,neutral,2,l,j,,,,,,,,,6,8,116,17,,,,,,,,,,,,,,,,,,,,,,,,main,2,2,2,neutral,positive,j,j,1,1.0290640000002895,406.44562910000013,407.4562754000003,407.43605810000054,None,406.44562910000013,None,406.44562910000013,None,406.44562910000013,None,408.4551771700001,None,408.4551771700001,None,408.4551771700001,None,,,,,,,,,,,203,24,Male,2022-04-27_11h20.10.307,Main,2022.1.1,60.06085365696551,
positive,negative,2,l,j,,,,,,,,,6,9,117,14,,,,,,,,,,,,,,,,,,,,,,,,main,2,2,2,negative,positive,j,j,1,0.9784178999998403,408.4764978999997,409.48361669999986,409.4649774000004,None,408.4764978999997,None,408.4764978999997,None,408.4764978999997,None,410.4365990700001,None,410.4365990700001,None,410.4365990700001,None,,,,,,,,,,,203,24,Male,2022-04-27_11h20.10.307,Main,2022.1.1,60.06085365696551,
negative,positive,1,j,l,,,,,,,,,6,10,118,6,,,,,,,,,,,,,,,,,,,,,,,,main,2,2,1,positive,negative,l,l,1,1.021819599999617,410.4584195000002,411.47565090000035,411.43797099999983,None,410.4584195000002,None,410.4584195000002,None,410.4584195000002,None,412.4627275699998,None,412.4627275699998,None,412.4627275699998,None,,,,,,,,,,,203,24,Male,2022-04-27_11h20.10.307,Main,2022.1.1,60.06085365696551,
negative,positive,2,j,l,,,,,,,,,6,11,119,15,,,,,,,,,,,,,,,,,,,,,,,,main,2,2,2,positive,negative,l,l,1,0.9234797999997681,412.48269409999966,413.4888768000005,413.4706299000004,None,412.48269409999966,None,412.48269409999966,None,412.48269409999966,None,414.3863270699997,None,414.3863270699997,None,414.3863270699997,None,,,,,,,,,,,203,24,Male,2022-04-27_11h20.10.307,Main,2022.1.1,60.06085365696551,
neutral,negative,1,k,k,,,,,,,,,6,12,120,7,,,,,,,,,,,,,,,,,,,,,,,,main,1,1,1,negative,neutral,k,k,1,1.6431316999996852,414.40824589999966,415.4194551000005,415.38210970000046,None,414.40824589999966,None,414.40824589999966,None,414.40824589999966,None,417.04050080000025,None,417.04050080000025,None,417.04050080000025,None,,,,,,,,,,,203,24,Male,2022-04-27_11h20.10.307,Main,2022.1.1,60.06085365696551,
positive,positive,1,l,j,,,,,,,,,6,13,121,2,,,,,,,,,,,,,,,,,,,,,,,,main,1,1,1,positive,positive,j,j,1,1.0619385999998485,418.05972130000055,419.0636411999999,419.04407889999993,None,418.05972130000055,None,418.05972130000055,None,418.05972130000055,None,420.10198167000027,None,420.10198167000027,None,420.10198167000027,None,,,,,,,,,,,203,24,Male,2022-04-27_11h20.10.307,Main,2022.1.1,60.06085365696551,
positive,negative,1,l,j,,,,,,,,,6,14,122,5,,,,,,,,,,,,,,,,,,,,,,,,main,1,1,1,negative,positive,j,j,1,0.7868570999999065,420.12331980000044,421.12568320000037,421.10662379999985,None,420.12331980000044,None,420.12331980000044,None,420.12331980000044,None,421.8912662699998,None,421.8912662699998,None,421.8912662699998,None,,,,,,,,,,,203,24,Male,2022-04-27_11h20.10.307,Main,2022.1.1,60.06085365696551,
negative,negative,2,j,l,,,,,,,,,6,15,123,9,,,,,,,,,,,,,,,,,,,,,,,,main,2,2,2,negative,negative,l,l,1,0.8645956999998816,421.9120594000001,422.9188411,422.89934850000054,None,421.9120594000001,None,421.9120594000001,None,421.9120594000001,None,423.76018306999987,None,423.76018306999987,None,423.76018306999987,None,,,,,,,,,,,203,24,Male,2022-04-27_11h20.10.307,Main,2022.1.1,60.06085365696551,
positive,positive,2,l,j,,,,,,,,,6,16,124,11,,,,,,,,,,,,,,,,,,,,,,,,main,2,2,2,positive,positive,j,k,0,0.9899270999994769,423.7807280000002,424.7895598,424.7707052999999,None,423.7807280000002,None,423.7807280000002,None,423.7807280000002,None,425.75653889999967,None,425.75653889999967,None,425.75653889999967,None,,,,,,,,,,,203,24,Male,2022-04-27_11h20.10.307,Main,2022.1.1,60.06085365696551,
neutral,positive,2,k,k,,,,,,,,,6,17,125,13,,,,,,,,,,,,,,,,,,,,,,,,main,2,2,2,positive,neutral,k,k,1,0.6873770000001969,426.77331300000014,427.78621669999984,427.7679903000003,None,426.77331300000014,None,426.77331300000014,None,426.77331300000014,None,428.44140586999976,None,428.44140586999976,None,428.44140586999976,None,,,,,,,,,,,203,24,Male,2022-04-27_11h20.10.307,Main,2022.1.1,60.06085365696551,
negative,negative,1,j,l,,,,,,,,,7,0,126,0,,,,,,,,,,,,,,,,,,,,,,,,main,1,1,1,negative,negative,l,l,1,0.798945200000162,428.4622437000003,429.47566289999986,429.43853629999967,None,428.4622437000003,None,428.4622437000003,None,428.4622437000003,None,430.2452008700005,None,430.2452008700005,None,430.2452008700005,None,,,,,,,,,,,203,24,Male,2022-04-27_11h20.10.307,Main,2022.1.1,60.06085365696551,
neutral,neutral,1,k,k,,,,,,,,,7,1,127,1,,,,,,,,,,,,,,,,,,,,,,,,main,1,1,1,neutral,neutral,k,k,1,0.8765743000003567,430.2681244999999,431.26970589999974,431.2509771,None,430.2681244999999,None,430.2681244999999,None,430.2681244999999,None,432.12123617000026,None,432.12123617000026,None,432.12123617000026,None,,,,,,,,,,,203,24,Male,2022-04-27_11h20.10.307,Main,2022.1.1,60.06085365696551,
positive,neutral,1,l,j,,,,,,,,,7,2,128,8,,,,,,,,,,,,,,,,,,,,,,,,main,2,2,1,neutral,positive,j,j,1,0.9130630999998175,432.1427017000001,433.1598399999998,433.1224398999998,None,432.1427017000001,None,432.1427017000001,None,432.1427017000001,None,434.03796557000015,None,434.03796557000015,None,434.03796557000015,None,,,,,,,,,,,203,24,Male,2022-04-27_11h20.10.307,Main,2022.1.1,60.06085365696551,
neutral,negative,1,k,k,,,,,,,,,7,3,129,7,,,,,,,,,,,,,,,,,,,,,,,,main,2,2,1,negative,neutral,k,k,1,0.8322303999993892,434.0629509000005,435.0685577999998,435.04790360000015,None,434.0629509000005,None,434.0629509000005,None,434.0629509000005,None,435.87464437000045,None,435.87464437000045,None,435.87464437000045,None,,,,,,,,,,,203,24,Male,2022-04-27_11h20.10.307,Main,2022.1.1,60.06085365696551,
positive,negative,1,l,j,,,,,,,,,7,4,130,5,,,,,,,,,,,,,,,,,,,,,,,,main,1,1,1,negative,positive,j,j,1,1.012266400000044,435.8959480999997,436.9067749000001,436.86941979999983,None,435.8959480999997,None,435.8959480999997,None,435.8959480999997,None,437.8872658700005,None,437.8872658700005,None,437.8872658700005,None,,,,,,,,,,,203,24,Male,2022-04-27_11h20.10.307,Main,2022.1.1,60.06085365696551,
negative,negative,2,j,l,,,,,,,,,7,5,131,9,,,,,,,,,,,,,,,,,,,,,,,,main,1,1,2,negative,negative,l,l,1,1.628933799999686,437.90899469999977,438.91336100000035,438.89450330000045,None,437.90899469999977,None,437.90899469999977,None,437.90899469999977,None,440.5261794000003,None,440.5261794000003,None,440.5261794000003,None,,,,,,,,,,,203,24,Male,2022-04-27_11h20.10.307,Main,2022.1.1,60.06085365696551,
neutral,positive,2,k,k,,,,,,,,,7,6,132,13,,,,,,,,,,,,,,,,,,,,,,,,main,1,1,2,positive,neutral,k,k,1,0.8416774000006626,441.5380313999999,442.5437869000002,442.52427039999975,None,441.5380313999999,None,441.5380313999999,None,441.5380313999999,None,443.3616835699998,None,443.3616835699998,None,443.3616835699998,None,,,,,,,,,,,203,24,Male,2022-04-27_11h20.10.307,Main,2022.1.1,60.06085365696551,
positive,negative,2,l,j,,,,,,,,,7,7,133,14,,,,,,,,,,,,,,,,,,,,,,,,main,1,1,2,negative,positive,j,j,1,1.3221372999996674,443.38382370000045,444.38678610000034,444.36829850000004,None,443.38382370000045,None,443.38382370000045,None,443.38382370000045,None,445.6881851700003,None,445.6881851700003,None,445.6881851700003,None,,,,,,,,,,,203,24,Male,2022-04-27_11h20.10.307,Main,2022.1.1,60.06085365696551,
negative,neutral,2,j,l,,,,,,,,,7,8,134,12,,,,,,,,,,,,,,,,,,,,,,,,main,2,2,2,neutral,negative,l,l,1,0.7956217000000834,445.7085874999998,446.7198321000001,446.7005876999997,None,445.7085874999998,None,445.7085874999998,None,445.7085874999998,None,447.4856398699997,None,447.4856398699997,None,447.4856398699997,None,,,,,,,,,,,203,24,Male,2022-04-27_11h20.10.307,Main,2022.1.1,60.06085365696551,
neutral,neutral,2,k,k,,,,,,,,,7,9,135,10,,,,,,,,,,,,,,,,,,,,,,,,main,1,1,2,neutral,neutral,k,k,1,0.8717413999993369,447.50638350000054,448.50640520000024,448.4896026000001,None,447.50638350000054,None,447.50638350000054,None,447.50638350000054,None,449.36257597000014,None,449.36257597000014,None,449.36257597000014,None,,,,,,,,,,,203,24,Male,2022-04-27_11h20.10.307,Main,2022.1.1,60.06085365696551,
negative,positive,2,j,l,,,,,,,,,7,10,136,15,,,,,,,,,,,,,,,,,,,,,,,,main,2,2,2,positive,negative,l,l,1,0.8943736000001081,449.38534279999976,450.39756590000025,450.3580162000003,None,449.38534279999976,None,449.38534279999976,None,449.38534279999976,None,451.26126287000017,None,451.26126287000017,None,451.26126287000017,None,,,,,,,,,,,203,24,Male,2022-04-27_11h20.10.307,Main,2022.1.1,60.06085365696551,
neutral,positive,1,k,k,,,,,,,,,7,11,137,4,,,,,,,,,,,,,,,,,,,,,,,,main,1,1,1,positive,neutral,k,k,1,1.0256081000006816,451.28162790000033,452.2967567999999,452.2565547999998,None,451.28162790000033,None,451.28162790000033,None,451.28162790000033,None,453.28994987000016,None,453.28994987000016,None,453.28994987000016,None,,,,,,,,,,,203,24,Male,2022-04-27_11h20.10.307,Main,2022.1.1,60.06085365696551,
positive,neutral,2,l,j,,,,,,,,,7,12,138,17,,,,,,,,,,,,,,,,,,,,,,,,main,1,1,2,neutral,positive,j,j,1,0.9003744999999981,453.30930409999974,454.31532370000014,454.29530040000054,None,453.30930409999974,None,453.30930409999974,None,453.30930409999974,None,455.1930350699998,None,455.1930350699998,None,455.1930350699998,None,,,,,,,,,,,203,24,Male,2022-04-27_11h20.10.307,Main,2022.1.1,60.06085365696551,
positive,positive,1,l,j,,,,,,,,,7,13,139,2,,,,,,,,,,,,,,,,,,,,,,,,main,2,2,1,positive,positive,j,j,1,1.1269185999999536,455.2148570000004,456.2296441000003,456.18921100000034,None,455.2148570000004,None,455.2148570000004,None,455.2148570000004,None,457.3216317700001,None,457.3216317700001,None,457.3216317700001,None,,,,,,,,,,,203,24,Male,2022-04-27_11h20.10.307,Main,2022.1.1,60.06085365696551,
positive,positive,2,l,j,,,,,,,,,7,14,140,11,,,,,,,,,,,,,,,,,,,,,,,,main,2,2,2,positive,positive,j,j,1,0.8763847999998688,457.34568549999995,458.3516532999997,458.3326001999999,None,457.34568549999995,None,457.34568549999995,None,457.34568549999995,None,459.1994558700001,None,459.1994558700001,None,459.1994558700001,None,,,,,,,,,,,203,24,Male,2022-04-27_11h20.10.307,Main,2022.1.1,60.06085365696551,
negative,neutral,1,j,l,,,,,,,,,7,15,141,3,,,,,,,,,,,,,,,,,,,,,,,,main,1,1,1,neutral,negative,l,l,1,0.9236010000004171,459.2210640999997,460.23078269999996,460.1938532999998,None,459.2210640999997,None,459.2210640999997,None,459.2210640999997,None,461.12731727000056,None,461.12731727000056,None,461.12731727000056,None,,,,,,,,,,,203,24,Male,2022-04-27_11h20.10.307,Main,2022.1.1,60.06085365696551,
negative,positive,1,j,l,,,,,,,,,7,16,142,6,,,,,,,,,,,,,,,,,,,,,,,,main,2,2,1,positive,negative,l,l,1,0.853852299999744,461.1479236,462.16655390000005,462.1276423000004,None,461.1479236,None,461.1479236,None,461.1479236,None,462.9830205700003,None,462.9830205700003,None,462.9830205700003,None,,,,,,,,,,,203,24,Male,2022-04-27_11h20.10.307,Main,2022.1.1,60.06085365696551,
neutral,negative,2,k,k,,,,,,,,,7,17,143,16,,,,,,,,,,,,,,,,,,,,,,,,main,1,1,2,negative,neutral,k,k,1,1.145744399999785,463.0089911,464.02975840000045,463.9910106000002,None,463.0089911,None,463.0089911,None,463.0089911,None,465.13174867000026,None,465.13174867000026,None,465.13174867000026,None,,,,,,,,,,,203,24,Male,2022-04-27_11h20.10.307,Main,2022.1.1,60.06085365696551,
neutral,negative,1,k,k,,,,,,,,,8,0,144,7,,,,,,,,,,,,,,,,,,,,,,,,main,1,1,1,negative,neutral,k,k,1,0.7578083999997034,465.15294909999966,466.16487989999996,466.12774800000034,None,465.15294909999966,None,465.15294909999966,None,465.15294909999966,None,466.89429256999966,None,466.89429256999966,None,466.89429256999966,None,,,,,,,,,,,203,24,Male,2022-04-27_11h20.10.307,Main,2022.1.1,60.06085365696551,
positive,negative,2,l,j,,,,,,,,,8,1,145,14,,,,,,,,,,,,,,,,,,,,,,,,main,2,2,2,negative,positive,j,j,1,2.0622497999993357,466.9153008999997,467.9190808999997,467.9003816999998,None,466.9153008999997,None,466.9153008999997,None,466.9153008999997,None,469.9659993999999,None,469.9659993999999,None,469.9659993999999,None,,,,,,,,,,,203,24,Male,2022-04-27_11h20.10.307,Main,2022.1.1,60.06085365696551,
neutral,positive,1,k,k,,,,,,,,,8,2,146,4,,,,,,,,,,,,,,,,,,,,,,,,main,2,2,1,positive,neutral,k,k,1,2.203537200000028,470.9869841000004,472.001495,471.9826177,None,470.9869841000004,None,470.9869841000004,None,470.9869841000004,None,474.1725825999997,None,474.1725825999997,None,474.1725825999997,None,,,,,,,,,,,203,24,Male,2022-04-27_11h20.10.307,Main,2022.1.1,60.06085365696551,
positive,neutral,2,l,j,,,,,,,,,8,3,147,17,,,,,,,,,,,,,,,,,,,,,,,,main,1,1,2,neutral,positive,j,j,1,1.0534984000005352,475.18406819999973,476.18684340000027,476.16799029999993,None,475.18406819999973,None,475.18406819999973,None,475.18406819999973,None,477.2173996699997,None,477.2173996699997,None,477.2173996699997,None,,,,,,,,,,,203,24,Male,2022-04-27_11h20.10.307,Main,2022.1.1,60.06085365696551,
neutral,neutral,2,k,k,,,,,,,,,8,4,148,10,,,,,,,,,,,,,,,,,,,,,,,,main,2,2,2,neutral,neutral,k,k,1,1.0340755999995963,477.2383928000004,478.2608783999999,478.2414050000002,None,477.2383928000004,None,477.2383928000004,None,477.2383928000004,None,479.2566162699998,None,479.2566162699998,None,479.2566162699998,None,,,,,,,,,,,203,24,Male,2022-04-27_11h20.10.307,Main,2022.1.1,60.06085365696551,
negative,positive,1,j,l,,,,,,,,,8,5,149,6,,,,,,,,,,,,,,,,,,,,,,,,main,1,1,1,positive,negative,l,l,1,0.8867669000001115,479.2763159000001,480.2968627000005,480.25864219999994,None,479.2763159000001,None,479.2763159000001,None,479.2763159000001,None,481.14419606999974,None,481.14419606999974,None,481.14419606999974,None,,,,,,,,,,,203,24,Male,2022-04-27_11h20.10.307,Main,2022.1.1,60.06085365696551,
positive,positive,2,l,j,,,,,,,,,8,6,150,11,,,,,,,,,,,,,,,,,,,,,,,,main,2,2,2,positive,positive,j,j,1,2.057454499999949,481.16622830000006,482.1719355,482.1525698999999,None,481.16622830000006,None,481.16622830000006,None,481.16622830000006,None,484.2123760999998,None,484.2123760999998,None,484.2123760999998,None,,,,,,,,,,,203,24,Male,2022-04-27_11h20.10.307,Main,2022.1.1,60.06085365696551,
negative,neutral,1,j,l,,,,,,,,,8,7,151,3,,,,,,,,,,,,,,,,,,,,,,,,main,2,2,1,neutral,negative,l,l,1,0.8675782999998773,485.23293690000037,486.23778150000044,486.21844139999985,None,485.23293690000037,None,485.23293690000037,None,485.23293690000037,None,487.08051627000015,None,487.08051627000015,None,487.08051627000015,None,,,,,,,,,,,203,24,Male,2022-04-27_11h20.10.307,Main,2022.1.1,60.06085365696551,
neutral,positive,2,k,k,,,,,,,,,8,8,152,13,,,,,,,,,,,,,,,,,,,,,,,,main,2,2,2,positive,neutral,k,k,1,0.8339020999992499,487.1060472000004,488.11198680000007,488.09337019999975,None,487.1060472000004,None,487.1060472000004,None,487.1060472000004,None,488.91907716999987,None,488.91907716999987,None,488.91907716999987,None,,,,,,,,,,,203,24,Male,2022-04-27_11h20.10.307,Main,2022.1.1,60.06085365696551,
neutral,neutral,1,k,k,,,,,,,,,8,9,153,1,,,,,,,,,,,,,,,,,,,,,,,,main,2,2,1,neutral,neutral,k,k,1,1.5262500999997428,488.9393353999999,489.9549380000003,489.9153325000002,None,488.9393353999999,None,488.9393353999999,None,488.9393353999999,None,491.4553713,None,491.4553713,None,491.4553713,None,,,,,,,,,,,203,24,Male,2022-04-27_11h20.10.307,Main,2022.1.1,60.06085365696551,
negative,negative,2,j,l,,,,,,,,,8,10,154,9,,,,,,,,,,,,,,,,,,,,,,,,main,2,2,2,negative,negative,l,l,1,0.7873546000000715,492.4815613000005,493.4888562000001,493.4681768000005,None,492.4815613000005,None,492.4815613000005,None,492.4815613000005,None,494.2514930700002,None,494.2514930700002,None,494.2514930700002,None,,,,,,,,,,,203,24,Male,2022-04-27_11h20.10.307,Main,2022.1.1,60.06085365696551,
neutral,negative,2,k,k,,,,,,,,,8,11,155,16,,,,,,,,,,,,,,,,,,,,,,,,main,1,1,2,negative,neutral,k,k,1,0.8224664999997913,494.27177470000015,495.27740440000025,495.2588674000003,None,494.27177470000015,None,494.27177470000015,None,494.27177470000015,None,496.0755404699997,None,496.0755404699997,None,496.0755404699997,None,,,,,,,,,,,203,24,Male,2022-04-27_11h20.10.307,Main,2022.1.1,60.06085365696551,
positive,positive,1,l,j,,,,,,,,,8,12,156,2,,,,,,,,,,,,,,,,,,,,,,,,main,2,2,1,positive,positive,j,j,1,0.7662812999997186,496.09599019999996,497.1122605000005,497.07275700000037,None,496.09599019999996,None,496.09599019999996,None,496.09599019999996,None,497.8440976699997,None,497.8440976699997,None,497.8440976699997,None,,,,,,,,,,,203,24,Male,2022-04-27_11h20.10.307,Main,2022.1.1,60.06085365696551,
negative,positive,2,j,l,,,,,,,,,8,13,157,15,,,,,,,,,,,,,,,,,,,,,,,,main,1,1,2,positive,negative,l,l,1,0.7467682999995304,497.86412450000034,498.8826641999999,498.8448361000005,None,497.86412450000034,None,497.86412450000034,None,497.86412450000034,None,499.5934551700005,None,499.5934551700005,None,499.5934551700005,None,,,,,,,,,,,203,24,Male,2022-04-27_11h20.10.307,Main,2022.1.1,60.06085365696551,
negative,neutral,2,j,l,,,,,,,,,8,14,158,12,,,,,,,,,,,,,,,,,,,,,,,,main,2,2,2,neutral,negative,l,l,1,0.7295688000003793,499.61383179999984,500.6190770999997,500.5997629999997,None,499.61383179999984,None,499.61383179999984,None,499.61383179999984,None,501.3249423700002,None,501.3249423700002,None,501.3249423700002,None,,,,,,,,,,,203,24,Male,2022-04-27_11h20.10.307,Main,2022.1.1,60.06085365696551,
positive,neutral,1,l,j,,,,,,,,,8,15,159,8,,,,,,,,,,,,,,,,,,,,,,,,main,2,2,1,neutral,positive,j,j,1,0.8795319999999265,501.34686360000023,502.3507765999998,502.3318165000005,None,501.34686360000023,None,501.34686360000023,None,501.34686360000023,None,503.20848186999984,None,503.20848186999984,None,503.20848186999984,None,,,,,,,,,,,203,24,Male,2022-04-27_11h20.10.307,Main,2022.1.1,60.06085365696551,
negative,negative,1,j,l,,,,,,,,,8,16,160,0,,,,,,,,,,,,,,,,,,,,,,,,main,2,2,1,negative,negative,l,l,1,0.8673330000001442,503.2293262999997,504.2328917,504.2140366999997,None,503.2293262999997,None,503.2293262999997,None,503.2293262999997,None,505.07808006999977,None,505.07808006999977,None,505.07808006999977,None,,,,,,,,,,,203,24,Male,2022-04-27_11h20.10.307,Main,2022.1.1,60.06085365696551,
positive,negative,1,l,j,,,,,,,,,8,17,161,5,,,,,,,,,,,,,,,,,,,,,,,,main,2,2,1,negative,positive,j,j,1,0.9039818999999625,505.10324900000023,506.12381400000004,506.0839587000005,None,505.10324900000023,None,505.10324900000023,None,505.10324900000023,None,506.98699787000015,None,506.98699787000015,None,506.98699787000015,None,,,,,,,,,,,203,24,Male,2022-04-27_11h20.10.307,Main,2022.1.1,60.06085365696551,
negative,negative,2,j,l,,,,,,,,,9,0,162,9,,,,,,,,,,,,,,,,,,,,,,,,main,2,2,2,negative,negative,l,l,1,1.0997933999997258,507.0065675999999,508.0189683000003,508.00017760000037,None,507.0065675999999,None,507.0065675999999,None,507.0065675999999,None,509.0882570699999,None,509.0882570699999,None,509.0882570699999,None,,,,,,,,,,,203,24,Male,2022-04-27_11h20.10.307,Main,2022.1.1,60.06085365696551,
neutral,negative,1,k,k,,,,,,,,,9,1,163,7,,,,,,,,,,,,,,,,,,,,,,,,main,1,1,1,negative,neutral,k,k,1,0.7522122000000309,509.1112840999999,510.1187166000004,510.0984848000003,None,509.1112840999999,None,509.1112840999999,None,509.1112840999999,None,510.8444449700003,None,510.8444449700003,None,510.8444449700003,None,,,,,,,,,,,203,24,Male,2022-04-27_11h20.10.307,Main,2022.1.1,60.06085365696551,
positive,neutral,1,l,j,,,,,,,,,9,2,164,8,,,,,,,,,,,,,,,,,,,,,,,,main,1,1,1,neutral,positive,j,j,1,0.7826780999994298,510.86576230000037,511.8816947999999,511.84634940000024,None,510.86576230000037,None,510.86576230000037,None,510.86576230000037,None,512.62959497,None,512.62959497,None,512.62959497,None,,,,,,,,,,,203,24,Male,2022-04-27_11h20.10.307,Main,2022.1.1,60.06085365696551,
negative,neutral,2,j,l,,,,,,,,,9,3,165,12,,,,,,,,,,,,,,,,,,,,,,,,main,1,1,2,neutral,negative,l,l,1,0.8989828000003399,512.6498715000002,513.6545315999997,513.6347784000004,None,512.6498715000002,None,512.6498715000002,None,512.6498715000002,None,514.5328943699999,None,514.5328943699999,None,514.5328943699999,None,,,,,,,,,,,203,24,Male,2022-04-27_11h20.10.307,Main,2022.1.1,60.06085365696551,
neutral,negative,2,k,k,,,,,,,,,9,4,166,16,,,,,,,,,,,,,,,,,,,,,,,,main,1,1,2,negative,neutral,k,k,1,0.9319046000000526,514.5519039000005,515.5702899000003,515.5315072999997,None,514.5519039000005,None,514.5519039000005,None,514.5519039000005,None,516.4675922700001,None,516.4675922700001,None,516.4675922700001,None,,,,,,,,,,,203,24,Male,2022-04-27_11h20.10.307,Main,2022.1.1,60.06085365696551,
positive,positive,1,l,j,,,,,,,,,9,5,167,2,,,,,,,,,,,,,,,,,,,,,,,,main,1,1,1,positive,positive,j,j,1,0.8286453999999139,516.4900717000005,517.4958035000004,517.4772288999998,None,516.4900717000005,None,516.4900717000005,None,516.4900717000005,None,518.2996302699996,None,518.2996302699996,None,518.2996302699996,None,,,,,,,,,,,203,24,Male,2022-04-27_11h20.10.307,Main,2022.1.1,60.06085365696551,
positive,positive,2,l,j,,,,,,,,,9,6,168,11,,,,,,,,,,,,,,,,,,,,,,,,main,1,1,2,positive,positive,j,j,1,0.942707899999732,518.3205789999997,519.3250063,519.3071057000002,None,518.3205789999997,None,518.3205789999997,None,518.3205789999997,None,520.2432417700004,None,520.2432417700004,None,520.2432417700004,None,,,,,,,,,,,203,24,Male,2022-04-27_11h20.10.307,Main,2022.1.1,60.06085365696551,
negative,negative,1,j,l,,,,,,,,,9,7,169,0,,,,,,,,,,,,,,,,,,,,,,,,main,1,1,1,negative,negative,l,l,1,0.9003557000005458,520.2630681000005,521.2805117000003,521.2422405000002,None,520.2630681000005,None,520.2630681000005,None,520.2630681000005,None,522.1453149700003,None,522.1453149700003,None,522.1453149700003,None,,,,,,,,,,,203,24,Male,2022-04-27_11h20.10.307,Main,2022.1.1,60.06085365696551,
positive,negative,2,l,j,,,,,,,,,9,8,170,14,,,,,,,,,,,,,,,,,,,,,,,,main,2,2,2,negative,positive,j,j,1,0.8851854000004096,522.1705686,523.1812752999999,523.1430754999997,None,522.1705686,None,522.1705686,None,522.1705686,None,524.0354590700001,None,524.0354590700001,None,524.0354590700001,None,,,,,,,,,,,203,24,Male,2022-04-27_11h20.10.307,Main,2022.1.1,60.06085365696551,
neutral,positive,1,k,k,,,,,,,,,9,9,171,4,,,,,,,,,,,,,,,,,,,,,,,,main,1,1,1,positive,neutral,k,k,1,0.7362149999999019,524.0565478000003,525.0635066,525.0446907999999,None,524.0565478000003,None,524.0565478000003,None,524.0565478000003,None,525.7728316699997,None,525.7728316699997,None,525.7728316699997,None,,,,,,,,,,,203,24,Male,2022-04-27_11h20.10.307,Main,2022.1.1,60.06085365696551,
neutral,neutral,1,k,k,,,,,,,,,9,10,172,1,,,,,,,,,,,,,,,,,,,,,,,,main,2,2,1,neutral,neutral,k,k,1,0.7768325999995795,525.7924073999998,526.8012749000004,526.7635105000004,None,525.7924073999998,None,525.7924073999998,None,525.7924073999998,None,527.5536185700005,None,527.5536185700005,None,527.5536185700005,None,,,,,,,,,,,203,24,Male,2022-04-27_11h20.10.307,Main,2022.1.1,60.06085365696551,
neutral,neutral,2,k,k,,,,,,,,,9,11,173,10,,,,,,,,,,,,,,,,,,,,,,,,main,2,2,2,neutral,neutral,k,k,1,0.6856895999999324,527.5745431,528.5909938999998,528.5512345000002,None,527.5745431,None,527.5745431,None,527.5745431,None,529.2419249699999,None,529.2419249699999,None,529.2419249699999,None,,,,,,,,,,,203,24,Male,2022-04-27_11h20.10.307,Main,2022.1.1,60.06085365696551,
negative,positive,2,j,l,,,,,,,,,9,12,174,15,,,,,,,,,,,,,,,,,,,,,,,,main,2,2,2,positive,negative,l,l,1,0.8436242999996466,529.2630561999999,530.2805863999997,530.2424188999998,None,529.2630561999999,None,529.2630561999999,None,529.2630561999999,None,531.0879520700003,None,531.0879520700003,None,531.0879520700003,None,,,,,,,,,,,203,24,Male,2022-04-27_11h20.10.307,Main,2022.1.1,60.06085365696551,
positive,negative,1,l,j,,,,,,,,,9,13,175,5,,,,,,,,,,,,,,,,,,,,,,,,main,1,1,1,negative,positive,j,j,1,0.8295697000003202,531.1089517000005,532.1151058,532.0959165999998,None,531.1089517000005,None,531.1089517000005,None,531.1089517000005,None,532.9203196700003,None,532.9203196700003,None,532.9203196700003,None,,,,,,,,,,,203,24,Male,2022-04-27_11h20.10.307,Main,2022.1.1,60.06085365696551,
negative,neutral,1,j,l,,,,,,,,,9,14,176,3,,,,,,,,,,,,,,,,,,,,,,,,main,2,2,1,neutral,negative,l,l,1,0.9046522999997251,532.9416795000002,533.9455680000005,533.9285851,None,532.9416795000002,None,532.9416795000002,None,532.9416795000002,None,534.8275221699998,None,534.8275221699998,None,534.8275221699998,None,,,,,,,,,,,203,24,Male,2022-04-27_11h20.10.307,Main,2022.1.1,60.06085365696551,
negative,positive,1,j,l,,,,,,,,,9,15,177,6,,,,,,,,,,,,,,,,,,,,,,,,main,2,2,1,positive,negative,l,l,1,0.798925799999779,534.8524718000003,535.8627606000005,535.8250788999999,None,534.8524718000003,None,534.8524718000003,None,534.8524718000003,None,536.63116707,None,536.63116707,None,536.63116707,None,,,,,,,,,,,203,24,Male,2022-04-27_11h20.10.307,Main,2022.1.1,60.06085365696551,
neutral,positive,2,k,k,,,,,,,,,9,16,178,13,,,,,,,,,,,,,,,,,,,,,,,,main,1,1,2,positive,neutral,k,k,1,0.8244672000000719,536.6524507999998,537.6729256000003,537.6343557000005,None,536.6524507999998,None,536.6524507999998,None,536.6524507999998,None,538.4561399699999,None,538.4561399699999,None,538.4561399699999,None,,,,,,,,,,,203,24,Male,2022-04-27_11h20.10.307,Main,2022.1.1,60.06085365696551,
positive,neutral,2,l,j,,,,,,,,,9,17,179,17,,,,,,,,,,,,,,,,,,,,,,,,main,2,2,2,neutral,positive,j,j,1,0.7542882999996436,538.4777428000002,539.4866913000001,539.4675463999997,None,538.4777428000002,None,538.4777428000002,None,538.4777428000002,None,540.2147512699996,None,540.2147512699996,None,540.2147512699996,None,,,,,,,,,,,203,24,Male,2022-04-27_11h20.10.307,Main,2022.1.1,60.06085365696551,
positive,positive,1,l,j,,,,,,,,,10,0,180,2,,,,,,,,,,,,,,,,,,,,,,,,main,1,1,1,positive,positive,j,l,0,1.1831533000004129,540.2344292000002,541.2424205000002,541.2238983000002,None,540.2344292000002,None,540.2344292000002,None,540.2344292000002,None,542.4064856999998,None,542.4064856999998,None,542.4064856999998,None,,,,,,,,,,,203,24,Male,2022-04-27_11h20.10.307,Main,2022.1.1,60.06085365696551,
neutral,neutral,2,k,k,,,,,,,,,10,1,181,10,,,,,,,,,,,,,,,,,,,,,,,,main,2,2,2,neutral,neutral,k,k,1,0.8372417000000496,543.4256085000002,544.4378656000004,544.4190113,None,543.4256085000002,None,543.4256085000002,None,543.4256085000002,None,545.24291397,None,545.24291397,None,545.24291397,None,,,,,,,,,,,203,24,Male,2022-04-27_11h20.10.307,Main,2022.1.1,60.06085365696551,
negative,negative,2,j,l,,,,,,,,,10,2,182,9,,,,,,,,,,,,,,,,,,,,,,,,main,2,2,2,negative,negative,l,l,1,1.0074369000003571,545.2649213,546.2829326000005,546.2440321999998,None,545.2649213,None,545.2649213,None,545.2649213,None,547.2544740699998,None,547.2544740699998,None,547.2544740699998,None,,,,,,,,,,,203,24,Male,2022-04-27_11h20.10.307,Main,2022.1.1,60.06085365696551,
positive,negative,2,l,j,,,,,,,,,10,3,183,14,,,,,,,,,,,,,,,,,,,,,,,,main,2,2,2,negative,positive,j,j,1,0.9336819000000105,547.2746751999998,548.2928746000002,548.2536235000002,None,547.2746751999998,None,547.2746751999998,None,547.2746751999998,None,549.1903485699997,None,549.1903485699997,None,549.1903485699997,None,,,,,,,,,,,203,24,Male,2022-04-27_11h20.10.307,Main,2022.1.1,60.06085365696551,
positive,neutral,2,l,j,,,,,,,,,10,4,184,17,,,,,,,,,,,,,,,,,,,,,,,,main,1,1,2,neutral,positive,j,j,1,0.7346895999999106,549.2133135999998,550.2186315000004,550.1995178000002,None,549.2133135999998,None,549.2133135999998,None,549.2133135999998,None,550.9300595699999,None,550.9300595699999,None,550.9300595699999,None,,,,,,,,,,,203,24,Male,2022-04-27_11h20.10.307,Main,2022.1.1,60.06085365696551,
neutral,positive,1,k,k,,,,,,,,,10,5,185,4,,,,,,,,,,,,,,,,,,,,,,,,main,2,2,1,positive,neutral,k,k,1,0.7404985000002853,550.9527749000003,551.9608149000001,551.9413313,None,550.9527749000003,None,550.9527749000003,None,550.9527749000003,None,552.6707683699999,None,552.6707683699999,None,552.6707683699999,None,,,,,,,,,,,203,24,Male,2022-04-27_11h20.10.307,Main,2022.1.1,60.06085365696551,
negative,positive,2,j,l,,,,,,,,,10,6,186,15,,,,,,,,,,,,,,,,,,,,,,,,main,1,1,2,positive,negative,l,l,1,0.9820757999996204,552.6921156000003,553.7015009000002,553.6822291000003,None,552.6921156000003,None,552.6921156000003,None,552.6921156000003,None,554.6555283700002,None,554.6555283700002,None,554.6555283700002,None,,,,,,,,,,,203,24,Male,2022-04-27_11h20.10.307,Main,2022.1.1,60.06085365696551,
positive,positive,2,l,j,,,,,,,,,10,7,187,11,,,,,,,,,,,,,,,,,,,,,,,,main,2,2,2,positive,positive,j,j,1,0.8365617999997994,554.6800060999999,555.6864697000005,555.6677666999999,None,554.6800060999999,None,554.6800060999999,None,554.6800060999999,None,556.4964595699996,None,556.4964595699996,None,556.4964595699996,None,,,,,,,,,,,203,24,Male,2022-04-27_11h20.10.307,Main,2022.1.1,60.06085365696551,
neutral,positive,2,k,k,,,,,,,,,10,8,188,13,,,,,,,,,,,,,,,,,,,,,,,,main,1,1,2,positive,neutral,k,k,1,0.9526325000006182,556.5185434,557.5244374999997,557.5054375000004,None,556.5185434,None,556.5185434,None,556.5185434,None,558.4496730700005,None,558.4496730700005,None,558.4496730700005,None,,,,,,,,,,,203,24,Male,2022-04-27_11h20.10.307,Main,2022.1.1,60.06085365696551,
neutral,neutral,1,k,k,,,,,,,,,10,9,189,1,,,,,,,,,,,,,,,,,,,,,,,,main,2,2,1,neutral,neutral,k,k,1,0.8487848000004306,558.4706013999999,559.4786417,559.4594789999996,None,558.4706013999999,None,558.4706013999999,None,558.4706013999999,None,560.3021038700001,None,560.3021038700001,None,560.3021038700001,None,,,,,,,,,,,203,24,Male,2022-04-27_11h20.10.307,Main,2022.1.1,60.06085365696551,
negative,neutral,1,j,l,,,,,,,,,10,10,190,3,,,,,,,,,,,,,,,,,,,,,,,,main,2,2,1,neutral,negative,l,l,1,0.7868857999992542,560.3220120999999,561.3238896999997,561.3050927999998,None,560.3220120999999,None,560.3220120999999,None,560.3220120999999,None,562.0917240700003,None,562.0917240700003,None,562.0917240700003,None,,,,,,,,,,,203,24,Male,2022-04-27_11h20.10.307,Main,2022.1.1,60.06085365696551,
negative,negative,1,j,l,,,,,,,,,10,11,191,0,,,,,,,,,,,,,,,,,,,,,,,,main,1,1,1,negative,negative,l,l,1,0.7659153000004153,562.1164807,563.1287988999998,563.0900840999998,None,562.1164807,None,562.1164807,None,562.1164807,None,563.86165517,None,563.86165517,None,563.86165517,None,,,,,,,,,,,203,24,Male,2022-04-27_11h20.10.307,Main,2022.1.1,60.06085365696551,
negative,neutral,2,j,l,,,,,,,,,10,12,192,12,,,,,,,,,,,,,,,,,,,,,,,,main,1,1,2,neutral,negative,l,k,0,1.2085361999997986,563.8812246000002,564.8866105000002,564.8682432,None,563.8812246000002,None,563.8812246000002,None,563.8812246000002,None,566.0794495000005,None,566.0794495000005,None,566.0794495000005,None,,,,,,,,,,,203,24,Male,2022-04-27_11h20.10.307,Main,2022.1.1,60.06085365696551,
neutral,negative,2,k,k,,,,,,,,,10,13,193,16,,,,,,,,,,,,,,,,,,,,,,,,main,1,1,2,negative,neutral,k,k,1,0.6514091999997618,567.1052298999998,568.1072073999999,568.0882729,None,567.1052298999998,None,567.1052298999998,None,567.1052298999998,None,568.73746117,None,568.73746117,None,568.73746117,None,,,,,,,,,,,203,24,Male,2022-04-27_11h20.10.307,Main,2022.1.1,60.06085365696551,
negative,positive,1,j,l,,,,,,,,,10,14,194,6,,,,,,,,,,,,,,,,,,,,,,,,main,1,1,1,positive,negative,l,l,1,1.4928695999997217,568.7617738000004,569.7743572000004,569.7338013000003,None,568.7617738000004,None,568.7617738000004,None,568.7617738000004,None,571.2319362700002,None,571.2319362700002,None,571.2319362700002,None,,,,,,,,,,,203,24,Male,2022-04-27_11h20.10.307,Main,2022.1.1,60.06085365696551,
positive,neutral,1,l,j,,,,,,,,,10,15,195,8,,,,,,,,,,,,,,,,,,,,,,,,main,2,2,1,neutral,positive,j,j,1,0.7854550000001836,571.2546067999997,572.2553843999999,572.2370180000003,None,571.2546067999997,None,571.2546067999997,None,571.2546067999997,None,573.0213227699999,None,573.0213227699999,None,573.0213227699999,None,,,,,,,,,,,203,24,Male,2022-04-27_11h20.10.307,Main,2022.1.1,60.06085365696551,
positive,negative,1,l,j,,,,,,,,,10,16,196,5,,,,,,,,,,,,,,,,,,,,,,,,main,1,1,1,negative,positive,j,j,1,0.8816670000005615,573.0452250000003,574.0637620000002,574.0251549,None,573.0452250000003,None,573.0452250000003,None,573.0452250000003,None,574.9035313699999,None,574.9035313699999,None,574.9035313699999,None,,,,,,,,,,,203,24,Male,2022-04-27_11h20.10.307,Main,2022.1.1,60.06085365696551,
neutral,negative,1,k,k,,,,,,,,,10,17,197,7,,,,,,,,,,,,,,,,,,,,,,,,main,2,2,1,negative,neutral,k,k,1,0.7005957999999737,574.9288597,575.938506,575.9007476000002,None,574.9288597,None,574.9288597,None,574.9288597,None,576.6103446700001,None,576.6103446700001,None,576.6103446700001,None,,,,,,,,,,,203,24,Male,2022-04-27_11h20.10.307,Main,2022.1.1,60.06085365696551,
negative,positive,2,j,l,,,,,,,,,11,0,198,15,,,,,,,,,,,,,,,,,,,,,,,,main,2,2,2,positive,negative,l,l,1,0.8819978000001356,576.6298328999997,577.6323139000001,577.6128493000001,None,576.6298328999997,None,576.6298328999997,None,576.6298328999997,None,578.4944569700003,None,578.4944569700003,None,578.4944569700003,None,,,,,,,,,,,203,24,Male,2022-04-27_11h20.10.307,Main,2022.1.1,60.06085365696551,
positive,positive,2,l,j,,,,,,,,,11,1,199,11,,,,,,,,,,,,,,,,,,,,,,,,main,2,2,2,positive,positive,j,j,1,0.8867457000005743,578.5164005000001,579.5344195000002,579.4959967,None,578.5164005000001,None,578.5164005000001,None,578.5164005000001,None,580.3820582700002,None,580.3820582700002,None,580.3820582700002,None,,,,,,,,,,,203,24,Male,2022-04-27_11h20.10.307,Main,2022.1.1,60.06085365696551,
positive,neutral,2,l,j,,,,,,,,,11,2,200,17,,,,,,,,,,,,,,,,,,,,,,,,main,1,1,2,neutral,positive,j,j,1,0.7593997000003583,580.403315,581.4053857000004,581.3868385000001,None,580.403315,None,580.403315,None,580.403315,None,582.1465330700005,None,582.1465330700005,None,582.1465330700005,None,,,,,,,,,,,203,24,Male,2022-04-27_11h20.10.307,Main,2022.1.1,60.06085365696551,
positive,negative,2,l,j,,,,,,,,,11,3,201,14,,,,,,,,,,,,,,,,,,,,,,,,main,2,2,2,negative,positive,j,j,1,0.8231605000000854,582.1696017999998,583.1730653999998,583.1542487000002,None,582.1696017999998,None,582.1696017999998,None,582.1696017999998,None,583.9713322700002,None,583.9713322700002,None,583.9713322700002,None,,,,,,,,,,,203,24,Male,2022-04-27_11h20.10.307,Main,2022.1.1,60.06085365696551,
positive,positive,1,l,j,,,,,,,,,11,4,202,2,,,,,,,,,,,,,,,,,,,,,,,,main,2,2,1,positive,positive,j,j,1,0.8965618000001996,583.9960300999996,585.0059514999998,584.9701694,None,583.9960300999996,None,583.9960300999996,None,583.9960300999996,None,585.8727794700001,None,585.8727794700001,None,585.8727794700001,None,,,,,,,,,,,203,24,Male,2022-04-27_11h20.10.307,Main,2022.1.1,60.06085365696551,
neutral,negative,1,k,k,,,,,,,,,11,5,203,7,,,,,,,,,,,,,,,,,,,,,,,,main,2,2,1,negative,neutral,k,k,1,0.8161809999992329,585.8929326000002,586.9045991999997,586.8672610999997,None,585.8929326000002,None,585.8929326000002,None,585.8929326000002,None,587.6915412700002,None,587.6915412700002,None,587.6915412700002,None,,,,,,,,,,,203,24,Male,2022-04-27_11h20.10.307,Main,2022.1.1,60.06085365696551,
neutral,positive,2,k,k,,,,,,,,,11,6,204,13,,,,,,,,,,,,,,,,,,,,,,,,main,1,1,2,positive,neutral,k,k,1,0.7118897000000288,587.7110311000001,588.7157512999997,588.6969780000004,None,587.7110311000001,None,587.7110311000001,None,587.7110311000001,None,589.40636027,None,589.40636027,None,589.40636027,None,,,,,,,,,,,203,24,Male,2022-04-27_11h20.10.307,Main,2022.1.1,60.06085365696551,
neutral,neutral,2,k,k,,,,,,,,,11,7,205,10,,,,,,,,,,,,,,,,,,,,,,,,main,1,1,2,neutral,neutral,k,k,1,0.6178565000000162,589.4253761000004,590.4389715000002,590.4014807999997,None,589.4253761000004,None,589.4253761000004,None,589.4253761000004,None,591.02684987,None,591.02684987,None,591.02684987,None,,,,,,,,,,,203,24,Male,2022-04-27_11h20.10.307,Main,2022.1.1,60.06085365696551,
neutral,positive,1,k,k,,,,,,,,,11,8,206,4,,,,,,,,,,,,,,,,,,,,,,,,main,1,1,1,positive,neutral,k,k,1,0.8416504000006171,591.0473771000002,592.0663618000003,592.0286053000004,None,591.0473771000002,None,591.0473771000002,None,591.0473771000002,None,592.8708519699996,None,592.8708519699996,None,592.8708519699996,None,,,,,,,,,,,203,24,Male,2022-04-27_11h20.10.307,Main,2022.1.1,60.06085365696551,
neutral,neutral,1,k,k,,,,,,,,,11,9,207,1,,,,,,,,,,,,,,,,,,,,,,,,main,1,1,1,neutral,neutral,k,k,1,0.6607051999999385,592.8937132000005,593.9039796000002,593.8648616000005,None,592.8937132000005,None,592.8937132000005,None,592.8937132000005,None,594.53183767,None,594.53183767,None,594.53183767,None,,,,,,,,,,,203,24,Male,2022-04-27_11h20.10.307,Main,2022.1.1,60.06085365696551,
negative,negative,2,j,l,,,,,,,,,11,10,208,9,,,,,,,,,,,,,,,,,,,,,,,,main,2,2,2,negative,negative,l,l,1,0.8636730999996871,594.5532160999996,595.5623014999996,595.5411773999999,None,594.5532160999996,None,594.5532160999996,None,594.5532160999996,None,596.3982192699998,None,596.3982192699998,None,596.3982192699998,None,,,,,,,,,,,203,24,Male,2022-04-27_11h20.10.307,Main,2022.1.1,60.06085365696551,
negative,neutral,2,j,l,,,,,,,,,11,11,209,12,,,,,,,,,,,,,,,,,,,,,,,,main,2,2,2,neutral,negative,l,l,1,0.679900500000258,596.4210193000004,597.4305838000005,597.4115656999998,None,596.4210193000004,None,596.4210193000004,None,596.4210193000004,None,598.0810364700003,None,598.0810364700003,None,598.0810364700003,None,,,,,,,,,,,203,24,Male,2022-04-27_11h20.10.307,Main,2022.1.1,60.06085365696551,
neutral,negative,2,k,k,,,,,,,,,11,12,210,16,,,,,,,,,,,,,,,,,,,,,,,,main,1,1,2,negative,neutral,k,k,1,0.8621869999997216,598.1076290000005,599.1093599000001,599.0907339,None,598.1076290000005,None,598.1076290000005,None,598.1076290000005,None,599.9478707700002,None,599.9478707700002,None,599.9478707700002,None,,,,,,,,,,,203,24,Male,2022-04-27_11h20.10.307,Main,2022.1.1,60.06085365696551,
negative,negative,1,j,l,,,,,,,,,11,13,211,0,,,,,,,,,,,,,,,,,,,,,,,,main,2,2,1,negative,negative,l,j,0,0.8467293000003338,599.9687968000003,600.9705086999998,600.9514652000003,None,599.9687968000003,None,599.9687968000003,None,599.9687968000003,None,601.8028472999999,None,601.8028472999999,None,601.8028472999999,None,,,,,,,,,,,203,24,Male,2022-04-27_11h20.10.307,Main,2022.1.1,60.06085365696551,
negative,positive,1,j,l,,,,,,,,,11,14,212,6,,,,,,,,,,,,,,,,,,,,,,,,main,2,2,1,positive,negative,l,l,1,0.9009992999999668,602.8178783999997,603.8362017000004,603.7975713999999,None,602.8178783999997,None,602.8178783999997,None,602.8178783999997,None,604.6974817700004,None,604.6974817700004,None,604.6974817700004,None,,,,,,,,,,,203,24,Male,2022-04-27_11h20.10.307,Main,2022.1.1,60.06085365696551,
