target,distractor,set,ans1,ans2,rep_loop2.thisRepN,rep_loop2.thisTrialN,rep_loop2.thisN,rep_loop2.thisIndex,flanker_prac_loop.thisRepN,flanker_prac_loop.thisTrialN,flanker_prac_loop.thisN,flanker_prac_loop.thisIndex,flanker_main_loop.thisRepN,flanker_main_loop.thisTrialN,flanker_main_loop.thisN,flanker_main_loop.thisIndex,fl_inst_resp.keys,mouse.x,mouse.y,mouse.leftButton,mouse.midButton,mouse.rightButton,mouse.started,mouse.stopped,sound_1.started,sound_1.stopped,no_text.started,no_text.stopped,yes_text.started,yes_text.stopped,mouse_2.x,mouse_2.y,mouse_2.leftButton,mouse_2.midButton,mouse_2.rightButton,mouse_2.started,mouse_2.stopped,back_2.started,back_2.stopped,main_prac,fl_cold,fl_colt,fl_set,fl_dcond,fl_tcond,fl_ans,fl_res,fl_corr,fl_rt,fix_fl.started,fix_fl.stopped,targ.started,targ.stopped,j_button.started,j_button.stopped,k_button.started,k_button.stopped,l_button.started,l_button.stopped,j_button2.started,j_button2.stopped,k_button2.started,k_button2.stopped,l_button2.started,l_button2.stopped,mainback.started,mainback.stopped,key_resp.keys,mouse_6.x,mouse_6.y,mouse_6.leftButton,mouse_6.midButton,mouse_6.rightButton,mouse_6.started,mouse_6.stopped,id*,age*,gender*,date,expName,psychopyVersion,frameRate,
,,,,,0,0,0,0,,,,,,,,,None,0.021296296,-0.36018518,0,0,0,1.0014071199898353,None,24.643415040000217,None,77.73865960000012,None,77.73865960000012,None,-0.083333336,-0.074074075,0,0,0,0.012461939999866445,None,,,,,,,,,,,,,,,,,,,,,,,,,,,,,,,,,,,,,,,204,24,Male,2022-04-27_13h15.44.284,Main,2022.1.1,60.005532510093005,
negative,negative,1,j,l,,,,,0,0,0,0,,,,,,,,,,,,,,,,,,,,,,,,,,81.70282910000014,None,prac,2,2,1,negative,negative,j,j,1,1.36298110000007,83.75050400000009,84.76244100000031,84.74336600000015,None,83.75050400000009,None,83.75050400000009,None,83.75050400000009,None,86.08295354000002,None,86.08295354000002,None,86.08295354000002,None,,,,,,,,,,,204,24,Male,2022-04-27_13h15.44.284,Main,2022.1.1,60.005532510093005,
negative,negative,2,j,l,,,,,0,1,1,9,,,,,,,,,,,,,,,,,,,,,,,,,,,,prac,1,1,2,negative,negative,j,j,1,0.9626225000001796,86.12095690000024,87.13913440000033,87.10195650000014,None,86.12095690000024,None,86.12095690000024,None,86.12095690000024,None,88.04649364000007,None,88.04649364000007,None,88.04649364000007,None,,,,,,,,,,,204,24,Male,2022-04-27_13h15.44.284,Main,2022.1.1,60.005532510093005,
neutral,positive,1,k,k,,,,,0,2,2,4,,,,,,,,,,,,,,,,,,,,,,,,,,,,prac,2,2,1,positive,neutral,k,k,1,0.7982426999997188,88.09154650000028,89.09355310000001,89.07521980000001,None,88.09154650000028,None,88.09154650000028,None,88.09154650000028,None,89.8448109400003,None,89.8448109400003,None,89.8448109400003,None,,,,,,,,,,,204,24,Male,2022-04-27_13h15.44.284,Main,2022.1.1,60.005532510093005,
neutral,neutral,1,k,k,,,,,0,3,3,1,,,,,,,,,,,,,,,,,,,,,,,,,,,,prac,2,2,1,neutral,neutral,k,k,1,0.6352366000000984,89.8724043000002,90.87461070000018,90.8560322000003,None,89.8724043000002,None,89.8724043000002,None,89.8724043000002,None,91.48477964000013,None,91.48477964000013,None,91.48477964000013,None,,,,,,,,,,,204,24,Male,2022-04-27_13h15.44.284,Main,2022.1.1,60.005532510093005,
positive,positive,2,l,j,,,,,0,4,4,11,,,,,,,,,,,,,,,,,,,,,,,,,,,,prac,1,1,2,positive,positive,l,l,1,0.74243529999967,91.52287500000011,92.53190280000035,92.49359800000002,None,91.52287500000011,None,91.52287500000011,None,91.52287500000011,None,93.22806364000026,None,93.22806364000026,None,93.22806364000026,None,,,,,,,,,,,204,24,Male,2022-04-27_13h15.44.284,Main,2022.1.1,60.005532510093005,
neutral,positive,2,k,k,,,,,0,5,5,13,,,,,,,,,,,,,,,,,,,,,,,,,,,,prac,2,2,2,positive,neutral,k,k,1,0.8270858999999291,93.27217969999992,94.2804771000001,94.24242980000008,None,93.27217969999992,None,93.27217969999992,None,93.27217969999992,None,95.0592696400001,None,95.0592696400001,None,95.0592696400001,None,,,,,,,,,,,204,24,Male,2022-04-27_13h15.44.284,Main,2022.1.1,60.005532510093005,
positive,positive,1,l,j,,,,,0,6,6,2,,,,,,,,,,,,,,,,,,,,,,,,,,,,prac,2,2,1,positive,positive,l,l,1,0.8721462999997129,95.07877189999999,96.09767170000032,96.05945070000007,None,95.07877189999999,None,95.07877189999999,None,95.07877189999999,None,96.93421884000027,None,96.93421884000027,None,96.93421884000027,None,,,,,,,,,,,204,24,Male,2022-04-27_13h15.44.284,Main,2022.1.1,60.005532510093005,
negative,positive,1,j,l,,,,,0,7,7,6,,,,,,,,,,,,,,,,,,,,,,,,,,,,prac,2,2,1,positive,negative,j,j,1,0.7823495999996339,96.95768360000011,97.98476930000015,97.9375871000002,None,96.95768360000011,None,96.95768360000011,None,96.95768360000011,None,98.71821614000028,None,98.71821614000028,None,98.71821614000028,None,,,,,,,,,,,204,24,Male,2022-04-27_13h15.44.284,Main,2022.1.1,60.005532510093005,
positive,neutral,2,l,j,,,,,0,8,8,17,,,,,,,,,,,,,,,,,,,,,,,,,,,,prac,2,2,2,neutral,positive,l,j,0,0.8671739999999772,98.75473800000009,99.77247820000002,99.73367640000015,None,98.75473800000009,None,98.75473800000009,None,98.75473800000009,None,100.61233260000017,None,100.61233260000017,None,100.61233260000017,None,,,,,,,,,,,204,24,Male,2022-04-27_13h15.44.284,Main,2022.1.1,60.005532510093005,
negative,neutral,2,j,l,,,,,0,9,9,12,,,,,,,,,,,,,,,,,,,,,,,,,,,,prac,2,2,2,neutral,negative,j,j,1,0.7858037000000877,101.64000460000034,102.6597839000001,102.62140399999998,None,101.64000460000034,None,101.64000460000034,None,101.64000460000034,None,103.39407593999995,None,103.39407593999995,None,103.39407593999995,None,,,,,,,,,,,204,24,Male,2022-04-27_13h15.44.284,Main,2022.1.1,60.005532510093005,
neutral,negative,2,k,k,,,,,0,10,10,16,,,,,,,,,,,,,,,,,,,,,,,,,,,,prac,2,2,2,negative,neutral,k,k,1,0.6645223000000442,103.42571520000001,104.44549000000006,104.42511520000016,None,103.42571520000001,None,103.42571520000001,None,103.42571520000001,None,105.06286594000012,None,105.06286594000012,None,105.06286594000012,None,,,,,,,,,,,204,24,Male,2022-04-27_13h15.44.284,Main,2022.1.1,60.005532510093005,
negative,neutral,1,j,l,,,,,0,11,11,3,,,,,,,,,,,,,,,,,,,,,,,,,,,,prac,2,2,1,neutral,negative,j,j,1,0.6320227999999588,105.08238230000006,106.09789140000021,106.05949809999993,None,105.08238230000006,None,105.08238230000006,None,105.08238230000006,None,106.69697804000016,None,106.69697804000016,None,106.69697804000016,None,,,,,,,,,,,204,24,Male,2022-04-27_13h15.44.284,Main,2022.1.1,60.005532510093005,
negative,positive,2,j,l,,,,,0,12,12,15,,,,,,,,,,,,,,,,,,,,,,,,,,,,prac,2,2,2,positive,negative,j,j,1,0.7320733999999902,106.71920090000003,107.73283059999994,107.69423000000006,None,106.71920090000003,None,106.71920090000003,None,106.71920090000003,None,108.43131184000022,None,108.43131184000022,None,108.43131184000022,None,,,,,,,,,,,204,24,Male,2022-04-27_13h15.44.284,Main,2022.1.1,60.005532510093005,
positive,negative,1,l,j,,,,,0,13,13,5,,,,,,,,,,,,,,,,,,,,,,,,,,,,prac,1,1,1,negative,positive,l,l,1,0.6729348999997455,108.47296110000025,109.48574869999993,109.4464482000003,None,108.47296110000025,None,108.47296110000025,None,108.47296110000025,None,110.10590034000025,None,110.10590034000025,None,110.10590034000025,None,,,,,,,,,,,204,24,Male,2022-04-27_13h15.44.284,Main,2022.1.1,60.005532510093005,
neutral,neutral,2,k,k,,,,,0,14,14,10,,,,,,,,,,,,,,,,,,,,,,,,,,,,prac,1,1,2,neutral,neutral,k,k,1,0.6465901000001395,110.14325360000021,111.15946200000008,111.12161270000024,None,110.14325360000021,None,110.14325360000021,None,110.14325360000021,None,111.75637204000004,None,111.75637204000004,None,111.75637204000004,None,,,,,,,,,,,204,24,Male,2022-04-27_13h15.44.284,Main,2022.1.1,60.005532510093005,
neutral,negative,1,k,k,,,,,0,15,15,7,,,,,,,,,,,,,,,,,,,,,,,,,,,,prac,1,1,1,negative,neutral,k,k,1,0.7492973999997048,111.78842209999993,112.79527619999999,112.77640420000034,None,111.78842209999993,None,111.78842209999993,None,111.78842209999993,None,113.50828874000008,None,113.50828874000008,None,113.50828874000008,None,,,,,,,,,,,204,24,Male,2022-04-27_13h15.44.284,Main,2022.1.1,60.005532510093005,
positive,neutral,1,l,j,,,,,0,16,16,8,,,,,,,,,,,,,,,,,,,,,,,,,,,,prac,2,2,1,neutral,positive,l,l,1,1.291486800000257,113.53020620000007,114.54861030000029,114.51028080000015,None,113.53020620000007,None,113.53020620000007,None,113.53020620000007,None,115.80224804000018,None,115.80224804000018,None,115.80224804000018,None,,,,,,,,,,,204,24,Male,2022-04-27_13h15.44.284,Main,2022.1.1,60.005532510093005,
positive,negative,2,l,j,,,,,0,17,17,14,,,,,,,,,,,,,,,,,,,,,,,,,,,,prac,2,2,2,negative,positive,l,l,1,0.5768918000003396,115.82393930000035,116.84118200000012,116.80382360000021,None,115.82393930000035,None,115.82393930000035,None,115.82393930000035,None,117.38448214,None,117.38448214,None,117.38448214,None,,,,,,,,,,,204,24,Male,2022-04-27_13h15.44.284,Main,2022.1.1,60.005532510093005,
positive,negative,2,l,j,,,,,1,0,18,14,,,,,,,,,,,,,,,,,,,,,,,,,,,,prac,1,1,2,negative,positive,l,l,1,0.6429290000000947,117.40475130000004,118.41471619999993,118.37768340000002,None,117.40475130000004,None,117.40475130000004,None,117.40475130000004,None,119.03145924000019,None,119.03145924000019,None,119.03145924000019,None,,,,,,,,,,,204,24,Male,2022-04-27_13h15.44.284,Main,2022.1.1,60.005532510093005,
positive,neutral,2,l,j,,,,,1,1,19,17,,,,,,,,,,,,,,,,,,,,,,,,,,,,prac,2,2,2,neutral,positive,l,l,1,0.6055388999998286,119.05427379999992,120.05769190000001,120.03851110000005,None,119.05427379999992,None,119.05427379999992,None,119.05427379999992,None,120.6374577399999,None,120.6374577399999,None,120.6374577399999,None,,,,,,,,,,,204,24,Male,2022-04-27_13h15.44.284,Main,2022.1.1,60.005532510093005,
positive,positive,2,l,j,,,,,1,2,20,11,,,,,,,,,,,,,,,,,,,,,,,,,,,,prac,2,2,2,positive,positive,l,l,1,0.5853395000003729,120.65860770000018,121.67763940000032,121.6397651000002,None,120.65860770000018,None,120.65860770000018,None,120.65860770000018,None,122.2238566400003,None,122.2238566400003,None,122.2238566400003,None,,,,,,,,,,,204,24,Male,2022-04-27_13h15.44.284,Main,2022.1.1,60.005532510093005,
negative,negative,1,j,l,,,,,1,3,21,0,,,,,,,,,,,,,,,,,,,,,,,,,,,,prac,2,2,1,negative,negative,j,j,1,0.527490200000102,122.2469487000003,123.26741260000017,123.2284238000002,None,122.2469487000003,None,122.2469487000003,None,122.2469487000003,None,123.7548065400003,None,123.7548065400003,None,123.7548065400003,None,,,,,,,,,,,204,24,Male,2022-04-27_13h15.44.284,Main,2022.1.1,60.005532510093005,
neutral,negative,2,k,k,,,,,1,4,22,16,,,,,,,,,,,,,,,,,,,,,,,,,,,,prac,2,2,2,negative,neutral,k,k,1,0.6251490999998168,123.7749374,124.78799270000036,124.76939510000011,None,123.7749374,None,123.7749374,None,123.7749374,None,125.3838648400003,None,125.3838648400003,None,125.3838648400003,None,,,,,,,,,,,204,24,Male,2022-04-27_13h15.44.284,Main,2022.1.1,60.005532510093005,
negative,positive,2,j,l,,,,,1,5,23,15,,,,,,,,,,,,,,,,,,,,,,,,,,,,prac,1,1,2,positive,negative,j,j,1,1.3436145999999098,125.40395890000036,126.41924590000008,126.3802982000002,None,125.40395890000036,None,125.40395890000036,None,125.40395890000036,None,127.73122404000033,None,127.73122404000033,None,127.73122404000033,None,,,,,,,,,,,204,24,Male,2022-04-27_13h15.44.284,Main,2022.1.1,60.005532510093005,
positive,negative,1,l,j,,,,,1,6,24,5,,,,,,,,,,,,,,,,,,,,,,,,,,,,prac,2,2,1,negative,positive,l,l,1,0.828147600000193,127.75317540000015,128.77046659999996,128.7316896000002,None,127.75317540000015,None,127.75317540000015,None,127.75317540000015,None,129.56156874000015,None,129.56156874000015,None,129.56156874000015,None,,,,,,,,,,,204,24,Male,2022-04-27_13h15.44.284,Main,2022.1.1,60.005532510093005,
neutral,neutral,2,k,k,,,,,1,7,25,10,,,,,,,,,,,,,,,,,,,,,,,,,,,,prac,2,2,2,neutral,neutral,k,k,1,0.6830743000000439,129.58567429999994,130.58836010000005,130.56936029999997,None,129.58567429999994,None,129.58567429999994,None,129.58567429999994,None,131.24817944000023,None,131.24817944000023,None,131.24817944000023,None,,,,,,,,,,,204,24,Male,2022-04-27_13h15.44.284,Main,2022.1.1,60.005532510093005,
positive,positive,1,l,j,,,,,1,8,26,2,,,,,,,,,,,,,,,,,,,,,,,,,,,,prac,2,2,1,positive,positive,l,l,1,0.6737781000001632,131.26982530000032,132.28379360000008,132.24460290000025,None,131.26982530000032,None,131.26982530000032,None,131.26982530000032,None,132.92232724000013,None,132.92232724000013,None,132.92232724000013,None,,,,,,,,,,,204,24,Male,2022-04-27_13h15.44.284,Main,2022.1.1,60.005532510093005,
negative,negative,2,j,l,,,,,1,9,27,9,,,,,,,,,,,,,,,,,,,,,,,,,,,,prac,2,2,2,negative,negative,j,j,1,0.6991884999997637,132.94364810000025,133.95285450000029,133.9337717000003,None,132.94364810000025,None,132.94364810000025,None,132.94364810000025,None,134.6241555399999,None,134.6241555399999,None,134.6241555399999,None,,,,,,,,,,,204,24,Male,2022-04-27_13h15.44.284,Main,2022.1.1,60.005532510093005,
negative,positive,1,j,l,,,,,1,10,28,6,,,,,,,,,,,,,,,,,,,,,,,,,,,,prac,1,1,1,positive,negative,j,j,1,0.7108032999999523,134.65684850000025,135.66251250000005,135.64322040000025,None,134.65684850000025,None,134.65684850000025,None,134.65684850000025,None,136.33823574000024,None,136.33823574000024,None,136.33823574000024,None,,,,,,,,,,,204,24,Male,2022-04-27_13h15.44.284,Main,2022.1.1,60.005532510093005,
neutral,negative,1,k,k,,,,,1,11,29,7,,,,,,,,,,,,,,,,,,,,,,,,,,,,prac,2,2,1,negative,neutral,k,k,1,0.7055929000002834,136.36064020000003,137.3704399000003,137.35198130000026,None,136.36064020000003,None,136.36064020000003,None,136.36064020000003,None,138.04918543999992,None,138.04918543999992,None,138.04918543999992,None,,,,,,,,,,,204,24,Male,2022-04-27_13h15.44.284,Main,2022.1.1,60.005532510093005,
neutral,positive,2,k,k,,,,,1,12,30,13,,,,,,,,,,,,,,,,,,,,,,,,,,,,prac,2,2,2,positive,neutral,k,k,1,0.5851471000000856,138.0711612,139.0887885000002,139.05010720000018,None,138.0711612,None,138.0711612,None,138.0711612,None,139.6382267400001,None,139.6382267400001,None,139.6382267400001,None,,,,,,,,,,,204,24,Male,2022-04-27_13h15.44.284,Main,2022.1.1,60.005532510093005,
negative,neutral,1,j,l,,,,,1,13,31,3,,,,,,,,,,,,,,,,,,,,,,,,,,,,prac,2,2,1,neutral,negative,j,j,1,0.6808316999999988,139.6586556000002,140.66727600000013,140.6477734,None,139.6586556000002,None,139.6586556000002,None,139.6586556000002,None,141.32153314000033,None,141.32153314000033,None,141.32153314000033,None,,,,,,,,,,,204,24,Male,2022-04-27_13h15.44.284,Main,2022.1.1,60.005532510093005,
negative,neutral,2,j,l,,,,,1,14,32,12,,,,,,,,,,,,,,,,,,,,,,,,,,,,prac,1,1,2,neutral,negative,j,j,1,0.6354059000000234,141.3417770000001,142.35506590000023,142.31651340000008,None,141.3417770000001,None,141.3417770000001,None,141.3417770000001,None,142.9609977400002,None,142.9609977400002,None,142.9609977400002,None,,,,,,,,,,,204,24,Male,2022-04-27_13h15.44.284,Main,2022.1.1,60.005532510093005,
neutral,neutral,1,k,k,,,,,1,15,33,1,,,,,,,,,,,,,,,,,,,,,,,,,,,,prac,1,1,1,neutral,neutral,k,k,1,0.6392243000000235,142.99631150000005,144.00182799999993,143.98364230000016,None,142.99631150000005,None,142.99631150000005,None,142.99631150000005,None,144.60048324000007,None,144.60048324000007,None,144.60048324000007,None,,,,,,,,,,,204,24,Male,2022-04-27_13h15.44.284,Main,2022.1.1,60.005532510093005,
neutral,positive,1,k,k,,,,,1,16,34,4,,,,,,,,,,,,,,,,,,,,,,,,,,,,prac,2,2,1,positive,neutral,k,k,1,0.6864342999997461,144.6215090999999,145.63042859999996,145.61088020000034,None,144.6215090999999,None,144.6215090999999,None,144.6215090999999,None,146.28892534000005,None,146.28892534000005,None,146.28892534000005,None,,,,,,,,,,,204,24,Male,2022-04-27_13h15.44.284,Main,2022.1.1,60.005532510093005,
positive,neutral,1,l,j,,,,,1,17,35,8,,,,,,,,,,,,,,,,,,,,,,,,,,,,prac,2,2,1,neutral,positive,l,l,1,0.7539940000001479,146.31346190000022,147.33077760000015,147.29204419999996,None,146.31346190000022,None,146.31346190000022,None,146.31346190000022,None,148.0469376400003,None,148.0469376400003,None,148.0469376400003,None,,,,,,,,,,,204,24,Male,2022-04-27_13h15.44.284,Main,2022.1.1,60.005532510093005,
,,,,,,,,,,,,,,,,,,,,,,,,,,,,,,,,,,,,,,,,,,,,,,,,,,,,,,,,,,,,,,,,,,148.05282720000014,None,None,,,,,,,,204,24,Male,2022-04-27_13h15.44.284,Main,2022.1.1,60.005532510093005,
,,,,,,,,,,,,,,,,,,,,,,,,,,,,,,,,,,,,,,,,,,,,,,,,,,,,,,,,,,,,,,,,,,,,,0.04074074,-0.06574074,1,0,0,0.006233239999801299,None,204,24,Male,2022-04-27_13h15.44.284,Main,2022.1.1,60.005532510093005,
positive,neutral,1,l,j,,,,,,,,,0,0,0,8,,,,,,,,,,,,,,,,,,,,,,159.05969540000024,None,main,2,2,1,neutral,positive,l,l,1,0.8931394000001092,161.08252119999997,162.10180500000024,162.06217180000021,None,161.08252119999997,None,161.08252119999997,None,161.08252119999997,None,162.95081954000005,None,162.95081954000005,None,162.95081954000005,None,,,,,,,,,,,204,24,Male,2022-04-27_13h15.44.284,Main,2022.1.1,60.005532510093005,
positive,positive,2,l,j,,,,,,,,,0,1,1,11,,,,,,,,,,,,,,,,,,,,,,,,main,1,1,2,positive,positive,l,l,1,0.6997480999998515,162.97950919999994,164.00039719999995,163.96140289999994,None,162.97950919999994,None,162.97950919999994,None,162.97950919999994,None,164.65589214000028,None,164.65589214000028,None,164.65589214000028,None,,,,,,,,,,,204,24,Male,2022-04-27_13h15.44.284,Main,2022.1.1,60.005532510093005,
positive,negative,2,l,j,,,,,,,,,0,2,2,14,,,,,,,,,,,,,,,,,,,,,,,,main,2,2,2,negative,positive,l,l,1,0.6435437999998612,164.6773221000003,165.68374900000026,165.66460589999997,None,164.6773221000003,None,164.6773221000003,None,164.6773221000003,None,166.30141434000024,None,166.30141434000024,None,166.30141434000024,None,,,,,,,,,,,204,24,Male,2022-04-27_13h15.44.284,Main,2022.1.1,60.005532510093005,
negative,positive,1,j,l,,,,,,,,,0,3,3,6,,,,,,,,,,,,,,,,,,,,,,,,main,1,1,1,positive,negative,j,j,1,0.6966544000001704,166.3285407000003,167.34722710000005,167.3083575999999,None,166.3285407000003,None,166.3285407000003,None,166.3285407000003,None,168.00085054000027,None,168.00085054000027,None,168.00085054000027,None,,,,,,,,,,,204,24,Male,2022-04-27_13h15.44.284,Main,2022.1.1,60.005532510093005,
negative,neutral,1,j,l,,,,,,,,,0,4,4,3,,,,,,,,,,,,,,,,,,,,,,,,main,1,1,1,neutral,negative,j,j,1,0.6093656000002738,168.02237719999994,169.0336467000002,169.0134462000001,None,168.02237719999994,None,168.02237719999994,None,168.02237719999994,None,169.61403953999996,None,169.61403953999996,None,169.61403953999996,None,,,,,,,,,,,204,24,Male,2022-04-27_13h15.44.284,Main,2022.1.1,60.005532510093005,
positive,neutral,2,l,j,,,,,,,,,0,5,5,17,,,,,,,,,,,,,,,,,,,,,,,,main,2,2,2,neutral,positive,l,l,1,0.7713423000000148,169.63668069999994,170.6536599000001,170.61559979999993,None,169.63668069999994,None,169.63668069999994,None,169.63668069999994,None,171.38999794,None,171.38999794,None,171.38999794,None,,,,,,,,,,,204,24,Male,2022-04-27_13h15.44.284,Main,2022.1.1,60.005532510093005,
negative,neutral,2,j,l,,,,,,,,,0,6,6,12,,,,,,,,,,,,,,,,,,,,,,,,main,2,2,2,neutral,negative,j,j,1,0.7880353000000468,171.4124565000002,172.4249995,172.40549349999992,None,171.4124565000002,None,171.4124565000002,None,171.4124565000002,None,173.18009634000026,None,173.18009634000026,None,173.18009634000026,None,,,,,,,,,,,204,24,Male,2022-04-27_13h15.44.284,Main,2022.1.1,60.005532510093005,
neutral,negative,2,k,k,,,,,,,,,0,7,7,16,,,,,,,,,,,,,,,,,,,,,,,,main,2,2,2,negative,neutral,k,k,1,0.5594127999997909,173.20120050000014,174.2213068000001,174.1814244000002,None,173.20120050000014,None,173.20120050000014,None,173.20120050000014,None,174.7438059400003,None,174.7438059400003,None,174.7438059400003,None,,,,,,,,,,,204,24,Male,2022-04-27_13h15.44.284,Main,2022.1.1,60.005532510093005,
neutral,neutral,2,k,k,,,,,,,,,0,8,8,10,,,,,,,,,,,,,,,,,,,,,,,,main,2,2,2,neutral,neutral,k,k,1,0.5250338000000738,174.76586550000002,175.7676953,175.74836030000006,None,174.76586550000002,None,174.76586550000002,None,174.76586550000002,None,176.2731417400002,None,176.2731417400002,None,176.2731417400002,None,,,,,,,,,,,204,24,Male,2022-04-27_13h15.44.284,Main,2022.1.1,60.005532510093005,
positive,negative,1,l,j,,,,,,,,,0,9,9,5,,,,,,,,,,,,,,,,,,,,,,,,main,2,2,1,negative,positive,l,l,1,0.78373240000019,176.2933653,177.3016874,177.28111059999992,None,176.2933653,None,176.2933653,None,176.2933653,None,178.05952464,None,178.05952464,None,178.05952464,None,,,,,,,,,,,204,24,Male,2022-04-27_13h15.44.284,Main,2022.1.1,60.005532510093005,
negative,positive,2,j,l,,,,,,,,,0,10,10,15,,,,,,,,,,,,,,,,,,,,,,,,main,2,2,2,positive,negative,j,j,1,0.7266300999999658,178.0828005000003,179.09554190000017,179.05714209999996,None,178.0828005000003,None,178.0828005000003,None,178.0828005000003,None,179.79166544000026,None,179.79166544000026,None,179.79166544000026,None,,,,,,,,,,,204,24,Male,2022-04-27_13h15.44.284,Main,2022.1.1,60.005532510093005,
neutral,positive,1,k,k,,,,,,,,,0,11,11,4,,,,,,,,,,,,,,,,,,,,,,,,main,2,2,1,positive,neutral,k,k,1,0.6570267000001877,179.81343190000007,180.83097130000033,180.79271370000015,None,179.81343190000007,None,179.81343190000007,None,179.81343190000007,None,181.44918544,None,181.44918544,None,181.44918544,None,,,,,,,,,,,204,24,Male,2022-04-27_13h15.44.284,Main,2022.1.1,60.005532510093005,
neutral,neutral,1,k,k,,,,,,,,,0,12,12,1,,,,,,,,,,,,,,,,,,,,,,,,main,1,1,1,neutral,neutral,k,k,1,0.6414282999999159,181.46980510000003,182.47945310000023,182.44285450000007,None,181.46980510000003,None,181.46980510000003,None,181.46980510000003,None,183.09428894,None,183.09428894,None,183.09428894,None,,,,,,,,,,,204,24,Male,2022-04-27_13h15.44.284,Main,2022.1.1,60.005532510093005,
neutral,positive,2,k,k,,,,,,,,,0,13,13,13,,,,,,,,,,,,,,,,,,,,,,,,main,2,2,2,positive,neutral,k,k,1,0.5915795999999318,183.11528780000026,184.12732080000023,184.10696270000017,None,183.11528780000026,None,183.11528780000026,None,183.11528780000026,None,184.6890115400003,None,184.6890115400003,None,184.6890115400003,None,,,,,,,,,,,204,24,Male,2022-04-27_13h15.44.284,Main,2022.1.1,60.005532510093005,
negative,negative,1,j,l,,,,,,,,,0,14,14,0,,,,,,,,,,,,,,,,,,,,,,,,main,2,2,1,negative,negative,j,j,1,0.7041224999998121,184.71046730000035,185.7180788999999,185.69913570000017,None,184.71046730000035,None,184.71046730000035,None,184.71046730000035,None,186.39568714000023,None,186.39568714000023,None,186.39568714000023,None,,,,,,,,,,,204,24,Male,2022-04-27_13h15.44.284,Main,2022.1.1,60.005532510093005,
neutral,negative,1,k,k,,,,,,,,,0,15,15,7,,,,,,,,,,,,,,,,,,,,,,,,main,1,1,1,negative,neutral,k,k,1,0.6057709000001523,186.4157567000002,187.42506570000023,187.40522770000007,None,186.4157567000002,None,186.4157567000002,None,186.4157567000002,None,188.00507104000025,None,188.00507104000025,None,188.00507104000025,None,,,,,,,,,,,204,24,Male,2022-04-27_13h15.44.284,Main,2022.1.1,60.005532510093005,
positive,positive,1,l,j,,,,,,,,,0,16,16,2,,,,,,,,,,,,,,,,,,,,,,,,main,2,2,1,positive,positive,l,l,1,0.6411626999997679,188.02800290000005,189.0474352000001,189.00833740000007,None,188.02800290000005,None,188.02800290000005,None,188.02800290000005,None,189.6467778400003,None,189.6467778400003,None,189.6467778400003,None,,,,,,,,,,,204,24,Male,2022-04-27_13h15.44.284,Main,2022.1.1,60.005532510093005,
negative,negative,2,j,l,,,,,,,,,0,17,17,9,,,,,,,,,,,,,,,,,,,,,,,,main,1,1,2,negative,negative,j,j,1,0.651268600000094,189.6687654000002,190.6721709000003,190.65237320000006,None,189.6687654000002,None,189.6687654000002,None,189.6687654000002,None,191.30273514000027,None,191.30273514000027,None,191.30273514000027,None,,,,,,,,,,,204,24,Male,2022-04-27_13h15.44.284,Main,2022.1.1,60.005532510093005,
negative,negative,1,j,l,,,,,,,,,1,0,18,0,,,,,,,,,,,,,,,,,,,,,,,,main,1,1,1,negative,negative,j,j,1,0.6407756999997218,191.32315530000005,192.34254790000023,192.3029649,None,191.32315530000005,None,191.32315530000005,None,191.32315530000005,None,192.94404604000027,None,192.94404604000027,None,192.94404604000027,None,,,,,,,,,,,204,24,Male,2022-04-27_13h15.44.284,Main,2022.1.1,60.005532510093005,
neutral,neutral,2,k,k,,,,,,,,,1,1,19,10,,,,,,,,,,,,,,,,,,,,,,,,main,2,2,2,neutral,neutral,k,k,1,0.6467434999999568,192.96512180000036,193.9808753000002,193.94358710000006,None,192.96512180000036,None,192.96512180000036,None,192.96512180000036,None,194.59361094000013,None,194.59361094000013,None,194.59361094000013,None,,,,,,,,,,,204,24,Male,2022-04-27_13h15.44.284,Main,2022.1.1,60.005532510093005,
positive,negative,1,l,j,,,,,,,,,1,2,20,5,,,,,,,,,,,,,,,,,,,,,,,,main,2,2,1,negative,positive,l,l,1,0.7166995000002316,194.61534729999994,195.61851220000017,195.59949099999994,None,194.61534729999994,None,194.61534729999994,None,194.61534729999994,None,196.31265114000024,None,196.31265114000024,None,196.31265114000024,None,,,,,,,,,,,204,24,Male,2022-04-27_13h15.44.284,Main,2022.1.1,60.005532510093005,
neutral,positive,1,k,k,,,,,,,,,1,3,21,4,,,,,,,,,,,,,,,,,,,,,,,,main,1,1,1,positive,neutral,k,k,1,0.7057850999999573,196.33468650000032,197.35018400000035,197.31199460000016,None,196.33468650000032,None,196.33468650000032,None,196.33468650000032,None,198.02334084000012,None,198.02334084000012,None,198.02334084000012,None,,,,,,,,,,,204,24,Male,2022-04-27_13h15.44.284,Main,2022.1.1,60.005532510093005,
positive,positive,1,l,j,,,,,,,,,1,4,22,2,,,,,,,,,,,,,,,,,,,,,,,,main,1,1,1,positive,positive,l,l,1,1.260402299999896,198.04410150000012,199.05556100000013,199.01702130000012,None,198.04410150000012,None,198.04410150000012,None,198.04410150000012,None,200.28634673999994,None,200.28634673999994,None,200.28634673999994,None,,,,,,,,,,,204,24,Male,2022-04-27_13h15.44.284,Main,2022.1.1,60.005532510093005,
positive,neutral,2,l,j,,,,,,,,,1,5,23,17,,,,,,,,,,,,,,,,,,,,,,,,main,1,1,2,neutral,positive,l,l,1,0.6253288999996585,200.30649100000028,201.31757560000005,201.2791341000002,None,200.30649100000028,None,200.30649100000028,None,200.30649100000028,None,201.91250873999996,None,201.91250873999996,None,201.91250873999996,None,,,,,,,,,,,204,24,Male,2022-04-27_13h15.44.284,Main,2022.1.1,60.005532510093005,
negative,positive,2,j,l,,,,,,,,,1,6,24,15,,,,,,,,,,,,,,,,,,,,,,,,main,1,1,2,positive,negative,j,j,1,0.6300992999999835,201.93299270000034,202.94667010000012,202.90808229999993,None,201.93299270000034,None,201.93299270000034,None,201.93299270000034,None,203.54510253999996,None,203.54510253999996,None,203.54510253999996,None,,,,,,,,,,,204,24,Male,2022-04-27_13h15.44.284,Main,2022.1.1,60.005532510093005,
positive,positive,2,l,j,,,,,,,,,1,7,25,11,,,,,,,,,,,,,,,,,,,,,,,,main,1,1,2,positive,positive,l,l,1,0.667732899999919,203.56587420000005,204.57885010000018,204.54098810000005,None,203.56587420000005,None,203.56587420000005,None,203.56587420000005,None,205.21710244000013,None,205.21710244000013,None,205.21710244000013,None,,,,,,,,,,,204,24,Male,2022-04-27_13h15.44.284,Main,2022.1.1,60.005532510093005,
positive,neutral,1,l,j,,,,,,,,,1,8,26,8,,,,,,,,,,,,,,,,,,,,,,,,main,1,1,1,neutral,positive,l,l,1,0.7892886999998154,205.2372651999999,206.24198350000006,206.22259299999996,None,205.2372651999999,None,205.2372651999999,None,205.2372651999999,None,207.00830274000026,None,207.00830274000026,None,207.00830274000026,None,,,,,,,,,,,204,24,Male,2022-04-27_13h15.44.284,Main,2022.1.1,60.005532510093005,
neutral,positive,2,k,k,,,,,,,,,1,9,27,13,,,,,,,,,,,,,,,,,,,,,,,,main,2,2,2,positive,neutral,k,k,1,0.6600612000002002,207.03082339999992,208.05024030000004,208.01161270000011,None,207.03082339999992,None,207.03082339999992,None,207.03082339999992,None,208.67214213999995,None,208.67214213999995,None,208.67214213999995,None,,,,,,,,,,,204,24,Male,2022-04-27_13h15.44.284,Main,2022.1.1,60.005532510093005,
negative,neutral,2,j,l,,,,,,,,,1,10,28,12,,,,,,,,,,,,,,,,,,,,,,,,main,2,2,2,neutral,negative,j,j,1,0.7580843999999161,208.69308390000015,209.69922720000022,209.6801015000001,None,208.69308390000015,None,208.69308390000015,None,208.69308390000015,None,210.4350684400003,None,210.4350684400003,None,210.4350684400003,None,,,,,,,,,,,204,24,Male,2022-04-27_13h15.44.284,Main,2022.1.1,60.005532510093005,
negative,negative,2,j,l,,,,,,,,,1,11,29,9,,,,,,,,,,,,,,,,,,,,,,,,main,2,2,2,negative,negative,j,j,1,0.5920949999999721,210.45852530000002,211.46998150000036,211.4314333000002,None,210.45852530000002,None,210.45852530000002,None,210.45852530000002,None,212.0278128400002,None,212.0278128400002,None,212.0278128400002,None,,,,,,,,,,,204,24,Male,2022-04-27_13h15.44.284,Main,2022.1.1,60.005532510093005,
positive,negative,2,l,j,,,,,,,,,1,12,30,14,,,,,,,,,,,,,,,,,,,,,,,,main,1,1,2,negative,positive,l,l,1,0.7641539999999623,212.04868050000005,213.06530599999996,213.0261773000002,None,212.04868050000005,None,212.04868050000005,None,212.04868050000005,None,213.7950081400001,None,213.7950081400001,None,213.7950081400001,None,,,,,,,,,,,204,24,Male,2022-04-27_13h15.44.284,Main,2022.1.1,60.005532510093005,
negative,positive,1,j,l,,,,,,,,,1,13,31,6,,,,,,,,,,,,,,,,,,,,,,,,main,1,1,1,positive,negative,j,j,1,0.6601115000003119,213.81624899999997,214.8333130000001,214.79468880000013,None,213.81624899999997,None,213.81624899999997,None,213.81624899999997,None,215.45777104000007,None,215.45777104000007,None,215.45777104000007,None,,,,,,,,,,,204,24,Male,2022-04-27_13h15.44.284,Main,2022.1.1,60.005532510093005,
neutral,negative,2,k,k,,,,,,,,,1,14,32,16,,,,,,,,,,,,,,,,,,,,,,,,main,2,2,2,negative,neutral,k,k,1,0.7405006000003596,215.48007869999992,216.4905401000001,216.4718329000002,None,215.48007869999992,None,215.48007869999992,None,215.48007869999992,None,217.2029232400002,None,217.2029232400002,None,217.2029232400002,None,,,,,,,,,,,204,24,Male,2022-04-27_13h15.44.284,Main,2022.1.1,60.005532510093005,
neutral,neutral,1,k,k,,,,,,,,,1,15,33,1,,,,,,,,,,,,,,,,,,,,,,,,main,2,2,1,neutral,neutral,k,k,1,0.7307111999998597,217.22325610000007,218.23621709999998,218.19803460000003,None,217.22325610000007,None,217.22325610000007,None,217.22325610000007,None,218.93613243999988,None,218.93613243999988,None,218.93613243999988,None,,,,,,,,,,,204,24,Male,2022-04-27_13h15.44.284,Main,2022.1.1,60.005532510093005,
negative,neutral,1,j,l,,,,,,,,,1,16,34,3,,,,,,,,,,,,,,,,,,,,,,,,main,2,2,1,neutral,negative,j,j,1,0.7974755999998706,218.95753980000018,219.96226250000018,219.9434736000003,None,218.95753980000018,None,218.95753980000018,None,218.95753980000018,None,220.73579854000008,None,220.73579854000008,None,220.73579854000008,None,,,,,,,,,,,204,24,Male,2022-04-27_13h15.44.284,Main,2022.1.1,60.005532510093005,
neutral,negative,1,k,k,,,,,,,,,1,17,35,7,,,,,,,,,,,,,,,,,,,,,,,,main,1,1,1,negative,neutral,k,k,1,0.7687998999999763,220.75664589999997,221.77267810000012,221.73237240000026,None,220.75664589999997,None,220.75664589999997,None,220.75664589999997,None,222.50635763999998,None,222.50635763999998,None,222.50635763999998,None,,,,,,,,,,,204,24,Male,2022-04-27_13h15.44.284,Main,2022.1.1,60.005532510093005,
positive,neutral,1,l,j,,,,,,,,,2,0,36,8,,,,,,,,,,,,,,,,,,,,,,,,main,2,2,1,neutral,positive,l,l,1,0.6977234999999382,222.52698950000013,223.52911740000036,223.50996410000016,None,222.52698950000013,None,222.52698950000013,None,222.52698950000013,None,224.2066992400002,None,224.2066992400002,None,224.2066992400002,None,,,,,,,,,,,204,24,Male,2022-04-27_13h15.44.284,Main,2022.1.1,60.005532510093005,
neutral,negative,2,k,k,,,,,,,,,2,1,37,16,,,,,,,,,,,,,,,,,,,,,,,,main,1,1,2,negative,neutral,k,k,1,0.6698439000001599,224.2273723000003,225.24385740000025,225.20606369999996,None,224.2273723000003,None,224.2273723000003,None,224.2273723000003,None,225.87892673999994,None,225.87892673999994,None,225.87892673999994,None,,,,,,,,,,,204,24,Male,2022-04-27_13h15.44.284,Main,2022.1.1,60.005532510093005,
negative,positive,2,j,l,,,,,,,,,2,2,38,15,,,,,,,,,,,,,,,,,,,,,,,,main,1,1,2,positive,negative,j,j,1,0.8330864999998084,225.89987850000034,226.90335700000014,226.88378300000022,None,225.89987850000034,None,225.89987850000034,None,225.89987850000034,None,227.71676814000028,None,227.71676814000028,None,227.71676814000028,None,,,,,,,,,,,204,24,Male,2022-04-27_13h15.44.284,Main,2022.1.1,60.005532510093005,
negative,neutral,2,j,l,,,,,,,,,2,3,39,12,,,,,,,,,,,,,,,,,,,,,,,,main,2,2,2,neutral,negative,j,j,1,0.6241436000000249,227.7395233000002,228.758374,228.72027789999993,None,227.7395233000002,None,227.7395233000002,None,227.7395233000002,None,229.34162344000032,None,229.34162344000032,None,229.34162344000032,None,,,,,,,,,,,204,24,Male,2022-04-27_13h15.44.284,Main,2022.1.1,60.005532510093005,
negative,neutral,1,j,l,,,,,,,,,2,4,40,3,,,,,,,,,,,,,,,,,,,,,,,,main,2,2,1,neutral,negative,j,j,1,0.5354363999999805,229.36401049999995,230.37795940000024,230.339829,None,229.36401049999995,None,229.36401049999995,None,229.36401049999995,None,230.8816014400001,None,230.8816014400001,None,230.8816014400001,None,,,,,,,,,,,204,24,Male,2022-04-27_13h15.44.284,Main,2022.1.1,60.005532510093005,
positive,negative,1,l,j,,,,,,,,,2,5,41,5,,,,,,,,,,,,,,,,,,,,,,,,main,2,2,1,negative,positive,l,l,1,0.8332675999999992,230.9017627000003,231.9219293000001,231.90252469999996,None,230.9017627000003,None,230.9017627000003,None,230.9017627000003,None,232.7168097400001,None,232.7168097400001,None,232.7168097400001,None,,,,,,,,,,,204,24,Male,2022-04-27_13h15.44.284,Main,2022.1.1,60.005532510093005,
positive,negative,2,l,j,,,,,,,,,2,6,42,14,,,,,,,,,,,,,,,,,,,,,,,,main,1,1,2,negative,positive,l,l,1,0.5477617999999893,232.73938530000032,233.75020949999998,233.71181019999995,None,232.73938530000032,None,232.73938530000032,None,232.73938530000032,None,234.2674865400001,None,234.2674865400001,None,234.2674865400001,None,,,,,,,,,,,204,24,Male,2022-04-27_13h15.44.284,Main,2022.1.1,60.005532510093005,
positive,positive,1,l,j,,,,,,,,,2,7,43,2,,,,,,,,,,,,,,,,,,,,,,,,main,1,1,1,positive,positive,l,l,1,1.0933041000002959,234.2867937000001,235.30509759999995,235.26601680000022,None,234.2867937000001,None,234.2867937000001,None,234.2867937000001,None,236.36314394000027,None,236.36314394000027,None,236.36314394000027,None,,,,,,,,,,,204,24,Male,2022-04-27_13h15.44.284,Main,2022.1.1,60.005532510093005,
neutral,positive,2,k,k,,,,,,,,,2,8,44,13,,,,,,,,,,,,,,,,,,,,,,,,main,1,1,2,positive,neutral,k,k,1,0.6305680000000393,236.3850241,237.3961376000002,237.3772309000001,None,236.3850241,None,236.3850241,None,236.3850241,None,237.9953617400003,None,237.9953617400003,None,237.9953617400003,None,,,,,,,,,,,204,24,Male,2022-04-27_13h15.44.284,Main,2022.1.1,60.005532510093005,
negative,positive,1,j,l,,,,,,,,,2,9,45,6,,,,,,,,,,,,,,,,,,,,,,,,main,1,1,1,positive,negative,j,j,1,0.7100743000000875,238.01510550000012,239.03085220000003,238.99388399999998,None,238.01510550000012,None,238.01510550000012,None,238.01510550000012,None,239.70790674000017,None,239.70790674000017,None,239.70790674000017,None,,,,,,,,,,,204,24,Male,2022-04-27_13h15.44.284,Main,2022.1.1,60.005532510093005,
neutral,positive,1,k,k,,,,,,,,,2,10,46,4,,,,,,,,,,,,,,,,,,,,,,,,main,1,1,1,positive,neutral,k,k,1,0.6708724999998594,239.73281080000015,240.74706970000034,240.7098272000003,None,239.73281080000015,None,239.73281080000015,None,239.73281080000015,None,241.38358583999997,None,241.38358583999997,None,241.38358583999997,None,,,,,,,,,,,204,24,Male,2022-04-27_13h15.44.284,Main,2022.1.1,60.005532510093005,
neutral,neutral,1,k,k,,,,,,,,,2,11,47,1,,,,,,,,,,,,,,,,,,,,,,,,main,2,2,1,neutral,neutral,k,k,1,0.5936363000000711,241.40579350000007,242.42204840000022,242.38438859999997,None,241.40579350000007,None,241.40579350000007,None,241.40579350000007,None,242.97979544000026,None,242.97979544000026,None,242.97979544000026,None,,,,,,,,,,,204,24,Male,2022-04-27_13h15.44.284,Main,2022.1.1,60.005532510093005,
negative,negative,2,j,l,,,,,,,,,2,12,48,9,,,,,,,,,,,,,,,,,,,,,,,,main,1,1,2,negative,negative,j,j,1,0.8240114000000176,242.99992939999993,244.00121040000022,243.98246100000006,None,242.99992939999993,None,242.99992939999993,None,242.99992939999993,None,244.80427393999997,None,244.80427393999997,None,244.80427393999997,None,,,,,,,,,,,204,24,Male,2022-04-27_13h15.44.284,Main,2022.1.1,60.005532510093005,
negative,negative,1,j,l,,,,,,,,,2,13,49,0,,,,,,,,,,,,,,,,,,,,,,,,main,1,1,1,negative,negative,j,j,1,0.5489314999999806,244.82525600000008,245.83078710000018,245.81149950000008,None,244.82525600000008,None,244.82525600000008,None,244.82525600000008,None,246.35602044000024,None,246.35602044000024,None,246.35602044000024,None,,,,,,,,,,,204,24,Male,2022-04-27_13h15.44.284,Main,2022.1.1,60.005532510093005,
positive,positive,2,l,j,,,,,,,,,2,14,50,11,,,,,,,,,,,,,,,,,,,,,,,,main,2,2,2,positive,positive,l,l,1,0.7245364999998856,246.37634320000006,247.38217750000013,247.3626466999999,None,246.37634320000006,None,246.37634320000006,None,246.37634320000006,None,248.0846821400002,None,248.0846821400002,None,248.0846821400002,None,,,,,,,,,,,204,24,Male,2022-04-27_13h15.44.284,Main,2022.1.1,60.005532510093005,
neutral,negative,1,k,k,,,,,,,,,2,15,51,7,,,,,,,,,,,,,,,,,,,,,,,,main,2,2,1,negative,neutral,k,k,1,0.6971255000003111,248.10681990000012,249.11065020000024,249.09124800000018,None,248.10681990000012,None,248.10681990000012,None,248.10681990000012,None,249.78598394,None,249.78598394,None,249.78598394,None,,,,,,,,,,,204,24,Male,2022-04-27_13h15.44.284,Main,2022.1.1,60.005532510093005,
neutral,neutral,2,k,k,,,,,,,,,2,16,52,10,,,,,,,,,,,,,,,,,,,,,,,,main,2,2,2,neutral,neutral,k,k,1,0.6111754000003202,249.80798430000004,250.81949940000004,250.7810370000002,None,249.80798430000004,None,249.80798430000004,None,249.80798430000004,None,251.4013658400001,None,251.4013658400001,None,251.4013658400001,None,,,,,,,,,,,204,24,Male,2022-04-27_13h15.44.284,Main,2022.1.1,60.005532510093005,
positive,neutral,2,l,j,,,,,,,,,2,17,53,17,,,,,,,,,,,,,,,,,,,,,,,,main,1,1,2,neutral,positive,l,l,1,0.7175465000000258,251.42363569999998,252.43086630000016,252.41186130000006,None,251.42363569999998,None,251.42363569999998,None,251.42363569999998,None,253.12202294000025,None,253.12202294000025,None,253.12202294000025,None,,,,,,,,,,,204,24,Male,2022-04-27_13h15.44.284,Main,2022.1.1,60.005532510093005,
positive,neutral,1,l,j,,,,,,,,,3,0,54,8,,,,,,,,,,,,,,,,,,,,,,,,main,1,1,1,neutral,positive,l,l,1,0.8899246999999377,253.14324560000023,254.1572145,254.11871180000026,None,253.14324560000023,None,253.14324560000023,None,253.14324560000023,None,255.0167123400003,None,255.0167123400003,None,255.0167123400003,None,,,,,,,,,,,204,24,Male,2022-04-27_13h15.44.284,Main,2022.1.1,60.005532510093005,
neutral,positive,1,k,k,,,,,,,,,3,1,55,4,,,,,,,,,,,,,,,,,,,,,,,,main,1,1,1,positive,neutral,k,k,1,0.5881789000000026,255.03689450000002,256.0522679999999,256.0115842,None,255.03689450000002,None,255.03689450000002,None,255.03689450000002,None,256.60646934000005,None,256.60646934000005,None,256.60646934000005,None,,,,,,,,,,,204,24,Male,2022-04-27_13h15.44.284,Main,2022.1.1,60.005532510093005,
positive,positive,2,l,j,,,,,,,,,3,2,56,11,,,,,,,,,,,,,,,,,,,,,,,,main,2,2,2,positive,positive,l,l,1,0.7046104000000923,256.62933380000004,257.63297120000016,257.6135379000002,None,256.62933380000004,None,256.62933380000004,None,256.62933380000004,None,258.31585414,None,258.31585414,None,258.31585414,None,,,,,,,,,,,204,24,Male,2022-04-27_13h15.44.284,Main,2022.1.1,60.005532510093005,
neutral,positive,2,k,k,,,,,,,,,3,3,57,13,,,,,,,,,,,,,,,,,,,,,,,,main,2,2,2,positive,neutral,k,k,1,0.6691491999999926,258.3381763000002,259.3519142,259.31286309999996,None,258.3381763000002,None,258.3381763000002,None,258.3381763000002,None,259.9889309400002,None,259.9889309400002,None,259.9889309400002,None,,,,,,,,,,,204,24,Male,2022-04-27_13h15.44.284,Main,2022.1.1,60.005532510093005,
negative,negative,1,j,l,,,,,,,,,3,4,58,0,,,,,,,,,,,,,,,,,,,,,,,,main,1,1,1,negative,negative,j,j,1,0.7220864000000802,260.0107336000001,261.02528550000034,260.9896371,None,260.0107336000001,None,260.0107336000001,None,260.0107336000001,None,261.71537344000006,None,261.71537344000006,None,261.71537344000006,None,,,,,,,,,,,204,24,Male,2022-04-27_13h15.44.284,Main,2022.1.1,60.005532510093005,
negative,neutral,2,j,l,,,,,,,,,3,5,59,12,,,,,,,,,,,,,,,,,,,,,,,,main,2,2,2,neutral,negative,j,j,1,0.6889840999997432,261.7374924999999,262.75547700000016,262.71694530000013,None,261.7374924999999,None,261.7374924999999,None,261.7374924999999,None,263.4081977400003,None,263.4081977400003,None,263.4081977400003,None,,,,,,,,,,,204,24,Male,2022-04-27_13h15.44.284,Main,2022.1.1,60.005532510093005,
neutral,negative,1,k,k,,,,,,,,,3,6,60,7,,,,,,,,,,,,,,,,,,,,,,,,main,2,2,1,negative,neutral,k,k,1,0.6542650000001231,263.4291439000003,264.4460073,264.4074221999999,None,263.4291439000003,None,263.4291439000003,None,263.4291439000003,None,265.0668565400003,None,265.0668565400003,None,265.0668565400003,None,,,,,,,,,,,204,24,Male,2022-04-27_13h15.44.284,Main,2022.1.1,60.005532510093005,
negative,negative,2,j,l,,,,,,,,,3,7,61,9,,,,,,,,,,,,,,,,,,,,,,,,main,2,2,2,negative,negative,j,j,1,0.7396450000001096,265.0896183,266.10313110000016,266.06495110000014,None,265.0896183,None,265.0896183,None,265.0896183,None,266.81249743999996,None,266.81249743999996,None,266.81249743999996,None,,,,,,,,,,,204,24,Male,2022-04-27_13h15.44.284,Main,2022.1.1,60.005532510093005,
positive,negative,2,l,j,,,,,,,,,3,8,62,14,,,,,,,,,,,,,,,,,,,,,,,,main,1,1,2,negative,positive,l,l,1,0.7946617000002334,266.83148800000026,267.83822469999996,267.8188746000001,None,266.83148800000026,None,266.83148800000026,None,266.83148800000026,None,268.60899334000004,None,268.60899334000004,None,268.60899334000004,None,,,,,,,,,,,204,24,Male,2022-04-27_13h15.44.284,Main,2022.1.1,60.005532510093005,
neutral,negative,2,k,k,,,,,,,,,3,9,63,16,,,,,,,,,,,,,,,,,,,,,,,,main,1,1,2,negative,neutral,k,k,1,0.6467306999998073,268.63260800000035,269.6409444000001,269.6036287000002,None,268.63260800000035,None,268.63260800000035,None,268.63260800000035,None,270.2588978400001,None,270.2588978400001,None,270.2588978400001,None,,,,,,,,,,,204,24,Male,2022-04-27_13h15.44.284,Main,2022.1.1,60.005532510093005,
neutral,neutral,1,k,k,,,,,,,,,3,10,64,1,,,,,,,,,,,,,,,,,,,,,,,,main,1,1,1,neutral,neutral,k,k,1,0.6957004999999299,270.2781534999999,271.2910816000003,271.2543068,None,270.2781534999999,None,270.2781534999999,None,270.2781534999999,None,271.95506924,None,271.95506924,None,271.95506924,None,,,,,,,,,,,204,24,Male,2022-04-27_13h15.44.284,Main,2022.1.1,60.005532510093005,
positive,positive,1,l,j,,,,,,,,,3,11,65,2,,,,,,,,,,,,,,,,,,,,,,,,main,2,2,1,positive,positive,l,l,1,0.7148686000000453,271.979953,272.99994030000016,272.96101880000015,None,271.979953,None,271.979953,None,271.979953,None,273.6725993400002,None,273.6725993400002,None,273.6725993400002,None,,,,,,,,,,,204,24,Male,2022-04-27_13h15.44.284,Main,2022.1.1,60.005532510093005,
positive,negative,1,l,j,,,,,,,,,3,12,66,5,,,,,,,,,,,,,,,,,,,,,,,,main,1,1,1,negative,positive,l,l,1,0.5985751999996864,273.69624390000035,274.71538260000034,274.6764054,None,273.69624390000035,None,273.69624390000035,None,273.69624390000035,None,275.27524304000025,None,275.27524304000025,None,275.27524304000025,None,,,,,,,,,,,204,24,Male,2022-04-27_13h15.44.284,Main,2022.1.1,60.005532510093005,
negative,positive,1,j,l,,,,,,,,,3,13,67,6,,,,,,,,,,,,,,,,,,,,,,,,main,1,1,1,positive,negative,j,j,1,0.51555529999996,275.2956885000003,276.31467810000004,276.2755947999999,None,275.2956885000003,None,275.2956885000003,None,275.2956885000003,None,276.7934897400002,None,276.7934897400002,None,276.7934897400002,None,,,,,,,,,,,204,24,Male,2022-04-27_13h15.44.284,Main,2022.1.1,60.005532510093005,
negative,positive,2,j,l,,,,,,,,,3,14,68,15,,,,,,,,,,,,,,,,,,,,,,,,main,1,1,2,positive,negative,j,j,1,0.7291224999999031,276.8139355000003,277.8281333,277.79056200000014,None,276.8139355000003,None,276.8139355000003,None,276.8139355000003,None,278.52438894000005,None,278.52438894000005,None,278.52438894000005,None,,,,,,,,,,,204,24,Male,2022-04-27_13h15.44.284,Main,2022.1.1,60.005532510093005,
negative,neutral,1,j,l,,,,,,,,,3,15,69,3,,,,,,,,,,,,,,,,,,,,,,,,main,2,2,1,neutral,negative,j,j,1,0.6243605000004209,278.54947440000024,279.55632890000015,279.5372489000001,None,278.54947440000024,None,278.54947440000024,None,278.54947440000024,None,280.1508849399999,None,280.1508849399999,None,280.1508849399999,None,,,,,,,,,,,204,24,Male,2022-04-27_13h15.44.284,Main,2022.1.1,60.005532510093005,
neutral,neutral,2,k,k,,,,,,,,,3,16,70,10,,,,,,,,,,,,,,,,,,,,,,,,main,2,2,2,neutral,neutral,k,k,1,0.5812538000000131,280.17288540000027,281.1777212000002,281.15893840000035,None,280.17288540000027,None,280.17288540000027,None,280.17288540000027,None,281.73544334000024,None,281.73544334000024,None,281.73544334000024,None,,,,,,,,,,,204,24,Male,2022-04-27_13h15.44.284,Main,2022.1.1,60.005532510093005,
positive,neutral,2,l,j,,,,,,,,,3,17,71,17,,,,,,,,,,,,,,,,,,,,,,,,main,1,1,2,neutral,positive,l,l,1,0.6972400999998172,281.7559805000001,282.7606154,282.7416865,None,281.7559805000001,None,281.7559805000001,None,281.7559805000001,None,283.4347318400002,None,283.4347318400002,None,283.4347318400002,None,,,,,,,,,,,204,24,Male,2022-04-27_13h15.44.284,Main,2022.1.1,60.005532510093005,
negative,neutral,2,j,l,,,,,,,,,4,0,72,12,,,,,,,,,,,,,,,,,,,,,,,,main,2,2,2,neutral,negative,j,j,1,0.7695045999998911,283.4569237999999,284.47473070000024,284.43735970000034,None,283.4569237999999,None,283.4569237999999,None,283.4569237999999,None,285.20863314000025,None,285.20863314000025,None,285.20863314000025,None,,,,,,,,,,,204,24,Male,2022-04-27_13h15.44.284,Main,2022.1.1,60.005532510093005,
neutral,negative,2,k,k,,,,,,,,,4,1,73,16,,,,,,,,,,,,,,,,,,,,,,,,main,2,2,2,negative,neutral,k,k,1,0.662648900000022,285.2287861,286.2402866000002,286.2030568,None,285.2287861,None,285.2287861,None,285.2287861,None,286.87399374000023,None,286.87399374000023,None,286.87399374000023,None,,,,,,,,,,,204,24,Male,2022-04-27_13h15.44.284,Main,2022.1.1,60.005532510093005,
negative,negative,2,j,l,,,,,,,,,4,2,74,9,,,,,,,,,,,,,,,,,,,,,,,,main,2,2,2,negative,negative,j,j,1,0.6808313999999882,286.8944904,287.90125960000023,287.88328230000025,None,286.8944904,None,286.8944904,None,286.8944904,None,288.55717464000026,None,288.55717464000026,None,288.55717464000026,None,,,,,,,,,,,204,24,Male,2022-04-27_13h15.44.284,Main,2022.1.1,60.005532510093005,
negative,positive,2,j,l,,,,,,,,,4,3,75,15,,,,,,,,,,,,,,,,,,,,,,,,main,1,1,2,positive,negative,j,j,1,0.5583354999998846,288.5818631000002,289.5907162000003,289.5534054,None,288.5818631000002,None,288.5818631000002,None,288.5818631000002,None,290.1162960399999,None,290.1162960399999,None,290.1162960399999,None,,,,,,,,,,,204,24,Male,2022-04-27_13h15.44.284,Main,2022.1.1,60.005532510093005,
neutral,neutral,2,k,k,,,,,,,,,4,4,76,10,,,,,,,,,,,,,,,,,,,,,,,,main,1,1,2,neutral,neutral,k,k,1,0.6236251000000266,290.13680980000026,291.14305630000035,291.12265100000013,None,290.13680980000026,None,290.13680980000026,None,290.13680980000026,None,291.74485294000004,None,291.74485294000004,None,291.74485294000004,None,,,,,,,,,,,204,24,Male,2022-04-27_13h15.44.284,Main,2022.1.1,60.005532510093005,
positive,neutral,2,l,j,,,,,,,,,4,5,77,17,,,,,,,,,,,,,,,,,,,,,,,,main,1,1,2,neutral,positive,l,l,1,0.7415218000001005,291.7649402000002,292.7775081,292.7379906000001,None,291.7649402000002,None,291.7649402000002,None,291.7649402000002,None,293.48823034000014,None,293.48823034000014,None,293.48823034000014,None,,,,,,,,,,,204,24,Male,2022-04-27_13h15.44.284,Main,2022.1.1,60.005532510093005,
negative,neutral,1,j,l,,,,,,,,,4,6,78,3,,,,,,,,,,,,,,,,,,,,,,,,main,2,2,1,neutral,negative,j,j,1,0.5719782000001032,293.51223960000016,294.5223699000003,294.4868627999999,None,293.51223960000016,None,293.51223960000016,None,293.51223960000016,None,295.06365464000027,None,295.06365464000027,None,295.06365464000027,None,,,,,,,,,,,204,24,Male,2022-04-27_13h15.44.284,Main,2022.1.1,60.005532510093005,
positive,negative,1,l,j,,,,,,,,,4,7,79,5,,,,,,,,,,,,,,,,,,,,,,,,main,2,2,1,negative,positive,l,l,1,0.7020497000003161,295.0842706000003,296.0874375000003,296.0684798000002,None,295.0842706000003,None,295.0842706000003,None,295.0842706000003,None,296.7679164400003,None,296.7679164400003,None,296.7679164400003,None,,,,,,,,,,,204,24,Male,2022-04-27_13h15.44.284,Main,2022.1.1,60.005532510093005,
neutral,neutral,1,k,k,,,,,,,,,4,8,80,1,,,,,,,,,,,,,,,,,,,,,,,,main,1,1,1,neutral,neutral,k,k,1,0.6551134000001184,296.78818309999997,297.7962153000003,297.77738690000024,None,296.78818309999997,None,296.78818309999997,None,296.78818309999997,None,298.4275027400001,None,298.4275027400001,None,298.4275027400001,None,,,,,,,,,,,204,24,Male,2022-04-27_13h15.44.284,Main,2022.1.1,60.005532510093005,
positive,positive,2,l,j,,,,,,,,,4,9,81,11,,,,,,,,,,,,,,,,,,,,,,,,main,1,1,2,positive,positive,l,l,1,0.6561630999999579,298.44771790000004,299.4662161000001,299.4273608000003,None,298.44771790000004,None,298.44771790000004,None,298.44771790000004,None,300.08449863999994,None,300.08449863999994,None,300.08449863999994,None,,,,,,,,,,,204,24,Male,2022-04-27_13h15.44.284,Main,2022.1.1,60.005532510093005,
negative,positive,1,j,l,,,,,,,,,4,10,82,6,,,,,,,,,,,,,,,,,,,,,,,,main,1,1,1,positive,negative,j,j,1,0.6760051000001113,300.10679690000006,301.12280610000016,301.08461720000014,None,300.10679690000006,None,300.10679690000006,None,300.10679690000006,None,301.76322554000006,None,301.76322554000006,None,301.76322554000006,None,,,,,,,,,,,204,24,Male,2022-04-27_13h15.44.284,Main,2022.1.1,60.005532510093005,
negative,negative,1,j,l,,,,,,,,,4,11,83,0,,,,,,,,,,,,,,,,,,,,,,,,main,1,1,1,negative,negative,j,j,1,0.5484532000000399,301.7856643,302.7910157000001,302.7718119000001,None,301.7856643,None,301.7856643,None,301.7856643,None,303.3151566399999,None,303.3151566399999,None,303.3151566399999,None,,,,,,,,,,,204,24,Male,2022-04-27_13h15.44.284,Main,2022.1.1,60.005532510093005,
neutral,negative,1,k,k,,,,,,,,,4,12,84,7,,,,,,,,,,,,,,,,,,,,,,,,main,1,1,1,negative,neutral,k,k,1,1.0306870999997955,303.33595220000007,304.35199150000017,304.31395980000025,None,303.33595220000007,None,303.33595220000007,None,303.33595220000007,None,305.3488074399999,None,305.3488074399999,None,305.3488074399999,None,,,,,,,,,,,204,24,Male,2022-04-27_13h15.44.284,Main,2022.1.1,60.005532510093005,
neutral,positive,2,k,k,,,,,,,,,4,13,85,13,,,,,,,,,,,,,,,,,,,,,,,,main,2,2,2,positive,neutral,k,k,1,0.63661379999985,305.3705523000003,306.3901363,306.35214110000015,None,305.3705523000003,None,305.3705523000003,None,305.3705523000003,None,306.9896651400001,None,306.9896651400001,None,306.9896651400001,None,,,,,,,,,,,204,24,Male,2022-04-27_13h15.44.284,Main,2022.1.1,60.005532510093005,
neutral,positive,1,k,k,,,,,,,,,4,14,86,4,,,,,,,,,,,,,,,,,,,,,,,,main,2,2,1,positive,neutral,k,k,1,0.6156406000000061,307.0106743000001,308.0292191000003,307.99073190000036,None,307.0106743000001,None,307.0106743000001,None,307.0106743000001,None,308.6078157399999,None,308.6078157399999,None,308.6078157399999,None,,,,,,,,,,,204,24,Male,2022-04-27_13h15.44.284,Main,2022.1.1,60.005532510093005,
positive,neutral,1,l,j,,,,,,,,,4,15,87,8,,,,,,,,,,,,,,,,,,,,,,,,main,1,1,1,neutral,positive,l,l,1,0.7362471999999798,308.62834939999993,309.63551940000025,309.6164388000002,None,308.62834939999993,None,308.62834939999993,None,308.62834939999993,None,310.3445877400001,None,310.3445877400001,None,310.3445877400001,None,,,,,,,,,,,204,24,Male,2022-04-27_13h15.44.284,Main,2022.1.1,60.005532510093005,
positive,positive,1,l,j,,,,,,,,,4,16,88,2,,,,,,,,,,,,,,,,,,,,,,,,main,1,1,1,positive,positive,l,l,1,0.5589992999998685,310.3644273,311.3693092000003,311.34998190000033,None,310.3644273,None,310.3644273,None,310.3644273,None,311.9081998399999,None,311.9081998399999,None,311.9081998399999,None,,,,,,,,,,,204,24,Male,2022-04-27_13h15.44.284,Main,2022.1.1,60.005532510093005,
positive,negative,2,l,j,,,,,,,,,4,17,89,14,,,,,,,,,,,,,,,,,,,,,,,,main,2,2,2,negative,positive,l,l,1,0.6941384000001563,311.92864050000026,312.9477256,312.9088528000002,None,311.92864050000026,None,311.92864050000026,None,311.92864050000026,None,313.60471864000027,None,313.60471864000027,None,313.60471864000027,None,,,,,,,,,,,204,24,Male,2022-04-27_13h15.44.284,Main,2022.1.1,60.005532510093005,
negative,neutral,2,j,l,,,,,,,,,5,0,90,12,,,,,,,,,,,,,,,,,,,,,,,,main,2,2,2,neutral,negative,j,j,1,0.7281023000000459,313.6252185000003,314.64469640000016,314.6037037000001,None,313.6252185000003,None,313.6252185000003,None,313.6252185000003,None,315.33571794000017,None,315.33571794000017,None,315.33571794000017,None,,,,,,,,,,,204,24,Male,2022-04-27_13h15.44.284,Main,2022.1.1,60.005532510093005,
neutral,positive,1,k,k,,,,,,,,,5,1,91,4,,,,,,,,,,,,,,,,,,,,,,,,main,2,2,1,positive,neutral,k,k,1,0.635339599999952,315.35877759999994,316.37510410000004,316.33663160000015,None,315.35877759999994,None,315.35877759999994,None,315.35877759999994,None,316.9733569400002,None,316.9733569400002,None,316.9733569400002,None,,,,,,,,,,,204,24,Male,2022-04-27_13h15.44.284,Main,2022.1.1,60.005532510093005,
neutral,positive,2,k,k,,,,,,,,,5,2,92,13,,,,,,,,,,,,,,,,,,,,,,,,main,2,2,2,positive,neutral,k,k,1,0.6116426999997202,316.99390410000024,318.00689349999993,317.96823170000016,None,316.99390410000024,None,316.99390410000024,None,316.99390410000024,None,318.58718354,None,318.58718354,None,318.58718354,None,,,,,,,,,,,204,24,Male,2022-04-27_13h15.44.284,Main,2022.1.1,60.005532510093005,
positive,negative,1,l,j,,,,,,,,,5,3,93,5,,,,,,,,,,,,,,,,,,,,,,,,main,2,2,1,negative,positive,l,l,1,0.6422671999998784,318.6074587000003,319.6123924000003,319.59330960000034,None,318.6074587000003,None,318.6074587000003,None,318.6074587000003,None,320.2302518399999,None,320.2302518399999,None,320.2302518399999,None,,,,,,,,,,,204,24,Male,2022-04-27_13h15.44.284,Main,2022.1.1,60.005532510093005,
neutral,neutral,2,k,k,,,,,,,,,5,4,94,10,,,,,,,,,,,,,,,,,,,,,,,,main,2,2,2,neutral,neutral,k,k,1,0.6931820999998308,320.256257,321.2728989000002,321.2334539000003,None,320.256257,None,320.256257,None,320.256257,None,321.92696373999996,None,321.92696373999996,None,321.92696373999996,None,,,,,,,,,,,204,24,Male,2022-04-27_13h15.44.284,Main,2022.1.1,60.005532510093005,
negative,positive,2,j,l,,,,,,,,,5,5,95,15,,,,,,,,,,,,,,,,,,,,,,,,main,1,1,2,positive,negative,j,j,1,0.608241999999791,321.9493815999999,322.9630695000001,322.92494060000035,None,321.9493815999999,None,321.9493815999999,None,321.9493815999999,None,323.5409203400001,None,323.5409203400001,None,323.5409203400001,None,,,,,,,,,,,204,24,Male,2022-04-27_13h15.44.284,Main,2022.1.1,60.005532510093005,
neutral,negative,1,k,k,,,,,,,,,5,6,96,7,,,,,,,,,,,,,,,,,,,,,,,,main,2,2,1,negative,neutral,k,k,1,0.587927099999888,323.5613648000003,324.5755158000002,324.53504680000015,None,323.5613648000003,None,323.5613648000003,None,323.5613648000003,None,325.13139603999997,None,325.13139603999997,None,325.13139603999997,None,,,,,,,,,,,204,24,Male,2022-04-27_13h15.44.284,Main,2022.1.1,60.005532510093005,
positive,positive,1,l,j,,,,,,,,,5,7,97,2,,,,,,,,,,,,,,,,,,,,,,,,main,2,2,1,positive,positive,l,l,1,0.6517406000002666,325.1525276000002,326.1681988,326.13071690000015,None,325.1525276000002,None,325.1525276000002,None,325.1525276000002,None,326.78785024000007,None,326.78785024000007,None,326.78785024000007,None,,,,,,,,,,,204,24,Male,2022-04-27_13h15.44.284,Main,2022.1.1,60.005532510093005,
negative,negative,2,j,l,,,,,,,,,5,8,98,9,,,,,,,,,,,,,,,,,,,,,,,,main,1,1,2,negative,negative,j,j,1,0.7918256999996629,326.8076744,327.8170051000002,327.7979854,None,326.8076744,None,326.8076744,None,326.8076744,None,328.58027654000006,None,328.58027654000006,None,328.58027654000006,None,,,,,,,,,,,204,24,Male,2022-04-27_13h15.44.284,Main,2022.1.1,60.005532510093005,
negative,positive,1,j,l,,,,,,,,,5,9,99,6,,,,,,,,,,,,,,,,,,,,,,,,main,2,2,1,positive,negative,j,j,1,0.5361230999997133,328.6005003,329.61541239999997,329.5776128000002,None,328.6005003,None,328.6005003,None,328.6005003,None,330.1207651400002,None,330.1207651400002,None,330.1207651400002,None,,,,,,,,,,,204,24,Male,2022-04-27_13h15.44.284,Main,2022.1.1,60.005532510093005,
positive,neutral,2,l,j,,,,,,,,,5,10,100,17,,,,,,,,,,,,,,,,,,,,,,,,main,2,2,2,neutral,positive,l,l,1,0.7741518000002543,330.14030679999996,331.1583300000002,331.1175705999999,None,330.14030679999996,None,330.14030679999996,None,330.14030679999996,None,331.89480604,None,331.89480604,None,331.89480604,None,,,,,,,,,,,204,24,Male,2022-04-27_13h15.44.284,Main,2022.1.1,60.005532510093005,
positive,neutral,1,l,j,,,,,,,,,5,11,101,8,,,,,,,,,,,,,,,,,,,,,,,,main,2,2,1,neutral,positive,l,l,1,0.6411672999997791,331.91742320000003,332.92012810000006,332.9005053000001,None,331.91742320000003,None,331.91742320000003,None,331.91742320000003,None,333.54088814000005,None,333.54088814000005,None,333.54088814000005,None,,,,,,,,,,,204,24,Male,2022-04-27_13h15.44.284,Main,2022.1.1,60.005532510093005,
neutral,neutral,1,k,k,,,,,,,,,5,12,102,1,,,,,,,,,,,,,,,,,,,,,,,,main,1,1,1,neutral,neutral,k,k,1,0.6355890999998337,333.5628726,334.5645118000002,334.54556360000015,None,333.5628726,None,333.5628726,None,333.5628726,None,335.1795155400002,None,335.1795155400002,None,335.1795155400002,None,,,,,,,,,,,204,24,Male,2022-04-27_13h15.44.284,Main,2022.1.1,60.005532510093005,
positive,positive,2,l,j,,,,,,,,,5,13,103,11,,,,,,,,,,,,,,,,,,,,,,,,main,1,1,2,positive,positive,l,l,1,0.7269750999998905,335.2036194000002,336.2195737000002,336.1812070000001,None,335.2036194000002,None,335.2036194000002,None,335.2036194000002,None,336.9088908400001,None,336.9088908400001,None,336.9088908400001,None,,,,,,,,,,,204,24,Male,2022-04-27_13h15.44.284,Main,2022.1.1,60.005532510093005,
neutral,negative,2,k,k,,,,,,,,,5,14,104,16,,,,,,,,,,,,,,,,,,,,,,,,main,1,1,2,negative,neutral,k,k,1,0.7480931999998575,336.93039739999995,337.9310329,337.9128413000003,None,336.93039739999995,None,336.93039739999995,None,336.93039739999995,None,338.65523623999997,None,338.65523623999997,None,338.65523623999997,None,,,,,,,,,,,204,24,Male,2022-04-27_13h15.44.284,Main,2022.1.1,60.005532510093005,
positive,negative,2,l,j,,,,,,,,,5,15,105,14,,,,,,,,,,,,,,,,,,,,,,,,main,2,2,2,negative,positive,l,l,1,0.7684606999996504,338.6939099000001,339.6972816000002,339.6783411000001,None,338.6939099000001,None,338.6939099000001,None,338.6939099000001,None,340.43307604,None,340.43307604,None,340.43307604,None,,,,,,,,,,,204,24,Male,2022-04-27_13h15.44.284,Main,2022.1.1,60.005532510093005,
negative,negative,1,j,l,,,,,,,,,5,16,106,0,,,,,,,,,,,,,,,,,,,,,,,,main,1,1,1,negative,negative,j,j,1,0.49666879999995217,340.4567850000003,341.46671490000017,341.42907560000003,None,340.4567850000003,None,340.4567850000003,None,340.4567850000003,None,341.9296292400001,None,341.9296292400001,None,341.9296292400001,None,,,,,,,,,,,204,24,Male,2022-04-27_13h15.44.284,Main,2022.1.1,60.005532510093005,
negative,neutral,1,j,l,,,,,,,,,5,17,107,3,,,,,,,,,,,,,,,,,,,,,,,,main,2,2,1,neutral,negative,j,j,1,0.544234299999971,341.95901730000014,342.9675205000003,342.9440284000002,None,341.95901730000014,None,341.95901730000014,None,341.95901730000014,None,343.4765155400002,None,343.4765155400002,None,343.4765155400002,None,,,,,,,,,,,204,24,Male,2022-04-27_13h15.44.284,Main,2022.1.1,60.005532510093005,
positive,negative,1,l,j,,,,,,,,,6,0,108,5,,,,,,,,,,,,,,,,,,,,,,,,main,2,2,1,negative,positive,l,l,1,0.6345688999999766,343.50566630000003,344.5244189,344.48563319999994,None,343.50566630000003,None,343.50566630000003,None,343.50566630000003,None,345.11905724000025,None,345.11905724000025,None,345.11905724000025,None,,,,,,,,,,,204,24,Male,2022-04-27_13h15.44.284,Main,2022.1.1,60.005532510093005,
negative,neutral,2,j,l,,,,,,,,,6,1,109,12,,,,,,,,,,,,,,,,,,,,,,,,main,2,2,2,neutral,negative,j,j,1,0.6451732000000447,345.1411227000003,346.1464541,346.12731410000015,None,345.1411227000003,None,345.1411227000003,None,345.1411227000003,None,346.7670220400002,None,346.7670220400002,None,346.7670220400002,None,,,,,,,,,,,204,24,Male,2022-04-27_13h15.44.284,Main,2022.1.1,60.005532510093005,
negative,negative,1,j,l,,,,,,,,,6,2,110,0,,,,,,,,,,,,,,,,,,,,,,,,main,1,1,1,negative,negative,j,j,1,0.681157500000154,346.7868505000001,347.7911961,347.7712354,None,346.7868505000001,None,346.7868505000001,None,346.7868505000001,None,348.4507116400002,None,348.4507116400002,None,348.4507116400002,None,,,,,,,,,,,204,24,Male,2022-04-27_13h15.44.284,Main,2022.1.1,60.005532510093005,
neutral,neutral,2,k,k,,,,,,,,,6,3,111,10,,,,,,,,,,,,,,,,,,,,,,,,main,1,1,2,neutral,neutral,k,k,1,0.5993471000001591,348.47044010000036,349.4738104000003,349.45537160000003,None,348.47044010000036,None,348.47044010000036,None,348.47044010000036,None,350.05267754000005,None,350.05267754000005,None,350.05267754000005,None,,,,,,,,,,,204,24,Male,2022-04-27_13h15.44.284,Main,2022.1.1,60.005532510093005,
positive,negative,2,l,j,,,,,,,,,6,4,112,14,,,,,,,,,,,,,,,,,,,,,,,,main,1,1,2,negative,positive,l,l,1,0.6938028999998096,350.0733467,351.08882310000035,351.04799550000007,None,350.0733467,None,350.0733467,None,350.0733467,None,351.74685954000023,None,351.74685954000023,None,351.74685954000023,None,,,,,,,,,,,204,24,Male,2022-04-27_13h15.44.284,Main,2022.1.1,60.005532510093005,
neutral,positive,1,k,k,,,,,,,,,6,5,113,4,,,,,,,,,,,,,,,,,,,,,,,,main,1,1,1,positive,neutral,k,k,1,0.8676063000002614,351.7712928000001,352.7907445000001,352.7512701999999,None,351.7712928000001,None,351.7712928000001,None,351.7712928000001,None,353.6181517400002,None,353.6181517400002,None,353.6181517400002,None,,,,,,,,,,,204,24,Male,2022-04-27_13h15.44.284,Main,2022.1.1,60.005532510093005,
neutral,neutral,1,k,k,,,,,,,,,6,6,114,1,,,,,,,,,,,,,,,,,,,,,,,,main,2,2,1,neutral,neutral,k,k,1,0.5414952999999514,353.64097919999995,354.6605936000001,354.62231310000016,None,353.64097919999995,None,353.64097919999995,None,353.64097919999995,None,355.1660975400002,None,355.1660975400002,None,355.1660975400002,None,,,,,,,,,,,204,24,Male,2022-04-27_13h15.44.284,Main,2022.1.1,60.005532510093005,
positive,neutral,1,l,j,,,,,,,,,6,7,115,8,,,,,,,,,,,,,,,,,,,,,,,,main,2,2,1,neutral,positive,l,l,1,0.6920311999997466,355.1863370000001,356.2045213000001,356.16547519999995,None,355.1863370000001,None,355.1863370000001,None,355.1863370000001,None,356.8585061400001,None,356.8585061400001,None,356.8585061400001,None,,,,,,,,,,,204,24,Male,2022-04-27_13h15.44.284,Main,2022.1.1,60.005532510093005,
negative,positive,2,j,l,,,,,,,,,6,8,116,15,,,,,,,,,,,,,,,,,,,,,,,,main,1,1,2,positive,negative,j,j,1,0.6177436999996644,356.8799451,357.8890000000001,357.86974390000023,None,356.8799451,None,356.8799451,None,356.8799451,None,358.4810185400003,None,358.4810185400003,None,358.4810185400003,None,,,,,,,,,,,204,24,Male,2022-04-27_13h15.44.284,Main,2022.1.1,60.005532510093005,
neutral,positive,2,k,k,,,,,,,,,6,9,117,13,,,,,,,,,,,,,,,,,,,,,,,,main,2,2,2,positive,neutral,k,k,1,0.7134245999995983,358.5033622000001,359.52109629999995,359.4806020000001,None,358.5033622000001,None,358.5033622000001,None,358.5033622000001,None,360.19682854,None,360.19682854,None,360.19682854,None,,,,,,,,,,,204,24,Male,2022-04-27_13h15.44.284,Main,2022.1.1,60.005532510093005,
neutral,negative,1,k,k,,,,,,,,,6,10,118,7,,,,,,,,,,,,,,,,,,,,,,,,main,2,2,1,negative,neutral,k,k,1,0.7081073999997898,360.2167509000001,361.2250745000001,361.2058297000003,None,360.2167509000001,None,360.2167509000001,None,360.2167509000001,None,361.9056805400002,None,361.9056805400002,None,361.9056805400002,None,,,,,,,,,,,204,24,Male,2022-04-27_13h15.44.284,Main,2022.1.1,60.005532510093005,
negative,negative,2,j,l,,,,,,,,,6,11,119,9,,,,,,,,,,,,,,,,,,,,,,,,main,2,2,2,negative,negative,j,j,1,0.6445127000001776,361.92725169999994,362.9389716999999,362.90047000000004,None,361.92725169999994,None,361.92725169999994,None,361.92725169999994,None,363.55449384,None,363.55449384,None,363.55449384,None,,,,,,,,,,,204,24,Male,2022-04-27_13h15.44.284,Main,2022.1.1,60.005532510093005,
negative,neutral,1,j,l,,,,,,,,,6,12,120,3,,,,,,,,,,,,,,,,,,,,,,,,main,2,2,1,neutral,negative,j,j,1,0.5838856000000305,363.57492189999994,364.58389220000026,364.5644814000002,None,363.57492189999994,None,363.57492189999994,None,363.57492189999994,None,365.1408415400003,None,365.1408415400003,None,365.1408415400003,None,,,,,,,,,,,204,24,Male,2022-04-27_13h15.44.284,Main,2022.1.1,60.005532510093005,
positive,positive,1,l,j,,,,,,,,,6,13,121,2,,,,,,,,,,,,,,,,,,,,,,,,main,1,1,1,positive,positive,l,l,1,0.6852786999997988,365.1628344999999,366.1712371000003,366.15214540000034,None,365.1628344999999,None,365.1628344999999,None,365.1628344999999,None,366.82851094000006,None,366.82851094000006,None,366.82851094000006,None,,,,,,,,,,,204,24,Male,2022-04-27_13h15.44.284,Main,2022.1.1,60.005532510093005,
positive,positive,2,l,j,,,,,,,,,6,14,122,11,,,,,,,,,,,,,,,,,,,,,,,,main,1,1,2,positive,positive,l,l,1,0.7606003000000783,366.8549227000003,367.8592672,367.84067760000016,None,366.8549227000003,None,366.8549227000003,None,366.8549227000003,None,368.59103104000013,None,368.59103104000013,None,368.59103104000013,None,,,,,,,,,,,204,24,Male,2022-04-27_13h15.44.284,Main,2022.1.1,60.005532510093005,
neutral,negative,2,k,k,,,,,,,,,6,15,123,16,,,,,,,,,,,,,,,,,,,,,,,,main,1,1,2,negative,neutral,k,k,1,0.6574337000001833,368.6130217,369.6205093000003,369.60195520000025,None,368.6130217,None,368.6130217,None,368.6130217,None,370.2518979399999,None,370.2518979399999,None,370.2518979399999,None,,,,,,,,,,,204,24,Male,2022-04-27_13h15.44.284,Main,2022.1.1,60.005532510093005,
negative,positive,1,j,l,,,,,,,,,6,16,124,6,,,,,,,,,,,,,,,,,,,,,,,,main,1,1,1,positive,negative,j,j,1,0.569464600000174,370.2743797000003,371.2832980000003,371.2622137000003,None,370.2743797000003,None,370.2743797000003,None,370.2743797000003,None,371.8250889400003,None,371.8250889400003,None,371.8250889400003,None,,,,,,,,,,,204,24,Male,2022-04-27_13h15.44.284,Main,2022.1.1,60.005532510093005,
positive,neutral,2,l,j,,,,,,,,,6,17,125,17,,,,,,,,,,,,,,,,,,,,,,,,main,1,1,2,neutral,positive,l,l,1,0.5827902999999424,371.8496990000003,372.8519086000001,372.8325804000001,None,371.8496990000003,None,371.8496990000003,None,371.8496990000003,None,373.4105033400003,None,373.4105033400003,None,373.4105033400003,None,,,,,,,,,,,204,24,Male,2022-04-27_13h15.44.284,Main,2022.1.1,60.005532510093005,
negative,negative,2,j,l,,,,,,,,,7,0,126,9,,,,,,,,,,,,,,,,,,,,,,,,main,2,2,2,negative,negative,j,j,1,0.7143908000002739,373.43563110000014,374.45462160000034,374.41652750000003,None,373.43563110000014,None,373.43563110000014,None,373.43563110000014,None,375.1283506400002,None,375.1283506400002,None,375.1283506400002,None,,,,,,,,,,,204,24,Male,2022-04-27_13h15.44.284,Main,2022.1.1,60.005532510093005,
positive,neutral,2,l,j,,,,,,,,,7,1,127,17,,,,,,,,,,,,,,,,,,,,,,,,main,1,1,2,neutral,positive,l,l,1,0.739950200000294,375.1523384000002,376.1586474999999,376.1401442000001,None,375.1523384000002,None,375.1523384000002,None,375.1523384000002,None,376.87038004000004,None,376.87038004000004,None,376.87038004000004,None,,,,,,,,,,,204,24,Male,2022-04-27_13h15.44.284,Main,2022.1.1,60.005532510093005,
negative,neutral,1,j,l,,,,,,,,,7,2,128,3,,,,,,,,,,,,,,,,,,,,,,,,main,2,2,1,neutral,negative,j,j,1,0.6035845999999765,376.89204870000003,377.8942350000002,377.87475510000013,None,376.89204870000003,None,376.89204870000003,None,376.89204870000003,None,378.4760734399999,None,378.4760734399999,None,378.4760734399999,None,,,,,,,,,,,204,24,Male,2022-04-27_13h15.44.284,Main,2022.1.1,60.005532510093005,
neutral,neutral,1,k,k,,,,,,,,,7,3,129,1,,,,,,,,,,,,,,,,,,,,,,,,main,2,2,1,neutral,neutral,k,k,1,0.652366499999971,378.49747670000033,379.51565170000003,379.4759560000002,None,378.49747670000033,None,378.49747670000033,None,378.49747670000033,None,380.13154963999995,None,380.13154963999995,None,380.13154963999995,None,,,,,,,,,,,204,24,Male,2022-04-27_13h15.44.284,Main,2022.1.1,60.005532510093005,
negative,positive,1,j,l,,,,,,,,,7,4,130,6,,,,,,,,,,,,,,,,,,,,,,,,main,2,2,1,positive,negative,j,j,1,0.7144659999999021,380.15533140000025,381.16975390000016,381.1307869000002,None,380.15533140000025,None,380.15533140000025,None,380.15533140000025,None,381.8515217400001,None,381.8515217400001,None,381.8515217400001,None,,,,,,,,,,,204,24,Male,2022-04-27_13h15.44.284,Main,2022.1.1,60.005532510093005,
positive,negative,1,l,j,,,,,,,,,7,5,131,5,,,,,,,,,,,,,,,,,,,,,,,,main,1,1,1,negative,positive,l,l,1,0.7042898999998215,381.8734614,382.8764798000002,382.8573529,None,381.8734614,None,381.8734614,None,381.8734614,None,383.56036994000004,None,383.56036994000004,None,383.56036994000004,None,,,,,,,,,,,204,24,Male,2022-04-27_13h15.44.284,Main,2022.1.1,60.005532510093005,
negative,positive,2,j,l,,,,,,,,,7,6,132,15,,,,,,,,,,,,,,,,,,,,,,,,main,2,2,2,positive,negative,j,j,1,0.5961683000000448,383.5804685000003,384.587356,384.56858779999993,None,383.5804685000003,None,383.5804685000003,None,383.5804685000003,None,385.16986557999996,None,385.16986557999996,None,385.16986557999996,None,,,,,,,,,,,204,24,Male,2022-04-27_13h15.44.284,Main,2022.1.1,60.005532510093005,
neutral,negative,2,k,k,,,,,,,,,7,7,133,16,,,,,,,,,,,,,,,,,,,,,,,,main,2,2,2,negative,neutral,k,k,1,0.6998407000000952,385.1894207,386.19306640000013,386.1749514000003,None,385.1894207,None,385.1894207,None,385.1894207,None,386.86139204,None,386.86139204,None,386.86139204,None,,,,,,,,,,,204,24,Male,2022-04-27_13h15.44.284,Main,2022.1.1,60.005532510093005,
neutral,negative,1,k,k,,,,,,,,,7,8,134,7,,,,,,,,,,,,,,,,,,,,,,,,main,2,2,1,negative,neutral,k,k,1,0.675522799999726,386.89029500000015,387.9048012000003,387.88494579999997,None,386.89029500000015,None,386.89029500000015,None,386.89029500000015,None,388.54262644,None,388.54262644,None,388.54262644,None,,,,,,,,,,,204,24,Male,2022-04-27_13h15.44.284,Main,2022.1.1,60.005532510093005,
neutral,neutral,2,k,k,,,,,,,,,7,9,135,10,,,,,,,,,,,,,,,,,,,,,,,,main,2,2,2,neutral,neutral,k,k,1,0.6272476999997707,388.5630933000002,389.56937800000014,389.5505223,None,388.5630933000002,None,388.5630933000002,None,388.5630933000002,None,390.17068444000023,None,390.17068444000023,None,390.17068444000023,None,,,,,,,,,,,204,24,Male,2022-04-27_13h15.44.284,Main,2022.1.1,60.005532510093005,
neutral,positive,1,k,k,,,,,,,,,7,10,136,4,,,,,,,,,,,,,,,,,,,,,,,,main,1,1,1,positive,neutral,k,k,1,0.5469325999997636,390.1972273000001,391.2094294000003,391.1719346,None,390.1972273000001,None,390.1972273000001,None,390.1972273000001,None,391.7215373400001,None,391.7215373400001,None,391.7215373400001,None,,,,,,,,,,,204,24,Male,2022-04-27_13h15.44.284,Main,2022.1.1,60.005532510093005,
negative,negative,1,j,l,,,,,,,,,7,11,137,0,,,,,,,,,,,,,,,,,,,,,,,,main,1,1,1,negative,negative,j,j,1,0.621626500000275,391.7418525000003,392.7596219000002,392.72268110000005,None,391.7418525000003,None,391.7418525000003,None,391.7418525000003,None,393.34619463999996,None,393.34619463999996,None,393.34619463999996,None,,,,,,,,,,,204,24,Male,2022-04-27_13h15.44.284,Main,2022.1.1,60.005532510093005,
positive,positive,2,l,j,,,,,,,,,7,12,138,11,,,,,,,,,,,,,,,,,,,,,,,,main,2,2,2,positive,positive,l,l,1,0.7038117000001876,393.36943539999993,394.37233600000036,394.35292419999996,None,393.36943539999993,None,393.36943539999993,None,393.36943539999993,None,395.05177494000026,None,395.05177494000026,None,395.05177494000026,None,,,,,,,,,,,204,24,Male,2022-04-27_13h15.44.284,Main,2022.1.1,60.005532510093005,
neutral,positive,2,k,k,,,,,,,,,7,13,139,13,,,,,,,,,,,,,,,,,,,,,,,,main,2,2,2,positive,neutral,k,k,1,0.6022455999996055,395.07370800000035,396.07646190000014,396.0569604000002,None,395.07370800000035,None,395.07370800000035,None,395.07370800000035,None,396.65524574,None,396.65524574,None,396.65524574,None,,,,,,,,,,,204,24,Male,2022-04-27_13h15.44.284,Main,2022.1.1,60.005532510093005,
positive,negative,2,l,j,,,,,,,,,7,14,140,14,,,,,,,,,,,,,,,,,,,,,,,,main,2,2,2,negative,positive,l,l,1,0.7128631999999016,396.68175770000016,397.69513840000036,397.6570892,None,396.68175770000016,None,396.68175770000016,None,396.68175770000016,None,398.3722408400001,None,398.3722408400001,None,398.3722408400001,None,,,,,,,,,,,204,24,Male,2022-04-27_13h15.44.284,Main,2022.1.1,60.005532510093005,
positive,neutral,1,l,j,,,,,,,,,7,15,141,8,,,,,,,,,,,,,,,,,,,,,,,,main,2,2,1,neutral,positive,l,l,1,0.7353268000001663,398.39622690000033,399.41324550000036,399.37505680000004,None,398.39622690000033,None,398.39622690000033,None,398.39622690000033,None,400.1122249400002,None,400.1122249400002,None,400.1122249400002,None,,,,,,,,,,,204,24,Male,2022-04-27_13h15.44.284,Main,2022.1.1,60.005532510093005,
negative,neutral,2,j,l,,,,,,,,,7,16,142,12,,,,,,,,,,,,,,,,,,,,,,,,main,1,1,2,neutral,negative,j,j,1,0.6230642000000444,400.13404690000016,401.19756510000025,401.1173754000001,None,400.13404690000016,None,400.13404690000016,None,400.13404690000016,None,401.7357621400003,None,401.7357621400003,None,401.7357621400003,None,,,,,,,,,,,204,24,Male,2022-04-27_13h15.44.284,Main,2022.1.1,60.005532510093005,
positive,positive,1,l,j,,,,,,,,,7,17,143,2,,,,,,,,,,,,,,,,,,,,,,,,main,1,1,1,positive,positive,l,l,1,0.6488432000001012,401.75779409999996,402.7716700000001,402.7337655000001,None,401.75779409999996,None,401.75779409999996,None,401.75779409999996,None,403.3858001400001,None,403.3858001400001,None,403.3858001400001,None,,,,,,,,,,,204,24,Male,2022-04-27_13h15.44.284,Main,2022.1.1,60.005532510093005,
neutral,positive,2,k,k,,,,,,,,,8,0,144,13,,,,,,,,,,,,,,,,,,,,,,,,main,2,2,2,positive,neutral,k,k,1,0.7612289999997301,403.4123840000002,404.42388770000025,404.40492489999997,None,403.4123840000002,None,403.4123840000002,None,403.4123840000002,None,405.1503410400002,None,405.1503410400002,None,405.1503410400002,None,,,,,,,,,,,204,24,Male,2022-04-27_13h15.44.284,Main,2022.1.1,60.005532510093005,
negative,positive,1,j,l,,,,,,,,,8,1,145,6,,,,,,,,,,,,,,,,,,,,,,,,main,2,2,1,positive,negative,j,j,1,0.7828592999999273,405.1789722000003,406.20111880000013,406.1611143,None,405.1789722000003,None,405.1789722000003,None,405.1789722000003,None,406.9372050399999,None,406.9372050399999,None,406.9372050399999,None,,,,,,,,,,,204,24,Male,2022-04-27_13h15.44.284,Main,2022.1.1,60.005532510093005,
negative,neutral,1,j,l,,,,,,,,,8,2,146,3,,,,,,,,,,,,,,,,,,,,,,,,main,1,1,1,neutral,negative,j,j,1,0.6155001000001903,406.95798860000014,407.9587633000001,407.9404235000002,None,406.95798860000014,None,406.95798860000014,None,406.95798860000014,None,408.55526844000013,None,408.55526844000013,None,408.55526844000013,None,,,,,,,,,,,204,24,Male,2022-04-27_13h15.44.284,Main,2022.1.1,60.005532510093005,
negative,positive,2,j,l,,,,,,,,,8,3,147,15,,,,,,,,,,,,,,,,,,,,,,,,main,2,2,2,positive,negative,j,j,1,0.6913941000002524,408.5796521000002,409.5965205000002,409.55719820000013,None,408.5796521000002,None,408.5796521000002,None,408.5796521000002,None,410.2487551400001,None,410.2487551400001,None,410.2487551400001,None,,,,,,,,,,,204,24,Male,2022-04-27_13h15.44.284,Main,2022.1.1,60.005532510093005,
positive,negative,1,l,j,,,,,,,,,8,4,148,5,,,,,,,,,,,,,,,,,,,,,,,,main,1,1,1,negative,positive,l,l,1,0.6697468000002118,410.2706846000001,411.2804994000003,411.2437010000003,None,410.2706846000001,None,410.2706846000001,None,410.2706846000001,None,411.9213571400002,None,411.9213571400002,None,411.9213571400002,None,,,,,,,,,,,204,24,Male,2022-04-27_13h15.44.284,Main,2022.1.1,60.005532510093005,
neutral,neutral,1,k,k,,,,,,,,,8,5,149,1,,,,,,,,,,,,,,,,,,,,,,,,main,2,2,1,neutral,neutral,k,k,1,0.7105922999999166,411.94614930000034,412.9606947000002,412.92325260000007,None,411.94614930000034,None,411.94614930000034,None,411.94614930000034,None,413.63427284000016,None,413.63427284000016,None,413.63427284000016,None,,,,,,,,,,,204,24,Male,2022-04-27_13h15.44.284,Main,2022.1.1,60.005532510093005,
positive,negative,2,l,j,,,,,,,,,8,6,150,14,,,,,,,,,,,,,,,,,,,,,,,,main,2,2,2,negative,positive,l,l,1,0.6506450000001678,413.65855090000014,414.67418339999995,414.633773,None,413.65855090000014,None,413.65855090000014,None,413.65855090000014,None,415.28805703999996,None,415.28805703999996,None,415.28805703999996,None,,,,,,,,,,,204,24,Male,2022-04-27_13h15.44.284,Main,2022.1.1,60.005532510093005,
negative,neutral,2,j,l,,,,,,,,,8,7,151,12,,,,,,,,,,,,,,,,,,,,,,,,main,2,2,2,neutral,negative,j,j,1,0.760879400000249,415.3135486000001,416.3330565000001,416.29462710000007,None,415.3135486000001,None,415.3135486000001,None,415.3135486000001,None,417.0516063400002,None,417.0516063400002,None,417.0516063400002,None,,,,,,,,,,,204,24,Male,2022-04-27_13h15.44.284,Main,2022.1.1,60.005532510093005,
positive,positive,1,l,j,,,,,,,,,8,8,152,2,,,,,,,,,,,,,,,,,,,,,,,,main,2,2,1,positive,positive,l,l,1,0.7174680000002809,417.07237490000034,418.07832039999994,418.05878630000007,None,417.07237490000034,None,417.07237490000034,None,417.07237490000034,None,418.77284874000014,None,418.77284874000014,None,418.77284874000014,None,,,,,,,,,,,204,24,Male,2022-04-27_13h15.44.284,Main,2022.1.1,60.005532510093005,
negative,negative,2,j,l,,,,,,,,,8,9,153,9,,,,,,,,,,,,,,,,,,,,,,,,main,1,1,2,negative,negative,j,j,1,0.6519702999999026,418.79388450000033,419.79544840000017,419.77649169999995,None,418.79388450000033,None,418.79388450000033,None,418.79388450000033,None,420.42810934000016,None,420.42810934000016,None,420.42810934000016,None,,,,,,,,,,,204,24,Male,2022-04-27_13h15.44.284,Main,2022.1.1,60.005532510093005,
neutral,negative,2,k,k,,,,,,,,,8,10,154,16,,,,,,,,,,,,,,,,,,,,,,,,main,1,1,2,negative,neutral,k,k,1,0.6229760999999598,420.4476291000001,421.4596609,421.42041599999993,None,420.4476291000001,None,420.4476291000001,None,420.4476291000001,None,422.0516159400001,None,422.0516159400001,None,422.0516159400001,None,,,,,,,,,,,204,24,Male,2022-04-27_13h15.44.284,Main,2022.1.1,60.005532510093005,
negative,negative,1,j,l,,,,,,,,,8,11,155,0,,,,,,,,,,,,,,,,,,,,,,,,main,2,2,1,negative,negative,j,j,1,0.6177284999998847,422.0724994000002,423.07295550000026,423.0549573000003,None,422.0724994000002,None,422.0724994000002,None,422.0724994000002,None,423.6737566399999,None,423.6737566399999,None,423.6737566399999,None,,,,,,,,,,,204,24,Male,2022-04-27_13h15.44.284,Main,2022.1.1,60.005532510093005,
neutral,neutral,2,k,k,,,,,,,,,8,12,156,10,,,,,,,,,,,,,,,,,,,,,,,,main,2,2,2,neutral,neutral,k,k,1,0.6492567000000236,423.69598270000006,424.70841640000026,424.67021380000006,None,423.69598270000006,None,423.69598270000006,None,423.69598270000006,None,425.3260596400002,None,425.3260596400002,None,425.3260596400002,None,,,,,,,,,,,204,24,Male,2022-04-27_13h15.44.284,Main,2022.1.1,60.005532510093005,
positive,positive,2,l,j,,,,,,,,,8,13,157,11,,,,,,,,,,,,,,,,,,,,,,,,main,2,2,2,positive,positive,l,l,1,0.7443753999996261,425.3481810000003,426.3547871999999,426.33541540000033,None,425.3481810000003,None,425.3481810000003,None,425.3481810000003,None,427.0707031399999,None,427.0707031399999,None,427.0707031399999,None,,,,,,,,,,,204,24,Male,2022-04-27_13h15.44.284,Main,2022.1.1,60.005532510093005,
positive,neutral,2,l,j,,,,,,,,,8,14,158,17,,,,,,,,,,,,,,,,,,,,,,,,main,2,2,2,neutral,positive,l,l,1,0.7125750000000153,427.09596820000024,428.111437,428.0726248000001,None,427.09596820000024,None,427.09596820000024,None,427.09596820000024,None,428.78433414,None,428.78433414,None,428.78433414,None,,,,,,,,,,,204,24,Male,2022-04-27_13h15.44.284,Main,2022.1.1,60.005532510093005,
neutral,negative,1,k,k,,,,,,,,,8,15,159,7,,,,,,,,,,,,,,,,,,,,,,,,main,1,1,1,negative,neutral,k,k,1,0.6748860999996396,428.8119678000003,429.8244007000003,429.7863553000002,None,428.8119678000003,None,428.8119678000003,None,428.8119678000003,None,430.4633791400003,None,430.4633791400003,None,430.4633791400003,None,,,,,,,,,,,204,24,Male,2022-04-27_13h15.44.284,Main,2022.1.1,60.005532510093005,
neutral,positive,1,k,k,,,,,,,,,8,16,160,4,,,,,,,,,,,,,,,,,,,,,,,,main,1,1,1,positive,neutral,k,k,1,0.5726371000000654,430.4854330000003,431.50309130000005,431.4653605000003,None,430.4854330000003,None,430.4854330000003,None,430.4854330000003,None,432.0416633400002,None,432.0416633400002,None,432.0416633400002,None,,,,,,,,,,,204,24,Male,2022-04-27_13h15.44.284,Main,2022.1.1,60.005532510093005,
positive,neutral,1,l,j,,,,,,,,,8,17,161,8,,,,,,,,,,,,,,,,,,,,,,,,main,2,2,1,neutral,positive,l,l,1,0.807998299999781,432.0633419999999,433.08164920000036,433.04371360000005,None,432.0633419999999,None,432.0633419999999,None,432.0633419999999,None,433.84973813999994,None,433.84973813999994,None,433.84973813999994,None,,,,,,,,,,,204,24,Male,2022-04-27_13h15.44.284,Main,2022.1.1,60.005532510093005,
neutral,negative,1,k,k,,,,,,,,,9,0,162,7,,,,,,,,,,,,,,,,,,,,,,,,main,1,1,1,negative,neutral,k,k,1,0.7663896999997633,433.8741592000001,434.88743520000025,434.84914720000006,None,433.8741592000001,None,433.8741592000001,None,433.8741592000001,None,435.6213930400001,None,435.6213930400001,None,435.6213930400001,None,,,,,,,,,,,204,24,Male,2022-04-27_13h15.44.284,Main,2022.1.1,60.005532510093005,
neutral,negative,2,k,k,,,,,,,,,9,1,163,16,,,,,,,,,,,,,,,,,,,,,,,,main,1,1,2,negative,neutral,k,k,1,0.6639047999997274,435.6408212000001,436.6543766,436.6164844,None,435.6408212000001,None,435.6408212000001,None,435.6408212000001,None,437.2871807399999,None,437.2871807399999,None,437.2871807399999,None,,,,,,,,,,,204,24,Male,2022-04-27_13h15.44.284,Main,2022.1.1,60.005532510093005,
negative,positive,1,j,l,,,,,,,,,9,2,164,6,,,,,,,,,,,,,,,,,,,,,,,,main,2,2,1,positive,negative,j,j,1,0.5729097000003094,437.30779340000026,438.31873350000023,438.2997515000002,None,437.30779340000026,None,437.30779340000026,None,437.30779340000026,None,438.8616779400001,None,438.8616779400001,None,438.8616779400001,None,,,,,,,,,,,204,24,Male,2022-04-27_13h15.44.284,Main,2022.1.1,60.005532510093005,
neutral,neutral,1,k,k,,,,,,,,,9,3,165,1,,,,,,,,,,,,,,,,,,,,,,,,main,1,1,1,neutral,neutral,k,k,1,0.5353039999999964,438.88378379999995,439.89997919999996,439.86209009999993,None,438.88378379999995,None,438.88378379999995,None,438.88378379999995,None,440.4011070399999,None,440.4011070399999,None,440.4011070399999,None,,,,,,,,,,,204,24,Male,2022-04-27_13h15.44.284,Main,2022.1.1,60.005532510093005,
positive,negative,2,l,j,,,,,,,,,9,4,166,14,,,,,,,,,,,,,,,,,,,,,,,,main,1,1,2,negative,positive,l,l,1,0.7294041999998626,440.42074440000033,441.42348960000027,441.40398189999996,None,440.42074440000033,None,440.42074440000033,None,440.42074440000033,None,442.13230514000014,None,442.13230514000014,None,442.13230514000014,None,,,,,,,,,,,204,24,Male,2022-04-27_13h15.44.284,Main,2022.1.1,60.005532510093005,
neutral,positive,2,k,k,,,,,,,,,9,5,167,13,,,,,,,,,,,,,,,,,,,,,,,,main,1,1,2,positive,neutral,k,k,1,0.5717962999997326,442.1573559000003,443.16913710000017,443.13126349999993,None,442.1573559000003,None,442.1573559000003,None,442.1573559000003,None,443.7088940400001,None,443.7088940400001,None,443.7088940400001,None,,,,,,,,,,,204,24,Male,2022-04-27_13h15.44.284,Main,2022.1.1,60.005532510093005,
positive,positive,1,l,j,,,,,,,,,9,6,168,2,,,,,,,,,,,,,,,,,,,,,,,,main,1,1,1,positive,positive,l,l,1,0.6475030999999944,443.7291272000002,444.74135490000026,444.7019167000003,None,443.7291272000002,None,443.7291272000002,None,443.7291272000002,None,445.36046344000005,None,445.36046344000005,None,445.36046344000005,None,,,,,,,,,,,204,24,Male,2022-04-27_13h15.44.284,Main,2022.1.1,60.005532510093005,
positive,negative,1,l,j,,,,,,,,,9,7,169,5,,,,,,,,,,,,,,,,,,,,,,,,main,1,1,1,negative,positive,l,l,1,0.5539836000002651,445.38177270000006,446.39882080000007,446.35874749999994,None,445.38177270000006,None,445.38177270000006,None,445.38177270000006,None,446.91897463999993,None,446.91897463999993,None,446.91897463999993,None,,,,,,,,,,,204,24,Male,2022-04-27_13h15.44.284,Main,2022.1.1,60.005532510093005,
neutral,neutral,2,k,k,,,,,,,,,9,8,170,10,,,,,,,,,,,,,,,,,,,,,,,,main,2,2,2,neutral,neutral,k,k,1,0.5963681000002907,446.93906700000025,447.9596521000003,447.9191915000001,None,446.93906700000025,None,446.93906700000025,None,446.93906700000025,None,448.5164274400001,None,448.5164274400001,None,448.5164274400001,None,,,,,,,,,,,204,24,Male,2022-04-27_13h15.44.284,Main,2022.1.1,60.005532510093005,
positive,neutral,2,l,j,,,,,,,,,9,9,171,17,,,,,,,,,,,,,,,,,,,,,,,,main,2,2,2,neutral,positive,l,l,1,0.5945313000001988,448.5371586000001,449.5505812000001,449.5124638000002,None,448.5371586000001,None,448.5371586000001,None,448.5371586000001,None,450.1130185399999,None,450.1130185399999,None,450.1130185399999,None,,,,,,,,,,,204,24,Male,2022-04-27_13h15.44.284,Main,2022.1.1,60.005532510093005,
positive,neutral,1,l,j,,,,,,,,,9,10,172,8,,,,,,,,,,,,,,,,,,,,,,,,main,2,2,1,neutral,positive,l,l,1,0.6001741999998558,450.1336260000003,451.1380401000001,451.1182581000003,None,450.1336260000003,None,450.1336260000003,None,450.1336260000003,None,451.71468544,None,451.71468544,None,451.71468544,None,,,,,,,,,,,204,24,Male,2022-04-27_13h15.44.284,Main,2022.1.1,60.005532510093005,
negative,negative,2,j,l,,,,,,,,,9,11,173,9,,,,,,,,,,,,,,,,,,,,,,,,main,1,1,2,negative,negative,j,j,1,0.718086900000344,451.7410659000002,452.7478169000001,452.72881929999994,None,451.7410659000002,None,451.7410659000002,None,451.7410659000002,None,453.43809424,None,453.43809424,None,453.43809424,None,,,,,,,,,,,204,24,Male,2022-04-27_13h15.44.284,Main,2022.1.1,60.005532510093005,
neutral,positive,1,k,k,,,,,,,,,9,12,174,4,,,,,,,,,,,,,,,,,,,,,,,,main,2,2,1,positive,neutral,k,k,1,0.6652935000001889,453.4604696000001,454.4689129000003,454.44974360000015,None,453.4604696000001,None,453.4604696000001,None,453.4604696000001,None,455.1069957400002,None,455.1069957400002,None,455.1069957400002,None,,,,,,,,,,,204,24,Male,2022-04-27_13h15.44.284,Main,2022.1.1,60.005532510093005,
negative,positive,2,j,l,,,,,,,,,9,13,175,15,,,,,,,,,,,,,,,,,,,,,,,,main,1,1,2,positive,negative,j,j,1,0.7814730000000054,455.12820150000016,456.13896509999995,456.10032360000014,None,455.12820150000016,None,455.12820150000016,None,455.12820150000016,None,456.89107974000007,None,456.89107974000007,None,456.89107974000007,None,,,,,,,,,,,204,24,Male,2022-04-27_13h15.44.284,Main,2022.1.1,60.005532510093005,
negative,neutral,1,j,l,,,,,,,,,9,14,176,3,,,,,,,,,,,,,,,,,,,,,,,,main,1,1,1,neutral,negative,j,j,1,0.6917843000001085,456.9124359000002,457.91861510000035,457.8997714000002,None,456.9124359000002,None,456.9124359000002,None,456.9124359000002,None,458.58767854000024,None,458.58767854000024,None,458.58767854000024,None,,,,,,,,,,,204,24,Male,2022-04-27_13h15.44.284,Main,2022.1.1,60.005532510093005,
negative,neutral,2,j,l,,,,,,,,,9,15,177,12,,,,,,,,,,,,,,,,,,,,,,,,main,2,2,2,neutral,negative,j,j,1,0.6076465000001008,458.60967389999996,459.6181738,459.59906709999996,None,458.60967389999996,None,458.60967389999996,None,458.60967389999996,None,460.1954925400002,None,460.1954925400002,None,460.1954925400002,None,,,,,,,,,,,204,24,Male,2022-04-27_13h15.44.284,Main,2022.1.1,60.005532510093005,
positive,positive,2,l,j,,,,,,,,,9,16,178,11,,,,,,,,,,,,,,,,,,,,,,,,main,1,1,2,positive,positive,l,l,1,0.7048903999998402,460.21770659999993,461.2315859,461.1930149,None,460.21770659999993,None,460.21770659999993,None,460.21770659999993,None,461.90504744000026,None,461.90504744000026,None,461.90504744000026,None,,,,,,,,,,,204,24,Male,2022-04-27_13h15.44.284,Main,2022.1.1,60.005532510093005,
negative,negative,1,j,l,,,,,,,,,9,17,179,0,,,,,,,,,,,,,,,,,,,,,,,,main,2,2,1,negative,negative,j,j,1,0.6935054000000491,461.9254979000002,462.9397478000001,462.9013570000002,None,461.9254979000002,None,461.9254979000002,None,461.9254979000002,None,463.59864454000007,None,463.59864454000007,None,463.59864454000007,None,,,,,,,,,,,204,24,Male,2022-04-27_13h15.44.284,Main,2022.1.1,60.005532510093005,
positive,negative,1,l,j,,,,,,,,,10,0,180,5,,,,,,,,,,,,,,,,,,,,,,,,main,1,1,1,negative,positive,l,l,1,0.6843487999999525,463.62370039999996,464.62971940000034,464.6110699999999,None,463.62370039999996,None,463.62370039999996,None,463.62370039999996,None,465.2877505399999,None,465.2877505399999,None,465.2877505399999,None,,,,,,,,,,,204,24,Male,2022-04-27_13h15.44.284,Main,2022.1.1,60.005532510093005,
neutral,negative,2,k,k,,,,,,,,,10,1,181,16,,,,,,,,,,,,,,,,,,,,,,,,main,2,2,2,negative,neutral,k,k,1,0.7326768999996602,465.3079044000001,466.31449999999995,466.2956196,None,465.3079044000001,None,465.3079044000001,None,465.3079044000001,None,467.02319914000026,None,467.02319914000026,None,467.02319914000026,None,,,,,,,,,,,204,24,Male,2022-04-27_13h15.44.284,Main,2022.1.1,60.005532510093005,
negative,positive,2,j,l,,,,,,,,,10,2,182,15,,,,,,,,,,,,,,,,,,,,,,,,main,1,1,2,positive,negative,j,j,1,0.7236014000000068,467.04462190000004,468.0580901000003,468.0190626000003,None,467.04462190000004,None,467.04462190000004,None,467.04462190000004,None,468.75166984000015,None,468.75166984000015,None,468.75166984000015,None,,,,,,,,,,,204,24,Male,2022-04-27_13h15.44.284,Main,2022.1.1,60.005532510093005,
negative,positive,1,j,l,,,,,,,,,10,3,183,6,,,,,,,,,,,,,,,,,,,,,,,,main,2,2,1,positive,negative,j,j,1,0.7348454999996648,468.77297339999996,469.79026820000036,469.75057100000004,None,468.77297339999996,None,468.77297339999996,None,468.77297339999996,None,470.4872786400003,None,470.4872786400003,None,470.4872786400003,None,,,,,,,,,,,204,24,Male,2022-04-27_13h15.44.284,Main,2022.1.1,60.005532510093005,
neutral,positive,1,k,k,,,,,,,,,10,4,184,4,,,,,,,,,,,,,,,,,,,,,,,,main,2,2,1,positive,neutral,k,k,1,0.6791215000002921,470.510581,471.5276137000001,471.4887883000001,None,470.510581,None,470.510581,None,470.510581,None,472.17097414000017,None,472.17097414000017,None,472.17097414000017,None,,,,,,,,,,,204,24,Male,2022-04-27_13h15.44.284,Main,2022.1.1,60.005532510093005,
negative,neutral,1,j,l,,,,,,,,,10,5,185,3,,,,,,,,,,,,,,,,,,,,,,,,main,1,1,1,neutral,negative,j,j,1,0.78946760000008,472.19222200000013,473.19384800000034,473.1749909,None,472.19222200000013,None,472.19222200000013,None,472.19222200000013,None,473.96407584000025,None,473.96407584000025,None,473.96407584000025,None,,,,,,,,,,,204,24,Male,2022-04-27_13h15.44.284,Main,2022.1.1,60.005532510093005,
positive,neutral,2,l,j,,,,,,,,,10,6,186,17,,,,,,,,,,,,,,,,,,,,,,,,main,2,2,2,neutral,positive,l,l,1,0.7079791000001023,473.98491920000015,474.99668139999994,474.9774633000002,None,473.98491920000015,None,473.98491920000015,None,473.98491920000015,None,475.67438434000013,None,475.67438434000013,None,475.67438434000013,None,,,,,,,,,,,204,24,Male,2022-04-27_13h15.44.284,Main,2022.1.1,60.005532510093005,
negative,negative,1,j,l,,,,,,,,,10,7,187,0,,,,,,,,,,,,,,,,,,,,,,,,main,2,2,1,negative,negative,j,j,1,0.7277106999999887,475.6965675000001,476.7112548,476.6729601000002,None,475.6965675000001,None,475.6965675000001,None,475.6965675000001,None,477.40660464,None,477.40660464,None,477.40660464,None,,,,,,,,,,,204,24,Male,2022-04-27_13h15.44.284,Main,2022.1.1,60.005532510093005,
positive,neutral,1,l,j,,,,,,,,,10,8,188,8,,,,,,,,,,,,,,,,,,,,,,,,main,2,2,1,neutral,positive,l,l,1,0.7487260000002607,477.4280205,478.44258830000035,478.4051948000001,None,477.4280205,None,477.4280205,None,477.4280205,None,479.15723394000014,None,479.15723394000014,None,479.15723394000014,None,,,,,,,,,,,204,24,Male,2022-04-27_13h15.44.284,Main,2022.1.1,60.005532510093005,
neutral,neutral,1,k,k,,,,,,,,,10,9,189,1,,,,,,,,,,,,,,,,,,,,,,,,main,1,1,1,neutral,neutral,k,k,1,0.6412248000001455,479.17890830000033,480.19095749999997,480.15392090000023,None,479.17890830000033,None,479.17890830000033,None,479.17890830000033,None,480.8037507400001,None,480.8037507400001,None,480.8037507400001,None,,,,,,,,,,,204,24,Male,2022-04-27_13h15.44.284,Main,2022.1.1,60.005532510093005,
positive,positive,2,l,j,,,,,,,,,10,10,190,11,,,,,,,,,,,,,,,,,,,,,,,,main,2,2,2,positive,positive,l,l,1,0.7146084999999402,480.8243897000002,481.8413089999999,481.8018025000001,None,480.8243897000002,None,480.8243897000002,None,480.8243897000002,None,482.52203763999995,None,482.52203763999995,None,482.52203763999995,None,,,,,,,,,,,204,24,Male,2022-04-27_13h15.44.284,Main,2022.1.1,60.005532510093005,
neutral,positive,2,k,k,,,,,,,,,10,11,191,13,,,,,,,,,,,,,,,,,,,,,,,,main,1,1,2,positive,neutral,k,k,1,0.7348953999999139,482.54566060000025,483.56096700000035,483.5235424000002,None,482.54566060000025,None,482.54566060000025,None,482.54566060000025,None,484.2585003400001,None,484.2585003400001,None,484.2585003400001,None,,,,,,,,,,,204,24,Male,2022-04-27_13h15.44.284,Main,2022.1.1,60.005532510093005,
neutral,neutral,2,k,k,,,,,,,,,10,12,192,10,,,,,,,,,,,,,,,,,,,,,,,,main,2,2,2,neutral,neutral,k,k,1,0.5818102000002909,484.2847248000003,485.2921193000002,485.2735534000003,None,484.2847248000003,None,484.2847248000003,None,484.2847248000003,None,485.8434235400002,None,485.8434235400002,None,485.8434235400002,None,,,,,,,,,,,204,24,Male,2022-04-27_13h15.44.284,Main,2022.1.1,60.005532510093005,
positive,positive,1,l,j,,,,,,,,,10,13,193,2,,,,,,,,,,,,,,,,,,,,,,,,main,2,2,1,positive,positive,l,l,1,0.6614141000000018,485.8639346,486.8696645,486.85051120000026,None,485.8639346,None,485.8639346,None,485.8639346,None,487.50816674000015,None,487.50816674000015,None,487.50816674000015,None,,,,,,,,,,,204,24,Male,2022-04-27_13h15.44.284,Main,2022.1.1,60.005532510093005,
positive,negative,2,l,j,,,,,,,,,10,14,194,14,,,,,,,,,,,,,,,,,,,,,,,,main,2,2,2,negative,positive,l,l,1,0.8746581000000333,487.53064270000004,488.5415908,488.5229022000003,None,487.53064270000004,None,487.53064270000004,None,487.53064270000004,None,489.38805034000023,None,489.38805034000023,None,489.38805034000023,None,,,,,,,,,,,204,24,Male,2022-04-27_13h15.44.284,Main,2022.1.1,60.005532510093005,
neutral,negative,1,k,k,,,,,,,,,10,15,195,7,,,,,,,,,,,,,,,,,,,,,,,,main,1,1,1,negative,neutral,k,k,1,0.7374748000002,489.4082873000002,490.41520820000005,490.39639320000015,None,489.4082873000002,None,489.4082873000002,None,489.4082873000002,None,491.13044994,None,491.13044994,None,491.13044994,None,,,,,,,,,,,204,24,Male,2022-04-27_13h15.44.284,Main,2022.1.1,60.005532510093005,
negative,negative,2,j,l,,,,,,,,,10,16,196,9,,,,,,,,,,,,,,,,,,,,,,,,main,1,1,2,negative,negative,j,j,1,0.6491937999999209,491.1498332000001,492.16766700000016,492.1288574,None,491.1498332000001,None,491.1498332000001,None,491.1498332000001,None,492.7820904400002,None,492.7820904400002,None,492.7820904400002,None,,,,,,,,,,,204,24,Male,2022-04-27_13h15.44.284,Main,2022.1.1,60.005532510093005,
negative,neutral,2,j,l,,,,,,,,,10,17,197,12,,,,,,,,,,,,,,,,,,,,,,,,main,2,2,2,neutral,negative,j,j,1,0.5073488000002726,492.80154949999996,493.80700260000003,493.78623240000024,None,492.80154949999996,None,492.80154949999996,None,492.80154949999996,None,494.29013963999995,None,494.29013963999995,None,494.29013963999995,None,,,,,,,,,,,204,24,Male,2022-04-27_13h15.44.284,Main,2022.1.1,60.005532510093005,
negative,positive,1,j,l,,,,,,,,,11,0,198,6,,,,,,,,,,,,,,,,,,,,,,,,main,1,1,1,positive,negative,j,j,1,0.6775612000001274,494.31048039999996,495.31660550000015,495.29770400000007,None,494.31048039999996,None,494.31048039999996,None,494.31048039999996,None,495.97125324000007,None,495.97125324000007,None,495.97125324000007,None,,,,,,,,,,,204,24,Male,2022-04-27_13h15.44.284,Main,2022.1.1,60.005532510093005,
positive,negative,1,l,j,,,,,,,,,11,1,199,5,,,,,,,,,,,,,,,,,,,,,,,,main,2,2,1,negative,positive,l,j,0,0.576600899999903,495.9916134,497.0092688,496.97161830000005,None,495.9916134,None,495.9916134,None,495.9916134,None,497.55796750000036,None,497.55796750000036,None,497.55796750000036,None,,,,,,,,,,,204,24,Male,2022-04-27_13h15.44.284,Main,2022.1.1,60.005532510093005,
positive,negative,2,l,j,,,,,,,,,11,2,200,14,,,,,,,,,,,,,,,,,,,,,,,,main,2,2,2,negative,positive,l,l,1,0.831506200000149,498.5763251000003,499.58637750000025,499.56697510000004,None,498.5763251000003,None,498.5763251000003,None,498.5763251000003,None,500.3890572400002,None,500.3890572400002,None,500.3890572400002,None,,,,,,,,,,,204,24,Male,2022-04-27_13h15.44.284,Main,2022.1.1,60.005532510093005,
positive,positive,2,l,j,,,,,,,,,11,3,201,11,,,,,,,,,,,,,,,,,,,,,,,,main,2,2,2,positive,positive,l,l,1,0.5623572999998032,500.41250990000026,501.4272154,501.38952259999996,None,500.41250990000026,None,500.41250990000026,None,500.41250990000026,None,501.9541189399999,None,501.9541189399999,None,501.9541189399999,None,,,,,,,,,,,204,24,Male,2022-04-27_13h15.44.284,Main,2022.1.1,60.005532510093005,
negative,neutral,1,j,l,,,,,,,,,11,4,202,3,,,,,,,,,,,,,,,,,,,,,,,,main,2,2,1,neutral,negative,j,j,1,0.6865223999998307,501.9744499000003,502.98765219999996,502.9492067000001,None,501.9744499000003,None,501.9744499000003,None,501.9744499000003,None,503.6451538400003,None,503.6451538400003,None,503.6451538400003,None,,,,,,,,,,,204,24,Male,2022-04-27_13h15.44.284,Main,2022.1.1,60.005532510093005,
neutral,positive,2,k,k,,,,,,,,,11,5,203,13,,,,,,,,,,,,,,,,,,,,,,,,main,2,2,2,positive,neutral,k,k,1,0.7097616999999445,503.66839600000003,504.6778841,504.63913980000007,None,503.66839600000003,None,503.66839600000003,None,503.66839600000003,None,505.35551073999994,None,505.35551073999994,None,505.35551073999994,None,,,,,,,,,,,204,24,Male,2022-04-27_13h15.44.284,Main,2022.1.1,60.005532510093005,
positive,neutral,2,l,j,,,,,,,,,11,6,204,17,,,,,,,,,,,,,,,,,,,,,,,,main,2,2,2,neutral,positive,l,l,1,0.6128716000002896,505.3766118000003,506.3914343000001,506.35370650000004,None,505.3766118000003,None,505.3766118000003,None,505.3766118000003,None,506.9700422400003,None,506.9700422400003,None,506.9700422400003,None,,,,,,,,,,,204,24,Male,2022-04-27_13h15.44.284,Main,2022.1.1,60.005532510093005,
neutral,neutral,2,k,k,,,,,,,,,11,7,205,10,,,,,,,,,,,,,,,,,,,,,,,,main,2,2,2,neutral,neutral,k,k,1,0.5971213999996507,506.99099849999993,508.0117296000003,507.9722303000003,None,506.99099849999993,None,506.99099849999993,None,506.99099849999993,None,508.56926384000025,None,508.56926384000025,None,508.56926384000025,None,,,,,,,,,,,204,24,Male,2022-04-27_13h15.44.284,Main,2022.1.1,60.005532510093005,
neutral,neutral,1,k,k,,,,,,,,,11,8,206,1,,,,,,,,,,,,,,,,,,,,,,,,main,2,2,1,neutral,neutral,k,k,1,0.6794006000000081,508.59231,509.59900800000014,509.5802725000003,None,508.59231,None,508.59231,None,508.59231,None,510.2518007400001,None,510.2518007400001,None,510.2518007400001,None,,,,,,,,,,,204,24,Male,2022-04-27_13h15.44.284,Main,2022.1.1,60.005532510093005,
negative,negative,1,j,l,,,,,,,,,11,9,207,0,,,,,,,,,,,,,,,,,,,,,,,,main,2,2,1,negative,negative,j,j,1,0.7659333000001425,510.2737986000002,511.28837330000033,511.25044690000004,None,510.2737986000002,None,510.2737986000002,None,510.2737986000002,None,512.0214952400004,None,512.0214952400004,None,512.0214952400004,None,,,,,,,,,,,204,24,Male,2022-04-27_13h15.44.284,Main,2022.1.1,60.005532510093005,
negative,neutral,2,j,l,,,,,,,,,11,10,208,12,,,,,,,,,,,,,,,,,,,,,,,,main,1,1,2,neutral,negative,j,j,1,0.6205797999996321,512.0418386000001,513.0540976000002,513.0349144000002,None,512.0418386000001,None,512.0418386000001,None,512.0418386000001,None,513.6468254400004,None,513.6468254400004,None,513.6468254400004,None,,,,,,,,,,,204,24,Male,2022-04-27_13h15.44.284,Main,2022.1.1,60.005532510093005,
negative,positive,2,j,l,,,,,,,,,11,11,209,15,,,,,,,,,,,,,,,,,,,,,,,,main,2,2,2,positive,negative,j,j,1,0.5756438000003072,513.6670361000001,514.6836068000002,514.6454013000002,None,513.6670361000001,None,513.6670361000001,None,513.6670361000001,None,515.2227610400003,None,515.2227610400003,None,515.2227610400003,None,,,,,,,,,,,204,24,Male,2022-04-27_13h15.44.284,Main,2022.1.1,60.005532510093005,
positive,positive,1,l,j,,,,,,,,,11,12,210,2,,,,,,,,,,,,,,,,,,,,,,,,main,1,1,1,positive,positive,l,l,1,0.6842944999998508,515.2432962000003,516.2569407000001,516.2193369000001,None,515.2432962000003,None,515.2432962000003,None,515.2432962000003,None,516.9116887400003,None,516.9116887400003,None,516.9116887400003,None,,,,,,,,,,,204,24,Male,2022-04-27_13h15.44.284,Main,2022.1.1,60.005532510093005,
neutral,positive,1,k,k,,,,,,,,,11,13,211,4,,,,,,,,,,,,,,,,,,,,,,,,main,2,2,1,positive,neutral,k,k,1,0.6499862000000576,516.9336995000003,517.9469117000003,517.9087591000002,None,516.9336995000003,None,516.9336995000003,None,516.9336995000003,None,518.56414414,None,518.56414414,None,518.56414414,None,,,,,,,,,,,204,24,Male,2022-04-27_13h15.44.284,Main,2022.1.1,60.005532510093005,
