target,distractor,set,ans1,ans2,rep_loop2.thisRepN,rep_loop2.thisTrialN,rep_loop2.thisN,rep_loop2.thisIndex,flanker_prac_loop.thisRepN,flanker_prac_loop.thisTrialN,flanker_prac_loop.thisN,flanker_prac_loop.thisIndex,flanker_main_loop.thisRepN,flanker_main_loop.thisTrialN,flanker_main_loop.thisN,flanker_main_loop.thisIndex,fl_inst_resp.keys,mouse.x,mouse.y,mouse.leftButton,mouse.midButton,mouse.rightButton,mouse.started,mouse.stopped,sound_1.started,sound_1.stopped,no_text.started,no_text.stopped,yes_text.started,yes_text.stopped,mouse_2.x,mouse_2.y,mouse_2.leftButton,mouse_2.midButton,mouse_2.rightButton,mouse_2.started,mouse_2.stopped,back_2.started,back_2.stopped,main_prac,fl_cold,fl_colt,fl_set,fl_dcond,fl_tcond,fl_ans,fl_res,fl_corr,fl_rt,fix_fl.started,fix_fl.stopped,targ.started,targ.stopped,j_button.started,j_button.stopped,k_button.started,k_button.stopped,l_button.started,l_button.stopped,j_button2.started,j_button2.stopped,k_button2.started,k_button2.stopped,l_button2.started,l_button2.stopped,mainback.started,mainback.stopped,key_resp.keys,mouse_6.x,mouse_6.y,mouse_6.leftButton,mouse_6.midButton,mouse_6.rightButton,mouse_6.started,mouse_6.stopped,id*,age*,gender*,date,expName,psychopyVersion,frameRate,
,,,,,0,0,0,0,,,,,,,,,None,-0.027777778,-0.27222222,0,0,0,1.0096948000082193,None,20.392602200000148,None,69.10557969999991,None,69.10557969999991,None,-0.1037037,-0.10277778,0,0,0,0.012124200000471319,None,,,,,,,,,,,,,,,,,,,,,,,,,,,,,,,,,,,,,,,205,24,Female,2022-04-28_11h56.09.621,Main,2022.1.1,59.98156166774576,
positive,negative,2,l,j,,,,,0,0,0,14,,,,,,,,,,,,,,,,,,,,,,,,,,72.80251289999978,None,prac,2,2,2,negative,positive,j,j,1,1.5142138999999588,74.8575879,75.8621164999995,75.84343919999992,None,74.8575879,None,74.8575879,None,74.8575879,None,77.36096989999987,None,77.36096989999987,None,77.36096989999987,None,,,,,,,,,,,205,24,Female,2022-04-28_11h56.09.621,Main,2022.1.1,59.98156166774576,
positive,neutral,1,l,j,,,,,0,1,1,8,,,,,,,,,,,,,,,,,,,,,,,,,,,,prac,2,2,1,neutral,positive,j,j,1,0.8348750000004657,78.40399079999952,79.40935179999997,79.39019589999953,None,78.40399079999952,None,78.40399079999952,None,78.40399079999952,None,80.19463239999968,None,80.19463239999968,None,80.19463239999968,None,,,,,,,,,,,205,24,Female,2022-04-28_11h56.09.621,Main,2022.1.1,59.98156166774576,
neutral,positive,1,k,k,,,,,0,2,2,4,,,,,,,,,,,,,,,,,,,,,,,,,,,,prac,2,2,1,positive,neutral,k,k,1,0.8678952000000208,80.2281683000001,81.24834110000029,81.2077946999998,None,80.2281683000001,None,80.2281683000001,None,80.2281683000001,None,82.06789669999998,None,82.06789669999998,None,82.06789669999998,None,,,,,,,,,,,205,24,Female,2022-04-28_11h56.09.621,Main,2022.1.1,59.98156166774576,
negative,positive,1,j,l,,,,,0,3,3,6,,,,,,,,,,,,,,,,,,,,,,,,,,,,prac,2,2,1,positive,negative,l,l,1,0.745840099999441,82.10296259999996,83.11496160000024,83.09576790000028,None,82.10296259999996,None,82.10296259999996,None,82.10296259999996,None,83.81460999999999,None,83.81460999999999,None,83.81460999999999,None,,,,,,,,,,,205,24,Female,2022-04-28_11h56.09.621,Main,2022.1.1,59.98156166774576,
neutral,neutral,2,k,k,,,,,0,4,4,10,,,,,,,,,,,,,,,,,,,,,,,,,,,,prac,1,1,2,neutral,neutral,k,k,1,0.9799221000002944,83.85324169999967,84.86456929999986,84.82634609999968,None,83.85324169999967,None,83.85324169999967,None,83.85324169999967,None,85.79458310000027,None,85.79458310000027,None,85.79458310000027,None,,,,,,,,,,,205,24,Female,2022-04-28_11h56.09.621,Main,2022.1.1,59.98156166774576,
neutral,positive,2,k,k,,,,,0,5,5,13,,,,,,,,,,,,,,,,,,,,,,,,,,,,prac,2,2,2,positive,neutral,k,k,1,0.6694263999997929,85.83645929999966,86.84819169999992,86.8104274999996,None,85.83645929999966,None,85.83645929999966,None,85.83645929999966,None,87.47007420000008,None,87.47007420000008,None,87.47007420000008,None,,,,,,,,,,,205,24,Female,2022-04-28_11h56.09.621,Main,2022.1.1,59.98156166774576,
neutral,negative,2,k,k,,,,,0,6,6,16,,,,,,,,,,,,,,,,,,,,,,,,,,,,prac,1,1,2,negative,neutral,k,k,1,0.6022496999994473,87.50669469999957,88.5122838999996,88.49336529999982,None,87.50669469999957,None,87.50669469999957,None,87.50669469999957,None,89.0731326000001,None,89.0731326000001,None,89.0731326000001,None,,,,,,,,,,,205,24,Female,2022-04-28_11h56.09.621,Main,2022.1.1,59.98156166774576,
negative,positive,2,j,l,,,,,0,7,7,15,,,,,,,,,,,,,,,,,,,,,,,,,,,,prac,2,2,2,positive,negative,l,l,1,0.8524436999996396,89.09358549999979,90.0955243999997,90.07597519999945,None,89.09358549999979,None,89.09358549999979,None,89.09358549999979,None,90.92646159999967,None,90.92646159999967,None,90.92646159999967,None,,,,,,,,,,,205,24,Female,2022-04-28_11h56.09.621,Main,2022.1.1,59.98156166774576,
positive,negative,1,l,j,,,,,0,8,8,5,,,,,,,,,,,,,,,,,,,,,,,,,,,,prac,1,1,1,negative,positive,j,j,1,0.7494075999993584,90.97119269999985,91.9838952,91.94576249999955,None,90.97119269999985,None,90.97119269999985,None,90.97119269999985,None,92.68095179999963,None,92.68095179999963,None,92.68095179999963,None,,,,,,,,,,,205,24,Female,2022-04-28_11h56.09.621,Main,2022.1.1,59.98156166774576,
negative,neutral,1,j,l,,,,,0,9,9,3,,,,,,,,,,,,,,,,,,,,,,,,,,,,prac,1,1,1,neutral,negative,l,l,1,0.94187409999995,92.7147017999996,93.72257239999999,93.7037965999998,None,92.7147017999996,None,92.7147017999996,None,92.7147017999996,None,94.62096400000027,None,94.62096400000027,None,94.62096400000027,None,,,,,,,,,,,205,24,Female,2022-04-28_11h56.09.621,Main,2022.1.1,59.98156166774576,
negative,negative,2,j,l,,,,,0,10,10,9,,,,,,,,,,,,,,,,,,,,,,,,,,,,prac,2,2,2,negative,negative,l,l,1,0.6626691000001301,94.65514619999976,95.67391380000026,95.6355051999999,None,94.65514619999976,None,94.65514619999976,None,94.65514619999976,None,96.2897745999995,None,96.2897745999995,None,96.2897745999995,None,,,,,,,,,,,205,24,Female,2022-04-28_11h56.09.621,Main,2022.1.1,59.98156166774576,
negative,neutral,2,j,l,,,,,0,11,11,12,,,,,,,,,,,,,,,,,,,,,,,,,,,,prac,1,1,2,neutral,negative,l,l,1,0.7651112000003195,96.30971020000015,97.32425969999986,97.28650899999957,None,96.30971020000015,None,96.30971020000015,None,96.30971020000015,None,98.05731290000003,None,98.05731290000003,None,98.05731290000003,None,,,,,,,,,,,205,24,Female,2022-04-28_11h56.09.621,Main,2022.1.1,59.98156166774576,
positive,neutral,2,l,j,,,,,0,12,12,17,,,,,,,,,,,,,,,,,,,,,,,,,,,,prac,1,1,2,neutral,positive,j,j,1,0.8489933000000747,98.08917550000024,99.09696579999945,99.07820420000007,None,98.08917550000024,None,98.08917550000024,None,98.08917550000024,None,99.90816580000009,None,99.90816580000009,None,99.90816580000009,None,,,,,,,,,,,205,24,Female,2022-04-28_11h56.09.621,Main,2022.1.1,59.98156166774576,
neutral,neutral,1,k,k,,,,,0,13,13,1,,,,,,,,,,,,,,,,,,,,,,,,,,,,prac,1,1,1,neutral,neutral,k,k,1,0.6318839999994452,99.92853689999993,100.94179499999973,100.90464530000008,None,99.92853689999993,None,99.92853689999993,None,99.92853689999993,None,101.54194079999942,None,101.54194079999942,None,101.54194079999942,None,,,,,,,,,,,205,24,Female,2022-04-28_11h56.09.621,Main,2022.1.1,59.98156166774576,
positive,positive,1,l,j,,,,,0,14,14,2,,,,,,,,,,,,,,,,,,,,,,,,,,,,prac,1,1,1,positive,positive,j,j,1,0.7958028000002741,101.57424879999962,102.5928060999995,102.57403139999951,None,101.57424879999962,None,101.57424879999962,None,101.57424879999962,None,103.34007770000025,None,103.34007770000025,None,103.34007770000025,None,,,,,,,,,,,205,24,Female,2022-04-28_11h56.09.621,Main,2022.1.1,59.98156166774576,
positive,positive,2,l,j,,,,,0,15,15,11,,,,,,,,,,,,,,,,,,,,,,,,,,,,prac,1,1,2,positive,positive,j,j,1,0.6898661000004722,103.37229649999972,104.37364809999963,104.37364809999963,None,103.37229649999972,None,103.37229649999972,None,103.37229649999972,None,105.03364490000021,None,105.03364490000021,None,105.03364490000021,None,,,,,,,,,,,205,24,Female,2022-04-28_11h56.09.621,Main,2022.1.1,59.98156166774576,
neutral,negative,1,k,k,,,,,0,16,16,7,,,,,,,,,,,,,,,,,,,,,,,,,,,,prac,2,2,1,negative,neutral,k,k,1,0.6892598000004,105.06559969999944,106.08164769999985,106.06169989999944,None,105.06559969999944,None,105.06559969999944,None,105.06559969999944,None,106.72466510000012,None,106.72466510000012,None,106.72466510000012,None,,,,,,,,,,,205,24,Female,2022-04-28_11h56.09.621,Main,2022.1.1,59.98156166774576,
negative,negative,1,j,l,,,,,0,17,17,0,,,,,,,,,,,,,,,,,,,,,,,,,,,,prac,1,1,1,negative,negative,l,l,1,0.6230840999996872,106.74865049999971,107.76055499999984,107.72202459999971,None,106.74865049999971,None,106.74865049999971,None,106.74865049999971,None,108.35210659999993,None,108.35210659999993,None,108.35210659999993,None,,,,,,,,,,,205,24,Female,2022-04-28_11h56.09.621,Main,2022.1.1,59.98156166774576,
neutral,neutral,1,k,k,,,,,1,0,18,1,,,,,,,,,,,,,,,,,,,,,,,,,,,,prac,1,1,1,neutral,neutral,k,k,1,0.7450163000003158,108.37262759999976,109.3845296999998,109.3445044,None,108.37262759999976,None,108.37262759999976,None,108.37262759999976,None,110.10137840000024,None,110.10137840000024,None,110.10137840000024,None,,,,,,,,,,,205,24,Female,2022-04-28_11h56.09.621,Main,2022.1.1,59.98156166774576,
negative,negative,2,j,l,,,,,1,1,19,9,,,,,,,,,,,,,,,,,,,,,,,,,,,,prac,2,2,2,negative,negative,l,l,1,0.8172719000003781,110.1236786999998,111.13031539999974,111.11087810000026,None,110.1236786999998,None,110.1236786999998,None,110.1236786999998,None,111.92177179999962,None,111.92177179999962,None,111.92177179999962,None,,,,,,,,,,,205,24,Female,2022-04-28_11h56.09.621,Main,2022.1.1,59.98156166774576,
negative,negative,1,j,l,,,,,1,2,20,0,,,,,,,,,,,,,,,,,,,,,,,,,,,,prac,2,2,1,negative,negative,l,l,1,0.805599400000574,111.94357339999988,112.95322390000001,112.93314939999982,None,111.94357339999988,None,111.94357339999988,None,111.94357339999988,None,113.73036659999943,None,113.73036659999943,None,113.73036659999943,None,,,,,,,,,,,205,24,Female,2022-04-28_11h56.09.621,Main,2022.1.1,59.98156166774576,
negative,neutral,1,j,l,,,,,1,3,21,3,,,,,,,,,,,,,,,,,,,,,,,,,,,,prac,1,1,1,neutral,negative,l,l,1,0.7111371999999392,113.75027649999993,114.76788029999989,114.7277425000002,None,113.75027649999993,None,113.75027649999993,None,113.75027649999993,None,115.44227839999948,None,115.44227839999948,None,115.44227839999948,None,,,,,,,,,,,205,24,Female,2022-04-28_11h56.09.621,Main,2022.1.1,59.98156166774576,
positive,positive,2,l,j,,,,,1,4,22,11,,,,,,,,,,,,,,,,,,,,,,,,,,,,prac,2,2,2,positive,positive,j,j,1,0.7851056999998036,115.46283119999953,116.47483399999965,116.43600470000001,None,115.46283119999953,None,115.46283119999953,None,115.46283119999953,None,117.2311542000003,None,117.2311542000003,None,117.2311542000003,None,,,,,,,,,,,205,24,Female,2022-04-28_11h56.09.621,Main,2022.1.1,59.98156166774576,
neutral,neutral,2,k,k,,,,,1,5,23,10,,,,,,,,,,,,,,,,,,,,,,,,,,,,prac,1,1,2,neutral,neutral,k,k,1,0.6136554999993677,117.25112780000018,118.26632530000006,118.22737880000022,None,117.25112780000018,None,117.25112780000018,None,117.25112780000018,None,118.84709470000016,None,118.84709470000016,None,118.84709470000016,None,,,,,,,,,,,205,24,Female,2022-04-28_11h56.09.621,Main,2022.1.1,59.98156166774576,
neutral,negative,1,k,k,,,,,1,6,24,7,,,,,,,,,,,,,,,,,,,,,,,,,,,,prac,1,1,1,negative,neutral,k,k,1,0.5413695000006555,118.8660632000001,119.8824684000001,119.84337649999998,None,118.8660632000001,None,118.8660632000001,None,118.8660632000001,None,120.38713349999998,None,120.38713349999998,None,120.38713349999998,None,,,,,,,,,,,205,24,Female,2022-04-28_11h56.09.621,Main,2022.1.1,59.98156166774576,
positive,neutral,2,l,j,,,,,1,7,25,17,,,,,,,,,,,,,,,,,,,,,,,,,,,,prac,1,1,2,neutral,positive,j,j,1,0.7022139000000607,120.40918590000001,121.41603059999943,121.3962262999994,None,120.40918590000001,None,120.40918590000001,None,120.40918590000001,None,122.09297680000017,None,122.09297680000017,None,122.09297680000017,None,,,,,,,,,,,205,24,Female,2022-04-28_11h56.09.621,Main,2022.1.1,59.98156166774576,
negative,neutral,2,j,l,,,,,1,8,26,12,,,,,,,,,,,,,,,,,,,,,,,,,,,,prac,2,2,2,neutral,negative,l,l,1,0.8686665999994148,122.12459029999991,123.13932569999997,123.12042099999962,None,122.12459029999991,None,122.12459029999991,None,122.12459029999991,None,123.96531689999992,None,123.96531689999992,None,123.96531689999992,None,,,,,,,,,,,205,24,Female,2022-04-28_11h56.09.621,Main,2022.1.1,59.98156166774576,
positive,positive,1,l,j,,,,,1,9,27,2,,,,,,,,,,,,,,,,,,,,,,,,,,,,prac,1,1,1,positive,positive,j,j,1,0.6581163000000743,123.98625730000003,125.00546889999987,124.96708839999974,None,123.98625730000003,None,123.98625730000003,None,123.98625730000003,None,125.62820619999965,None,125.62820619999965,None,125.62820619999965,None,,,,,,,,,,,205,24,Female,2022-04-28_11h56.09.621,Main,2022.1.1,59.98156166774576,
positive,neutral,1,l,j,,,,,1,10,28,8,,,,,,,,,,,,,,,,,,,,,,,,,,,,prac,1,1,1,neutral,positive,j,j,1,0.7621091000000888,125.64758119999988,126.66309879999972,126.62415909999982,None,125.64758119999988,None,125.64758119999988,None,125.64758119999988,None,127.3913153999998,None,127.3913153999998,None,127.3913153999998,None,,,,,,,,,,,205,24,Female,2022-04-28_11h56.09.621,Main,2022.1.1,59.98156166774576,
neutral,negative,2,k,k,,,,,1,11,29,16,,,,,,,,,,,,,,,,,,,,,,,,,,,,prac,1,1,2,negative,neutral,k,k,1,0.5961821000000782,127.4150582000002,128.42545009999958,128.38740489999964,None,127.4150582000002,None,127.4150582000002,None,127.4150582000002,None,128.9886626000003,None,128.9886626000003,None,128.9886626000003,None,,,,,,,,,,,205,24,Female,2022-04-28_11h56.09.621,Main,2022.1.1,59.98156166774576,
positive,negative,1,l,j,,,,,1,12,30,5,,,,,,,,,,,,,,,,,,,,,,,,,,,,prac,2,2,1,negative,positive,j,j,1,0.6638828000004651,129.00914610000018,130.0149612999994,129.99575339999956,None,129.00914610000018,None,129.00914610000018,None,129.00914610000018,None,130.65490250000002,None,130.65490250000002,None,130.65490250000002,None,,,,,,,,,,,205,24,Female,2022-04-28_11h56.09.621,Main,2022.1.1,59.98156166774576,
neutral,positive,1,k,k,,,,,1,13,31,4,,,,,,,,,,,,,,,,,,,,,,,,,,,,prac,2,2,1,positive,neutral,k,k,1,0.5277744999993956,130.67771139999968,131.68021390000013,131.66064050000023,None,130.67771139999968,None,130.67771139999968,None,130.67771139999968,None,132.18448979999957,None,132.18448979999957,None,132.18448979999957,None,,,,,,,,,,,205,24,Female,2022-04-28_11h56.09.621,Main,2022.1.1,59.98156166774576,
positive,negative,2,l,j,,,,,1,14,32,14,,,,,,,,,,,,,,,,,,,,,,,,,,,,prac,2,2,2,negative,positive,j,j,1,0.6163657999995849,132.20566489999965,133.22731250000015,133.18784059999962,None,132.20566489999965,None,132.20566489999965,None,132.20566489999965,None,133.80353609999983,None,133.80353609999983,None,133.80353609999983,None,,,,,,,,,,,205,24,Female,2022-04-28_11h56.09.621,Main,2022.1.1,59.98156166774576,
negative,positive,2,j,l,,,,,1,15,33,15,,,,,,,,,,,,,,,,,,,,,,,,,,,,prac,2,2,2,positive,negative,l,l,1,0.7375866000002134,133.82427240000015,134.82441349999954,134.80726129999948,None,133.82427240000015,None,133.82427240000015,None,133.82427240000015,None,135.54525389999944,None,135.54525389999944,None,135.54525389999944,None,,,,,,,,,,,205,24,Female,2022-04-28_11h56.09.621,Main,2022.1.1,59.98156166774576,
negative,positive,1,j,l,,,,,1,16,34,6,,,,,,,,,,,,,,,,,,,,,,,,,,,,prac,1,1,1,positive,negative,l,l,1,0.7509793999997783,135.56457479999972,136.58053399999972,136.54076069999974,None,135.56457479999972,None,135.56457479999972,None,135.56457479999972,None,137.29843760000003,None,137.29843760000003,None,137.29843760000003,None,,,,,,,,,,,205,24,Female,2022-04-28_11h56.09.621,Main,2022.1.1,59.98156166774576,
neutral,positive,2,k,k,,,,,1,17,35,13,,,,,,,,,,,,,,,,,,,,,,,,,,,,prac,2,2,2,positive,neutral,k,k,1,0.6015684000003603,137.3211881999996,138.32394810000005,138.3046806000002,None,137.3211881999996,None,137.3211881999996,None,137.3211881999996,None,138.90352630000015,None,138.90352630000015,None,138.90352630000015,None,,,,,,,,,,,205,24,Female,2022-04-28_11h56.09.621,Main,2022.1.1,59.98156166774576,
,,,,,,,,,,,,,,,,,,,,,,,,,,,,,,,,,,,,,,,,,,,,,,,,,,,,,,,,,,,,,,,,,,138.90924189999987,None,None,,,,,,,,205,24,Female,2022-04-28_11h56.09.621,Main,2022.1.1,59.98156166774576,
,,,,,,,,,,,,,,,,,,,,,,,,,,,,,,,,,,,,,,,,,,,,,,,,,,,,,,,,,,,,,,,,,,,,,0.61296296,-0.30462962,1,0,0,0.004812300000594405,None,205,24,Female,2022-04-28_11h56.09.621,Main,2022.1.1,59.98156166774576,
positive,negative,2,l,j,,,,,,,,,0,0,0,14,,,,,,,,,,,,,,,,,,,,,,143.0101027999999,None,main,2,2,2,negative,positive,j,j,1,0.7134010999998281,145.03102239999953,146.0490233999999,146.00974789999964,None,145.03102239999953,None,145.03102239999953,None,145.03102239999953,None,146.72566079999942,None,146.72566079999942,None,146.72566079999942,None,,,,,,,,,,,205,24,Female,2022-04-28_11h56.09.621,Main,2022.1.1,59.98156166774576,
negative,positive,1,j,l,,,,,,,,,0,1,1,6,,,,,,,,,,,,,,,,,,,,,,,,main,2,2,1,positive,negative,l,l,1,0.7244160000000193,146.74961040000017,147.7515046999997,147.7320536999996,None,146.74961040000017,None,146.74961040000017,None,146.74961040000017,None,148.4535598999997,None,148.4535598999997,None,148.4535598999997,None,,,,,,,,,,,205,24,Female,2022-04-28_11h56.09.621,Main,2022.1.1,59.98156166774576,
neutral,neutral,1,k,k,,,,,,,,,0,2,2,1,,,,,,,,,,,,,,,,,,,,,,,,main,2,2,1,neutral,neutral,k,k,1,0.5487659000000349,148.47523360000014,149.48394540000027,149.4642877999995,None,148.47523360000014,None,148.47523360000014,None,148.47523360000014,None,150.00762509999967,None,150.00762509999967,None,150.00762509999967,None,,,,,,,,,,,205,24,Female,2022-04-28_11h56.09.621,Main,2022.1.1,59.98156166774576,
neutral,neutral,2,k,k,,,,,,,,,0,3,3,10,,,,,,,,,,,,,,,,,,,,,,,,main,2,2,2,neutral,neutral,k,k,1,0.7833248999995703,150.03016219999972,151.03528050000023,151.0158362000002,None,150.03016219999972,None,150.03016219999972,None,150.03016219999972,None,151.7930811000002,None,151.7930811000002,None,151.7930811000002,None,,,,,,,,,,,205,24,Female,2022-04-28_11h56.09.621,Main,2022.1.1,59.98156166774576,
positive,neutral,2,l,j,,,,,,,,,0,4,4,17,,,,,,,,,,,,,,,,,,,,,,,,main,1,1,2,neutral,positive,j,j,1,0.598012700000254,151.81312830000024,152.8331030999998,152.79444450000028,None,151.81312830000024,None,151.81312830000024,None,151.81312830000024,None,153.3934379999997,None,153.3934379999997,None,153.3934379999997,None,,,,,,,,,,,205,24,Female,2022-04-28_11h56.09.621,Main,2022.1.1,59.98156166774576,
neutral,positive,1,k,k,,,,,,,,,0,5,5,4,,,,,,,,,,,,,,,,,,,,,,,,main,2,2,1,positive,neutral,k,k,1,0.5284304000006159,153.41514009999992,154.41972179999993,154.4002792000001,None,153.41514009999992,None,153.41514009999992,None,153.41514009999992,None,154.9249410999997,None,154.9249410999997,None,154.9249410999997,None,,,,,,,,,,,205,24,Female,2022-04-28_11h56.09.621,Main,2022.1.1,59.98156166774576,
negative,positive,2,j,l,,,,,,,,,0,6,6,15,,,,,,,,,,,,,,,,,,,,,,,,main,1,1,2,positive,negative,l,l,1,0.6799122000002171,154.94621409999945,155.94852720000017,155.9296878999994,None,154.94621409999945,None,154.94621409999945,None,154.94621409999945,None,156.6086940000001,None,156.6086940000001,None,156.6086940000001,None,,,,,,,,,,,205,24,Female,2022-04-28_11h56.09.621,Main,2022.1.1,59.98156166774576,
neutral,positive,2,k,k,,,,,,,,,0,7,7,13,,,,,,,,,,,,,,,,,,,,,,,,main,2,2,2,positive,neutral,k,k,1,0.6286758000005648,156.63021320000007,157.6348380999998,157.61531579999973,None,156.63021320000007,None,156.63021320000007,None,156.63021320000007,None,158.2392565999995,None,158.2392565999995,None,158.2392565999995,None,,,,,,,,,,,205,24,Female,2022-04-28_11h56.09.621,Main,2022.1.1,59.98156166774576,
neutral,negative,1,k,k,,,,,,,,,0,8,8,7,,,,,,,,,,,,,,,,,,,,,,,,main,1,1,1,negative,neutral,k,k,1,0.6562517000002117,158.25996829999985,159.2775670000001,159.2388222999998,None,158.25996829999985,None,158.25996829999985,None,158.25996829999985,None,159.89646450000018,None,159.89646450000018,None,159.89646450000018,None,,,,,,,,,,,205,24,Female,2022-04-28_11h56.09.621,Main,2022.1.1,59.98156166774576,
positive,negative,1,l,j,,,,,,,,,0,9,9,5,,,,,,,,,,,,,,,,,,,,,,,,main,2,2,1,negative,positive,j,j,1,0.6548409999995783,159.91709609999998,160.9218654999995,160.90247029999955,None,159.91709609999998,None,159.91709609999998,None,159.91709609999998,None,161.55287370000005,None,161.55287370000005,None,161.55287370000005,None,,,,,,,,,,,205,24,Female,2022-04-28_11h56.09.621,Main,2022.1.1,59.98156166774576,
negative,neutral,2,j,l,,,,,,,,,0,10,10,12,,,,,,,,,,,,,,,,,,,,,,,,main,1,1,2,neutral,negative,l,l,1,0.7669114000000263,161.57476229999975,162.59243340000012,162.55363260000013,None,161.57476229999975,None,161.57476229999975,None,161.57476229999975,None,163.32482519999994,None,163.32482519999994,None,163.32482519999994,None,,,,,,,,,,,205,24,Female,2022-04-28_11h56.09.621,Main,2022.1.1,59.98156166774576,
negative,negative,1,j,l,,,,,,,,,0,11,11,0,,,,,,,,,,,,,,,,,,,,,,,,main,1,1,1,negative,negative,l,l,1,0.7747074999997494,163.34548799999993,164.34780539999974,164.3294105999994,None,163.34548799999993,None,163.34548799999993,None,163.34548799999993,None,165.1004375999997,None,165.1004375999997,None,165.1004375999997,None,,,,,,,,,,,205,24,Female,2022-04-28_11h56.09.621,Main,2022.1.1,59.98156166774576,
negative,negative,2,j,l,,,,,,,,,0,12,12,9,,,,,,,,,,,,,,,,,,,,,,,,main,1,1,2,negative,negative,l,l,1,0.7176530999995521,165.1226273000002,166.12828939999963,166.1092907000002,None,165.1226273000002,None,165.1226273000002,None,165.1226273000002,None,166.82203919999992,None,166.82203919999992,None,166.82203919999992,None,,,,,,,,,,,205,24,Female,2022-04-28_11h56.09.621,Main,2022.1.1,59.98156166774576,
positive,neutral,1,l,j,,,,,,,,,0,13,13,8,,,,,,,,,,,,,,,,,,,,,,,,main,1,1,1,neutral,positive,j,j,1,0.7253960000007282,166.84330359999967,167.85150410000006,167.83232750000025,None,166.84330359999967,None,166.84330359999967,None,166.84330359999967,None,168.54952550000016,None,168.54952550000016,None,168.54952550000016,None,,,,,,,,,,,205,24,Female,2022-04-28_11h56.09.621,Main,2022.1.1,59.98156166774576,
negative,neutral,1,j,l,,,,,,,,,0,14,14,3,,,,,,,,,,,,,,,,,,,,,,,,main,2,2,1,neutral,negative,l,l,1,0.7795679999999265,168.56995499999994,169.57312199999978,169.5540148,None,168.56995499999994,None,168.56995499999994,None,168.56995499999994,None,170.33112159999982,None,170.33112159999982,None,170.33112159999982,None,,,,,,,,,,,205,24,Female,2022-04-28_11h56.09.621,Main,2022.1.1,59.98156166774576,
neutral,negative,2,k,k,,,,,,,,,0,15,15,16,,,,,,,,,,,,,,,,,,,,,,,,main,2,2,2,negative,neutral,k,k,1,0.6193074000002525,170.35204389999944,171.35714319999988,171.33774900000026,None,170.35204389999944,None,170.35204389999944,None,170.35204389999944,None,171.95495439999976,None,171.95495439999976,None,171.95495439999976,None,,,,,,,,,,,205,24,Female,2022-04-28_11h56.09.621,Main,2022.1.1,59.98156166774576,
positive,positive,2,l,j,,,,,,,,,0,16,16,11,,,,,,,,,,,,,,,,,,,,,,,,main,2,2,2,positive,positive,j,j,1,0.6790704999993977,171.97476339999957,172.98673739999958,172.94728269999996,None,171.97476339999957,None,171.97476339999957,None,171.97476339999957,None,173.63482429999985,None,173.63482429999985,None,173.63482429999985,None,,,,,,,,,,,205,24,Female,2022-04-28_11h56.09.621,Main,2022.1.1,59.98156166774576,
positive,positive,1,l,j,,,,,,,,,0,17,17,2,,,,,,,,,,,,,,,,,,,,,,,,main,1,1,1,positive,positive,j,j,1,0.7325619000002916,173.65610089999973,174.67299809999986,174.6347767999996,None,173.65610089999973,None,173.65610089999973,None,173.65610089999973,None,175.3718359999999,None,175.3718359999999,None,175.3718359999999,None,,,,,,,,,,,205,24,Female,2022-04-28_11h56.09.621,Main,2022.1.1,59.98156166774576,
negative,negative,2,j,l,,,,,,,,,1,0,18,9,,,,,,,,,,,,,,,,,,,,,,,,main,2,2,2,negative,negative,l,l,1,0.800741700000799,175.3919937999999,176.40652779999982,176.3677373999999,None,175.3919937999999,None,175.3919937999999,None,175.3919937999999,None,177.1750453999999,None,177.1750453999999,None,177.1750453999999,None,,,,,,,,,,,205,24,Female,2022-04-28_11h56.09.621,Main,2022.1.1,59.98156166774576,
neutral,neutral,1,k,k,,,,,,,,,1,1,19,1,,,,,,,,,,,,,,,,,,,,,,,,main,2,2,1,neutral,neutral,k,k,1,0.6108401000001322,177.19536619999963,178.21374920000017,178.17473210000026,None,177.19536619999963,None,177.19536619999963,None,177.19536619999963,None,178.79079099999998,None,178.79079099999998,None,178.79079099999998,None,,,,,,,,,,,205,24,Female,2022-04-28_11h56.09.621,Main,2022.1.1,59.98156166774576,
negative,positive,1,j,l,,,,,,,,,1,2,20,6,,,,,,,,,,,,,,,,,,,,,,,,main,1,1,1,positive,negative,l,l,1,0.7129412999993292,178.8107573999996,179.83964169999945,179.79172969999945,None,178.8107573999996,None,178.8107573999996,None,178.8107573999996,None,180.50581920000022,None,180.50581920000022,None,180.50581920000022,None,,,,,,,,,,,205,24,Female,2022-04-28_11h56.09.621,Main,2022.1.1,59.98156166774576,
positive,neutral,1,l,j,,,,,,,,,1,3,21,8,,,,,,,,,,,,,,,,,,,,,,,,main,1,1,1,neutral,positive,j,j,1,0.6600773999998637,180.52672119999988,181.54658930000005,181.5078039,None,180.52672119999988,None,180.52672119999988,None,180.52672119999988,None,182.1668915999995,None,182.1668915999995,None,182.1668915999995,None,,,,,,,,,,,205,24,Female,2022-04-28_11h56.09.621,Main,2022.1.1,59.98156166774576,
negative,neutral,2,j,l,,,,,,,,,1,4,22,12,,,,,,,,,,,,,,,,,,,,,,,,main,2,2,2,neutral,negative,l,l,1,0.6767250000002605,182.18768720000025,183.2049565999996,183.16643019999992,None,182.18768720000025,None,182.18768720000025,None,182.18768720000025,None,183.84576699999943,None,183.84576699999943,None,183.84576699999943,None,,,,,,,,,,,205,24,Female,2022-04-28_11h56.09.621,Main,2022.1.1,59.98156166774576,
positive,positive,2,l,j,,,,,,,,,1,5,23,11,,,,,,,,,,,,,,,,,,,,,,,,main,2,2,2,positive,positive,j,j,1,0.629553499999929,183.86698220000017,184.87551949999943,184.85566569999992,None,183.86698220000017,None,183.86698220000017,None,183.86698220000017,None,185.47804779999987,None,185.47804779999987,None,185.47804779999987,None,,,,,,,,,,,205,24,Female,2022-04-28_11h56.09.621,Main,2022.1.1,59.98156166774576,
neutral,positive,2,k,k,,,,,,,,,1,6,24,13,,,,,,,,,,,,,,,,,,,,,,,,main,2,2,2,positive,neutral,k,k,1,0.5464844999996785,185.4987517999998,186.50419349999993,186.48476879999998,None,185.4987517999998,None,185.4987517999998,None,185.4987517999998,None,187.02715849999967,None,187.02715849999967,None,187.02715849999967,None,,,,,,,,,,,205,24,Female,2022-04-28_11h56.09.621,Main,2022.1.1,59.98156166774576,
neutral,positive,1,k,k,,,,,,,,,1,7,25,4,,,,,,,,,,,,,,,,,,,,,,,,main,2,2,1,positive,neutral,k,k,1,0.5488599000000249,187.04716610000014,188.05495679999967,188.03432919999977,None,187.04716610000014,None,187.04716610000014,None,187.04716610000014,None,188.5776313000002,None,188.5776313000002,None,188.5776313000002,None,,,,,,,,,,,205,24,Female,2022-04-28_11h56.09.621,Main,2022.1.1,59.98156166774576,
positive,negative,1,l,j,,,,,,,,,1,8,26,5,,,,,,,,,,,,,,,,,,,,,,,,main,1,1,1,negative,positive,j,j,1,0.5531423000002178,188.59913499999948,189.60939489999964,189.58957050000026,None,188.59913499999948,None,188.59913499999948,None,188.59913499999948,None,190.13543100000024,None,190.13543100000024,None,190.13543100000024,None,,,,,,,,,,,205,24,Female,2022-04-28_11h56.09.621,Main,2022.1.1,59.98156166774576,
neutral,neutral,2,k,k,,,,,,,,,1,9,27,10,,,,,,,,,,,,,,,,,,,,,,,,main,2,2,2,neutral,neutral,k,k,1,0.7518832000005204,190.1548468000001,191.1570273999996,191.13762889999998,None,190.1548468000001,None,190.1548468000001,None,190.1548468000001,None,191.88842359999998,None,191.88842359999998,None,191.88842359999998,None,,,,,,,,,,,205,24,Female,2022-04-28_11h56.09.621,Main,2022.1.1,59.98156166774576,
negative,positive,2,j,l,,,,,,,,,1,10,28,15,,,,,,,,,,,,,,,,,,,,,,,,main,2,2,2,positive,negative,l,l,1,0.6958792000004905,191.9111587999996,192.92559509999955,192.8873212999997,None,191.9111587999996,None,191.9111587999996,None,191.9111587999996,None,193.58955419999947,None,193.58955419999947,None,193.58955419999947,None,,,,,,,,,,,205,24,Female,2022-04-28_11h56.09.621,Main,2022.1.1,59.98156166774576,
negative,negative,1,j,l,,,,,,,,,1,11,29,0,,,,,,,,,,,,,,,,,,,,,,,,main,1,1,1,negative,negative,l,l,1,0.6036764000000403,193.61037269999997,194.6129291999996,194.59418769999957,None,193.61037269999997,None,193.61037269999997,None,193.61037269999997,None,195.19563770000022,None,195.19563770000022,None,195.19563770000022,None,,,,,,,,,,,205,24,Female,2022-04-28_11h56.09.621,Main,2022.1.1,59.98156166774576,
negative,neutral,1,j,l,,,,,,,,,1,12,30,3,,,,,,,,,,,,,,,,,,,,,,,,main,2,2,1,neutral,negative,l,l,1,0.5787362999999459,195.21983269999964,196.23715749999974,196.19812329999968,None,195.21983269999964,None,195.21983269999964,None,195.21983269999964,None,196.77686169999978,None,196.77686169999978,None,196.77686169999978,None,,,,,,,,,,,205,24,Female,2022-04-28_11h56.09.621,Main,2022.1.1,59.98156166774576,
positive,positive,1,l,j,,,,,,,,,1,13,31,2,,,,,,,,,,,,,,,,,,,,,,,,main,2,2,1,positive,positive,j,j,1,0.5705453999999008,196.79800109999996,197.80591469999945,197.7860267999995,None,196.79800109999996,None,196.79800109999996,None,196.79800109999996,None,198.35213689999964,None,198.35213689999964,None,198.35213689999964,None,,,,,,,,,,,205,24,Female,2022-04-28_11h56.09.621,Main,2022.1.1,59.98156166774576,
neutral,negative,2,k,k,,,,,,,,,1,14,32,16,,,,,,,,,,,,,,,,,,,,,,,,main,2,2,2,negative,neutral,k,k,1,0.6639459999996689,198.37302670000008,199.38338380000005,199.36288259999947,None,198.37302670000008,None,198.37302670000008,None,198.37302670000008,None,200.01932209999958,None,200.01932209999958,None,200.01932209999958,None,,,,,,,,,,,205,24,Female,2022-04-28_11h56.09.621,Main,2022.1.1,59.98156166774576,
positive,neutral,2,l,j,,,,,,,,,1,15,33,17,,,,,,,,,,,,,,,,,,,,,,,,main,2,2,2,neutral,positive,j,j,1,0.5192557999998826,200.04023869999946,201.05394350000006,201.0141778999996,None,200.04023869999946,None,200.04023869999946,None,200.04023869999946,None,201.54041019999985,None,201.54041019999985,None,201.54041019999985,None,,,,,,,,,,,205,24,Female,2022-04-28_11h56.09.621,Main,2022.1.1,59.98156166774576,
neutral,negative,1,k,k,,,,,,,,,1,16,34,7,,,,,,,,,,,,,,,,,,,,,,,,main,2,2,1,negative,neutral,k,k,1,0.8763716000003114,201.56168679999973,202.56944980000026,202.55030559999977,None,201.56168679999973,None,201.56168679999973,None,201.56168679999973,None,203.42119650000004,None,203.42119650000004,None,203.42119650000004,None,,,,,,,,,,,205,24,Female,2022-04-28_11h56.09.621,Main,2022.1.1,59.98156166774576,
positive,negative,2,l,j,,,,,,,,,1,17,35,14,,,,,,,,,,,,,,,,,,,,,,,,main,2,2,2,negative,positive,j,j,1,0.6212493000002723,203.4420358999996,204.44515739999952,204.42623850000018,None,203.4420358999996,None,203.4420358999996,None,203.4420358999996,None,205.04520959999954,None,205.04520959999954,None,205.04520959999954,None,,,,,,,,,,,205,24,Female,2022-04-28_11h56.09.621,Main,2022.1.1,59.98156166774576,
negative,negative,2,j,l,,,,,,,,,2,0,36,9,,,,,,,,,,,,,,,,,,,,,,,,main,2,2,2,negative,negative,l,j,0,0.5429341999997632,205.06514960000004,206.0678442999997,206.04822999999942,None,205.06514960000004,None,205.06514960000004,None,205.06514960000004,None,206.60054320000017,None,206.60054320000017,None,206.60054320000017,None,,,,,,,,,,,205,24,Female,2022-04-28_11h56.09.621,Main,2022.1.1,59.98156166774576,
negative,negative,1,j,l,,,,,,,,,2,1,37,0,,,,,,,,,,,,,,,,,,,,,,,,main,2,2,1,negative,negative,l,l,1,0.7825702000000092,207.6136507000001,208.63505799999984,208.59579459999986,None,207.6136507000001,None,207.6136507000001,None,207.6136507000001,None,209.37607850000003,None,209.37607850000003,None,209.37607850000003,None,,,,,,,,,,,205,24,Female,2022-04-28_11h56.09.621,Main,2022.1.1,59.98156166774576,
neutral,negative,1,k,k,,,,,,,,,2,2,38,7,,,,,,,,,,,,,,,,,,,,,,,,main,2,2,1,negative,neutral,k,k,1,0.5872977999997602,209.39767969999957,210.40441740000006,210.38450980000016,None,209.39767969999957,None,209.39767969999957,None,209.39767969999957,None,210.96823619999995,None,210.96823619999995,None,210.96823619999995,None,,,,,,,,,,,205,24,Female,2022-04-28_11h56.09.621,Main,2022.1.1,59.98156166774576,
positive,negative,2,l,j,,,,,,,,,2,3,39,14,,,,,,,,,,,,,,,,,,,,,,,,main,1,1,2,negative,positive,j,j,1,0.5926231000003099,210.98825620000025,211.99576849999994,211.9773121999997,None,210.98825620000025,None,210.98825620000025,None,210.98825620000025,None,212.5617933999998,None,212.5617933999998,None,212.5617933999998,None,,,,,,,,,,,205,24,Female,2022-04-28_11h56.09.621,Main,2022.1.1,59.98156166774576,
negative,neutral,2,j,l,,,,,,,,,2,4,40,12,,,,,,,,,,,,,,,,,,,,,,,,main,2,2,2,neutral,negative,l,l,1,0.5659703000001173,212.5836121000002,213.60451360000025,213.5648302999998,None,212.5836121000002,None,212.5836121000002,None,212.5836121000002,None,214.13124320000006,None,214.13124320000006,None,214.13124320000006,None,,,,,,,,,,,205,24,Female,2022-04-28_11h56.09.621,Main,2022.1.1,59.98156166774576,
positive,negative,1,l,j,,,,,,,,,2,5,41,5,,,,,,,,,,,,,,,,,,,,,,,,main,2,2,1,negative,positive,j,j,1,0.6311679999998887,214.15251249999983,215.16188369999963,215.14296809999996,None,214.15251249999983,None,214.15251249999983,None,214.15251249999983,None,215.76550319999987,None,215.76550319999987,None,215.76550319999987,None,,,,,,,,,,,205,24,Female,2022-04-28_11h56.09.621,Main,2022.1.1,59.98156166774576,
positive,neutral,1,l,j,,,,,,,,,2,6,42,8,,,,,,,,,,,,,,,,,,,,,,,,main,1,1,1,neutral,positive,j,j,1,0.7520482999998421,215.78525170000012,216.79190190000008,216.77402209999946,None,215.78525170000012,None,215.78525170000012,None,215.78525170000012,None,217.52029459999957,None,217.52029459999957,None,217.52029459999957,None,,,,,,,,,,,205,24,Female,2022-04-28_11h56.09.621,Main,2022.1.1,59.98156166774576,
positive,positive,2,l,j,,,,,,,,,2,7,43,11,,,,,,,,,,,,,,,,,,,,,,,,main,1,1,2,positive,positive,j,j,1,0.5997606000000815,217.54062280000016,218.55980360000012,218.5226017999994,None,217.54062280000016,None,217.54062280000016,None,217.54062280000016,None,219.12180719999978,None,219.12180719999978,None,219.12180719999978,None,,,,,,,,,,,205,24,Female,2022-04-28_11h56.09.621,Main,2022.1.1,59.98156166774576,
neutral,negative,2,k,k,,,,,,,,,2,8,44,16,,,,,,,,,,,,,,,,,,,,,,,,main,1,1,2,negative,neutral,k,k,1,0.5142922000004546,219.14348040000004,220.15769029999956,220.1205030000001,None,219.14348040000004,None,219.14348040000004,None,219.14348040000004,None,220.63899809999984,None,220.63899809999984,None,220.63899809999984,None,,,,,,,,,,,205,24,Female,2022-04-28_11h56.09.621,Main,2022.1.1,59.98156166774576,
positive,positive,1,l,j,,,,,,,,,2,9,45,2,,,,,,,,,,,,,,,,,,,,,,,,main,1,1,1,positive,positive,j,j,1,0.5214178000005631,220.65951200000018,221.67433579999943,221.63473019999947,None,220.65951200000018,None,220.65951200000018,None,220.65951200000018,None,222.1648433999995,None,222.1648433999995,None,222.1648433999995,None,,,,,,,,,,,205,24,Female,2022-04-28_11h56.09.621,Main,2022.1.1,59.98156166774576,
neutral,positive,1,k,k,,,,,,,,,2,10,46,4,,,,,,,,,,,,,,,,,,,,,,,,main,2,2,1,positive,neutral,k,l,0,0.5451255999996647,222.18583359999957,223.2043939999994,223.16450309999982,None,222.18583359999957,None,222.18583359999957,None,222.18583359999957,None,223.7161704,None,223.7161704,None,223.7161704,None,,,,,,,,,,,205,24,Female,2022-04-28_11h56.09.621,Main,2022.1.1,59.98156166774576,
positive,neutral,2,l,j,,,,,,,,,2,11,47,17,,,,,,,,,,,,,,,,,,,,,,,,main,1,1,2,neutral,positive,j,j,1,0.6442305999999007,224.72742310000012,225.73541339999974,225.71559109999998,None,224.72742310000012,None,224.72742310000012,None,224.72742310000012,None,226.3537940000002,None,226.3537940000002,None,226.3537940000002,None,,,,,,,,,,,205,24,Female,2022-04-28_11h56.09.621,Main,2022.1.1,59.98156166774576,
negative,positive,1,j,l,,,,,,,,,2,12,48,6,,,,,,,,,,,,,,,,,,,,,,,,main,2,2,1,positive,negative,l,l,1,0.6652300999994623,226.3757746000001,227.37859949999984,227.3590039999999,None,226.3757746000001,None,226.3757746000001,None,226.3757746000001,None,228.02134859999987,None,228.02134859999987,None,228.02134859999987,None,,,,,,,,,,,205,24,Female,2022-04-28_11h56.09.621,Main,2022.1.1,59.98156166774576,
negative,neutral,1,j,l,,,,,,,,,2,13,49,3,,,,,,,,,,,,,,,,,,,,,,,,main,1,1,1,neutral,negative,l,l,1,0.5889290000004621,228.04226649999964,229.05492009999944,229.01584430000003,None,228.04226649999964,None,228.04226649999964,None,228.04226649999964,None,229.61483499999994,None,229.61483499999994,None,229.61483499999994,None,,,,,,,,,,,205,24,Female,2022-04-28_11h56.09.621,Main,2022.1.1,59.98156166774576,
negative,positive,2,j,l,,,,,,,,,2,14,50,15,,,,,,,,,,,,,,,,,,,,,,,,main,2,2,2,positive,negative,l,l,1,0.8170458999993571,229.63436730000012,230.65552279999974,230.6157235999999,None,229.63436730000012,None,229.63436730000012,None,229.63436730000012,None,231.43415849999982,None,231.43415849999982,None,231.43415849999982,None,,,,,,,,,,,205,24,Female,2022-04-28_11h56.09.621,Main,2022.1.1,59.98156166774576,
neutral,neutral,2,k,k,,,,,,,,,2,15,51,10,,,,,,,,,,,,,,,,,,,,,,,,main,2,2,2,neutral,neutral,k,k,1,0.5509880999998131,231.45447739999963,232.4652989999995,232.4274403999998,None,231.45447739999963,None,231.45447739999963,None,231.45447739999963,None,232.98809479999963,None,232.98809479999963,None,232.98809479999963,None,,,,,,,,,,,205,24,Female,2022-04-28_11h56.09.621,Main,2022.1.1,59.98156166774576,
neutral,positive,2,k,k,,,,,,,,,2,16,52,13,,,,,,,,,,,,,,,,,,,,,,,,main,2,2,2,positive,neutral,k,k,1,0.5100465999994412,233.0079913999998,234.0134054,233.99405849999948,None,233.0079913999998,None,233.0079913999998,None,233.0079913999998,None,234.50196190000005,None,234.50196190000005,None,234.50196190000005,None,,,,,,,,,,,205,24,Female,2022-04-28_11h56.09.621,Main,2022.1.1,59.98156166774576,
neutral,neutral,1,k,k,,,,,,,,,2,17,53,1,,,,,,,,,,,,,,,,,,,,,,,,main,1,1,1,neutral,neutral,k,k,1,0.538842900000418,234.5226173000001,235.54615860000013,235.4978430000001,None,234.5226173000001,None,234.5226173000001,None,234.5226173000001,None,236.0452360999994,None,236.0452360999994,None,236.0452360999994,None,,,,,,,,,,,205,24,Female,2022-04-28_11h56.09.621,Main,2022.1.1,59.98156166774576,
positive,neutral,2,l,j,,,,,,,,,3,0,54,17,,,,,,,,,,,,,,,,,,,,,,,,main,2,2,2,neutral,positive,j,j,1,0.619851400000698,236.06502290000026,237.08560239999952,237.0461819000002,None,236.06502290000026,None,236.06502290000026,None,236.06502290000026,None,237.66775199999992,None,237.66775199999992,None,237.66775199999992,None,,,,,,,,,,,205,24,Female,2022-04-28_11h56.09.621,Main,2022.1.1,59.98156166774576,
positive,negative,2,l,j,,,,,,,,,3,1,55,14,,,,,,,,,,,,,,,,,,,,,,,,main,2,2,2,negative,positive,j,j,1,0.574023600000146,237.68960229999993,238.7057808999998,238.6671424999995,None,237.68960229999993,None,237.68960229999993,None,237.68960229999993,None,239.2463523000002,None,239.2463523000002,None,239.2463523000002,None,,,,,,,,,,,205,24,Female,2022-04-28_11h56.09.621,Main,2022.1.1,59.98156166774576,
neutral,negative,2,k,k,,,,,,,,,3,2,56,16,,,,,,,,,,,,,,,,,,,,,,,,main,1,1,2,negative,neutral,k,k,1,0.5897769000002882,239.26645459999963,240.2761190000001,240.25730899999962,None,239.26645459999963,None,239.26645459999963,None,239.26645459999963,None,240.83683470000014,None,240.83683470000014,None,240.83683470000014,None,,,,,,,,,,,205,24,Female,2022-04-28_11h56.09.621,Main,2022.1.1,59.98156166774576,
neutral,neutral,1,k,k,,,,,,,,,3,3,57,1,,,,,,,,,,,,,,,,,,,,,,,,main,1,1,1,neutral,neutral,k,k,1,0.48554320000039297,240.85667509999985,241.86444159999974,241.84467679999943,None,240.85667509999985,None,240.85667509999985,None,240.85667509999985,None,242.3269639999995,None,242.3269639999995,None,242.3269639999995,None,,,,,,,,,,,205,24,Female,2022-04-28_11h56.09.621,Main,2022.1.1,59.98156166774576,
negative,positive,2,j,l,,,,,,,,,3,4,58,15,,,,,,,,,,,,,,,,,,,,,,,,main,1,1,2,positive,negative,l,l,1,0.762229699999807,242.34714669999994,243.3549769000001,243.33618399999978,None,242.34714669999994,None,242.34714669999994,None,242.34714669999994,None,244.08979679999956,None,244.08979679999956,None,244.08979679999956,None,,,,,,,,,,,205,24,Female,2022-04-28_11h56.09.621,Main,2022.1.1,59.98156166774576,
negative,positive,1,j,l,,,,,,,,,3,5,59,6,,,,,,,,,,,,,,,,,,,,,,,,main,1,1,1,positive,negative,l,l,1,0.645121200000176,244.1112831999999,245.13401040000008,245.0931413999997,None,244.1112831999999,None,244.1112831999999,None,244.1112831999999,None,245.73712849999956,None,245.73712849999956,None,245.73712849999956,None,,,,,,,,,,,205,24,Female,2022-04-28_11h56.09.621,Main,2022.1.1,59.98156166774576,
positive,negative,1,l,j,,,,,,,,,3,6,60,5,,,,,,,,,,,,,,,,,,,,,,,,main,2,2,1,negative,positive,j,j,1,0.7619838000000527,245.7588297000002,246.76037089999954,246.74133220000022,None,245.7588297000002,None,245.7588297000002,None,245.7588297000002,None,247.50258999999969,None,247.50258999999969,None,247.50258999999969,None,,,,,,,,,,,205,24,Female,2022-04-28_11h56.09.621,Main,2022.1.1,59.98156166774576,
positive,positive,1,l,j,,,,,,,,,3,7,61,2,,,,,,,,,,,,,,,,,,,,,,,,main,1,1,1,positive,positive,j,j,1,0.6575596000002406,247.52287960000012,248.53963849999946,248.5000457999995,None,247.52287960000012,None,247.52287960000012,None,247.52287960000012,None,249.16385520000003,None,249.16385520000003,None,249.16385520000003,None,,,,,,,,,,,205,24,Female,2022-04-28_11h56.09.621,Main,2022.1.1,59.98156166774576,
neutral,positive,2,k,k,,,,,,,,,3,8,62,13,,,,,,,,,,,,,,,,,,,,,,,,main,2,2,2,positive,neutral,k,k,1,0.5147619999997914,249.1855956999998,250.2106643999996,250.1632493999996,None,249.1855956999998,None,249.1855956999998,None,249.1855956999998,None,250.68115170000019,None,250.68115170000019,None,250.68115170000019,None,,,,,,,,,,,205,24,Female,2022-04-28_11h56.09.621,Main,2022.1.1,59.98156166774576,
positive,neutral,1,l,j,,,,,,,,,3,9,63,8,,,,,,,,,,,,,,,,,,,,,,,,main,2,2,1,neutral,positive,j,j,1,0.6515262000002622,250.70226959999945,251.71357249999983,251.6939311999995,None,250.70226959999945,None,250.70226959999945,None,250.70226959999945,None,252.33415289999957,None,252.33415289999957,None,252.33415289999957,None,,,,,,,,,,,205,24,Female,2022-04-28_11h56.09.621,Main,2022.1.1,59.98156166774576,
negative,neutral,1,j,l,,,,,,,,,3,10,64,3,,,,,,,,,,,,,,,,,,,,,,,,main,2,2,1,neutral,negative,l,l,1,0.7372817999994368,252.35545600000023,253.35994599999958,253.3410603000002,None,252.35545600000023,None,252.35545600000023,None,252.35545600000023,None,254.07596079999948,None,254.07596079999948,None,254.07596079999948,None,,,,,,,,,,,205,24,Female,2022-04-28_11h56.09.621,Main,2022.1.1,59.98156166774576,
negative,negative,2,j,l,,,,,,,,,3,11,65,9,,,,,,,,,,,,,,,,,,,,,,,,main,1,1,2,negative,negative,l,l,1,0.7465612000005422,254.09652970000025,255.1095948000002,255.0726512000001,None,254.09652970000025,None,254.09652970000025,None,254.09652970000025,None,255.82551010000006,None,255.82551010000006,None,255.82551010000006,None,,,,,,,,,,,205,24,Female,2022-04-28_11h56.09.621,Main,2022.1.1,59.98156166774576,
neutral,neutral,2,k,k,,,,,,,,,3,12,66,10,,,,,,,,,,,,,,,,,,,,,,,,main,2,2,2,neutral,neutral,k,k,1,0.6750299000004816,255.84508360000018,256.85064319999947,256.8312129999995,None,255.84508360000018,None,255.84508360000018,None,255.84508360000018,None,257.5015915,None,257.5015915,None,257.5015915,None,,,,,,,,,,,205,24,Female,2022-04-28_11h56.09.621,Main,2022.1.1,59.98156166774576,
negative,neutral,2,j,l,,,,,,,,,3,13,67,12,,,,,,,,,,,,,,,,,,,,,,,,main,1,1,2,neutral,negative,l,l,1,0.7399806000003082,257.52230099999997,258.53428689999964,258.4949596999995,None,257.52230099999997,None,257.52230099999997,None,257.52230099999997,None,259.2459691999999,None,259.2459691999999,None,259.2459691999999,None,,,,,,,,,,,205,24,Female,2022-04-28_11h56.09.621,Main,2022.1.1,59.98156166774576,
positive,positive,2,l,j,,,,,,,,,3,14,68,11,,,,,,,,,,,,,,,,,,,,,,,,main,1,1,2,positive,positive,j,j,1,0.6966425000000527,259.26715629999944,260.27578600000015,260.2565975999996,None,259.26715629999944,None,259.26715629999944,None,259.26715629999944,None,260.9450327999999,None,260.9450327999999,None,260.9450327999999,None,,,,,,,,,,,205,24,Female,2022-04-28_11h56.09.621,Main,2022.1.1,59.98156166774576,
negative,negative,1,j,l,,,,,,,,,3,15,69,0,,,,,,,,,,,,,,,,,,,,,,,,main,1,1,1,negative,negative,l,l,1,0.6600406000006842,260.96745959999953,261.9834826999995,261.9444218999997,None,260.96745959999953,None,260.96745959999953,None,260.96745959999953,None,262.60472699999957,None,262.60472699999957,None,262.60472699999957,None,,,,,,,,,,,205,24,Female,2022-04-28_11h56.09.621,Main,2022.1.1,59.98156166774576,
neutral,positive,1,k,k,,,,,,,,,3,16,70,4,,,,,,,,,,,,,,,,,,,,,,,,main,1,1,1,positive,neutral,k,k,1,0.748321300000498,262.6259092999999,263.6420261000003,263.60411529999965,None,262.6259092999999,None,262.6259092999999,None,262.6259092999999,None,264.35498509999945,None,264.35498509999945,None,264.35498509999945,None,,,,,,,,,,,205,24,Female,2022-04-28_11h56.09.621,Main,2022.1.1,59.98156166774576,
neutral,negative,1,k,k,,,,,,,,,3,17,71,7,,,,,,,,,,,,,,,,,,,,,,,,main,2,2,1,negative,neutral,k,k,1,0.6338779999996405,264.37674739999966,265.39090099999976,265.35238130000016,None,264.37674739999966,None,264.37674739999966,None,264.37674739999966,None,265.9948909000001,None,265.9948909000001,None,265.9948909000001,None,,,,,,,,,,,205,24,Female,2022-04-28_11h56.09.621,Main,2022.1.1,59.98156166774576,
positive,positive,1,l,j,,,,,,,,,4,0,72,2,,,,,,,,,,,,,,,,,,,,,,,,main,2,2,1,positive,positive,j,j,1,0.7905230999995183,266.0157253999996,267.0187845999999,266.99995390000004,None,266.0157253999996,None,266.0157253999996,None,266.0157253999996,None,267.78561129999946,None,267.78561129999946,None,267.78561129999946,None,,,,,,,,,,,205,24,Female,2022-04-28_11h56.09.621,Main,2022.1.1,59.98156166774576,
neutral,negative,2,k,k,,,,,,,,,4,1,73,16,,,,,,,,,,,,,,,,,,,,,,,,main,2,2,2,negative,neutral,k,k,1,0.6637017000002743,267.8072665999998,268.8187068999996,268.7821079999994,None,267.8072665999998,None,267.8072665999998,None,267.8072665999998,None,269.45061189999944,None,269.45061189999944,None,269.45061189999944,None,,,,,,,,,,,205,24,Female,2022-04-28_11h56.09.621,Main,2022.1.1,59.98156166774576,
neutral,negative,1,k,k,,,,,,,,,4,2,74,7,,,,,,,,,,,,,,,,,,,,,,,,main,2,2,1,negative,neutral,k,k,1,0.7207476000003226,269.4729589999997,270.4807843999997,270.4613983999998,None,269.4729589999997,None,269.4729589999997,None,269.4729589999997,None,271.1756753999995,None,271.1756753999995,None,271.1756753999995,None,,,,,,,,,,,205,24,Female,2022-04-28_11h56.09.621,Main,2022.1.1,59.98156166774576,
negative,neutral,1,j,l,,,,,,,,,4,3,75,3,,,,,,,,,,,,,,,,,,,,,,,,main,2,2,1,neutral,negative,l,l,1,0.7440929999993386,271.19729370000005,272.2036724999998,272.1845813,None,271.19729370000005,None,271.19729370000005,None,271.19729370000005,None,272.9216677999999,None,272.9216677999999,None,272.9216677999999,None,,,,,,,,,,,205,24,Female,2022-04-28_11h56.09.621,Main,2022.1.1,59.98156166774576,
positive,neutral,1,l,j,,,,,,,,,4,4,76,8,,,,,,,,,,,,,,,,,,,,,,,,main,1,1,1,neutral,positive,j,j,1,0.6790879000000132,272.94273710000016,273.96249780000016,273.9242806000002,None,272.94273710000016,None,272.94273710000016,None,272.94273710000016,None,274.60308829999997,None,274.60308829999997,None,274.60308829999997,None,,,,,,,,,,,205,24,Female,2022-04-28_11h56.09.621,Main,2022.1.1,59.98156166774576,
negative,positive,1,j,l,,,,,,,,,4,5,77,6,,,,,,,,,,,,,,,,,,,,,,,,main,2,2,1,positive,negative,l,l,1,0.7107034999999087,274.62730809999994,275.63205389999985,275.61296159999984,None,274.62730809999994,None,274.62730809999994,None,274.62730809999994,None,276.31693119999966,None,276.31693119999966,None,276.31693119999966,None,,,,,,,,,,,205,24,Female,2022-04-28_11h56.09.621,Main,2022.1.1,59.98156166774576,
neutral,neutral,2,k,k,,,,,,,,,4,6,78,10,,,,,,,,,,,,,,,,,,,,,,,,main,2,2,2,neutral,neutral,k,k,1,0.6413143999998283,276.33837669999957,277.3396917,277.3227353000002,None,276.33837669999957,None,276.33837669999957,None,276.33837669999957,None,277.96272159999955,None,277.96272159999955,None,277.96272159999955,None,,,,,,,,,,,205,24,Female,2022-04-28_11h56.09.621,Main,2022.1.1,59.98156166774576,
negative,negative,2,j,l,,,,,,,,,4,7,79,9,,,,,,,,,,,,,,,,,,,,,,,,main,1,1,2,negative,negative,l,l,1,0.808023300000059,277.9846413999994,278.98661339999944,278.96772969999984,None,277.9846413999994,None,277.9846413999994,None,277.9846413999994,None,279.7765077,None,279.7765077,None,279.7765077,None,,,,,,,,,,,205,24,Female,2022-04-28_11h56.09.621,Main,2022.1.1,59.98156166774576,
positive,neutral,2,l,j,,,,,,,,,4,8,80,17,,,,,,,,,,,,,,,,,,,,,,,,main,1,1,2,neutral,positive,j,j,1,0.6958377999999357,279.7967010000002,280.81267169999956,280.7732535999994,None,279.7967010000002,None,279.7967010000002,None,279.7967010000002,None,281.4749559999997,None,281.4749559999997,None,281.4749559999997,None,,,,,,,,,,,205,24,Female,2022-04-28_11h56.09.621,Main,2022.1.1,59.98156166774576,
negative,negative,1,j,l,,,,,,,,,4,9,81,0,,,,,,,,,,,,,,,,,,,,,,,,main,1,1,1,negative,negative,l,l,1,0.7121136000005208,281.4955807999995,282.5089846000001,282.47061979999944,None,281.4955807999995,None,281.4955807999995,None,281.4955807999995,None,283.1879640000003,None,283.1879640000003,None,283.1879640000003,None,,,,,,,,,,,205,24,Female,2022-04-28_11h56.09.621,Main,2022.1.1,59.98156166774576,
neutral,neutral,1,k,k,,,,,,,,,4,10,82,1,,,,,,,,,,,,,,,,,,,,,,,,main,1,1,1,neutral,neutral,k,k,1,0.62723140000071,283.2075887000001,284.2223849000002,284.18392399999993,None,283.2075887000001,None,283.2075887000001,None,283.2075887000001,None,284.8172691999995,None,284.8172691999995,None,284.8172691999995,None,,,,,,,,,,,205,24,Female,2022-04-28_11h56.09.621,Main,2022.1.1,59.98156166774576,
neutral,positive,2,k,k,,,,,,,,,4,11,83,13,,,,,,,,,,,,,,,,,,,,,,,,main,1,1,2,positive,neutral,k,k,1,0.6391716999996788,284.83842939999977,285.8414194999996,285.8220738,None,284.83842939999977,None,284.83842939999977,None,284.83842939999977,None,286.45926329999986,None,286.45926329999986,None,286.45926329999986,None,,,,,,,,,,,205,24,Female,2022-04-28_11h56.09.621,Main,2022.1.1,59.98156166774576,
positive,positive,2,l,j,,,,,,,,,4,12,84,11,,,,,,,,,,,,,,,,,,,,,,,,main,1,1,2,positive,positive,j,j,1,0.9852931999994325,286.48194799999965,287.4857025000001,287.4666516999996,None,286.48194799999965,None,286.48194799999965,None,286.48194799999965,None,288.4478562999999,None,288.4478562999999,None,288.4478562999999,None,,,,,,,,,,,205,24,Female,2022-04-28_11h56.09.621,Main,2022.1.1,59.98156166774576,
positive,negative,1,l,j,,,,,,,,,4,13,85,5,,,,,,,,,,,,,,,,,,,,,,,,main,1,1,1,negative,positive,j,j,1,0.634678399999757,288.46946000000025,289.4841940999995,289.4462660999998,None,288.46946000000025,None,288.46946000000025,None,288.46946000000025,None,290.0881178999995,None,290.0881178999995,None,290.0881178999995,None,,,,,,,,,,,205,24,Female,2022-04-28_11h56.09.621,Main,2022.1.1,59.98156166774576,
negative,positive,2,j,l,,,,,,,,,4,14,86,15,,,,,,,,,,,,,,,,,,,,,,,,main,2,2,2,positive,negative,l,l,1,0.6664109999992434,290.1084781999998,291.1216878999994,291.0828038999998,None,290.1084781999998,None,290.1084781999998,None,290.1084781999998,None,291.7567422999997,None,291.7567422999997,None,291.7567422999997,None,,,,,,,,,,,205,24,Female,2022-04-28_11h56.09.621,Main,2022.1.1,59.98156166774576,
negative,neutral,2,j,l,,,,,,,,,4,15,87,12,,,,,,,,,,,,,,,,,,,,,,,,main,1,1,2,neutral,negative,l,l,1,0.6381385000004229,291.77635910000026,292.78055159999985,292.7616759000002,None,291.77635910000026,None,291.77635910000026,None,291.77635910000026,None,293.3955731000002,None,293.3955731000002,None,293.3955731000002,None,,,,,,,,,,,205,24,Female,2022-04-28_11h56.09.621,Main,2022.1.1,59.98156166774576,
positive,negative,2,l,j,,,,,,,,,4,16,88,14,,,,,,,,,,,,,,,,,,,,,,,,main,1,1,2,negative,positive,j,j,1,0.6826897999999346,293.41630949999944,294.43534999999974,294.39703889999964,None,293.41630949999944,None,293.41630949999944,None,293.41630949999944,None,295.08082650000017,None,295.08082650000017,None,295.08082650000017,None,,,,,,,,,,,205,24,Female,2022-04-28_11h56.09.621,Main,2022.1.1,59.98156166774576,
neutral,positive,1,k,k,,,,,,,,,4,17,89,4,,,,,,,,,,,,,,,,,,,,,,,,main,2,2,1,positive,neutral,k,k,1,0.5618950999996741,295.10328560000016,296.1066363,296.0872572999997,None,295.10328560000016,None,295.10328560000016,None,295.10328560000016,None,296.6457025999995,None,296.6457025999995,None,296.6457025999995,None,,,,,,,,,,,205,24,Female,2022-04-28_11h56.09.621,Main,2022.1.1,59.98156166774576,
positive,positive,1,l,j,,,,,,,,,5,0,90,2,,,,,,,,,,,,,,,,,,,,,,,,main,1,1,1,positive,positive,j,j,1,0.5953199000005043,296.6661452999997,297.68246949999957,297.6437526999998,None,296.6661452999997,None,296.6661452999997,None,296.6661452999997,None,298.2447091,None,298.2447091,None,298.2447091,None,,,,,,,,,,,205,24,Female,2022-04-28_11h56.09.621,Main,2022.1.1,59.98156166774576,
neutral,negative,1,k,k,,,,,,,,,5,1,91,7,,,,,,,,,,,,,,,,,,,,,,,,main,1,1,1,negative,neutral,k,k,1,0.541292899999462,298.2666829,299.29026109999995,299.2430981999996,None,298.2666829,None,298.2666829,None,298.2666829,None,299.7902002999996,None,299.7902002999996,None,299.7902002999996,None,,,,,,,,,,,205,24,Female,2022-04-28_11h56.09.621,Main,2022.1.1,59.98156166774576,
positive,neutral,2,l,j,,,,,,,,,5,2,92,17,,,,,,,,,,,,,,,,,,,,,,,,main,2,2,2,neutral,positive,j,j,1,0.5884891999994579,299.81081149999955,300.8154420999999,300.7964874999998,None,299.81081149999955,None,299.81081149999955,None,299.81081149999955,None,301.37812129999986,None,301.37812129999986,None,301.37812129999986,None,,,,,,,,,,,205,24,Female,2022-04-28_11h56.09.621,Main,2022.1.1,59.98156166774576,
positive,negative,2,l,j,,,,,,,,,5,3,93,14,,,,,,,,,,,,,,,,,,,,,,,,main,2,2,2,negative,positive,j,j,1,0.5988923000004434,301.4000183999997,302.4003047999995,302.3823954999998,None,301.4000183999997,None,301.4000183999997,None,301.4000183999997,None,302.9802139999998,None,302.9802139999998,None,302.9802139999998,None,,,,,,,,,,,205,24,Female,2022-04-28_11h56.09.621,Main,2022.1.1,59.98156166774576,
positive,positive,2,l,j,,,,,,,,,5,4,94,11,,,,,,,,,,,,,,,,,,,,,,,,main,2,2,2,positive,positive,j,j,1,0.5510487000001376,303.00241430000005,304.00844249999955,303.9888030000002,None,303.00241430000005,None,303.00241430000005,None,303.00241430000005,None,304.5336596000003,None,304.5336596000003,None,304.5336596000003,None,,,,,,,,,,,205,24,Female,2022-04-28_11h56.09.621,Main,2022.1.1,59.98156166774576,
positive,negative,1,l,j,,,,,,,,,5,5,95,5,,,,,,,,,,,,,,,,,,,,,,,,main,2,2,1,negative,positive,j,j,1,0.6287820999996256,304.55472459999964,305.56758699999955,305.52787199999966,None,304.55472459999964,None,304.55472459999964,None,304.55472459999964,None,306.16448879999973,None,306.16448879999973,None,306.16448879999973,None,,,,,,,,,,,205,24,Female,2022-04-28_11h56.09.621,Main,2022.1.1,59.98156166774576,
neutral,positive,1,k,k,,,,,,,,,5,6,96,4,,,,,,,,,,,,,,,,,,,,,,,,main,2,2,1,positive,neutral,k,k,1,0.5356456999998045,306.18548379999993,307.20191259999956,307.1635379999998,None,306.18548379999993,None,306.18548379999993,None,306.18548379999993,None,307.70373559999973,None,307.70373559999973,None,307.70373559999973,None,,,,,,,,,,,205,24,Female,2022-04-28_11h56.09.621,Main,2022.1.1,59.98156166774576,
negative,positive,2,j,l,,,,,,,,,5,7,97,15,,,,,,,,,,,,,,,,,,,,,,,,main,1,1,2,positive,negative,l,l,1,0.6455378999999084,307.72509290000016,308.73630309999953,308.71698800000013,None,307.72509290000016,None,307.72509290000016,None,307.72509290000016,None,309.3532646,None,309.3532646,None,309.3532646,None,,,,,,,,,,,205,24,Female,2022-04-28_11h56.09.621,Main,2022.1.1,59.98156166774576,
neutral,positive,2,k,k,,,,,,,,,5,8,98,13,,,,,,,,,,,,,,,,,,,,,,,,main,2,2,2,positive,neutral,k,k,1,1.181287400000656,309.37348349999957,310.3769459999994,310.3576015999997,None,309.37348349999957,None,309.37348349999957,None,309.37348349999957,None,311.5371700000002,None,311.5371700000002,None,311.5371700000002,None,,,,,,,,,,,205,24,Female,2022-04-28_11h56.09.621,Main,2022.1.1,59.98156166774576,
neutral,negative,2,k,k,,,,,,,,,5,9,99,16,,,,,,,,,,,,,,,,,,,,,,,,main,2,2,2,negative,neutral,k,k,1,0.595436200000222,311.5568053999996,312.5745420000003,312.53539269999965,None,311.5568053999996,None,311.5568053999996,None,311.5568053999996,None,313.1350927999998,None,313.1350927999998,None,313.1350927999998,None,,,,,,,,,,,205,24,Female,2022-04-28_11h56.09.621,Main,2022.1.1,59.98156166774576,
negative,negative,1,j,l,,,,,,,,,5,10,100,0,,,,,,,,,,,,,,,,,,,,,,,,main,1,1,1,negative,negative,l,l,1,0.6931420999999318,313.1558788000002,314.17050709999967,314.1313602,None,313.1558788000002,None,313.1558788000002,None,313.1558788000002,None,314.82928309999954,None,314.82928309999954,None,314.82928309999954,None,,,,,,,,,,,205,24,Female,2022-04-28_11h56.09.621,Main,2022.1.1,59.98156166774576,
negative,neutral,1,j,l,,,,,,,,,5,11,101,3,,,,,,,,,,,,,,,,,,,,,,,,main,2,2,1,neutral,negative,l,l,1,0.6677692000002935,314.8501191999994,315.86261809999996,315.8249925,None,314.8501191999994,None,314.8501191999994,None,314.8501191999994,None,316.5007842000001,None,316.5007842000001,None,316.5007842000001,None,,,,,,,,,,,205,24,Female,2022-04-28_11h56.09.621,Main,2022.1.1,59.98156166774576,
negative,neutral,2,j,l,,,,,,,,,5,12,102,12,,,,,,,,,,,,,,,,,,,,,,,,main,2,2,2,neutral,negative,l,l,1,0.67663309999989,316.520528,317.53791720000027,317.4992173999999,None,316.520528,None,316.520528,None,316.520528,None,318.1781594,None,318.1781594,None,318.1781594,None,,,,,,,,,,,205,24,Female,2022-04-28_11h56.09.621,Main,2022.1.1,59.98156166774576,
negative,negative,2,j,l,,,,,,,,,5,13,103,9,,,,,,,,,,,,,,,,,,,,,,,,main,1,1,2,negative,negative,l,l,1,0.5692869999993491,318.1987731999998,319.2091056999998,319.1896859999997,None,318.1987731999998,None,318.1987731999998,None,318.1987731999998,None,319.7517187999998,None,319.7517187999998,None,319.7517187999998,None,,,,,,,,,,,205,24,Female,2022-04-28_11h56.09.621,Main,2022.1.1,59.98156166774576,
neutral,neutral,1,k,k,,,,,,,,,5,14,104,1,,,,,,,,,,,,,,,,,,,,,,,,main,1,1,1,neutral,neutral,k,k,1,0.7291087000003245,319.7716327999997,320.79151159999947,320.7525638999996,None,319.7716327999997,None,319.7716327999997,None,319.7716327999997,None,321.48359089999997,None,321.48359089999997,None,321.48359089999997,None,,,,,,,,,,,205,24,Female,2022-04-28_11h56.09.621,Main,2022.1.1,59.98156166774576,
negative,positive,1,j,l,,,,,,,,,5,15,105,6,,,,,,,,,,,,,,,,,,,,,,,,main,1,1,1,positive,negative,l,k,0,0.5446981000004598,321.5037321,322.5065261999998,322.4875965000001,None,321.5037321,None,321.5037321,None,321.5037321,None,323.0340263999997,None,323.0340263999997,None,323.0340263999997,None,,,,,,,,,,,205,24,Female,2022-04-28_11h56.09.621,Main,2022.1.1,59.98156166774576,
neutral,neutral,2,k,k,,,,,,,,,5,16,106,10,,,,,,,,,,,,,,,,,,,,,,,,main,2,2,2,neutral,neutral,k,k,1,0.639547799999491,324.04804369999965,325.06716309999956,325.02999569999974,None,324.04804369999965,None,324.04804369999965,None,324.04804369999965,None,325.6694197000003,None,325.6694197000003,None,325.6694197000003,None,,,,,,,,,,,205,24,Female,2022-04-28_11h56.09.621,Main,2022.1.1,59.98156166774576,
positive,neutral,1,l,j,,,,,,,,,5,17,107,8,,,,,,,,,,,,,,,,,,,,,,,,main,2,2,1,neutral,positive,j,j,1,0.7047050999999556,325.6912849,326.7009920999999,326.6814284000002,None,325.6912849,None,325.6912849,None,325.6912849,None,327.3760472,None,327.3760472,None,327.3760472,None,,,,,,,,,,,205,24,Female,2022-04-28_11h56.09.621,Main,2022.1.1,59.98156166774576,
positive,positive,2,l,j,,,,,,,,,6,0,108,11,,,,,,,,,,,,,,,,,,,,,,,,main,2,2,2,positive,positive,j,j,1,0.6710265000001527,327.3964799999994,328.40891420000025,328.3699452999999,None,327.3964799999994,None,327.3964799999994,None,327.3964799999994,None,329.0501150999995,None,329.0501150999995,None,329.0501150999995,None,,,,,,,,,,,205,24,Female,2022-04-28_11h56.09.621,Main,2022.1.1,59.98156166774576,
negative,positive,2,j,l,,,,,,,,,6,1,109,15,,,,,,,,,,,,,,,,,,,,,,,,main,1,1,2,positive,negative,l,l,1,0.8097110000007888,329.0718503999997,330.0873848000001,330.04915280000023,None,329.0718503999997,None,329.0718503999997,None,329.0718503999997,None,330.86154839999983,None,330.86154839999983,None,330.86154839999983,None,,,,,,,,,,,205,24,Female,2022-04-28_11h56.09.621,Main,2022.1.1,59.98156166774576,
neutral,negative,2,k,k,,,,,,,,,6,2,110,16,,,,,,,,,,,,,,,,,,,,,,,,main,2,2,2,negative,neutral,k,k,1,0.638654299999871,330.88223949999974,331.8859445999997,331.8667252999994,None,330.88223949999974,None,330.88223949999974,None,330.88223949999974,None,332.5045083000001,None,332.5045083000001,None,332.5045083000001,None,,,,,,,,,,,205,24,Female,2022-04-28_11h56.09.621,Main,2022.1.1,59.98156166774576,
positive,negative,2,l,j,,,,,,,,,6,3,111,14,,,,,,,,,,,,,,,,,,,,,,,,main,1,1,2,negative,positive,j,j,1,0.8266020999999455,332.5246987999999,333.5453736999998,333.5063736000002,None,332.5246987999999,None,332.5246987999999,None,332.5246987999999,None,334.3356113999995,None,334.3356113999995,None,334.3356113999995,None,,,,,,,,,,,205,24,Female,2022-04-28_11h56.09.621,Main,2022.1.1,59.98156166774576,
negative,neutral,1,j,l,,,,,,,,,6,4,112,3,,,,,,,,,,,,,,,,,,,,,,,,main,1,1,1,neutral,negative,l,l,1,0.7777938999997787,334.35459360000004,335.3621019000002,335.3426649000003,None,334.35459360000004,None,334.35459360000004,None,334.35459360000004,None,336.1135958000001,None,336.1135958000001,None,336.1135958000001,None,,,,,,,,,,,205,24,Female,2022-04-28_11h56.09.621,Main,2022.1.1,59.98156166774576,
positive,negative,1,l,j,,,,,,,,,6,5,113,5,,,,,,,,,,,,,,,,,,,,,,,,main,1,1,1,negative,positive,j,j,1,0.6946585000005143,336.1338455999994,337.1374077999999,337.11824460000025,None,336.1338455999994,None,336.1338455999994,None,336.1338455999994,None,337.81093010000006,None,337.81093010000006,None,337.81093010000006,None,,,,,,,,,,,205,24,Female,2022-04-28_11h56.09.621,Main,2022.1.1,59.98156166774576,
neutral,neutral,2,k,k,,,,,,,,,6,6,114,10,,,,,,,,,,,,,,,,,,,,,,,,main,2,2,2,neutral,neutral,k,k,1,0.645643700000619,337.8315763999999,338.8416919000001,338.82233519999954,None,337.8315763999999,None,337.8315763999999,None,337.8315763999999,None,339.4588627999998,None,339.4588627999998,None,339.4588627999998,None,,,,,,,,,,,205,24,Female,2022-04-28_11h56.09.621,Main,2022.1.1,59.98156166774576,
neutral,positive,2,k,k,,,,,,,,,6,7,115,13,,,,,,,,,,,,,,,,,,,,,,,,main,1,1,2,positive,neutral,k,k,1,0.6348803999999291,339.48052240000015,340.4973523999997,340.45961139999963,None,339.48052240000015,None,339.48052240000015,None,339.48052240000015,None,341.09907859999987,None,341.09907859999987,None,341.09907859999987,None,,,,,,,,,,,205,24,Female,2022-04-28_11h56.09.621,Main,2022.1.1,59.98156166774576,
negative,positive,1,j,l,,,,,,,,,6,8,116,6,,,,,,,,,,,,,,,,,,,,,,,,main,2,2,1,positive,negative,l,l,1,0.7746643999998923,341.1225059999997,342.13555559999986,342.11558909999985,None,341.1225059999997,None,341.1225059999997,None,341.1225059999997,None,342.87254730000006,None,342.87254730000006,None,342.87254730000006,None,,,,,,,,,,,205,24,Female,2022-04-28_11h56.09.621,Main,2022.1.1,59.98156166774576,
positive,positive,1,l,j,,,,,,,,,6,9,117,2,,,,,,,,,,,,,,,,,,,,,,,,main,2,2,1,positive,positive,j,j,1,0.6563185999993948,342.89490339999975,343.89735029999974,343.8779171999995,None,342.89490339999975,None,342.89490339999975,None,342.89490339999975,None,344.53539199999943,None,344.53539199999943,None,344.53539199999943,None,,,,,,,,,,,205,24,Female,2022-04-28_11h56.09.621,Main,2022.1.1,59.98156166774576,
positive,neutral,1,l,j,,,,,,,,,6,10,118,8,,,,,,,,,,,,,,,,,,,,,,,,main,2,2,1,neutral,positive,j,j,1,0.7030506000000969,344.5571777999994,345.56513730000006,345.5455886,None,344.5571777999994,None,344.5571777999994,None,344.5571777999994,None,346.2407036000001,None,346.2407036000001,None,346.2407036000001,None,,,,,,,,,,,205,24,Female,2022-04-28_11h56.09.621,Main,2022.1.1,59.98156166774576,
negative,neutral,2,j,l,,,,,,,,,6,11,119,12,,,,,,,,,,,,,,,,,,,,,,,,main,1,1,2,neutral,negative,l,l,1,0.622153299999809,346.2633764000002,347.2670529999996,347.24706890000016,None,346.2633764000002,None,346.2633764000002,None,346.2633764000002,None,347.8684110999999,None,347.8684110999999,None,347.8684110999999,None,,,,,,,,,,,205,24,Female,2022-04-28_11h56.09.621,Main,2022.1.1,59.98156166774576,
negative,negative,2,j,l,,,,,,,,,6,12,120,9,,,,,,,,,,,,,,,,,,,,,,,,main,2,2,2,negative,negative,l,l,1,0.617735900000298,347.88743759999943,348.8905931999998,348.8716760999996,None,347.88743759999943,None,347.88743759999943,None,347.88743759999943,None,349.4876955999995,None,349.4876955999995,None,349.4876955999995,None,,,,,,,,,,,205,24,Female,2022-04-28_11h56.09.621,Main,2022.1.1,59.98156166774576,
positive,neutral,2,l,j,,,,,,,,,6,13,121,17,,,,,,,,,,,,,,,,,,,,,,,,main,1,1,2,neutral,positive,j,j,1,0.6742471000006844,349.5078679999997,350.52634750000016,350.48789119999947,None,349.5078679999997,None,349.5078679999997,None,349.5078679999997,None,351.1660989999997,None,351.1660989999997,None,351.1660989999997,None,,,,,,,,,,,205,24,Female,2022-04-28_11h56.09.621,Main,2022.1.1,59.98156166774576,
neutral,neutral,1,k,k,,,,,,,,,6,14,122,1,,,,,,,,,,,,,,,,,,,,,,,,main,1,1,1,neutral,neutral,k,k,1,0.6733469999999215,351.1868290000002,352.20717179999974,352.16899229999945,None,351.1868290000002,None,351.1868290000002,None,351.1868290000002,None,352.84072830000025,None,352.84072830000025,None,352.84072830000025,None,,,,,,,,,,,205,24,Female,2022-04-28_11h56.09.621,Main,2022.1.1,59.98156166774576,
negative,negative,1,j,l,,,,,,,,,6,15,123,0,,,,,,,,,,,,,,,,,,,,,,,,main,1,1,1,negative,negative,l,l,1,0.7306609999995999,352.86215429999993,353.8752402,353.8378866000003,None,352.86215429999993,None,352.86215429999993,None,352.86215429999993,None,354.5737587,None,354.5737587,None,354.5737587,None,,,,,,,,,,,205,24,Female,2022-04-28_11h56.09.621,Main,2022.1.1,59.98156166774576,
neutral,positive,1,k,k,,,,,,,,,6,16,124,4,,,,,,,,,,,,,,,,,,,,,,,,main,2,2,1,positive,neutral,k,k,1,0.659758800000418,354.5945548999998,355.5967783999995,355.57807260000027,None,354.5945548999998,None,354.5945548999998,None,354.5945548999998,None,356.23704710000004,None,356.23704710000004,None,356.23704710000004,None,,,,,,,,,,,205,24,Female,2022-04-28_11h56.09.621,Main,2022.1.1,59.98156166774576,
neutral,negative,1,k,k,,,,,,,,,6,17,125,7,,,,,,,,,,,,,,,,,,,,,,,,main,2,2,1,negative,neutral,k,k,1,0.5935712999998941,356.2594196,357.2713014000001,357.2330364999998,None,356.2594196,None,356.2594196,None,356.2594196,None,357.83519339999987,None,357.83519339999987,None,357.83519339999987,None,,,,,,,,,,,205,24,Female,2022-04-28_11h56.09.621,Main,2022.1.1,59.98156166774576,
neutral,negative,1,k,k,,,,,,,,,7,0,126,7,,,,,,,,,,,,,,,,,,,,,,,,main,2,2,1,negative,neutral,k,k,1,0.6176820000000589,357.8566635999996,358.8769764999997,358.83851330000016,None,357.8566635999996,None,357.8566635999996,None,357.8566635999996,None,359.45594270000004,None,359.45594270000004,None,359.45594270000004,None,,,,,,,,,,,205,24,Female,2022-04-28_11h56.09.621,Main,2022.1.1,59.98156166774576,
neutral,neutral,2,k,k,,,,,,,,,7,1,127,10,,,,,,,,,,,,,,,,,,,,,,,,main,1,1,2,neutral,neutral,k,k,1,0.6888792999998259,359.4774416999999,360.4951867,360.4568638999999,None,359.4774416999999,None,359.4774416999999,None,359.4774416999999,None,361.1503194000003,None,361.1503194000003,None,361.1503194000003,None,,,,,,,,,,,205,24,Female,2022-04-28_11h56.09.621,Main,2022.1.1,59.98156166774576,
positive,positive,1,l,j,,,,,,,,,7,2,128,2,,,,,,,,,,,,,,,,,,,,,,,,main,1,1,1,positive,positive,j,j,1,0.7414976000000024,361.1728502999995,362.1922904000003,362.1536495999999,None,361.1728502999995,None,361.1728502999995,None,361.1728502999995,None,362.89154759999985,None,362.89154759999985,None,362.89154759999985,None,,,,,,,,,,,205,24,Female,2022-04-28_11h56.09.621,Main,2022.1.1,59.98156166774576,
positive,neutral,1,l,j,,,,,,,,,7,3,129,8,,,,,,,,,,,,,,,,,,,,,,,,main,1,1,1,neutral,positive,j,j,1,0.5607226000001901,362.9163185999996,363.9345255999997,363.8959066999996,None,362.9163185999996,None,362.9163185999996,None,362.9163185999996,None,364.45547080000017,None,364.45547080000017,None,364.45547080000017,None,,,,,,,,,,,205,24,Female,2022-04-28_11h56.09.621,Main,2022.1.1,59.98156166774576,
positive,negative,1,l,j,,,,,,,,,7,4,130,5,,,,,,,,,,,,,,,,,,,,,,,,main,2,2,1,negative,positive,j,j,1,0.6135343000005378,364.4764258999994,365.4862290000001,365.46673009999995,None,364.4764258999994,None,364.4764258999994,None,364.4764258999994,None,366.0712225000003,None,366.0712225000003,None,366.0712225000003,None,,,,,,,,,,,205,24,Female,2022-04-28_11h56.09.621,Main,2022.1.1,59.98156166774576,
negative,neutral,2,j,l,,,,,,,,,7,5,131,12,,,,,,,,,,,,,,,,,,,,,,,,main,2,2,2,neutral,negative,l,l,1,0.7721430000001419,366.0920449999994,367.09436670000014,367.0752051999998,None,366.0920449999994,None,366.0920449999994,None,366.0920449999994,None,367.8475734,None,367.8475734,None,367.8475734,None,,,,,,,,,,,205,24,Female,2022-04-28_11h56.09.621,Main,2022.1.1,59.98156166774576,
negative,negative,1,j,l,,,,,,,,,7,6,132,0,,,,,,,,,,,,,,,,,,,,,,,,main,2,2,1,negative,negative,l,l,1,0.6088190999998915,367.86735039999985,368.8739482000001,368.85466129999986,None,367.86735039999985,None,367.86735039999985,None,367.86735039999985,None,369.4569289999996,None,369.4569289999996,None,369.4569289999996,None,,,,,,,,,,,205,24,Female,2022-04-28_11h56.09.621,Main,2022.1.1,59.98156166774576,
neutral,positive,2,k,k,,,,,,,,,7,7,133,13,,,,,,,,,,,,,,,,,,,,,,,,main,1,1,2,positive,neutral,k,k,1,0.6667994999997973,369.4779542999995,370.4861261999995,370.46803999999975,None,369.4779542999995,None,369.4779542999995,None,369.4779542999995,None,371.12795509999944,None,371.12795509999944,None,371.12795509999944,None,,,,,,,,,,,205,24,Female,2022-04-28_11h56.09.621,Main,2022.1.1,59.98156166774576,
negative,negative,2,j,l,,,,,,,,,7,8,134,9,,,,,,,,,,,,,,,,,,,,,,,,main,1,1,2,negative,negative,l,l,1,0.7255252000004475,371.14834299999984,372.16014600000017,372.12460269999974,None,371.14834299999984,None,371.14834299999984,None,371.14834299999984,None,372.8543630999999,None,372.8543630999999,None,372.8543630999999,None,,,,,,,,,,,205,24,Female,2022-04-28_11h56.09.621,Main,2022.1.1,59.98156166774576,
positive,neutral,2,l,j,,,,,,,,,7,9,135,17,,,,,,,,,,,,,,,,,,,,,,,,main,2,2,2,neutral,positive,j,j,1,0.7658214000002772,372.87488909999956,373.8898279999994,373.85161139999946,None,372.87488909999956,None,372.87488909999956,None,372.87488909999956,None,374.62279009999986,None,374.62279009999986,None,374.62279009999986,None,,,,,,,,,,,205,24,Female,2022-04-28_11h56.09.621,Main,2022.1.1,59.98156166774576,
negative,neutral,1,j,l,,,,,,,,,7,10,136,3,,,,,,,,,,,,,,,,,,,,,,,,main,1,1,1,neutral,negative,l,l,1,0.8605664999995497,374.6474178999997,375.66078500000003,375.6221577999995,None,374.6474178999997,None,374.6474178999997,None,374.6474178999997,None,376.48665010000025,None,376.48665010000025,None,376.48665010000025,None,,,,,,,,,,,205,24,Female,2022-04-28_11h56.09.621,Main,2022.1.1,59.98156166774576,
negative,positive,2,j,l,,,,,,,,,7,11,137,15,,,,,,,,,,,,,,,,,,,,,,,,main,2,2,2,positive,negative,l,l,1,0.7173095999996804,376.5068117999999,377.52979270000014,377.4828768999996,None,376.5068117999999,None,376.5068117999999,None,376.5068117999999,None,378.2052448999999,None,378.2052448999999,None,378.2052448999999,None,,,,,,,,,,,205,24,Female,2022-04-28_11h56.09.621,Main,2022.1.1,59.98156166774576,
positive,positive,2,l,j,,,,,,,,,7,12,138,11,,,,,,,,,,,,,,,,,,,,,,,,main,1,1,2,positive,positive,j,j,1,0.7593500000002678,378.22573399999965,379.23438160000023,379.2154267999995,None,378.22573399999965,None,378.22573399999965,None,378.22573399999965,None,379.96775219999984,None,379.96775219999984,None,379.96775219999984,None,,,,,,,,,,,205,24,Female,2022-04-28_11h56.09.621,Main,2022.1.1,59.98156166774576,
neutral,neutral,1,k,k,,,,,,,,,7,13,139,1,,,,,,,,,,,,,,,,,,,,,,,,main,1,1,1,neutral,neutral,k,k,1,0.6257288000006156,379.98794069999985,381.00206629999957,380.96324559999994,None,379.98794069999985,None,379.98794069999985,None,379.98794069999985,None,381.59751670000026,None,381.59751670000026,None,381.59751670000026,None,,,,,,,,,,,205,24,Female,2022-04-28_11h56.09.621,Main,2022.1.1,59.98156166774576,
negative,positive,1,j,l,,,,,,,,,7,14,140,6,,,,,,,,,,,,,,,,,,,,,,,,main,2,2,1,positive,negative,l,l,1,0.7773227999996379,381.6180647000001,382.63158380000004,382.59253629999967,None,381.6180647000001,None,381.6180647000001,None,381.6180647000001,None,383.37743600000033,None,383.37743600000033,None,383.37743600000033,None,,,,,,,,,,,205,24,Female,2022-04-28_11h56.09.621,Main,2022.1.1,59.98156166774576,
neutral,positive,1,k,k,,,,,,,,,7,15,141,4,,,,,,,,,,,,,,,,,,,,,,,,main,2,2,1,positive,neutral,k,k,1,0.7452454999993279,383.39762729999984,384.40425700000014,384.38532099999975,None,383.39762729999984,None,383.39762729999984,None,383.39762729999984,None,385.1247561999995,None,385.1247561999995,None,385.1247561999995,None,,,,,,,,,,,205,24,Female,2022-04-28_11h56.09.621,Main,2022.1.1,59.98156166774576,
neutral,negative,2,k,k,,,,,,,,,7,16,142,16,,,,,,,,,,,,,,,,,,,,,,,,main,2,2,2,negative,neutral,k,k,1,0.6843261000003622,385.14568059999965,386.15173030000005,386.1329642999999,None,385.14568059999965,None,385.14568059999965,None,385.14568059999965,None,386.81212389999985,None,386.81212389999985,None,386.81212389999985,None,,,,,,,,,,,205,24,Female,2022-04-28_11h56.09.621,Main,2022.1.1,59.98156166774576,
positive,negative,2,l,j,,,,,,,,,7,17,143,14,,,,,,,,,,,,,,,,,,,,,,,,main,1,1,2,negative,positive,j,j,1,0.9081856000002517,386.8327172999998,387.8473088999999,387.80825300000015,None,386.8327172999998,None,386.8327172999998,None,386.8327172999998,None,388.7203786999995,None,388.7203786999995,None,388.7203786999995,None,,,,,,,,,,,205,24,Female,2022-04-28_11h56.09.621,Main,2022.1.1,59.98156166774576,
neutral,negative,1,k,k,,,,,,,,,8,0,144,7,,,,,,,,,,,,,,,,,,,,,,,,main,2,2,1,negative,neutral,k,k,1,1.1497153999998773,388.7474113999997,389.76553779999995,389.7260878999996,None,388.7474113999997,None,388.7474113999997,None,388.7474113999997,None,390.8731328,None,390.8731328,None,390.8731328,None,,,,,,,,,,,205,24,Female,2022-04-28_11h56.09.621,Main,2022.1.1,59.98156166774576,
negative,neutral,2,j,l,,,,,,,,,8,1,145,12,,,,,,,,,,,,,,,,,,,,,,,,main,1,1,2,neutral,negative,l,l,1,0.7490039999993314,390.89417239999966,391.90873850000025,391.8710933000002,None,390.89417239999966,None,390.89417239999966,None,390.89417239999966,None,392.62652820000005,None,392.62652820000005,None,392.62652820000005,None,,,,,,,,,,,205,24,Female,2022-04-28_11h56.09.621,Main,2022.1.1,59.98156166774576,
negative,neutral,1,j,l,,,,,,,,,8,2,146,3,,,,,,,,,,,,,,,,,,,,,,,,main,2,2,1,neutral,negative,l,l,1,0.7127084000003379,392.6474833000002,393.6664388999998,393.6271340000003,None,392.6474833000002,None,392.6474833000002,None,392.6474833000002,None,394.3396845000003,None,394.3396845000003,None,394.3396845000003,None,,,,,,,,,,,205,24,Female,2022-04-28_11h56.09.621,Main,2022.1.1,59.98156166774576,
positive,negative,1,l,j,,,,,,,,,8,3,147,5,,,,,,,,,,,,,,,,,,,,,,,,main,2,2,1,negative,positive,j,j,1,0.8272227999996176,394.3608505000002,395.36872799999946,395.34802149999996,None,394.3608505000002,None,394.3608505000002,None,394.3608505000002,None,396.1691844000003,None,396.1691844000003,None,396.1691844000003,None,,,,,,,,,,,205,24,Female,2022-04-28_11h56.09.621,Main,2022.1.1,59.98156166774576,
positive,negative,2,l,j,,,,,,,,,8,4,148,14,,,,,,,,,,,,,,,,,,,,,,,,main,2,2,2,negative,positive,j,j,1,0.7772834000006696,396.1908691999997,397.20183129999987,397.18301729999985,None,396.1908691999997,None,396.1908691999997,None,396.1908691999997,None,397.9501964999996,None,397.9501964999996,None,397.9501964999996,None,,,,,,,,,,,205,24,Female,2022-04-28_11h56.09.621,Main,2022.1.1,59.98156166774576,
positive,positive,1,l,j,,,,,,,,,8,5,149,2,,,,,,,,,,,,,,,,,,,,,,,,main,2,2,1,positive,positive,j,j,1,0.702367800000502,397.9714002999999,398.9911323999995,398.9521322999999,None,397.9714002999999,None,397.9714002999999,None,397.9714002999999,None,399.65337299999976,None,399.65337299999976,None,399.65337299999976,None,,,,,,,,,,,205,24,Female,2022-04-28_11h56.09.621,Main,2022.1.1,59.98156166774576,
positive,positive,2,l,j,,,,,,,,,8,6,150,11,,,,,,,,,,,,,,,,,,,,,,,,main,2,2,2,positive,positive,j,j,1,0.6240857000002507,399.6789405999998,400.6872414999998,400.6676746000003,None,399.6789405999998,None,399.6789405999998,None,399.6789405999998,None,401.2812915999999,None,401.2812915999999,None,401.2812915999999,None,,,,,,,,,,,205,24,Female,2022-04-28_11h56.09.621,Main,2022.1.1,59.98156166774576,
negative,negative,2,j,l,,,,,,,,,8,7,151,9,,,,,,,,,,,,,,,,,,,,,,,,main,2,2,2,negative,negative,l,l,1,0.9556047999994917,401.3021208,402.31717930000013,402.27858839999953,None,401.3021208,None,401.3021208,None,401.3021208,None,403.2416499999996,None,403.2416499999996,None,403.2416499999996,None,,,,,,,,,,,205,24,Female,2022-04-28_11h56.09.621,Main,2022.1.1,59.98156166774576,
positive,neutral,1,l,j,,,,,,,,,8,8,152,8,,,,,,,,,,,,,,,,,,,,,,,,main,2,2,1,neutral,positive,j,j,1,0.7315982000000076,403.26108659999954,404.2752531999995,404.2361909000001,None,403.26108659999954,None,403.26108659999954,None,403.26108659999954,None,404.97552619999954,None,404.97552619999954,None,404.97552619999954,None,,,,,,,,,,,205,24,Female,2022-04-28_11h56.09.621,Main,2022.1.1,59.98156166774576,
positive,neutral,2,l,j,,,,,,,,,8,9,153,17,,,,,,,,,,,,,,,,,,,,,,,,main,2,2,2,neutral,positive,j,j,1,0.8348501000000397,404.9953966000003,406.0159758,405.9776045999997,None,404.9953966000003,None,404.9953966000003,None,404.9953966000003,None,406.8130795000003,None,406.8130795000003,None,406.8130795000003,None,,,,,,,,,,,205,24,Female,2022-04-28_11h56.09.621,Main,2022.1.1,59.98156166774576,
neutral,neutral,2,k,k,,,,,,,,,8,10,154,10,,,,,,,,,,,,,,,,,,,,,,,,main,2,2,2,neutral,neutral,k,k,1,0.7581029000002673,406.83511329999965,407.83773999999994,407.8188823999999,None,406.83511329999965,None,406.83511329999965,None,406.83511329999965,None,408.5754573999999,None,408.5754573999999,None,408.5754573999999,None,,,,,,,,,,,205,24,Female,2022-04-28_11h56.09.621,Main,2022.1.1,59.98156166774576,
neutral,negative,2,k,k,,,,,,,,,8,11,155,16,,,,,,,,,,,,,,,,,,,,,,,,main,2,2,2,negative,neutral,k,k,1,0.6750055000002249,408.5949810000002,409.61418570000023,409.5761096999995,None,408.5949810000002,None,408.5949810000002,None,408.5949810000002,None,410.2510671999995,None,410.2510671999995,None,410.2510671999995,None,,,,,,,,,,,205,24,Female,2022-04-28_11h56.09.621,Main,2022.1.1,59.98156166774576,
negative,positive,1,j,l,,,,,,,,,8,12,156,6,,,,,,,,,,,,,,,,,,,,,,,,main,2,2,1,positive,negative,l,l,1,0.7494053999998869,410.2756956000003,411.28065700000025,411.26152980000006,None,410.2756956000003,None,410.2756956000003,None,410.2756956000003,None,412.00205869999957,None,412.00205869999957,None,412.00205869999957,None,,,,,,,,,,,205,24,Female,2022-04-28_11h56.09.621,Main,2022.1.1,59.98156166774576,
negative,positive,2,j,l,,,,,,,,,8,13,157,15,,,,,,,,,,,,,,,,,,,,,,,,main,2,2,2,positive,negative,l,l,1,0.7290507999996407,412.02308189999985,413.03436429999965,413.01385179999943,None,412.02308189999985,None,412.02308189999985,None,412.02308189999985,None,413.7344075999996,None,413.7344075999996,None,413.7344075999996,None,,,,,,,,,,,205,24,Female,2022-04-28_11h56.09.621,Main,2022.1.1,59.98156166774576,
negative,negative,1,j,l,,,,,,,,,8,14,158,0,,,,,,,,,,,,,,,,,,,,,,,,main,1,1,1,negative,negative,l,l,1,0.7950025000000096,413.75781110000025,414.7756073999999,414.7377755999996,None,413.75781110000025,None,413.75781110000025,None,413.75781110000025,None,415.5321011000002,None,415.5321011000002,None,415.5321011000002,None,,,,,,,,,,,205,24,Female,2022-04-28_11h56.09.621,Main,2022.1.1,59.98156166774576,
neutral,neutral,1,k,k,,,,,,,,,8,15,159,1,,,,,,,,,,,,,,,,,,,,,,,,main,2,2,1,neutral,neutral,k,k,1,0.6974937000004502,415.55255209999996,416.57298569999966,416.5344221999994,None,415.55255209999996,None,415.55255209999996,None,415.55255209999996,None,417.23212169999954,None,417.23212169999954,None,417.23212169999954,None,,,,,,,,,,,205,24,Female,2022-04-28_11h56.09.621,Main,2022.1.1,59.98156166774576,
neutral,positive,1,k,k,,,,,,,,,8,16,160,4,,,,,,,,,,,,,,,,,,,,,,,,main,1,1,1,positive,neutral,k,k,1,0.6686308999996982,417.2544928999996,418.2668907999996,418.22876649999944,None,417.2544928999996,None,417.2544928999996,None,417.2544928999996,None,418.90499880000027,None,418.90499880000027,None,418.90499880000027,None,,,,,,,,,,,205,24,Female,2022-04-28_11h56.09.621,Main,2022.1.1,59.98156166774576,
neutral,positive,2,k,k,,,,,,,,,8,17,161,13,,,,,,,,,,,,,,,,,,,,,,,,main,1,1,2,positive,neutral,k,k,1,0.6761943999999858,418.92378540000027,419.9409243,419.9023182000001,None,418.92378540000027,None,418.92378540000027,None,418.92378540000027,None,420.58167240000023,None,420.58167240000023,None,420.58167240000023,None,,,,,,,,,,,205,24,Female,2022-04-28_11h56.09.621,Main,2022.1.1,59.98156166774576,
positive,neutral,1,l,j,,,,,,,,,9,0,162,8,,,,,,,,,,,,,,,,,,,,,,,,main,1,1,1,neutral,positive,j,j,1,0.8153904000000693,420.6028762999995,421.61200159999953,421.59220469999946,None,420.6028762999995,None,420.6028762999995,None,420.6028762999995,None,422.3995235999997,None,422.3995235999997,None,422.3995235999997,None,,,,,,,,,,,205,24,Female,2022-04-28_11h56.09.621,Main,2022.1.1,59.98156166774576,
neutral,neutral,1,k,k,,,,,,,,,9,1,163,1,,,,,,,,,,,,,,,,,,,,,,,,main,1,1,1,neutral,neutral,k,k,1,0.6348282000008112,422.4200519999995,423.44052180000017,423.39392529999986,None,422.4200519999995,None,422.4200519999995,None,422.4200519999995,None,424.03795219999995,None,424.03795219999995,None,424.03795219999995,None,,,,,,,,,,,205,24,Female,2022-04-28_11h56.09.621,Main,2022.1.1,59.98156166774576,
neutral,positive,1,k,k,,,,,,,,,9,2,164,4,,,,,,,,,,,,,,,,,,,,,,,,main,1,1,1,positive,neutral,k,k,1,0.6170886999998402,424.05838219999987,425.0773534,425.0384047999996,None,424.05838219999987,None,424.05838219999987,None,424.05838219999987,None,425.6581107999997,None,425.6581107999997,None,425.6581107999997,None,,,,,,,,,,,205,24,Female,2022-04-28_11h56.09.621,Main,2022.1.1,59.98156166774576,
negative,negative,2,j,l,,,,,,,,,9,3,165,9,,,,,,,,,,,,,,,,,,,,,,,,main,2,2,2,negative,negative,l,l,1,0.7793405000002167,425.6787542000002,426.6891979000002,426.6508361999995,None,425.6787542000002,None,425.6787542000002,None,425.6787542000002,None,427.43996200000004,None,427.43996200000004,None,427.43996200000004,None,,,,,,,,,,,205,24,Female,2022-04-28_11h56.09.621,Main,2022.1.1,59.98156166774576,
negative,neutral,2,j,l,,,,,,,,,9,4,166,12,,,,,,,,,,,,,,,,,,,,,,,,main,1,1,2,neutral,negative,l,l,1,0.7442854000000807,427.4598692999998,428.4738705,428.4357086,None,427.4598692999998,None,427.4598692999998,None,427.4598692999998,None,429.18431459999977,None,429.18431459999977,None,429.18431459999977,None,,,,,,,,,,,205,24,Female,2022-04-28_11h56.09.621,Main,2022.1.1,59.98156166774576,
positive,neutral,2,l,j,,,,,,,,,9,5,167,17,,,,,,,,,,,,,,,,,,,,,,,,main,2,2,2,neutral,positive,j,j,1,0.6813389999997526,429.2053212999999,430.20937239999967,430.1892803999999,None,429.2053212999999,None,429.2053212999999,None,429.2053212999999,None,430.8705137000003,None,430.8705137000003,None,430.8705137000003,None,,,,,,,,,,,205,24,Female,2022-04-28_11h56.09.621,Main,2022.1.1,59.98156166774576,
negative,positive,2,j,l,,,,,,,,,9,6,168,15,,,,,,,,,,,,,,,,,,,,,,,,main,2,2,2,positive,negative,l,l,1,0.7425482000007833,430.89091779999944,431.89398919999985,431.87379039999996,None,430.89091779999944,None,430.89091779999944,None,430.89091779999944,None,432.6135730000002,None,432.6135730000002,None,432.6135730000002,None,,,,,,,,,,,205,24,Female,2022-04-28_11h56.09.621,Main,2022.1.1,59.98156166774576,
neutral,negative,2,k,k,,,,,,,,,9,7,169,16,,,,,,,,,,,,,,,,,,,,,,,,main,2,2,2,negative,neutral,k,k,1,0.7079905000000508,432.63466229999995,433.6550949000002,433.61557230000017,None,432.63466229999995,None,432.63466229999995,None,432.63466229999995,None,434.32602610000015,None,434.32602610000015,None,434.32602610000015,None,,,,,,,,,,,205,24,Female,2022-04-28_11h56.09.621,Main,2022.1.1,59.98156166774576,
neutral,negative,1,k,k,,,,,,,,,9,8,170,7,,,,,,,,,,,,,,,,,,,,,,,,main,1,1,1,negative,neutral,k,k,1,0.6918716999998651,434.3468372999996,435.36664089999977,435.3274053999994,None,434.3468372999996,None,434.3468372999996,None,434.3468372999996,None,436.02286270000025,None,436.02286270000025,None,436.02286270000025,None,,,,,,,,,,,205,24,Female,2022-04-28_11h56.09.621,Main,2022.1.1,59.98156166774576,
negative,positive,1,j,l,,,,,,,,,9,9,171,6,,,,,,,,,,,,,,,,,,,,,,,,main,2,2,1,positive,negative,l,l,1,0.8100418000003629,436.0432463999996,437.05619490000026,437.0175747000003,None,436.0432463999996,None,436.0432463999996,None,436.0432463999996,None,437.8320471000003,None,437.8320471000003,None,437.8320471000003,None,,,,,,,,,,,205,24,Female,2022-04-28_11h56.09.621,Main,2022.1.1,59.98156166774576,
neutral,positive,2,k,k,,,,,,,,,9,10,172,13,,,,,,,,,,,,,,,,,,,,,,,,main,2,2,2,positive,neutral,k,k,1,0.7682853999995132,437.85454800000025,438.86516029999984,438.8464734999998,None,437.85454800000025,None,437.85454800000025,None,437.85454800000025,None,439.6059869999996,None,439.6059869999996,None,439.6059869999996,None,,,,,,,,,,,205,24,Female,2022-04-28_11h56.09.621,Main,2022.1.1,59.98156166774576,
negative,negative,1,j,l,,,,,,,,,9,11,173,0,,,,,,,,,,,,,,,,,,,,,,,,main,1,1,1,negative,negative,l,l,1,0.7934215999994194,439.62625339999977,440.6287622,440.6105803999999,None,439.62625339999977,None,439.62625339999977,None,439.62625339999977,None,441.4020015000002,None,441.4020015000002,None,441.4020015000002,None,,,,,,,,,,,205,24,Female,2022-04-28_11h56.09.621,Main,2022.1.1,59.98156166774576,
positive,positive,2,l,j,,,,,,,,,9,12,174,11,,,,,,,,,,,,,,,,,,,,,,,,main,2,2,2,positive,positive,j,j,1,0.7995885999998791,441.42269659999965,442.4297134999997,442.4106506999997,None,441.42269659999965,None,441.42269659999965,None,441.42269659999965,None,443.20468459999995,None,443.20468459999995,None,443.20468459999995,None,,,,,,,,,,,205,24,Female,2022-04-28_11h56.09.621,Main,2022.1.1,59.98156166774576,
positive,negative,2,l,j,,,,,,,,,9,13,175,14,,,,,,,,,,,,,,,,,,,,,,,,main,1,1,2,negative,positive,j,j,1,0.7422366999999213,443.22553160000007,444.2375245000003,444.1987908000001,None,443.22553160000007,None,443.22553160000007,None,443.22553160000007,None,444.94853099999966,None,444.94853099999966,None,444.94853099999966,None,,,,,,,,,,,205,24,Female,2022-04-28_11h56.09.621,Main,2022.1.1,59.98156166774576,
negative,neutral,1,j,l,,,,,,,,,9,14,176,3,,,,,,,,,,,,,,,,,,,,,,,,main,1,1,1,neutral,negative,l,l,1,0.7773889000000054,444.9683027000001,445.9809581999998,445.9428686000001,None,444.9683027000001,None,444.9683027000001,None,444.9683027000001,None,446.7279727000001,None,446.7279727000001,None,446.7279727000001,None,,,,,,,,,,,205,24,Female,2022-04-28_11h56.09.621,Main,2022.1.1,59.98156166774576,
neutral,neutral,2,k,k,,,,,,,,,9,15,177,10,,,,,,,,,,,,,,,,,,,,,,,,main,2,2,2,neutral,neutral,k,k,1,0.732853100000284,446.74832030000016,447.75013620000027,447.7317893999998,None,446.74832030000016,None,446.74832030000016,None,446.74832030000016,None,448.46334199999967,None,448.46334199999967,None,448.46334199999967,None,,,,,,,,,,,205,24,Female,2022-04-28_11h56.09.621,Main,2022.1.1,59.98156166774576,
positive,positive,1,l,j,,,,,,,,,9,16,178,2,,,,,,,,,,,,,,,,,,,,,,,,main,2,2,1,positive,positive,j,j,1,0.767960199999834,448.4842171,449.49832700000024,449.4600991999996,None,448.4842171,None,448.4842171,None,448.4842171,None,450.2357538000002,None,450.2357538000002,None,450.2357538000002,None,,,,,,,,,,,205,24,Female,2022-04-28_11h56.09.621,Main,2022.1.1,59.98156166774576,
positive,negative,1,l,j,,,,,,,,,9,17,179,5,,,,,,,,,,,,,,,,,,,,,,,,main,2,2,1,negative,positive,j,j,1,0.6620073000003686,450.2589707999996,451.27786469999955,451.23932009999953,None,450.2589707999996,None,450.2589707999996,None,450.2589707999996,None,451.8981821000003,None,451.8981821000003,None,451.8981821000003,None,,,,,,,,,,,205,24,Female,2022-04-28_11h56.09.621,Main,2022.1.1,59.98156166774576,
neutral,positive,2,k,k,,,,,,,,,10,0,180,13,,,,,,,,,,,,,,,,,,,,,,,,main,2,2,2,positive,neutral,k,k,1,0.6933570000001055,451.9196872000002,452.9397035000002,452.8997757999996,None,451.9196872000002,None,451.9196872000002,None,451.9196872000002,None,453.5937422000003,None,453.5937422000003,None,453.5937422000003,None,,,,,,,,,,,205,24,Female,2022-04-28_11h56.09.621,Main,2022.1.1,59.98156166774576,
positive,positive,1,l,j,,,,,,,,,10,1,181,2,,,,,,,,,,,,,,,,,,,,,,,,main,1,1,1,positive,positive,j,j,1,0.6729767999995602,453.6160181999994,454.6330409000002,454.5940813999996,None,453.6160181999994,None,453.6160181999994,None,453.6160181999994,None,455.2715654,None,455.2715654,None,455.2715654,None,,,,,,,,,,,205,24,Female,2022-04-28_11h56.09.621,Main,2022.1.1,59.98156166774576,
neutral,neutral,2,k,k,,,,,,,,,10,2,182,10,,,,,,,,,,,,,,,,,,,,,,,,main,2,2,2,neutral,neutral,k,k,1,0.6935576999994737,455.2918534999999,456.3080724000001,456.2698865000002,None,455.2918534999999,None,455.2918534999999,None,455.2918534999999,None,456.96741559999975,None,456.96741559999975,None,456.96741559999975,None,,,,,,,,,,,205,24,Female,2022-04-28_11h56.09.621,Main,2022.1.1,59.98156166774576,
negative,neutral,1,j,l,,,,,,,,,10,3,183,3,,,,,,,,,,,,,,,,,,,,,,,,main,1,1,1,neutral,negative,l,l,1,0.83349410000028,456.9883190999999,457.9936864000001,457.9747155999994,None,456.9883190999999,None,456.9883190999999,None,456.9883190999999,None,458.8031838000003,None,458.8031838000003,None,458.8031838000003,None,,,,,,,,,,,205,24,Female,2022-04-28_11h56.09.621,Main,2022.1.1,59.98156166774576,
negative,positive,2,j,l,,,,,,,,,10,4,184,15,,,,,,,,,,,,,,,,,,,,,,,,main,1,1,2,positive,negative,l,l,1,0.8626539999995657,458.82339409999986,459.83802990000004,459.7985515999999,None,458.82339409999986,None,458.82339409999986,None,458.82339409999986,None,460.66821589999984,None,460.66821589999984,None,460.66821589999984,None,,,,,,,,,,,205,24,Female,2022-04-28_11h56.09.621,Main,2022.1.1,59.98156166774576,
positive,negative,2,l,j,,,,,,,,,10,5,185,14,,,,,,,,,,,,,,,,,,,,,,,,main,1,1,2,negative,positive,j,j,1,0.8846745000000737,460.689582,461.70993799999997,461.671386,None,460.689582,None,460.689582,None,460.689582,None,462.55674189999957,None,462.55674189999957,None,462.55674189999957,None,,,,,,,,,,,205,24,Female,2022-04-28_11h56.09.621,Main,2022.1.1,59.98156166774576,
positive,negative,1,l,j,,,,,,,,,10,6,186,5,,,,,,,,,,,,,,,,,,,,,,,,main,2,2,1,negative,positive,j,j,1,0.6832743000004484,462.57759350000015,463.5825169,463.56338379999943,None,462.57759350000015,None,462.57759350000015,None,462.57759350000015,None,464.2426022999995,None,464.2426022999995,None,464.2426022999995,None,,,,,,,,,,,205,24,Female,2022-04-28_11h56.09.621,Main,2022.1.1,59.98156166774576,
negative,negative,2,j,l,,,,,,,,,10,7,187,9,,,,,,,,,,,,,,,,,,,,,,,,main,1,1,2,negative,negative,l,l,1,0.7821444000001065,464.26324810000006,465.2775123000001,465.23960259999967,None,464.26324810000006,None,464.26324810000006,None,464.26324810000006,None,466.02691670000024,None,466.02691670000024,None,466.02691670000024,None,,,,,,,,,,,205,24,Female,2022-04-28_11h56.09.621,Main,2022.1.1,59.98156166774576,
negative,positive,1,j,l,,,,,,,,,10,8,188,6,,,,,,,,,,,,,,,,,,,,,,,,main,2,2,1,positive,negative,l,l,1,0.6775760999998965,466.0499853000001,467.0714312,467.03151419999995,None,466.0499853000001,None,466.0499853000001,None,466.0499853000001,None,467.7082765000001,None,467.7082765000001,None,467.7082765000001,None,,,,,,,,,,,205,24,Female,2022-04-28_11h56.09.621,Main,2022.1.1,59.98156166774576,
negative,negative,1,j,l,,,,,,,,,10,9,189,0,,,,,,,,,,,,,,,,,,,,,,,,main,2,2,1,negative,negative,l,l,1,0.6416399999998248,467.7302166999998,468.7325192999997,468.7129530000002,None,467.7302166999998,None,467.7302166999998,None,467.7302166999998,None,469.3538116999995,None,469.3538116999995,None,469.3538116999995,None,,,,,,,,,,,205,24,Female,2022-04-28_11h56.09.621,Main,2022.1.1,59.98156166774576,
neutral,neutral,1,k,k,,,,,,,,,10,10,190,1,,,,,,,,,,,,,,,,,,,,,,,,main,2,2,1,neutral,neutral,k,k,1,0.672666799999206,469.37430099999983,470.39241029999994,470.3531876999996,None,469.37430099999983,None,469.37430099999983,None,469.37430099999983,None,471.02918740000007,None,471.02918740000007,None,471.02918740000007,None,,,,,,,,,,,205,24,Female,2022-04-28_11h56.09.621,Main,2022.1.1,59.98156166774576,
positive,neutral,1,l,j,,,,,,,,,10,11,191,8,,,,,,,,,,,,,,,,,,,,,,,,main,2,2,1,neutral,positive,j,j,1,0.7026651999995011,471.0495914000003,472.06124159999945,472.0234025999998,None,471.0495914000003,None,471.0495914000003,None,471.0495914000003,None,472.7358620000001,None,472.7358620000001,None,472.7358620000001,None,,,,,,,,,,,205,24,Female,2022-04-28_11h56.09.621,Main,2022.1.1,59.98156166774576,
neutral,negative,1,k,k,,,,,,,,,10,12,192,7,,,,,,,,,,,,,,,,,,,,,,,,main,2,2,1,negative,neutral,k,k,1,0.7425568999997267,472.7558747000003,473.7640971000001,473.7450200000003,None,472.7558747000003,None,472.7558747000003,None,472.7558747000003,None,474.4834414000003,None,474.4834414000003,None,474.4834414000003,None,,,,,,,,,,,205,24,Female,2022-04-28_11h56.09.621,Main,2022.1.1,59.98156166774576,
positive,positive,2,l,j,,,,,,,,,10,13,193,11,,,,,,,,,,,,,,,,,,,,,,,,main,1,1,2,positive,positive,j,j,1,0.7434917999999016,474.5058647999995,475.5114999999996,475.49201509999966,None,474.5058647999995,None,474.5058647999995,None,474.5058647999995,None,476.2262691000002,None,476.2262691000002,None,476.2262691000002,None,,,,,,,,,,,205,24,Female,2022-04-28_11h56.09.621,Main,2022.1.1,59.98156166774576,
negative,neutral,2,j,l,,,,,,,,,10,14,194,12,,,,,,,,,,,,,,,,,,,,,,,,main,2,2,2,neutral,negative,l,l,1,0.6949637999996412,476.24861409999994,477.2667363999999,477.22787999999946,None,476.24861409999994,None,476.24861409999994,None,476.24861409999994,None,477.9237005000001,None,477.9237005000001,None,477.9237005000001,None,,,,,,,,,,,205,24,Female,2022-04-28_11h56.09.621,Main,2022.1.1,59.98156166774576,
neutral,positive,1,k,k,,,,,,,,,10,15,195,4,,,,,,,,,,,,,,,,,,,,,,,,main,1,1,1,positive,neutral,k,k,1,0.6943297999996503,477.9450705999998,478.96232429999964,478.9241514999994,None,477.9450705999998,None,477.9450705999998,None,477.9450705999998,None,479.6215281000001,None,479.6215281000001,None,479.6215281000001,None,,,,,,,,,,,205,24,Female,2022-04-28_11h56.09.621,Main,2022.1.1,59.98156166774576,
neutral,negative,2,k,k,,,,,,,,,10,16,196,16,,,,,,,,,,,,,,,,,,,,,,,,main,1,1,2,negative,neutral,k,k,1,0.7318377999999939,479.64234489999944,480.6612749999995,480.6231386999998,None,479.64234489999944,None,479.64234489999944,None,479.64234489999944,None,481.3563750999998,None,481.3563750999998,None,481.3563750999998,None,,,,,,,,,,,205,24,Female,2022-04-28_11h56.09.621,Main,2022.1.1,59.98156166774576,
positive,neutral,2,l,j,,,,,,,,,10,17,197,17,,,,,,,,,,,,,,,,,,,,,,,,main,2,2,2,neutral,positive,j,j,1,0.6722388999996838,481.37811169999986,482.3897933999997,482.3517002999997,None,481.37811169999986,None,481.37811169999986,None,481.37811169999986,None,483.0325073999999,None,483.0325073999999,None,483.0325073999999,None,,,,,,,,,,,205,24,Female,2022-04-28_11h56.09.621,Main,2022.1.1,59.98156166774576,
negative,neutral,1,j,l,,,,,,,,,11,0,198,3,,,,,,,,,,,,,,,,,,,,,,,,main,2,2,1,neutral,negative,l,l,1,0.7725992000005135,483.0523659999999,484.0697517999997,484.03027479999946,None,483.0523659999999,None,483.0523659999999,None,483.0523659999999,None,484.80603959999974,None,484.80603959999974,None,484.80603959999974,None,,,,,,,,,,,205,24,Female,2022-04-28_11h56.09.621,Main,2022.1.1,59.98156166774576,
neutral,positive,1,k,k,,,,,,,,,11,1,199,4,,,,,,,,,,,,,,,,,,,,,,,,main,1,1,1,positive,neutral,k,k,1,0.6395957000004273,484.8271047999997,485.8324412000002,485.81230549999964,None,484.8271047999997,None,484.8271047999997,None,484.8271047999997,None,486.4497238,None,486.4497238,None,486.4497238,None,,,,,,,,,,,205,24,Female,2022-04-28_11h56.09.621,Main,2022.1.1,59.98156166774576,
negative,negative,2,j,l,,,,,,,,,11,2,200,9,,,,,,,,,,,,,,,,,,,,,,,,main,2,2,2,negative,negative,l,l,1,0.7600012000002607,486.4696321000001,487.47925399999986,487.45985819999987,None,486.4696321000001,None,486.4696321000001,None,486.4696321000001,None,488.2093879999999,None,488.2093879999999,None,488.2093879999999,None,,,,,,,,,,,205,24,Female,2022-04-28_11h56.09.621,Main,2022.1.1,59.98156166774576,
neutral,neutral,1,k,k,,,,,,,,,11,3,201,1,,,,,,,,,,,,,,,,,,,,,,,,main,1,1,1,neutral,neutral,k,k,1,0.7108242999993308,488.2305894000001,489.24387709999974,489.2058552999997,None,488.2305894000001,None,488.2305894000001,None,488.2305894000001,None,489.9231016,None,489.9231016,None,489.9231016,None,,,,,,,,,,,205,24,Female,2022-04-28_11h56.09.621,Main,2022.1.1,59.98156166774576,
positive,neutral,1,l,j,,,,,,,,,11,4,202,8,,,,,,,,,,,,,,,,,,,,,,,,main,1,1,1,neutral,positive,j,j,1,0.778747199999998,489.94453109999995,490.9502698999995,490.9282271000002,None,489.94453109999995,None,489.94453109999995,None,489.94453109999995,None,491.70540239999957,None,491.70540239999957,None,491.70540239999957,None,,,,,,,,,,,205,24,Female,2022-04-28_11h56.09.621,Main,2022.1.1,59.98156166774576,
neutral,negative,1,k,k,,,,,,,,,11,5,203,7,,,,,,,,,,,,,,,,,,,,,,,,main,1,1,1,negative,neutral,k,k,1,0.7020855000000665,491.7276026999998,492.74413540000023,492.7066281999996,None,491.7276026999998,None,491.7276026999998,None,491.7276026999998,None,493.4110423999997,None,493.4110423999997,None,493.4110423999997,None,,,,,,,,,,,205,24,Female,2022-04-28_11h56.09.621,Main,2022.1.1,59.98156166774576,
negative,positive,1,j,l,,,,,,,,,11,6,204,6,,,,,,,,,,,,,,,,,,,,,,,,main,2,2,1,positive,negative,l,l,1,0.8300001000006887,493.43220629999996,494.4513965999995,494.4124254999997,None,493.43220629999996,None,493.43220629999996,None,493.43220629999996,None,495.2439467999999,None,495.2439467999999,None,495.2439467999999,None,,,,,,,,,,,205,24,Female,2022-04-28_11h56.09.621,Main,2022.1.1,59.98156166774576,
positive,neutral,2,l,j,,,,,,,,,11,7,205,17,,,,,,,,,,,,,,,,,,,,,,,,main,2,2,2,neutral,positive,j,j,1,0.7455937000004269,495.2641953000002,496.2762283000002,496.23876440000004,None,495.2641953000002,None,495.2641953000002,None,495.2641953000002,None,496.99016639999957,None,496.99016639999957,None,496.99016639999957,None,,,,,,,,,,,205,24,Female,2022-04-28_11h56.09.621,Main,2022.1.1,59.98156166774576,
negative,neutral,2,j,l,,,,,,,,,11,8,206,12,,,,,,,,,,,,,,,,,,,,,,,,main,1,1,2,neutral,negative,l,l,1,0.7614565999992919,497.0108436999999,498.0249310999998,497.98573639999995,None,497.0108436999999,None,497.0108436999999,None,497.0108436999999,None,498.75423680000006,None,498.75423680000006,None,498.75423680000006,None,,,,,,,,,,,205,24,Female,2022-04-28_11h56.09.621,Main,2022.1.1,59.98156166774576,
neutral,negative,2,k,k,,,,,,,,,11,9,207,16,,,,,,,,,,,,,,,,,,,,,,,,main,2,2,2,negative,neutral,k,k,1,0.7640035999993415,498.7758434999996,499.78881980000006,499.75129599999946,None,498.7758434999996,None,498.7758434999996,None,498.7758434999996,None,500.5213823,None,500.5213823,None,500.5213823,None,,,,,,,,,,,205,24,Female,2022-04-28_11h56.09.621,Main,2022.1.1,59.98156166774576,
positive,negative,2,l,j,,,,,,,,,11,10,208,14,,,,,,,,,,,,,,,,,,,,,,,,main,1,1,2,negative,positive,j,j,1,0.7635714999996708,500.5428559000002,501.55989469999986,501.52220959999977,None,500.5428559000002,None,500.5428559000002,None,500.5428559000002,None,502.2874329000002,None,502.2874329000002,None,502.2874329000002,None,,,,,,,,,,,205,24,Female,2022-04-28_11h56.09.621,Main,2022.1.1,59.98156166774576,
positive,negative,1,l,j,,,,,,,,,11,11,209,5,,,,,,,,,,,,,,,,,,,,,,,,main,1,1,1,negative,positive,j,j,1,0.7628515000005791,502.3078372,503.3272828999998,503.28946050000013,None,502.3078372,None,502.3078372,None,502.3078372,None,504.0521266000002,None,504.0521266000002,None,504.0521266000002,None,,,,,,,,,,,205,24,Female,2022-04-28_11h56.09.621,Main,2022.1.1,59.98156166774576,
