target,distractor,set,ans1,ans2,rep_loop2.thisRepN,rep_loop2.thisTrialN,rep_loop2.thisN,rep_loop2.thisIndex,flanker_prac_loop.thisRepN,flanker_prac_loop.thisTrialN,flanker_prac_loop.thisN,flanker_prac_loop.thisIndex,flanker_main_loop.thisRepN,flanker_main_loop.thisTrialN,flanker_main_loop.thisN,flanker_main_loop.thisIndex,fl_inst_resp.keys,mouse.x,mouse.y,mouse.leftButton,mouse.midButton,mouse.rightButton,mouse.started,mouse.stopped,sound_1.started,sound_1.stopped,no_text.started,no_text.stopped,yes_text.started,yes_text.stopped,mouse_2.x,mouse_2.y,mouse_2.leftButton,mouse_2.midButton,mouse_2.rightButton,mouse_2.started,mouse_2.stopped,back_2.started,back_2.stopped,main_prac,fl_cold,fl_colt,fl_set,fl_dcond,fl_tcond,fl_ans,fl_res,fl_corr,fl_rt,fix_fl.started,fix_fl.stopped,targ.started,targ.stopped,j_button.started,j_button.stopped,k_button.started,k_button.stopped,l_button.started,l_button.stopped,j_button2.started,j_button2.stopped,k_button2.started,k_button2.stopped,l_button2.started,l_button2.stopped,mainback.started,mainback.stopped,key_resp.keys,mouse_6.x,mouse_6.y,mouse_6.leftButton,mouse_6.midButton,mouse_6.rightButton,mouse_6.started,mouse_6.stopped,id*,age*,gender*,date,expName,psychopyVersion,frameRate,
,,,,,0,0,0,0,,,,,,,,,None,0.0064814813,-0.074074075,0,0,0,1.0156613800081686,None,99.13365548000002,None,149.88007819999984,None,149.88007819999984,None,-0.119444445,-0.06388889,0,0,0,0.012443779999557592,None,,,,,,,,,,,,,,,,,,,,,,,,,,,,,,,,,,,,,,,207,22,Male,2022-05-03_11h35.48.978,Main,2022.1.1,59.91877410974126,
negative,negative,1,j,l,,,,,0,0,0,0,,,,,,,,,,,,,,,,,,,,,,,,,,152.7435771999999,None,prac,1,1,1,negative,negative,l,l,1,3.626689599999736,154.79460999999992,155.7997307000005,155.7805932000001,None,154.79460999999992,None,154.79460999999992,None,154.79460999999992,None,159.41150560000005,None,159.41150560000005,None,159.41150560000005,None,,,,,,,,,,,207,22,Male,2022-05-03_11h35.48.978,Main,2022.1.1,59.91877410974126,
positive,neutral,1,l,j,,,,,0,1,1,8,,,,,,,,,,,,,,,,,,,,,,,,,,,,prac,1,1,1,neutral,positive,j,j,1,0.9878548000006049,160.45813720000024,161.4782783999999,161.44022230000064,None,160.45813720000024,None,160.45813720000024,None,160.45813720000024,None,162.40507627999978,None,162.40507627999978,None,162.40507627999978,None,,,,,,,,,,,207,22,Male,2022-05-03_11h35.48.978,Main,2022.1.1,59.91877410974126,
negative,positive,2,j,l,,,,,0,2,2,15,,,,,,,,,,,,,,,,,,,,,,,,,,,,prac,1,1,2,positive,negative,l,l,1,1.079945399999815,162.44724740000038,163.44910510000045,163.43074200000046,None,162.44724740000038,None,162.44724740000038,None,162.44724740000038,None,164.48993987999984,None,164.48993987999984,None,164.48993987999984,None,,,,,,,,,,,207,22,Male,2022-05-03_11h35.48.978,Main,2022.1.1,59.91877410974126,
positive,negative,2,l,j,,,,,0,3,3,14,,,,,,,,,,,,,,,,,,,,,,,,,,,,prac,2,2,2,negative,positive,j,j,1,0.9559448999998494,164.52910859999974,165.53506879999986,165.49810660000003,None,164.52910859999974,None,164.52910859999974,None,164.52910859999974,None,166.44647588000043,None,166.44647588000043,None,166.44647588000043,None,,,,,,,,,,,207,22,Male,2022-05-03_11h35.48.978,Main,2022.1.1,59.91877410974126,
positive,neutral,2,l,j,,,,,0,4,4,17,,,,,,,,,,,,,,,,,,,,,,,,,,,,prac,1,1,2,neutral,positive,j,j,1,0.63954990000002,166.48319730000003,167.48633229999996,167.46763939999983,None,166.48319730000003,None,166.48319730000003,None,166.48319730000003,None,168.09031808000054,None,168.09031808000054,None,168.09031808000054,None,,,,,,,,,,,207,22,Male,2022-05-03_11h35.48.978,Main,2022.1.1,59.91877410974126,
negative,negative,2,j,l,,,,,0,5,5,9,,,,,,,,,,,,,,,,,,,,,,,,,,,,prac,2,2,2,negative,negative,l,l,1,0.7306633999996848,168.10828839999976,169.1189961,169.08179670000027,None,168.10828839999976,None,168.10828839999976,None,168.10828839999976,None,169.82349328000055,None,169.82349328000055,None,169.82349328000055,None,,,,,,,,,,,207,22,Male,2022-05-03_11h35.48.978,Main,2022.1.1,59.91877410974126,
positive,positive,1,l,j,,,,,0,6,6,2,,,,,,,,,,,,,,,,,,,,,,,,,,,,prac,2,2,1,positive,positive,j,j,1,0.6452166999997644,169.8597223000006,170.87445350000053,170.8366777000001,None,169.8597223000006,None,169.8597223000006,None,169.8597223000006,None,171.47157138000057,None,171.47157138000057,None,171.47157138000057,None,,,,,,,,,,,207,22,Male,2022-05-03_11h35.48.978,Main,2022.1.1,59.91877410974126,
negative,neutral,1,j,l,,,,,0,7,7,3,,,,,,,,,,,,,,,,,,,,,,,,,,,,prac,1,1,1,neutral,negative,l,l,1,0.6406264000006558,171.49222689999988,172.5068038999998,172.46904280000035,None,171.49222689999988,None,171.49222689999988,None,171.49222689999988,None,173.11286008000025,None,173.11286008000025,None,173.11286008000025,None,,,,,,,,,,,207,22,Male,2022-05-03_11h35.48.978,Main,2022.1.1,59.91877410974126,
neutral,positive,1,k,k,,,,,0,8,8,4,,,,,,,,,,,,,,,,,,,,,,,,,,,,prac,2,2,1,positive,neutral,k,k,1,0.6514802000001509,173.14362820000042,174.16210640000008,174.14311570000064,None,173.14362820000042,None,173.14362820000042,None,173.14362820000042,None,174.7660215800006,None,174.7660215800006,None,174.7660215800006,None,,,,,,,,,,,207,22,Male,2022-05-03_11h35.48.978,Main,2022.1.1,59.91877410974126,
neutral,positive,2,k,k,,,,,0,9,9,13,,,,,,,,,,,,,,,,,,,,,,,,,,,,prac,2,2,2,positive,neutral,k,k,1,1.2128585000000385,174.8010189000006,175.80648720000045,175.78736060000028,None,174.8010189000006,None,174.8010189000006,None,174.8010189000006,None,176.98118098000032,None,176.98118098000032,None,176.98118098000032,None,,,,,,,,,,,207,22,Male,2022-05-03_11h35.48.978,Main,2022.1.1,59.91877410974126,
negative,positive,1,j,l,,,,,0,10,10,6,,,,,,,,,,,,,,,,,,,,,,,,,,,,prac,2,2,1,positive,negative,l,k,0,-0.7660206000000471,177.0149194000005,None,None,None,177.0149194000005,None,177.0149194000005,None,177.0149194000005,None,177.2303364999998,None,177.2303364999998,None,177.2303364999998,None,,,,,,,,,,,207,22,Male,2022-05-03_11h35.48.978,Main,2022.1.1,59.91877410974126,
neutral,neutral,2,k,k,,,,,0,11,11,10,,,,,,,,,,,,,,,,,,,,,,,,,,,,prac,1,1,2,neutral,neutral,k,k,1,0.8304474999995364,180.25188680000065,181.26033689999986,181.24138959999982,None,180.25188680000065,None,180.25188680000065,None,180.25188680000065,None,182.06232418000036,None,182.06232418000036,None,182.06232418000036,None,,,,,,,,,,,207,22,Male,2022-05-03_11h35.48.978,Main,2022.1.1,59.91877410974126,
negative,neutral,2,j,l,,,,,0,12,12,12,,,,,,,,,,,,,,,,,,,,,,,,,,,,prac,1,1,2,neutral,negative,l,l,1,0.7192157999998017,182.0835605000002,183.09644260000005,183.05791380000028,None,182.0835605000002,None,182.0835605000002,None,182.0835605000002,None,183.7832852800002,None,183.7832852800002,None,183.7832852800002,None,,,,,,,,,,,207,22,Male,2022-05-03_11h35.48.978,Main,2022.1.1,59.91877410974126,
neutral,negative,1,k,k,,,,,0,13,13,7,,,,,,,,,,,,,,,,,,,,,,,,,,,,prac,1,1,1,negative,neutral,k,k,1,0.695818700000018,183.80633339999986,184.81972140000016,184.78222939999978,None,183.80633339999986,None,183.80633339999986,None,183.80633339999986,None,185.48223558000063,None,185.48223558000063,None,185.48223558000063,None,,,,,,,,,,,207,22,Male,2022-05-03_11h35.48.978,Main,2022.1.1,59.91877410974126,
neutral,negative,2,k,k,,,,,0,14,14,16,,,,,,,,,,,,,,,,,,,,,,,,,,,,prac,2,2,2,negative,neutral,k,k,1,0.5330475000000661,185.5012397999999,186.51891960000012,186.4813769000002,None,185.5012397999999,None,185.5012397999999,None,185.5012397999999,None,187.01787797999987,None,187.01787797999987,None,187.01787797999987,None,,,,,,,,,,,207,22,Male,2022-05-03_11h35.48.978,Main,2022.1.1,59.91877410974126,
positive,positive,2,l,j,,,,,0,15,15,11,,,,,,,,,,,,,,,,,,,,,,,,,,,,prac,1,1,2,positive,positive,j,j,1,0.8780795000002399,187.03646470000058,188.0421726000004,188.02259649999996,None,187.03646470000058,None,187.03646470000058,None,187.03646470000058,None,188.89749028000006,None,188.89749028000006,None,188.89749028000006,None,,,,,,,,,,,207,22,Male,2022-05-03_11h35.48.978,Main,2022.1.1,59.91877410974126,
neutral,neutral,1,k,k,,,,,0,16,16,1,,,,,,,,,,,,,,,,,,,,,,,,,,,,prac,1,1,1,neutral,neutral,k,k,1,0.6135789999998451,188.9194875000003,189.92731129999993,189.90807099999984,None,188.9194875000003,None,188.9194875000003,None,188.9194875000003,None,190.51351918,None,190.51351918,None,190.51351918,None,,,,,,,,,,,207,22,Male,2022-05-03_11h35.48.978,Main,2022.1.1,59.91877410974126,
positive,negative,1,l,j,,,,,0,17,17,5,,,,,,,,,,,,,,,,,,,,,,,,,,,,prac,2,2,1,negative,positive,j,j,1,0.700452299999597,190.54602250000062,191.5526206000004,191.53416079999988,None,190.54602250000062,None,190.54602250000062,None,190.54602250000062,None,192.21922298000027,None,192.21922298000027,None,192.21922298000027,None,,,,,,,,,,,207,22,Male,2022-05-03_11h35.48.978,Main,2022.1.1,59.91877410974126,
positive,positive,2,l,j,,,,,1,0,18,11,,,,,,,,,,,,,,,,,,,,,,,,,,,,prac,1,1,2,positive,positive,j,j,1,0.6648843000002671,192.2389223,193.25690889999987,193.21882760000062,None,192.2389223,None,192.2389223,None,192.2389223,None,193.88718857999993,None,193.88718857999993,None,193.88718857999993,None,,,,,,,,,,,207,22,Male,2022-05-03_11h35.48.978,Main,2022.1.1,59.91877410974126,
neutral,neutral,1,k,k,,,,,1,1,19,1,,,,,,,,,,,,,,,,,,,,,,,,,,,,prac,2,2,1,neutral,neutral,k,k,1,0.8022858000003907,193.9166025000004,194.93134970000028,194.91315329999998,None,193.9166025000004,None,193.9166025000004,None,193.9166025000004,None,195.6913105800004,None,195.6913105800004,None,195.6913105800004,None,,,,,,,,,,,207,22,Male,2022-05-03_11h35.48.978,Main,2022.1.1,59.91877410974126,
neutral,positive,2,k,k,,,,,1,2,20,13,,,,,,,,,,,,,,,,,,,,,,,,,,,,prac,2,2,2,positive,neutral,k,k,1,0.7273129999994126,195.7110532000006,196.7171046000003,196.69829260000006,None,195.7110532000006,None,195.7110532000006,None,195.7110532000006,None,197.42294868000045,None,197.42294868000045,None,197.42294868000045,None,,,,,,,,,,,207,22,Male,2022-05-03_11h35.48.978,Main,2022.1.1,59.91877410974126,
negative,positive,1,j,l,,,,,1,3,21,6,,,,,,,,,,,,,,,,,,,,,,,,,,,,prac,2,2,1,positive,negative,l,l,1,3.1538049000000683,197.44235610000032,198.45124889999988,198.4157636,None,197.44235610000032,None,197.44235610000032,None,197.44235610000032,None,201.58245110000007,None,201.58245110000007,None,201.58245110000007,None,,,,,,,,,,,207,22,Male,2022-05-03_11h35.48.978,Main,2022.1.1,59.91877410974126,
neutral,negative,1,k,k,,,,,1,4,22,7,,,,,,,,,,,,,,,,,,,,,,,,,,,,prac,1,1,1,negative,neutral,k,k,1,1.3132402999999613,202.6009883000006,203.6107944000005,203.59219759999996,None,202.6009883000006,None,202.6009883000006,None,202.6009883000006,None,204.89216708000004,None,204.89216708000004,None,204.89216708000004,None,,,,,,,,,,,207,22,Male,2022-05-03_11h35.48.978,Main,2022.1.1,59.91877410974126,
positive,negative,1,l,j,,,,,1,5,23,5,,,,,,,,,,,,,,,,,,,,,,,,,,,,prac,2,2,1,negative,positive,j,k,0,-0.009181700000226556,204.91360090000035,None,205.88757948000057,None,204.91360090000035,None,204.91360090000035,None,204.91360090000035,None,205.89311520000047,None,205.89311520000047,None,205.89311520000047,None,,,,,,,,,,,207,22,Male,2022-05-03_11h35.48.978,Main,2022.1.1,59.91877410974126,
negative,negative,1,j,l,,,,,1,6,24,0,,,,,,,,,,,,,,,,,,,,,,,,,,,,prac,2,2,1,negative,negative,l,l,1,0.7871235000002343,208.91517459999977,209.93157239999982,209.89432020000004,None,208.91517459999977,None,208.91517459999977,None,208.91517459999977,None,210.68093818000034,None,210.68093818000034,None,210.68093818000034,None,,,,,,,,,,,207,22,Male,2022-05-03_11h35.48.978,Main,2022.1.1,59.91877410974126,
neutral,neutral,2,k,k,,,,,1,7,25,10,,,,,,,,,,,,,,,,,,,,,,,,,,,,prac,1,1,2,neutral,neutral,k,k,1,1.0474428999996235,210.70084430000043,211.71547290000035,211.67746679999982,None,210.70084430000043,None,210.70084430000043,None,210.70084430000043,None,212.73170347999985,None,212.73170347999985,None,212.73170347999985,None,,,,,,,,,,,207,22,Male,2022-05-03_11h35.48.978,Main,2022.1.1,59.91877410974126,
negative,negative,2,j,l,,,,,1,8,26,9,,,,,,,,,,,,,,,,,,,,,,,,,,,,prac,1,1,2,negative,negative,l,l,1,0.6250779000001785,212.75504530000035,213.7576882000003,213.73978780000016,None,212.75504530000035,None,212.75504530000035,None,212.75504530000035,None,214.3589784800006,None,214.3589784800006,None,214.3589784800006,None,,,,,,,,,,,207,22,Male,2022-05-03_11h35.48.978,Main,2022.1.1,59.91877410974126,
positive,neutral,2,l,j,,,,,1,9,27,17,,,,,,,,,,,,,,,,,,,,,,,,,,,,prac,1,1,2,neutral,positive,j,l,0,0.5577194999996209,214.3794852000001,215.39612529999977,215.35903400000007,None,214.3794852000001,None,214.3794852000001,None,214.3794852000001,None,215.9290332999999,None,215.9290332999999,None,215.9290332999999,None,,,,,,,,,,,207,22,Male,2022-05-03_11h35.48.978,Main,2022.1.1,59.91877410974126,
neutral,negative,2,k,k,,,,,1,10,28,16,,,,,,,,,,,,,,,,,,,,,,,,,,,,prac,2,2,2,negative,neutral,k,k,1,0.6873924999999872,216.94607330000053,217.94914060000065,217.93086889999995,None,216.94607330000053,None,216.94607330000053,None,216.94607330000053,None,218.6154227799998,None,218.6154227799998,None,218.6154227799998,None,,,,,,,,,,,207,22,Male,2022-05-03_11h35.48.978,Main,2022.1.1,59.91877410974126,
positive,positive,1,l,j,,,,,1,11,29,2,,,,,,,,,,,,,,,,,,,,,,,,,,,,prac,1,1,1,positive,positive,j,j,1,0.7983802999997351,218.6465779,219.65621850000025,219.6374067000006,None,218.6465779,None,218.6465779,None,218.6465779,None,220.4173833800005,None,220.4173833800005,None,220.4173833800005,None,,,,,,,,,,,207,22,Male,2022-05-03_11h35.48.978,Main,2022.1.1,59.91877410974126,
positive,neutral,1,l,j,,,,,1,12,30,8,,,,,,,,,,,,,,,,,,,,,,,,,,,,prac,1,1,1,neutral,positive,j,j,1,0.6624899999997069,220.43733220000013,221.4517424000005,221.43251340000006,None,220.43733220000013,None,220.43733220000013,None,220.43733220000013,None,222.0819441800004,None,222.0819441800004,None,222.0819441800004,None,,,,,,,,,,,207,22,Male,2022-05-03_11h35.48.978,Main,2022.1.1,59.91877410974126,
positive,negative,2,l,j,,,,,1,13,31,14,,,,,,,,,,,,,,,,,,,,,,,,,,,,prac,2,2,2,negative,positive,j,j,1,0.8644464999997581,222.10180260000016,223.1178103000002,223.07977690000007,None,222.10180260000016,None,222.10180260000016,None,222.10180260000016,None,223.9466202800004,None,223.9466202800004,None,223.9466202800004,None,,,,,,,,,,,207,22,Male,2022-05-03_11h35.48.978,Main,2022.1.1,59.91877410974126,
neutral,positive,1,k,k,,,,,1,14,32,4,,,,,,,,,,,,,,,,,,,,,,,,,,,,prac,1,1,1,positive,neutral,k,k,1,0.6977025000005597,223.96547230000033,224.9729255000002,224.95357289999993,None,223.96547230000033,None,223.96547230000033,None,223.96547230000033,None,225.6459228800004,None,225.6459228800004,None,225.6459228800004,None,,,,,,,,,,,207,22,Male,2022-05-03_11h35.48.978,Main,2022.1.1,59.91877410974126,
negative,positive,2,j,l,,,,,1,15,33,15,,,,,,,,,,,,,,,,,,,,,,,,,,,,prac,1,1,2,positive,negative,l,l,1,0.9088934000001245,225.6659724000001,226.67438760000005,226.65505250000024,None,225.6659724000001,None,225.6659724000001,None,225.6659724000001,None,227.5577971800003,None,227.5577971800003,None,227.5577971800003,None,,,,,,,,,,,207,22,Male,2022-05-03_11h35.48.978,Main,2022.1.1,59.91877410974126,
negative,neutral,2,j,l,,,,,1,16,34,12,,,,,,,,,,,,,,,,,,,,,,,,,,,,prac,2,2,2,neutral,negative,l,l,1,0.8008641999995234,227.5884971000005,228.5972636000006,228.57845710000038,None,227.5884971000005,None,227.5884971000005,None,227.5884971000005,None,229.35880978000023,None,229.35880978000023,None,229.35880978000023,None,,,,,,,,,,,207,22,Male,2022-05-03_11h35.48.978,Main,2022.1.1,59.91877410974126,
negative,neutral,1,j,l,,,,,1,17,35,3,,,,,,,,,,,,,,,,,,,,,,,,,,,,prac,2,2,1,neutral,negative,l,l,1,0.7270721000004414,229.38022940000064,230.3826379000002,230.36370330000045,None,229.38022940000064,None,229.38022940000064,None,229.38022940000064,None,231.09028988000046,None,231.09028988000046,None,231.09028988000046,None,,,,,,,,,,,207,22,Male,2022-05-03_11h35.48.978,Main,2022.1.1,59.91877410974126,
,,,,,,,,,,,,,,,,,,,,,,,,,,,,,,,,,,,,,,,,,,,,,,,,,,,,,,,,,,,,,,,,,,231.09552390000044,None,None,,,,,,,,207,22,Male,2022-05-03_11h35.48.978,Main,2022.1.1,59.91877410974126,
,,,,,,,,,,,,,,,,,,,,,,,,,,,,,,,,,,,,,,,,,,,,,,,,,,,,,,,,,,,,,,,,,,,,,0.08611111,-0.06759259,1,0,0,0.00500908000049094,None,207,22,Male,2022-05-03_11h35.48.978,Main,2022.1.1,59.91877410974126,
positive,positive,2,l,j,,,,,,,,,0,0,0,11,,,,,,,,,,,,,,,,,,,,,,258.94637280000006,None,main,2,2,2,positive,positive,j,j,1,0.6790185999998357,260.9685736000001,261.97512150000057,261.9558997000004,None,260.9685736000001,None,260.9685736000001,None,260.9685736000001,None,262.62461428000006,None,262.62461428000006,None,262.62461428000006,None,,,,,,,,,,,207,22,Male,2022-05-03_11h35.48.978,Main,2022.1.1,59.91877410974126,
neutral,negative,1,k,k,,,,,,,,,0,1,1,7,,,,,,,,,,,,,,,,,,,,,,,,main,2,2,1,negative,neutral,k,k,1,0.6577538999999888,262.6481954000001,263.6511623000006,263.63284029999977,None,262.6481954000001,None,262.6481954000001,None,262.6481954000001,None,264.28611768000064,None,264.28611768000064,None,264.28611768000064,None,,,,,,,,,,,207,22,Male,2022-05-03_11h35.48.978,Main,2022.1.1,59.91877410974126,
neutral,positive,2,k,k,,,,,,,,,0,2,2,13,,,,,,,,,,,,,,,,,,,,,,,,main,1,1,2,positive,neutral,k,k,1,0.5682525000001988,264.30635560000064,265.3261051999998,265.28847870000027,None,264.30635560000064,None,264.30635560000064,None,264.30635560000064,None,265.8570981800003,None,265.8570981800003,None,265.8570981800003,None,,,,,,,,,,,207,22,Male,2022-05-03_11h35.48.978,Main,2022.1.1,59.91877410974126,
negative,neutral,1,j,l,,,,,,,,,0,3,3,3,,,,,,,,,,,,,,,,,,,,,,,,main,1,1,1,neutral,negative,l,l,1,0.7782102999999552,265.87762360000033,266.8819676000003,266.8621268000006,None,265.87762360000033,None,265.87762360000033,None,265.87762360000033,None,267.63756268,None,267.63756268,None,267.63756268,None,,,,,,,,,,,207,22,Male,2022-05-03_11h35.48.978,Main,2022.1.1,59.91877410974126,
positive,positive,1,l,j,,,,,,,,,0,4,4,2,,,,,,,,,,,,,,,,,,,,,,,,main,2,2,1,positive,positive,j,j,1,0.7884370000001582,267.6590388000004,268.66684200000054,268.6483226999999,None,267.6590388000004,None,267.6590388000004,None,267.6590388000004,None,269.42929078,None,269.42929078,None,269.42929078,None,,,,,,,,,,,207,22,Male,2022-05-03_11h35.48.978,Main,2022.1.1,59.91877410974126,
positive,neutral,1,l,j,,,,,,,,,0,5,5,8,,,,,,,,,,,,,,,,,,,,,,,,main,2,2,1,neutral,positive,j,j,1,0.6194711999996798,269.4508037000005,270.4571897000005,270.4393018999999,None,269.4508037000005,None,269.4508037000005,None,269.4508037000005,None,271.0527943799998,None,271.0527943799998,None,271.0527943799998,None,,,,,,,,,,,207,22,Male,2022-05-03_11h35.48.978,Main,2022.1.1,59.91877410974126,
neutral,neutral,1,k,k,,,,,,,,,0,6,6,1,,,,,,,,,,,,,,,,,,,,,,,,main,2,2,1,neutral,neutral,k,k,1,0.7678751000003103,271.07592170000044,272.0913586000006,272.05351059999975,None,271.07592170000044,None,271.07592170000044,None,271.07592170000044,None,272.82471268000063,None,272.82471268000063,None,272.82471268000063,None,,,,,,,,,,,207,22,Male,2022-05-03_11h35.48.978,Main,2022.1.1,59.91877410974126,
neutral,neutral,2,k,k,,,,,,,,,0,7,7,10,,,,,,,,,,,,,,,,,,,,,,,,main,1,1,2,neutral,neutral,k,k,1,0.5514956999995775,272.84944200000064,273.85447939999995,273.83613049999985,None,272.84944200000064,None,272.84944200000064,None,272.84944200000064,None,274.3794565799999,None,274.3794565799999,None,274.3794565799999,None,,,,,,,,,,,207,22,Male,2022-05-03_11h35.48.978,Main,2022.1.1,59.91877410974126,
positive,neutral,2,l,j,,,,,,,,,0,8,8,17,,,,,,,,,,,,,,,,,,,,,,,,main,1,1,2,neutral,positive,j,j,1,0.676521600000342,274.3975672000006,275.40854339999987,275.3705891999998,None,274.3975672000006,None,274.3975672000006,None,274.3975672000006,None,276.0571029800003,None,276.0571029800003,None,276.0571029800003,None,,,,,,,,,,,207,22,Male,2022-05-03_11h35.48.978,Main,2022.1.1,59.91877410974126,
positive,negative,2,l,j,,,,,,,,,0,9,9,14,,,,,,,,,,,,,,,,,,,,,,,,main,2,2,2,negative,positive,j,j,1,0.6694496000000072,276.07880100000057,277.08658280000054,277.0656933999999,None,276.07880100000057,None,276.07880100000057,None,276.07880100000057,None,277.73044837999987,None,277.73044837999987,None,277.73044837999987,None,,,,,,,,,,,207,22,Male,2022-05-03_11h35.48.978,Main,2022.1.1,59.91877410974126,
negative,positive,1,j,l,,,,,,,,,0,10,10,6,,,,,,,,,,,,,,,,,,,,,,,,main,2,2,1,positive,negative,l,l,1,0.8785959000006187,277.7533936,278.75677350000024,278.7381519999999,None,277.7533936,None,277.7533936,None,277.7533936,None,279.61335818000043,None,279.61335818000043,None,279.61335818000043,None,,,,,,,,,,,207,22,Male,2022-05-03_11h35.48.978,Main,2022.1.1,59.91877410974126,
positive,negative,1,l,j,,,,,,,,,0,11,11,5,,,,,,,,,,,,,,,,,,,,,,,,main,2,2,1,negative,positive,j,l,0,-0.7039640000002692,279.63404679999985,None,None,None,279.63404679999985,None,279.63404679999985,None,279.63404679999985,None,279.9200341000005,None,279.9200341000005,None,279.9200341000005,None,,,,,,,,,,,207,22,Male,2022-05-03_11h35.48.978,Main,2022.1.1,59.91877410974126,
neutral,positive,1,k,k,,,,,,,,,0,12,12,4,,,,,,,,,,,,,,,,,,,,,,,,main,2,2,1,positive,neutral,k,k,1,0.750722499999938,282.93889300000046,283.94902319999983,283.93070870000065,None,282.93889300000046,None,282.93889300000046,None,282.93889300000046,None,284.66880477999985,None,284.66880477999985,None,284.66880477999985,None,,,,,,,,,,,207,22,Male,2022-05-03_11h35.48.978,Main,2022.1.1,59.91877410974126,
negative,negative,2,j,l,,,,,,,,,0,13,13,9,,,,,,,,,,,,,,,,,,,,,,,,main,2,2,2,negative,negative,l,l,1,0.7206852000008439,284.69316190000063,285.7143450000003,285.67425880000064,None,284.69316190000063,None,284.69316190000063,None,284.69316190000063,None,286.39365197999996,None,286.39365197999996,None,286.39365197999996,None,,,,,,,,,,,207,22,Male,2022-05-03_11h35.48.978,Main,2022.1.1,59.91877410974126,
negative,positive,2,j,l,,,,,,,,,0,14,14,15,,,,,,,,,,,,,,,,,,,,,,,,main,2,2,2,positive,negative,l,l,1,1.3100752999998804,286.4140225000001,287.41927920000035,287.40078840000024,None,286.4140225000001,None,286.4140225000001,None,286.4140225000001,None,288.7071037800006,None,288.7071037800006,None,288.7071037800006,None,,,,,,,,,,,207,22,Male,2022-05-03_11h35.48.978,Main,2022.1.1,59.91877410974126,
neutral,negative,2,k,k,,,,,,,,,0,15,15,16,,,,,,,,,,,,,,,,,,,,,,,,main,2,2,2,negative,neutral,k,k,1,0.6868049999993673,288.7262330000003,289.7448750000003,289.70581589999983,None,288.7262330000003,None,288.7262330000003,None,288.7262330000003,None,290.3958802799998,None,290.3958802799998,None,290.3958802799998,None,,,,,,,,,,,207,22,Male,2022-05-03_11h35.48.978,Main,2022.1.1,59.91877410974126,
negative,negative,1,j,l,,,,,,,,,0,16,16,0,,,,,,,,,,,,,,,,,,,,,,,,main,2,2,1,negative,negative,l,l,1,1.351130899999589,290.4186651,291.43525560000035,291.39699180000025,None,290.4186651,None,290.4186651,None,290.4186651,None,292.75029438,None,292.75029438,None,292.75029438,None,,,,,,,,,,,207,22,Male,2022-05-03_11h35.48.978,Main,2022.1.1,59.91877410974126,
negative,neutral,2,j,l,,,,,,,,,0,17,17,12,,,,,,,,,,,,,,,,,,,,,,,,main,2,2,2,neutral,negative,l,l,1,-0.6488110999998753,292.7716304000005,None,None,None,292.7716304000005,None,292.7716304000005,None,292.7716304000005,None,293.11432500000046,None,293.11432500000046,None,293.11432500000046,None,,,,,,,,,,,207,22,Male,2022-05-03_11h35.48.978,Main,2022.1.1,59.91877410974126,
positive,neutral,1,l,j,,,,,,,,,1,0,18,8,,,,,,,,,,,,,,,,,,,,,,,,main,2,2,1,neutral,positive,j,j,1,0.9693112000004476,296.13698770000065,297.1413760000005,297.1224265999999,None,296.13698770000065,None,296.13698770000065,None,296.13698770000065,None,298.08444487999986,None,298.08444487999986,None,298.08444487999986,None,,,,,,,,,,,207,22,Male,2022-05-03_11h35.48.978,Main,2022.1.1,59.91877410974126,
negative,positive,1,j,l,,,,,,,,,1,1,19,6,,,,,,,,,,,,,,,,,,,,,,,,main,1,1,1,positive,negative,l,l,1,0.879317899999478,298.11006970000017,299.1135298999998,299.0944094000006,None,298.11006970000017,None,298.11006970000017,None,298.11006970000017,None,299.9671134800001,None,299.9671134800001,None,299.9671134800001,None,,,,,,,,,,,207,22,Male,2022-05-03_11h35.48.978,Main,2022.1.1,59.91877410974126,
negative,negative,2,j,l,,,,,,,,,1,2,20,9,,,,,,,,,,,,,,,,,,,,,,,,main,1,1,2,negative,negative,l,l,1,0.9822847000004913,299.9908869000001,301.00312740000027,300.96523380000053,None,299.9908869000001,None,299.9908869000001,None,299.9908869000001,None,301.9533316799998,None,301.9533316799998,None,301.9533316799998,None,,,,,,,,,,,207,22,Male,2022-05-03_11h35.48.978,Main,2022.1.1,59.91877410974126,
positive,positive,1,l,j,,,,,,,,,1,3,21,2,,,,,,,,,,,,,,,,,,,,,,,,main,2,2,1,positive,positive,j,j,1,0.7779290999997102,301.9756244,302.9926354999998,302.95441050000045,None,301.9756244,None,301.9756244,None,301.9756244,None,303.73533508000037,None,303.73533508000037,None,303.73533508000037,None,,,,,,,,,,,207,22,Male,2022-05-03_11h35.48.978,Main,2022.1.1,59.91877410974126,
neutral,neutral,2,k,k,,,,,,,,,1,4,22,10,,,,,,,,,,,,,,,,,,,,,,,,main,2,2,2,neutral,neutral,k,k,1,0.779750900000181,303.75497240000004,304.7716725999999,304.73414409999987,None,303.75497240000004,None,303.75497240000004,None,303.75497240000004,None,305.5171247799999,None,305.5171247799999,None,305.5171247799999,None,,,,,,,,,,,207,22,Male,2022-05-03_11h35.48.978,Main,2022.1.1,59.91877410974126,
positive,negative,1,l,j,,,,,,,,,1,5,23,5,,,,,,,,,,,,,,,,,,,,,,,,main,2,2,1,negative,positive,j,j,1,0.7551288000004206,305.5370539000005,306.5517722000004,306.5130545000002,None,305.5370539000005,None,305.5370539000005,None,305.5370539000005,None,307.27729358000033,None,307.27729358000033,None,307.27729358000033,None,,,,,,,,,,,207,22,Male,2022-05-03_11h35.48.978,Main,2022.1.1,59.91877410974126,
neutral,negative,1,k,k,,,,,,,,,1,6,24,7,,,,,,,,,,,,,,,,,,,,,,,,main,2,2,1,negative,neutral,k,k,1,0.6691237000004548,307.2965469999999,308.3011230000002,308.2829504000001,None,307.2965469999999,None,307.2965469999999,None,307.2965469999999,None,308.94772658000056,None,308.94772658000056,None,308.94772658000056,None,,,,,,,,,,,207,22,Male,2022-05-03_11h35.48.978,Main,2022.1.1,59.91877410974126,
negative,positive,2,j,l,,,,,,,,,1,7,25,15,,,,,,,,,,,,,,,,,,,,,,,,main,1,1,2,positive,negative,l,l,1,0.6997940999999628,308.96832580000046,309.96904859999995,309.9510830999998,None,308.96832580000046,None,308.96832580000046,None,308.96832580000046,None,310.6530789799999,None,310.6530789799999,None,310.6530789799999,None,,,,,,,,,,,207,22,Male,2022-05-03_11h35.48.978,Main,2022.1.1,59.91877410974126,
positive,neutral,2,l,j,,,,,,,,,1,8,26,17,,,,,,,,,,,,,,,,,,,,,,,,main,2,2,2,neutral,positive,j,j,1,0.7833117000000129,310.67258519999996,311.6792153000006,311.65935100000024,None,310.67258519999996,None,310.67258519999996,None,310.67258519999996,None,312.4386462800003,None,312.4386462800003,None,312.4386462800003,None,,,,,,,,,,,207,22,Male,2022-05-03_11h35.48.978,Main,2022.1.1,59.91877410974126,
positive,positive,2,l,j,,,,,,,,,1,9,27,11,,,,,,,,,,,,,,,,,,,,,,,,main,1,1,2,positive,positive,j,j,1,1.171726900000067,312.4607698,313.4788272000005,313.4411793999998,None,312.4607698,None,312.4607698,None,312.4607698,None,314.61162888000035,None,314.61162888000035,None,314.61162888000035,None,,,,,,,,,,,207,22,Male,2022-05-03_11h35.48.978,Main,2022.1.1,59.91877410974126,
neutral,neutral,1,k,k,,,,,,,,,1,10,28,1,,,,,,,,,,,,,,,,,,,,,,,,main,2,2,1,neutral,neutral,k,k,1,0.6489993999994113,314.6315947000003,315.64432170000055,315.6059885000004,None,314.6315947000003,None,314.6315947000003,None,314.6315947000003,None,316.26311308000004,None,316.26311308000004,None,316.26311308000004,None,,,,,,,,,,,207,22,Male,2022-05-03_11h35.48.978,Main,2022.1.1,59.91877410974126,
positive,negative,2,l,j,,,,,,,,,1,11,29,14,,,,,,,,,,,,,,,,,,,,,,,,main,2,2,2,negative,positive,j,k,0,0.02218429999993532,316.28322430000026,None,317.27212000000054,None,316.28322430000026,None,316.28322430000026,None,316.28322430000026,None,317.2956640000002,None,317.2956640000002,None,317.2956640000002,None,,,,,,,,,,,207,22,Male,2022-05-03_11h35.48.978,Main,2022.1.1,59.91877410974126,
negative,neutral,2,j,l,,,,,,,,,1,12,30,12,,,,,,,,,,,,,,,,,,,,,,,,main,2,2,2,neutral,negative,l,l,1,0.7583902999995189,320.3184417000002,321.33128209999995,321.29546889999983,None,320.3184417000002,None,320.3184417000002,None,320.3184417000002,None,322.05706818,None,322.05706818,None,322.05706818,None,,,,,,,,,,,207,22,Male,2022-05-03_11h35.48.978,Main,2022.1.1,59.91877410974126,
negative,neutral,1,j,l,,,,,,,,,1,13,31,3,,,,,,,,,,,,,,,,,,,,,,,,main,1,1,1,neutral,negative,l,l,1,0.7451215999999476,322.07762550000007,323.0929686999998,323.05507560000024,None,322.07762550000007,None,322.07762550000007,None,322.07762550000007,None,323.80733218000023,None,323.80733218000023,None,323.80733218000023,None,,,,,,,,,,,207,22,Male,2022-05-03_11h35.48.978,Main,2022.1.1,59.91877410974126,
neutral,positive,1,k,k,,,,,,,,,1,14,32,4,,,,,,,,,,,,,,,,,,,,,,,,main,1,1,1,positive,neutral,k,l,0,0.6662698000000091,323.8277557000001,324.82911310000054,324.81103560000065,None,323.8277557000001,None,323.8277557000001,None,323.8277557000001,None,325.48169400000006,None,325.48169400000006,None,325.48169400000006,None,,,,,,,,,,,207,22,Male,2022-05-03_11h35.48.978,Main,2022.1.1,59.91877410974126,
neutral,positive,2,k,k,,,,,,,,,1,15,33,13,,,,,,,,,,,,,,,,,,,,,,,,main,2,2,2,positive,neutral,k,l,0,0.8101956000000428,326.49901279999995,327.50669149999976,327.48745990000043,None,326.49901279999995,None,326.49901279999995,None,326.49901279999995,None,328.29506219999985,None,328.29506219999985,None,328.29506219999985,None,,,,,,,,,,,207,22,Male,2022-05-03_11h35.48.978,Main,2022.1.1,59.91877410974126,
negative,negative,1,j,l,,,,,,,,,1,16,34,0,,,,,,,,,,,,,,,,,,,,,,,,main,2,2,1,negative,negative,l,l,1,0.7979406000004019,329.31788490000054,330.3287135999999,330.3096642999999,None,329.31788490000054,None,329.31788490000054,None,329.31788490000054,None,331.09409307999977,None,331.09409307999977,None,331.09409307999977,None,,,,,,,,,,,207,22,Male,2022-05-03_11h35.48.978,Main,2022.1.1,59.91877410974126,
neutral,negative,2,k,k,,,,,,,,,1,17,35,16,,,,,,,,,,,,,,,,,,,,,,,,main,2,2,2,negative,neutral,k,k,1,0.8389796000001297,331.11574089999976,332.11801770000056,332.0995810000004,None,331.11574089999976,None,331.11574089999976,None,331.11574089999976,None,332.9383881800004,None,332.9383881800004,None,332.9383881800004,None,,,,,,,,,,,207,22,Male,2022-05-03_11h35.48.978,Main,2022.1.1,59.91877410974126,
neutral,negative,1,k,k,,,,,,,,,2,0,36,7,,,,,,,,,,,,,,,,,,,,,,,,main,2,2,1,negative,neutral,k,k,1,0.5795497999997679,332.9613538000003,333.9662785999999,333.94795650000015,None,332.9613538000003,None,332.9613538000003,None,332.9613538000003,None,334.5221824800001,None,334.5221824800001,None,334.5221824800001,None,,,,,,,,,,,207,22,Male,2022-05-03_11h35.48.978,Main,2022.1.1,59.91877410974126,
positive,neutral,1,l,j,,,,,,,,,2,1,37,8,,,,,,,,,,,,,,,,,,,,,,,,main,2,2,1,neutral,positive,j,j,1,0.8345678000005137,334.5421412000005,335.54632670000046,335.52732970000034,None,334.5421412000005,None,334.5421412000005,None,334.5421412000005,None,336.35819228000037,None,336.35819228000037,None,336.35819228000037,None,,,,,,,,,,,207,22,Male,2022-05-03_11h35.48.978,Main,2022.1.1,59.91877410974126,
negative,negative,1,j,l,,,,,,,,,2,2,38,0,,,,,,,,,,,,,,,,,,,,,,,,main,2,2,1,negative,negative,l,k,0,1.387431999999535,336.3793690000002,337.38379910000003,337.36488329999975,None,336.3793690000002,None,336.3793690000002,None,336.3793690000002,None,338.7569156999998,None,338.7569156999998,None,338.7569156999998,None,,,,,,,,,,,207,22,Male,2022-05-03_11h35.48.978,Main,2022.1.1,59.91877410974126,
positive,negative,2,l,j,,,,,,,,,2,3,39,14,,,,,,,,,,,,,,,,,,,,,,,,main,1,1,2,negative,positive,j,j,1,1.0563595999992685,339.78391180000017,340.79666290000023,340.7771539000005,None,339.78391180000017,None,339.78391180000017,None,339.78391180000017,None,341.8192785800002,None,341.8192785800002,None,341.8192785800002,None,,,,,,,,,,,207,22,Male,2022-05-03_11h35.48.978,Main,2022.1.1,59.91877410974126,
positive,neutral,2,l,j,,,,,,,,,2,4,40,17,,,,,,,,,,,,,,,,,,,,,,,,main,2,2,2,neutral,positive,j,j,1,0.7810861999996632,341.8412680000001,342.85394989999986,342.81519339999977,None,341.8412680000001,None,341.8412680000001,None,341.8412680000001,None,343.6033508800001,None,343.6033508800001,None,343.6033508800001,None,,,,,,,,,,,207,22,Male,2022-05-03_11h35.48.978,Main,2022.1.1,59.91877410974126,
negative,positive,2,j,l,,,,,,,,,2,5,41,15,,,,,,,,,,,,,,,,,,,,,,,,main,2,2,2,positive,negative,l,l,1,0.7496352999996816,343.62345189999996,344.6287957000004,344.60945640000045,None,343.62345189999996,None,343.62345189999996,None,343.62345189999996,None,345.3548741800005,None,345.3548741800005,None,345.3548741800005,None,,,,,,,,,,,207,22,Male,2022-05-03_11h35.48.978,Main,2022.1.1,59.91877410974126,
negative,negative,2,j,l,,,,,,,,,2,6,42,9,,,,,,,,,,,,,,,,,,,,,,,,main,2,2,2,negative,negative,l,l,1,0.8279380999993009,345.3746792000002,346.38215070000024,346.3635367000006,None,345.3746792000002,None,345.3746792000002,None,345.3746792000002,None,347.18726828000035,None,347.18726828000035,None,347.18726828000035,None,,,,,,,,,,,207,22,Male,2022-05-03_11h35.48.978,Main,2022.1.1,59.91877410974126,
positive,positive,2,l,j,,,,,,,,,2,7,43,11,,,,,,,,,,,,,,,,,,,,,,,,main,2,2,2,positive,positive,j,l,0,-0.6471121000004132,347.20874210000056,None,None,None,347.20874210000056,None,347.20874210000056,None,347.20874210000056,None,347.54684309999993,None,347.54684309999993,None,347.54684309999993,None,,,,,,,,,,,207,22,Male,2022-05-03_11h35.48.978,Main,2022.1.1,59.91877410974126,
neutral,neutral,1,k,k,,,,,,,,,2,8,44,1,,,,,,,,,,,,,,,,,,,,,,,,main,2,2,1,neutral,neutral,k,k,1,0.780914799999664,350.56262380000044,351.5790941000005,351.5411496000006,None,350.56262380000044,None,350.56262380000044,None,350.56262380000044,None,352.3234241800001,None,352.3234241800001,None,352.3234241800001,None,,,,,,,,,,,207,22,Male,2022-05-03_11h35.48.978,Main,2022.1.1,59.91877410974126,
neutral,positive,1,k,k,,,,,,,,,2,9,45,4,,,,,,,,,,,,,,,,,,,,,,,,main,1,1,1,positive,neutral,k,k,1,0.818474900000183,352.3467569000004,353.34878480000043,353.33008560000053,None,352.3467569000004,None,352.3467569000004,None,352.3467569000004,None,354.1468871799998,None,354.1468871799998,None,354.1468871799998,None,,,,,,,,,,,207,22,Male,2022-05-03_11h35.48.978,Main,2022.1.1,59.91877410974126,
positive,negative,1,l,j,,,,,,,,,2,10,46,5,,,,,,,,,,,,,,,,,,,,,,,,main,2,2,1,negative,positive,j,k,0,0.3829318999996758,354.16768800000045,355.1850361000006,355.14552280000044,None,354.16768800000045,None,354.16768800000045,None,354.16768800000045,None,355.54090280000037,None,355.54090280000037,None,355.54090280000037,None,,,,,,,,,,,207,22,Male,2022-05-03_11h35.48.978,Main,2022.1.1,59.91877410974126,
negative,neutral,2,j,l,,,,,,,,,2,11,47,12,,,,,,,,,,,,,,,,,,,,,,,,main,1,1,2,neutral,negative,l,l,1,0.7174301999993986,356.5645564000006,357.57419970000046,357.55488049999985,None,356.5645564000006,None,356.5645564000006,None,356.5645564000006,None,358.2593743799998,None,358.2593743799998,None,358.2593743799998,None,,,,,,,,,,,207,22,Male,2022-05-03_11h35.48.978,Main,2022.1.1,59.91877410974126,
negative,positive,1,j,l,,,,,,,,,2,12,48,6,,,,,,,,,,,,,,,,,,,,,,,,main,1,1,1,positive,negative,l,l,1,0.6954988000006779,358.28145029999996,359.2904606000002,359.2714329999999,None,358.28145029999996,None,358.28145029999996,None,358.28145029999996,None,359.9580893800003,None,359.9580893800003,None,359.9580893800003,None,,,,,,,,,,,207,22,Male,2022-05-03_11h35.48.978,Main,2022.1.1,59.91877410974126,
neutral,negative,2,k,k,,,,,,,,,2,13,49,16,,,,,,,,,,,,,,,,,,,,,,,,main,1,1,2,negative,neutral,k,l,0,1.9008598000000347,359.97914690000016,360.97962410000036,360.96317270000054,None,359.97914690000016,None,359.97914690000016,None,359.97914690000016,None,362.8697374000003,None,362.8697374000003,None,362.8697374000003,None,,,,,,,,,,,207,22,Male,2022-05-03_11h35.48.978,Main,2022.1.1,59.91877410974126,
neutral,positive,2,k,k,,,,,,,,,2,14,50,13,,,,,,,,,,,,,,,,,,,,,,,,main,1,1,2,positive,neutral,k,k,1,0.7135086000007504,363.89424659999986,364.9000356000006,364.87927880000007,None,363.89424659999986,None,363.89424659999986,None,363.89424659999986,None,365.5881585799998,None,365.5881585799998,None,365.5881585799998,None,,,,,,,,,,,207,22,Male,2022-05-03_11h35.48.978,Main,2022.1.1,59.91877410974126,
positive,positive,1,l,j,,,,,,,,,2,15,51,2,,,,,,,,,,,,,,,,,,,,,,,,main,2,2,1,positive,positive,j,j,1,0.8186850000001868,365.60890610000024,366.61948219999977,366.60045309999987,None,365.60890610000024,None,365.60890610000024,None,365.60890610000024,None,367.4094041799999,None,367.4094041799999,None,367.4094041799999,None,,,,,,,,,,,207,22,Male,2022-05-03_11h35.48.978,Main,2022.1.1,59.91877410974126,
negative,neutral,1,j,l,,,,,,,,,2,16,52,3,,,,,,,,,,,,,,,,,,,,,,,,main,1,1,1,neutral,negative,l,k,0,1.415487899999789,367.4344957000003,368.44503559999976,368.4087150000005,None,367.4344957000003,None,367.4344957000003,None,367.4344957000003,None,369.83542190000026,None,369.83542190000026,None,369.83542190000026,None,,,,,,,,,,,207,22,Male,2022-05-03_11h35.48.978,Main,2022.1.1,59.91877410974126,
neutral,neutral,2,k,k,,,,,,,,,2,17,53,10,,,,,,,,,,,,,,,,,,,,,,,,main,2,2,2,neutral,neutral,k,k,1,0.7885598000002574,370.8599363000003,371.8671046999998,371.8472986000006,None,370.8599363000003,None,370.8599363000003,None,370.8599363000003,None,372.62800078000055,None,372.62800078000055,None,372.62800078000055,None,,,,,,,,,,,207,22,Male,2022-05-03_11h35.48.978,Main,2022.1.1,59.91877410974126,
neutral,neutral,1,k,k,,,,,,,,,3,0,54,1,,,,,,,,,,,,,,,,,,,,,,,,main,1,1,1,neutral,neutral,k,k,1,0.9555489000003945,372.65422800000033,373.6746758999998,373.6362675999999,None,372.65422800000033,None,372.65422800000033,None,372.65422800000033,None,374.5869056800002,None,374.5869056800002,None,374.5869056800002,None,,,,,,,,,,,207,22,Male,2022-05-03_11h35.48.978,Main,2022.1.1,59.91877410974126,
positive,negative,1,l,j,,,,,,,,,3,1,55,5,,,,,,,,,,,,,,,,,,,,,,,,main,2,2,1,negative,positive,j,j,1,0.7824801000006119,374.6092042999999,375.62483090000023,375.5863043999998,None,374.6092042999999,None,374.6092042999999,None,374.6092042999999,None,376.3717492800006,None,376.3717492800006,None,376.3717492800006,None,,,,,,,,,,,207,22,Male,2022-05-03_11h35.48.978,Main,2022.1.1,59.91877410974126,
positive,positive,1,l,j,,,,,,,,,3,2,56,2,,,,,,,,,,,,,,,,,,,,,,,,main,1,1,1,positive,positive,j,j,1,0.8303243000000293,376.39216639999995,377.4060470000004,377.3854986000006,None,376.39216639999995,None,376.39216639999995,None,376.39216639999995,None,378.2043172800004,None,378.2043172800004,None,378.2043172800004,None,,,,,,,,,,,207,22,Male,2022-05-03_11h35.48.978,Main,2022.1.1,59.91877410974126,
positive,neutral,1,l,j,,,,,,,,,3,3,57,8,,,,,,,,,,,,,,,,,,,,,,,,main,1,1,1,neutral,positive,j,j,1,0.8244095999998535,378.2265379999999,379.2309647000002,379.2107992000001,None,378.2265379999999,None,378.2265379999999,None,378.2265379999999,None,380.03293708,None,380.03293708,None,380.03293708,None,,,,,,,,,,,207,22,Male,2022-05-03_11h35.48.978,Main,2022.1.1,59.91877410974126,
neutral,neutral,2,k,k,,,,,,,,,3,4,58,10,,,,,,,,,,,,,,,,,,,,,,,,main,2,2,2,neutral,neutral,k,l,0,1.346795700000257,380.05429430000004,381.05599280000024,381.03726280000046,None,380.05429430000004,None,380.05429430000004,None,380.05429430000004,None,382.39119459999984,None,382.39119459999984,None,382.39119459999984,None,,,,,,,,,,,207,22,Male,2022-05-03_11h35.48.978,Main,2022.1.1,59.91877410974126,
neutral,negative,1,k,k,,,,,,,,,3,5,59,7,,,,,,,,,,,,,,,,,,,,,,,,main,1,1,1,negative,neutral,k,l,0,1.00217530000009,383.4078072000002,384.4250880999998,384.3875794000005,None,383.4078072000002,None,383.4078072000002,None,383.4078072000002,None,385.3965739000005,None,385.3965739000005,None,385.3965739000005,None,,,,,,,,,,,207,22,Male,2022-05-03_11h35.48.978,Main,2022.1.1,59.91877410974126,
negative,neutral,1,j,l,,,,,,,,,3,6,60,3,,,,,,,,,,,,,,,,,,,,,,,,main,1,1,1,neutral,negative,l,l,1,2.13454769999953,386.41096170000037,387.43076550000023,387.39252099999976,None,386.41096170000037,None,386.41096170000037,None,386.41096170000037,None,389.5298668000005,None,389.5298668000005,None,389.5298668000005,None,,,,,,,,,,,207,22,Male,2022-05-03_11h35.48.978,Main,2022.1.1,59.91877410974126,
negative,negative,2,j,l,,,,,,,,,3,7,61,9,,,,,,,,,,,,,,,,,,,,,,,,main,1,1,2,negative,negative,l,l,1,0.787497500000427,390.54088610000053,391.5504627,391.5316518999998,None,390.54088610000053,None,390.54088610000053,None,390.54088610000053,None,392.30899558000056,None,392.30899558000056,None,392.30899558000056,None,,,,,,,,,,,207,22,Male,2022-05-03_11h35.48.978,Main,2022.1.1,59.91877410974126,
positive,negative,2,l,j,,,,,,,,,3,8,62,14,,,,,,,,,,,,,,,,,,,,,,,,main,2,2,2,negative,positive,j,k,0,0.9595158000001902,392.33146149999993,393.3517214000003,393.3130630000005,None,392.33146149999993,None,392.33146149999993,None,392.33146149999993,None,394.2761736000002,None,394.2761736000002,None,394.2761736000002,None,,,,,,,,,,,207,22,Male,2022-05-03_11h35.48.978,Main,2022.1.1,59.91877410974126,
neutral,positive,2,k,k,,,,,,,,,3,9,63,13,,,,,,,,,,,,,,,,,,,,,,,,main,2,2,2,positive,neutral,k,j,0,0.7391152000000147,395.29132279999976,396.3018391000005,396.28312879999976,None,395.29132279999976,None,395.29132279999976,None,395.29132279999976,None,397.0156557,None,397.0156557,None,397.0156557,None,,,,,,,,,,,207,22,Male,2022-05-03_11h35.48.978,Main,2022.1.1,59.91877410974126,
negative,negative,1,j,l,,,,,,,,,3,10,64,0,,,,,,,,,,,,,,,,,,,,,,,,main,1,1,1,negative,negative,l,l,1,0.7906948999998349,398.04000799999994,399.0471692000001,399.02734990000044,None,398.04000799999994,None,398.04000799999994,None,398.04000799999994,None,399.8130692800005,None,399.8130692800005,None,399.8130692800005,None,,,,,,,,,,,207,22,Male,2022-05-03_11h35.48.978,Main,2022.1.1,59.91877410974126,
negative,neutral,2,j,l,,,,,,,,,3,11,65,12,,,,,,,,,,,,,,,,,,,,,,,,main,1,1,2,neutral,negative,l,l,1,2.436226899999383,399.83302450000065,400.85088749999977,400.81185410000035,None,399.83302450000065,None,399.83302450000065,None,399.83302450000065,None,403.2553701000006,None,403.2553701000006,None,403.2553701000006,None,,,,,,,,,,,207,22,Male,2022-05-03_11h35.48.978,Main,2022.1.1,59.91877410974126,
negative,positive,2,j,l,,,,,,,,,3,12,66,15,,,,,,,,,,,,,,,,,,,,,,,,main,1,1,2,positive,negative,l,l,1,0.9210998999997173,404.27394150000055,405.27498280000054,405.25668159999987,None,404.27394150000055,None,404.27394150000055,None,404.27394150000055,None,406.1746689800002,None,406.1746689800002,None,406.1746689800002,None,,,,,,,,,,,207,22,Male,2022-05-03_11h35.48.978,Main,2022.1.1,59.91877410974126,
positive,neutral,2,l,j,,,,,,,,,3,13,67,17,,,,,,,,,,,,,,,,,,,,,,,,main,1,1,2,neutral,positive,j,j,1,1.566049899999598,406.1955329000002,407.20271409999987,407.1806760999998,None,406.1955329000002,None,406.1955329000002,None,406.1955329000002,None,408.75052890000006,None,408.75052890000006,None,408.75052890000006,None,,,,,,,,,,,207,22,Male,2022-05-03_11h35.48.978,Main,2022.1.1,59.91877410974126,
neutral,positive,1,k,k,,,,,,,,,3,14,68,4,,,,,,,,,,,,,,,,,,,,,,,,main,2,2,1,positive,neutral,k,k,1,0.891867700000148,409.7717112,410.79126650000035,410.75329969999984,None,409.7717112,None,409.7717112,None,409.7717112,None,411.64277717999994,None,411.64277717999994,None,411.64277717999994,None,,,,,,,,,,,207,22,Male,2022-05-03_11h35.48.978,Main,2022.1.1,59.91877410974126,
negative,positive,1,j,l,,,,,,,,,3,15,69,6,,,,,,,,,,,,,,,,,,,,,,,,main,1,1,1,positive,negative,l,k,0,1.1533054000001357,411.66586499999994,412.6831544000006,412.6445953000002,None,411.66586499999994,None,411.66586499999994,None,411.66586499999994,None,413.8101770000003,None,413.8101770000003,None,413.8101770000003,None,,,,,,,,,,,207,22,Male,2022-05-03_11h35.48.978,Main,2022.1.1,59.91877410974126,
positive,positive,2,l,j,,,,,,,,,3,16,70,11,,,,,,,,,,,,,,,,,,,,,,,,main,1,1,2,positive,positive,j,,0,0.4822831000001315,414.82116810000025,415.84002340000006,415.80296439999984,None,414.82116810000025,None,414.82116810000025,None,414.82116810000025,None,416.28693939999994,None,416.28693939999994,None,416.28693939999994,None,,,,,,,,,,,207,22,Male,2022-05-03_11h35.48.978,Main,2022.1.1,59.91877410974126,
neutral,negative,2,k,k,,,,,,,,,3,17,71,16,,,,,,,,,,,,,,,,,,,,,,,,main,2,2,2,negative,neutral,k,k,1,-0.6986133000000336,417.3141131000002,None,None,None,417.3141131000002,None,417.3141131000002,None,417.3141131000002,None,417.5949464000005,None,417.5949464000005,None,417.5949464000005,None,,,,,,,,,,,207,22,Male,2022-05-03_11h35.48.978,Main,2022.1.1,59.91877410974126,
positive,negative,2,l,j,,,,,,,,,4,0,72,14,,,,,,,,,,,,,,,,,,,,,,,,main,2,2,2,negative,positive,j,j,1,1.3047339000004285,420.62068439999985,421.63273910000044,421.61437209999985,None,420.62068439999985,None,420.62068439999985,None,420.62068439999985,None,422.9077246799998,None,422.9077246799998,None,422.9077246799998,None,,,,,,,,,,,207,22,Male,2022-05-03_11h35.48.978,Main,2022.1.1,59.91877410974126,
neutral,negative,1,k,k,,,,,,,,,4,1,73,7,,,,,,,,,,,,,,,,,,,,,,,,main,1,1,1,negative,neutral,k,k,1,0.881699600000502,422.9281412,423.9425884000002,423.90445890000046,None,422.9281412,None,422.9281412,None,422.9281412,None,424.79191188000004,None,424.79191188000004,None,424.79191188000004,None,,,,,,,,,,,207,22,Male,2022-05-03_11h35.48.978,Main,2022.1.1,59.91877410974126,
negative,neutral,2,j,l,,,,,,,,,4,2,74,12,,,,,,,,,,,,,,,,,,,,,,,,main,2,2,2,neutral,negative,l,k,0,0.27528929999971297,424.8139884000002,425.8157197999999,425.79652030000034,None,424.8139884000002,None,424.8139884000002,None,424.8139884000002,None,426.07583870000053,None,426.07583870000053,None,426.07583870000053,None,,,,,,,,,,,207,22,Male,2022-05-03_11h35.48.978,Main,2022.1.1,59.91877410974126,
positive,positive,1,l,j,,,,,,,,,4,3,75,2,,,,,,,,,,,,,,,,,,,,,,,,main,1,1,1,positive,positive,j,k,0,1.269847800000207,427.08632510000007,428.0911627000005,428.0719493000006,None,427.08632510000007,None,427.08632510000007,None,427.08632510000007,None,429.34016059999976,None,429.34016059999976,None,429.34016059999976,None,,,,,,,,,,,207,22,Male,2022-05-03_11h35.48.978,Main,2022.1.1,59.91877410974126,
neutral,positive,2,k,k,,,,,,,,,4,4,76,13,,,,,,,,,,,,,,,,,,,,,,,,main,2,2,2,positive,neutral,k,k,1,0.7327107999999498,430.3518973,431.36135340000055,431.3420433000001,None,430.3518973,None,430.3518973,None,430.3518973,None,432.06536847999996,None,432.06536847999996,None,432.06536847999996,None,,,,,,,,,,,207,22,Male,2022-05-03_11h35.48.978,Main,2022.1.1,59.91877410974126,
neutral,negative,2,k,k,,,,,,,,,4,5,77,16,,,,,,,,,,,,,,,,,,,,,,,,main,1,1,2,negative,neutral,k,k,1,1.0026158999999097,432.08537179999985,433.1075483000004,433.0619684000003,None,432.08537179999985,None,432.08537179999985,None,432.08537179999985,None,434.0729228800001,None,434.0729228800001,None,434.0729228800001,None,,,,,,,,,,,207,22,Male,2022-05-03_11h35.48.978,Main,2022.1.1,59.91877410974126,
negative,negative,1,j,l,,,,,,,,,4,6,78,0,,,,,,,,,,,,,,,,,,,,,,,,main,1,1,1,negative,negative,l,k,0,1.3763748000001215,434.0924450000002,435.09908840000026,435.0801897000001,None,434.0924450000002,None,434.0924450000002,None,434.0924450000002,None,436.45812079999996,None,436.45812079999996,None,436.45812079999996,None,,,,,,,,,,,207,22,Male,2022-05-03_11h35.48.978,Main,2022.1.1,59.91877410974126,
neutral,neutral,2,k,k,,,,,,,,,4,7,79,10,,,,,,,,,,,,,,,,,,,,,,,,main,2,2,2,neutral,neutral,k,k,1,-0.6637332999998762,437.47174929999983,None,None,None,437.47174929999983,None,437.47174929999983,None,437.47174929999983,None,437.7917230000003,None,437.7917230000003,None,437.7917230000003,None,,,,,,,,,,,207,22,Male,2022-05-03_11h35.48.978,Main,2022.1.1,59.91877410974126,
negative,negative,2,j,l,,,,,,,,,4,8,80,9,,,,,,,,,,,,,,,,,,,,,,,,main,1,1,2,negative,negative,l,l,1,1.192391200000202,440.81746440000006,441.83570580000014,441.7980511000005,None,440.81746440000006,None,440.81746440000006,None,440.81746440000006,None,442.9923078800002,None,442.9923078800002,None,442.9923078800002,None,,,,,,,,,,,207,22,Male,2022-05-03_11h35.48.978,Main,2022.1.1,59.91877410974126,
negative,positive,1,j,l,,,,,,,,,4,9,81,6,,,,,,,,,,,,,,,,,,,,,,,,main,1,1,1,positive,negative,l,l,1,1.0362853999995423,443.01300919999994,444.0238242000005,444.00263150000046,None,443.01300919999994,None,443.01300919999994,None,443.01300919999994,None,445.03141768000023,None,445.03141768000023,None,445.03141768000023,None,,,,,,,,,,,207,22,Male,2022-05-03_11h35.48.978,Main,2022.1.1,59.91877410974126,
negative,neutral,1,j,l,,,,,,,,,4,10,82,3,,,,,,,,,,,,,,,,,,,,,,,,main,2,2,1,neutral,negative,l,l,1,1.2457120999997642,445.0517053000003,446.05602220000037,446.0371345000003,None,445.0517053000003,None,445.0517053000003,None,445.0517053000003,None,447.27875008000046,None,447.27875008000046,None,447.27875008000046,None,,,,,,,,,,,207,22,Male,2022-05-03_11h35.48.978,Main,2022.1.1,59.91877410974126,
positive,positive,2,l,j,,,,,,,,,4,11,83,11,,,,,,,,,,,,,,,,,,,,,,,,main,1,1,2,positive,positive,j,l,0,3.9803272999997716,447.3009436000002,448.3036014999998,448.28501490000053,None,447.3009436000002,None,447.3009436000002,None,447.3009436000002,None,452.2690426999998,None,452.2690426999998,None,452.2690426999998,None,,,,,,,,,,,207,22,Male,2022-05-03_11h35.48.978,Main,2022.1.1,59.91877410974126,
positive,neutral,2,l,j,,,,,,,,,4,12,84,17,,,,,,,,,,,,,,,,,,,,,,,,main,2,2,2,neutral,positive,j,j,1,0.7532396999995399,453.2841318999999,454.2914615999998,454.2717667000006,None,453.2841318999999,None,453.2841318999999,None,453.2841318999999,None,455.0170062799998,None,455.0170062799998,None,455.0170062799998,None,,,,,,,,,,,207,22,Male,2022-05-03_11h35.48.978,Main,2022.1.1,59.91877410974126,
neutral,positive,1,k,k,,,,,,,,,4,13,85,4,,,,,,,,,,,,,,,,,,,,,,,,main,1,1,1,positive,neutral,k,k,1,0.8074010999998791,455.03717010000037,456.0545722000006,456.01572060000035,None,455.03717010000037,None,455.03717010000037,None,455.03717010000037,None,456.82646828,None,456.82646828,None,456.82646828,None,,,,,,,,,,,207,22,Male,2022-05-03_11h35.48.978,Main,2022.1.1,59.91877410974126,
neutral,neutral,1,k,k,,,,,,,,,4,14,86,1,,,,,,,,,,,,,,,,,,,,,,,,main,2,2,1,neutral,neutral,k,k,1,0.8755569000004471,456.8473641999999,457.8518869999998,457.83329909999975,None,456.8473641999999,None,456.8473641999999,None,456.8473641999999,None,458.70640507999997,None,458.70640507999997,None,458.70640507999997,None,,,,,,,,,,,207,22,Male,2022-05-03_11h35.48.978,Main,2022.1.1,59.91877410974126,
negative,positive,2,j,l,,,,,,,,,4,15,87,15,,,,,,,,,,,,,,,,,,,,,,,,main,1,1,2,positive,negative,l,l,1,4.611879699999918,458.7272549999998,459.7456301000002,459.70684150000034,None,458.7272549999998,None,458.7272549999998,None,458.7272549999998,None,464.3301704000005,None,464.3301704000005,None,464.3301704000005,None,,,,,,,,,,,207,22,Male,2022-05-03_11h35.48.978,Main,2022.1.1,59.91877410974126,
positive,negative,1,l,j,,,,,,,,,4,16,88,5,,,,,,,,,,,,,,,,,,,,,,,,main,1,1,1,negative,positive,j,j,1,0.8396996999999828,465.3483965000005,466.3503608000001,466.3318355000001,None,465.3483965000005,None,465.3483965000005,None,465.3483965000005,None,467.1694164800001,None,467.1694164800001,None,467.1694164800001,None,,,,,,,,,,,207,22,Male,2022-05-03_11h35.48.978,Main,2022.1.1,59.91877410974126,
positive,neutral,1,l,j,,,,,,,,,4,17,89,8,,,,,,,,,,,,,,,,,,,,,,,,main,2,2,1,neutral,positive,j,j,1,0.9722873000000618,467.18894230000024,468.1943516000001,468.1749526000003,None,467.18894230000024,None,467.18894230000024,None,467.18894230000024,None,469.14286317999995,None,469.14286317999995,None,469.14286317999995,None,,,,,,,,,,,207,22,Male,2022-05-03_11h35.48.978,Main,2022.1.1,59.91877410974126,
negative,neutral,1,j,l,,,,,,,,,5,0,90,3,,,,,,,,,,,,,,,,,,,,,,,,main,2,2,1,neutral,negative,l,l,1,5.3329078999995545,469.16431060000014,470.17120479999994,470.1528066000001,None,469.16431060000014,None,469.16431060000014,None,469.16431060000014,None,475.4875557000005,None,475.4875557000005,None,475.4875557000005,None,,,,,,,,,,,207,22,Male,2022-05-03_11h35.48.978,Main,2022.1.1,59.91877410974126,
positive,neutral,1,l,j,,,,,,,,,5,1,91,8,,,,,,,,,,,,,,,,,,,,,,,,main,1,1,1,neutral,positive,j,j,1,1.0083785000006174,476.5127916000001,477.5288744999998,477.4904495999999,None,476.5127916000001,None,476.5127916000001,None,476.5127916000001,None,478.50400788000024,None,478.50400788000024,None,478.50400788000024,None,,,,,,,,,,,207,22,Male,2022-05-03_11h35.48.978,Main,2022.1.1,59.91877410974126,
neutral,negative,1,k,k,,,,,,,,,5,2,92,7,,,,,,,,,,,,,,,,,,,,,,,,main,1,1,1,negative,neutral,k,k,1,-0.15672879999965517,478.5247089000004,None,None,None,478.5247089000004,None,478.5247089000004,None,478.5247089000004,None,479.3565507000003,None,479.3565507000003,None,479.3565507000003,None,,,,,,,,,,,207,22,Male,2022-05-03_11h35.48.978,Main,2022.1.1,59.91877410974126,
positive,positive,1,l,j,,,,,,,,,5,3,93,2,,,,,,,,,,,,,,,,,,,,,,,,main,2,2,1,positive,positive,j,k,0,0.3480349000001297,482.3785429999998,483.3983771000003,483.36073339999984,None,482.3785429999998,None,482.3785429999998,None,482.3785429999998,None,483.7129243999998,None,483.7129243999998,None,483.7129243999998,None,,,,,,,,,,,207,22,Male,2022-05-03_11h35.48.978,Main,2022.1.1,59.91877410974126,
neutral,neutral,1,k,k,,,,,,,,,5,4,94,1,,,,,,,,,,,,,,,,,,,,,,,,main,2,2,1,neutral,neutral,k,k,1,3.6323193999996874,484.7285815000005,485.73024460000033,485.71109220000017,None,484.7285815000005,None,484.7285815000005,None,484.7285815000005,None,489.35013530000015,None,489.35013530000015,None,489.35013530000015,None,,,,,,,,,,,207,22,Male,2022-05-03_11h35.48.978,Main,2022.1.1,59.91877410974126,
positive,positive,2,l,j,,,,,,,,,5,5,95,11,,,,,,,,,,,,,,,,,,,,,,,,main,2,2,2,positive,positive,j,j,1,0.8185843999999634,490.3613344000005,491.374511,491.35501750000003,None,490.3613344000005,None,490.3613344000005,None,490.3613344000005,None,492.1588459800005,None,492.1588459800005,None,492.1588459800005,None,,,,,,,,,,,207,22,Male,2022-05-03_11h35.48.978,Main,2022.1.1,59.91877410974126,
neutral,positive,2,k,k,,,,,,,,,5,6,96,13,,,,,,,,,,,,,,,,,,,,,,,,main,2,2,2,positive,neutral,k,k,1,0.7202474000005168,492.18053990000044,493.19421630000033,493.1568693999998,None,492.18053990000044,None,492.18053990000044,None,492.18053990000044,None,493.88497448,None,493.88497448,None,493.88497448,None,,,,,,,,,,,207,22,Male,2022-05-03_11h35.48.978,Main,2022.1.1,59.91877410974126,
neutral,negative,2,k,k,,,,,,,,,5,7,97,16,,,,,,,,,,,,,,,,,,,,,,,,main,1,1,2,negative,neutral,k,k,1,0.7126447999999073,493.9047521000002,494.9126832000002,494.89355950000026,None,493.9047521000002,None,493.9047521000002,None,493.9047521000002,None,495.60069188000034,None,495.60069188000034,None,495.60069188000034,None,,,,,,,,,,,207,22,Male,2022-05-03_11h35.48.978,Main,2022.1.1,59.91877410974126,
negative,negative,2,j,l,,,,,,,,,5,8,98,9,,,,,,,,,,,,,,,,,,,,,,,,main,2,2,2,negative,negative,l,l,1,0.7756059000003006,495.6206972,496.6351798000005,496.59732930000064,None,495.6206972,None,495.6206972,None,495.6206972,None,497.3763689799998,None,497.3763689799998,None,497.3763689799998,None,,,,,,,,,,,207,22,Male,2022-05-03_11h35.48.978,Main,2022.1.1,59.91877410974126,
positive,negative,2,l,j,,,,,,,,,5,9,99,14,,,,,,,,,,,,,,,,,,,,,,,,main,1,1,2,negative,positive,j,j,1,0.8487451999999394,497.39658510000027,498.4134322,498.37670479999997,None,497.39658510000027,None,497.39658510000027,None,497.39658510000027,None,499.2296405799998,None,499.2296405799998,None,499.2296405799998,None,,,,,,,,,,,207,22,Male,2022-05-03_11h35.48.978,Main,2022.1.1,59.91877410974126,
neutral,neutral,2,k,k,,,,,,,,,5,10,100,10,,,,,,,,,,,,,,,,,,,,,,,,main,1,1,2,neutral,neutral,k,j,0,0.7378819999994448,499.24871130000065,500.2661426000004,500.2281221000003,None,499.24871130000065,None,499.24871130000065,None,499.24871130000065,None,500.97487720000026,None,500.97487720000026,None,500.97487720000026,None,,,,,,,,,,,207,22,Male,2022-05-03_11h35.48.978,Main,2022.1.1,59.91877410974126,
negative,positive,1,j,l,,,,,,,,,5,11,101,6,,,,,,,,,,,,,,,,,,,,,,,,main,2,2,1,positive,negative,l,l,1,6.419976500000303,501.99940460000016,503.0087977000003,502.98920869999984,None,501.99940460000016,None,501.99940460000016,None,501.99940460000016,None,509.40252469999996,None,509.40252469999996,None,509.40252469999996,None,,,,,,,,,,,207,22,Male,2022-05-03_11h35.48.978,Main,2022.1.1,59.91877410974126,
positive,negative,1,l,j,,,,,,,,,5,12,102,5,,,,,,,,,,,,,,,,,,,,,,,,main,2,2,1,negative,positive,j,j,1,0.8214004000001296,510.4252174000003,511.4273664000002,511.40897140000015,None,510.4252174000003,None,510.4252174000003,None,510.4252174000003,None,512.2292109800001,None,512.2292109800001,None,512.2292109800001,None,,,,,,,,,,,207,22,Male,2022-05-03_11h35.48.978,Main,2022.1.1,59.91877410974126,
positive,neutral,2,l,j,,,,,,,,,5,13,103,17,,,,,,,,,,,,,,,,,,,,,,,,main,2,2,2,neutral,positive,j,j,1,6.664003099999718,512.2503932,513.2528825999998,513.2342875000004,None,512.2503932,None,512.2503932,None,512.2503932,None,519.9018145999999,None,519.9018145999999,None,519.9018145999999,None,,,,,,,,,,,207,22,Male,2022-05-03_11h35.48.978,Main,2022.1.1,59.91877410974126,
neutral,positive,1,k,k,,,,,,,,,5,14,104,4,,,,,,,,,,,,,,,,,,,,,,,,main,2,2,1,positive,neutral,k,k,1,0.7819271999997,520.9247842000004,521.9445695000004,521.9070102000005,None,520.9247842000004,None,520.9247842000004,None,520.9247842000004,None,522.6864456800004,None,522.6864456800004,None,522.6864456800004,None,,,,,,,,,,,207,22,Male,2022-05-03_11h35.48.978,Main,2022.1.1,59.91877410974126,
negative,positive,2,j,l,,,,,,,,,5,15,105,15,,,,,,,,,,,,,,,,,,,,,,,,main,1,1,2,positive,negative,l,l,1,1.081130900000062,522.7068522,523.7240167,523.6870878,None,522.7068522,None,522.7068522,None,522.7068522,None,524.7711226800002,None,524.7711226800002,None,524.7711226800002,None,,,,,,,,,,,207,22,Male,2022-05-03_11h35.48.978,Main,2022.1.1,59.91877410974126,
negative,negative,1,j,l,,,,,,,,,5,16,106,0,,,,,,,,,,,,,,,,,,,,,,,,main,2,2,1,negative,negative,l,l,1,0.6687842999999702,524.7918982000001,525.8094838000006,525.7728864999999,None,524.7918982000001,None,524.7918982000001,None,524.7918982000001,None,526.4410593800003,None,526.4410593800003,None,526.4410593800003,None,,,,,,,,,,,207,22,Male,2022-05-03_11h35.48.978,Main,2022.1.1,59.91877410974126,
negative,neutral,2,j,l,,,,,,,,,5,17,107,12,,,,,,,,,,,,,,,,,,,,,,,,main,1,1,2,neutral,negative,l,l,1,0.8000105000000985,526.4622193000005,527.4704925000005,527.4518534999997,None,526.4622193000005,None,526.4622193000005,None,526.4622193000005,None,528.2461802799999,None,528.2461802799999,None,528.2461802799999,None,,,,,,,,,,,207,22,Male,2022-05-03_11h35.48.978,Main,2022.1.1,59.91877410974126,
negative,negative,2,j,l,,,,,,,,,6,0,108,9,,,,,,,,,,,,,,,,,,,,,,,,main,2,2,2,negative,negative,l,l,1,0.6105977999995957,528.2665822999998,529.2733806000006,529.2549754000001,None,528.2665822999998,None,528.2665822999998,None,528.2665822999998,None,529.86029478,None,529.86029478,None,529.86029478,None,,,,,,,,,,,207,22,Male,2022-05-03_11h35.48.978,Main,2022.1.1,59.91877410974126,
negative,positive,1,j,l,,,,,,,,,6,1,109,6,,,,,,,,,,,,,,,,,,,,,,,,main,1,1,1,positive,negative,l,j,0,0.6434181999993598,529.879602,530.8921239000001,530.8529837000006,None,529.879602,None,529.879602,None,529.879602,None,531.5096644000005,None,531.5096644000005,None,531.5096644000005,None,,,,,,,,,,,207,22,Male,2022-05-03_11h35.48.978,Main,2022.1.1,59.91877410974126,
neutral,neutral,2,k,k,,,,,,,,,6,2,110,10,,,,,,,,,,,,,,,,,,,,,,,,main,1,1,2,neutral,neutral,k,k,1,3.020268400000532,532.5222457,533.5289481,533.5098950000001,None,532.5222457,None,532.5222457,None,532.5222457,None,536.5290296000003,None,536.5290296000003,None,536.5290296000003,None,,,,,,,,,,,207,22,Male,2022-05-03_11h35.48.978,Main,2022.1.1,59.91877410974126,
positive,negative,1,l,j,,,,,,,,,6,3,111,5,,,,,,,,,,,,,,,,,,,,,,,,main,2,2,1,negative,positive,j,j,1,0.9204763000007006,537.5558332999999,538.5736808000001,538.5360851000005,None,537.5558332999999,None,537.5558332999999,None,537.5558332999999,None,539.4566153800006,None,539.4566153800006,None,539.4566153800006,None,,,,,,,,,,,207,22,Male,2022-05-03_11h35.48.978,Main,2022.1.1,59.91877410974126,
positive,negative,2,l,j,,,,,,,,,6,4,112,14,,,,,,,,,,,,,,,,,,,,,,,,main,1,1,2,negative,positive,j,j,1,0.8600157000000763,539.4767723000004,540.4933547999999,540.4552856999999,None,539.4767723000004,None,539.4767723000004,None,539.4767723000004,None,541.3192833800003,None,541.3192833800003,None,541.3192833800003,None,,,,,,,,,,,207,22,Male,2022-05-03_11h35.48.978,Main,2022.1.1,59.91877410974126,
neutral,positive,2,k,k,,,,,,,,,6,5,113,13,,,,,,,,,,,,,,,,,,,,,,,,main,1,1,2,positive,neutral,k,k,1,3.4973901000003025,541.3409277000001,542.3536488999998,542.3150756000005,None,541.3409277000001,None,541.3409277000001,None,541.3409277000001,None,545.8270646000001,None,545.8270646000001,None,545.8270646000001,None,,,,,,,,,,,207,22,Male,2022-05-03_11h35.48.978,Main,2022.1.1,59.91877410974126,
negative,neutral,2,j,l,,,,,,,,,6,6,114,12,,,,,,,,,,,,,,,,,,,,,,,,main,2,2,2,neutral,negative,l,l,1,1.7359079999996538,546.8371760999999,547.8547073,547.8178261000003,None,546.8371760999999,None,546.8371760999999,None,546.8371760999999,None,549.5569641000002,None,549.5569641000002,None,549.5569641000002,None,,,,,,,,,,,207,22,Male,2022-05-03_11h35.48.978,Main,2022.1.1,59.91877410974126,
positive,neutral,1,l,j,,,,,,,,,6,7,115,8,,,,,,,,,,,,,,,,,,,,,,,,main,2,2,1,neutral,positive,j,j,1,3.092693899999176,550.5700668999998,551.5753476,551.5556436000006,None,550.5700668999998,None,550.5700668999998,None,550.5700668999998,None,554.6479284000006,None,554.6479284000006,None,554.6479284000006,None,,,,,,,,,,,207,22,Male,2022-05-03_11h35.48.978,Main,2022.1.1,59.91877410974126,
positive,positive,1,l,j,,,,,,,,,6,8,116,2,,,,,,,,,,,,,,,,,,,,,,,,main,1,1,1,positive,positive,j,j,1,5.806081900000208,555.6705662000004,556.6773319000004,556.6584532000006,None,555.6705662000004,None,555.6705662000004,None,555.6705662000004,None,562.4618105,None,562.4618105,None,562.4618105,None,,,,,,,,,,,207,22,Male,2022-05-03_11h35.48.978,Main,2022.1.1,59.91877410974126,
negative,neutral,1,j,l,,,,,,,,,6,9,117,3,,,,,,,,,,,,,,,,,,,,,,,,main,2,2,1,neutral,negative,l,l,1,0.7748336999993626,563.4852111,564.5037106999998,564.4654503000002,None,563.4852111,None,563.4852111,None,563.4852111,None,565.2416188799998,None,565.2416188799998,None,565.2416188799998,None,,,,,,,,,,,207,22,Male,2022-05-03_11h35.48.978,Main,2022.1.1,59.91877410974126,
neutral,negative,1,k,k,,,,,,,,,6,10,118,7,,,,,,,,,,,,,,,,,,,,,,,,main,2,2,1,negative,neutral,k,k,1,0.7894212999999581,565.2619824000003,566.2650405000004,566.2462284000003,None,565.2619824000003,None,565.2619824000003,None,565.2619824000003,None,567.0327940799998,None,567.0327940799998,None,567.0327940799998,None,,,,,,,,,,,207,22,Male,2022-05-03_11h35.48.978,Main,2022.1.1,59.91877410974126,
positive,neutral,2,l,j,,,,,,,,,6,11,119,17,,,,,,,,,,,,,,,,,,,,,,,,main,1,1,2,neutral,positive,j,j,1,0.765602200000103,567.0549074,568.0744371999999,568.0361050000001,None,567.0549074,None,567.0549074,None,567.0549074,None,568.8018337800004,None,568.8018337800004,None,568.8018337800004,None,,,,,,,,,,,207,22,Male,2022-05-03_11h35.48.978,Main,2022.1.1,59.91877410974126,
negative,positive,2,j,l,,,,,,,,,6,12,120,15,,,,,,,,,,,,,,,,,,,,,,,,main,2,2,2,positive,negative,l,k,0,0.5374649000004865,568.8242706999999,569.8416944999999,569.8023270000003,None,568.8242706999999,None,568.8242706999999,None,568.8242706999999,None,570.3491922000003,None,570.3491922000003,None,570.3491922000003,None,,,,,,,,,,,207,22,Male,2022-05-03_11h35.48.978,Main,2022.1.1,59.91877410974126,
neutral,neutral,1,k,k,,,,,,,,,6,13,121,1,,,,,,,,,,,,,,,,,,,,,,,,main,1,1,1,neutral,neutral,k,k,1,0.7537248999997246,571.3701142999998,572.3733413,572.3546959000005,None,571.3701142999998,None,571.3701142999998,None,571.3701142999998,None,573.1021757799999,None,573.1021757799999,None,573.1021757799999,None,,,,,,,,,,,207,22,Male,2022-05-03_11h35.48.978,Main,2022.1.1,59.91877410974126,
negative,negative,1,j,l,,,,,,,,,6,14,122,0,,,,,,,,,,,,,,,,,,,,,,,,main,1,1,1,negative,negative,l,k,0,3.682986899999378,573.1226557999998,574.1362072000002,574.0982844,None,573.1226557999998,None,573.1226557999998,None,573.1226557999998,None,577.7947240000003,None,577.7947240000003,None,577.7947240000003,None,,,,,,,,,,,207,22,Male,2022-05-03_11h35.48.978,Main,2022.1.1,59.91877410974126,
neutral,positive,1,k,k,,,,,,,,,6,15,123,4,,,,,,,,,,,,,,,,,,,,,,,,main,2,2,1,positive,neutral,k,k,1,0.6910284000005049,578.8164344000006,579.8179103000002,579.7994870000002,None,578.8164344000006,None,578.8164344000006,None,578.8164344000006,None,580.4899605800001,None,580.4899605800001,None,580.4899605800001,None,,,,,,,,,,,207,22,Male,2022-05-03_11h35.48.978,Main,2022.1.1,59.91877410974126,
positive,positive,2,l,j,,,,,,,,,6,16,124,11,,,,,,,,,,,,,,,,,,,,,,,,main,2,2,2,positive,positive,j,k,0,1.8195859999996173,580.5095098000002,581.5247024999999,581.4866809000005,None,580.5095098000002,None,580.5095098000002,None,580.5095098000002,None,583.3164003000002,None,583.3164003000002,None,583.3164003000002,None,,,,,,,,,,,207,22,Male,2022-05-03_11h35.48.978,Main,2022.1.1,59.91877410974126,
neutral,negative,2,k,k,,,,,,,,,6,17,125,16,,,,,,,,,,,,,,,,,,,,,,,,main,2,2,2,negative,neutral,k,k,1,2.794173899999805,584.3327387999998,585.3385100000005,585.3179928,None,584.3327387999998,None,584.3327387999998,None,584.3327387999998,None,588.1160061,None,588.1160061,None,588.1160061,None,,,,,,,,,,,207,22,Male,2022-05-03_11h35.48.978,Main,2022.1.1,59.91877410974126,
neutral,positive,2,k,k,,,,,,,,,7,0,126,13,,,,,,,,,,,,,,,,,,,,,,,,main,1,1,2,positive,neutral,k,k,1,0.8578015000002779,589.1323306000004,590.1346008999999,590.1157803000006,None,589.1323306000004,None,589.1323306000004,None,589.1323306000004,None,590.9723251800006,None,590.9723251800006,None,590.9723251800006,None,,,,,,,,,,,207,22,Male,2022-05-03_11h35.48.978,Main,2022.1.1,59.91877410974126,
neutral,positive,1,k,k,,,,,,,,,7,1,127,4,,,,,,,,,,,,,,,,,,,,,,,,main,2,2,1,positive,neutral,k,k,1,0.7324926999999661,590.9919237000004,592.0008062000006,591.9825122000002,None,590.9919237000004,None,590.9919237000004,None,590.9919237000004,None,592.7082518799998,None,592.7082518799998,None,592.7082518799998,None,,,,,,,,,,,207,22,Male,2022-05-03_11h35.48.978,Main,2022.1.1,59.91877410974126,
neutral,negative,1,k,k,,,,,,,,,7,2,128,7,,,,,,,,,,,,,,,,,,,,,,,,main,2,2,1,negative,neutral,k,k,1,0.6371165000000474,592.7302620999999,593.7341099000005,593.7150855999998,None,592.7302620999999,None,592.7302620999999,None,592.7302620999999,None,594.3499077800006,None,594.3499077800006,None,594.3499077800006,None,,,,,,,,,,,207,22,Male,2022-05-03_11h35.48.978,Main,2022.1.1,59.91877410974126,
positive,neutral,1,l,j,,,,,,,,,7,3,129,8,,,,,,,,,,,,,,,,,,,,,,,,main,1,1,1,neutral,positive,j,j,1,0.7979103999996369,594.3706971000001,595.3874353000001,595.3496542000003,None,594.3706971000001,None,594.3706971000001,None,594.3706971000001,None,596.1482994799999,None,596.1482994799999,None,596.1482994799999,None,,,,,,,,,,,207,22,Male,2022-05-03_11h35.48.978,Main,2022.1.1,59.91877410974126,
positive,positive,2,l,j,,,,,,,,,7,4,130,11,,,,,,,,,,,,,,,,,,,,,,,,main,2,2,2,positive,positive,j,j,1,0.9161158999995678,596.1687226000004,597.1837421,597.1464649,None,596.1687226000004,None,596.1687226000004,None,596.1687226000004,None,598.0652355800003,None,598.0652355800003,None,598.0652355800003,None,,,,,,,,,,,207,22,Male,2022-05-03_11h35.48.978,Main,2022.1.1,59.91877410974126,
negative,neutral,1,j,l,,,,,,,,,7,5,131,3,,,,,,,,,,,,,,,,,,,,,,,,main,2,2,1,neutral,negative,l,k,0,2.7334008999996513,598.0903235000005,599.0959191000002,599.0773896000001,None,598.0903235000005,None,598.0903235000005,None,598.0903235000005,None,601.8105733000002,None,601.8105733000002,None,601.8105733000002,None,,,,,,,,,,,207,22,Male,2022-05-03_11h35.48.978,Main,2022.1.1,59.91877410974126,
positive,negative,1,l,j,,,,,,,,,7,6,132,5,,,,,,,,,,,,,,,,,,,,,,,,main,1,1,1,negative,positive,j,j,1,2.076100199999928,602.8301554999998,603.8324145000006,603.8140490000005,None,602.8301554999998,None,602.8301554999998,None,602.8301554999998,None,605.8960507000002,None,605.8960507000002,None,605.8960507000002,None,,,,,,,,,,,207,22,Male,2022-05-03_11h35.48.978,Main,2022.1.1,59.91877410974126,
negative,negative,2,j,l,,,,,,,,,7,7,133,9,,,,,,,,,,,,,,,,,,,,,,,,main,1,1,2,negative,negative,l,l,1,0.7527874999996129,606.9134374000005,607.9227836,607.9043109000004,None,606.9134374000005,None,606.9134374000005,None,606.9134374000005,None,608.6481764800001,None,608.6481764800001,None,608.6481764800001,None,,,,,,,,,,,207,22,Male,2022-05-03_11h35.48.978,Main,2022.1.1,59.91877410974126,
positive,neutral,2,l,j,,,,,,,,,7,8,134,17,,,,,,,,,,,,,,,,,,,,,,,,main,1,1,2,neutral,positive,j,j,1,0.8025020999994013,608.6684009,609.6712057000004,609.6522892000003,None,608.6684009,None,608.6684009,None,608.6684009,None,610.4529116800004,None,610.4529116800004,None,610.4529116800004,None,,,,,,,,,,,207,22,Male,2022-05-03_11h35.48.978,Main,2022.1.1,59.91877410974126,
negative,positive,1,j,l,,,,,,,,,7,9,135,6,,,,,,,,,,,,,,,,,,,,,,,,main,1,1,1,positive,negative,l,l,1,0.7072239999997691,610.4732754000006,611.4925090000006,611.4544248000002,None,610.4732754000006,None,610.4732754000006,None,610.4732754000006,None,612.1645366800003,None,612.1645366800003,None,612.1645366800003,None,,,,,,,,,,,207,22,Male,2022-05-03_11h35.48.978,Main,2022.1.1,59.91877410974126,
neutral,negative,2,k,k,,,,,,,,,7,10,136,16,,,,,,,,,,,,,,,,,,,,,,,,main,1,1,2,negative,neutral,k,k,1,0.646918999999798,612.1882051000002,613.1913436000004,613.1729670000004,None,612.1882051000002,None,612.1882051000002,None,612.1882051000002,None,613.8141503799998,None,613.8141503799998,None,613.8141503799998,None,,,,,,,,,,,207,22,Male,2022-05-03_11h35.48.978,Main,2022.1.1,59.91877410974126,
neutral,neutral,1,k,k,,,,,,,,,7,11,137,1,,,,,,,,,,,,,,,,,,,,,,,,main,2,2,1,neutral,neutral,k,k,1,0.6324273999998695,613.8333534000003,614.8562176000005,614.8154039000001,None,613.8333534000003,None,613.8333534000003,None,613.8333534000003,None,615.4494018800006,None,615.4494018800006,None,615.4494018800006,None,,,,,,,,,,,207,22,Male,2022-05-03_11h35.48.978,Main,2022.1.1,59.91877410974126,
positive,positive,1,l,j,,,,,,,,,7,12,138,2,,,,,,,,,,,,,,,,,,,,,,,,main,1,1,1,positive,positive,j,j,1,0.6284132000000682,615.4686173999999,616.4878153,616.4493431999999,None,615.4686173999999,None,615.4686173999999,None,615.4686173999999,None,617.0784727800001,None,617.0784727800001,None,617.0784727800001,None,,,,,,,,,,,207,22,Male,2022-05-03_11h35.48.978,Main,2022.1.1,59.91877410974126,
negative,neutral,2,j,l,,,,,,,,,7,13,139,12,,,,,,,,,,,,,,,,,,,,,,,,main,1,1,2,neutral,negative,l,l,1,0.6997550999994928,617.0980058000005,618.1004638000004,618.0803578000005,None,617.0980058000005,None,617.0980058000005,None,617.0980058000005,None,618.7821399800005,None,618.7821399800005,None,618.7821399800005,None,,,,,,,,,,,207,22,Male,2022-05-03_11h35.48.978,Main,2022.1.1,59.91877410974126,
positive,negative,2,l,j,,,,,,,,,7,14,140,14,,,,,,,,,,,,,,,,,,,,,,,,main,2,2,2,negative,positive,j,j,1,0.8013283999998748,618.8031935999998,619.8050969000005,619.7860314999998,None,618.8031935999998,None,618.8031935999998,None,618.8031935999998,None,620.58617418,None,620.58617418,None,620.58617418,None,,,,,,,,,,,207,22,Male,2022-05-03_11h35.48.978,Main,2022.1.1,59.91877410974126,
neutral,neutral,2,k,k,,,,,,,,,7,15,141,10,,,,,,,,,,,,,,,,,,,,,,,,main,1,1,2,neutral,neutral,k,k,1,0.64024419999987,620.6063737000004,621.6234933000005,621.5854223000006,None,620.6063737000004,None,620.6063737000004,None,620.6063737000004,None,622.2312040799998,None,622.2312040799998,None,622.2312040799998,None,,,,,,,,,,,207,22,Male,2022-05-03_11h35.48.978,Main,2022.1.1,59.91877410974126,
negative,positive,2,j,l,,,,,,,,,7,16,142,15,,,,,,,,,,,,,,,,,,,,,,,,main,2,2,2,positive,negative,l,l,1,0.7311087999996744,622.2541542999998,623.2577142,623.2390024000006,None,622.2541542999998,None,622.2541542999998,None,622.2541542999998,None,623.9621165799999,None,623.9621165799999,None,623.9621165799999,None,,,,,,,,,,,207,22,Male,2022-05-03_11h35.48.978,Main,2022.1.1,59.91877410974126,
negative,negative,1,j,l,,,,,,,,,7,17,143,0,,,,,,,,,,,,,,,,,,,,,,,,main,1,1,1,negative,negative,l,l,1,0.6240380999997797,623.9824755,624.9932049999998,624.9743564999999,None,623.9824755,None,623.9824755,None,623.9824755,None,625.5889657799999,None,625.5889657799999,None,625.5889657799999,None,,,,,,,,,,,207,22,Male,2022-05-03_11h35.48.978,Main,2022.1.1,59.91877410974126,
neutral,neutral,2,k,k,,,,,,,,,8,0,144,10,,,,,,,,,,,,,,,,,,,,,,,,main,2,2,2,neutral,neutral,k,k,1,0.6226446999999098,625.6109714000004,626.6191092999998,626.5995940000003,None,625.6109714000004,None,625.6109714000004,None,625.6109714000004,None,627.2138001800004,None,627.2138001800004,None,627.2138001800004,None,,,,,,,,,,,207,22,Male,2022-05-03_11h35.48.978,Main,2022.1.1,59.91877410974126,
negative,neutral,2,j,l,,,,,,,,,8,1,145,12,,,,,,,,,,,,,,,,,,,,,,,,main,2,2,2,neutral,negative,l,l,1,0.5916919000001144,627.2356627999998,628.2426955000001,628.2241205999999,None,627.2356627999998,None,627.2356627999998,None,627.2356627999998,None,628.8081898800001,None,628.8081898800001,None,628.8081898800001,None,,,,,,,,,,,207,22,Male,2022-05-03_11h35.48.978,Main,2022.1.1,59.91877410974126,
neutral,neutral,1,k,k,,,,,,,,,8,2,146,1,,,,,,,,,,,,,,,,,,,,,,,,main,1,1,1,neutral,neutral,k,k,1,0.6139486000001853,628.8283519000006,629.8296823000001,629.8119264000006,None,628.8283519000006,None,628.8283519000006,None,628.8283519000006,None,630.4236786800002,None,630.4236786800002,None,630.4236786800002,None,,,,,,,,,,,207,22,Male,2022-05-03_11h35.48.978,Main,2022.1.1,59.91877410974126,
neutral,negative,1,k,k,,,,,,,,,8,3,147,7,,,,,,,,,,,,,,,,,,,,,,,,main,2,2,1,negative,neutral,k,k,1,0.561848899999859,630.4485630999998,631.4667558000001,631.4280016000002,None,630.4485630999998,None,630.4485630999998,None,630.4485630999998,None,631.9881607799998,None,631.9881607799998,None,631.9881607799998,None,,,,,,,,,,,207,22,Male,2022-05-03_11h35.48.978,Main,2022.1.1,59.91877410974126,
positive,neutral,2,l,j,,,,,,,,,8,4,148,17,,,,,,,,,,,,,,,,,,,,,,,,main,2,2,2,neutral,positive,j,j,1,0.7653556000004755,632.0101394000003,633.0253272999998,632.9854311999998,None,632.0101394000003,None,632.0101394000003,None,632.0101394000003,None,633.7567461799999,None,633.7567461799999,None,633.7567461799999,None,,,,,,,,,,,207,22,Male,2022-05-03_11h35.48.978,Main,2022.1.1,59.91877410974126,
negative,positive,1,j,l,,,,,,,,,8,5,149,6,,,,,,,,,,,,,,,,,,,,,,,,main,2,2,1,positive,negative,l,l,1,0.8931087000000844,633.7783963000002,634.7913640000006,634.7722514000006,None,633.7783963000002,None,633.7783963000002,None,633.7783963000002,None,635.6531042800007,None,635.6531042800007,None,635.6531042800007,None,,,,,,,,,,,207,22,Male,2022-05-03_11h35.48.978,Main,2022.1.1,59.91877410974126,
neutral,positive,2,k,k,,,,,,,,,8,6,150,13,,,,,,,,,,,,,,,,,,,,,,,,main,1,1,2,positive,neutral,k,k,1,1.5389296000003014,635.6732167,636.6830160999998,636.6454792000004,None,635.6732167,None,635.6732167,None,635.6732167,None,638.2034226000005,None,638.2034226000005,None,638.2034226000005,None,,,,,,,,,,,207,22,Male,2022-05-03_11h35.48.978,Main,2022.1.1,59.91877410974126,
neutral,negative,2,k,k,,,,,,,,,8,7,151,16,,,,,,,,,,,,,,,,,,,,,,,,main,2,2,2,negative,neutral,k,k,1,0.7220581000001403,639.2258846000004,640.2311362999999,640.2120008000002,None,639.2258846000004,None,639.2258846000004,None,639.2258846000004,None,640.9291103800006,None,640.9291103800006,None,640.9291103800006,None,,,,,,,,,,,207,22,Male,2022-05-03_11h35.48.978,Main,2022.1.1,59.91877410974126,
negative,negative,2,j,l,,,,,,,,,8,8,152,9,,,,,,,,,,,,,,,,,,,,,,,,main,1,1,2,negative,negative,l,k,0,0.12815080000018497,640.9496005000001,641.9644340000004,641.9454931,None,640.9496005000001,None,640.9496005000001,None,640.9496005000001,None,642.0650820000001,None,642.0650820000001,None,642.0650820000001,None,,,,,,,,,,,207,22,Male,2022-05-03_11h35.48.978,Main,2022.1.1,59.91877410974126,
positive,positive,2,l,j,,,,,,,,,8,9,153,11,,,,,,,,,,,,,,,,,,,,,,,,main,1,1,2,positive,positive,j,j,1,1.018077099999573,645.0920427000001,646.1093877000003,646.0712557000006,None,645.0920427000001,None,645.0920427000001,None,645.0920427000001,None,647.0903715800005,None,647.0903715800005,None,647.0903715800005,None,,,,,,,,,,,207,22,Male,2022-05-03_11h35.48.978,Main,2022.1.1,59.91877410974126,
negative,negative,1,j,l,,,,,,,,,8,10,154,0,,,,,,,,,,,,,,,,,,,,,,,,main,1,1,1,negative,negative,l,l,1,0.8663112000003821,647.1134857000006,648.1306720000002,648.0930517000006,None,647.1134857000006,None,647.1134857000006,None,647.1134857000006,None,648.9605678799999,None,648.9605678799999,None,648.9605678799999,None,,,,,,,,,,,207,22,Male,2022-05-03_11h35.48.978,Main,2022.1.1,59.91877410974126,
positive,negative,2,l,j,,,,,,,,,8,11,155,14,,,,,,,,,,,,,,,,,,,,,,,,main,1,1,2,negative,positive,j,j,1,0.9100542000005589,648.9810051000004,650.0014007999998,649.9615615000002,None,648.9810051000004,None,648.9810051000004,None,648.9810051000004,None,650.8720676800003,None,650.8720676800003,None,650.8720676800003,None,,,,,,,,,,,207,22,Male,2022-05-03_11h35.48.978,Main,2022.1.1,59.91877410974126,
negative,neutral,1,j,l,,,,,,,,,8,12,156,3,,,,,,,,,,,,,,,,,,,,,,,,main,1,1,1,neutral,negative,l,k,0,0.4713345999998637,650.8929605000003,651.9138478000004,651.8743872000005,None,650.8929605000003,None,650.8929605000003,None,650.8929605000003,None,652.3523359999999,None,652.3523359999999,None,652.3523359999999,None,,,,,,,,,,,207,22,Male,2022-05-03_11h35.48.978,Main,2022.1.1,59.91877410974126,
positive,negative,1,l,j,,,,,,,,,8,13,157,5,,,,,,,,,,,,,,,,,,,,,,,,main,1,1,1,negative,positive,j,j,1,3.517042599999513,653.3737602000001,654.3907434000002,654.3526591,None,653.3737602000001,None,653.3737602000001,None,653.3737602000001,None,657.8775464999999,None,657.8775464999999,None,657.8775464999999,None,,,,,,,,,,,207,22,Male,2022-05-03_11h35.48.978,Main,2022.1.1,59.91877410974126,
positive,positive,1,l,j,,,,,,,,,8,14,158,2,,,,,,,,,,,,,,,,,,,,,,,,main,1,1,1,positive,positive,j,j,1,2.3669730999999956,658.8903220000002,659.9077998000002,659.8690296000004,None,658.8903220000002,None,658.8903220000002,None,658.8903220000002,None,662.2405837000006,None,662.2405837000006,None,662.2405837000006,None,,,,,,,,,,,207,22,Male,2022-05-03_11h35.48.978,Main,2022.1.1,59.91877410974126,
positive,neutral,1,l,j,,,,,,,,,8,15,159,8,,,,,,,,,,,,,,,,,,,,,,,,main,1,1,1,neutral,positive,j,j,1,1.0218796999997721,663.2557398999998,664.2754573000002,664.2378678000005,None,663.2557398999998,None,663.2557398999998,None,663.2557398999998,None,665.2594867799999,None,665.2594867799999,None,665.2594867799999,None,,,,,,,,,,,207,22,Male,2022-05-03_11h35.48.978,Main,2022.1.1,59.91877410974126,
neutral,positive,1,k,k,,,,,,,,,8,16,160,4,,,,,,,,,,,,,,,,,,,,,,,,main,2,2,1,positive,neutral,k,k,1,0.7421004999996512,665.2799503000006,666.2947994000006,666.2758174999999,None,665.2799503000006,None,665.2799503000006,None,665.2799503000006,None,667.0027875800006,None,667.0027875800006,None,667.0027875800006,None,,,,,,,,,,,207,22,Male,2022-05-03_11h35.48.978,Main,2022.1.1,59.91877410974126,
negative,positive,2,j,l,,,,,,,,,8,17,161,15,,,,,,,,,,,,,,,,,,,,,,,,main,1,1,2,positive,negative,l,l,1,0.8229456999997637,667.0246097999998,668.0293658,668.0107594000001,None,667.0246097999998,None,667.0246097999998,None,667.0246097999998,None,668.8305656800003,None,668.8305656800003,None,668.8305656800003,None,,,,,,,,,,,207,22,Male,2022-05-03_11h35.48.978,Main,2022.1.1,59.91877410974126,
neutral,neutral,1,k,k,,,,,,,,,9,0,162,1,,,,,,,,,,,,,,,,,,,,,,,,main,1,1,1,neutral,neutral,k,k,1,0.8900814999997237,668.8514564000006,669.8622365000001,669.8241972000005,None,668.8514564000006,None,668.8514564000006,None,668.8514564000006,None,670.7233095800002,None,670.7233095800002,None,670.7233095800002,None,,,,,,,,,,,207,22,Male,2022-05-03_11h35.48.978,Main,2022.1.1,59.91877410974126,
negative,positive,2,j,l,,,,,,,,,9,1,163,15,,,,,,,,,,,,,,,,,,,,,,,,main,2,2,2,positive,negative,l,l,1,0.7286271000002671,670.7433658999998,671.7541542999998,671.7333816999999,None,670.7433658999998,None,670.7433658999998,None,670.7433658999998,None,672.4522993800001,None,672.4522993800001,None,672.4522993800001,None,,,,,,,,,,,207,22,Male,2022-05-03_11h35.48.978,Main,2022.1.1,59.91877410974126,
negative,neutral,1,j,l,,,,,,,,,9,2,164,3,,,,,,,,,,,,,,,,,,,,,,,,main,1,1,1,neutral,negative,l,l,1,0.6940839999997479,672.4738471999999,673.4837476000002,673.4655125999998,None,672.4738471999999,None,672.4738471999999,None,672.4738471999999,None,674.1505891799998,None,674.1505891799998,None,674.1505891799998,None,,,,,,,,,,,207,22,Male,2022-05-03_11h35.48.978,Main,2022.1.1,59.91877410974126,
positive,positive,1,l,j,,,,,,,,,9,3,165,2,,,,,,,,,,,,,,,,,,,,,,,,main,2,2,1,positive,positive,j,j,1,0.8352392000006148,674.1714766000005,675.1824815,675.1628138000005,None,674.1714766000005,None,674.1714766000005,None,674.1714766000005,None,675.9882147799999,None,675.9882147799999,None,675.9882147799999,None,,,,,,,,,,,207,22,Male,2022-05-03_11h35.48.978,Main,2022.1.1,59.91877410974126,
neutral,neutral,2,k,k,,,,,,,,,9,4,166,10,,,,,,,,,,,,,,,,,,,,,,,,main,1,1,2,neutral,neutral,k,k,1,0.9908921000005648,676.0092006000004,677.0151247000003,676.9962919999998,None,676.0092006000004,None,676.0092006000004,None,676.0092006000004,None,677.98174088,None,677.98174088,None,677.98174088,None,,,,,,,,,,,207,22,Male,2022-05-03_11h35.48.978,Main,2022.1.1,59.91877410974126,
negative,neutral,2,j,l,,,,,,,,,9,5,167,12,,,,,,,,,,,,,,,,,,,,,,,,main,1,1,2,neutral,negative,l,l,1,0.7758752000008826,678.0039618999999,679.0216925000004,678.9843076000006,None,678.0039618999999,None,678.0039618999999,None,678.0039618999999,None,679.7630665800007,None,679.7630665800007,None,679.7630665800007,None,,,,,,,,,,,207,22,Male,2022-05-03_11h35.48.978,Main,2022.1.1,59.91877410974126,
positive,positive,2,l,j,,,,,,,,,9,6,168,11,,,,,,,,,,,,,,,,,,,,,,,,main,2,2,2,positive,positive,j,j,1,1.2370602000000872,679.7848148000003,680.7961325000006,680.7561575,None,679.7848148000003,None,679.7848148000003,None,679.7848148000003,None,682.0028474800001,None,682.0028474800001,None,682.0028474800001,None,,,,,,,,,,,207,22,Male,2022-05-03_11h35.48.978,Main,2022.1.1,59.91877410974126,
neutral,positive,1,k,k,,,,,,,,,9,7,169,4,,,,,,,,,,,,,,,,,,,,,,,,main,1,1,1,positive,neutral,k,k,1,-0.6663366000002497,682.0260675999998,None,None,None,682.0260675999998,None,682.0260675999998,None,682.0260675999998,None,682.3468039999998,None,682.3468039999998,None,682.3468039999998,None,,,,,,,,,,,207,22,Male,2022-05-03_11h35.48.978,Main,2022.1.1,59.91877410974126,
negative,positive,1,j,l,,,,,,,,,9,8,170,6,,,,,,,,,,,,,,,,,,,,,,,,main,1,1,1,positive,negative,l,l,1,0.8001396999998178,685.3712759,686.3832385000005,686.3641960000004,None,685.3712759,None,685.3712759,None,685.3712759,None,687.1499507799999,None,687.1499507799999,None,687.1499507799999,None,,,,,,,,,,,207,22,Male,2022-05-03_11h35.48.978,Main,2022.1.1,59.91877410974126,
positive,neutral,1,l,j,,,,,,,,,9,9,171,8,,,,,,,,,,,,,,,,,,,,,,,,main,2,2,1,neutral,positive,j,j,1,0.8228969000001598,687.1716516000006,688.1776917000007,688.1584627000002,None,687.1716516000006,None,687.1716516000006,None,687.1716516000006,None,688.9785850799999,None,688.9785850799999,None,688.9785850799999,None,,,,,,,,,,,207,22,Male,2022-05-03_11h35.48.978,Main,2022.1.1,59.91877410974126,
negative,negative,1,j,l,,,,,,,,,9,10,172,0,,,,,,,,,,,,,,,,,,,,,,,,main,2,2,1,negative,negative,l,l,1,0.8759006000000227,688.9993550999998,690.0194222,689.9811321000007,None,688.9993550999998,None,688.9993550999998,None,688.9993550999998,None,690.8579963800003,None,690.8579963800003,None,690.8579963800003,None,,,,,,,,,,,207,22,Male,2022-05-03_11h35.48.978,Main,2022.1.1,59.91877410974126,
positive,negative,2,l,j,,,,,,,,,9,11,173,14,,,,,,,,,,,,,,,,,,,,,,,,main,2,2,2,negative,positive,j,j,1,1.4808042999993631,690.8806460000005,691.8847887000002,691.8653199,None,690.8806460000005,None,690.8806460000005,None,690.8806460000005,None,693.3422804800002,None,693.3422804800002,None,693.3422804800002,None,,,,,,,,,,,207,22,Male,2022-05-03_11h35.48.978,Main,2022.1.1,59.91877410974126,
positive,negative,1,l,j,,,,,,,,,9,12,174,5,,,,,,,,,,,,,,,,,,,,,,,,main,2,2,1,negative,positive,j,j,1,0.7675584999997227,693.3624549000006,694.3644369000003,694.3455838999998,None,693.3624549000006,None,693.3624549000006,None,693.3624549000006,None,695.1120154800001,None,695.1120154800001,None,695.1120154800001,None,,,,,,,,,,,207,22,Male,2022-05-03_11h35.48.978,Main,2022.1.1,59.91877410974126,
positive,neutral,2,l,j,,,,,,,,,9,13,175,17,,,,,,,,,,,,,,,,,,,,,,,,main,1,1,2,neutral,positive,j,j,1,5.373694199999591,695.1317549000005,696.1356898000004,696.1172430000006,None,695.1317549000005,None,695.1317549000005,None,695.1317549000005,None,701.4967403,None,701.4967403,None,701.4967403,None,,,,,,,,,,,207,22,Male,2022-05-03_11h35.48.978,Main,2022.1.1,59.91877410974126,
neutral,negative,2,k,k,,,,,,,,,9,14,176,16,,,,,,,,,,,,,,,,,,,,,,,,main,2,2,2,negative,neutral,k,k,1,3.569386299999678,702.517355,703.5204997999999,703.5016841000006,None,702.517355,None,702.517355,None,702.517355,None,707.0732747000002,None,707.0732747000002,None,707.0732747000002,None,,,,,,,,,,,207,22,Male,2022-05-03_11h35.48.978,Main,2022.1.1,59.91877410974126,
negative,negative,2,j,l,,,,,,,,,9,15,177,9,,,,,,,,,,,,,,,,,,,,,,,,main,1,1,2,negative,negative,l,l,1,0.9777070999998614,708.0835967000003,709.0962712,709.0763623000003,None,708.0835967000003,None,708.0835967000003,None,708.0835967000003,None,710.0436149799998,None,710.0436149799998,None,710.0436149799998,None,,,,,,,,,,,207,22,Male,2022-05-03_11h35.48.978,Main,2022.1.1,59.91877410974126,
neutral,positive,2,k,k,,,,,,,,,9,16,178,13,,,,,,,,,,,,,,,,,,,,,,,,main,1,1,2,positive,neutral,k,k,1,5.752406900000096,710.0645812000002,711.0839139999998,711.0465473000004,None,710.0645812000002,None,710.0645812000002,None,710.0645812000002,None,716.8070363000006,None,716.8070363000006,None,716.8070363000006,None,,,,,,,,,,,207,22,Male,2022-05-03_11h35.48.978,Main,2022.1.1,59.91877410974126,
neutral,negative,1,k,k,,,,,,,,,9,17,179,7,,,,,,,,,,,,,,,,,,,,,,,,main,1,1,1,negative,neutral,k,k,1,0.6741577000002508,717.8319474999998,718.8406252000004,718.8210552,None,717.8319474999998,None,717.8319474999998,None,717.8319474999998,None,719.4891752800004,None,719.4891752800004,None,719.4891752800004,None,,,,,,,,,,,207,22,Male,2022-05-03_11h35.48.978,Main,2022.1.1,59.91877410974126,
neutral,negative,2,k,k,,,,,,,,,10,0,180,16,,,,,,,,,,,,,,,,,,,,,,,,main,2,2,2,negative,neutral,k,k,1,0.6984056999999666,719.510687,720.5263876999998,720.4879614000001,None,719.510687,None,719.510687,None,719.510687,None,721.1894718800004,None,721.1894718800004,None,721.1894718800004,None,,,,,,,,,,,207,22,Male,2022-05-03_11h35.48.978,Main,2022.1.1,59.91877410974126,
negative,positive,1,j,l,,,,,,,,,10,1,181,6,,,,,,,,,,,,,,,,,,,,,,,,main,1,1,1,positive,negative,l,l,1,1.0540447000003041,721.2100381,722.2135490000001,722.1952826000006,None,721.2100381,None,721.2100381,None,721.2100381,None,723.24684798,None,723.24684798,None,723.24684798,None,,,,,,,,,,,207,22,Male,2022-05-03_11h35.48.978,Main,2022.1.1,59.91877410974126,
positive,negative,2,l,j,,,,,,,,,10,2,182,14,,,,,,,,,,,,,,,,,,,,,,,,main,2,2,2,negative,positive,j,j,1,2.350435500000458,723.2720577999999,724.2740001000002,724.2554746000005,None,723.2720577999999,None,723.2720577999999,None,723.2720577999999,None,726.6074011999999,None,726.6074011999999,None,726.6074011999999,None,,,,,,,,,,,207,22,Male,2022-05-03_11h35.48.978,Main,2022.1.1,59.91877410974126,
negative,positive,2,j,l,,,,,,,,,10,3,183,15,,,,,,,,,,,,,,,,,,,,,,,,main,1,1,2,positive,negative,l,l,1,2.4553554000003714,727.6326272000006,728.6368364,728.6176820999999,None,727.6326272000006,None,727.6326272000006,None,727.6326272000006,None,731.0742645999999,None,731.0742645999999,None,731.0742645999999,None,,,,,,,,,,,207,22,Male,2022-05-03_11h35.48.978,Main,2022.1.1,59.91877410974126,
neutral,negative,1,k,k,,,,,,,,,10,4,184,7,,,,,,,,,,,,,,,,,,,,,,,,main,1,1,1,negative,neutral,k,k,1,5.874643799999831,732.0973344000004,733.1081717000006,733.0887551000005,None,732.0973344000004,None,732.0973344000004,None,732.0973344000004,None,738.9571519000001,None,738.9571519000001,None,738.9571519000001,None,,,,,,,,,,,207,22,Male,2022-05-03_11h35.48.978,Main,2022.1.1,59.91877410974126,
neutral,positive,1,k,k,,,,,,,,,10,5,185,4,,,,,,,,,,,,,,,,,,,,,,,,main,2,2,1,positive,neutral,k,k,1,5.80432380000002,739.9797889000001,740.9966300000006,740.9578627000001,None,739.9797889000001,None,739.9797889000001,None,739.9797889000001,None,746.7700093000003,None,746.7700093000003,None,746.7700093000003,None,,,,,,,,,,,207,22,Male,2022-05-03_11h35.48.978,Main,2022.1.1,59.91877410974126,
neutral,positive,2,k,k,,,,,,,,,10,6,186,13,,,,,,,,,,,,,,,,,,,,,,,,main,2,2,2,positive,neutral,k,k,1,1.6838436999996702,747.7974886000002,748.8017230000005,748.7821491000004,None,747.7974886000002,None,747.7974886000002,None,747.7974886000002,None,750.4627943000005,None,750.4627943000005,None,750.4627943000005,None,,,,,,,,,,,207,22,Male,2022-05-03_11h35.48.978,Main,2022.1.1,59.91877410974126,
negative,negative,1,j,l,,,,,,,,,10,7,187,0,,,,,,,,,,,,,,,,,,,,,,,,main,1,1,1,negative,negative,l,l,1,2.5368741000002046,751.4792477999999,752.5003055000006,752.4601739999998,None,751.4792477999999,None,751.4792477999999,None,751.4792477999999,None,755.0012670000006,None,755.0012670000006,None,755.0012670000006,None,,,,,,,,,,,207,22,Male,2022-05-03_11h35.48.978,Main,2022.1.1,59.91877410974126,
positive,positive,2,l,j,,,,,,,,,10,8,188,11,,,,,,,,,,,,,,,,,,,,,,,,main,2,2,2,positive,positive,j,j,1,0.8270610999998098,756.0281922000004,757.0337254000005,757.0143208999998,None,756.0281922000004,None,756.0281922000004,None,756.0281922000004,None,757.8370634800003,None,757.8370634800003,None,757.8370634800003,None,,,,,,,,,,,207,22,Male,2022-05-03_11h35.48.978,Main,2022.1.1,59.91877410974126,
positive,neutral,2,l,j,,,,,,,,,10,9,189,17,,,,,,,,,,,,,,,,,,,,,,,,main,2,2,2,neutral,positive,j,k,0,1.7120887999999468,757.8593446000004,758.8786484000002,758.8407959000006,None,757.8593446000004,None,757.8593446000004,None,757.8593446000004,None,760.5620733000005,None,760.5620733000005,None,760.5620733000005,None,,,,,,,,,,,207,22,Male,2022-05-03_11h35.48.978,Main,2022.1.1,59.91877410974126,
positive,neutral,1,l,j,,,,,,,,,10,10,190,8,,,,,,,,,,,,,,,,,,,,,,,,main,1,1,1,neutral,positive,j,k,0,0.5509506000007605,761.5782417999999,762.6002133000002,762.56027,None,761.5782417999999,None,761.5782417999999,None,761.5782417999999,None,763.1137122999999,None,763.1137122999999,None,763.1137122999999,None,,,,,,,,,,,207,22,Male,2022-05-03_11h35.48.978,Main,2022.1.1,59.91877410974126,
negative,neutral,1,j,l,,,,,,,,,10,11,191,3,,,,,,,,,,,,,,,,,,,,,,,,main,1,1,1,neutral,negative,l,l,1,0.8607582000004186,764.1259755000001,765.1281700999998,765.1094217,None,764.1259755000001,None,764.1259755000001,None,764.1259755000001,None,765.9688231800001,None,765.9688231800001,None,765.9688231800001,None,,,,,,,,,,,207,22,Male,2022-05-03_11h35.48.978,Main,2022.1.1,59.91877410974126,
negative,negative,2,j,l,,,,,,,,,10,12,192,9,,,,,,,,,,,,,,,,,,,,,,,,main,2,2,2,negative,negative,l,l,1,0.7419547999998031,765.9907577000004,767.0093643,766.9729109999998,None,765.9907577000004,None,765.9907577000004,None,765.9907577000004,None,767.7162815800002,None,767.7162815800002,None,767.7162815800002,None,,,,,,,,,,,207,22,Male,2022-05-03_11h35.48.978,Main,2022.1.1,59.91877410974126,
positive,positive,1,l,j,,,,,,,,,10,13,193,2,,,,,,,,,,,,,,,,,,,,,,,,main,1,1,1,positive,positive,j,k,0,1.5954334000007293,767.7360935000006,768.7518349000002,768.7130046000002,None,767.7360935000006,None,767.7360935000006,None,767.7360935000006,None,770.3212405000004,None,770.3212405000004,None,770.3212405000004,None,,,,,,,,,,,207,22,Male,2022-05-03_11h35.48.978,Main,2022.1.1,59.91877410974126,
negative,neutral,2,j,l,,,,,,,,,10,14,194,12,,,,,,,,,,,,,,,,,,,,,,,,main,2,2,2,neutral,negative,l,l,1,8.248448700000154,771.3418608000002,772.3443478999998,772.3248294000005,None,771.3418608000002,None,771.3418608000002,None,771.3418608000002,None,780.5777542000005,None,780.5777542000005,None,780.5777542000005,None,,,,,,,,,,,207,22,Male,2022-05-03_11h35.48.978,Main,2022.1.1,59.91877410974126,
positive,negative,1,l,j,,,,,,,,,10,15,195,5,,,,,,,,,,,,,,,,,,,,,,,,main,1,1,1,negative,positive,j,j,1,0.8418080999999802,781.5910152000006,782.5927921000002,782.5733777000005,None,781.5910152000006,None,781.5910152000006,None,781.5910152000006,None,783.4146292800006,None,783.4146292800006,None,783.4146292800006,None,,,,,,,,,,,207,22,Male,2022-05-03_11h35.48.978,Main,2022.1.1,59.91877410974126,
neutral,neutral,2,k,k,,,,,,,,,10,16,196,10,,,,,,,,,,,,,,,,,,,,,,,,main,2,2,2,neutral,neutral,k,k,1,0.6695437999997012,783.4349606000005,784.4363708999999,784.4177870000003,None,783.4349606000005,None,783.4349606000005,None,783.4349606000005,None,785.0869239800004,None,785.0869239800004,None,785.0869239800004,None,,,,,,,,,,,207,22,Male,2022-05-03_11h35.48.978,Main,2022.1.1,59.91877410974126,
neutral,neutral,1,k,k,,,,,,,,,10,17,197,1,,,,,,,,,,,,,,,,,,,,,,,,main,2,2,1,neutral,neutral,k,k,1,0.6740152999991551,785.1067829000003,786.1192759000005,786.0811346999999,None,785.1067829000003,None,785.1067829000003,None,785.1067829000003,None,786.7654328799999,None,786.7654328799999,None,786.7654328799999,None,,,,,,,,,,,207,22,Male,2022-05-03_11h35.48.978,Main,2022.1.1,59.91877410974126,
positive,positive,2,l,j,,,,,,,,,11,0,198,11,,,,,,,,,,,,,,,,,,,,,,,,main,1,1,2,positive,positive,j,j,1,0.9366523999997298,786.7867682000006,787.7879545000005,787.7694069999998,None,786.7867682000006,None,786.7867682000006,None,786.7867682000006,None,788.7048180800002,None,788.7048180800002,None,788.7048180800002,None,,,,,,,,,,,207,22,Male,2022-05-03_11h35.48.978,Main,2022.1.1,59.91877410974126,
negative,positive,2,j,l,,,,,,,,,11,1,199,15,,,,,,,,,,,,,,,,,,,,,,,,main,1,1,2,positive,negative,l,k,0,-0.4037307000007786,788.7284962000003,None,None,None,788.7284962000003,None,788.7284962000003,None,788.7284962000003,None,789.3127972000002,None,789.3127972000002,None,789.3127972000002,None,,,,,,,,,,,207,22,Male,2022-05-03_11h35.48.978,Main,2022.1.1,59.91877410974126,
negative,positive,1,j,l,,,,,,,,,11,2,200,6,,,,,,,,,,,,,,,,,,,,,,,,main,1,1,1,positive,negative,l,l,1,0.8325010999997176,792.3413160999999,793.3514295000004,793.3316874000002,None,792.3413160999999,None,792.3413160999999,None,792.3413160999999,None,794.1518260800003,None,794.1518260800003,None,794.1518260800003,None,,,,,,,,,,,207,22,Male,2022-05-03_11h35.48.978,Main,2022.1.1,59.91877410974126,
negative,neutral,1,j,l,,,,,,,,,11,3,201,3,,,,,,,,,,,,,,,,,,,,,,,,main,2,2,1,neutral,negative,l,l,1,0.6859768000003896,794.1737862999998,795.1921593000006,795.1547760000003,None,794.1737862999998,None,794.1737862999998,None,794.1737862999998,None,795.8429733800003,None,795.8429733800003,None,795.8429733800003,None,,,,,,,,,,,207,22,Male,2022-05-03_11h35.48.978,Main,2022.1.1,59.91877410974126,
positive,negative,1,l,j,,,,,,,,,11,4,202,5,,,,,,,,,,,,,,,,,,,,,,,,main,2,2,1,negative,positive,j,l,0,1.3390988999999536,795.8628067,796.8741137000006,796.8364767000003,None,795.8628067,None,795.8628067,None,795.8628067,None,798.1883304000003,None,798.1883304000003,None,798.1883304000003,None,,,,,,,,,,,207,22,Male,2022-05-03_11h35.48.978,Main,2022.1.1,59.91877410974126,
neutral,negative,2,k,k,,,,,,,,,11,5,203,16,,,,,,,,,,,,,,,,,,,,,,,,main,2,2,2,negative,neutral,k,k,1,-0.07779940000000352,799.2066439999999,None,None,None,799.2066439999999,None,799.2066439999999,None,799.2066439999999,None,800.1165034000005,None,800.1165034000005,None,800.1165034000005,None,,,,,,,,,,,207,22,Male,2022-05-03_11h35.48.978,Main,2022.1.1,59.91877410974126,
neutral,neutral,1,k,k,,,,,,,,,11,6,204,1,,,,,,,,,,,,,,,,,,,,,,,,main,1,1,1,neutral,neutral,k,k,1,-0.05799349999961123,803.1374906000001,None,None,None,803.1374906000001,None,803.1374906000001,None,803.1374906000001,None,804.0656383000005,None,804.0656383000005,None,804.0656383000005,None,,,,,,,,,,,207,22,Male,2022-05-03_11h35.48.978,Main,2022.1.1,59.91877410974126,
neutral,positive,2,k,k,,,,,,,,,11,7,205,13,,,,,,,,,,,,,,,,,,,,,,,,main,1,1,2,positive,neutral,k,k,1,0.7146929000000455,807.0875716999999,808.0882175000006,808.0700265000005,None,807.0875716999999,None,807.0875716999999,None,807.0875716999999,None,808.7817485800006,None,808.7817485800006,None,808.7817485800006,None,,,,,,,,,,,207,22,Male,2022-05-03_11h35.48.978,Main,2022.1.1,59.91877410974126,
neutral,positive,1,k,k,,,,,,,,,11,8,206,4,,,,,,,,,,,,,,,,,,,,,,,,main,1,1,1,positive,neutral,k,k,1,6.064861300000302,808.8041693000005,809.8131909000003,809.7933682000003,None,808.8041693000005,None,808.8041693000005,None,808.8041693000005,None,815.8557059000004,None,815.8557059000004,None,815.8557059000004,None,,,,,,,,,,,207,22,Male,2022-05-03_11h35.48.978,Main,2022.1.1,59.91877410974126,
positive,neutral,2,l,j,,,,,,,,,11,9,207,17,,,,,,,,,,,,,,,,,,,,,,,,main,1,1,2,neutral,positive,j,k,0,0.9936440999999832,816.8689664000003,817.8726101000002,817.8535505,None,816.8689664000003,None,816.8689664000003,None,816.8689664000003,None,818.8508558000003,None,818.8508558000003,None,818.8508558000003,None,,,,,,,,,,,207,22,Male,2022-05-03_11h35.48.978,Main,2022.1.1,59.91877410974126,
negative,neutral,2,j,l,,,,,,,,,11,10,208,12,,,,,,,,,,,,,,,,,,,,,,,,main,2,2,2,neutral,negative,l,l,1,5.035439499999484,819.8690173000005,820.8918121000006,820.8727433000004,None,819.8690173000005,None,819.8690173000005,None,819.8690173000005,None,825.8932985000001,None,825.8932985000001,None,825.8932985000001,None,,,,,,,,,,,207,22,Male,2022-05-03_11h35.48.978,Main,2022.1.1,59.91877410974126,
positive,neutral,1,l,j,,,,,,,,,11,11,209,8,,,,,,,,,,,,,,,,,,,,,,,,main,2,2,1,neutral,positive,j,j,1,0.8636321000003591,826.9218695999998,827.9240037999998,827.9048012000003,None,826.9218695999998,None,826.9218695999998,None,826.9218695999998,None,828.7622463799999,None,828.7622463799999,None,828.7622463799999,None,,,,,,,,,,,207,22,Male,2022-05-03_11h35.48.978,Main,2022.1.1,59.91877410974126,
positive,negative,2,l,j,,,,,,,,,11,12,210,14,,,,,,,,,,,,,,,,,,,,,,,,main,1,1,2,negative,positive,j,j,1,2.092297099999996,828.7833789000006,829.7857033999999,829.7671699000002,None,828.7833789000006,None,828.7833789000006,None,828.7833789000006,None,831.8660541999998,None,831.8660541999998,None,831.8660541999998,None,,,,,,,,,,,207,22,Male,2022-05-03_11h35.48.978,Main,2022.1.1,59.91877410974126,
positive,positive,1,l,j,,,,,,,,,11,13,211,2,,,,,,,,,,,,,,,,,,,,,,,,main,2,2,1,positive,positive,j,k,0,0.6134288000002925,832.8883519000001,833.9100502000001,833.8694008000002,None,832.8883519000001,None,832.8883519000001,None,832.8883519000001,None,834.4846445000003,None,834.4846445000003,None,834.4846445000003,None,,,,,,,,,,,207,22,Male,2022-05-03_11h35.48.978,Main,2022.1.1,59.91877410974126,
negative,negative,2,j,l,,,,,,,,,11,14,212,9,,,,,,,,,,,,,,,,,,,,,,,,main,1,1,2,negative,negative,l,l,1,0.9901841000000786,835.5063823999999,836.5130927999999,836.4944536000003,None,835.5063823999999,None,835.5063823999999,None,835.5063823999999,None,837.4733871799999,None,837.4733871799999,None,837.4733871799999,None,,,,,,,,,,,207,22,Male,2022-05-03_11h35.48.978,Main,2022.1.1,59.91877410974126,
neutral,negative,1,k,k,,,,,,,,,11,15,213,7,,,,,,,,,,,,,,,,,,,,,,,,main,1,1,1,negative,neutral,k,l,0,-0.7203577999998743,837.4950589999999,None,None,None,837.4950589999999,None,837.4950589999999,None,837.4950589999999,None,837.7626890000001,None,837.7626890000001,None,837.7626890000001,None,,,,,,,,,,,207,22,Male,2022-05-03_11h35.48.978,Main,2022.1.1,59.91877410974126,
