target,distractor,set,ans1,ans2,rep_loop2.thisRepN,rep_loop2.thisTrialN,rep_loop2.thisN,rep_loop2.thisIndex,flanker_prac_loop.thisRepN,flanker_prac_loop.thisTrialN,flanker_prac_loop.thisN,flanker_prac_loop.thisIndex,flanker_main_loop.thisRepN,flanker_main_loop.thisTrialN,flanker_main_loop.thisN,flanker_main_loop.thisIndex,fl_inst_resp.keys,mouse.x,mouse.y,mouse.leftButton,mouse.midButton,mouse.rightButton,mouse.started,mouse.stopped,sound_1.started,sound_1.stopped,no_text.started,no_text.stopped,yes_text.started,yes_text.stopped,mouse_2.x,mouse_2.y,mouse_2.leftButton,mouse_2.midButton,mouse_2.rightButton,mouse_2.started,mouse_2.stopped,back_2.started,back_2.stopped,main_prac,fl_cold,fl_colt,fl_set,fl_dcond,fl_tcond,fl_ans,fl_res,fl_corr,fl_rt,fix_fl.started,fix_fl.stopped,targ.started,targ.stopped,j_button.started,j_button.stopped,k_button.started,k_button.stopped,l_button.started,l_button.stopped,j_button2.started,j_button2.stopped,k_button2.started,k_button2.stopped,l_button2.started,l_button2.stopped,mainback.started,mainback.stopped,key_resp.keys,mouse_6.x,mouse_6.y,mouse_6.leftButton,mouse_6.midButton,mouse_6.rightButton,mouse_6.started,mouse_6.stopped,id*,age*,gender*,date,expName,psychopyVersion,frameRate,
,,,,,0,0,0,0,,,,,,,,,None,0.14444445,-0.3962963,0,0,0,1.0091003999987151,None,19.28769485001103,None,69.61716130000423,None,69.61716130000423,None,-0.07962963,-0.11203704,0,0,0,0.012550250001368113,None,,,,,,,,,,,,,,,,,,,,,,,,,,,,,,,,,,,,,,,208,23,Male,2022-05-04_15h15.39.326,Main,2022.1.1,60.010033677185234,
neutral,negative,2,k,k,,,,,0,0,0,16,,,,,,,,,,,,,,,,,,,,,,,,,,73.16413760000432,None,prac,2,2,2,negative,neutral,k,k,1,1.357725499998196,75.22034440000425,76.24088970001321,76.2021883000125,None,75.22034440000425,None,75.22034440000425,None,75.22034440000425,None,77.53785205000023,None,77.53785205000023,None,77.53785205000023,None,,,,,,,,,,,208,23,Male,2022-05-04_15h15.39.326,Main,2022.1.1,60.010033677185234,
positive,positive,1,l,j,,,,,0,1,1,2,,,,,,,,,,,,,,,,,,,,,,,,,,,,prac,2,2,1,positive,positive,l,l,1,0.9348668000020552,77.57221650000429,78.58249169999908,78.56229770000209,None,77.57221650000429,None,77.57221650000429,None,77.57221650000429,None,79.47879505000893,None,79.47879505000893,None,79.47879505000893,None,,,,,,,,,,,208,23,Male,2022-05-04_15h15.39.326,Main,2022.1.1,60.010033677185234,
neutral,neutral,2,k,k,,,,,0,2,2,10,,,,,,,,,,,,,,,,,,,,,,,,,,,,prac,1,1,2,neutral,neutral,k,k,1,0.778583899998921,79.5198059000104,80.53719170000113,80.49651310000627,None,79.5198059000104,None,79.5198059000104,None,79.5198059000104,None,81.26038855000516,None,81.26038855000516,None,81.26038855000516,None,,,,,,,,,,,208,23,Male,2022-05-04_15h15.39.326,Main,2022.1.1,60.010033677185234,
positive,neutral,1,l,j,,,,,0,3,3,8,,,,,,,,,,,,,,,,,,,,,,,,,,,,prac,2,2,1,neutral,positive,l,l,1,0.8917131999915,81.29785800000536,82.30198010000458,82.28285470000992,None,81.29785800000536,None,81.29785800000536,None,81.29785800000536,None,83.15314165001328,None,83.15314165001328,None,83.15314165001328,None,,,,,,,,,,,208,23,Male,2022-05-04_15h15.39.326,Main,2022.1.1,60.010033677185234,
negative,negative,2,j,l,,,,,0,4,4,9,,,,,,,,,,,,,,,,,,,,,,,,,,,,prac,2,2,2,negative,negative,j,j,1,0.9948236999916844,83.1734451000084,84.19126450001204,84.15293310000561,None,83.1734451000084,None,83.1734451000084,None,83.1734451000084,None,85.15100725000084,None,85.15100725000084,None,85.15100725000084,None,,,,,,,,,,,208,23,Male,2022-05-04_15h15.39.326,Main,2022.1.1,60.010033677185234,
positive,neutral,2,l,j,,,,,0,5,5,17,,,,,,,,,,,,,,,,,,,,,,,,,,,,prac,1,1,2,neutral,positive,l,l,1,0.9184206999925664,85.1813414000062,86.19019140000455,86.17105450000963,None,85.1813414000062,None,85.1813414000062,None,85.1813414000062,None,87.07083955000272,None,87.07083955000272,None,87.07083955000272,None,,,,,,,,,,,208,23,Male,2022-05-04_15h15.39.326,Main,2022.1.1,60.010033677185234,
neutral,negative,1,k,k,,,,,0,6,6,7,,,,,,,,,,,,,,,,,,,,,,,,,,,,prac,1,1,1,negative,neutral,k,k,1,0.6643872999993619,87.11326230000122,88.11819250001281,88.0785603000113,None,87.11326230000122,None,87.11326230000122,None,87.11326230000122,None,88.73820755001216,None,88.73820755001216,None,88.73820755001216,None,,,,,,,,,,,208,23,Male,2022-05-04_15h15.39.326,Main,2022.1.1,60.010033677185234,
neutral,positive,2,k,k,,,,,0,7,7,13,,,,,,,,,,,,,,,,,,,,,,,,,,,,prac,2,2,2,positive,neutral,k,k,1,0.6648805000004359,88.77303790001315,89.78680910001276,89.7672040000034,None,88.77303790001315,None,88.77303790001315,None,88.77303790001315,None,90.40417885000934,None,90.40417885000934,None,90.40417885000934,None,,,,,,,,,,,208,23,Male,2022-05-04_15h15.39.326,Main,2022.1.1,60.010033677185234,
positive,negative,1,l,j,,,,,0,8,8,5,,,,,,,,,,,,,,,,,,,,,,,,,,,,prac,1,1,1,negative,positive,l,l,1,0.8660959999979241,90.43690070000594,91.4417717000033,91.42507140000816,None,90.43690070000594,None,90.43690070000594,None,90.43690070000594,None,92.27501845000953,None,92.27501845000953,None,92.27501845000953,None,,,,,,,,,,,208,23,Male,2022-05-04_15h15.39.326,Main,2022.1.1,60.010033677185234,
negative,negative,1,j,l,,,,,0,9,9,0,,,,,,,,,,,,,,,,,,,,,,,,,,,,prac,1,1,1,negative,negative,j,j,1,0.9187661000032676,92.29455210000742,93.30324390000897,93.28404080000473,None,92.29455210000742,None,92.29455210000742,None,92.29455210000742,None,94.19592495001271,None,94.19592495001271,None,94.19592495001271,None,,,,,,,,,,,208,23,Male,2022-05-04_15h15.39.326,Main,2022.1.1,60.010033677185234,
positive,negative,2,l,j,,,,,0,10,10,14,,,,,,,,,,,,,,,,,,,,,,,,,,,,prac,1,1,2,negative,positive,l,l,1,0.7952086000004783,94.22401050000917,95.22876900000847,95.208827200011,None,94.22401050000917,None,94.22401050000917,None,94.22401050000917,None,95.99323925001082,None,95.99323925001082,None,95.99323925001082,None,,,,,,,,,,,208,23,Male,2022-05-04_15h15.39.326,Main,2022.1.1,60.010033677185234,
negative,positive,1,j,l,,,,,0,11,11,6,,,,,,,,,,,,,,,,,,,,,,,,,,,,prac,2,2,1,positive,negative,j,j,1,1.0479889000125695,96.02970080000523,97.03315170000133,97.01308970000537,None,96.02970080000523,None,96.02970080000523,None,96.02970080000523,None,98.044608350005,None,98.044608350005,None,98.044608350005,None,,,,,,,,,,,208,23,Male,2022-05-04_15h15.39.326,Main,2022.1.1,60.010033677185234,
negative,positive,2,j,l,,,,,0,12,12,15,,,,,,,,,,,,,,,,,,,,,,,,,,,,prac,2,2,2,positive,negative,j,j,1,0.8054091000085464,98.06533100000524,99.07546760000696,99.05603130000236,None,98.06533100000524,None,98.06533100000524,None,98.06533100000524,None,99.85135405000474,None,99.85135405000474,None,99.85135405000474,None,,,,,,,,,,,208,23,Male,2022-05-04_15h15.39.326,Main,2022.1.1,60.010033677185234,
neutral,positive,1,k,k,,,,,0,13,13,4,,,,,,,,,,,,,,,,,,,,,,,,,,,,prac,1,1,1,positive,neutral,k,k,1,0.7974497999966843,99.88501370001177,100.90247850000742,100.88163329999952,None,99.88501370001177,None,99.88501370001177,None,99.88501370001177,None,101.65103245000356,None,101.65103245000356,None,101.65103245000356,None,,,,,,,,,,,208,23,Male,2022-05-04_15h15.39.326,Main,2022.1.1,60.010033677185234,
negative,neutral,1,j,l,,,,,0,14,14,3,,,,,,,,,,,,,,,,,,,,,,,,,,,,prac,1,1,1,neutral,negative,j,j,1,0.9524735999875702,101.68259320000652,102.70133999999962,102.68255789999967,None,101.68259320000652,None,101.68259320000652,None,101.68259320000652,None,103.60459415001097,None,103.60459415001097,None,103.60459415001097,None,,,,,,,,,,,208,23,Male,2022-05-04_15h15.39.326,Main,2022.1.1,60.010033677185234,
negative,neutral,2,j,l,,,,,0,15,15,12,,,,,,,,,,,,,,,,,,,,,,,,,,,,prac,2,2,2,neutral,negative,j,j,1,0.8625307000038447,103.63642010001058,104.63852130000305,104.63852130000305,None,103.63642010001058,None,103.63642010001058,None,103.63642010001058,None,105.46930885001203,None,105.46930885001203,None,105.46930885001203,None,,,,,,,,,,,208,23,Male,2022-05-04_15h15.39.326,Main,2022.1.1,60.010033677185234,
positive,positive,2,l,j,,,,,0,16,16,11,,,,,,,,,,,,,,,,,,,,,,,,,,,,prac,1,1,2,positive,positive,l,l,1,0.7990959000017028,105.49888940001256,106.5105395999999,106.49090380000416,None,105.49888940001256,None,105.49888940001256,None,105.49888940001256,None,107.27467225000728,None,107.27467225000728,None,107.27467225000728,None,,,,,,,,,,,208,23,Male,2022-05-04_15h15.39.326,Main,2022.1.1,60.010033677185234,
neutral,neutral,1,k,k,,,,,0,17,17,1,,,,,,,,,,,,,,,,,,,,,,,,,,,,prac,2,2,1,neutral,neutral,k,k,1,0.7327858000062406,107.29437300001155,108.31343829999969,108.27354390000983,None,107.29437300001155,None,107.29437300001155,None,107.29437300001155,None,109.00984225000721,None,109.00984225000721,None,109.00984225000721,None,,,,,,,,,,,208,23,Male,2022-05-04_15h15.39.326,Main,2022.1.1,60.010033677185234,
negative,positive,1,j,l,,,,,1,0,18,6,,,,,,,,,,,,,,,,,,,,,,,,,,,,prac,2,2,1,positive,negative,j,j,1,0.7521012000070186,109.02906470000744,110.03174840001157,110.01293490000535,None,109.02906470000744,None,109.02906470000744,None,109.02906470000744,None,110.76388975000592,None,110.76388975000592,None,110.76388975000592,None,,,,,,,,,,,208,23,Male,2022-05-04_15h15.39.326,Main,2022.1.1,60.010033677185234,
positive,positive,2,l,j,,,,,1,1,19,11,,,,,,,,,,,,,,,,,,,,,,,,,,,,prac,2,2,2,positive,positive,l,l,1,0.7447960999998031,110.78425810000044,111.79598439999972,111.75601000001188,None,110.78425810000044,None,110.78425810000044,None,110.78425810000044,None,112.51285225000757,None,112.51285225000757,None,112.51285225000757,None,,,,,,,,,,,208,23,Male,2022-05-04_15h15.39.326,Main,2022.1.1,60.010033677185234,
negative,positive,2,j,l,,,,,1,2,20,15,,,,,,,,,,,,,,,,,,,,,,,,,,,,prac,2,2,2,positive,negative,j,j,1,0.8282970000000205,112.53404220000084,113.54982749999908,113.5110665000102,None,112.53404220000084,None,112.53404220000084,None,112.53404220000084,None,114.34449295000232,None,114.34449295000232,None,114.34449295000232,None,,,,,,,,,,,208,23,Male,2022-05-04_15h15.39.326,Main,2022.1.1,60.010033677185234,
neutral,neutral,2,k,k,,,,,1,3,21,10,,,,,,,,,,,,,,,,,,,,,,,,,,,,prac,2,2,2,neutral,neutral,k,k,1,0.6452331000036793,114.36567470000591,115.37368699999934,115.35420570000133,None,114.36567470000591,None,114.36567470000591,None,114.36567470000591,None,115.99419055000763,None,115.99419055000763,None,115.99419055000763,None,,,,,,,,,,,208,23,Male,2022-05-04_15h15.39.326,Main,2022.1.1,60.010033677185234,
negative,neutral,1,j,l,,,,,1,4,22,3,,,,,,,,,,,,,,,,,,,,,,,,,,,,prac,2,2,1,neutral,negative,j,j,1,0.7928916999953799,116.01585690000502,117.02644800000417,116.98635720000311,None,116.01585690000502,None,116.01585690000502,None,116.01585690000502,None,117.78877915000194,None,117.78877915000194,None,117.78877915000194,None,,,,,,,,,,,208,23,Male,2022-05-04_15h15.39.326,Main,2022.1.1,60.010033677185234,
positive,positive,1,l,j,,,,,1,5,23,2,,,,,,,,,,,,,,,,,,,,,,,,,,,,prac,2,2,1,positive,positive,l,l,1,0.7608608000009554,117.80874300000141,118.81644990001223,118.7974874000065,None,117.80874300000141,None,117.80874300000141,None,117.80874300000141,None,119.55048665000359,None,119.55048665000359,None,119.55048665000359,None,,,,,,,,,,,208,23,Male,2022-05-04_15h15.39.326,Main,2022.1.1,60.010033677185234,
negative,negative,1,j,l,,,,,1,6,24,0,,,,,,,,,,,,,,,,,,,,,,,,,,,,prac,1,1,1,negative,negative,j,j,1,0.7484308999992209,119.57232160000422,120.58896970000933,120.55068590000155,None,119.57232160000422,None,119.57232160000422,None,119.57232160000422,None,121.30021585000796,None,121.30021585000796,None,121.30021585000796,None,,,,,,,,,,,208,23,Male,2022-05-04_15h15.39.326,Main,2022.1.1,60.010033677185234,
neutral,positive,2,k,k,,,,,1,7,25,13,,,,,,,,,,,,,,,,,,,,,,,,,,,,prac,2,2,2,positive,neutral,k,k,1,0.7108855999977095,121.32138370000757,122.33776310000394,122.30038770000101,None,121.32138370000757,None,121.32138370000757,None,121.32138370000757,None,123.01306985000556,None,123.01306985000556,None,123.01306985000556,None,,,,,,,,,,,208,23,Male,2022-05-04_15h15.39.326,Main,2022.1.1,60.010033677185234,
positive,neutral,1,l,j,,,,,1,8,26,8,,,,,,,,,,,,,,,,,,,,,,,,,,,,prac,1,1,1,neutral,positive,l,l,1,0.8628763000015169,123.03384280001046,124.03783690001,124.01928279999993,None,123.03384280001046,None,123.03384280001046,None,123.03384280001046,None,124.8794444500003,None,124.8794444500003,None,124.8794444500003,None,,,,,,,,,,,208,23,Male,2022-05-04_15h15.39.326,Main,2022.1.1,60.010033677185234,
neutral,negative,1,k,k,,,,,1,9,27,7,,,,,,,,,,,,,,,,,,,,,,,,,,,,prac,1,1,1,negative,neutral,k,k,1,0.7507704999879934,124.8985987000051,125.91304150001088,125.87422960001277,None,124.8985987000051,None,124.8985987000051,None,124.8985987000051,None,126.63283045001154,None,126.63283045001154,None,126.63283045001154,None,,,,,,,,,,,208,23,Male,2022-05-04_15h15.39.326,Main,2022.1.1,60.010033677185234,
negative,negative,2,j,l,,,,,1,10,28,9,,,,,,,,,,,,,,,,,,,,,,,,,,,,prac,2,2,2,negative,negative,j,j,1,0.8965399000007892,126.65359650000755,127.6701030000113,127.63168570000562,None,126.65359650000755,None,126.65359650000755,None,126.65359650000755,None,128.53157685000625,None,128.53157685000625,None,128.53157685000625,None,,,,,,,,,,,208,23,Male,2022-05-04_15h15.39.326,Main,2022.1.1,60.010033677185234,
neutral,positive,1,k,k,,,,,1,11,29,4,,,,,,,,,,,,,,,,,,,,,,,,,,,,prac,2,2,1,positive,neutral,k,k,1,0.725625899998704,128.55139150000468,129.56797840000945,129.53052770000068,None,128.55139150000468,None,128.55139150000468,None,128.55139150000468,None,130.26097644999973,None,130.26097644999973,None,130.26097644999973,None,,,,,,,,,,,208,23,Male,2022-05-04_15h15.39.326,Main,2022.1.1,60.010033677185234,
positive,negative,1,l,j,,,,,1,12,30,5,,,,,,,,,,,,,,,,,,,,,,,,,,,,prac,2,2,1,negative,positive,l,l,1,0.7753483999986202,130.29180300000007,131.30426100001205,131.28491210000357,None,130.29180300000007,None,130.29180300000007,None,130.29180300000007,None,132.0381312500016,None,132.0381312500016,None,132.0381312500016,None,,,,,,,,,,,208,23,Male,2022-05-04_15h15.39.326,Main,2022.1.1,60.010033677185234,
negative,neutral,2,j,l,,,,,1,13,31,12,,,,,,,,,,,,,,,,,,,,,,,,,,,,prac,2,2,2,neutral,negative,j,j,1,0.7495754999981727,132.06061350001255,133.07886960000906,133.0392930000089,None,132.06061350001255,None,132.06061350001255,None,132.06061350001255,None,133.79252905000467,None,133.79252905000467,None,133.79252905000467,None,,,,,,,,,,,208,23,Male,2022-05-04_15h15.39.326,Main,2022.1.1,60.010033677185234,
positive,neutral,2,l,j,,,,,1,14,32,17,,,,,,,,,,,,,,,,,,,,,,,,,,,,prac,2,2,2,neutral,positive,l,l,1,0.7588841999968281,133.81218269999954,134.8195934000105,134.8025701000006,None,133.81218269999954,None,133.81218269999954,None,133.81218269999954,None,135.55528745000484,None,135.55528745000484,None,135.55528745000484,None,,,,,,,,,,,208,23,Male,2022-05-04_15h15.39.326,Main,2022.1.1,60.010033677185234,
positive,negative,2,l,j,,,,,1,15,33,14,,,,,,,,,,,,,,,,,,,,,,,,,,,,prac,2,2,2,negative,positive,l,l,1,0.8533603999967454,135.57472030000645,136.5903771000012,136.55247000000963,None,135.57472030000645,None,135.57472030000645,None,135.57472030000645,None,137.41091635000194,None,137.41091635000194,None,137.41091635000194,None,,,,,,,,,,,208,23,Male,2022-05-04_15h15.39.326,Main,2022.1.1,60.010033677185234,
neutral,neutral,1,k,k,,,,,1,16,34,1,,,,,,,,,,,,,,,,,,,,,,,,,,,,prac,2,2,1,neutral,neutral,k,k,1,0.6897876000002725,137.4314982000069,138.45153380000556,138.41362780000782,None,137.4314982000069,None,137.4314982000069,None,137.4314982000069,None,139.10544884999982,None,139.10544884999982,None,139.10544884999982,None,,,,,,,,,,,208,23,Male,2022-05-04_15h15.39.326,Main,2022.1.1,60.010033677185234,
neutral,negative,2,k,k,,,,,1,17,35,16,,,,,,,,,,,,,,,,,,,,,,,,,,,,prac,2,2,2,negative,neutral,k,k,1,0.6082558000052813,139.12575350000407,140.14025080000283,140.10159320000093,None,139.12575350000407,None,139.12575350000407,None,139.12575350000407,None,140.71475625000895,None,140.71475625000895,None,140.71475625000895,None,,,,,,,,,,,208,23,Male,2022-05-04_15h15.39.326,Main,2022.1.1,60.010033677185234,
,,,,,,,,,,,,,,,,,,,,,,,,,,,,,,,,,,,,,,,,,,,,,,,,,,,,,,,,,,,,,,,,,,140.72094550001202,None,None,,,,,,,,208,23,Male,2022-05-04_15h15.39.326,Main,2022.1.1,60.010033677185234,
,,,,,,,,,,,,,,,,,,,,,,,,,,,,,,,,,,,,,,,,,,,,,,,,,,,,,,,,,,,,,,,,,,,,,0.13518518,-0.08240741,1,0,0,0.004562849993817508,None,208,23,Male,2022-05-04_15h15.39.326,Main,2022.1.1,60.010033677185234,
positive,positive,2,l,j,,,,,,,,,0,0,0,11,,,,,,,,,,,,,,,,,,,,,,144.2052335000044,None,main,2,2,2,positive,positive,l,l,1,0.7741495999944163,146.22601560001203,147.245556400012,147.20727570001327,None,146.22601560001203,None,146.22601560001203,None,146.22601560001203,None,147.97946865000122,None,147.97946865000122,None,147.97946865000122,None,,,,,,,,,,,208,23,Male,2022-05-04_15h15.39.326,Main,2022.1.1,60.010033677185234,
positive,negative,2,l,j,,,,,,,,,0,1,1,14,,,,,,,,,,,,,,,,,,,,,,,,main,1,1,2,negative,positive,l,l,1,0.6987222000025213,148.00126470001123,149.007265200009,148.988360000003,None,148.00126470001123,None,148.00126470001123,None,148.00126470001123,None,149.68208675001225,None,149.68208675001225,None,149.68208675001225,None,,,,,,,,,,,208,23,Male,2022-05-04_15h15.39.326,Main,2022.1.1,60.010033677185234,
neutral,positive,1,k,k,,,,,,,,,0,2,2,4,,,,,,,,,,,,,,,,,,,,,,,,main,1,1,1,positive,neutral,k,k,1,0.6370452999981353,149.7014014000015,150.70467900000222,150.68563610001002,None,149.7014014000015,None,149.7014014000015,None,149.7014014000015,None,151.32280975000177,None,151.32280975000177,None,151.32280975000177,None,,,,,,,,,,,208,23,Male,2022-05-04_15h15.39.326,Main,2022.1.1,60.010033677185234,
positive,positive,1,l,j,,,,,,,,,0,3,3,2,,,,,,,,,,,,,,,,,,,,,,,,main,1,1,1,positive,positive,l,l,1,0.6602409999904921,151.34200250000868,152.3471237000049,152.3279046000098,None,151.34200250000868,None,151.34200250000868,None,151.34200250000868,None,152.98657085000596,None,152.98657085000596,None,152.98657085000596,None,,,,,,,,,,,208,23,Male,2022-05-04_15h15.39.326,Main,2022.1.1,60.010033677185234,
negative,neutral,1,j,l,,,,,,,,,0,4,4,3,,,,,,,,,,,,,,,,,,,,,,,,main,2,2,1,neutral,negative,j,j,1,1.1343131000030553,153.00797890000104,154.01515030000883,153.99688109999988,None,153.00797890000104,None,153.00797890000104,None,153.00797890000104,None,155.1244749500096,None,155.1244749500096,None,155.1244749500096,None,,,,,,,,,,,208,23,Male,2022-05-04_15h15.39.326,Main,2022.1.1,60.010033677185234,
positive,negative,1,l,j,,,,,,,,,0,5,5,5,,,,,,,,,,,,,,,,,,,,,,,,main,2,2,1,negative,positive,l,l,1,0.8653499000065494,155.14529250000487,156.16220690000046,156.12387580001086,None,155.14529250000487,None,155.14529250000487,None,155.14529250000487,None,156.99295085001214,None,156.99295085001214,None,156.99295085001214,None,,,,,,,,,,,208,23,Male,2022-05-04_15h15.39.326,Main,2022.1.1,60.010033677185234,
neutral,neutral,2,k,k,,,,,,,,,0,6,6,10,,,,,,,,,,,,,,,,,,,,,,,,main,1,1,2,neutral,neutral,k,k,1,0.7236632999993162,157.01305630001298,158.0297830000054,157.9922799000051,None,157.01305630001298,None,157.01305630001298,None,157.01305630001298,None,158.72093505001104,None,158.72093505001104,None,158.72093505001104,None,,,,,,,,,,,208,23,Male,2022-05-04_15h15.39.326,Main,2022.1.1,60.010033677185234,
neutral,neutral,1,k,k,,,,,,,,,0,7,7,1,,,,,,,,,,,,,,,,,,,,,,,,main,1,1,1,neutral,neutral,k,k,1,0.657155299995793,158.74109680000402,159.74804030000814,159.7294954000099,None,158.74109680000402,None,158.74109680000402,None,158.74109680000402,None,160.37740545000125,None,160.37740545000125,None,160.37740545000125,None,,,,,,,,,,,208,23,Male,2022-05-04_15h15.39.326,Main,2022.1.1,60.010033677185234,
negative,negative,2,j,l,,,,,,,,,0,8,8,9,,,,,,,,,,,,,,,,,,,,,,,,main,2,2,2,negative,negative,j,j,1,0.8284347000007983,160.39952669999911,161.40562110001338,161.38646800001152,None,160.39952669999911,None,160.39952669999911,None,160.39952669999911,None,162.210202150009,None,162.210202150009,None,162.210202150009,None,,,,,,,,,,,208,23,Male,2022-05-04_15h15.39.326,Main,2022.1.1,60.010033677185234,
neutral,negative,2,k,k,,,,,,,,,0,9,9,16,,,,,,,,,,,,,,,,,,,,,,,,main,1,1,2,negative,neutral,k,k,1,0.7477089000021806,162.2292795000103,163.2325322000106,163.21383030001016,None,162.2292795000103,None,162.2292795000103,None,162.2292795000103,None,163.9592471500131,None,163.9592471500131,None,163.9592471500131,None,,,,,,,,,,,208,23,Male,2022-05-04_15h15.39.326,Main,2022.1.1,60.010033677185234,
neutral,positive,2,k,k,,,,,,,,,0,10,10,13,,,,,,,,,,,,,,,,,,,,,,,,main,1,1,2,positive,neutral,k,k,1,0.7657780000008643,163.98031490000722,164.99387820000993,164.95628230000148,None,163.98031490000722,None,163.98031490000722,None,163.98031490000722,None,165.72609445000708,None,165.72609445000708,None,165.72609445000708,None,,,,,,,,,,,208,23,Male,2022-05-04_15h15.39.326,Main,2022.1.1,60.010033677185234,
negative,neutral,2,j,l,,,,,,,,,0,11,11,12,,,,,,,,,,,,,,,,,,,,,,,,main,2,2,2,neutral,negative,j,j,1,0.6792688999994425,165.74865220001084,166.75042710000707,166.7313676000049,None,165.74865220001084,None,165.74865220001084,None,165.74865220001084,None,167.4083991499996,None,167.4083991499996,None,167.4083991499996,None,,,,,,,,,,,208,23,Male,2022-05-04_15h15.39.326,Main,2022.1.1,60.010033677185234,
positive,neutral,1,l,j,,,,,,,,,0,12,12,8,,,,,,,,,,,,,,,,,,,,,,,,main,1,1,1,neutral,positive,l,l,1,0.7275059999956284,167.43089560000226,168.44709520001197,168.40932410000823,None,167.43089560000226,None,167.43089560000226,None,167.43089560000226,None,169.1404905500007,None,169.1404905500007,None,169.1404905500007,None,,,,,,,,,,,208,23,Male,2022-05-04_15h15.39.326,Main,2022.1.1,60.010033677185234,
neutral,negative,1,k,k,,,,,,,,,0,13,13,7,,,,,,,,,,,,,,,,,,,,,,,,main,1,1,1,negative,neutral,k,k,1,0.6951930000068387,169.16051490000973,170.1829327000014,170.13675570000487,None,169.16051490000973,None,169.16051490000973,None,169.16051490000973,None,170.8393082500028,None,170.8393082500028,None,170.8393082500028,None,,,,,,,,,,,208,23,Male,2022-05-04_15h15.39.326,Main,2022.1.1,60.010033677185234,
positive,neutral,2,l,j,,,,,,,,,0,14,14,17,,,,,,,,,,,,,,,,,,,,,,,,main,1,1,2,neutral,positive,l,l,1,0.738592299996526,170.85982350000995,171.86867250000068,171.84925980000116,None,170.85982350000995,None,170.85982350000995,None,170.85982350000995,None,172.58286315001024,None,172.58286315001024,None,172.58286315001024,None,,,,,,,,,,,208,23,Male,2022-05-04_15h15.39.326,Main,2022.1.1,60.010033677185234,
negative,positive,2,j,l,,,,,,,,,0,15,15,15,,,,,,,,,,,,,,,,,,,,,,,,main,2,2,2,positive,negative,j,j,1,0.8281666000111727,172.60328000001027,173.62501150000026,173.58426670001063,None,172.60328000001027,None,172.60328000001027,None,172.60328000001027,None,174.4114445500076,None,174.4114445500076,None,174.4114445500076,None,,,,,,,,,,,208,23,Male,2022-05-04_15h15.39.326,Main,2022.1.1,60.010033677185234,
negative,negative,1,j,l,,,,,,,,,0,16,16,0,,,,,,,,,,,,,,,,,,,,,,,,main,1,1,1,negative,negative,j,l,0,0.7870228999963729,174.43202930000552,175.44750760000898,175.40992160000314,None,174.43202930000552,None,174.43202930000552,None,174.43202930000552,None,176.22585440000694,None,176.22585440000694,None,176.22585440000694,None,,,,,,,,,,,208,23,Male,2022-05-04_15h15.39.326,Main,2022.1.1,60.010033677185234,
negative,positive,1,j,l,,,,,,,,,0,17,17,6,,,,,,,,,,,,,,,,,,,,,,,,main,2,2,1,positive,negative,j,j,1,0.8415036999940639,177.24564700000337,178.25766420000582,178.23914650001097,None,177.24564700000337,None,177.24564700000337,None,177.24564700000337,None,179.06901655000402,None,179.06901655000402,None,179.06901655000402,None,,,,,,,,,,,208,23,Male,2022-05-04_15h15.39.326,Main,2022.1.1,60.010033677185234,
neutral,neutral,1,k,k,,,,,,,,,1,0,18,1,,,,,,,,,,,,,,,,,,,,,,,,main,1,1,1,neutral,neutral,k,k,1,0.7041514000011375,179.0912568000058,180.10800440001185,180.06715510001231,None,179.0912568000058,None,179.0912568000058,None,179.0912568000058,None,180.77610175000737,None,180.77610175000737,None,180.77610175000737,None,,,,,,,,,,,208,23,Male,2022-05-04_15h15.39.326,Main,2022.1.1,60.010033677185234,
positive,positive,1,l,j,,,,,,,,,1,1,19,2,,,,,,,,,,,,,,,,,,,,,,,,main,2,2,1,positive,positive,l,l,1,0.739405500004068,180.80030760000227,181.80278310000722,181.7829813999997,None,180.80030760000227,None,180.80030760000227,None,180.80030760000227,None,182.52010865000776,None,182.52010865000776,None,182.52010865000776,None,,,,,,,,,,,208,23,Male,2022-05-04_15h15.39.326,Main,2022.1.1,60.010033677185234,
positive,negative,2,l,j,,,,,,,,,1,2,20,14,,,,,,,,,,,,,,,,,,,,,,,,main,1,1,2,negative,positive,l,l,1,0.7215160000050673,182.54114690001006,183.55569700000342,183.51585030001297,None,182.54114690001006,None,182.54114690001006,None,182.54114690001006,None,184.2453719500103,None,184.2453719500103,None,184.2453719500103,None,,,,,,,,,,,208,23,Male,2022-05-04_15h15.39.326,Main,2022.1.1,60.010033677185234,
positive,neutral,1,l,j,,,,,,,,,1,3,21,8,,,,,,,,,,,,,,,,,,,,,,,,main,1,1,1,neutral,positive,l,l,1,0.7498227000032784,184.26491610000085,185.2830607000069,185.24366190000728,None,184.26491610000085,None,184.26491610000085,None,184.26491610000085,None,185.9997930500016,None,185.9997930500016,None,185.9997930500016,None,,,,,,,,,,,208,23,Male,2022-05-04_15h15.39.326,Main,2022.1.1,60.010033677185234,
positive,negative,1,l,j,,,,,,,,,1,4,22,5,,,,,,,,,,,,,,,,,,,,,,,,main,1,1,1,negative,positive,l,l,1,0.6928583000117214,186.0190447000059,187.03462210000725,186.99641650001286,None,186.0190447000059,None,186.0190447000059,None,186.0190447000059,None,187.69308455000865,None,187.69308455000865,None,187.69308455000865,None,,,,,,,,,,,208,23,Male,2022-05-04_15h15.39.326,Main,2022.1.1,60.010033677185234,
neutral,positive,1,k,k,,,,,,,,,1,5,23,4,,,,,,,,,,,,,,,,,,,,,,,,main,1,1,1,positive,neutral,k,k,1,0.7811087000009138,187.71348460001172,188.71746030000213,188.69757070000924,None,187.71348460001172,None,187.71348460001172,None,187.71348460001172,None,189.47875765000063,None,189.47875765000063,None,189.47875765000063,None,,,,,,,,,,,208,23,Male,2022-05-04_15h15.39.326,Main,2022.1.1,60.010033677185234,
negative,positive,2,j,l,,,,,,,,,1,6,24,15,,,,,,,,,,,,,,,,,,,,,,,,main,1,1,2,positive,negative,j,j,1,0.7825905999925453,189.49944710001,190.5176017000049,190.47908889999962,None,189.49944710001,None,189.49944710001,None,189.49944710001,None,191.26338875000366,None,191.26338875000366,None,191.26338875000366,None,,,,,,,,,,,208,23,Male,2022-05-04_15h15.39.326,Main,2022.1.1,60.010033677185234,
positive,positive,2,l,j,,,,,,,,,1,7,25,11,,,,,,,,,,,,,,,,,,,,,,,,main,2,2,2,positive,positive,l,l,1,0.7341427999926964,191.28322680000565,192.30104800000845,192.25996770001075,None,191.28322680000565,None,191.28322680000565,None,191.28322680000565,None,192.99926595000434,None,192.99926595000434,None,192.99926595000434,None,,,,,,,,,,,208,23,Male,2022-05-04_15h15.39.326,Main,2022.1.1,60.010033677185234,
neutral,positive,2,k,k,,,,,,,,,1,8,26,13,,,,,,,,,,,,,,,,,,,,,,,,main,2,2,2,positive,neutral,k,k,1,0.8017496000102255,193.02110870000615,194.0300683000096,194.01082080000197,None,193.02110870000615,None,193.02110870000615,None,193.02110870000615,None,194.80366435000033,None,194.80366435000033,None,194.80366435000033,None,,,,,,,,,,,208,23,Male,2022-05-04_15h15.39.326,Main,2022.1.1,60.010033677185234,
negative,neutral,2,j,l,,,,,,,,,1,9,27,12,,,,,,,,,,,,,,,,,,,,,,,,main,2,2,2,neutral,negative,j,j,1,1.0838893000036478,194.82342000000062,195.84645750001073,195.79894050001167,None,194.82342000000062,None,194.82342000000062,None,194.82342000000062,None,196.88944415000734,None,196.88944415000734,None,196.88944415000734,None,,,,,,,,,,,208,23,Male,2022-05-04_15h15.39.326,Main,2022.1.1,60.010033677185234,
negative,negative,1,j,l,,,,,,,,,1,10,28,0,,,,,,,,,,,,,,,,,,,,,,,,main,1,1,1,negative,negative,j,l,0,0.7515530999953626,196.90979990000778,197.92751520000456,197.8891033000109,None,196.90979990000778,None,196.90979990000778,None,196.90979990000778,None,198.6493424000073,None,198.6493424000073,None,198.6493424000073,None,,,,,,,,,,,208,23,Male,2022-05-04_15h15.39.326,Main,2022.1.1,60.010033677185234,
neutral,negative,1,k,k,,,,,,,,,1,11,29,7,,,,,,,,,,,,,,,,,,,,,,,,main,2,2,1,negative,neutral,k,k,1,0.8490453000122216,199.67593000001216,200.69050219999917,200.67115140000533,None,199.67593000001216,None,199.67593000001216,None,199.67593000001216,None,201.50507785000664,None,201.50507785000664,None,201.50507785000664,None,,,,,,,,,,,208,23,Male,2022-05-04_15h15.39.326,Main,2022.1.1,60.010033677185234,
neutral,neutral,2,k,k,,,,,,,,,1,12,30,10,,,,,,,,,,,,,,,,,,,,,,,,main,2,2,2,neutral,neutral,k,k,1,0.7143790999980411,201.52775880000263,202.52895750000607,202.5103553000081,None,201.52775880000263,None,201.52775880000263,None,201.52775880000263,None,203.22156635000138,None,203.22156635000138,None,203.22156635000138,None,,,,,,,,,,,208,23,Male,2022-05-04_15h15.39.326,Main,2022.1.1,60.010033677185234,
neutral,negative,2,k,k,,,,,,,,,1,13,31,16,,,,,,,,,,,,,,,,,,,,,,,,main,1,1,2,negative,neutral,k,k,1,0.6651729000004707,203.24206410000625,204.24309200000425,204.22492290000082,None,203.24206410000625,None,203.24206410000625,None,203.24206410000625,None,204.88962365000626,None,204.88962365000626,None,204.88962365000626,None,,,,,,,,,,,208,23,Male,2022-05-04_15h15.39.326,Main,2022.1.1,60.010033677185234,
negative,neutral,1,j,l,,,,,,,,,1,14,32,3,,,,,,,,,,,,,,,,,,,,,,,,main,1,1,1,neutral,negative,j,j,1,0.9302290999912657,204.91134990000864,205.9240378000104,205.8860757000075,None,204.91134990000864,None,204.91134990000864,None,204.91134990000864,None,206.82273705000117,None,206.82273705000117,None,206.82273705000117,None,,,,,,,,,,,208,23,Male,2022-05-04_15h15.39.326,Main,2022.1.1,60.010033677185234,
negative,positive,1,j,l,,,,,,,,,1,15,33,6,,,,,,,,,,,,,,,,,,,,,,,,main,1,1,1,positive,negative,j,j,1,0.6626784000109183,206.8438707000023,207.84518200000457,207.82631140000012,None,206.8438707000023,None,206.8438707000023,None,206.8438707000023,None,208.48761765000236,None,208.48761765000236,None,208.48761765000236,None,,,,,,,,,,,208,23,Male,2022-05-04_15h15.39.326,Main,2022.1.1,60.010033677185234,
positive,neutral,2,l,j,,,,,,,,,1,16,34,17,,,,,,,,,,,,,,,,,,,,,,,,main,1,1,2,neutral,positive,l,l,1,0.7287195999961114,208.50847040000372,209.52177580000716,209.48342800000682,None,208.50847040000372,None,208.50847040000372,None,208.50847040000372,None,210.21930185000238,None,210.21930185000238,None,210.21930185000238,None,,,,,,,,,,,208,23,Male,2022-05-04_15h15.39.326,Main,2022.1.1,60.010033677185234,
negative,negative,2,j,l,,,,,,,,,1,17,35,9,,,,,,,,,,,,,,,,,,,,,,,,main,2,2,2,negative,negative,j,j,1,0.8138317999982974,210.24108390000765,211.24639749999915,211.22727990000567,None,210.24108390000765,None,210.24108390000765,None,210.24108390000765,None,212.0362966500019,None,212.0362966500019,None,212.0362966500019,None,,,,,,,,,,,208,23,Male,2022-05-04_15h15.39.326,Main,2022.1.1,60.010033677185234,
negative,negative,2,j,l,,,,,,,,,2,0,36,9,,,,,,,,,,,,,,,,,,,,,,,,main,2,2,2,negative,negative,j,j,1,0.7691622999991523,212.05666940000083,213.07042880001245,213.033181900013,None,212.05666940000083,None,212.05666940000083,None,212.05666940000083,None,213.81062505000446,None,213.81062505000446,None,213.81062505000446,None,,,,,,,,,,,208,23,Male,2022-05-04_15h15.39.326,Main,2022.1.1,60.010033677185234,
positive,positive,1,l,j,,,,,,,,,2,1,37,2,,,,,,,,,,,,,,,,,,,,,,,,main,2,2,1,positive,positive,l,l,1,0.8333801999979187,213.8293459000124,214.83540110000467,214.81557220000832,None,213.8293459000124,None,213.8293459000124,None,213.8293459000124,None,215.64615335000272,None,215.64615335000272,None,215.64615335000272,None,,,,,,,,,,,208,23,Male,2022-05-04_15h15.39.326,Main,2022.1.1,60.010033677185234,
neutral,positive,1,k,k,,,,,,,,,2,2,38,4,,,,,,,,,,,,,,,,,,,,,,,,main,2,2,1,positive,neutral,k,k,1,0.8440877000102773,215.66663600000902,216.68886900000507,216.6484327000071,None,215.66663600000902,None,215.66663600000902,None,215.66663600000902,None,217.49123125000042,None,217.49123125000042,None,217.49123125000042,None,,,,,,,,,,,208,23,Male,2022-05-04_15h15.39.326,Main,2022.1.1,60.010033677185234,
neutral,neutral,2,k,k,,,,,,,,,2,3,39,10,,,,,,,,,,,,,,,,,,,,,,,,main,2,2,2,neutral,neutral,k,k,1,0.7584446999971988,217.51208410000254,218.51927520000027,218.5006793000066,None,217.51208410000254,None,217.51208410000254,None,217.51208410000254,None,219.2523816500092,None,219.2523816500092,None,219.2523816500092,None,,,,,,,,,,,208,23,Male,2022-05-04_15h15.39.326,Main,2022.1.1,60.010033677185234,
neutral,neutral,1,k,k,,,,,,,,,2,4,40,1,,,,,,,,,,,,,,,,,,,,,,,,main,1,1,1,neutral,neutral,k,k,1,0.6995250000036322,219.27193710001302,220.28350280001177,220.24564660000033,None,219.27193710001302,None,219.27193710001302,None,219.27193710001302,None,220.95403365001258,None,220.95403365001258,None,220.95403365001258,None,,,,,,,,,,,208,23,Male,2022-05-04_15h15.39.326,Main,2022.1.1,60.010033677185234,
positive,negative,2,l,j,,,,,,,,,2,5,41,14,,,,,,,,,,,,,,,,,,,,,,,,main,1,1,2,negative,positive,l,l,1,0.8115202000044519,220.97407350000867,221.98287770000752,221.96400160000485,None,220.97407350000867,None,220.97407350000867,None,220.97407350000867,None,222.76808795000252,None,222.76808795000252,None,222.76808795000252,None,,,,,,,,,,,208,23,Male,2022-05-04_15h15.39.326,Main,2022.1.1,60.010033677185234,
neutral,negative,1,k,k,,,,,,,,,2,6,42,7,,,,,,,,,,,,,,,,,,,,,,,,main,2,2,1,negative,neutral,k,k,1,0.7170953000022564,222.7886540000036,223.80200380001043,223.7641164000088,None,222.7886540000036,None,222.7886540000036,None,222.7886540000036,None,224.48701105001092,None,224.48701105001092,None,224.48701105001092,None,,,,,,,,,,,208,23,Male,2022-05-04_15h15.39.326,Main,2022.1.1,60.010033677185234,
positive,positive,2,l,j,,,,,,,,,2,7,43,11,,,,,,,,,,,,,,,,,,,,,,,,main,2,2,2,positive,positive,l,l,1,0.7164555999916047,224.50710860000981,225.51366840000264,225.4947237000015,None,224.50710860000981,None,224.50710860000981,None,224.50710860000981,None,226.20637695000042,None,226.20637695000042,None,226.20637695000042,None,,,,,,,,,,,208,23,Male,2022-05-04_15h15.39.326,Main,2022.1.1,60.010033677185234,
negative,positive,2,j,l,,,,,,,,,2,8,44,15,,,,,,,,,,,,,,,,,,,,,,,,main,2,2,2,positive,negative,j,j,1,0.8105638999986695,226.22637889999896,227.22959710001305,227.2095476000104,None,226.22637889999896,None,226.22637889999896,None,226.22637889999896,None,228.01888055001328,None,228.01888055001328,None,228.01888055001328,None,,,,,,,,,,,208,23,Male,2022-05-04_15h15.39.326,Main,2022.1.1,60.010033677185234,
neutral,negative,2,k,k,,,,,,,,,2,9,45,16,,,,,,,,,,,,,,,,,,,,,,,,main,2,2,2,negative,neutral,k,k,1,0.7154769000044325,228.0403992000065,229.0500020000036,229.03052550001303,None,228.0403992000065,None,228.0403992000065,None,228.0403992000065,None,229.73730995000224,None,229.73730995000224,None,229.73730995000224,None,,,,,,,,,,,208,23,Male,2022-05-04_15h15.39.326,Main,2022.1.1,60.010033677185234,
negative,positive,1,j,l,,,,,,,,,2,10,46,6,,,,,,,,,,,,,,,,,,,,,,,,main,1,1,1,positive,negative,j,j,1,0.8097678999911295,229.75792990000627,230.76259180001216,230.74275790000684,None,229.75792990000627,None,229.75792990000627,None,229.75792990000627,None,231.55039315000468,None,231.55039315000468,None,231.55039315000468,None,,,,,,,,,,,208,23,Male,2022-05-04_15h15.39.326,Main,2022.1.1,60.010033677185234,
positive,negative,1,l,j,,,,,,,,,2,11,47,5,,,,,,,,,,,,,,,,,,,,,,,,main,1,1,1,negative,positive,l,l,1,0.7529714999982389,231.569310100007,232.58990330000233,232.5507701000024,None,231.569310100007,None,231.569310100007,None,231.569310100007,None,233.30337525001087,None,233.30337525001087,None,233.30337525001087,None,,,,,,,,,,,208,23,Male,2022-05-04_15h15.39.326,Main,2022.1.1,60.010033677185234,
negative,negative,1,j,l,,,,,,,,,2,12,48,0,,,,,,,,,,,,,,,,,,,,,,,,main,2,2,1,negative,negative,j,j,1,0.8123759000009159,233.32871830000659,234.34860990000016,234.31042980001075,None,233.32871830000659,None,233.32871830000659,None,233.32871830000659,None,235.11860435001145,None,235.11860435001145,None,235.11860435001145,None,,,,,,,,,,,208,23,Male,2022-05-04_15h15.39.326,Main,2022.1.1,60.010033677185234,
negative,neutral,1,j,l,,,,,,,,,2,13,49,3,,,,,,,,,,,,,,,,,,,,,,,,main,2,2,1,neutral,negative,j,j,1,0.7312034000060521,235.13967840000987,236.1440736000077,236.12430440000026,None,235.13967840000987,None,235.13967840000987,None,235.13967840000987,None,236.85326645000023,None,236.85326645000023,None,236.85326645000023,None,,,,,,,,,,,208,23,Male,2022-05-04_15h15.39.326,Main,2022.1.1,60.010033677185234,
negative,neutral,2,j,l,,,,,,,,,2,14,50,12,,,,,,,,,,,,,,,,,,,,,,,,main,2,2,2,neutral,negative,j,j,1,0.8220030999946175,236.87386150000384,237.87799600001017,237.8581858000107,None,236.87386150000384,None,236.87386150000384,None,236.87386150000384,None,238.68034245000163,None,238.68034245000163,None,238.68034245000163,None,,,,,,,,,,,208,23,Male,2022-05-04_15h15.39.326,Main,2022.1.1,60.010033677185234,
neutral,positive,2,k,k,,,,,,,,,2,15,51,13,,,,,,,,,,,,,,,,,,,,,,,,main,1,1,2,positive,neutral,k,k,1,0.7346650999970734,238.70090560000972,239.71844570001122,239.68073810001079,None,238.70090560000972,None,238.70090560000972,None,238.70090560000972,None,240.41721575000557,None,240.41721575000557,None,240.41721575000557,None,,,,,,,,,,,208,23,Male,2022-05-04_15h15.39.326,Main,2022.1.1,60.010033677185234,
positive,neutral,1,l,j,,,,,,,,,2,16,52,8,,,,,,,,,,,,,,,,,,,,,,,,main,1,1,1,neutral,positive,l,l,1,0.6983999000076437,240.43888340001286,241.44524120001006,241.42595860001165,None,240.43888340001286,None,240.43888340001286,None,240.43888340001286,None,242.11913835000306,None,242.11913835000306,None,242.11913835000306,None,,,,,,,,,,,208,23,Male,2022-05-04_15h15.39.326,Main,2022.1.1,60.010033677185234,
positive,neutral,2,l,j,,,,,,,,,2,17,53,17,,,,,,,,,,,,,,,,,,,,,,,,main,2,2,2,neutral,positive,l,l,1,0.8089099999924656,242.139625300013,243.16109900000447,243.12157750000188,None,242.139625300013,None,242.139625300013,None,242.139625300013,None,243.930941850011,None,243.930941850011,None,243.930941850011,None,,,,,,,,,,,208,23,Male,2022-05-04_15h15.39.326,Main,2022.1.1,60.010033677185234,
negative,negative,2,j,l,,,,,,,,,3,0,54,9,,,,,,,,,,,,,,,,,,,,,,,,main,2,2,2,negative,negative,j,j,1,0.7231558000057703,243.9513345000014,244.969809000002,244.93104790001235,None,243.9513345000014,None,243.9513345000014,None,243.9513345000014,None,245.65890325001092,None,245.65890325001092,None,245.65890325001092,None,,,,,,,,,,,208,23,Male,2022-05-04_15h15.39.326,Main,2022.1.1,60.010033677185234,
negative,positive,1,j,l,,,,,,,,,3,1,55,6,,,,,,,,,,,,,,,,,,,,,,,,main,2,2,1,positive,negative,j,j,1,0.8299354000046151,245.6794649000076,246.69599420001032,246.65687750000507,None,245.6794649000076,None,245.6794649000076,None,245.6794649000076,None,247.49072865000053,None,247.49072865000053,None,247.49072865000053,None,,,,,,,,,,,208,23,Male,2022-05-04_15h15.39.326,Main,2022.1.1,60.010033677185234,
negative,neutral,1,j,l,,,,,,,,,3,2,56,3,,,,,,,,,,,,,,,,,,,,,,,,main,1,1,1,neutral,negative,j,j,1,1.3558236000098987,247.51107830001274,248.52479760001006,248.48599100000865,None,247.51107830001274,None,247.51107830001274,None,247.51107830001274,None,249.84821645000775,None,249.84821645000775,None,249.84821645000775,None,,,,,,,,,,,208,23,Male,2022-05-04_15h15.39.326,Main,2022.1.1,60.010033677185234,
positive,positive,1,l,j,,,,,,,,,3,3,57,2,,,,,,,,,,,,,,,,,,,,,,,,main,2,2,1,positive,positive,l,l,1,0.8187075000023469,249.86724800000957,250.86922670000058,250.85033620000468,None,249.86724800000957,None,249.86724800000957,None,249.86724800000957,None,251.6682719500008,None,251.6682719500008,None,251.6682719500008,None,,,,,,,,,,,208,23,Male,2022-05-04_15h15.39.326,Main,2022.1.1,60.010033677185234,
negative,negative,1,j,l,,,,,,,,,3,4,58,0,,,,,,,,,,,,,,,,,,,,,,,,main,2,2,1,negative,negative,j,j,1,0.7812118000001647,251.6893626000092,252.704289900008,252.66802960001223,None,251.6893626000092,None,251.6893626000092,None,251.6893626000092,None,253.45458525000723,None,253.45458525000723,None,253.45458525000723,None,,,,,,,,,,,208,23,Male,2022-05-04_15h15.39.326,Main,2022.1.1,60.010033677185234,
positive,positive,2,l,j,,,,,,,,,3,5,59,11,,,,,,,,,,,,,,,,,,,,,,,,main,2,2,2,positive,positive,l,l,1,0.8218136999930721,253.47477050000452,254.4929797000077,254.45400280000467,None,253.47477050000452,None,253.47477050000452,None,253.47477050000452,None,255.27892685001135,None,255.27892685001135,None,255.27892685001135,None,,,,,,,,,,,208,23,Male,2022-05-04_15h15.39.326,Main,2022.1.1,60.010033677185234,
positive,negative,1,l,j,,,,,,,,,3,6,60,5,,,,,,,,,,,,,,,,,,,,,,,,main,2,2,1,negative,positive,l,l,1,0.7181176000012783,255.30043190000288,256.32010840000294,256.2822326000023,None,255.30043190000288,None,255.30043190000288,None,255.30043190000288,None,256.9993772500078,None,256.9993772500078,None,256.9993772500078,None,,,,,,,,,,,208,23,Male,2022-05-04_15h15.39.326,Main,2022.1.1,60.010033677185234,
neutral,negative,2,k,k,,,,,,,,,3,7,61,16,,,,,,,,,,,,,,,,,,,,,,,,main,2,2,2,negative,neutral,k,k,1,0.6873072000016691,257.0233443000034,258.0417607000127,258.00266110000666,None,257.0233443000034,None,257.0233443000034,None,257.0233443000034,None,258.69270955000536,None,258.69270955000536,None,258.69270955000536,None,,,,,,,,,,,208,23,Male,2022-05-04_15h15.39.326,Main,2022.1.1,60.010033677185234,
neutral,positive,2,k,k,,,,,,,,,3,8,62,13,,,,,,,,,,,,,,,,,,,,,,,,main,2,2,2,positive,neutral,k,k,1,0.7177503999992041,258.71358140000666,259.7237293000071,259.70373290000134,None,258.71358140000666,None,258.71358140000666,None,258.71358140000666,None,260.41251345001217,None,260.41251345001217,None,260.41251345001217,None,,,,,,,,,,,208,23,Male,2022-05-04_15h15.39.326,Main,2022.1.1,60.010033677185234,
positive,neutral,2,l,j,,,,,,,,,3,9,63,17,,,,,,,,,,,,,,,,,,,,,,,,main,2,2,2,neutral,positive,l,l,1,0.7315468000015244,260.43356340000173,261.43739500000083,261.4184099000122,None,260.43356340000173,None,260.43356340000173,None,260.43356340000173,None,262.14681305000556,None,262.14681305000556,None,262.14681305000556,None,,,,,,,,,,,208,23,Male,2022-05-04_15h15.39.326,Main,2022.1.1,60.010033677185234,
negative,positive,2,j,l,,,,,,,,,3,10,64,15,,,,,,,,,,,,,,,,,,,,,,,,main,2,2,2,positive,negative,j,j,1,0.7284954000060679,262.16769130001194,263.18731259999913,263.14914380000846,None,262.16769130001194,None,262.16769130001194,None,262.16769130001194,None,263.8788347499998,None,263.8788347499998,None,263.8788347499998,None,,,,,,,,,,,208,23,Male,2022-05-04_15h15.39.326,Main,2022.1.1,60.010033677185234,
positive,negative,2,l,j,,,,,,,,,3,11,65,14,,,,,,,,,,,,,,,,,,,,,,,,main,2,2,2,negative,positive,l,l,1,0.8036626999964938,263.898743800004,264.9179132999998,264.8789776000049,None,263.898743800004,None,263.898743800004,None,263.898743800004,None,265.68708585001,None,265.68708585001,None,265.68708585001,None,,,,,,,,,,,208,23,Male,2022-05-04_15h15.39.326,Main,2022.1.1,60.010033677185234,
neutral,positive,1,k,k,,,,,,,,,3,12,66,4,,,,,,,,,,,,,,,,,,,,,,,,main,1,1,1,positive,neutral,k,k,1,0.6891957999905571,265.70652840001276,266.7219346000056,266.68377930000133,None,265.70652840001276,None,265.70652840001276,None,265.70652840001276,None,267.377918250006,None,267.377918250006,None,267.377918250006,None,,,,,,,,,,,208,23,Male,2022-05-04_15h15.39.326,Main,2022.1.1,60.010033677185234,
neutral,neutral,1,k,k,,,,,,,,,3,13,67,1,,,,,,,,,,,,,,,,,,,,,,,,main,1,1,1,neutral,neutral,k,k,1,0.6412958000000799,267.39955700001155,268.4089396000054,268.3691073000082,None,267.39955700001155,None,267.39955700001155,None,267.39955700001155,None,269.0236340500036,None,269.0236340500036,None,269.0236340500036,None,,,,,,,,,,,208,23,Male,2022-05-04_15h15.39.326,Main,2022.1.1,60.010033677185234,
positive,neutral,1,l,j,,,,,,,,,3,14,68,8,,,,,,,,,,,,,,,,,,,,,,,,main,2,2,1,neutral,positive,l,l,1,0.7279744000115898,269.0436929999996,270.0555730000051,270.0171667000104,None,269.0436929999996,None,269.0436929999996,None,269.0436929999996,None,270.75462155001003,None,270.75462155001003,None,270.75462155001003,None,,,,,,,,,,,208,23,Male,2022-05-04_15h15.39.326,Main,2022.1.1,60.010033677185234,
neutral,neutral,2,k,k,,,,,,,,,3,15,69,10,,,,,,,,,,,,,,,,,,,,,,,,main,2,2,2,neutral,neutral,k,k,1,0.6987205000041286,270.77603390000877,271.77801880000334,271.75941080000484,None,270.77603390000877,None,270.77603390000877,None,270.77603390000877,None,272.45572375000336,None,272.45572375000336,None,272.45572375000336,None,,,,,,,,,,,208,23,Male,2022-05-04_15h15.39.326,Main,2022.1.1,60.010033677185234,
negative,neutral,2,j,l,,,,,,,,,3,16,70,12,,,,,,,,,,,,,,,,,,,,,,,,main,2,2,2,neutral,negative,j,j,1,0.7438177000003634,272.4772696,273.48146230001294,273.4626167000097,None,272.4772696,None,272.4772696,None,272.4772696,None,274.20320335000577,None,274.20320335000577,None,274.20320335000577,None,,,,,,,,,,,208,23,Male,2022-05-04_15h15.39.326,Main,2022.1.1,60.010033677185234,
neutral,negative,1,k,k,,,,,,,,,3,17,71,7,,,,,,,,,,,,,,,,,,,,,,,,main,1,1,1,negative,neutral,k,k,1,0.6825798000063514,274.2227730000013,275.23473840000224,275.19700340001145,None,274.2227730000013,None,274.2227730000013,None,274.2227730000013,None,275.88859025001,None,275.88859025001,None,275.88859025001,None,,,,,,,,,,,208,23,Male,2022-05-04_15h15.39.326,Main,2022.1.1,60.010033677185234,
neutral,negative,1,k,k,,,,,,,,,4,0,72,7,,,,,,,,,,,,,,,,,,,,,,,,main,1,1,1,negative,neutral,k,k,1,0.6226527999970131,275.9080881000118,276.9174633000075,276.8809539000067,None,275.9080881000118,None,275.9080881000118,None,275.9080881000118,None,277.51163845000553,None,277.51163845000553,None,277.51163845000553,None,,,,,,,,,,,208,23,Male,2022-05-04_15h15.39.326,Main,2022.1.1,60.010033677185234,
positive,positive,2,l,j,,,,,,,,,4,1,73,11,,,,,,,,,,,,,,,,,,,,,,,,main,2,2,2,positive,positive,l,l,1,0.6653188000054797,277.53394240001217,278.5458929000015,278.507354100002,None,277.53394240001217,None,277.53394240001217,None,277.53394240001217,None,279.1795101500087,None,279.1795101500087,None,279.1795101500087,None,,,,,,,,,,,208,23,Male,2022-05-04_15h15.39.326,Main,2022.1.1,60.010033677185234,
negative,positive,2,j,l,,,,,,,,,4,2,74,15,,,,,,,,,,,,,,,,,,,,,,,,main,1,1,2,positive,negative,j,j,1,0.7411812999926042,279.2027225000056,280.20894430000044,280.18999970000004,None,279.2027225000056,None,279.2027225000056,None,279.2027225000056,None,280.9253966500022,None,280.9253966500022,None,280.9253966500022,None,,,,,,,,,,,208,23,Male,2022-05-04_15h15.39.326,Main,2022.1.1,60.010033677185234,
neutral,neutral,1,k,k,,,,,,,,,4,3,75,1,,,,,,,,,,,,,,,,,,,,,,,,main,2,2,1,neutral,neutral,k,k,1,0.6817375999962678,280.946869300009,281.95642919999955,281.91785920000984,None,280.946869300009,None,280.946869300009,None,280.946869300009,None,282.6101728500129,None,282.6101728500129,None,282.6101728500129,None,,,,,,,,,,,208,23,Male,2022-05-04_15h15.39.326,Main,2022.1.1,60.010033677185234,
negative,negative,1,j,l,,,,,,,,,4,4,76,0,,,,,,,,,,,,,,,,,,,,,,,,main,2,2,1,negative,negative,j,j,1,0.7339377000025706,282.62969950000115,283.6465675000072,283.6087489000056,None,282.62969950000115,None,282.62969950000115,None,282.62969950000115,None,284.3464914500131,None,284.3464914500131,None,284.3464914500131,None,,,,,,,,,,,208,23,Male,2022-05-04_15h15.39.326,Main,2022.1.1,60.010033677185234,
neutral,negative,2,k,k,,,,,,,,,4,5,77,16,,,,,,,,,,,,,,,,,,,,,,,,main,1,1,2,negative,neutral,k,k,1,0.7384683999989647,284.3657317000034,285.3801506000018,285.34151140000904,None,284.3657317000034,None,284.3657317000034,None,284.3657317000034,None,286.0888635500072,None,286.0888635500072,None,286.0888635500072,None,,,,,,,,,,,208,23,Male,2022-05-04_15h15.39.326,Main,2022.1.1,60.010033677185234,
positive,neutral,2,l,j,,,,,,,,,4,6,78,17,,,,,,,,,,,,,,,,,,,,,,,,main,1,1,2,neutral,positive,l,l,1,0.6999097999942023,286.1085782000009,287.1238652000029,287.0833200000052,None,286.1085782000009,None,286.1085782000009,None,286.1085782000009,None,287.7912126500072,None,287.7912126500072,None,287.7912126500072,None,,,,,,,,,,,208,23,Male,2022-05-04_15h15.39.326,Main,2022.1.1,60.010033677185234,
negative,neutral,2,j,l,,,,,,,,,4,7,79,12,,,,,,,,,,,,,,,,,,,,,,,,main,2,2,2,neutral,negative,j,j,1,0.8228068000025814,287.81174240000837,288.828425700005,288.78943970000546,None,287.81174240000837,None,287.81174240000837,None,287.81174240000837,None,289.6177230500092,None,289.6177230500092,None,289.6177230500092,None,,,,,,,,,,,208,23,Male,2022-05-04_15h15.39.326,Main,2022.1.1,60.010033677185234,
neutral,positive,2,k,k,,,,,,,,,4,8,80,13,,,,,,,,,,,,,,,,,,,,,,,,main,1,1,2,positive,neutral,k,k,1,0.6626570000080392,289.6390520000132,290.64326500000607,290.6245865000092,None,289.6390520000132,None,289.6390520000132,None,289.6390520000132,None,291.28224195000655,None,291.28224195000655,None,291.28224195000655,None,,,,,,,,,,,208,23,Male,2022-05-04_15h15.39.326,Main,2022.1.1,60.010033677185234,
neutral,positive,1,k,k,,,,,,,,,4,9,81,4,,,,,,,,,,,,,,,,,,,,,,,,main,2,2,1,positive,neutral,k,k,1,0.6761918999982299,291.30353760000435,292.3228181000013,292.28436480001255,None,291.30353760000435,None,291.30353760000435,None,291.30353760000435,None,292.96051885000486,None,292.96051885000486,None,292.96051885000486,None,,,,,,,,,,,208,23,Male,2022-05-04_15h15.39.326,Main,2022.1.1,60.010033677185234,
neutral,neutral,2,k,k,,,,,,,,,4,10,82,10,,,,,,,,,,,,,,,,,,,,,,,,main,2,2,2,neutral,neutral,k,k,1,0.6582133000047179,292.9824465000129,294.00309290000587,293.95852220000234,None,292.9824465000129,None,292.9824465000129,None,292.9824465000129,None,294.6227219500055,None,294.6227219500055,None,294.6227219500055,None,,,,,,,,,,,208,23,Male,2022-05-04_15h15.39.326,Main,2022.1.1,60.010033677185234,
negative,positive,1,j,l,,,,,,,,,4,11,83,6,,,,,,,,,,,,,,,,,,,,,,,,main,1,1,1,positive,negative,j,j,1,0.7616202000062913,294.6432787000085,295.6605933000101,295.6232563000085,None,294.6432787000085,None,294.6432787000085,None,294.6432787000085,None,296.3879192500084,None,296.3879192500084,None,296.3879192500084,None,,,,,,,,,,,208,23,Male,2022-05-04_15h15.39.326,Main,2022.1.1,60.010033677185234,
positive,neutral,1,l,j,,,,,,,,,4,12,84,8,,,,,,,,,,,,,,,,,,,,,,,,main,2,2,1,neutral,positive,l,l,1,0.7238546000007773,296.4106865000067,297.4263760000031,297.3894529000099,None,296.4106865000067,None,296.4106865000067,None,296.4106865000067,None,298.1177805500105,None,298.1177805500105,None,298.1177805500105,None,,,,,,,,,,,208,23,Male,2022-05-04_15h15.39.326,Main,2022.1.1,60.010033677185234,
positive,positive,1,l,j,,,,,,,,,4,13,85,2,,,,,,,,,,,,,,,,,,,,,,,,main,2,2,1,positive,positive,l,l,1,0.8069940999994287,298.138194500003,299.1506997000106,299.11153829999967,None,298.138194500003,None,298.138194500003,None,298.138194500003,None,299.9251213500014,None,299.9251213500014,None,299.9251213500014,None,,,,,,,,,,,208,23,Male,2022-05-04_15h15.39.326,Main,2022.1.1,60.010033677185234,
positive,negative,1,l,j,,,,,,,,,4,14,86,5,,,,,,,,,,,,,,,,,,,,,,,,main,2,2,1,negative,positive,l,l,1,0.6735950000002049,299.94613460000255,300.9658148000017,300.927108200005,None,299.94613460000255,None,299.94613460000255,None,299.94613460000255,None,301.6031868500053,None,301.6031868500053,None,301.6031868500053,None,,,,,,,,,,,208,23,Male,2022-05-04_15h15.39.326,Main,2022.1.1,60.010033677185234,
negative,negative,2,j,l,,,,,,,,,4,15,87,9,,,,,,,,,,,,,,,,,,,,,,,,main,1,1,2,negative,negative,j,j,1,0.7067720999912126,301.6224610000063,302.64259820000734,302.60419589999947,None,301.6224610000063,None,301.6224610000063,None,301.6224610000063,None,303.3106748500053,None,303.3106748500053,None,303.3106748500053,None,,,,,,,,,,,208,23,Male,2022-05-04_15h15.39.326,Main,2022.1.1,60.010033677185234,
positive,negative,2,l,j,,,,,,,,,4,16,88,14,,,,,,,,,,,,,,,,,,,,,,,,main,1,1,2,negative,positive,l,l,1,0.686101500003133,303.33091850001074,304.3467638000002,304.30953769999905,None,303.33091850001074,None,303.33091850001074,None,303.33091850001074,None,305.0012952500023,None,305.0012952500023,None,305.0012952500023,None,,,,,,,,,,,208,23,Male,2022-05-04_15h15.39.326,Main,2022.1.1,60.010033677185234,
negative,neutral,1,j,l,,,,,,,,,4,17,89,3,,,,,,,,,,,,,,,,,,,,,,,,main,1,1,1,neutral,negative,j,j,1,0.7978436999983387,305.0208524000045,306.034012300006,305.99586150000687,None,305.0208524000045,None,305.0208524000045,None,305.0208524000045,None,306.80179235000685,None,306.80179235000685,None,306.80179235000685,None,,,,,,,,,,,208,23,Male,2022-05-04_15h15.39.326,Main,2022.1.1,60.010033677185234,
negative,negative,2,j,l,,,,,,,,,5,0,90,9,,,,,,,,,,,,,,,,,,,,,,,,main,1,1,2,negative,negative,j,j,1,0.8394284000096377,306.82229950001056,307.8427143000008,307.80325340000854,None,306.82229950001056,None,306.82229950001056,None,306.82229950001056,None,308.6426322500105,None,308.6426322500105,None,308.6426322500105,None,,,,,,,,,,,208,23,Male,2022-05-04_15h15.39.326,Main,2022.1.1,60.010033677185234,
negative,neutral,2,j,l,,,,,,,,,5,1,91,12,,,,,,,,,,,,,,,,,,,,,,,,main,1,1,2,neutral,negative,j,j,1,0.7326937000034377,308.66283070000645,309.6835757000081,309.6451197999995,None,308.66283070000645,None,308.66283070000645,None,308.66283070000645,None,310.3780903500068,None,310.3780903500068,None,310.3780903500068,None,,,,,,,,,,,208,23,Male,2022-05-04_15h15.39.326,Main,2022.1.1,60.010033677185234,
negative,positive,2,j,l,,,,,,,,,5,2,92,15,,,,,,,,,,,,,,,,,,,,,,,,main,1,1,2,positive,negative,j,j,1,0.6903160999936517,310.4013823000132,311.4179923000047,311.3798967000039,None,310.4013823000132,None,310.4013823000132,None,310.4013823000132,None,312.07222605001004,None,312.07222605001004,None,312.07222605001004,None,,,,,,,,,,,208,23,Male,2022-05-04_15h15.39.326,Main,2022.1.1,60.010033677185234,
positive,positive,2,l,j,,,,,,,,,5,3,93,11,,,,,,,,,,,,,,,,,,,,,,,,main,2,2,2,positive,positive,l,l,1,0.7713809999986552,312.09155610000016,313.09635340000386,313.07717850001063,None,312.09155610000016,None,312.09155610000016,None,312.09155610000016,None,313.8447224500036,None,313.8447224500036,None,313.8447224500036,None,,,,,,,,,,,208,23,Male,2022-05-04_15h15.39.326,Main,2022.1.1,60.010033677185234,
positive,neutral,1,l,j,,,,,,,,,5,4,94,8,,,,,,,,,,,,,,,,,,,,,,,,main,2,2,1,neutral,positive,l,l,1,0.699714500005939,313.8657275000005,314.87754730001325,314.8403901000129,None,313.8657275000005,None,313.8657275000005,None,313.8657275000005,None,315.5498785500007,None,315.5498785500007,None,315.5498785500007,None,,,,,,,,,,,208,23,Male,2022-05-04_15h15.39.326,Main,2022.1.1,60.010033677185234,
negative,positive,1,j,l,,,,,,,,,5,5,95,6,,,,,,,,,,,,,,,,,,,,,,,,main,2,2,1,positive,negative,j,j,1,0.8460664000012912,315.5701679000049,316.58494150001206,316.5465038000111,None,315.5701679000049,None,315.5701679000049,None,315.5701679000049,None,317.39888975000065,None,317.39888975000065,None,317.39888975000065,None,,,,,,,,,,,208,23,Male,2022-05-04_15h15.39.326,Main,2022.1.1,60.010033677185234,
positive,negative,2,l,j,,,,,,,,,5,6,96,14,,,,,,,,,,,,,,,,,,,,,,,,main,2,2,2,negative,positive,l,l,1,0.759804700006498,317.4181968000048,318.43349140000646,318.3954498000094,None,317.4181968000048,None,317.4181968000048,None,317.4181968000048,None,319.15818025000624,None,319.15818025000624,None,319.15818025000624,None,,,,,,,,,,,208,23,Male,2022-05-04_15h15.39.326,Main,2022.1.1,60.010033677185234,
positive,positive,1,l,j,,,,,,,,,5,7,97,2,,,,,,,,,,,,,,,,,,,,,,,,main,1,1,1,positive,positive,l,l,1,0.7181213000003481,319.1808769000054,320.19529650000914,320.157832900004,None,319.1808769000054,None,319.1808769000054,None,319.1808769000054,None,320.88184325000327,None,320.88184325000327,None,320.88184325000327,None,,,,,,,,,,,208,23,Male,2022-05-04_15h15.39.326,Main,2022.1.1,60.010033677185234,
positive,neutral,2,l,j,,,,,,,,,5,8,98,17,,,,,,,,,,,,,,,,,,,,,,,,main,1,1,2,neutral,positive,l,l,1,0.795865899999626,320.90151960001094,321.9075595000031,321.8893837000069,None,320.90151960001094,None,320.90151960001094,None,320.90151960001094,None,322.6783579500101,None,322.6783579500101,None,322.6783579500101,None,,,,,,,,,,,208,23,Male,2022-05-04_15h15.39.326,Main,2022.1.1,60.010033677185234,
negative,neutral,1,j,l,,,,,,,,,5,9,99,3,,,,,,,,,,,,,,,,,,,,,,,,main,2,2,1,neutral,negative,j,j,1,0.8059935000055702,322.6993875000044,323.7136562000087,323.67580219999945,None,322.6993875000044,None,322.6993875000044,None,322.6993875000044,None,324.48765665000826,None,324.48765665000826,None,324.48765665000826,None,,,,,,,,,,,208,23,Male,2022-05-04_15h15.39.326,Main,2022.1.1,60.010033677185234,
negative,negative,1,j,l,,,,,,,,,5,10,100,0,,,,,,,,,,,,,,,,,,,,,,,,main,2,2,1,negative,negative,j,j,1,0.64147740000044,324.50933420000365,325.52893670000776,325.49133840001014,None,324.50933420000365,None,324.50933420000365,None,324.50933420000365,None,326.13402695001275,None,326.13402695001275,None,326.13402695001275,None,,,,,,,,,,,208,23,Male,2022-05-04_15h15.39.326,Main,2022.1.1,60.010033677185234,
neutral,neutral,2,k,k,,,,,,,,,5,11,101,10,,,,,,,,,,,,,,,,,,,,,,,,main,2,2,2,neutral,neutral,k,k,1,0.7051488000142854,326.15392590001284,327.16013699999894,327.1398246000026,None,326.15392590001284,None,326.15392590001284,None,326.15392590001284,None,327.84079545000566,None,327.84079545000566,None,327.84079545000566,None,,,,,,,,,,,208,23,Male,2022-05-04_15h15.39.326,Main,2022.1.1,60.010033677185234,
positive,negative,1,l,j,,,,,,,,,5,12,102,5,,,,,,,,,,,,,,,,,,,,,,,,main,2,2,1,negative,positive,l,l,1,0.7852638000040315,327.861241000006,328.8774951000087,328.83951030000753,None,327.861241000006,None,327.861241000006,None,327.861241000006,None,329.6290108500019,None,329.6290108500019,None,329.6290108500019,None,,,,,,,,,,,208,23,Male,2022-05-04_15h15.39.326,Main,2022.1.1,60.010033677185234,
neutral,negative,1,k,k,,,,,,,,,5,13,103,7,,,,,,,,,,,,,,,,,,,,,,,,main,2,2,1,negative,neutral,k,k,1,0.7753579999989597,329.6541734000057,330.6550118000014,330.63702410001133,None,329.6541734000057,None,329.6541734000057,None,329.6541734000057,None,331.40683265000405,None,331.40683265000405,None,331.40683265000405,None,,,,,,,,,,,208,23,Male,2022-05-04_15h15.39.326,Main,2022.1.1,60.010033677185234,
neutral,negative,2,k,k,,,,,,,,,5,14,104,16,,,,,,,,,,,,,,,,,,,,,,,,main,2,2,2,negative,neutral,k,k,1,0.6264396000042325,331.42715370000224,332.4409930000111,332.4031099000131,None,331.42715370000224,None,331.42715370000224,None,331.42715370000224,None,333.03566165001246,None,333.03566165001246,None,333.03566165001246,None,,,,,,,,,,,208,23,Male,2022-05-04_15h15.39.326,Main,2022.1.1,60.010033677185234,
neutral,positive,2,k,k,,,,,,,,,5,15,105,13,,,,,,,,,,,,,,,,,,,,,,,,main,1,1,2,positive,neutral,k,k,1,0.7085762999922736,333.0563431000046,334.0760413000098,334.0369064000115,None,333.0563431000046,None,333.0563431000046,None,333.0563431000046,None,334.74794235001025,None,334.74794235001025,None,334.74794235001025,None,,,,,,,,,,,208,23,Male,2022-05-04_15h15.39.326,Main,2022.1.1,60.010033677185234,
neutral,positive,1,k,k,,,,,,,,,5,16,106,4,,,,,,,,,,,,,,,,,,,,,,,,main,2,2,1,positive,neutral,k,k,1,0.6260309000062989,334.76912970001285,335.7787299000047,335.7579506000038,None,334.76912970001285,None,334.76912970001285,None,334.76912970001285,None,336.3753779500024,None,336.3753779500024,None,336.3753779500024,None,,,,,,,,,,,208,23,Male,2022-05-04_15h15.39.326,Main,2022.1.1,60.010033677185234,
neutral,neutral,1,k,k,,,,,,,,,5,17,107,1,,,,,,,,,,,,,,,,,,,,,,,,main,1,1,1,neutral,neutral,k,k,1,0.7601479000004474,336.39538630000607,337.4134119000082,337.3757067000115,None,336.39538630000607,None,336.39538630000607,None,336.39538630000607,None,338.1373437500064,None,338.1373437500064,None,338.1373437500064,None,,,,,,,,,,,208,23,Male,2022-05-04_15h15.39.326,Main,2022.1.1,60.010033677185234,
neutral,neutral,2,k,k,,,,,,,,,6,0,108,10,,,,,,,,,,,,,,,,,,,,,,,,main,2,2,2,neutral,neutral,k,k,1,0.8610638000100153,338.1581542000058,339.15982559999975,339.14076300000306,None,338.1581542000058,None,338.1581542000058,None,338.1581542000058,None,340.0021540500078,None,340.0021540500078,None,340.0021540500078,None,,,,,,,,,,,208,23,Male,2022-05-04_15h15.39.326,Main,2022.1.1,60.010033677185234,
positive,negative,1,l,j,,,,,,,,,6,1,109,5,,,,,,,,,,,,,,,,,,,,,,,,main,1,1,1,negative,positive,l,l,1,0.8783717000042088,340.0229343000101,341.0401176000014,341.002398800003,None,340.0229343000101,None,340.0229343000101,None,340.0229343000101,None,341.88439355001026,None,341.88439355001026,None,341.88439355001026,None,,,,,,,,,,,208,23,Male,2022-05-04_15h15.39.326,Main,2022.1.1,60.010033677185234,
positive,positive,2,l,j,,,,,,,,,6,2,110,11,,,,,,,,,,,,,,,,,,,,,,,,main,1,1,2,positive,positive,l,l,1,0.8468896999984281,341.9045756000123,342.92207939999935,342.8823858000105,None,341.9045756000123,None,341.9045756000123,None,341.9045756000123,None,343.7346314500086,None,343.7346314500086,None,343.7346314500086,None,,,,,,,,,,,208,23,Male,2022-05-04_15h15.39.326,Main,2022.1.1,60.010033677185234,
neutral,negative,1,k,k,,,,,,,,,6,3,111,7,,,,,,,,,,,,,,,,,,,,,,,,main,2,2,1,negative,neutral,k,k,1,0.8013309000089066,343.75519100000383,344.7738907000021,344.7373854000034,None,343.75519100000383,None,343.75519100000383,None,343.75519100000383,None,345.5381608500087,None,345.5381608500087,None,345.5381608500087,None,,,,,,,,,,,208,23,Male,2022-05-04_15h15.39.326,Main,2022.1.1,60.010033677185234,
negative,positive,2,j,l,,,,,,,,,6,4,112,15,,,,,,,,,,,,,,,,,,,,,,,,main,2,2,2,positive,negative,j,j,1,0.7521705999970436,345.5590254000126,346.5787324000121,346.5396713000082,None,345.5590254000126,None,345.5590254000126,None,345.5590254000126,None,347.2951344500092,None,347.2951344500092,None,347.2951344500092,None,,,,,,,,,,,208,23,Male,2022-05-04_15h15.39.326,Main,2022.1.1,60.010033677185234,
negative,negative,2,j,l,,,,,,,,,6,5,113,9,,,,,,,,,,,,,,,,,,,,,,,,main,2,2,2,negative,negative,j,j,1,0.6586594999971567,347.31577830000606,348.32646419999946,348.28960260000895,None,347.31577830000606,None,347.31577830000606,None,347.31577830000606,None,348.95444995001014,None,348.95444995001014,None,348.95444995001014,None,,,,,,,,,,,208,23,Male,2022-05-04_15h15.39.326,Main,2022.1.1,60.010033677185234,
neutral,positive,1,k,k,,,,,,,,,6,6,114,4,,,,,,,,,,,,,,,,,,,,,,,,main,1,1,1,positive,neutral,k,k,1,0.6838835999951698,348.97500040000887,349.9910025999998,349.95372280001175,None,348.97500040000887,None,348.97500040000887,None,348.97500040000887,None,350.64139965001084,None,350.64139965001084,None,350.64139965001084,None,,,,,,,,,,,208,23,Male,2022-05-04_15h15.39.326,Main,2022.1.1,60.010033677185234,
neutral,neutral,1,k,k,,,,,,,,,6,7,115,1,,,,,,,,,,,,,,,,,,,,,,,,main,1,1,1,neutral,neutral,k,k,1,0.6714906999986852,350.6612565000105,351.66834790000576,351.64913109999907,None,350.6612565000105,None,350.6612565000105,None,350.6612565000105,None,352.3163932500087,None,352.3163932500087,None,352.3163932500087,None,,,,,,,,,,,208,23,Male,2022-05-04_15h15.39.326,Main,2022.1.1,60.010033677185234,
positive,negative,2,l,j,,,,,,,,,6,8,116,14,,,,,,,,,,,,,,,,,,,,,,,,main,2,2,2,negative,positive,l,l,1,0.7092012000066461,352.33824530000857,353.34178950000205,353.3231969000044,None,352.33824530000857,None,352.33824530000857,None,352.33824530000857,None,354.0291391500126,None,354.0291391500126,None,354.0291391500126,None,,,,,,,,,,,208,23,Male,2022-05-04_15h15.39.326,Main,2022.1.1,60.010033677185234,
negative,neutral,2,j,l,,,,,,,,,6,9,117,12,,,,,,,,,,,,,,,,,,,,,,,,main,2,2,2,neutral,negative,j,j,1,0.7663689000037266,354.0496063000028,355.06960270000855,355.03030880000733,None,354.0496063000028,None,354.0496063000028,None,354.0496063000028,None,355.7991336500039,None,355.7991336500039,None,355.7991336500039,None,,,,,,,,,,,208,23,Male,2022-05-04_15h15.39.326,Main,2022.1.1,60.010033677185234,
neutral,positive,2,k,k,,,,,,,,,6,10,118,13,,,,,,,,,,,,,,,,,,,,,,,,main,2,2,2,positive,neutral,k,k,1,0.6995860999886645,355.8205205000122,356.84060290000343,356.8001445000118,None,355.8205205000122,None,355.8205205000122,None,355.8205205000122,None,357.50103525000156,None,357.50103525000156,None,357.50103525000156,None,,,,,,,,,,,208,23,Male,2022-05-04_15h15.39.326,Main,2022.1.1,60.010033677185234,
negative,negative,1,j,l,,,,,,,,,6,11,119,0,,,,,,,,,,,,,,,,,,,,,,,,main,1,1,1,negative,negative,j,j,1,0.7993720000085887,357.52200900000753,358.52344780000567,358.50486380000075,None,357.52200900000753,None,357.52200900000753,None,357.52200900000753,None,359.30409095000357,None,359.30409095000357,None,359.30409095000357,None,,,,,,,,,,,208,23,Male,2022-05-04_15h15.39.326,Main,2022.1.1,60.010033677185234,
positive,neutral,1,l,j,,,,,,,,,6,12,120,8,,,,,,,,,,,,,,,,,,,,,,,,main,2,2,1,neutral,positive,l,l,1,0.7728696999984095,359.32265890001145,360.3268115000101,360.30752310001117,None,359.32265890001145,None,359.32265890001145,None,359.32265890001145,None,361.0808026500075,None,361.0808026500075,None,361.0808026500075,None,,,,,,,,,,,208,23,Male,2022-05-04_15h15.39.326,Main,2022.1.1,60.010033677185234,
negative,neutral,1,j,l,,,,,,,,,6,13,121,3,,,,,,,,,,,,,,,,,,,,,,,,main,2,2,1,neutral,negative,j,j,1,0.8617547000030754,361.101115100013,362.1036391000089,362.08587350000744,None,361.101115100013,None,361.101115100013,None,361.101115100013,None,362.9473094500048,None,362.9473094500048,None,362.9473094500048,None,,,,,,,,,,,208,23,Male,2022-05-04_15h15.39.326,Main,2022.1.1,60.010033677185234,
positive,positive,1,l,j,,,,,,,,,6,14,122,2,,,,,,,,,,,,,,,,,,,,,,,,main,1,1,1,positive,positive,l,l,1,0.7961907999997493,362.96739499999967,363.97743140000966,363.95816750000813,None,362.96739499999967,None,362.96739499999967,None,362.96739499999967,None,364.7480069500074,None,364.7480069500074,None,364.7480069500074,None,,,,,,,,,,,208,23,Male,2022-05-04_15h15.39.326,Main,2022.1.1,60.010033677185234,
neutral,negative,2,k,k,,,,,,,,,6,15,123,16,,,,,,,,,,,,,,,,,,,,,,,,main,2,2,2,negative,neutral,k,k,1,0.7190386000002036,364.76767090000794,365.7693858999992,365.75081630000204,None,364.76767090000794,None,364.76767090000794,None,364.76767090000794,None,366.4691384500096,None,366.4691384500096,None,366.4691384500096,None,,,,,,,,,,,208,23,Male,2022-05-04_15h15.39.326,Main,2022.1.1,60.010033677185234,
negative,positive,1,j,l,,,,,,,,,6,16,124,6,,,,,,,,,,,,,,,,,,,,,,,,main,2,2,1,positive,negative,j,j,1,0.8625408000079915,366.48902830001316,367.50691850000294,367.46841310001037,None,366.48902830001316,None,366.48902830001316,None,366.48902830001316,None,368.3345749500062,None,368.3345749500062,None,368.3345749500062,None,,,,,,,,,,,208,23,Male,2022-05-04_15h15.39.326,Main,2022.1.1,60.010033677185234,
positive,neutral,2,l,j,,,,,,,,,6,17,125,17,,,,,,,,,,,,,,,,,,,,,,,,main,1,1,2,neutral,positive,l,l,1,0.6986311000073329,368.3539652000036,369.36918150000565,369.33140690000437,None,368.3539652000036,None,368.3539652000036,None,368.3539652000036,None,370.0356472500047,None,370.0356472500047,None,370.0356472500047,None,,,,,,,,,,,208,23,Male,2022-05-04_15h15.39.326,Main,2022.1.1,60.010033677185234,
positive,negative,1,l,j,,,,,,,,,7,0,126,5,,,,,,,,,,,,,,,,,,,,,,,,main,2,2,1,negative,positive,l,l,1,0.7712544000096386,370.056848200009,371.0617781000037,371.04255790000025,None,370.056848200009,None,370.056848200009,None,370.056848200009,None,371.8107121500128,None,371.8107121500128,None,371.8107121500128,None,,,,,,,,,,,208,23,Male,2022-05-04_15h15.39.326,Main,2022.1.1,60.010033677185234,
neutral,neutral,1,k,k,,,,,,,,,7,1,127,1,,,,,,,,,,,,,,,,,,,,,,,,main,1,1,1,neutral,neutral,k,k,1,0.7421149000001606,371.8303913999989,372.8479764000076,372.8096813000011,None,371.8303913999989,None,371.8303913999989,None,371.8303913999989,None,373.55574164999996,None,373.55574164999996,None,373.55574164999996,None,,,,,,,,,,,208,23,Male,2022-05-04_15h15.39.326,Main,2022.1.1,60.010033677185234,
neutral,negative,1,k,k,,,,,,,,,7,2,128,7,,,,,,,,,,,,,,,,,,,,,,,,main,2,2,1,negative,neutral,k,k,1,0.6486979000037536,373.57536240000627,374.58690170000773,374.54786820001027,None,373.57536240000627,None,373.57536240000627,None,373.57536240000627,None,375.2052962500078,None,375.2052962500078,None,375.2052962500078,None,,,,,,,,,,,208,23,Male,2022-05-04_15h15.39.326,Main,2022.1.1,60.010033677185234,
positive,positive,1,l,j,,,,,,,,,7,3,129,2,,,,,,,,,,,,,,,,,,,,,,,,main,2,2,1,positive,positive,l,l,1,1.1497267999948235,375.2263862000109,376.23349750001216,376.2150402000116,None,375.2263862000109,None,375.2263862000109,None,375.2263862000109,None,377.35885285000256,None,377.35885285000256,None,377.35885285000256,None,,,,,,,,,,,208,23,Male,2022-05-04_15h15.39.326,Main,2022.1.1,60.010033677185234,
positive,negative,2,l,j,,,,,,,,,7,4,130,14,,,,,,,,,,,,,,,,,,,,,,,,main,1,1,2,negative,positive,l,l,1,0.9414021999982651,377.37829469999997,378.3991682000051,378.3605100999994,None,377.37829469999997,None,377.37829469999997,None,377.37829469999997,None,379.3006155500101,None,379.3006155500101,None,379.3006155500101,None,,,,,,,,,,,208,23,Male,2022-05-04_15h15.39.326,Main,2022.1.1,60.010033677185234,
negative,neutral,1,j,l,,,,,,,,,7,5,131,3,,,,,,,,,,,,,,,,,,,,,,,,main,1,1,1,neutral,negative,j,j,1,0.7520533000060823,379.3212959000084,380.3342618000024,380.2963897000009,None,379.3212959000084,None,379.3212959000084,None,379.3212959000084,None,381.05800665000277,None,381.05800665000277,None,381.05800665000277,None,,,,,,,,,,,208,23,Male,2022-05-04_15h15.39.326,Main,2022.1.1,60.010033677185234,
negative,negative,2,j,l,,,,,,,,,7,6,132,9,,,,,,,,,,,,,,,,,,,,,,,,main,1,1,2,negative,negative,j,j,1,0.7089551999961259,381.07840820000274,382.08163670000795,382.0620662000001,None,381.07840820000274,None,381.07840820000274,None,381.07840820000274,None,382.76638284999933,None,382.76638284999933,None,382.76638284999933,None,,,,,,,,,,,208,23,Male,2022-05-04_15h15.39.326,Main,2022.1.1,60.010033677185234,
neutral,positive,2,k,k,,,,,,,,,7,7,133,13,,,,,,,,,,,,,,,,,,,,,,,,main,2,2,2,positive,neutral,k,k,1,0.7113768000126584,382.78802380000707,383.80366680001316,383.7688339000015,None,382.78802380000707,None,382.78802380000707,None,382.78802380000707,None,384.4818187500117,None,384.4818187500117,None,384.4818187500117,None,,,,,,,,,,,208,23,Male,2022-05-04_15h15.39.326,Main,2022.1.1,60.010033677185234,
positive,neutral,2,l,j,,,,,,,,,7,8,134,17,,,,,,,,,,,,,,,,,,,,,,,,main,1,1,2,neutral,positive,l,l,1,0.7355939999979455,384.5020477000071,385.5144464000041,385.47756910001044,None,384.5020477000071,None,384.5020477000071,None,384.5020477000071,None,386.2199972500006,None,386.2199972500006,None,386.2199972500006,None,,,,,,,,,,,208,23,Male,2022-05-04_15h15.39.326,Main,2022.1.1,60.010033677185234,
positive,positive,2,l,j,,,,,,,,,7,9,135,11,,,,,,,,,,,,,,,,,,,,,,,,main,2,2,2,positive,positive,l,l,1,0.677218199998606,386.2438584000047,387.25737650001247,387.2181893000088,None,386.2438584000047,None,386.2438584000047,None,386.2438584000047,None,387.8991729500034,None,387.8991729500034,None,387.8991729500034,None,,,,,,,,,,,208,23,Male,2022-05-04_15h15.39.326,Main,2022.1.1,60.010033677185234,
negative,neutral,2,j,l,,,,,,,,,7,10,136,12,,,,,,,,,,,,,,,,,,,,,,,,main,1,1,2,neutral,negative,j,j,1,0.780903799997759,387.9192994000041,388.93477550000534,388.89773470000364,None,387.9192994000041,None,387.9192994000041,None,387.9192994000041,None,389.68316875000016,None,389.68316875000016,None,389.68316875000016,None,,,,,,,,,,,208,23,Male,2022-05-04_15h15.39.326,Main,2022.1.1,60.010033677185234,
positive,neutral,1,l,j,,,,,,,,,7,11,137,8,,,,,,,,,,,,,,,,,,,,,,,,main,2,2,1,neutral,positive,l,l,1,0.7847502999939024,389.7035586999991,390.7153689000115,390.676386200008,None,389.7035586999991,None,389.7035586999991,None,389.7035586999991,None,391.47054285000775,None,391.47054285000775,None,391.47054285000775,None,,,,,,,,,,,208,23,Male,2022-05-04_15h15.39.326,Main,2022.1.1,60.010033677185234,
negative,positive,1,j,l,,,,,,,,,7,12,138,6,,,,,,,,,,,,,,,,,,,,,,,,main,2,2,1,positive,negative,j,j,1,0.9933571000001393,391.49150410000584,392.501176100006,392.48199850000674,None,391.49150410000584,None,391.49150410000584,None,391.49150410000584,None,393.4648818500049,None,393.4648818500049,None,393.4648818500049,None,,,,,,,,,,,208,23,Male,2022-05-04_15h15.39.326,Main,2022.1.1,60.010033677185234,
negative,positive,2,j,l,,,,,,,,,7,13,139,15,,,,,,,,,,,,,,,,,,,,,,,,main,1,1,2,positive,negative,j,j,1,0.800798099997337,393.4854634000076,394.50243670000054,394.4640142999997,None,393.4854634000076,None,393.4854634000076,None,393.4854634000076,None,395.2708824500063,None,395.2708824500063,None,395.2708824500063,None,,,,,,,,,,,208,23,Male,2022-05-04_15h15.39.326,Main,2022.1.1,60.010033677185234,
neutral,negative,2,k,k,,,,,,,,,7,14,140,16,,,,,,,,,,,,,,,,,,,,,,,,main,2,2,2,negative,neutral,k,k,1,0.6798402999993414,395.29070270000375,396.3025287000055,396.26393230000394,None,395.29070270000375,None,395.29070270000375,None,395.29070270000375,None,396.9535129500058,None,396.9535129500058,None,396.9535129500058,None,,,,,,,,,,,208,23,Male,2022-05-04_15h15.39.326,Main,2022.1.1,60.010033677185234,
negative,negative,1,j,l,,,,,,,,,7,15,141,0,,,,,,,,,,,,,,,,,,,,,,,,main,2,2,1,negative,negative,j,j,1,1.0621198000008008,396.97318860000814,397.9883700000064,397.9493297000008,None,396.97318860000814,None,396.97318860000814,None,396.97318860000814,None,399.0157151500083,None,399.0157151500083,None,399.0157151500083,None,,,,,,,,,,,208,23,Male,2022-05-04_15h15.39.326,Main,2022.1.1,60.010033677185234,
neutral,positive,1,k,k,,,,,,,,,7,16,142,4,,,,,,,,,,,,,,,,,,,,,,,,main,2,2,1,positive,neutral,k,k,1,0.6980706000031205,399.0373304000095,400.04100100000505,400.02158220000274,None,399.0373304000095,None,399.0373304000095,None,399.0373304000095,None,400.71879765000483,None,400.71879765000483,None,400.71879765000483,None,,,,,,,,,,,208,23,Male,2022-05-04_15h15.39.326,Main,2022.1.1,60.010033677185234,
neutral,neutral,2,k,k,,,,,,,,,7,17,143,10,,,,,,,,,,,,,,,,,,,,,,,,main,2,2,2,neutral,neutral,k,k,1,0.6412925999902654,400.7411601000058,401.7578130000038,401.71907970000757,None,400.7411601000058,None,400.7411601000058,None,400.7411601000058,None,402.3607328500133,None,402.3607328500133,None,402.3607328500133,None,,,,,,,,,,,208,23,Male,2022-05-04_15h15.39.326,Main,2022.1.1,60.010033677185234,
neutral,positive,1,k,k,,,,,,,,,8,0,144,4,,,,,,,,,,,,,,,,,,,,,,,,main,2,2,1,positive,neutral,k,k,1,0.6869108999962918,402.3815447000088,403.3999546000123,403.35990950000996,None,402.3815447000088,None,402.3815447000088,None,402.3815447000088,None,404.0521741500037,None,404.0521741500037,None,404.0521741500037,None,,,,,,,,,,,208,23,Male,2022-05-04_15h15.39.326,Main,2022.1.1,60.010033677185234,
neutral,neutral,1,k,k,,,,,,,,,8,1,145,1,,,,,,,,,,,,,,,,,,,,,,,,main,2,2,1,neutral,neutral,k,k,1,0.7206402999872807,404.0718593000056,405.08867550001014,405.0494015000004,None,404.0718593000056,None,404.0718593000056,None,404.0718593000056,None,405.7751746500056,None,405.7751746500056,None,405.7751746500056,None,,,,,,,,,,,208,23,Male,2022-05-04_15h15.39.326,Main,2022.1.1,60.010033677185234,
positive,positive,2,l,j,,,,,,,,,8,2,146,11,,,,,,,,,,,,,,,,,,,,,,,,main,2,2,2,positive,positive,l,l,1,0.7831671000021743,405.7962038000114,406.8102824000089,406.7723243000073,None,405.7962038000114,None,405.7962038000114,None,405.7962038000114,None,407.56125165000265,None,407.56125165000265,None,407.56125165000265,None,,,,,,,,,,,208,23,Male,2022-05-04_15h15.39.326,Main,2022.1.1,60.010033677185234,
negative,neutral,2,j,l,,,,,,,,,8,3,147,12,,,,,,,,,,,,,,,,,,,,,,,,main,2,2,2,neutral,negative,j,j,1,0.9651341999997385,407.58122350000485,408.60093310000957,408.56281060000765,None,407.58122350000485,None,407.58122350000485,None,407.58122350000485,None,409.5278286500019,None,409.5278286500019,None,409.5278286500019,None,,,,,,,,,,,208,23,Male,2022-05-04_15h15.39.326,Main,2022.1.1,60.010033677185234,
neutral,negative,2,k,k,,,,,,,,,8,4,148,16,,,,,,,,,,,,,,,,,,,,,,,,main,1,1,2,negative,neutral,k,k,1,0.699122800011537,409.5483452000044,410.5623531000019,410.52505080000265,None,409.5483452000044,None,409.5483452000044,None,409.5483452000044,None,411.23036875000105,None,411.23036875000105,None,411.23036875000105,None,,,,,,,,,,,208,23,Male,2022-05-04_15h15.39.326,Main,2022.1.1,60.010033677185234,
positive,negative,2,l,j,,,,,,,,,8,5,149,14,,,,,,,,,,,,,,,,,,,,,,,,main,1,1,2,negative,positive,l,l,1,0.7267284999979893,411.2546380000131,412.2657433000131,412.22830260000774,None,411.2546380000131,None,411.2546380000131,None,411.2546380000131,None,412.9589109499997,None,412.9589109499997,None,412.9589109499997,None,,,,,,,,,,,208,23,Male,2022-05-04_15h15.39.326,Main,2022.1.1,60.010033677185234,
positive,positive,1,l,j,,,,,,,,,8,6,150,2,,,,,,,,,,,,,,,,,,,,,,,,main,2,2,1,positive,positive,l,l,1,0.8100224000081653,412.9798761000129,413.99397170000884,413.95628320000833,None,412.9798761000129,None,412.9798761000129,None,412.9798761000129,None,414.7737629500101,None,414.7737629500101,None,414.7737629500101,None,,,,,,,,,,,208,23,Male,2022-05-04_15h15.39.326,Main,2022.1.1,60.010033677185234,
negative,neutral,1,j,l,,,,,,,,,8,7,151,3,,,,,,,,,,,,,,,,,,,,,,,,main,1,1,1,neutral,negative,j,j,1,0.8826140000019222,414.7943018000078,415.8123884000088,415.775890600009,None,414.7943018000078,None,414.7943018000078,None,414.7943018000078,None,416.6583017500001,None,416.6583017500001,None,416.6583017500001,None,,,,,,,,,,,208,23,Male,2022-05-04_15h15.39.326,Main,2022.1.1,60.010033677185234,
neutral,neutral,2,k,k,,,,,,,,,8,8,152,10,,,,,,,,,,,,,,,,,,,,,,,,main,1,1,2,neutral,neutral,k,k,1,0.6687850000016624,416.67911000001186,417.6959682000015,417.6562006000022,None,416.67911000001186,None,416.67911000001186,None,416.67911000001186,None,418.3297199499997,None,418.3297199499997,None,418.3297199499997,None,,,,,,,,,,,208,23,Male,2022-05-04_15h15.39.326,Main,2022.1.1,60.010033677185234,
neutral,negative,1,k,k,,,,,,,,,8,9,153,7,,,,,,,,,,,,,,,,,,,,,,,,main,2,2,1,negative,neutral,k,k,1,0.6336886000062805,418.35103590000654,419.3670528000075,419.3307972000039,None,418.35103590000654,None,418.35103590000654,None,418.35103590000654,None,419.9685118500114,None,419.9685118500114,None,419.9685118500114,None,,,,,,,,,,,208,23,Male,2022-05-04_15h15.39.326,Main,2022.1.1,60.010033677185234,
negative,positive,1,j,l,,,,,,,,,8,10,154,6,,,,,,,,,,,,,,,,,,,,,,,,main,2,2,1,positive,negative,j,j,1,1.1075008000043454,419.99026500000036,420.99414270000125,420.97533150001254,None,419.99026500000036,None,419.99026500000036,None,419.99026500000036,None,422.0760722500039,None,422.0760722500039,None,422.0760722500039,None,,,,,,,,,,,208,23,Male,2022-05-04_15h15.39.326,Main,2022.1.1,60.010033677185234,
positive,neutral,1,l,j,,,,,,,,,8,11,155,8,,,,,,,,,,,,,,,,,,,,,,,,main,2,2,1,neutral,positive,l,l,1,0.8458665000071051,422.09671920000983,423.1186837999994,423.0780930000037,None,422.09671920000983,None,422.09671920000983,None,422.09671920000983,None,423.9260440500133,None,423.9260440500133,None,423.9260440500133,None,,,,,,,,,,,208,23,Male,2022-05-04_15h15.39.326,Main,2022.1.1,60.010033677185234,
neutral,positive,2,k,k,,,,,,,,,8,12,156,13,,,,,,,,,,,,,,,,,,,,,,,,main,1,1,2,positive,neutral,k,k,1,0.7030629000073532,423.94805940000515,424.9575221000123,424.915737000003,None,423.94805940000515,None,423.94805940000515,None,423.94805940000515,None,425.63272655000617,None,425.63272655000617,None,425.63272655000617,None,,,,,,,,,,,208,23,Male,2022-05-04_15h15.39.326,Main,2022.1.1,60.010033677185234,
negative,negative,1,j,l,,,,,,,,,8,13,157,0,,,,,,,,,,,,,,,,,,,,,,,,main,1,1,1,negative,negative,j,j,1,0.856048000001465,425.65379500000563,426.6603496000025,426.64180480000505,None,425.65379500000563,None,425.65379500000563,None,425.65379500000563,None,427.49058495001225,None,427.49058495001225,None,427.49058495001225,None,,,,,,,,,,,208,23,Male,2022-05-04_15h15.39.326,Main,2022.1.1,60.010033677185234,
negative,negative,2,j,l,,,,,,,,,8,14,158,9,,,,,,,,,,,,,,,,,,,,,,,,main,2,2,2,negative,negative,j,j,1,0.8389002000039909,427.51043460000074,428.523909800002,428.4854928999994,None,427.51043460000074,None,427.51043460000074,None,427.51043460000074,None,429.3324412499991,None,429.3324412499991,None,429.3324412499991,None,,,,,,,,,,,208,23,Male,2022-05-04_15h15.39.326,Main,2022.1.1,60.010033677185234,
negative,positive,2,j,l,,,,,,,,,8,15,159,15,,,,,,,,,,,,,,,,,,,,,,,,main,2,2,2,positive,negative,j,j,1,0.7425403999950504,429.35424450000573,430.3589381000056,430.33999540000514,None,429.35424450000573,None,429.35424450000573,None,429.35424450000573,None,431.07466545000204,None,431.07466545000204,None,431.07466545000204,None,,,,,,,,,,,208,23,Male,2022-05-04_15h15.39.326,Main,2022.1.1,60.010033677185234,
positive,neutral,2,l,j,,,,,,,,,8,16,160,17,,,,,,,,,,,,,,,,,,,,,,,,main,1,1,2,neutral,positive,l,l,1,0.8723668000020552,431.09735130000627,432.10801809999975,432.0889296000096,None,431.09735130000627,None,431.09735130000627,None,431.09735130000627,None,432.95241105001185,None,432.95241105001185,None,432.95241105001185,None,,,,,,,,,,,208,23,Male,2022-05-04_15h15.39.326,Main,2022.1.1,60.010033677185234,
positive,negative,1,l,j,,,,,,,,,8,17,161,5,,,,,,,,,,,,,,,,,,,,,,,,main,1,1,1,negative,positive,l,l,1,0.9098436999920523,432.9721270000009,433.97520169999916,433.95680900001025,None,432.9721270000009,None,432.9721270000009,None,432.9721270000009,None,434.8637249500083,None,434.8637249500083,None,434.8637249500083,None,,,,,,,,,,,208,23,Male,2022-05-04_15h15.39.326,Main,2022.1.1,60.010033677185234,
neutral,neutral,1,k,k,,,,,,,,,9,0,162,1,,,,,,,,,,,,,,,,,,,,,,,,main,1,1,1,neutral,neutral,k,k,1,0.8179515000083484,434.88383970000723,435.898323100002,435.8614760000055,None,434.88383970000723,None,434.88383970000723,None,434.88383970000723,None,436.6858226500102,None,436.6858226500102,None,436.6858226500102,None,,,,,,,,,,,208,23,Male,2022-05-04_15h15.39.326,Main,2022.1.1,60.010033677185234,
positive,negative,1,l,j,,,,,,,,,9,1,163,5,,,,,,,,,,,,,,,,,,,,,,,,main,2,2,1,negative,positive,l,l,1,0.7401743000082206,436.7076071000047,437.709397300001,437.6902351000026,None,436.7076071000047,None,436.7076071000047,None,436.7076071000047,None,438.4243193500064,None,438.4243193500064,None,438.4243193500064,None,,,,,,,,,,,208,23,Male,2022-05-04_15h15.39.326,Main,2022.1.1,60.010033677185234,
negative,neutral,1,j,l,,,,,,,,,9,2,164,3,,,,,,,,,,,,,,,,,,,,,,,,main,2,2,1,neutral,negative,j,j,1,0.9000840999942739,438.4460773000028,439.4531508000073,439.43407840000873,None,438.4460773000028,None,438.4460773000028,None,438.4460773000028,None,440.33084335001183,None,440.33084335001183,None,440.33084335001183,None,,,,,,,,,,,208,23,Male,2022-05-04_15h15.39.326,Main,2022.1.1,60.010033677185234,
negative,negative,2,j,l,,,,,,,,,9,3,165,9,,,,,,,,,,,,,,,,,,,,,,,,main,2,2,2,negative,negative,j,j,1,0.8782228000054602,440.3501713000005,441.3613078000053,441.3415224000055,None,440.3501713000005,None,440.3501713000005,None,440.3501713000005,None,442.20879525000635,None,442.20879525000635,None,442.20879525000635,None,,,,,,,,,,,208,23,Male,2022-05-04_15h15.39.326,Main,2022.1.1,60.010033677185234,
neutral,negative,1,k,k,,,,,,,,,9,4,166,7,,,,,,,,,,,,,,,,,,,,,,,,main,2,2,1,negative,neutral,k,k,1,0.7927577999944333,442.2296761000034,443.2307327000017,443.21205020000343,None,442.2296761000034,None,442.2296761000034,None,442.2296761000034,None,444.00475225000116,None,444.00475225000116,None,444.00475225000116,None,,,,,,,,,,,208,23,Male,2022-05-04_15h15.39.326,Main,2022.1.1,60.010033677185234,
positive,positive,2,l,j,,,,,,,,,9,5,167,11,,,,,,,,,,,,,,,,,,,,,,,,main,1,1,2,positive,positive,l,l,1,0.7434141000121599,444.02520810000715,445.04024980000395,445.0001302000019,None,444.02520810000715,None,444.02520810000715,None,444.02520810000715,None,445.753376250001,None,445.753376250001,None,445.753376250001,None,,,,,,,,,,,208,23,Male,2022-05-04_15h15.39.326,Main,2022.1.1,60.010033677185234,
positive,neutral,2,l,j,,,,,,,,,9,6,168,17,,,,,,,,,,,,,,,,,,,,,,,,main,2,2,2,neutral,positive,l,l,1,0.7109525999985635,445.77665840000554,446.77864200000477,446.7592636000045,None,445.77665840000554,None,445.77665840000554,None,445.77665840000554,None,447.46821365001085,None,447.46821365001085,None,447.46821365001085,None,,,,,,,,,,,208,23,Male,2022-05-04_15h15.39.326,Main,2022.1.1,60.010033677185234,
positive,negative,2,l,j,,,,,,,,,9,7,169,14,,,,,,,,,,,,,,,,,,,,,,,,main,2,2,2,negative,positive,l,l,1,0.9393643999937922,447.4909684000013,448.4965721000044,448.47607509999943,None,447.4909684000013,None,447.4909684000013,None,447.4909684000013,None,449.41421305000256,None,449.41421305000256,None,449.41421305000256,None,,,,,,,,,,,208,23,Male,2022-05-04_15h15.39.326,Main,2022.1.1,60.010033677185234,
positive,neutral,1,l,j,,,,,,,,,9,8,170,8,,,,,,,,,,,,,,,,,,,,,,,,main,2,2,1,neutral,positive,l,l,1,0.9412321999989217,449.43463840000913,450.4493051000027,450.4304778000078,None,449.43463840000913,None,449.43463840000913,None,449.43463840000913,None,451.3561686500092,None,451.3561686500092,None,451.3561686500092,None,,,,,,,,,,,208,23,Male,2022-05-04_15h15.39.326,Main,2022.1.1,60.010033677185234,
neutral,negative,2,k,k,,,,,,,,,9,9,171,16,,,,,,,,,,,,,,,,,,,,,,,,main,1,1,2,negative,neutral,k,k,1,0.8230885999946622,451.37604360000114,452.37660920000053,452.3584741000086,None,451.37604360000114,None,451.37604360000114,None,451.37604360000114,None,453.18328925000094,None,453.18328925000094,None,453.18328925000094,None,,,,,,,,,,,208,23,Male,2022-05-04_15h15.39.326,Main,2022.1.1,60.010033677185234,
negative,negative,1,j,l,,,,,,,,,9,10,172,0,,,,,,,,,,,,,,,,,,,,,,,,main,1,1,1,negative,negative,j,j,1,0.8239432999980636,453.2035477000027,454.21520740000415,454.1767549000069,None,453.2035477000027,None,453.2035477000027,None,453.2035477000027,None,455.0075285500119,None,455.0075285500119,None,455.0075285500119,None,,,,,,,,,,,208,23,Male,2022-05-04_15h15.39.326,Main,2022.1.1,60.010033677185234,
neutral,positive,1,k,k,,,,,,,,,9,11,173,4,,,,,,,,,,,,,,,,,,,,,,,,main,2,2,1,positive,neutral,k,k,1,0.7191853999975137,455.0281376000057,456.0376372000028,456.0186479000113,None,455.0281376000057,None,455.0281376000057,None,455.0281376000057,None,456.7317016500077,None,456.7317016500077,None,456.7317016500077,None,,,,,,,,,,,208,23,Male,2022-05-04_15h15.39.326,Main,2022.1.1,60.010033677185234,
negative,neutral,2,j,l,,,,,,,,,9,12,174,12,,,,,,,,,,,,,,,,,,,,,,,,main,1,1,2,neutral,negative,j,j,1,0.8577006999985315,456.7514300000039,457.7609220000013,457.7224172000133,None,456.7514300000039,None,456.7514300000039,None,456.7514300000039,None,458.58927025000446,None,458.58927025000446,None,458.58927025000446,None,,,,,,,,,,,208,23,Male,2022-05-04_15h15.39.326,Main,2022.1.1,60.010033677185234,
negative,positive,2,j,l,,,,,,,,,9,13,175,15,,,,,,,,,,,,,,,,,,,,,,,,main,1,1,2,positive,negative,j,j,1,0.859357599998475,458.6094043000048,459.62252170000284,459.6035630000115,None,458.6094043000048,None,458.6094043000048,None,458.6094043000048,None,460.4530181500071,None,460.4530181500071,None,460.4530181500071,None,,,,,,,,,,,208,23,Male,2022-05-04_15h15.39.326,Main,2022.1.1,60.010033677185234,
neutral,neutral,2,k,k,,,,,,,,,9,14,176,10,,,,,,,,,,,,,,,,,,,,,,,,main,1,1,2,neutral,neutral,k,k,1,0.7882147000054829,460.47450710000703,461.48310019999917,461.46438090001175,None,460.47450710000703,None,460.47450710000703,None,460.47450710000703,None,462.24655785000357,None,462.24655785000357,None,462.24655785000357,None,,,,,,,,,,,208,23,Male,2022-05-04_15h15.39.326,Main,2022.1.1,60.010033677185234,
positive,positive,1,l,j,,,,,,,,,9,15,177,2,,,,,,,,,,,,,,,,,,,,,,,,main,2,2,1,positive,positive,l,l,1,0.8619034000003012,462.26588430000993,463.28138440000475,463.2423956999992,None,462.26588430000993,None,462.26588430000993,None,462.26588430000993,None,464.11109345000875,None,464.11109345000875,None,464.11109345000875,None,,,,,,,,,,,208,23,Male,2022-05-04_15h15.39.326,Main,2022.1.1,60.010033677185234,
negative,positive,1,j,l,,,,,,,,,9,16,178,6,,,,,,,,,,,,,,,,,,,,,,,,main,2,2,1,positive,negative,j,j,1,0.8669650000083493,464.1318038000027,465.14113350000116,465.12140020000516,None,464.1318038000027,None,464.1318038000027,None,464.1318038000027,None,465.98157165000737,None,465.98157165000737,None,465.98157165000737,None,,,,,,,,,,,208,23,Male,2022-05-04_15h15.39.326,Main,2022.1.1,60.010033677185234,
neutral,positive,2,k,k,,,,,,,,,9,17,179,13,,,,,,,,,,,,,,,,,,,,,,,,main,1,1,2,positive,neutral,k,k,1,0.7918463999958476,466.0025297000102,467.01743800000986,466.9766532000067,None,466.0025297000102,None,466.0025297000102,None,466.0025297000102,None,467.7738034500129,None,467.7738034500129,None,467.7738034500129,None,,,,,,,,,,,208,23,Male,2022-05-04_15h15.39.326,Main,2022.1.1,60.010033677185234,
negative,neutral,2,j,l,,,,,,,,,10,0,180,12,,,,,,,,,,,,,,,,,,,,,,,,main,2,2,2,neutral,negative,j,j,1,0.8464046000008238,467.79555410001194,468.8141850000102,468.7766838000098,None,467.79555410001194,None,467.79555410001194,None,467.79555410001194,None,469.62309374999893,None,469.62309374999893,None,469.62309374999893,None,,,,,,,,,,,208,23,Male,2022-05-04_15h15.39.326,Main,2022.1.1,60.010033677185234,
positive,neutral,1,l,j,,,,,,,,,10,1,181,8,,,,,,,,,,,,,,,,,,,,,,,,main,2,2,1,neutral,positive,l,l,1,0.9181210999959148,469.64318290000665,470.6570814000006,470.6198548000102,None,469.64318290000665,None,469.64318290000665,None,469.64318290000665,None,471.5439395500056,None,471.5439395500056,None,471.5439395500056,None,,,,,,,,,,,208,23,Male,2022-05-04_15h15.39.326,Main,2022.1.1,60.010033677185234,
neutral,positive,1,k,k,,,,,,,,,10,2,182,4,,,,,,,,,,,,,,,,,,,,,,,,main,2,2,1,positive,neutral,k,k,1,0.81070770000224,471.56589290000557,472.5855608000129,472.5473889999994,None,471.56589290000557,None,471.56589290000557,None,471.56589290000557,None,473.35621035000656,None,473.35621035000656,None,473.35621035000656,None,,,,,,,,,,,208,23,Male,2022-05-04_15h15.39.326,Main,2022.1.1,60.010033677185234,
negative,positive,1,j,l,,,,,,,,,10,3,183,6,,,,,,,,,,,,,,,,,,,,,,,,main,2,2,1,positive,negative,j,j,1,1.1114903999987291,473.37647980000474,474.38533129999996,474.36588270000357,None,473.37647980000474,None,473.37647980000474,None,473.37647980000474,None,475.4708931500121,None,475.4708931500121,None,475.4708931500121,None,,,,,,,,,,,208,23,Male,2022-05-04_15h15.39.326,Main,2022.1.1,60.010033677185234,
negative,neutral,1,j,l,,,,,,,,,10,4,184,3,,,,,,,,,,,,,,,,,,,,,,,,main,1,1,1,neutral,negative,j,j,1,0.8247824999998556,475.4922452000028,476.5054603000026,476.467948400008,None,475.4922452000028,None,475.4922452000028,None,475.4922452000028,None,477.3000249500095,None,477.3000249500095,None,477.3000249500095,None,,,,,,,,,,,208,23,Male,2022-05-04_15h15.39.326,Main,2022.1.1,60.010033677185234,
negative,negative,2,j,l,,,,,,,,,10,5,185,9,,,,,,,,,,,,,,,,,,,,,,,,main,1,1,2,negative,negative,j,j,1,0.9888883999956306,477.32061090000207,478.32877480000025,478.30973550000635,None,477.32061090000207,None,477.32061090000207,None,477.32061090000207,None,479.2939567500056,None,479.2939567500056,None,479.2939567500056,None,,,,,,,,,,,208,23,Male,2022-05-04_15h15.39.326,Main,2022.1.1,60.010033677185234,
neutral,neutral,1,k,k,,,,,,,,,10,6,186,1,,,,,,,,,,,,,,,,,,,,,,,,main,1,1,1,neutral,neutral,k,k,1,0.8463063999952283,479.3138381000026,480.3161606000067,480.2965346000128,None,479.3138381000026,None,479.3138381000026,None,479.3138381000026,None,481.14289375000806,None,481.14289375000806,None,481.14289375000806,None,,,,,,,,,,,208,23,Male,2022-05-04_15h15.39.326,Main,2022.1.1,60.010033677185234,
neutral,negative,2,k,k,,,,,,,,,10,7,187,16,,,,,,,,,,,,,,,,,,,,,,,,main,2,2,2,negative,neutral,k,k,1,0.7613770000025397,481.1639553000132,482.17374640000344,482.1551943000086,None,481.1639553000132,None,481.1639553000132,None,481.1639553000132,None,482.9059913500008,None,482.9059913500008,None,482.9059913500008,None,,,,,,,,,,,208,23,Male,2022-05-04_15h15.39.326,Main,2022.1.1,60.010033677185234,
positive,negative,1,l,j,,,,,,,,,10,8,188,5,,,,,,,,,,,,,,,,,,,,,,,,main,2,2,1,negative,positive,l,l,1,0.9586860999988858,482.9268202000094,483.93779510000604,483.90026220001164,None,482.9268202000094,None,482.9268202000094,None,482.9268202000094,None,484.86669305000976,None,484.86669305000976,None,484.86669305000976,None,,,,,,,,,,,208,23,Male,2022-05-04_15h15.39.326,Main,2022.1.1,60.010033677185234,
positive,positive,2,l,j,,,,,,,,,10,9,189,11,,,,,,,,,,,,,,,,,,,,,,,,main,1,1,2,positive,positive,l,l,1,0.7808932999905664,484.887652800011,485.89501340000425,485.87463520000165,None,484.887652800011,None,484.887652800011,None,484.887652800011,None,486.65002385000696,None,486.65002385000696,None,486.65002385000696,None,,,,,,,,,,,208,23,Male,2022-05-04_15h15.39.326,Main,2022.1.1,60.010033677185234,
neutral,positive,2,k,k,,,,,,,,,10,10,190,13,,,,,,,,,,,,,,,,,,,,,,,,main,2,2,2,positive,neutral,k,k,1,0.7920591000001878,486.6706191000121,487.6916074000037,487.65268350001134,None,486.6706191000121,None,486.6706191000121,None,486.6706191000121,None,488.4468999500008,None,488.4468999500008,None,488.4468999500008,None,,,,,,,,,,,208,23,Male,2022-05-04_15h15.39.326,Main,2022.1.1,60.010033677185234,
positive,positive,1,l,j,,,,,,,,,10,11,191,2,,,,,,,,,,,,,,,,,,,,,,,,main,2,2,1,positive,positive,l,l,1,1.0385979999991832,488.4673435000004,489.48680030000105,489.4476446000044,None,488.4673435000004,None,488.4673435000004,None,488.4673435000004,None,490.48759875000394,None,490.48759875000394,None,490.48759875000394,None,,,,,,,,,,,208,23,Male,2022-05-04_15h15.39.326,Main,2022.1.1,60.010033677185234,
neutral,negative,1,k,k,,,,,,,,,10,12,192,7,,,,,,,,,,,,,,,,,,,,,,,,main,1,1,1,negative,neutral,k,k,1,0.7441258000035305,490.50981820000743,491.52372930001,491.4862882000016,None,490.50981820000743,None,490.50981820000743,None,490.50981820000743,None,492.23428275000185,None,492.23428275000185,None,492.23428275000185,None,,,,,,,,,,,208,23,Male,2022-05-04_15h15.39.326,Main,2022.1.1,60.010033677185234,
positive,neutral,2,l,j,,,,,,,,,10,13,193,17,,,,,,,,,,,,,,,,,,,,,,,,main,2,2,2,neutral,positive,l,l,1,0.8019321000028867,492.25555230000464,493.2634950000065,493.24358810001286,None,492.25555230000464,None,492.25555230000464,None,492.25555230000464,None,494.0398265500029,None,494.0398265500029,None,494.0398265500029,None,,,,,,,,,,,208,23,Male,2022-05-04_15h15.39.326,Main,2022.1.1,60.010033677185234,
negative,positive,2,j,l,,,,,,,,,10,14,194,15,,,,,,,,,,,,,,,,,,,,,,,,main,1,1,2,positive,negative,j,j,1,0.8188458000076935,494.059374000004,495.0720643000095,495.0339249000099,None,494.059374000004,None,494.059374000004,None,494.059374000004,None,495.86226285000737,None,495.86226285000737,None,495.86226285000737,None,,,,,,,,,,,208,23,Male,2022-05-04_15h15.39.326,Main,2022.1.1,60.010033677185234,
positive,negative,2,l,j,,,,,,,,,10,15,195,14,,,,,,,,,,,,,,,,,,,,,,,,main,2,2,2,negative,positive,l,l,1,0.9043002999969758,495.88330340001266,496.9013062000013,496.86213240001234,None,495.88330340001266,None,495.88330340001266,None,495.88330340001266,None,497.76904545000286,None,497.76904545000286,None,497.76904545000286,None,,,,,,,,,,,208,23,Male,2022-05-04_15h15.39.326,Main,2022.1.1,60.010033677185234,
negative,negative,1,j,l,,,,,,,,,10,16,196,0,,,,,,,,,,,,,,,,,,,,,,,,main,2,2,1,negative,negative,j,j,1,1.0361165999929653,497.7893677000102,498.810003400009,498.7713489000016,None,497.7893677000102,None,497.7893677000102,None,497.7893677000102,None,499.81065635000994,None,499.81065635000994,None,499.81065635000994,None,,,,,,,,,,,208,23,Male,2022-05-04_15h15.39.326,Main,2022.1.1,60.010033677185234,
neutral,neutral,2,k,k,,,,,,,,,10,17,197,10,,,,,,,,,,,,,,,,,,,,,,,,main,1,1,2,neutral,neutral,k,k,1,0.792834199994104,499.83088130000397,500.8343261000118,500.81610860000364,None,499.83088130000397,None,499.83088130000397,None,499.83088130000397,None,501.6045566500019,None,501.6045566500019,None,501.6045566500019,None,,,,,,,,,,,208,23,Male,2022-05-04_15h15.39.326,Main,2022.1.1,60.010033677185234,
positive,positive,1,l,j,,,,,,,,,11,0,198,2,,,,,,,,,,,,,,,,,,,,,,,,main,1,1,1,positive,positive,l,l,1,0.9445462000003317,501.6285268000065,502.6305873000092,502.6113602000114,None,501.6285268000065,None,501.6285268000065,None,501.6285268000065,None,503.55101565000075,None,503.55101565000075,None,503.55101565000075,None,,,,,,,,,,,208,23,Male,2022-05-04_15h15.39.326,Main,2022.1.1,60.010033677185234,
neutral,neutral,1,k,k,,,,,,,,,11,1,199,1,,,,,,,,,,,,,,,,,,,,,,,,main,2,2,1,neutral,neutral,k,k,1,0.7691927000123542,503.57170939999924,504.59223660000134,504.55263840001135,None,503.57170939999924,None,503.57170939999924,None,503.57170939999924,None,505.32537135000746,None,505.32537135000746,None,505.32537135000746,None,,,,,,,,,,,208,23,Male,2022-05-04_15h15.39.326,Main,2022.1.1,60.010033677185234,
neutral,negative,1,k,k,,,,,,,,,11,2,200,7,,,,,,,,,,,,,,,,,,,,,,,,main,2,2,1,negative,neutral,k,k,1,0.7220100999984425,505.34533520000696,506.35174850000476,506.33316910000576,None,505.34533520000696,None,505.34533520000696,None,505.34533520000696,None,507.0475265500048,None,507.0475265500048,None,507.0475265500048,None,,,,,,,,,,,208,23,Male,2022-05-04_15h15.39.326,Main,2022.1.1,60.010033677185234,
negative,negative,1,j,l,,,,,,,,,11,3,201,0,,,,,,,,,,,,,,,,,,,,,,,,main,2,2,1,negative,negative,j,j,1,0.8183793999924092,507.069212900009,508.0714805000025,508.05289350000385,None,507.069212900009,None,507.069212900009,None,507.069212900009,None,508.8693434500077,None,508.8693434500077,None,508.8693434500077,None,,,,,,,,,,,208,23,Male,2022-05-04_15h15.39.326,Main,2022.1.1,60.010033677185234,
negative,neutral,2,j,l,,,,,,,,,11,4,202,12,,,,,,,,,,,,,,,,,,,,,,,,main,2,2,2,neutral,negative,j,j,1,0.865725100011332,508.89094530000875,509.9121872000105,509.8726018000016,None,508.89094530000875,None,508.89094530000875,None,508.89094530000875,None,510.74018365001245,None,510.74018365001245,None,510.74018365001245,None,,,,,,,,,,,208,23,Male,2022-05-04_15h15.39.326,Main,2022.1.1,60.010033677185234,
negative,neutral,1,j,l,,,,,,,,,11,5,203,3,,,,,,,,,,,,,,,,,,,,,,,,main,2,2,1,neutral,negative,j,j,1,0.7356595000019297,510.7610832000064,511.78255329999956,511.74333260000276,None,510.7610832000064,None,510.7610832000064,None,510.7610832000064,None,512.4789878500072,None,512.4789878500072,None,512.4789878500072,None,,,,,,,,,,,208,23,Male,2022-05-04_15h15.39.326,Main,2022.1.1,60.010033677185234,
positive,negative,2,l,j,,,,,,,,,11,6,204,14,,,,,,,,,,,,,,,,,,,,,,,,main,2,2,2,negative,positive,l,l,1,0.8230823000048986,512.4985503000062,513.517683500002,513.4794342000096,None,512.4985503000062,None,512.4985503000062,None,512.4985503000062,None,514.306428650007,None,514.306428650007,None,514.306428650007,None,,,,,,,,,,,208,23,Male,2022-05-04_15h15.39.326,Main,2022.1.1,60.010033677185234,
neutral,positive,1,k,k,,,,,,,,,11,7,205,4,,,,,,,,,,,,,,,,,,,,,,,,main,2,2,1,positive,neutral,k,k,1,0.7599840000038967,514.3261315999989,515.3446241000056,515.3048833000066,None,514.3261315999989,None,514.3261315999989,None,514.3261315999989,None,516.0663252500002,None,516.0663252500002,None,516.0663252500002,None,,,,,,,,,,,208,23,Male,2022-05-04_15h15.39.326,Main,2022.1.1,60.010033677185234,
negative,positive,1,j,l,,,,,,,,,11,8,206,6,,,,,,,,,,,,,,,,,,,,,,,,main,2,2,1,positive,negative,j,j,1,0.9412051999970572,516.0871571000025,517.1081075000111,517.06858810001,None,516.0871571000025,None,516.0871571000025,None,516.0871571000025,None,518.0104722500022,None,518.0104722500022,None,518.0104722500022,None,,,,,,,,,,,208,23,Male,2022-05-04_15h15.39.326,Main,2022.1.1,60.010033677185234,
positive,neutral,2,l,j,,,,,,,,,11,9,207,17,,,,,,,,,,,,,,,,,,,,,,,,main,2,2,2,neutral,positive,l,l,1,0.7848892000038177,518.0326285000046,519.0480657000007,519.0103850000014,None,518.0326285000046,None,518.0326285000046,None,518.0326285000046,None,519.7984917500056,None,519.7984917500056,None,519.7984917500056,None,,,,,,,,,,,208,23,Male,2022-05-04_15h15.39.326,Main,2022.1.1,60.010033677185234,
neutral,positive,2,k,k,,,,,,,,,11,10,208,13,,,,,,,,,,,,,,,,,,,,,,,,main,2,2,2,positive,neutral,k,k,1,0.722624400004861,519.8253363000113,520.8306441000022,520.8116054999991,None,519.8253363000113,None,519.8253363000113,None,519.8253363000113,None,521.52685125001,None,521.52685125001,None,521.52685125001,None,,,,,,,,,,,208,23,Male,2022-05-04_15h15.39.326,Main,2022.1.1,60.010033677185234,
