target,distractor,set,ans1,ans2,rep_loop2.thisRepN,rep_loop2.thisTrialN,rep_loop2.thisN,rep_loop2.thisIndex,flanker_prac_loop.thisRepN,flanker_prac_loop.thisTrialN,flanker_prac_loop.thisN,flanker_prac_loop.thisIndex,flanker_main_loop.thisRepN,flanker_main_loop.thisTrialN,flanker_main_loop.thisN,flanker_main_loop.thisIndex,fl_inst_resp.keys,mouse.x,mouse.y,mouse.leftButton,mouse.midButton,mouse.rightButton,mouse.started,mouse.stopped,sound_1.started,sound_1.stopped,no_text.started,no_text.stopped,yes_text.started,yes_text.stopped,mouse_2.x,mouse_2.y,mouse_2.leftButton,mouse_2.midButton,mouse_2.rightButton,mouse_2.started,mouse_2.stopped,back_2.started,back_2.stopped,main_prac,fl_cold,fl_colt,fl_set,fl_dcond,fl_tcond,fl_ans,fl_res,fl_corr,fl_rt,fix_fl.started,fix_fl.stopped,targ.started,targ.stopped,j_button.started,j_button.stopped,k_button.started,k_button.stopped,l_button.started,l_button.stopped,j_button2.started,j_button2.stopped,k_button2.started,k_button2.stopped,l_button2.started,l_button2.stopped,mainback.started,mainback.stopped,key_resp.keys,mouse_6.x,mouse_6.y,mouse_6.leftButton,mouse_6.midButton,mouse_6.rightButton,mouse_6.started,mouse_6.stopped,id*,age*,gender*,date,expName,psychopyVersion,frameRate,
,,,,,0,0,0,0,,,,,,,,,None,-0.09259259,-0.38796297,0,0,0,1.0239574900024309,None,29.9674381900003,None,85.29485449999993,None,85.29485449999993,None,-0.07037037,-0.07685185,0,0,0,0.012240189999829454,None,,,,,,,,,,,,,,,,,,,,,,,,,,,,,,,,,,,,,,,209,25,Female,2022-05-04_15h24.46.611,Main,2022.1.1,60.042678335814436,
negative,positive,2,j,l,,,,,0,0,0,15,,,,,,,,,,,,,,,,,,,,,,,,,,88.85724469999968,None,prac,2,2,2,positive,negative,l,l,1,1.5160741999998208,90.91515179999988,91.9321574000005,91.89435539999977,None,90.91515179999988,None,90.91515179999988,None,90.91515179999988,None,93.41208350000034,None,93.41208350000034,None,93.41208350000034,None,,,,,,,,,,,209,25,Female,2022-05-04_15h24.46.611,Main,2022.1.1,60.042678335814436,
positive,negative,2,l,j,,,,,0,1,1,14,,,,,,,,,,,,,,,,,,,,,,,,,,,,prac,1,1,2,negative,positive,j,j,1,1.3542562000002363,94.4482994,95.45550019999973,95.43602519999968,None,94.4482994,None,94.4482994,None,94.4482994,None,96.76906488999967,None,96.76906488999967,None,96.76906488999967,None,,,,,,,,,,,209,25,Female,2022-05-04_15h24.46.611,Main,2022.1.1,60.042678335814436,
negative,positive,1,j,l,,,,,0,2,2,6,,,,,,,,,,,,,,,,,,,,,,,,,,,,prac,2,2,1,positive,negative,l,l,1,1.505943699999989,96.8080071000004,97.81724289999966,97.7981219000003,None,96.8080071000004,None,96.8080071000004,None,96.8080071000004,None,99.2870496000005,None,99.2870496000005,None,99.2870496000005,None,,,,,,,,,,,209,25,Female,2022-05-04_15h24.46.611,Main,2022.1.1,60.042678335814436,
neutral,positive,2,k,k,,,,,0,3,3,13,,,,,,,,,,,,,,,,,,,,,,,,,,,,prac,2,2,2,positive,neutral,k,k,1,0.7248473999998168,100.32002410000041,101.33746400000018,101.29751829999987,None,100.32002410000041,None,100.32002410000041,None,100.32002410000041,None,102.02022809000019,None,102.02022809000019,None,102.02022809000019,None,,,,,,,,,,,209,25,Female,2022-05-04_15h24.46.611,Main,2022.1.1,60.042678335814436,
neutral,neutral,1,k,k,,,,,0,4,4,1,,,,,,,,,,,,,,,,,,,,,,,,,,,,prac,2,2,1,neutral,neutral,k,l,0,0.920191999999588,102.0506163,103.05626440000015,103.03668879999987,None,102.0506163,None,102.0506163,None,102.0506163,None,103.95270849999997,None,103.95270849999997,None,103.95270849999997,None,,,,,,,,,,,209,25,Female,2022-05-04_15h24.46.611,Main,2022.1.1,60.042678335814436,
positive,neutral,1,l,j,,,,,0,5,5,8,,,,,,,,,,,,,,,,,,,,,,,,,,,,prac,2,2,1,neutral,positive,j,j,1,1.440196599999581,104.98947469999985,105.99456439999994,105.97625040000003,None,104.98947469999985,None,104.98947469999985,None,104.98947469999985,None,107.39851489000003,None,107.39851489000003,None,107.39851489000003,None,,,,,,,,,,,209,25,Female,2022-05-04_15h24.46.611,Main,2022.1.1,60.042678335814436,
positive,neutral,2,l,j,,,,,0,6,6,17,,,,,,,,,,,,,,,,,,,,,,,,,,,,prac,2,2,2,neutral,positive,j,j,1,0.8146980999999869,107.42829319999964,108.44601340000008,108.42686659999981,None,107.42829319999964,None,107.42829319999964,None,107.42829319999964,None,109.22020149000028,None,109.22020149000028,None,109.22020149000028,None,,,,,,,,,,,209,25,Female,2022-05-04_15h24.46.611,Main,2022.1.1,60.042678335814436,
negative,neutral,1,j,l,,,,,0,7,7,3,,,,,,,,,,,,,,,,,,,,,,,,,,,,prac,1,1,1,neutral,negative,l,l,1,0.9334067999998297,109.25357729999996,110.26667879999968,110.24709210000037,None,109.25357729999996,None,109.25357729999996,None,109.25357729999996,None,111.15469288999967,None,111.15469288999967,None,111.15469288999967,None,,,,,,,,,,,209,25,Female,2022-05-04_15h24.46.611,Main,2022.1.1,60.042678335814436,
positive,positive,2,l,j,,,,,0,8,8,11,,,,,,,,,,,,,,,,,,,,,,,,,,,,prac,2,2,2,positive,positive,j,j,1,0.7725491999999576,111.17641170000024,112.19884850000017,112.15817040000002,None,111.17641170000024,None,111.17641170000024,None,111.17641170000024,None,112.9317296899998,None,112.9317296899998,None,112.9317296899998,None,,,,,,,,,,,209,25,Female,2022-05-04_15h24.46.611,Main,2022.1.1,60.042678335814436,
neutral,neutral,2,k,k,,,,,0,9,9,10,,,,,,,,,,,,,,,,,,,,,,,,,,,,prac,2,2,2,neutral,neutral,k,k,1,0.7634239000008165,112.95491260000017,113.96820630000002,113.9488938000004,None,112.95491260000017,None,112.95491260000017,None,112.95491260000017,None,114.69401278999968,None,114.69401278999968,None,114.69401278999968,None,,,,,,,,,,,209,25,Female,2022-05-04_15h24.46.611,Main,2022.1.1,60.042678335814436,
neutral,positive,1,k,k,,,,,0,10,10,4,,,,,,,,,,,,,,,,,,,,,,,,,,,,prac,2,2,1,positive,neutral,k,k,1,0.7785934000003181,114.71747099999993,115.72976019999987,115.71001080000042,None,114.71747099999993,None,114.71747099999993,None,114.71747099999993,None,116.47842939000012,None,116.47842939000012,None,116.47842939000012,None,,,,,,,,,,,209,25,Female,2022-05-04_15h24.46.611,Main,2022.1.1,60.042678335814436,
negative,negative,1,j,l,,,,,0,11,11,0,,,,,,,,,,,,,,,,,,,,,,,,,,,,prac,1,1,1,negative,negative,l,l,1,1.7268026000001555,116.50307710000016,117.5162092999999,117.4975002000001,None,116.50307710000016,None,116.50307710000016,None,116.50307710000016,None,119.21501760000046,None,119.21501760000046,None,119.21501760000046,None,,,,,,,,,,,209,25,Female,2022-05-04_15h24.46.611,Main,2022.1.1,60.042678335814436,
negative,negative,2,j,l,,,,,0,12,12,9,,,,,,,,,,,,,,,,,,,,,,,,,,,,prac,2,2,2,negative,negative,l,l,1,1.0471809000000576,120.24438079999982,121.25922179999998,121.22034530000019,None,120.24438079999982,None,120.24438079999982,None,120.24438079999982,None,122.26559489000002,None,122.26559489000002,None,122.26559489000002,None,,,,,,,,,,,209,25,Female,2022-05-04_15h24.46.611,Main,2022.1.1,60.042678335814436,
neutral,negative,2,k,k,,,,,0,13,13,16,,,,,,,,,,,,,,,,,,,,,,,,,,,,prac,2,2,2,negative,neutral,k,k,1,0.6165902000002461,122.28859730000022,123.30139680000048,123.26396819999991,None,122.28859730000022,None,122.28859730000022,None,122.28859730000022,None,123.88401118999982,None,123.88401118999982,None,123.88401118999982,None,,,,,,,,,,,209,25,Female,2022-05-04_15h24.46.611,Main,2022.1.1,60.042678335814436,
positive,negative,1,l,j,,,,,0,14,14,5,,,,,,,,,,,,,,,,,,,,,,,,,,,,prac,1,1,1,negative,positive,j,l,0,0.8824952000004487,123.91078910000033,124.91404229999989,124.89582659999996,None,123.91078910000033,None,123.91078910000033,None,123.91078910000033,None,125.77866059999997,None,125.77866059999997,None,125.77866059999997,None,,,,,,,,,,,209,25,Female,2022-05-04_15h24.46.611,Main,2022.1.1,60.042678335814436,
neutral,negative,1,k,k,,,,,0,15,15,7,,,,,,,,,,,,,,,,,,,,,,,,,,,,prac,2,2,1,negative,neutral,k,k,1,0.7970620999994935,126.80724980000014,127.82078499999989,127.7831728000001,None,126.80724980000014,None,126.80724980000014,None,126.80724980000014,None,128.57873619000011,None,128.57873619000011,None,128.57873619000011,None,,,,,,,,,,,209,25,Female,2022-05-04_15h24.46.611,Main,2022.1.1,60.042678335814436,
positive,positive,1,l,j,,,,,0,16,16,2,,,,,,,,,,,,,,,,,,,,,,,,,,,,prac,2,2,1,positive,positive,j,j,1,0.8021743999997852,128.60018159999981,129.61905529999967,129.58015369999976,None,128.60018159999981,None,128.60018159999981,None,128.60018159999981,None,130.38547439000004,None,130.38547439000004,None,130.38547439000004,None,,,,,,,,,,,209,25,Female,2022-05-04_15h24.46.611,Main,2022.1.1,60.042678335814436,
negative,neutral,2,j,l,,,,,0,17,17,12,,,,,,,,,,,,,,,,,,,,,,,,,,,,prac,1,1,2,neutral,negative,l,l,1,0.8934172000008402,130.41737329999978,131.42832530000032,131.39062379999996,None,130.41737329999978,None,130.41737329999978,None,130.41737329999978,None,132.27938928999984,None,132.27938928999984,None,132.27938928999984,None,,,,,,,,,,,209,25,Female,2022-05-04_15h24.46.611,Main,2022.1.1,60.042678335814436,
neutral,neutral,1,k,k,,,,,1,0,18,1,,,,,,,,,,,,,,,,,,,,,,,,,,,,prac,1,1,1,neutral,neutral,k,k,1,0.5517926999991687,132.30057730000044,133.31354900000042,133.2763044000003,None,132.30057730000044,None,132.30057730000044,None,132.30057730000044,None,133.83508728999996,None,133.83508728999996,None,133.83508728999996,None,,,,,,,,,,,209,25,Female,2022-05-04_15h24.46.611,Main,2022.1.1,60.042678335814436,
neutral,negative,1,k,k,,,,,1,1,19,7,,,,,,,,,,,,,,,,,,,,,,,,,,,,prac,1,1,1,negative,neutral,k,k,1,0.6557108999995762,133.85502270000052,134.8666447000005,134.8290195999998,None,133.85502270000052,None,133.85502270000052,None,133.85502270000052,None,135.49135208999988,None,135.49135208999988,None,135.49135208999988,None,,,,,,,,,,,209,25,Female,2022-05-04_15h24.46.611,Main,2022.1.1,60.042678335814436,
positive,positive,1,l,j,,,,,1,2,20,2,,,,,,,,,,,,,,,,,,,,,,,,,,,,prac,2,2,1,positive,positive,j,j,1,0.67100549999941,135.51596510000036,136.53545750000012,136.49655119999989,None,135.51596510000036,None,135.51596510000036,None,135.51596510000036,None,137.17621537999986,None,137.17621537999986,None,137.17621537999986,None,,,,,,,,,,,209,25,Female,2022-05-04_15h24.46.611,Main,2022.1.1,60.042678335814436,
negative,neutral,1,j,l,,,,,1,3,21,3,,,,,,,,,,,,,,,,,,,,,,,,,,,,prac,2,2,1,neutral,negative,l,l,1,0.7951707999991413,137.18955989999995,138.2006336000004,138.1813960999998,None,137.18955989999995,None,137.18955989999995,None,137.18955989999995,None,138.96419379000045,None,138.96419379000045,None,138.96419379000045,None,,,,,,,,,,,209,25,Female,2022-05-04_15h24.46.611,Main,2022.1.1,60.042678335814436,
neutral,negative,2,k,k,,,,,1,4,22,16,,,,,,,,,,,,,,,,,,,,,,,,,,,,prac,2,2,2,negative,neutral,k,k,1,0.65539759999956,138.98874590000014,139.99852610000016,139.97994190000009,None,138.98874590000014,None,138.98874590000014,None,138.98874590000014,None,140.61908048999967,None,140.61908048999967,None,140.61908048999967,None,,,,,,,,,,,209,25,Female,2022-05-04_15h24.46.611,Main,2022.1.1,60.042678335814436,
negative,positive,1,j,l,,,,,1,5,23,6,,,,,,,,,,,,,,,,,,,,,,,,,,,,prac,2,2,1,positive,negative,l,l,1,0.8478542000002562,140.64259029999994,141.65408860000025,141.63451220000024,None,140.64259029999994,None,140.64259029999994,None,140.64259029999994,None,142.47171909,None,142.47171909,None,142.47171909,None,,,,,,,,,,,209,25,Female,2022-05-04_15h24.46.611,Main,2022.1.1,60.042678335814436,
positive,positive,2,l,j,,,,,1,6,24,11,,,,,,,,,,,,,,,,,,,,,,,,,,,,prac,2,2,2,positive,positive,j,j,1,1.3087604000002102,142.4935575999998,143.49964050000017,143.48023550000016,None,142.4935575999998,None,142.4935575999998,None,142.4935575999998,None,144.7847480899999,None,144.7847480899999,None,144.7847480899999,None,,,,,,,,,,,209,25,Female,2022-05-04_15h24.46.611,Main,2022.1.1,60.042678335814436,
positive,negative,1,l,j,,,,,1,7,25,5,,,,,,,,,,,,,,,,,,,,,,,,,,,,prac,2,2,1,negative,positive,j,j,1,0.8387968999995792,144.80595360000007,145.82487149999997,145.7860413999997,None,144.80595360000007,None,144.80595360000007,None,144.80595360000007,None,146.6370224800001,None,146.6370224800001,None,146.6370224800001,None,,,,,,,,,,,209,25,Female,2022-05-04_15h24.46.611,Main,2022.1.1,60.042678335814436,
negative,neutral,2,j,l,,,,,1,8,26,12,,,,,,,,,,,,,,,,,,,,,,,,,,,,prac,2,2,2,neutral,negative,l,l,1,0.8620092000001023,146.65028679999978,147.66393810000045,147.63497329999973,None,146.65028679999978,None,146.65028679999978,None,146.65028679999978,None,148.49045328999992,None,148.49045328999992,None,148.49045328999992,None,,,,,,,,,,,209,25,Female,2022-05-04_15h24.46.611,Main,2022.1.1,60.042678335814436,
negative,negative,2,j,l,,,,,1,9,27,9,,,,,,,,,,,,,,,,,,,,,,,,,,,,prac,2,2,2,negative,negative,l,l,1,0.7075462999991942,148.5136897000002,149.53347050000048,149.49495680000018,None,148.5136897000002,None,148.5136897000002,None,148.5136897000002,None,150.20130058999976,None,150.20130058999976,None,150.20130058999976,None,,,,,,,,,,,209,25,Female,2022-05-04_15h24.46.611,Main,2022.1.1,60.042678335814436,
positive,neutral,1,l,j,,,,,1,10,28,8,,,,,,,,,,,,,,,,,,,,,,,,,,,,prac,2,2,1,neutral,positive,j,,0,1.280692000000272,150.22085010000046,151.23897800000032,151.2019111999998,None,150.22085010000046,None,150.22085010000046,None,150.22085010000046,None,152.49049470000045,None,152.49049470000045,None,152.49049470000045,None,,,,,,,,,,,209,25,Female,2022-05-04_15h24.46.611,Main,2022.1.1,60.042678335814436,
neutral,positive,2,k,k,,,,,1,11,29,13,,,,,,,,,,,,,,,,,,,,,,,,,,,,prac,1,1,2,positive,neutral,k,k,1,0.8906853999997111,153.5123265000002,154.5324972999997,154.49192049999965,None,153.5123265000002,None,153.5123265000002,None,153.5123265000002,None,155.3778361900003,None,155.3778361900003,None,155.3778361900003,None,,,,,,,,,,,209,25,Female,2022-05-04_15h24.46.611,Main,2022.1.1,60.042678335814436,
positive,neutral,2,l,j,,,,,1,12,30,17,,,,,,,,,,,,,,,,,,,,,,,,,,,,prac,1,1,2,neutral,positive,j,j,1,0.679351100000531,155.39929250000023,156.40600809999978,156.3866264999997,None,155.39929250000023,None,155.39929250000023,None,155.39929250000023,None,157.06032718999987,None,157.06032718999987,None,157.06032718999987,None,,,,,,,,,,,209,25,Female,2022-05-04_15h24.46.611,Main,2022.1.1,60.042678335814436,
positive,negative,2,l,j,,,,,1,13,31,14,,,,,,,,,,,,,,,,,,,,,,,,,,,,prac,2,2,2,negative,positive,j,j,1,0.5768606999999975,157.0821272000003,158.09779049999997,158.07701259999976,None,157.0821272000003,None,157.0821272000003,None,157.0821272000003,None,158.63990559000004,None,158.63990559000004,None,158.63990559000004,None,,,,,,,,,,,209,25,Female,2022-05-04_15h24.46.611,Main,2022.1.1,60.042678335814436,
negative,negative,1,j,l,,,,,1,14,32,0,,,,,,,,,,,,,,,,,,,,,,,,,,,,prac,1,1,1,negative,negative,l,l,1,1.0270558000001984,158.66089920000013,159.6641024999999,159.64426230000026,None,158.66089920000013,None,158.66089920000013,None,158.66089920000013,None,160.66620778999996,None,160.66620778999996,None,160.66620778999996,None,,,,,,,,,,,209,25,Female,2022-05-04_15h24.46.611,Main,2022.1.1,60.042678335814436,
negative,positive,2,j,l,,,,,1,15,33,15,,,,,,,,,,,,,,,,,,,,,,,,,,,,prac,2,2,2,positive,negative,l,l,1,1.0913408999995227,160.69431299999997,161.7120673999998,161.6709294000002,None,160.69431299999997,None,160.69431299999997,None,160.69431299999997,None,162.76184539000033,None,162.76184539000033,None,162.76184539000033,None,,,,,,,,,,,209,25,Female,2022-05-04_15h24.46.611,Main,2022.1.1,60.042678335814436,
neutral,positive,1,k,k,,,,,1,16,34,4,,,,,,,,,,,,,,,,,,,,,,,,,,,,prac,2,2,1,positive,neutral,k,k,1,0.9365257999997993,162.78205359999993,163.78410989999975,163.76511720000053,None,162.78205359999993,None,162.78205359999993,None,162.78205359999993,None,164.6998574899998,None,164.6998574899998,None,164.6998574899998,None,,,,,,,,,,,209,25,Female,2022-05-04_15h24.46.611,Main,2022.1.1,60.042678335814436,
neutral,neutral,2,k,k,,,,,1,17,35,10,,,,,,,,,,,,,,,,,,,,,,,,,,,,prac,1,1,2,neutral,neutral,k,k,1,0.7499680000000808,164.72236650000013,165.727801,165.70861760000025,None,164.72236650000013,None,164.72236650000013,None,164.72236650000013,None,166.45083659000002,None,166.45083659000002,None,166.45083659000002,None,,,,,,,,,,,209,25,Female,2022-05-04_15h24.46.611,Main,2022.1.1,60.042678335814436,
,,,,,,,,,,,,,,,,,,,,,,,,,,,,,,,,,,,,,,,,,,,,,,,,,,,,,,,,,,,,,,,,,,166.4623628999998,None,None,,,,,,,,209,25,Female,2022-05-04_15h24.46.611,Main,2022.1.1,60.042678335814436,
,,,,,,,,,,,,,,,,,,,,,,,,,,,,,,,,,,,,,,,,,,,,,,,,,,,,,,,,,,,,,,,,,,,,,0.6490741,-0.22314815,1,0,0,0.0028695900000457186,None,209,25,Female,2022-05-04_15h24.46.611,Main,2022.1.1,60.042678335814436,
negative,negative,1,j,l,,,,,,,,,0,0,0,0,,,,,,,,,,,,,,,,,,,,,,167.85476720000042,None,main,1,1,1,negative,negative,l,l,1,1.1271845000001122,169.8902336000001,170.90462670000034,170.8854148999999,None,169.8902336000001,None,169.8902336000001,None,169.8902336000001,None,171.9983176900004,None,171.9983176900004,None,171.9983176900004,None,,,,,,,,,,,209,25,Female,2022-05-04_15h24.46.611,Main,2022.1.1,60.042678335814436,
negative,positive,2,j,l,,,,,,,,,0,1,1,15,,,,,,,,,,,,,,,,,,,,,,,,main,2,2,2,positive,negative,l,l,1,0.8419748999995136,172.02025330000015,173.04115460000048,173.00048220000008,None,172.02025330000015,None,172.02025330000015,None,172.02025330000015,None,173.84377848999966,None,173.84377848999966,None,173.84377848999966,None,,,,,,,,,,,209,25,Female,2022-05-04_15h24.46.611,Main,2022.1.1,60.042678335814436,
positive,negative,1,l,j,,,,,,,,,0,2,2,5,,,,,,,,,,,,,,,,,,,,,,,,main,1,1,1,negative,positive,j,j,1,0.7993388000004416,173.8661731000002,174.87231840000004,174.85290609999993,None,173.8661731000002,None,173.8661731000002,None,173.8661731000002,None,175.64783029000037,None,175.64783029000037,None,175.64783029000037,None,,,,,,,,,,,209,25,Female,2022-05-04_15h24.46.611,Main,2022.1.1,60.042678335814436,
negative,neutral,2,j,l,,,,,,,,,0,3,3,12,,,,,,,,,,,,,,,,,,,,,,,,main,2,2,2,neutral,negative,l,l,1,0.8998548999998093,175.67291810000006,176.68539760000021,176.64594229999966,None,175.67291810000006,None,175.67291810000006,None,175.67291810000006,None,177.5593542800005,None,177.5593542800005,None,177.5593542800005,None,,,,,,,,,,,209,25,Female,2022-05-04_15h24.46.611,Main,2022.1.1,60.042678335814436,
positive,neutral,1,l,j,,,,,,,,,0,4,4,8,,,,,,,,,,,,,,,,,,,,,,,,main,2,2,1,neutral,positive,j,j,1,0.8465648000001238,177.5739910000002,178.59005340000022,178.5719264999998,None,177.5739910000002,None,177.5739910000002,None,177.5739910000002,None,179.3991723899998,None,179.3991723899998,None,179.3991723899998,None,,,,,,,,,,,209,25,Female,2022-05-04_15h24.46.611,Main,2022.1.1,60.042678335814436,
negative,neutral,1,j,l,,,,,,,,,0,5,5,3,,,,,,,,,,,,,,,,,,,,,,,,main,1,1,1,neutral,negative,l,l,1,0.7488951999994242,179.4222823,180.43281769999976,180.41321590000007,None,179.4222823,None,179.4222823,None,179.4222823,None,181.15220869000032,None,181.15220869000032,None,181.15220869000032,None,,,,,,,,,,,209,25,Female,2022-05-04_15h24.46.611,Main,2022.1.1,60.042678335814436,
positive,positive,2,l,j,,,,,,,,,0,6,6,11,,,,,,,,,,,,,,,,,,,,,,,,main,2,2,2,positive,positive,j,j,1,0.7220004999999219,181.17469340000025,182.19165989999965,182.15377009999975,None,181.17469340000025,None,181.17469340000025,None,181.17469340000025,None,182.87759279000048,None,182.87759279000048,None,182.87759279000048,None,,,,,,,,,,,209,25,Female,2022-05-04_15h24.46.611,Main,2022.1.1,60.042678335814436,
neutral,positive,1,k,k,,,,,,,,,0,7,7,4,,,,,,,,,,,,,,,,,,,,,,,,main,2,2,1,positive,neutral,k,k,1,0.5525802000001931,182.9002762,183.90301980000004,183.88428939999994,None,182.9002762,None,182.9002762,None,182.9002762,None,184.4328821899998,None,184.4328821899998,None,184.4328821899998,None,,,,,,,,,,,209,25,Female,2022-05-04_15h24.46.611,Main,2022.1.1,60.042678335814436,
negative,negative,2,j,l,,,,,,,,,0,8,8,9,,,,,,,,,,,,,,,,,,,,,,,,main,1,1,2,negative,negative,l,l,1,0.6769883999995727,184.45358920000035,185.47349880000002,185.43583810000018,None,184.45358920000035,None,184.45358920000035,None,184.45358920000035,None,186.11445429000005,None,186.11445429000005,None,186.11445429000005,None,,,,,,,,,,,209,25,Female,2022-05-04_15h24.46.611,Main,2022.1.1,60.042678335814436,
positive,positive,1,l,j,,,,,,,,,0,9,9,2,,,,,,,,,,,,,,,,,,,,,,,,main,2,2,1,positive,positive,j,j,1,0.6751725000003717,186.1354766000004,187.1411564,187.12102440000035,None,186.1354766000004,None,186.1354766000004,None,186.1354766000004,None,187.7980141799997,None,187.7980141799997,None,187.7980141799997,None,,,,,,,,,,,209,25,Female,2022-05-04_15h24.46.611,Main,2022.1.1,60.042678335814436,
positive,negative,2,l,j,,,,,,,,,0,10,10,14,,,,,,,,,,,,,,,,,,,,,,,,main,1,1,2,negative,positive,j,l,0,0.7293204999996306,187.8162983000002,188.82223539999995,188.80326220000006,None,187.8162983000002,None,187.8162983000002,None,187.8162983000002,None,189.5336140999998,None,189.5336140999998,None,189.5336140999998,None,,,,,,,,,,,209,25,Female,2022-05-04_15h24.46.611,Main,2022.1.1,60.042678335814436,
negative,positive,1,j,l,,,,,,,,,0,11,11,6,,,,,,,,,,,,,,,,,,,,,,,,main,2,2,1,positive,negative,l,l,1,0.8514160999993692,190.55738480000036,191.57049329999973,191.5513307000001,None,190.55738480000036,None,190.55738480000036,None,190.55738480000036,None,192.3849991900005,None,192.3849991900005,None,192.3849991900005,None,,,,,,,,,,,209,25,Female,2022-05-04_15h24.46.611,Main,2022.1.1,60.042678335814436,
neutral,negative,2,k,k,,,,,,,,,0,12,12,16,,,,,,,,,,,,,,,,,,,,,,,,main,2,2,2,negative,neutral,k,k,1,0.757918399999653,192.41048620000038,193.41555179999978,193.39341220000006,None,192.41048620000038,None,192.41048620000038,None,192.41048620000038,None,194.14855329000048,None,194.14855329000048,None,194.14855329000048,None,,,,,,,,,,,209,25,Female,2022-05-04_15h24.46.611,Main,2022.1.1,60.042678335814436,
neutral,positive,2,k,k,,,,,,,,,0,13,13,13,,,,,,,,,,,,,,,,,,,,,,,,main,2,2,2,positive,neutral,k,k,1,0.9796938999998019,194.17028130000017,195.2021961999999,195.14788620000036,None,194.17028130000017,None,194.17028130000017,None,194.17028130000017,None,196.1307006900005,None,196.1307006900005,None,196.1307006900005,None,,,,,,,,,,,209,25,Female,2022-05-04_15h24.46.611,Main,2022.1.1,60.042678335814436,
neutral,neutral,1,k,k,,,,,,,,,0,14,14,1,,,,,,,,,,,,,,,,,,,,,,,,main,2,2,1,neutral,neutral,k,j,0,0.812300000000505,196.15172150000035,197.1622195,197.14263120000032,None,196.15172150000035,None,196.15172150000035,None,196.15172150000035,None,197.9522046000002,None,197.9522046000002,None,197.9522046000002,None,,,,,,,,,,,209,25,Female,2022-05-04_15h24.46.611,Main,2022.1.1,60.042678335814436,
neutral,neutral,2,k,k,,,,,,,,,0,15,15,10,,,,,,,,,,,,,,,,,,,,,,,,main,2,2,2,neutral,neutral,k,k,1,0.6677128000001176,198.96992599999976,199.98951240000042,199.95029729999987,None,198.96992599999976,None,198.96992599999976,None,198.96992599999976,None,200.61637219000013,None,200.61637219000013,None,200.61637219000013,None,,,,,,,,,,,209,25,Female,2022-05-04_15h24.46.611,Main,2022.1.1,60.042678335814436,
neutral,negative,1,k,k,,,,,,,,,0,16,16,7,,,,,,,,,,,,,,,,,,,,,,,,main,2,2,1,negative,neutral,k,k,1,0.6374068999994051,200.63798940000015,201.66011600000002,201.61946379999972,None,200.63798940000015,None,200.63798940000015,None,200.63798940000015,None,202.2589460899998,None,202.2589460899998,None,202.2589460899998,None,,,,,,,,,,,209,25,Female,2022-05-04_15h24.46.611,Main,2022.1.1,60.042678335814436,
positive,neutral,2,l,j,,,,,,,,,0,17,17,17,,,,,,,,,,,,,,,,,,,,,,,,main,2,2,2,neutral,positive,j,j,1,1.2701804999996966,202.28255009999975,203.30379770000036,203.27587420000054,None,202.28255009999975,None,202.28255009999975,None,202.28255009999975,None,204.53108519000025,None,204.53108519000025,None,204.53108519000025,None,,,,,,,,,,,209,25,Female,2022-05-04_15h24.46.611,Main,2022.1.1,60.042678335814436,
positive,positive,1,l,j,,,,,,,,,1,0,18,2,,,,,,,,,,,,,,,,,,,,,,,,main,1,1,1,positive,positive,j,l,0,0.6953671000001123,204.5621401999997,205.5711521000003,205.5513020999997,None,204.5621401999997,None,204.5621401999997,None,204.5621401999997,None,206.2412161000002,None,206.2412161000002,None,206.2412161000002,None,,,,,,,,,,,209,25,Female,2022-05-04_15h24.46.611,Main,2022.1.1,60.042678335814436,
negative,neutral,2,j,l,,,,,,,,,1,1,19,12,,,,,,,,,,,,,,,,,,,,,,,,main,2,2,2,neutral,negative,l,l,1,0.853805800000373,207.26556020000044,208.28772910000043,208.26713980000022,None,207.26556020000044,None,207.26556020000044,None,207.26556020000044,None,209.0995300900003,None,209.0995300900003,None,209.0995300900003,None,,,,,,,,,,,209,25,Female,2022-05-04_15h24.46.611,Main,2022.1.1,60.042678335814436,
neutral,positive,2,k,k,,,,,,,,,1,2,20,13,,,,,,,,,,,,,,,,,,,,,,,,main,1,1,2,positive,neutral,k,k,1,0.777663400000165,209.12438269999984,210.1530754000005,210.1052778000003,None,209.12438269999984,None,209.12438269999984,None,209.12438269999984,None,210.87660619000044,None,210.87660619000044,None,210.87660619000044,None,,,,,,,,,,,209,25,Female,2022-05-04_15h24.46.611,Main,2022.1.1,60.042678335814436,
neutral,neutral,2,k,k,,,,,,,,,1,3,21,10,,,,,,,,,,,,,,,,,,,,,,,,main,1,1,2,neutral,neutral,k,k,1,0.788150599999426,210.9070757999998,211.90854779999972,211.89027989999977,None,210.9070757999998,None,210.9070757999998,None,210.9070757999998,None,212.67326999000025,None,212.67326999000025,None,212.67326999000025,None,,,,,,,,,,,209,25,Female,2022-05-04_15h24.46.611,Main,2022.1.1,60.042678335814436,
neutral,neutral,1,k,k,,,,,,,,,1,4,22,1,,,,,,,,,,,,,,,,,,,,,,,,main,2,2,1,neutral,neutral,k,k,1,0.8474407000003339,212.69371390000015,213.71063649999996,213.67331540000032,None,212.69371390000015,None,212.69371390000015,None,212.69371390000015,None,214.52352478999993,None,214.52352478999993,None,214.52352478999993,None,,,,,,,,,,,209,25,Female,2022-05-04_15h24.46.611,Main,2022.1.1,60.042678335814436,
positive,negative,1,l,j,,,,,,,,,1,5,23,5,,,,,,,,,,,,,,,,,,,,,,,,main,2,2,1,negative,positive,j,j,1,0.6787971000003381,214.5450539000003,215.55834640000012,215.52176899999995,None,214.5450539000003,None,214.5450539000003,None,214.5450539000003,None,216.20323298000022,None,216.20323298000022,None,216.20323298000022,None,,,,,,,,,,,209,25,Female,2022-05-04_15h24.46.611,Main,2022.1.1,60.042678335814436,
negative,positive,2,j,l,,,,,,,,,1,6,24,15,,,,,,,,,,,,,,,,,,,,,,,,main,1,1,2,positive,negative,l,l,1,1.0117586999995183,216.2336346000002,217.24674030000006,217.2260041999998,None,216.2336346000002,None,216.2336346000002,None,216.2336346000002,None,218.22133278999982,None,218.22133278999982,None,218.22133278999982,None,,,,,,,,,,,209,25,Female,2022-05-04_15h24.46.611,Main,2022.1.1,60.042678335814436,
positive,neutral,2,l,j,,,,,,,,,1,7,25,17,,,,,,,,,,,,,,,,,,,,,,,,main,2,2,2,neutral,positive,j,j,1,1.164657199999965,218.2433658,219.25227989999985,219.2326066000005,None,218.2433658,None,218.2433658,None,218.2433658,None,220.38836179,None,220.38836179,None,220.38836179,None,,,,,,,,,,,209,25,Female,2022-05-04_15h24.46.611,Main,2022.1.1,60.042678335814436,
neutral,negative,2,k,k,,,,,,,,,1,8,26,16,,,,,,,,,,,,,,,,,,,,,,,,main,1,1,2,negative,neutral,k,k,1,0.8664529000006951,220.4092072000003,221.4525665000001,221.4525665000001,None,220.4092072000003,None,220.4092072000003,None,220.4092072000003,None,222.25774698999967,None,222.25774698999967,None,222.25774698999967,None,,,,,,,,,,,209,25,Female,2022-05-04_15h24.46.611,Main,2022.1.1,60.042678335814436,
negative,positive,1,j,l,,,,,,,,,1,9,27,6,,,,,,,,,,,,,,,,,,,,,,,,main,2,2,1,positive,negative,l,l,1,0.6477199999999357,222.2788870000004,223.29720120000002,223.2566813000003,None,222.2788870000004,None,222.2788870000004,None,222.2788870000004,None,223.90941528999966,None,223.90941528999966,None,223.90941528999966,None,,,,,,,,,,,209,25,Female,2022-05-04_15h24.46.611,Main,2022.1.1,60.042678335814436,
neutral,negative,1,k,k,,,,,,,,,1,10,28,7,,,,,,,,,,,,,,,,,,,,,,,,main,2,2,1,negative,neutral,k,k,1,0.644658399999571,223.93448950000038,224.96502529999998,224.9154524000005,None,223.93448950000038,None,223.93448950000038,None,223.93448950000038,None,225.5566040900002,None,225.5566040900002,None,225.5566040900002,None,,,,,,,,,,,209,25,Female,2022-05-04_15h24.46.611,Main,2022.1.1,60.042678335814436,
negative,negative,2,j,l,,,,,,,,,1,11,29,9,,,,,,,,,,,,,,,,,,,,,,,,main,1,1,2,negative,negative,l,l,1,0.8814152000004469,225.57638510000015,226.58506620000026,226.56705690000035,None,225.57638510000015,None,225.57638510000015,None,225.57638510000015,None,227.44105028999994,None,227.44105028999994,None,227.44105028999994,None,,,,,,,,,,,209,25,Female,2022-05-04_15h24.46.611,Main,2022.1.1,60.042678335814436,
negative,neutral,1,j,l,,,,,,,,,1,12,30,3,,,,,,,,,,,,,,,,,,,,,,,,main,1,1,1,neutral,negative,l,l,1,1.6522133999997095,227.46448150000015,228.48155190000034,228.44182850000016,None,227.46448150000015,None,227.46448150000015,None,227.46448150000015,None,230.10335420000047,None,230.10335420000047,None,230.10335420000047,None,,,,,,,,,,,209,25,Female,2022-05-04_15h24.46.611,Main,2022.1.1,60.042678335814436,
negative,negative,1,j,l,,,,,,,,,1,13,31,0,,,,,,,,,,,,,,,,,,,,,,,,main,1,1,1,negative,negative,l,l,1,0.9080041000006531,231.12125819999983,232.13282849999996,232.11470290000034,None,231.12125819999983,None,231.12125819999983,None,231.12125819999983,None,233.01059659000012,None,233.01059659000012,None,233.01059659000012,None,,,,,,,,,,,209,25,Female,2022-05-04_15h24.46.611,Main,2022.1.1,60.042678335814436,
positive,neutral,1,l,j,,,,,,,,,1,14,32,8,,,,,,,,,,,,,,,,,,,,,,,,main,2,2,1,neutral,positive,j,j,1,1.4345761000004131,233.0307644000004,234.03815550000036,234.02131800000006,None,233.0307644000004,None,233.0307644000004,None,233.0307644000004,None,235.44739028999984,None,235.44739028999984,None,235.44739028999984,None,,,,,,,,,,,209,25,Female,2022-05-04_15h24.46.611,Main,2022.1.1,60.042678335814436,
neutral,positive,1,k,k,,,,,,,,,1,15,33,4,,,,,,,,,,,,,,,,,,,,,,,,main,2,2,1,positive,neutral,k,k,1,0.7713493999999628,235.47447590000047,236.48570819999986,236.46701940000003,None,235.47447590000047,None,235.47447590000047,None,235.47447590000047,None,237.22538789,None,237.22538789,None,237.22538789,None,,,,,,,,,,,209,25,Female,2022-05-04_15h24.46.611,Main,2022.1.1,60.042678335814436,
positive,positive,2,l,j,,,,,,,,,1,16,34,11,,,,,,,,,,,,,,,,,,,,,,,,main,2,2,2,positive,positive,j,l,0,0.5906616000002032,237.24632629999996,238.27013760000045,238.2492444999998,None,237.24632629999996,None,237.24632629999996,None,237.24632629999996,None,238.8224605000005,None,238.8224605000005,None,238.8224605000005,None,,,,,,,,,,,209,25,Female,2022-05-04_15h24.46.611,Main,2022.1.1,60.042678335814436,
positive,negative,2,l,j,,,,,,,,,1,17,35,14,,,,,,,,,,,,,,,,,,,,,,,,main,1,1,2,negative,positive,j,j,1,0.929275299999972,239.83484210000006,240.8387573,240.81939340000008,None,239.83484210000006,None,239.83484210000006,None,239.83484210000006,None,241.74379838999985,None,241.74379838999985,None,241.74379838999985,None,,,,,,,,,,,209,25,Female,2022-05-04_15h24.46.611,Main,2022.1.1,60.042678335814436,
negative,neutral,2,j,l,,,,,,,,,2,0,36,12,,,,,,,,,,,,,,,,,,,,,,,,main,1,1,2,neutral,negative,l,l,1,1.5853112999993755,241.7646278000002,242.77304259999983,242.75301300000046,None,241.7646278000002,None,241.7646278000002,None,241.7646278000002,None,244.342439,None,244.342439,None,244.342439,None,,,,,,,,,,,209,25,Female,2022-05-04_15h24.46.611,Main,2022.1.1,60.042678335814436,
positive,positive,2,l,j,,,,,,,,,2,1,37,11,,,,,,,,,,,,,,,,,,,,,,,,main,2,2,2,positive,positive,j,j,1,0.7725550999994084,245.37876589999996,246.38981429999967,246.35025210000003,None,245.37876589999996,None,245.37876589999996,None,245.37876589999996,None,247.12067369000025,None,247.12067369000025,None,247.12067369000025,None,,,,,,,,,,,209,25,Female,2022-05-04_15h24.46.611,Main,2022.1.1,60.042678335814436,
positive,neutral,1,l,j,,,,,,,,,2,2,38,8,,,,,,,,,,,,,,,,,,,,,,,,main,2,2,1,neutral,positive,j,j,1,0.868168500000138,247.1415422,248.1541216000005,248.1135905000001,None,247.1415422,None,247.1415422,None,247.1415422,None,248.99158318999972,None,248.99158318999972,None,248.99158318999972,None,,,,,,,,,,,209,25,Female,2022-05-04_15h24.46.611,Main,2022.1.1,60.042678335814436,
positive,negative,1,l,j,,,,,,,,,2,3,39,5,,,,,,,,,,,,,,,,,,,,,,,,main,2,2,1,negative,positive,j,j,1,0.8995288999994955,249.011845,250.0134791999999,249.9944489999998,None,249.011845,None,249.011845,None,249.011845,None,250.89314599000036,None,250.89314599000036,None,250.89314599000036,None,,,,,,,,,,,209,25,Female,2022-05-04_15h24.46.611,Main,2022.1.1,60.042678335814436,
negative,negative,2,j,l,,,,,,,,,2,4,40,9,,,,,,,,,,,,,,,,,,,,,,,,main,2,2,2,negative,negative,l,l,1,0.7677916000002369,250.91314950000015,251.9175148000004,251.89780299999984,None,250.91314950000015,None,250.91314950000015,None,250.91314950000015,None,252.6644491900005,None,252.6644491900005,None,252.6644491900005,None,,,,,,,,,,,209,25,Female,2022-05-04_15h24.46.611,Main,2022.1.1,60.042678335814436,
neutral,negative,1,k,k,,,,,,,,,2,5,41,7,,,,,,,,,,,,,,,,,,,,,,,,main,2,2,1,negative,neutral,k,k,1,0.608828899999935,252.68608270000004,253.7052080000003,253.6650507000004,None,252.68608270000004,None,252.68608270000004,None,252.68608270000004,None,254.2731742900004,None,254.2731742900004,None,254.2731742900004,None,,,,,,,,,,,209,25,Female,2022-05-04_15h24.46.611,Main,2022.1.1,60.042678335814436,
negative,positive,2,j,l,,,,,,,,,2,6,42,15,,,,,,,,,,,,,,,,,,,,,,,,main,2,2,2,positive,negative,l,l,1,0.8407978999994157,254.29851150000013,255.31647890000022,255.29687360000025,None,254.29851150000013,None,254.29851150000013,None,254.29851150000013,None,256.11942649000036,None,256.11942649000036,None,256.11942649000036,None,,,,,,,,,,,209,25,Female,2022-05-04_15h24.46.611,Main,2022.1.1,60.042678335814436,
positive,neutral,2,l,j,,,,,,,,,2,7,43,17,,,,,,,,,,,,,,,,,,,,,,,,main,2,2,2,neutral,positive,j,j,1,0.8077663999993092,256.1406429999997,257.1503697999997,257.13053349999973,None,256.1406429999997,None,256.1406429999997,None,256.1406429999997,None,257.9310416899997,None,257.9310416899997,None,257.9310416899997,None,,,,,,,,,,,209,25,Female,2022-05-04_15h24.46.611,Main,2022.1.1,60.042678335814436,
positive,positive,1,l,j,,,,,,,,,2,8,44,2,,,,,,,,,,,,,,,,,,,,,,,,main,2,2,1,positive,positive,j,j,1,0.8508492999999362,257.95376750000014,258.96494410000014,258.94505240000035,None,257.95376750000014,None,257.95376750000014,None,257.95376750000014,None,259.78502148999985,None,259.78502148999985,None,259.78502148999985,None,,,,,,,,,,,209,25,Female,2022-05-04_15h24.46.611,Main,2022.1.1,60.042678335814436,
positive,negative,2,l,j,,,,,,,,,2,9,45,14,,,,,,,,,,,,,,,,,,,,,,,,main,2,2,2,negative,positive,j,j,1,1.5847531999997955,259.8064371999999,260.8166540000002,260.7772050000003,None,259.8064371999999,None,259.8064371999999,None,259.8064371999999,None,262.3781833000003,None,262.3781833000003,None,262.3781833000003,None,,,,,,,,,,,209,25,Female,2022-05-04_15h24.46.611,Main,2022.1.1,60.042678335814436,
negative,negative,1,j,l,,,,,,,,,2,10,46,0,,,,,,,,,,,,,,,,,,,,,,,,main,2,2,1,negative,negative,l,l,1,0.8190286999997625,263.3901080000005,264.4121034,264.39303590000054,None,263.3901080000005,None,263.3901080000005,None,263.3901080000005,None,265.18692049000026,None,265.18692049000026,None,265.18692049000026,None,,,,,,,,,,,209,25,Female,2022-05-04_15h24.46.611,Main,2022.1.1,60.042678335814436,
neutral,neutral,2,k,k,,,,,,,,,2,11,47,10,,,,,,,,,,,,,,,,,,,,,,,,main,2,2,2,neutral,neutral,k,k,1,0.7292295999995986,265.2135638999998,266.2321714999998,266.19417330000033,None,265.2135638999998,None,265.2135638999998,None,265.2135638999998,None,266.92117269000016,None,266.92117269000016,None,266.92117269000016,None,,,,,,,,,,,209,25,Female,2022-05-04_15h24.46.611,Main,2022.1.1,60.042678335814436,
neutral,negative,2,k,k,,,,,,,,,2,12,48,16,,,,,,,,,,,,,,,,,,,,,,,,main,1,1,2,negative,neutral,k,k,1,0.9660418000003119,266.94621370000004,267.9642111000003,267.9446383000004,None,266.94621370000004,None,266.94621370000004,None,266.94621370000004,None,268.8927070899998,None,268.8927070899998,None,268.8927070899998,None,,,,,,,,,,,209,25,Female,2022-05-04_15h24.46.611,Main,2022.1.1,60.042678335814436,
neutral,neutral,1,k,k,,,,,,,,,2,13,49,1,,,,,,,,,,,,,,,,,,,,,,,,main,2,2,1,neutral,neutral,k,k,1,-0.739392499999667,268.91502200000014,None,None,None,268.91502200000014,None,268.91502200000014,None,268.91502200000014,None,269.1701487,None,269.1701487,None,269.1701487,None,,,,,,,,,,,209,25,Female,2022-05-04_15h24.46.611,Main,2022.1.1,60.042678335814436,
negative,positive,1,j,l,,,,,,,,,2,14,50,6,,,,,,,,,,,,,,,,,,,,,,,,main,2,2,1,positive,negative,l,l,1,0.8220813999996608,272.1863162999998,273.20082939999975,273.16314539999985,None,272.1863162999998,None,272.1863162999998,None,272.1863162999998,None,273.98982329000034,None,273.98982329000034,None,273.98982329000034,None,,,,,,,,,,,209,25,Female,2022-05-04_15h24.46.611,Main,2022.1.1,60.042678335814436,
neutral,positive,2,k,k,,,,,,,,,2,15,51,13,,,,,,,,,,,,,,,,,,,,,,,,main,2,2,2,positive,neutral,k,k,1,1.1454509999994116,274.0123800000001,275.0304285000002,274.99324200000046,None,274.0123800000001,None,274.0123800000001,None,274.0123800000001,None,276.1354462899998,None,276.1354462899998,None,276.1354462899998,None,,,,,,,,,,,209,25,Female,2022-05-04_15h24.46.611,Main,2022.1.1,60.042678335814436,
negative,neutral,1,j,l,,,,,,,,,2,16,52,3,,,,,,,,,,,,,,,,,,,,,,,,main,2,2,1,neutral,negative,l,l,1,1.0707744999999704,276.16072200000053,277.1664909000001,277.1474036999998,None,276.16072200000053,None,276.16072200000053,None,276.16072200000053,None,278.21139419000053,None,278.21139419000053,None,278.21139419000053,None,,,,,,,,,,,209,25,Female,2022-05-04_15h24.46.611,Main,2022.1.1,60.042678335814436,
neutral,positive,1,k,k,,,,,,,,,2,17,53,4,,,,,,,,,,,,,,,,,,,,,,,,main,2,2,1,positive,neutral,k,k,1,1.1407564999999522,278.2316625000003,279.2431839000001,279.22432630000003,None,278.2316625000003,None,278.2316625000003,None,278.2316625000003,None,280.35648269,None,280.35648269,None,280.35648269,None,,,,,,,,,,,209,25,Female,2022-05-04_15h24.46.611,Main,2022.1.1,60.042678335814436,
negative,positive,2,j,l,,,,,,,,,3,0,54,15,,,,,,,,,,,,,,,,,,,,,,,,main,1,1,2,positive,negative,l,l,1,1.0066507000001366,280.3765334999998,281.3942361999998,281.35746389999986,None,280.3765334999998,None,280.3765334999998,None,280.3765334999998,None,282.36435939000046,None,282.36435939000046,None,282.36435939000046,None,,,,,,,,,,,209,25,Female,2022-05-04_15h24.46.611,Main,2022.1.1,60.042678335814436,
neutral,neutral,1,k,k,,,,,,,,,3,1,55,1,,,,,,,,,,,,,,,,,,,,,,,,main,2,2,1,neutral,neutral,k,k,1,2.07670379999945,282.38614789999974,283.40069459999995,283.36212820000037,None,282.38614789999974,None,282.38614789999974,None,282.38614789999974,None,285.4515084000004,None,285.4515084000004,None,285.4515084000004,None,,,,,,,,,,,209,25,Female,2022-05-04_15h24.46.611,Main,2022.1.1,60.042678335814436,
positive,neutral,1,l,j,,,,,,,,,3,2,56,8,,,,,,,,,,,,,,,,,,,,,,,,main,1,1,1,neutral,positive,j,j,1,0.8021349000000555,286.46402110000054,287.47948410000026,287.4423050000005,None,286.46402110000054,None,286.46402110000054,None,286.46402110000054,None,288.24757168999975,None,288.24757168999975,None,288.24757168999975,None,,,,,,,,,,,209,25,Female,2022-05-04_15h24.46.611,Main,2022.1.1,60.042678335814436,
neutral,positive,1,k,k,,,,,,,,,3,3,57,4,,,,,,,,,,,,,,,,,,,,,,,,main,1,1,1,positive,neutral,k,k,1,0.812598500000604,288.2706272000005,289.27873309999995,289.24174180000045,None,288.2706272000005,None,288.2706272000005,None,288.2706272000005,None,290.07169768000017,None,290.07169768000017,None,290.07169768000017,None,,,,,,,,,,,209,25,Female,2022-05-04_15h24.46.611,Main,2022.1.1,60.042678335814436,
positive,neutral,2,l,j,,,,,,,,,3,4,58,17,,,,,,,,,,,,,,,,,,,,,,,,main,1,1,2,neutral,positive,j,j,1,1.5266765999995187,290.0864784000005,291.1014516000005,291.0819849999998,None,290.0864784000005,None,290.0864784000005,None,290.0864784000005,None,292.5972652999999,None,292.5972652999999,None,292.5972652999999,None,,,,,,,,,,,209,25,Female,2022-05-04_15h24.46.611,Main,2022.1.1,60.042678335814436,
negative,neutral,2,j,l,,,,,,,,,3,5,59,12,,,,,,,,,,,,,,,,,,,,,,,,main,2,2,2,neutral,negative,l,l,1,2.4490359999999782,293.6097516,294.6135212999998,294.5936289000001,None,293.6097516,None,293.6097516,None,293.6097516,None,297.0424737000003,None,297.0424737000003,None,297.0424737000003,None,,,,,,,,,,,209,25,Female,2022-05-04_15h24.46.611,Main,2022.1.1,60.042678335814436,
negative,positive,1,j,l,,,,,,,,,3,6,60,6,,,,,,,,,,,,,,,,,,,,,,,,main,2,2,1,positive,negative,l,l,1,0.9884921000002578,298.05903860000035,299.06252180000047,299.04281850000007,None,298.05903860000035,None,298.05903860000035,None,298.05903860000035,None,300.0265572899997,None,300.0265572899997,None,300.0265572899997,None,,,,,,,,,,,209,25,Female,2022-05-04_15h24.46.611,Main,2022.1.1,60.042678335814436,
negative,negative,1,j,l,,,,,,,,,3,7,61,0,,,,,,,,,,,,,,,,,,,,,,,,main,1,1,1,negative,negative,l,l,1,0.7864804999999251,300.05040929999996,301.0562479,301.03609179999967,None,300.05040929999996,None,300.05040929999996,None,300.05040929999996,None,301.81728359000033,None,301.81728359000033,None,301.81728359000033,None,,,,,,,,,,,209,25,Female,2022-05-04_15h24.46.611,Main,2022.1.1,60.042678335814436,
negative,neutral,1,j,l,,,,,,,,,3,8,62,3,,,,,,,,,,,,,,,,,,,,,,,,main,2,2,1,neutral,negative,l,l,1,0.6489992000006168,301.8377298000005,302.8446220000005,302.8249013000004,None,301.8377298000005,None,301.8377298000005,None,301.8377298000005,None,303.46741549000023,None,303.46741549000023,None,303.46741549000023,None,,,,,,,,,,,209,25,Female,2022-05-04_15h24.46.611,Main,2022.1.1,60.042678335814436,
neutral,positive,2,k,k,,,,,,,,,3,9,63,13,,,,,,,,,,,,,,,,,,,,,,,,main,2,2,2,positive,neutral,k,k,1,0.7761699000002409,303.4900464000002,304.4927386999998,304.4724415999999,None,303.4900464000002,None,303.4900464000002,None,303.4900464000002,None,305.24815578999994,None,305.24815578999994,None,305.24815578999994,None,,,,,,,,,,,209,25,Female,2022-05-04_15h24.46.611,Main,2022.1.1,60.042678335814436,
positive,positive,2,l,j,,,,,,,,,3,10,64,11,,,,,,,,,,,,,,,,,,,,,,,,main,1,1,2,positive,positive,j,j,1,0.689530200000263,305.26826249999976,306.2762109000005,306.256625,None,305.26826249999976,None,305.26826249999976,None,305.26826249999976,None,306.9364582899997,None,306.9364582899997,None,306.9364582899997,None,,,,,,,,,,,209,25,Female,2022-05-04_15h24.46.611,Main,2022.1.1,60.042678335814436,
positive,positive,1,l,j,,,,,,,,,3,11,65,2,,,,,,,,,,,,,,,,,,,,,,,,main,2,2,1,positive,positive,j,j,1,1.1134080000001632,306.96077830000013,307.9753380000002,307.9562370000003,None,306.96077830000013,None,306.96077830000013,None,306.96077830000013,None,309.0568426899998,None,309.0568426899998,None,309.0568426899998,None,,,,,,,,,,,209,25,Female,2022-05-04_15h24.46.611,Main,2022.1.1,60.042678335814436,
neutral,negative,1,k,k,,,,,,,,,3,12,66,7,,,,,,,,,,,,,,,,,,,,,,,,main,2,2,1,negative,neutral,k,k,1,0.7460019999998622,309.07739670000046,310.08518079999976,310.0646815,None,309.07739670000046,None,309.07739670000046,None,309.07739670000046,None,310.80615489000036,None,310.80615489000036,None,310.80615489000036,None,,,,,,,,,,,209,25,Female,2022-05-04_15h24.46.611,Main,2022.1.1,60.042678335814436,
neutral,negative,2,k,k,,,,,,,,,3,13,67,16,,,,,,,,,,,,,,,,,,,,,,,,main,2,2,2,negative,neutral,k,k,1,0.695104800000081,310.8261306000004,311.8468665999999,311.80840270000044,None,310.8261306000004,None,310.8261306000004,None,310.8261306000004,None,312.50409948999993,None,312.50409948999993,None,312.50409948999993,None,,,,,,,,,,,209,25,Female,2022-05-04_15h24.46.611,Main,2022.1.1,60.042678335814436,
positive,negative,1,l,j,,,,,,,,,3,14,68,5,,,,,,,,,,,,,,,,,,,,,,,,main,1,1,1,negative,positive,j,j,1,0.8667543000001388,312.5275246000001,313.5488562999999,313.5098770000004,None,312.5275246000001,None,312.5275246000001,None,312.5275246000001,None,314.3739836900003,None,314.3739836900003,None,314.3739836900003,None,,,,,,,,,,,209,25,Female,2022-05-04_15h24.46.611,Main,2022.1.1,60.042678335814436,
negative,negative,2,j,l,,,,,,,,,3,15,69,9,,,,,,,,,,,,,,,,,,,,,,,,main,2,2,2,negative,negative,l,l,1,0.8217593999997916,314.3963371,315.4139905000002,315.37280550000014,None,314.3963371,None,314.3963371,None,314.3963371,None,316.19700769000053,None,316.19700769000053,None,316.19700769000053,None,,,,,,,,,,,209,25,Female,2022-05-04_15h24.46.611,Main,2022.1.1,60.042678335814436,
positive,negative,2,l,j,,,,,,,,,3,16,70,14,,,,,,,,,,,,,,,,,,,,,,,,main,1,1,2,negative,positive,j,j,1,0.8035030000000916,316.21761309999965,317.22536560000026,317.20443929999965,None,316.21761309999965,None,316.21761309999965,None,316.21761309999965,None,318.00538279,None,318.00538279,None,318.00538279,None,,,,,,,,,,,209,25,Female,2022-05-04_15h24.46.611,Main,2022.1.1,60.042678335814436,
neutral,neutral,2,k,k,,,,,,,,,3,17,71,10,,,,,,,,,,,,,,,,,,,,,,,,main,1,1,2,neutral,neutral,k,k,1,0.7926087000005282,318.0258501999997,319.0267339000002,319.00867430000017,None,318.0258501999997,None,318.0258501999997,None,318.0258501999997,None,319.8005426899998,None,319.8005426899998,None,319.8005426899998,None,,,,,,,,,,,209,25,Female,2022-05-04_15h24.46.611,Main,2022.1.1,60.042678335814436,
neutral,positive,1,k,k,,,,,,,,,4,0,72,4,,,,,,,,,,,,,,,,,,,,,,,,main,2,2,1,positive,neutral,k,k,1,0.7780593999996199,319.82090679999965,320.82662230000005,320.80789860000004,None,319.82090679999965,None,319.82090679999965,None,319.82090679999965,None,321.5792595900001,None,321.5792595900001,None,321.5792595900001,None,,,,,,,,,,,209,25,Female,2022-05-04_15h24.46.611,Main,2022.1.1,60.042678335814436,
positive,negative,2,l,j,,,,,,,,,4,1,73,14,,,,,,,,,,,,,,,,,,,,,,,,main,2,2,2,negative,positive,j,j,1,0.6501624000002266,321.59979459999977,322.61755340000036,322.5769296999997,None,321.59979459999977,None,321.59979459999977,None,321.59979459999977,None,323.2342583899998,None,323.2342583899998,None,323.2342583899998,None,,,,,,,,,,,209,25,Female,2022-05-04_15h24.46.611,Main,2022.1.1,60.042678335814436,
positive,neutral,2,l,j,,,,,,,,,4,2,74,17,,,,,,,,,,,,,,,,,,,,,,,,main,1,1,2,neutral,positive,j,j,1,0.5495514000003823,323.2566321000004,324.2607876000002,324.24200459999975,None,323.2566321000004,None,323.2566321000004,None,323.2566321000004,None,324.7864482900003,None,324.7864482900003,None,324.7864482900003,None,,,,,,,,,,,209,25,Female,2022-05-04_15h24.46.611,Main,2022.1.1,60.042678335814436,
positive,positive,2,l,j,,,,,,,,,4,3,75,11,,,,,,,,,,,,,,,,,,,,,,,,main,1,1,2,positive,positive,j,j,1,0.5444523999994999,324.80595640000047,325.8126398000004,325.7911531999998,None,324.80595640000047,None,324.80595640000047,None,324.80595640000047,None,326.3335950899999,None,326.3335950899999,None,326.3335950899999,None,,,,,,,,,,,209,25,Female,2022-05-04_15h24.46.611,Main,2022.1.1,60.042678335814436,
neutral,positive,2,k,k,,,,,,,,,4,4,76,13,,,,,,,,,,,,,,,,,,,,,,,,main,2,2,2,positive,neutral,k,k,1,0.7113294000000678,326.35454389999995,327.3844749,327.3363664999997,None,326.35454389999995,None,326.35454389999995,None,326.35454389999995,None,328.04854869000053,None,328.04854869000053,None,328.04854869000053,None,,,,,,,,,,,209,25,Female,2022-05-04_15h24.46.611,Main,2022.1.1,60.042678335814436,
negative,neutral,2,j,l,,,,,,,,,4,5,77,12,,,,,,,,,,,,,,,,,,,,,,,,main,2,2,2,neutral,negative,l,l,1,1.5846413999997822,328.07158619999973,329.08357739999974,329.0637912000002,None,328.07158619999973,None,328.07158619999973,None,328.07158619999973,None,330.64142939999965,None,330.64142939999965,None,330.64142939999965,None,,,,,,,,,,,209,25,Female,2022-05-04_15h24.46.611,Main,2022.1.1,60.042678335814436,
positive,positive,1,l,j,,,,,,,,,4,6,78,2,,,,,,,,,,,,,,,,,,,,,,,,main,2,2,1,positive,positive,j,j,1,1.284947099999954,331.6601361000003,332.66514540000026,332.6447913000002,None,331.6601361000003,None,331.6601361000003,None,331.6601361000003,None,333.92440198999964,None,333.92440198999964,None,333.92440198999964,None,,,,,,,,,,,209,25,Female,2022-05-04_15h24.46.611,Main,2022.1.1,60.042678335814436,
neutral,neutral,2,k,k,,,,,,,,,4,7,79,10,,,,,,,,,,,,,,,,,,,,,,,,main,2,2,2,neutral,neutral,k,k,1,0.7241979000000356,333.9449709999999,334.9517139999998,334.93214499999976,None,333.9449709999999,None,333.9449709999999,None,333.9449709999999,None,335.6516785900002,None,335.6516785900002,None,335.6516785900002,None,,,,,,,,,,,209,25,Female,2022-05-04_15h24.46.611,Main,2022.1.1,60.042678335814436,
negative,neutral,1,j,l,,,,,,,,,4,8,80,3,,,,,,,,,,,,,,,,,,,,,,,,main,1,1,1,neutral,negative,l,l,1,0.7555136999999377,335.6712937000002,336.68694400000004,336.65045590000045,None,335.6712937000002,None,335.6712937000002,None,335.6712937000002,None,337.41102749000027,None,337.41102749000027,None,337.41102749000027,None,,,,,,,,,,,209,25,Female,2022-05-04_15h24.46.611,Main,2022.1.1,60.042678335814436,
neutral,negative,2,k,k,,,,,,,,,4,9,81,16,,,,,,,,,,,,,,,,,,,,,,,,main,1,1,2,negative,neutral,k,j,0,0.6762533000000985,337.4333840999998,338.4521173000003,338.41446580000047,None,337.4333840999998,None,337.4333840999998,None,337.4333840999998,None,339.0971391000003,None,339.0971391000003,None,339.0971391000003,None,,,,,,,,,,,209,25,Female,2022-05-04_15h24.46.611,Main,2022.1.1,60.042678335814436,
neutral,neutral,1,k,k,,,,,,,,,4,10,82,1,,,,,,,,,,,,,,,,,,,,,,,,main,2,2,1,neutral,neutral,k,k,1,0.7641944999995758,340.1212556999999,341.12326680000024,341.10460650000005,None,340.1212556999999,None,340.1212556999999,None,340.1212556999999,None,341.8661852900003,None,341.8661852900003,None,341.8661852900003,None,,,,,,,,,,,209,25,Female,2022-05-04_15h24.46.611,Main,2022.1.1,60.042678335814436,
neutral,negative,1,k,k,,,,,,,,,4,11,83,7,,,,,,,,,,,,,,,,,,,,,,,,main,1,1,1,negative,neutral,k,k,1,0.621937899999466,341.8862377000005,342.88970679999966,342.87104590000035,None,341.8862377000005,None,341.8862377000005,None,341.8862377000005,None,343.4926132899999,None,343.4926132899999,None,343.4926132899999,None,,,,,,,,,,,209,25,Female,2022-05-04_15h24.46.611,Main,2022.1.1,60.042678335814436,
negative,negative,1,j,l,,,,,,,,,4,12,84,0,,,,,,,,,,,,,,,,,,,,,,,,main,1,1,1,negative,negative,l,l,1,0.8714698999992834,343.5126016000004,344.52549009999984,344.5052420000002,None,343.5126016000004,None,343.5126016000004,None,343.5126016000004,None,345.36473729000033,None,345.36473729000033,None,345.36473729000033,None,,,,,,,,,,,209,25,Female,2022-05-04_15h24.46.611,Main,2022.1.1,60.042678335814436,
negative,positive,2,j,l,,,,,,,,,4,13,85,15,,,,,,,,,,,,,,,,,,,,,,,,main,1,1,2,positive,negative,l,l,1,0.7003696000001582,345.3870284000004,346.4083833000004,346.3693943999997,None,345.3870284000004,None,345.3870284000004,None,345.3870284000004,None,347.0676541900001,None,347.0676541900001,None,347.0676541900001,None,,,,,,,,,,,209,25,Female,2022-05-04_15h24.46.611,Main,2022.1.1,60.042678335814436,
negative,negative,2,j,l,,,,,,,,,4,14,86,9,,,,,,,,,,,,,,,,,,,,,,,,main,1,1,2,negative,negative,l,l,1,0.6222812000005433,347.0937423000005,348.1049003999997,348.0765226000003,None,347.0937423000005,None,347.0937423000005,None,347.0937423000005,None,348.6947240899998,None,348.6947240899998,None,348.6947240899998,None,,,,,,,,,,,209,25,Female,2022-05-04_15h24.46.611,Main,2022.1.1,60.042678335814436,
positive,negative,1,l,j,,,,,,,,,4,15,87,5,,,,,,,,,,,,,,,,,,,,,,,,main,1,1,1,negative,positive,j,j,1,0.7452093000001696,348.7161275999997,349.7422471,349.6924289999997,None,348.7161275999997,None,348.7161275999997,None,348.7161275999997,None,350.43794569000045,None,350.43794569000045,None,350.43794569000045,None,,,,,,,,,,,209,25,Female,2022-05-04_15h24.46.611,Main,2022.1.1,60.042678335814436,
positive,neutral,1,l,j,,,,,,,,,4,16,88,8,,,,,,,,,,,,,,,,,,,,,,,,main,2,2,1,neutral,positive,j,j,1,0.7347743000000264,350.4662472,351.48284010000043,351.4635459000001,None,350.4662472,None,350.4662472,None,350.4662472,None,352.1814383899999,None,352.1814383899999,None,352.1814383899999,None,,,,,,,,,,,209,25,Female,2022-05-04_15h24.46.611,Main,2022.1.1,60.042678335814436,
negative,positive,1,j,l,,,,,,,,,4,17,89,6,,,,,,,,,,,,,,,,,,,,,,,,main,2,2,1,positive,negative,l,l,1,0.8809250000003885,352.20507369999996,353.2246984000003,353.18427950000023,None,352.20507369999996,None,352.20507369999996,None,352.20507369999996,None,354.0644736900002,None,354.0644736900002,None,354.0644736900002,None,,,,,,,,,,,209,25,Female,2022-05-04_15h24.46.611,Main,2022.1.1,60.042678335814436,
neutral,negative,1,k,k,,,,,,,,,5,0,90,7,,,,,,,,,,,,,,,,,,,,,,,,main,2,2,1,negative,neutral,k,k,1,0.609227899999496,354.0864991999997,355.1045387000004,355.0632034999999,None,354.0864991999997,None,354.0864991999997,None,354.0864991999997,None,355.6775865899998,None,355.6775865899998,None,355.6775865899998,None,,,,,,,,,,,209,25,Female,2022-05-04_15h24.46.611,Main,2022.1.1,60.042678335814436,
positive,positive,1,l,j,,,,,,,,,5,1,91,2,,,,,,,,,,,,,,,,,,,,,,,,main,1,1,1,positive,positive,j,j,1,0.6411607000000004,355.6981963999997,356.7144865,356.6729875000001,None,355.6981963999997,None,355.6981963999997,None,355.6981963999997,None,357.32303829,None,357.32303829,None,357.32303829,None,,,,,,,,,,,209,25,Female,2022-05-04_15h24.46.611,Main,2022.1.1,60.042678335814436,
negative,neutral,2,j,l,,,,,,,,,5,2,92,12,,,,,,,,,,,,,,,,,,,,,,,,main,2,2,2,neutral,negative,l,l,1,0.6716143000003285,357.34323120000045,358.3615602,358.3244542000002,None,357.34323120000045,None,357.34323120000045,None,357.34323120000045,None,358.99771529,None,358.99771529,None,358.99771529,None,,,,,,,,,,,209,25,Female,2022-05-04_15h24.46.611,Main,2022.1.1,60.042678335814436,
positive,negative,2,l,j,,,,,,,,,5,3,93,14,,,,,,,,,,,,,,,,,,,,,,,,main,2,2,2,negative,positive,j,j,1,1.1605748000001768,359.0230158000004,360.0271842000002,360.00779909999983,None,359.0230158000004,None,359.0230158000004,None,359.0230158000004,None,361.15990369000053,None,361.15990369000053,None,361.15990369000053,None,,,,,,,,,,,209,25,Female,2022-05-04_15h24.46.611,Main,2022.1.1,60.042678335814436,
neutral,positive,1,k,k,,,,,,,,,5,4,94,4,,,,,,,,,,,,,,,,,,,,,,,,main,2,2,1,positive,neutral,k,k,1,0.6759652999999162,361.1835266999997,362.1987946999998,362.1592177000002,None,361.1835266999997,None,361.1835266999997,None,361.1835266999997,None,362.8387395899998,None,362.8387395899998,None,362.8387395899998,None,,,,,,,,,,,209,25,Female,2022-05-04_15h24.46.611,Main,2022.1.1,60.042678335814436,
positive,positive,2,l,j,,,,,,,,,5,5,95,11,,,,,,,,,,,,,,,,,,,,,,,,main,2,2,2,positive,positive,j,j,1,1.50076160000026,362.8603619000005,363.88486230000035,363.8364338000001,None,362.8603619000005,None,362.8603619000005,None,362.8603619000005,None,365.3508549999997,None,365.3508549999997,None,365.3508549999997,None,,,,,,,,,,,209,25,Female,2022-05-04_15h24.46.611,Main,2022.1.1,60.042678335814436,
neutral,neutral,2,k,k,,,,,,,,,5,6,96,10,,,,,,,,,,,,,,,,,,,,,,,,main,2,2,2,neutral,neutral,k,k,1,0.6830042999999932,366.3771360999999,367.3893747000002,367.3707525,None,366.3771360999999,None,366.3771360999999,None,366.3771360999999,None,368.0398164899997,None,368.0398164899997,None,368.0398164899997,None,,,,,,,,,,,209,25,Female,2022-05-04_15h24.46.611,Main,2022.1.1,60.042678335814436,
neutral,neutral,1,k,k,,,,,,,,,5,7,97,1,,,,,,,,,,,,,,,,,,,,,,,,main,1,1,1,neutral,neutral,k,k,1,0.7644411999999647,368.0604254,369.0720492999999,369.05260799999996,None,368.0604254,None,368.0604254,None,368.0604254,None,369.80740329000025,None,369.80740329000025,None,369.80740329000025,None,,,,,,,,,,,209,25,Female,2022-05-04_15h24.46.611,Main,2022.1.1,60.042678335814436,
neutral,positive,2,k,k,,,,,,,,,5,8,98,13,,,,,,,,,,,,,,,,,,,,,,,,main,2,2,2,positive,neutral,k,k,1,0.8095944000006057,369.82823069999995,370.83970899999986,370.8018626000003,None,369.82823069999995,None,369.82823069999995,None,369.82823069999995,None,371.6197336900003,None,371.6197336900003,None,371.6197336900003,None,,,,,,,,,,,209,25,Female,2022-05-04_15h24.46.611,Main,2022.1.1,60.042678335814436,
neutral,negative,2,k,k,,,,,,,,,5,9,99,16,,,,,,,,,,,,,,,,,,,,,,,,main,2,2,2,negative,neutral,k,k,1,0.6195717000000514,371.64002189999974,372.64272059999985,372.6236495000003,None,371.64002189999974,None,371.64002189999974,None,371.64002189999974,None,373.2434040899997,None,373.2434040899997,None,373.2434040899997,None,,,,,,,,,,,209,25,Female,2022-05-04_15h24.46.611,Main,2022.1.1,60.042678335814436,
negative,negative,1,j,l,,,,,,,,,5,10,100,0,,,,,,,,,,,,,,,,,,,,,,,,main,2,2,1,negative,negative,l,k,0,0.5227137000001676,373.2640290999998,374.27882670000054,374.2598082000004,None,373.2640290999998,None,373.2640290999998,None,373.2640290999998,None,374.7732791999997,None,374.7732791999997,None,374.7732791999997,None,,,,,,,,,,,209,25,Female,2022-05-04_15h24.46.611,Main,2022.1.1,60.042678335814436,
negative,positive,1,j,l,,,,,,,,,5,11,101,6,,,,,,,,,,,,,,,,,,,,,,,,main,1,1,1,positive,negative,l,l,1,0.9520638999993025,375.78817979999985,376.81169430000045,376.7922804,None,375.78817979999985,None,375.78817979999985,None,375.78817979999985,None,377.7213613900002,None,377.7213613900002,None,377.7213613900002,None,,,,,,,,,,,209,25,Female,2022-05-04_15h24.46.611,Main,2022.1.1,60.042678335814436,
negative,neutral,1,j,l,,,,,,,,,5,12,102,3,,,,,,,,,,,,,,,,,,,,,,,,main,2,2,1,neutral,negative,l,l,1,0.7690574999996898,377.74207579999984,378.75608809999994,378.71881120000035,None,377.74207579999984,None,377.74207579999984,None,377.74207579999984,None,379.49474948999966,None,379.49474948999966,None,379.49474948999966,None,,,,,,,,,,,209,25,Female,2022-05-04_15h24.46.611,Main,2022.1.1,60.042678335814436,
positive,neutral,2,l,j,,,,,,,,,5,13,103,17,,,,,,,,,,,,,,,,,,,,,,,,main,1,1,2,neutral,positive,j,j,1,0.781042300000081,379.5146714000002,380.5235969000005,380.5022077000003,None,379.5146714000002,None,379.5146714000002,None,379.5146714000002,None,381.2791082900002,None,381.2791082900002,None,381.2791082900002,None,,,,,,,,,,,209,25,Female,2022-05-04_15h24.46.611,Main,2022.1.1,60.042678335814436,
negative,negative,2,j,l,,,,,,,,,5,14,104,9,,,,,,,,,,,,,,,,,,,,,,,,main,1,1,2,negative,negative,l,l,1,0.6619348000003811,381.2987468000001,382.3014767000004,382.28311829999984,None,381.2987468000001,None,381.2987468000001,None,381.2987468000001,None,382.9446117900005,None,382.9446117900005,None,382.9446117900005,None,,,,,,,,,,,209,25,Female,2022-05-04_15h24.46.611,Main,2022.1.1,60.042678335814436,
positive,neutral,1,l,j,,,,,,,,,5,15,105,8,,,,,,,,,,,,,,,,,,,,,,,,main,2,2,1,neutral,positive,j,j,1,2.9803950999994413,382.96508859999994,383.97212930000023,383.9530960000002,None,382.96508859999994,None,382.96508859999994,None,382.96508859999994,None,386.9340149999998,None,386.9340149999998,None,386.9340149999998,None,,,,,,,,,,,209,25,Female,2022-05-04_15h24.46.611,Main,2022.1.1,60.042678335814436,
negative,positive,2,j,l,,,,,,,,,5,16,106,15,,,,,,,,,,,,,,,,,,,,,,,,main,1,1,2,positive,negative,l,l,1,0.7916344000004756,387.9513794000004,388.96291089999977,388.9439547000002,None,387.9513794000004,None,387.9513794000004,None,387.9513794000004,None,389.7222045899997,None,389.7222045899997,None,389.7222045899997,None,,,,,,,,,,,209,25,Female,2022-05-04_15h24.46.611,Main,2022.1.1,60.042678335814436,
positive,negative,1,l,j,,,,,,,,,5,17,107,5,,,,,,,,,,,,,,,,,,,,,,,,main,2,2,1,negative,positive,j,j,1,1.0498180999993565,389.7442452000005,390.7615715000002,390.7230811999998,None,389.7442452000005,None,389.7442452000005,None,389.7442452000005,None,391.77608038999995,None,391.77608038999995,None,391.77608038999995,None,,,,,,,,,,,209,25,Female,2022-05-04_15h24.46.611,Main,2022.1.1,60.042678335814436,
neutral,positive,1,k,k,,,,,,,,,6,0,108,4,,,,,,,,,,,,,,,,,,,,,,,,main,2,2,1,positive,neutral,k,k,1,0.6303232000000207,391.79839119999997,392.81591279999975,392.77756039999986,None,391.79839119999997,None,391.79839119999997,None,391.79839119999997,None,393.41001608999966,None,393.41001608999966,None,393.41001608999966,None,,,,,,,,,,,209,25,Female,2022-05-04_15h24.46.611,Main,2022.1.1,60.042678335814436,
neutral,negative,1,k,k,,,,,,,,,6,1,109,7,,,,,,,,,,,,,,,,,,,,,,,,main,2,2,1,negative,neutral,k,k,1,0.7665279000002556,393.4315858,394.4473530000005,394.4096442,None,393.4315858,None,393.4315858,None,393.4315858,None,395.17917299000044,None,395.17917299000044,None,395.17917299000044,None,,,,,,,,,,,209,25,Female,2022-05-04_15h24.46.611,Main,2022.1.1,60.042678335814436,
neutral,neutral,1,k,k,,,,,,,,,6,2,110,1,,,,,,,,,,,,,,,,,,,,,,,,main,1,1,1,neutral,neutral,k,k,1,0.7321859000003315,395.204205,396.21995229999993,396.18129210000006,None,395.204205,None,395.204205,None,395.204205,None,396.91572368999994,None,396.91572368999994,None,396.91572368999994,None,,,,,,,,,,,209,25,Female,2022-05-04_15h24.46.611,Main,2022.1.1,60.042678335814436,
negative,neutral,1,j,l,,,,,,,,,6,3,111,3,,,,,,,,,,,,,,,,,,,,,,,,main,2,2,1,neutral,negative,l,l,1,0.6921213000005082,396.93565240000044,397.95237819999966,397.93291899999986,None,396.93565240000044,None,396.93565240000044,None,396.93565240000044,None,398.60858109000026,None,398.60858109000026,None,398.60858109000026,None,,,,,,,,,,,209,25,Female,2022-05-04_15h24.46.611,Main,2022.1.1,60.042678335814436,
neutral,negative,2,k,k,,,,,,,,,6,4,112,16,,,,,,,,,,,,,,,,,,,,,,,,main,2,2,2,negative,neutral,k,k,1,1.3141445999999632,398.62888740000017,399.64961399999993,399.6087636000002,None,398.62888740000017,None,398.62888740000017,None,398.62888740000017,None,400.9357893800004,None,400.9357893800004,None,400.9357893800004,None,,,,,,,,,,,209,25,Female,2022-05-04_15h24.46.611,Main,2022.1.1,60.042678335814436,
neutral,neutral,2,k,k,,,,,,,,,6,5,113,10,,,,,,,,,,,,,,,,,,,,,,,,main,2,2,2,neutral,neutral,k,k,1,0.7941688000000795,400.9512741999997,401.96599419999984,401.9458260000001,None,400.9512741999997,None,400.9512741999997,None,400.9512741999997,None,402.7232847900003,None,402.7232847900003,None,402.7232847900003,None,,,,,,,,,,,209,25,Female,2022-05-04_15h24.46.611,Main,2022.1.1,60.042678335814436,
negative,positive,2,j,l,,,,,,,,,6,6,114,15,,,,,,,,,,,,,,,,,,,,,,,,main,1,1,2,positive,negative,l,l,1,0.8987329000001409,402.7435806000003,403.7536590999998,403.7336937,None,402.7435806000003,None,402.7435806000003,None,402.7435806000003,None,404.6244450900002,None,404.6244450900002,None,404.6244450900002,None,,,,,,,,,,,209,25,Female,2022-05-04_15h24.46.611,Main,2022.1.1,60.042678335814436,
negative,negative,2,j,l,,,,,,,,,6,7,115,9,,,,,,,,,,,,,,,,,,,,,,,,main,1,1,2,negative,negative,l,k,0,0.7567430999997669,404.6478825000004,405.66655249999985,405.6276835999997,None,404.6478825000004,None,404.6478825000004,None,404.6478825000004,None,406.39052100000026,None,406.39052100000026,None,406.39052100000026,None,,,,,,,,,,,209,25,Female,2022-05-04_15h24.46.611,Main,2022.1.1,60.042678335814436,
positive,positive,1,l,j,,,,,,,,,6,8,116,2,,,,,,,,,,,,,,,,,,,,,,,,main,1,1,1,positive,positive,j,j,1,0.8622853999995641,407.40911529999994,408.43051319999995,408.41093360000013,None,407.40911529999994,None,407.40911529999994,None,407.40911529999994,None,409.2513253900005,None,409.2513253900005,None,409.2513253900005,None,,,,,,,,,,,209,25,Female,2022-05-04_15h24.46.611,Main,2022.1.1,60.042678335814436,
negative,positive,1,j,l,,,,,,,,,6,9,117,6,,,,,,,,,,,,,,,,,,,,,,,,main,1,1,1,positive,negative,l,l,1,1.4955944000003,409.2726308000001,410.2854594999999,410.2652942000004,None,409.2726308000001,None,409.2726308000001,None,409.2726308000001,None,411.74984499000027,None,411.74984499000027,None,411.74984499000027,None,,,,,,,,,,,209,25,Female,2022-05-04_15h24.46.611,Main,2022.1.1,60.042678335814436,
positive,neutral,1,l,j,,,,,,,,,6,10,118,8,,,,,,,,,,,,,,,,,,,,,,,,main,2,2,1,neutral,positive,j,j,1,0.8760858000005101,411.7708198,412.7950179999998,412.74731950000023,None,411.7708198,None,411.7708198,None,411.7708198,None,413.62951058999977,None,413.62951058999977,None,413.62951058999977,None,,,,,,,,,,,209,25,Female,2022-05-04_15h24.46.611,Main,2022.1.1,60.042678335814436,
negative,neutral,2,j,l,,,,,,,,,6,11,119,12,,,,,,,,,,,,,,,,,,,,,,,,main,1,1,2,neutral,negative,l,l,1,0.6728763000000981,413.65000839999993,414.66243980000036,414.6421601000002,None,413.65000839999993,None,413.65000839999993,None,413.65000839999993,None,415.30504568999993,None,415.30504568999993,None,415.30504568999993,None,,,,,,,,,,,209,25,Female,2022-05-04_15h24.46.611,Main,2022.1.1,60.042678335814436,
neutral,positive,2,k,k,,,,,,,,,6,12,120,13,,,,,,,,,,,,,,,,,,,,,,,,main,1,1,2,positive,neutral,k,k,1,0.7788916999998037,415.3261927000003,416.34870070000034,416.3044302999997,None,415.3261927000003,None,415.3261927000003,None,415.3261927000003,None,417.08665849000033,None,417.08665849000033,None,417.08665849000033,None,,,,,,,,,,,209,25,Female,2022-05-04_15h24.46.611,Main,2022.1.1,60.042678335814436,
positive,positive,2,l,j,,,,,,,,,6,13,121,11,,,,,,,,,,,,,,,,,,,,,,,,main,1,1,2,positive,positive,j,j,1,0.8685571999994863,417.10690950000026,418.1164048999999,418.0974191000005,None,417.10690950000026,None,417.10690950000026,None,417.10690950000026,None,418.95895648999965,None,418.95895648999965,None,418.95895648999965,None,,,,,,,,,,,209,25,Female,2022-05-04_15h24.46.611,Main,2022.1.1,60.042678335814436,
positive,neutral,2,l,j,,,,,,,,,6,14,122,17,,,,,,,,,,,,,,,,,,,,,,,,main,1,1,2,neutral,positive,j,j,1,0.7973649000005025,418.98087699999996,419.9883066000002,419.9692427,None,418.98087699999996,None,418.98087699999996,None,418.98087699999996,None,420.75889239000014,None,420.75889239000014,None,420.75889239000014,None,,,,,,,,,,,209,25,Female,2022-05-04_15h24.46.611,Main,2022.1.1,60.042678335814436,
positive,negative,2,l,j,,,,,,,,,6,15,123,14,,,,,,,,,,,,,,,,,,,,,,,,main,1,1,2,negative,positive,j,j,1,0.6614749999998821,420.77949270000045,421.78174800000033,421.76328190000004,None,420.77949270000045,None,420.77949270000045,None,420.77949270000045,None,422.4247656900005,None,422.4247656900005,None,422.4247656900005,None,,,,,,,,,,,209,25,Female,2022-05-04_15h24.46.611,Main,2022.1.1,60.042678335814436,
positive,negative,1,l,j,,,,,,,,,6,16,124,5,,,,,,,,,,,,,,,,,,,,,,,,main,2,2,1,negative,positive,j,j,1,0.7501110000002882,422.44491540000035,423.4496215999998,423.43103280000014,None,422.44491540000035,None,422.44491540000035,None,422.44491540000035,None,424.1759095900005,None,424.1759095900005,None,424.1759095900005,None,,,,,,,,,,,209,25,Female,2022-05-04_15h24.46.611,Main,2022.1.1,60.042678335814436,
negative,negative,1,j,l,,,,,,,,,6,17,125,0,,,,,,,,,,,,,,,,,,,,,,,,main,2,2,1,negative,negative,l,l,1,0.676877500000046,424.19773390000046,425.2074241999999,425.1866402000005,None,424.19773390000046,None,424.19773390000046,None,424.19773390000046,None,425.85763639000004,None,425.85763639000004,None,425.85763639000004,None,,,,,,,,,,,209,25,Female,2022-05-04_15h24.46.611,Main,2022.1.1,60.042678335814436,
positive,negative,2,l,j,,,,,,,,,7,0,126,14,,,,,,,,,,,,,,,,,,,,,,,,main,2,2,2,negative,positive,j,j,1,0.7921833000000333,425.8778497000003,426.8850245000003,426.86594460000015,None,425.8778497000003,None,425.8778497000003,None,425.8778497000003,None,427.6626637799998,None,427.6626637799998,None,427.6626637799998,None,,,,,,,,,,,209,25,Female,2022-05-04_15h24.46.611,Main,2022.1.1,60.042678335814436,
negative,negative,1,j,l,,,,,,,,,7,1,127,0,,,,,,,,,,,,,,,,,,,,,,,,main,1,1,1,negative,negative,l,l,1,0.6701616000000286,427.67653880000034,428.68212349999976,428.6616960000001,None,427.67653880000034,None,427.67653880000034,None,427.67653880000034,None,429.3271103900005,None,429.3271103900005,None,429.3271103900005,None,,,,,,,,,,,209,25,Female,2022-05-04_15h24.46.611,Main,2022.1.1,60.042678335814436,
neutral,neutral,2,k,k,,,,,,,,,7,2,128,10,,,,,,,,,,,,,,,,,,,,,,,,main,1,1,2,neutral,neutral,k,k,1,0.7790840000006938,429.3484939,430.35460390000026,430.33476210000026,None,429.3484939,None,429.3484939,None,429.3484939,None,431.10917839,None,431.10917839,None,431.10917839,None,,,,,,,,,,,209,25,Female,2022-05-04_15h24.46.611,Main,2022.1.1,60.042678335814436,
negative,negative,2,j,l,,,,,,,,,7,3,129,9,,,,,,,,,,,,,,,,,,,,,,,,main,2,2,2,negative,negative,l,l,1,0.8251097000002119,431.12967260000005,432.1462431,432.1229825999999,None,431.12967260000005,None,431.12967260000005,None,431.12967260000005,None,432.93789708999964,None,432.93789708999964,None,432.93789708999964,None,,,,,,,,,,,209,25,Female,2022-05-04_15h24.46.611,Main,2022.1.1,60.042678335814436,
negative,positive,2,j,l,,,,,,,,,7,4,130,15,,,,,,,,,,,,,,,,,,,,,,,,main,2,2,2,positive,negative,l,l,1,0.5698516000002201,432.9597715,433.99169170000005,433.94151899999997,None,432.9597715,None,432.9597715,None,432.9597715,None,434.50904399000035,None,434.50904399000035,None,434.50904399000035,None,,,,,,,,,,,209,25,Female,2022-05-04_15h24.46.611,Main,2022.1.1,60.042678335814436,
negative,positive,1,j,l,,,,,,,,,7,5,131,6,,,,,,,,,,,,,,,,,,,,,,,,main,2,2,1,positive,negative,l,l,1,0.5882983000001332,434.5336620999997,435.54916049999974,435.51007670000035,None,434.5336620999997,None,434.5336620999997,None,434.5336620999997,None,436.1006007900004,None,436.1006007900004,None,436.1006007900004,None,,,,,,,,,,,209,25,Female,2022-05-04_15h24.46.611,Main,2022.1.1,60.042678335814436,
neutral,neutral,1,k,k,,,,,,,,,7,6,132,1,,,,,,,,,,,,,,,,,,,,,,,,main,1,1,1,neutral,neutral,k,k,1,0.7048651000004611,436.12274510000043,437.1396899000001,437.1026700000002,None,436.12274510000043,None,436.12274510000043,None,436.12274510000043,None,437.80940088999967,None,437.80940088999967,None,437.80940088999967,None,,,,,,,,,,,209,25,Female,2022-05-04_15h24.46.611,Main,2022.1.1,60.042678335814436,
negative,neutral,1,j,l,,,,,,,,,7,7,133,3,,,,,,,,,,,,,,,,,,,,,,,,main,2,2,1,neutral,negative,l,l,1,0.5633885999995982,437.8306855000001,438.84609999999975,438.8082064,None,437.8306855000001,None,437.8306855000001,None,437.8306855000001,None,439.3767410899999,None,439.3767410899999,None,439.3767410899999,None,,,,,,,,,,,209,25,Female,2022-05-04_15h24.46.611,Main,2022.1.1,60.042678335814436,
positive,neutral,2,l,j,,,,,,,,,7,8,134,17,,,,,,,,,,,,,,,,,,,,,,,,main,2,2,2,neutral,positive,j,j,1,1.2783504999997604,439.3965558,440.4016280000005,440.3821035000001,None,439.3965558,None,439.3965558,None,439.3965558,None,441.6575309899998,None,441.6575309899998,None,441.6575309899998,None,,,,,,,,,,,209,25,Female,2022-05-04_15h24.46.611,Main,2022.1.1,60.042678335814436,
positive,neutral,1,l,j,,,,,,,,,7,9,135,8,,,,,,,,,,,,,,,,,,,,,,,,main,2,2,1,neutral,positive,j,j,1,0.6718551000003572,441.6774856000002,442.6802164999999,442.6601072000003,None,441.6774856000002,None,441.6774856000002,None,441.6774856000002,None,443.33376579000003,None,443.33376579000003,None,443.33376579000003,None,,,,,,,,,,,209,25,Female,2022-05-04_15h24.46.611,Main,2022.1.1,60.042678335814436,
neutral,positive,2,k,k,,,,,,,,,7,10,136,13,,,,,,,,,,,,,,,,,,,,,,,,main,2,2,2,positive,neutral,k,k,1,0.6504449999993085,443.3539773000002,444.36550050000005,444.34533809999994,None,443.3539773000002,None,443.3539773000002,None,443.3539773000002,None,444.98630178999963,None,444.98630178999963,None,444.98630178999963,None,,,,,,,,,,,209,25,Female,2022-05-04_15h24.46.611,Main,2022.1.1,60.042678335814436,
negative,neutral,2,j,l,,,,,,,,,7,11,137,12,,,,,,,,,,,,,,,,,,,,,,,,main,2,2,2,neutral,negative,l,l,1,0.7023760000001857,445.0067191999997,446.0236851999998,445.98473340000055,None,445.0067191999997,None,445.0067191999997,None,445.0067191999997,None,446.70092507999993,None,446.70092507999993,None,446.70092507999993,None,,,,,,,,,,,209,25,Female,2022-05-04_15h24.46.611,Main,2022.1.1,60.042678335814436,
positive,positive,2,l,j,,,,,,,,,7,12,138,11,,,,,,,,,,,,,,,,,,,,,,,,main,2,2,2,positive,positive,j,l,0,0.6501060000000507,446.7181695999998,447.7218783999997,447.7031889,None,446.7181695999998,None,446.7181695999998,None,446.7181695999998,None,448.35203809999985,None,448.35203809999985,None,448.35203809999985,None,,,,,,,,,,,209,25,Female,2022-05-04_15h24.46.611,Main,2022.1.1,60.042678335814436,
positive,negative,1,l,j,,,,,,,,,7,13,139,5,,,,,,,,,,,,,,,,,,,,,,,,main,2,2,1,negative,positive,j,l,0,-0.38018360000023677,449.3733871000004,None,None,None,449.3733871000004,None,449.3733871000004,None,449.3733871000004,None,449.9827270000005,None,449.9827270000005,None,449.9827270000005,None,,,,,,,,,,,209,25,Female,2022-05-04_15h24.46.611,Main,2022.1.1,60.042678335814436,
neutral,negative,2,k,k,,,,,,,,,7,14,140,16,,,,,,,,,,,,,,,,,,,,,,,,main,1,1,2,negative,neutral,k,k,1,1.5451006999992387,453.00324329999967,454.0064336000005,453.98740520000047,None,453.00324329999967,None,453.00324329999967,None,453.00324329999967,None,455.53699940000024,None,455.53699940000024,None,455.53699940000024,None,,,,,,,,,,,209,25,Female,2022-05-04_15h24.46.611,Main,2022.1.1,60.042678335814436,
neutral,negative,1,k,k,,,,,,,,,7,15,141,7,,,,,,,,,,,,,,,,,,,,,,,,main,1,1,1,negative,neutral,k,k,1,0.7566197999994984,456.5535295999998,457.56786310000007,457.5492875,None,456.5535295999998,None,456.5535295999998,None,456.5535295999998,None,458.2913099900005,None,458.2913099900005,None,458.2913099900005,None,,,,,,,,,,,209,25,Female,2022-05-04_15h24.46.611,Main,2022.1.1,60.042678335814436,
neutral,positive,1,k,k,,,,,,,,,7,16,142,4,,,,,,,,,,,,,,,,,,,,,,,,main,2,2,1,positive,neutral,k,k,1,0.6755585000000792,458.31188790000033,459.3215627999998,459.30249379999987,None,458.31188790000033,None,458.31188790000033,None,458.31188790000033,None,459.96875859,None,459.96875859,None,459.96875859,None,,,,,,,,,,,209,25,Female,2022-05-04_15h24.46.611,Main,2022.1.1,60.042678335814436,
positive,positive,1,l,j,,,,,,,,,7,17,143,2,,,,,,,,,,,,,,,,,,,,,,,,main,2,2,1,positive,positive,j,j,1,1.276617599999554,459.99068869999974,461.0020411000005,460.9639431000005,None,459.99068869999974,None,459.99068869999974,None,459.99068869999974,None,462.24750549000044,None,462.24750549000044,None,462.24750549000044,None,,,,,,,,,,,209,25,Female,2022-05-04_15h24.46.611,Main,2022.1.1,60.042678335814436,
positive,negative,1,l,j,,,,,,,,,8,0,144,5,,,,,,,,,,,,,,,,,,,,,,,,main,1,1,1,negative,positive,j,j,1,-0.7080566999993607,462.27364730000045,None,None,None,462.27364730000045,None,462.27364730000045,None,462.27364730000045,None,462.54912109999987,None,462.54912109999987,None,462.54912109999987,None,,,,,,,,,,,209,25,Female,2022-05-04_15h24.46.611,Main,2022.1.1,60.042678335814436,
negative,positive,2,j,l,,,,,,,,,8,1,145,15,,,,,,,,,,,,,,,,,,,,,,,,main,2,2,2,positive,negative,l,l,1,1.1402029999999286,465.56595300000026,466.5884796,466.54826370000046,None,465.56595300000026,None,465.56595300000026,None,465.56595300000026,None,467.6866193900004,None,467.6866193900004,None,467.6866193900004,None,,,,,,,,,,,209,25,Female,2022-05-04_15h24.46.611,Main,2022.1.1,60.042678335814436,
positive,neutral,1,l,j,,,,,,,,,8,2,146,8,,,,,,,,,,,,,,,,,,,,,,,,main,2,2,1,neutral,positive,j,j,1,0.7754976999995051,467.70731969999997,468.7169369000003,468.6977072999998,None,467.70731969999997,None,467.70731969999997,None,467.70731969999997,None,469.46401009000044,None,469.46401009000044,None,469.46401009000044,None,,,,,,,,,,,209,25,Female,2022-05-04_15h24.46.611,Main,2022.1.1,60.042678335814436,
negative,negative,2,j,l,,,,,,,,,8,3,147,9,,,,,,,,,,,,,,,,,,,,,,,,main,1,1,2,negative,negative,l,l,1,0.9398876999994172,469.4873557000001,470.4946523999997,470.47343329999967,None,469.4873557000001,None,469.4873557000001,None,469.4873557000001,None,471.4069310900003,None,471.4069310900003,None,471.4069310900003,None,,,,,,,,,,,209,25,Female,2022-05-04_15h24.46.611,Main,2022.1.1,60.042678335814436,
neutral,negative,2,k,k,,,,,,,,,8,4,148,16,,,,,,,,,,,,,,,,,,,,,,,,main,1,1,2,negative,neutral,k,k,1,0.7143722999999227,471.4287371999999,472.4394964000003,472.3972868000001,None,471.4287371999999,None,471.4287371999999,None,471.4287371999999,None,473.1234661899997,None,473.1234661899997,None,473.1234661899997,None,,,,,,,,,,,209,25,Female,2022-05-04_15h24.46.611,Main,2022.1.1,60.042678335814436,
positive,negative,2,l,j,,,,,,,,,8,5,149,14,,,,,,,,,,,,,,,,,,,,,,,,main,2,2,2,negative,positive,j,j,1,0.8457253000005949,473.14407839999967,474.14776170000005,474.12777800000003,None,473.14407839999967,None,473.14407839999967,None,473.14407839999967,None,474.9717164900002,None,474.9717164900002,None,474.9717164900002,None,,,,,,,,,,,209,25,Female,2022-05-04_15h24.46.611,Main,2022.1.1,60.042678335814436,
negative,positive,1,j,l,,,,,,,,,8,6,150,6,,,,,,,,,,,,,,,,,,,,,,,,main,2,2,1,positive,negative,l,l,1,0.7539114000001064,474.9931495999999,475.9994036999997,475.97968670000046,None,474.9931495999999,None,474.9931495999999,None,474.9931495999999,None,476.73424427999976,None,476.73424427999976,None,476.73424427999976,None,,,,,,,,,,,209,25,Female,2022-05-04_15h24.46.611,Main,2022.1.1,60.042678335814436,
positive,positive,2,l,j,,,,,,,,,8,7,151,11,,,,,,,,,,,,,,,,,,,,,,,,main,1,1,2,positive,positive,j,j,1,0.840015100000528,476.75467910000043,477.7801509000001,477.73253399999976,None,476.75467910000043,None,476.75467910000043,None,476.75467910000043,None,478.5717913899997,None,478.5717913899997,None,478.5717913899997,None,,,,,,,,,,,209,25,Female,2022-05-04_15h24.46.611,Main,2022.1.1,60.042678335814436,
positive,positive,1,l,j,,,,,,,,,8,8,152,2,,,,,,,,,,,,,,,,,,,,,,,,main,1,1,1,positive,positive,j,j,1,0.8562776999997368,478.5938913,479.6154564999997,479.5958824999998,None,478.5938913,None,478.5938913,None,478.5938913,None,480.42722908999974,None,480.42722908999974,None,480.42722908999974,None,,,,,,,,,,,209,25,Female,2022-05-04_15h24.46.611,Main,2022.1.1,60.042678335814436,
positive,neutral,2,l,j,,,,,,,,,8,9,153,17,,,,,,,,,,,,,,,,,,,,,,,,main,2,2,2,neutral,positive,j,j,1,1.0691821000000346,480.45586679999997,481.47608560000026,481.43760010000005,None,480.45586679999997,None,480.45586679999997,None,480.45586679999997,None,482.5047949899998,None,482.5047949899998,None,482.5047949899998,None,,,,,,,,,,,209,25,Female,2022-05-04_15h24.46.611,Main,2022.1.1,60.042678335814436,
neutral,neutral,1,k,k,,,,,,,,,8,10,154,1,,,,,,,,,,,,,,,,,,,,,,,,main,2,2,1,neutral,neutral,k,k,1,0.6764622999999119,482.5269135999997,483.55071659999976,483.50706080000054,None,482.5269135999997,None,482.5269135999997,None,482.5269135999997,None,484.1954255799999,None,484.1954255799999,None,484.1954255799999,None,,,,,,,,,,,209,25,Female,2022-05-04_15h24.46.611,Main,2022.1.1,60.042678335814436,
neutral,neutral,2,k,k,,,,,,,,,8,11,155,10,,,,,,,,,,,,,,,,,,,,,,,,main,1,1,2,neutral,neutral,k,k,1,1.861328300000423,484.20704529999966,485.21541570000045,485.1958015,None,484.20704529999966,None,484.20704529999966,None,484.20704529999966,None,487.05563390000043,None,487.05563390000043,None,487.05563390000043,None,,,,,,,,,,,209,25,Female,2022-05-04_15h24.46.611,Main,2022.1.1,60.042678335814436,
negative,negative,1,j,l,,,,,,,,,8,12,156,0,,,,,,,,,,,,,,,,,,,,,,,,main,1,1,1,negative,negative,l,l,1,1.1133976000000985,488.0721222000002,489.0847306000005,489.0666019,None,488.0721222000002,None,488.0721222000002,None,488.0721222000002,None,490.16485078999983,None,490.16485078999983,None,490.16485078999983,None,,,,,,,,,,,209,25,Female,2022-05-04_15h24.46.611,Main,2022.1.1,60.042678335814436,
neutral,positive,1,k,k,,,,,,,,,8,13,157,4,,,,,,,,,,,,,,,,,,,,,,,,main,2,2,1,positive,neutral,k,k,1,0.6845071999996435,490.1867047000005,491.20988209999996,491.1625248999999,None,490.1867047000005,None,490.1867047000005,None,490.1867047000005,None,491.8523574899999,None,491.8523574899999,None,491.8523574899999,None,,,,,,,,,,,209,25,Female,2022-05-04_15h24.46.611,Main,2022.1.1,60.042678335814436,
neutral,positive,2,k,k,,,,,,,,,8,14,158,13,,,,,,,,,,,,,,,,,,,,,,,,main,2,2,2,positive,neutral,k,k,1,0.6407240999997157,491.8730605999999,492.8832432999998,492.86339860000044,None,491.8730605999999,None,491.8730605999999,None,491.8730605999999,None,493.49631559000034,None,493.49631559000034,None,493.49631559000034,None,,,,,,,,,,,209,25,Female,2022-05-04_15h24.46.611,Main,2022.1.1,60.042678335814436,
negative,neutral,1,j,l,,,,,,,,,8,15,159,3,,,,,,,,,,,,,,,,,,,,,,,,main,1,1,1,neutral,negative,l,l,1,0.8981433999997535,493.5182950999997,494.53151830000024,494.49354719999974,None,493.5182950999997,None,493.5182950999997,None,493.5182950999997,None,495.3982264900004,None,495.3982264900004,None,495.3982264900004,None,,,,,,,,,,,209,25,Female,2022-05-04_15h24.46.611,Main,2022.1.1,60.042678335814436,
neutral,negative,1,k,k,,,,,,,,,8,16,160,7,,,,,,,,,,,,,,,,,,,,,,,,main,2,2,1,negative,neutral,k,k,1,0.5696143000004668,495.41890220000005,496.4391998000001,496.4001263,None,495.41890220000005,None,495.41890220000005,None,495.41890220000005,None,496.97064889,None,496.97064889,None,496.97064889,None,,,,,,,,,,,209,25,Female,2022-05-04_15h24.46.611,Main,2022.1.1,60.042678335814436,
negative,neutral,2,j,l,,,,,,,,,8,17,161,12,,,,,,,,,,,,,,,,,,,,,,,,main,1,1,2,neutral,negative,l,l,1,0.8646377000004577,496.9923501000003,498.0082873000001,497.96853310000006,None,496.9923501000003,None,496.9923501000003,None,496.9923501000003,None,498.8391795900005,None,498.8391795900005,None,498.8391795900005,None,,,,,,,,,,,209,25,Female,2022-05-04_15h24.46.611,Main,2022.1.1,60.042678335814436,
positive,positive,2,l,j,,,,,,,,,9,0,162,11,,,,,,,,,,,,,,,,,,,,,,,,main,2,2,2,positive,positive,j,j,1,0.7195346999997128,498.8610381999997,499.8772528999998,499.8388180000002,None,498.8610381999997,None,498.8610381999997,None,498.8610381999997,None,500.5599005900002,None,500.5599005900002,None,500.5599005900002,None,,,,,,,,,,,209,25,Female,2022-05-04_15h24.46.611,Main,2022.1.1,60.042678335814436,
neutral,positive,1,k,k,,,,,,,,,9,1,163,4,,,,,,,,,,,,,,,,,,,,,,,,main,1,1,1,positive,neutral,k,k,1,0.6520363999998153,500.5808511000005,501.5833416000005,501.56399919999967,None,500.5808511000005,None,500.5808511000005,None,500.5808511000005,None,502.21458728999994,None,502.21458728999994,None,502.21458728999994,None,,,,,,,,,,,209,25,Female,2022-05-04_15h24.46.611,Main,2022.1.1,60.042678335814436,
negative,neutral,2,j,l,,,,,,,,,9,2,164,12,,,,,,,,,,,,,,,,,,,,,,,,main,1,1,2,neutral,negative,l,l,1,0.7356214000001273,502.2377151999999,503.2553078000001,503.21561480000037,None,502.2377151999999,None,502.2377151999999,None,502.2377151999999,None,503.9545359900002,None,503.9545359900002,None,503.9545359900002,None,,,,,,,,,,,209,25,Female,2022-05-04_15h24.46.611,Main,2022.1.1,60.042678335814436,
negative,negative,1,j,l,,,,,,,,,9,3,165,0,,,,,,,,,,,,,,,,,,,,,,,,main,1,1,1,negative,negative,l,l,1,1.1853727999996408,503.97532430000047,504.98382889999993,504.9644274000002,None,503.97532430000047,None,503.97532430000047,None,503.97532430000047,None,506.13998618999983,None,506.13998618999983,None,506.13998618999983,None,,,,,,,,,,,209,25,Female,2022-05-04_15h24.46.611,Main,2022.1.1,60.042678335814436,
negative,positive,2,j,l,,,,,,,,,9,4,166,15,,,,,,,,,,,,,,,,,,,,,,,,main,2,2,2,positive,negative,l,l,1,0.6690274000002319,506.1625138999998,507.1719819,507.1523390000002,None,506.1625138999998,None,506.1625138999998,None,506.1625138999998,None,507.81409918999987,None,507.81409918999987,None,507.81409918999987,None,,,,,,,,,,,209,25,Female,2022-05-04_15h24.46.611,Main,2022.1.1,60.042678335814436,
neutral,neutral,2,k,k,,,,,,,,,9,5,167,10,,,,,,,,,,,,,,,,,,,,,,,,main,1,1,2,neutral,neutral,k,k,1,1.2684909999998126,507.83698809999987,508.84371809999993,508.8237073,None,507.83698809999987,None,507.83698809999987,None,507.83698809999987,None,510.08515128999977,None,510.08515128999977,None,510.08515128999977,None,,,,,,,,,,,209,25,Female,2022-05-04_15h24.46.611,Main,2022.1.1,60.042678335814436,
positive,positive,1,l,j,,,,,,,,,9,6,168,2,,,,,,,,,,,,,,,,,,,,,,,,main,1,1,1,positive,positive,j,j,1,0.7373766000000614,510.1056429999999,511.1185408000001,511.07938209999975,None,510.1056429999999,None,510.1056429999999,None,510.1056429999999,None,511.82363988999975,None,511.82363988999975,None,511.82363988999975,None,,,,,,,,,,,209,25,Female,2022-05-04_15h24.46.611,Main,2022.1.1,60.042678335814436,
positive,neutral,2,l,j,,,,,,,,,9,7,169,17,,,,,,,,,,,,,,,,,,,,,,,,main,2,2,2,neutral,positive,j,j,1,0.7801312000001417,511.8458133000004,512.8688253999999,512.8276563,None,511.8458133000004,None,511.8458133000004,None,511.8458133000004,None,513.6065586900003,None,513.6065586900003,None,513.6065586900003,None,,,,,,,,,,,209,25,Female,2022-05-04_15h24.46.611,Main,2022.1.1,60.042678335814436,
positive,neutral,1,l,j,,,,,,,,,9,8,170,8,,,,,,,,,,,,,,,,,,,,,,,,main,2,2,1,neutral,positive,j,j,1,0.8841797999994014,513.6275565000005,514.6491019000005,514.6021314,None,513.6275565000005,None,513.6275565000005,None,513.6275565000005,None,515.5006014799999,None,515.5006014799999,None,515.5006014799999,None,,,,,,,,,,,209,25,Female,2022-05-04_15h24.46.611,Main,2022.1.1,60.042678335814436,
negative,negative,2,j,l,,,,,,,,,9,9,171,9,,,,,,,,,,,,,,,,,,,,,,,,main,1,1,2,negative,negative,l,l,1,1.255711999999221,515.5199363000002,516.5207194000004,516.5023324000003,None,515.5199363000002,None,515.5199363000002,None,515.5199363000002,None,517.7537945900002,None,517.7537945900002,None,517.7537945900002,None,,,,,,,,,,,209,25,Female,2022-05-04_15h24.46.611,Main,2022.1.1,60.042678335814436,
neutral,negative,2,k,k,,,,,,,,,9,10,172,16,,,,,,,,,,,,,,,,,,,,,,,,main,2,2,2,negative,neutral,k,k,1,0.8814632000003257,517.773921,518.7846514000003,518.7644562000005,None,517.773921,None,517.773921,None,517.773921,None,519.6373119899998,None,519.6373119899998,None,519.6373119899998,None,,,,,,,,,,,209,25,Female,2022-05-04_15h24.46.611,Main,2022.1.1,60.042678335814436,
negative,neutral,1,j,l,,,,,,,,,9,11,173,3,,,,,,,,,,,,,,,,,,,,,,,,main,2,2,1,neutral,negative,l,l,1,0.7376456000001781,519.6581206000001,520.6792194,520.6323283000002,None,519.6581206000001,None,519.6581206000001,None,519.6581206000001,None,521.37948829,None,521.37948829,None,521.37948829,None,,,,,,,,,,,209,25,Female,2022-05-04_15h24.46.611,Main,2022.1.1,60.042678335814436,
negative,positive,1,j,l,,,,,,,,,9,12,174,6,,,,,,,,,,,,,,,,,,,,,,,,main,2,2,1,positive,negative,l,l,1,0.6336788999997225,521.4009398999997,522.4020467999999,522.383444,None,521.4009398999997,None,521.4009398999997,None,521.4009398999997,None,523.0151449900003,None,523.0151449900003,None,523.0151449900003,None,,,,,,,,,,,209,25,Female,2022-05-04_15h24.46.611,Main,2022.1.1,60.042678335814436,
positive,negative,1,l,j,,,,,,,,,9,13,175,5,,,,,,,,,,,,,,,,,,,,,,,,main,2,2,1,negative,positive,j,j,1,0.6812667999993209,523.0360909000001,524.0399107000003,524.0207749000001,None,523.0360909000001,None,523.0360909000001,None,523.0360909000001,None,524.6991705899999,None,524.6991705899999,None,524.6991705899999,None,,,,,,,,,,,209,25,Female,2022-05-04_15h24.46.611,Main,2022.1.1,60.042678335814436,
neutral,neutral,1,k,k,,,,,,,,,9,14,176,1,,,,,,,,,,,,,,,,,,,,,,,,main,1,1,1,neutral,neutral,k,l,0,0.8341026999996757,524.7203403000003,525.7224708000003,525.7035691000001,None,524.7203403000003,None,524.7203403000003,None,524.7203403000003,None,526.5459817999999,None,526.5459817999999,None,526.5459817999999,None,,,,,,,,,,,209,25,Female,2022-05-04_15h24.46.611,Main,2022.1.1,60.042678335814436,
neutral,positive,2,k,k,,,,,,,,,9,15,177,13,,,,,,,,,,,,,,,,,,,,,,,,main,2,2,2,positive,neutral,k,k,1,0.8450474999999642,527.5731537000001,528.5765017000003,528.5765017000003,None,527.5731537000001,None,527.5731537000001,None,527.5731537000001,None,529.3968190900003,None,529.3968190900003,None,529.3968190900003,None,,,,,,,,,,,209,25,Female,2022-05-04_15h24.46.611,Main,2022.1.1,60.042678335814436,
neutral,negative,1,k,k,,,,,,,,,9,16,178,7,,,,,,,,,,,,,,,,,,,,,,,,main,1,1,1,negative,neutral,k,k,1,0.43656780000037543,529.4175996000004,530.4346254000002,530.3975338,None,529.4175996000004,None,529.4175996000004,None,529.4175996000004,None,530.8373551900003,None,530.8373551900003,None,530.8373551900003,None,,,,,,,,,,,209,25,Female,2022-05-04_15h24.46.611,Main,2022.1.1,60.042678335814436,
positive,negative,2,l,j,,,,,,,,,9,17,179,14,,,,,,,,,,,,,,,,,,,,,,,,main,1,1,2,negative,positive,j,j,1,0.7878877000002831,530.8588786,531.8717713000005,531.8325218,None,530.8588786,None,530.8588786,None,530.8588786,None,532.6281595899999,None,532.6281595899999,None,532.6281595899999,None,,,,,,,,,,,209,25,Female,2022-05-04_15h24.46.611,Main,2022.1.1,60.042678335814436,
negative,neutral,1,j,l,,,,,,,,,10,0,180,3,,,,,,,,,,,,,,,,,,,,,,,,main,1,1,1,neutral,negative,l,l,1,0.7200797999994393,532.6488838000005,533.6662513000001,533.6282295000001,None,532.6488838000005,None,532.6488838000005,None,532.6488838000005,None,534.3495610899998,None,534.3495610899998,None,534.3495610899998,None,,,,,,,,,,,209,25,Female,2022-05-04_15h24.46.611,Main,2022.1.1,60.042678335814436,
positive,negative,2,l,j,,,,,,,,,10,1,181,14,,,,,,,,,,,,,,,,,,,,,,,,main,2,2,2,negative,positive,j,j,1,1.0006585000000996,534.3723212000004,535.3826151000003,535.3596785999998,None,534.3723212000004,None,534.3723212000004,None,534.3723212000004,None,536.3650958799997,None,536.3650958799997,None,536.3650958799997,None,,,,,,,,,,,209,25,Female,2022-05-04_15h24.46.611,Main,2022.1.1,60.042678335814436,
positive,neutral,2,l,j,,,,,,,,,10,2,182,17,,,,,,,,,,,,,,,,,,,,,,,,main,2,2,2,neutral,positive,j,j,1,0.825059699999656,536.3773296999998,537.3927150999998,537.3729733,None,536.3773296999998,None,536.3773296999998,None,536.3773296999998,None,538.1821541899998,None,538.1821541899998,None,538.1821541899998,None,,,,,,,,,,,209,25,Female,2022-05-04_15h24.46.611,Main,2022.1.1,60.042678335814436,
neutral,negative,2,k,k,,,,,,,,,10,3,183,16,,,,,,,,,,,,,,,,,,,,,,,,main,1,1,2,negative,neutral,k,k,1,0.8475478000000294,538.2054270999997,539.2261207000001,539.1866498999998,None,538.2054270999997,None,538.2054270999997,None,538.2054270999997,None,540.0326035899997,None,540.0326035899997,None,540.0326035899997,None,,,,,,,,,,,209,25,Female,2022-05-04_15h24.46.611,Main,2022.1.1,60.042678335814436,
positive,neutral,1,l,j,,,,,,,,,10,4,184,8,,,,,,,,,,,,,,,,,,,,,,,,main,1,1,1,neutral,positive,j,j,1,1.3665782999996736,540.0534723999999,541.0609433999998,541.0418258999998,None,540.0534723999999,None,540.0534723999999,None,540.0534723999999,None,542.4029452900003,None,542.4029452900003,None,542.4029452900003,None,,,,,,,,,,,209,25,Female,2022-05-04_15h24.46.611,Main,2022.1.1,60.042678335814436,
positive,positive,1,l,j,,,,,,,,,10,5,185,2,,,,,,,,,,,,,,,,,,,,,,,,main,1,1,1,positive,positive,j,j,1,0.7866267999997945,542.4251596000004,543.4319304999999,543.4130270000005,None,542.4251596000004,None,542.4251596000004,None,542.4251596000004,None,544.1903950900004,None,544.1903950900004,None,544.1903950900004,None,,,,,,,,,,,209,25,Female,2022-05-04_15h24.46.611,Main,2022.1.1,60.042678335814436,
positive,negative,1,l,j,,,,,,,,,10,6,186,5,,,,,,,,,,,,,,,,,,,,,,,,main,1,1,1,negative,positive,j,j,1,0.5658923999999388,544.2127112999997,545.2283126000002,545.1912363000001,None,544.2127112999997,None,544.2127112999997,None,544.2127112999997,None,545.7602142900004,None,545.7602142900004,None,545.7602142900004,None,,,,,,,,,,,209,25,Female,2022-05-04_15h24.46.611,Main,2022.1.1,60.042678335814436,
neutral,neutral,1,k,k,,,,,,,,,10,7,187,1,,,,,,,,,,,,,,,,,,,,,,,,main,1,1,1,neutral,neutral,k,k,1,1.1608603999993647,545.7839767000005,546.7887213000004,546.7704068000003,None,545.7839767000005,None,545.7839767000005,None,545.7839767000005,None,547.9225152899998,None,547.9225152899998,None,547.9225152899998,None,,,,,,,,,,,209,25,Female,2022-05-04_15h24.46.611,Main,2022.1.1,60.042678335814436,
negative,negative,2,j,l,,,,,,,,,10,8,188,9,,,,,,,,,,,,,,,,,,,,,,,,main,1,1,2,negative,negative,l,l,1,0.7631661000004897,547.9446803000001,548.9594574000002,548.9222221,None,547.9446803000001,None,547.9446803000001,None,547.9446803000001,None,549.6997631800002,None,549.6997631800002,None,549.6997631800002,None,,,,,,,,,,,209,25,Female,2022-05-04_15h24.46.611,Main,2022.1.1,60.042678335814436,
neutral,positive,1,k,k,,,,,,,,,10,9,189,4,,,,,,,,,,,,,,,,,,,,,,,,main,2,2,1,positive,neutral,k,k,1,0.7711280000003171,549.7143930000002,550.7209260999998,550.7028768,None,549.7143930000002,None,549.7143930000002,None,549.7143930000002,None,551.4661594899998,None,551.4661594899998,None,551.4661594899998,None,,,,,,,,,,,209,25,Female,2022-05-04_15h24.46.611,Main,2022.1.1,60.042678335814436,
negative,positive,2,j,l,,,,,,,,,10,10,190,15,,,,,,,,,,,,,,,,,,,,,,,,main,1,1,2,positive,negative,l,l,1,0.9513630000001285,551.4859678000003,552.5004534,552.4605045999997,None,551.4859678000003,None,551.4859678000003,None,551.4859678000003,None,553.4190677900004,None,553.4190677900004,None,553.4190677900004,None,,,,,,,,,,,209,25,Female,2022-05-04_15h24.46.611,Main,2022.1.1,60.042678335814436,
negative,neutral,2,j,l,,,,,,,,,10,11,191,12,,,,,,,,,,,,,,,,,,,,,,,,main,1,1,2,neutral,negative,l,l,1,0.6754739999996673,553.4398975000004,554.4583480000001,554.4393006,None,553.4398975000004,None,553.4398975000004,None,553.4398975000004,None,555.0987277900002,None,555.0987277900002,None,555.0987277900002,None,,,,,,,,,,,209,25,Female,2022-05-04_15h24.46.611,Main,2022.1.1,60.042678335814436,
neutral,positive,2,k,k,,,,,,,,,10,12,192,13,,,,,,,,,,,,,,,,,,,,,,,,main,2,2,2,positive,neutral,k,k,1,0.7540772000002107,555.1218380999999,556.1313018000001,556.1110607,None,555.1218380999999,None,555.1218380999999,None,555.1218380999999,None,556.8532740899999,None,556.8532740899999,None,556.8532740899999,None,,,,,,,,,,,209,25,Female,2022-05-04_15h24.46.611,Main,2022.1.1,60.042678335814436,
negative,negative,1,j,l,,,,,,,,,10,13,193,0,,,,,,,,,,,,,,,,,,,,,,,,main,2,2,1,negative,negative,l,k,0,0.505600499999673,556.8754147,557.8888717999998,557.8520097999999,None,556.8754147,None,556.8754147,None,556.8754147,None,558.3707721999999,None,558.3707721999999,None,558.3707721999999,None,,,,,,,,,,,209,25,Female,2022-05-04_15h24.46.611,Main,2022.1.1,60.042678335814436,
neutral,neutral,2,k,k,,,,,,,,,10,14,194,10,,,,,,,,,,,,,,,,,,,,,,,,main,1,1,2,neutral,neutral,k,k,1,0.9413108999997348,559.3907637000002,560.4071339000002,560.3879466999997,None,559.3907637000002,None,559.3907637000002,None,559.3907637000002,None,561.3131418900001,None,561.3131418900001,None,561.3131418900001,None,,,,,,,,,,,209,25,Female,2022-05-04_15h24.46.611,Main,2022.1.1,60.042678335814436,
negative,positive,1,j,l,,,,,,,,,10,15,195,6,,,,,,,,,,,,,,,,,,,,,,,,main,1,1,1,positive,negative,l,l,1,0.8592121000001498,561.3334114999998,562.3412472999998,562.3222618,None,561.3334114999998,None,561.3334114999998,None,561.3334114999998,None,563.1765594899997,None,563.1765594899997,None,563.1765594899997,None,,,,,,,,,,,209,25,Female,2022-05-04_15h24.46.611,Main,2022.1.1,60.042678335814436,
positive,positive,2,l,j,,,,,,,,,10,16,196,11,,,,,,,,,,,,,,,,,,,,,,,,main,2,2,2,positive,positive,j,j,1,1.5560149000002639,563.1986331999997,564.2120124000003,564.1709233000001,None,563.1986331999997,None,563.1986331999997,None,563.1986331999997,None,565.7396191999997,None,565.7396191999997,None,565.7396191999997,None,,,,,,,,,,,209,25,Female,2022-05-04_15h24.46.611,Main,2022.1.1,60.042678335814436,
neutral,negative,1,k,k,,,,,,,,,10,17,197,7,,,,,,,,,,,,,,,,,,,,,,,,main,2,2,1,negative,neutral,k,k,1,0.987210999999661,566.7533415999997,567.7724178999997,567.7345430000005,None,566.7533415999997,None,566.7533415999997,None,566.7533415999997,None,568.7217711900001,None,568.7217711900001,None,568.7217711900001,None,,,,,,,,,,,209,25,Female,2022-05-04_15h24.46.611,Main,2022.1.1,60.042678335814436,
positive,negative,1,l,j,,,,,,,,,11,0,198,5,,,,,,,,,,,,,,,,,,,,,,,,main,1,1,1,negative,positive,j,j,1,1.429297000000588,568.7430227000004,569.7529942000001,569.7154952000001,None,568.7430227000004,None,568.7430227000004,None,568.7430227000004,None,571.1539891900001,None,571.1539891900001,None,571.1539891900001,None,,,,,,,,,,,209,25,Female,2022-05-04_15h24.46.611,Main,2022.1.1,60.042678335814436,
positive,negative,2,l,j,,,,,,,,,11,1,199,14,,,,,,,,,,,,,,,,,,,,,,,,main,1,1,2,negative,positive,j,j,1,1.1107928000001266,571.177404,572.1937794000005,572.1740056999997,None,571.177404,None,571.177404,None,571.177404,None,573.2679369900005,None,573.2679369900005,None,573.2679369900005,None,,,,,,,,,,,209,25,Female,2022-05-04_15h24.46.611,Main,2022.1.1,60.042678335814436,
negative,neutral,2,j,l,,,,,,,,,11,2,200,12,,,,,,,,,,,,,,,,,,,,,,,,main,2,2,2,neutral,negative,l,l,1,0.6811821999999665,573.2879223999998,574.3079091,574.2647845000001,None,573.2879223999998,None,573.2879223999998,None,573.2879223999998,None,574.9512000900003,None,574.9512000900003,None,574.9512000900003,None,,,,,,,,,,,209,25,Female,2022-05-04_15h24.46.611,Main,2022.1.1,60.042678335814436,
negative,positive,2,j,l,,,,,,,,,11,3,201,15,,,,,,,,,,,,,,,,,,,,,,,,main,1,1,2,positive,negative,l,j,0,0.826885499999662,574.9715461000005,575.9816442000001,575.9440454000005,None,574.9715461000005,None,574.9715461000005,None,574.9715461000005,None,576.7848948000001,None,576.7848948000001,None,576.7848948000001,None,,,,,,,,,,,209,25,Female,2022-05-04_15h24.46.611,Main,2022.1.1,60.042678335814436,
neutral,negative,2,k,k,,,,,,,,,11,4,202,16,,,,,,,,,,,,,,,,,,,,,,,,main,1,1,2,negative,neutral,k,k,1,0.7346565999996528,577.7985263,578.8142114000002,578.7767968999997,None,577.7985263,None,577.7985263,None,577.7985263,None,579.5135441900001,None,579.5135441900001,None,579.5135441900001,None,,,,,,,,,,,209,25,Female,2022-05-04_15h24.46.611,Main,2022.1.1,60.042678335814436,
neutral,positive,1,k,k,,,,,,,,,11,5,203,4,,,,,,,,,,,,,,,,,,,,,,,,main,2,2,1,positive,neutral,k,k,1,1.330456900000172,579.5337214000001,580.5457268,580.5073836000001,None,579.5337214000001,None,579.5337214000001,None,579.5337214000001,None,581.8453130899996,None,581.8453130899996,None,581.8453130899996,None,,,,,,,,,,,209,25,Female,2022-05-04_15h24.46.611,Main,2022.1.1,60.042678335814436,
positive,neutral,2,l,j,,,,,,,,,11,6,204,17,,,,,,,,,,,,,,,,,,,,,,,,main,1,1,2,neutral,positive,j,j,1,0.7987218000007488,581.8680205000001,582.8766053999998,582.8563655999997,None,581.8680205000001,None,581.8680205000001,None,581.8680205000001,None,583.6490902900003,None,583.6490902900003,None,583.6490902900003,None,,,,,,,,,,,209,25,Female,2022-05-04_15h24.46.611,Main,2022.1.1,60.042678335814436,
negative,negative,1,j,l,,,,,,,,,11,7,205,0,,,,,,,,,,,,,,,,,,,,,,,,main,2,2,1,negative,negative,l,l,1,0.6706135000003997,583.6705319000002,584.6719518999998,584.6529299000003,None,583.6705319000002,None,583.6705319000002,None,583.6705319000002,None,585.3205862900003,None,585.3205862900003,None,585.3205862900003,None,,,,,,,,,,,209,25,Female,2022-05-04_15h24.46.611,Main,2022.1.1,60.042678335814436,
positive,positive,1,l,j,,,,,,,,,11,8,206,2,,,,,,,,,,,,,,,,,,,,,,,,main,2,2,1,positive,positive,j,j,1,0.8652252000001681,585.3426510999998,586.3582806000004,586.3209238999998,None,585.3426510999998,None,585.3426510999998,None,585.3426510999998,None,587.1880635900005,None,587.1880635900005,None,587.1880635900005,None,,,,,,,,,,,209,25,Female,2022-05-04_15h24.46.611,Main,2022.1.1,60.042678335814436,
neutral,positive,2,k,k,,,,,,,,,11,9,207,13,,,,,,,,,,,,,,,,,,,,,,,,main,2,2,2,positive,neutral,k,k,1,0.7278195999997479,587.2103545,588.2313971000003,588.1927286,None,587.2103545,None,587.2103545,None,587.2103545,None,588.9197472900004,None,588.9197472900004,None,588.9197472900004,None,,,,,,,,,,,209,25,Female,2022-05-04_15h24.46.611,Main,2022.1.1,60.042678335814436,
positive,neutral,1,l,j,,,,,,,,,11,10,208,8,,,,,,,,,,,,,,,,,,,,,,,,main,2,2,1,neutral,positive,j,j,1,0.7607252000007065,588.9408433999997,589.9624426,589.9343187000004,None,588.9408433999997,None,588.9408433999997,None,588.9408433999997,None,590.6852354900001,None,590.6852354900001,None,590.6852354900001,None,,,,,,,,,,,209,25,Female,2022-05-04_15h24.46.611,Main,2022.1.1,60.042678335814436,
neutral,neutral,1,k,k,,,,,,,,,11,11,209,1,,,,,,,,,,,,,,,,,,,,,,,,main,2,2,1,neutral,neutral,k,k,1,0.6321392999998352,590.7053993999998,591.7270983999997,591.6874499000005,None,590.7053993999998,None,590.7053993999998,None,590.7053993999998,None,592.32794188,None,592.32794188,None,592.32794188,None,,,,,,,,,,,209,25,Female,2022-05-04_15h24.46.611,Main,2022.1.1,60.042678335814436,
neutral,neutral,2,k,k,,,,,,,,,11,12,210,10,,,,,,,,,,,,,,,,,,,,,,,,main,2,2,2,neutral,neutral,k,k,1,0.6815832000002047,592.3461637,593.3637485999998,593.3434883999998,None,592.3461637,None,592.3461637,None,592.3461637,None,594.00555729,None,594.00555729,None,594.00555729,None,,,,,,,,,,,209,25,Female,2022-05-04_15h24.46.611,Main,2022.1.1,60.042678335814436,
