target,distractor,set,ans1,ans2,rep_loop2.thisRepN,rep_loop2.thisTrialN,rep_loop2.thisN,rep_loop2.thisIndex,flanker_prac_loop.thisRepN,flanker_prac_loop.thisTrialN,flanker_prac_loop.thisN,flanker_prac_loop.thisIndex,flanker_main_loop.thisRepN,flanker_main_loop.thisTrialN,flanker_main_loop.thisN,flanker_main_loop.thisIndex,fl_inst_resp.keys,mouse.x,mouse.y,mouse.leftButton,mouse.midButton,mouse.rightButton,mouse.started,mouse.stopped,sound_1.started,sound_1.stopped,no_text.started,no_text.stopped,yes_text.started,yes_text.stopped,mouse_2.x,mouse_2.y,mouse_2.leftButton,mouse_2.midButton,mouse_2.rightButton,mouse_2.started,mouse_2.stopped,back_2.started,back_2.stopped,main_prac,fl_cold,fl_colt,fl_set,fl_dcond,fl_tcond,fl_ans,fl_res,fl_corr,fl_rt,fix_fl.started,fix_fl.stopped,targ.started,targ.stopped,j_button.started,j_button.stopped,k_button.started,k_button.stopped,l_button.started,l_button.stopped,j_button2.started,j_button2.stopped,k_button2.started,k_button2.stopped,l_button2.started,l_button2.stopped,mainback.started,mainback.stopped,key_resp.keys,mouse_6.x,mouse_6.y,mouse_6.leftButton,mouse_6.midButton,mouse_6.rightButton,mouse_6.started,mouse_6.stopped,id*,age*,gender*,date,expName,psychopyVersion,frameRate,
,,,,,0,0,0,0,,,,,,,,,None,0.121296294,-0.41203704,0,0,0,1.0156326803116826,None,20.64038715999923,None,69.57067299999471,None,69.57067299999471,None,-0.125,-0.08888889,0,0,0,0.01291766001668293,None,,,,,,,,,,,,,,,,,,,,,,,,,,,,,,,,,,,,,,,210,24,Female,2022-05-04_16h54.10.895,Main,2022.1.1,60.01154621684275,
negative,negative,2,j,l,,,,,0,0,0,9,,,,,,,,,,,,,,,,,,,,,,,,,,73.3004465999984,None,prac,2,2,2,negative,negative,j,j,1,1.908892499996,75.32628309998836,76.33109929999046,76.31176179999602,None,75.32628309998836,None,75.32628309998836,None,75.32628309998836,None,78.23909709999862,None,78.23909709999862,None,78.23909709999862,None,,,,,,,,,,,210,24,Female,2022-05-04_16h54.10.895,Main,2022.1.1,60.01154621684275,
negative,positive,1,j,l,,,,,0,1,1,6,,,,,,,,,,,,,,,,,,,,,,,,,,,,prac,2,2,1,positive,negative,j,j,1,0.8199807000055443,79.26280640000186,80.28551190000144,80.24378469999647,None,79.26280640000186,None,79.26280640000186,None,79.26280640000186,None,81.06310706000076,None,81.06310706000076,None,81.06310706000076,None,,,,,,,,,,,210,24,Female,2022-05-04_16h54.10.895,Main,2022.1.1,60.01154621684275,
neutral,negative,2,k,k,,,,,0,2,2,16,,,,,,,,,,,,,,,,,,,,,,,,,,,,prac,2,2,2,negative,neutral,k,k,1,0.966968699998688,81.08574019999651,82.09939759998815,82.07956859999103,None,81.08574019999651,None,81.08574019999651,None,81.08574019999651,None,83.03494475999614,None,83.03494475999614,None,83.03494475999614,None,,,,,,,,,,,210,24,Female,2022-05-04_16h54.10.895,Main,2022.1.1,60.01154621684275,
neutral,neutral,1,k,k,,,,,0,3,3,1,,,,,,,,,,,,,,,,,,,,,,,,,,,,prac,2,2,1,neutral,neutral,k,k,1,0.8436828999983845,83.053837200001,84.06553839999833,84.0259803999943,None,83.053837200001,None,83.053837200001,None,83.053837200001,None,84.88054195998993,None,84.88054195998993,None,84.88054195998993,None,,,,,,,,,,,210,24,Female,2022-05-04_16h54.10.895,Main,2022.1.1,60.01154621684275,
negative,positive,2,j,l,,,,,0,4,4,15,,,,,,,,,,,,,,,,,,,,,,,,,,,,prac,1,1,2,positive,negative,j,j,1,0.8509597000083886,84.9010680999927,85.91289419999521,85.89168469999277,None,84.9010680999927,None,84.9010680999927,None,84.9010680999927,None,86.7339576600003,None,86.7339576600003,None,86.7339576600003,None,,,,,,,,,,,210,24,Female,2022-05-04_16h54.10.895,Main,2022.1.1,60.01154621684275,
positive,negative,2,l,j,,,,,0,5,5,14,,,,,,,,,,,,,,,,,,,,,,,,,,,,prac,1,1,2,negative,positive,l,l,1,0.8806352999963565,86.75516279999283,87.75894200000039,87.73972749999666,None,86.75516279999283,None,86.75516279999283,None,86.75516279999283,None,88.61555476000066,None,88.61555476000066,None,88.61555476000066,None,,,,,,,,,,,210,24,Female,2022-05-04_16h54.10.895,Main,2022.1.1,60.01154621684275,
neutral,neutral,2,k,k,,,,,0,6,6,10,,,,,,,,,,,,,,,,,,,,,,,,,,,,prac,1,1,2,neutral,neutral,k,k,1,1.362178399998811,88.6361484999943,89.64535459999752,89.6254215999943,None,88.6361484999943,None,88.6361484999943,None,88.6361484999943,None,90.981008559998,None,90.981008559998,None,90.981008559998,None,,,,,,,,,,,210,24,Female,2022-05-04_16h54.10.895,Main,2022.1.1,60.01154621684275,
positive,positive,2,l,j,,,,,0,7,7,11,,,,,,,,,,,,,,,,,,,,,,,,,,,,prac,1,1,2,positive,positive,l,k,0,-0.7149615000089398,91.00189649999083,None,None,None,91.00189649999083,None,91.00189649999083,None,91.00189649999083,None,91.28414160000102,None,91.28414160000102,None,91.28414160000102,None,,,,,,,,,,,210,24,Female,2022-05-04_16h54.10.895,Main,2022.1.1,60.01154621684275,
neutral,positive,2,k,k,,,,,0,8,8,13,,,,,,,,,,,,,,,,,,,,,,,,,,,,prac,1,1,2,positive,neutral,k,j,0,0.9586112999968464,94.30969299998833,95.32069549999142,95.3005101000017,None,94.30969299998833,None,94.30969299998833,None,94.30969299998833,None,96.25764080000226,None,96.25764080000226,None,96.25764080000226,None,,,,,,,,,,,210,24,Female,2022-05-04_16h54.10.895,Main,2022.1.1,60.01154621684275,
positive,negative,1,l,j,,,,,0,9,9,5,,,,,,,,,,,,,,,,,,,,,,,,,,,,prac,2,2,1,negative,positive,l,l,1,1.4824850000004517,97.27646269999968,98.28823059999559,98.26874659999157,None,97.27646269999968,None,97.27646269999968,None,97.27646269999968,None,99.73704816000244,None,99.73704816000244,None,99.73704816000244,None,,,,,,,,,,,210,24,Female,2022-05-04_16h54.10.895,Main,2022.1.1,60.01154621684275,
positive,neutral,1,l,j,,,,,0,10,10,8,,,,,,,,,,,,,,,,,,,,,,,,,,,,prac,1,1,1,neutral,positive,l,l,1,0.9819829000043683,99.75908309999795,100.7641314999928,100.74490079999669,None,99.75908309999795,None,99.75908309999795,None,99.75908309999795,None,101.7222008600016,None,101.7222008600016,None,101.7222008600016,None,,,,,,,,,,,210,24,Female,2022-05-04_16h54.10.895,Main,2022.1.1,60.01154621684275,
negative,neutral,1,j,l,,,,,0,11,11,3,,,,,,,,,,,,,,,,,,,,,,,,,,,,prac,2,2,1,neutral,negative,j,j,1,0.7014600999973482,101.74255709999125,102.74417589999211,102.72518129998934,None,101.74255709999125,None,101.74255709999125,None,101.74255709999125,None,103.42753815999603,None,103.42753815999603,None,103.42753815999603,None,,,,,,,,,,,210,24,Female,2022-05-04_16h54.10.895,Main,2022.1.1,60.01154621684275,
negative,neutral,2,j,l,,,,,0,12,12,12,,,,,,,,,,,,,,,,,,,,,,,,,,,,prac,1,1,2,neutral,negative,j,j,1,0.8646864999900572,103.4464627999987,104.44975390000036,104.43045699999493,None,103.4464627999987,None,103.4464627999987,None,103.4464627999987,None,105.29229295999684,None,105.29229295999684,None,105.29229295999684,None,,,,,,,,,,,210,24,Female,2022-05-04_16h54.10.895,Main,2022.1.1,60.01154621684275,
neutral,positive,1,k,k,,,,,0,13,13,4,,,,,,,,,,,,,,,,,,,,,,,,,,,,prac,1,1,1,positive,neutral,k,k,1,0.6953217999980552,105.31286629999522,106.32517469998857,106.28780459999689,None,105.31286629999522,None,105.31286629999522,None,105.31286629999522,None,106.9885108599934,None,106.9885108599934,None,106.9885108599934,None,,,,,,,,,,,210,24,Female,2022-05-04_16h54.10.895,Main,2022.1.1,60.01154621684275,
neutral,negative,1,k,k,,,,,0,14,14,7,,,,,,,,,,,,,,,,,,,,,,,,,,,,prac,2,2,1,negative,neutral,k,k,1,0.7477520999964327,107.00998619999154,108.02590049999708,107.98957939998945,None,107.00998619999154,None,107.00998619999154,None,107.00998619999154,None,108.73939895998919,None,108.73939895998919,None,108.73939895998919,None,,,,,,,,,,,210,24,Female,2022-05-04_16h54.10.895,Main,2022.1.1,60.01154621684275,
positive,positive,1,l,j,,,,,0,15,15,2,,,,,,,,,,,,,,,,,,,,,,,,,,,,prac,1,1,1,positive,positive,l,l,1,0.6957281999930274,108.76240649999818,109.77405369999178,109.73576529999264,None,108.76240649999818,None,108.76240649999818,None,108.76240649999818,None,110.43787845999177,None,110.43787845999177,None,110.43787845999177,None,,,,,,,,,,,210,24,Female,2022-05-04_16h54.10.895,Main,2022.1.1,60.01154621684275,
positive,neutral,2,l,j,,,,,0,16,16,17,,,,,,,,,,,,,,,,,,,,,,,,,,,,prac,1,1,2,neutral,positive,l,l,1,1.0462587000074564,110.45887219998986,111.47428840000066,111.43706620000012,None,110.45887219998986,None,110.45887219998986,None,110.45887219998986,None,112.48628855999559,None,112.48628855999559,None,112.48628855999559,None,,,,,,,,,,,210,24,Female,2022-05-04_16h54.10.895,Main,2022.1.1,60.01154621684275,
negative,negative,1,j,l,,,,,0,17,17,0,,,,,,,,,,,,,,,,,,,,,,,,,,,,prac,1,1,1,negative,negative,j,j,1,0.7340618000016548,112.50769339999533,113.51549759999034,113.49451619999309,None,112.50769339999533,None,112.50769339999533,None,112.50769339999533,None,114.22217575999966,None,114.22217575999966,None,114.22217575999966,None,,,,,,,,,,,210,24,Female,2022-05-04_16h54.10.895,Main,2022.1.1,60.01154621684275,
negative,negative,1,j,l,,,,,1,0,18,0,,,,,,,,,,,,,,,,,,,,,,,,,,,,prac,1,1,1,negative,negative,j,j,1,0.6653679000010015,114.24260729999514,115.25660019999486,115.21684909999021,None,114.24260729999514,None,114.24260729999514,None,114.24260729999514,None,115.89110226000193,None,115.89110226000193,None,115.89110226000193,None,,,,,,,,,,,210,24,Female,2022-05-04_16h54.10.895,Main,2022.1.1,60.01154621684275,
positive,positive,1,l,j,,,,,1,1,19,2,,,,,,,,,,,,,,,,,,,,,,,,,,,,prac,1,1,1,positive,positive,l,l,1,0.9641258000046946,115.91181199999119,116.91886140000133,116.90029679999861,None,115.91181199999119,None,115.91181199999119,None,115.91181199999119,None,117.85681435999285,None,117.85681435999285,None,117.85681435999285,None,,,,,,,,,,,210,24,Female,2022-05-04_16h54.10.895,Main,2022.1.1,60.01154621684275,
neutral,positive,2,k,k,,,,,1,2,20,13,,,,,,,,,,,,,,,,,,,,,,,,,,,,prac,2,2,2,positive,neutral,k,k,1,0.7822344000014709,117.87841169998865,118.886339699995,118.8660785999964,None,117.87841169998865,None,117.87841169998865,None,117.87841169998865,None,119.6438652599987,None,119.6438652599987,None,119.6438652599987,None,,,,,,,,,,,210,24,Female,2022-05-04_16h54.10.895,Main,2022.1.1,60.01154621684275,
positive,neutral,2,l,j,,,,,1,3,21,17,,,,,,,,,,,,,,,,,,,,,,,,,,,,prac,1,1,2,neutral,positive,l,l,1,1.248765700001968,119.66548919999332,120.67883229999279,120.6565597000008,None,119.66548919999332,None,119.66548919999332,None,119.66548919999332,None,121.89500256000028,None,121.89500256000028,None,121.89500256000028,None,,,,,,,,,,,210,24,Female,2022-05-04_16h54.10.895,Main,2022.1.1,60.01154621684275,
neutral,neutral,2,k,k,,,,,1,4,22,10,,,,,,,,,,,,,,,,,,,,,,,,,,,,prac,1,1,2,neutral,neutral,k,k,1,0.7409957000054419,121.91691619998892,122.93235009998898,122.89090669999132,None,121.91691619998892,None,121.91691619998892,None,121.91691619998892,None,123.63609005999169,None,123.63609005999169,None,123.63609005999169,None,,,,,,,,,,,210,24,Female,2022-05-04_16h54.10.895,Main,2022.1.1,60.01154621684275,
positive,positive,2,l,j,,,,,1,5,23,11,,,,,,,,,,,,,,,,,,,,,,,,,,,,prac,1,1,2,positive,positive,l,l,1,0.7131023999972967,123.66279889999714,124.6815920999943,124.64182540000184,None,123.66279889999714,None,123.66279889999714,None,123.66279889999714,None,125.3517073600029,None,125.3517073600029,None,125.3517073600029,None,,,,,,,,,,,210,24,Female,2022-05-04_16h54.10.895,Main,2022.1.1,60.01154621684275,
positive,negative,2,l,j,,,,,1,6,24,14,,,,,,,,,,,,,,,,,,,,,,,,,,,,prac,1,1,2,negative,positive,l,l,1,1.5848899999982677,125.37117050000234,126.3883036999905,126.34897569999157,None,125.37117050000234,None,125.37117050000234,None,125.37117050000234,None,127.9477249999909,None,127.9477249999909,None,127.9477249999909,None,,,,,,,,,,,210,24,Female,2022-05-04_16h54.10.895,Main,2022.1.1,60.01154621684275,
neutral,neutral,1,k,k,,,,,1,7,25,1,,,,,,,,,,,,,,,,,,,,,,,,,,,,prac,2,2,1,neutral,neutral,k,k,1,0.9778815000026952,128.97131889998855,129.98085320000246,129.9615391999978,None,128.97131889998855,None,128.97131889998855,None,128.97131889998855,None,130.9308134599938,None,130.9308134599938,None,130.9308134599938,None,,,,,,,,,,,210,24,Female,2022-05-04_16h54.10.895,Main,2022.1.1,60.01154621684275,
negative,positive,2,j,l,,,,,1,8,26,15,,,,,,,,,,,,,,,,,,,,,,,,,,,,prac,1,1,2,positive,negative,j,j,1,0.8812335999973584,130.95173519999662,131.957671199998,131.9388401999895,None,130.95173519999662,None,130.95173519999662,None,130.95173519999662,None,132.8145014599955,None,132.8145014599955,None,132.8145014599955,None,,,,,,,,,,,210,24,Female,2022-05-04_16h54.10.895,Main,2022.1.1,60.01154621684275,
neutral,positive,1,k,k,,,,,1,9,27,4,,,,,,,,,,,,,,,,,,,,,,,,,,,,prac,1,1,1,positive,neutral,k,k,1,0.7463406000024406,132.83629739999014,133.84007629999542,133.82120379999105,None,132.83629739999014,None,132.83629739999014,None,132.83629739999014,None,134.56482935998937,None,134.56482935998937,None,134.56482935998937,None,,,,,,,,,,,210,24,Female,2022-05-04_16h54.10.895,Main,2022.1.1,60.01154621684275,
positive,neutral,1,l,j,,,,,1,10,28,8,,,,,,,,,,,,,,,,,,,,,,,,,,,,prac,2,2,1,neutral,positive,l,l,1,0.8077338999864878,134.58471579999605,135.59681589998945,135.55747509999492,None,134.58471579999605,None,134.58471579999605,None,134.58471579999605,None,136.3759607600019,None,136.3759607600019,None,136.3759607600019,None,,,,,,,,,,,210,24,Female,2022-05-04_16h54.10.895,Main,2022.1.1,60.01154621684275,
positive,negative,1,l,j,,,,,1,11,29,5,,,,,,,,,,,,,,,,,,,,,,,,,,,,prac,1,1,1,negative,positive,l,l,1,0.7755840000027092,136.39530139999988,137.40385469999455,137.385111399999,None,136.39530139999988,None,136.39530139999988,None,136.39530139999988,None,138.15226045999734,None,138.15226045999734,None,138.15226045999734,None,,,,,,,,,,,210,24,Female,2022-05-04_16h54.10.895,Main,2022.1.1,60.01154621684275,
neutral,negative,1,k,k,,,,,1,12,30,7,,,,,,,,,,,,,,,,,,,,,,,,,,,,prac,2,2,1,negative,neutral,k,k,1,0.7361429000011412,138.17213679999986,139.1859611999971,139.14743549999548,None,138.17213679999986,None,138.17213679999986,None,138.17213679999986,None,139.89228825999598,None,139.89228825999598,None,139.89228825999598,None,,,,,,,,,,,210,24,Female,2022-05-04_16h54.10.895,Main,2022.1.1,60.01154621684275,
negative,negative,2,j,l,,,,,1,13,31,9,,,,,,,,,,,,,,,,,,,,,,,,,,,,prac,2,2,2,negative,negative,j,j,1,0.677688899988425,139.9144196999987,140.92562489998818,140.8867154999898,None,139.9144196999987,None,139.9144196999987,None,139.9144196999987,None,141.5697938600002,None,141.5697938600002,None,141.5697938600002,None,,,,,,,,,,,210,24,Female,2022-05-04_16h54.10.895,Main,2022.1.1,60.01154621684275,
negative,positive,1,j,l,,,,,1,14,32,6,,,,,,,,,,,,,,,,,,,,,,,,,,,,prac,2,2,1,positive,negative,j,j,1,0.7504425000079209,141.5954730999947,142.61521659999562,142.5755183000001,None,141.5954730999947,None,141.5954730999947,None,141.5954730999947,None,143.32473855999123,None,143.32473855999123,None,143.32473855999123,None,,,,,,,,,,,210,24,Female,2022-05-04_16h54.10.895,Main,2022.1.1,60.01154621684275,
negative,neutral,1,j,l,,,,,1,15,33,3,,,,,,,,,,,,,,,,,,,,,,,,,,,,prac,1,1,1,neutral,negative,j,j,1,0.7399631000007503,143.34726199999568,144.34911899999133,144.3297501999914,None,143.34726199999568,None,143.34726199999568,None,143.34726199999568,None,145.06518086000287,None,145.06518086000287,None,145.06518086000287,None,,,,,,,,,,,210,24,Female,2022-05-04_16h54.10.895,Main,2022.1.1,60.01154621684275,
negative,neutral,2,j,l,,,,,1,16,34,12,,,,,,,,,,,,,,,,,,,,,,,,,,,,prac,2,2,2,neutral,negative,j,j,1,0.6670330999913858,145.08629479999945,146.09432289999677,146.07412209999165,None,145.08629479999945,None,145.08629479999945,None,145.08629479999945,None,146.73369385999976,None,146.73369385999976,None,146.73369385999976,None,,,,,,,,,,,210,24,Female,2022-05-04_16h54.10.895,Main,2022.1.1,60.01154621684275,
neutral,negative,2,k,k,,,,,1,17,35,16,,,,,,,,,,,,,,,,,,,,,,,,,,,,prac,2,2,2,negative,neutral,k,k,1,0.7733827000047313,146.75466489999963,147.76878469999065,147.72970739999437,None,146.75466489999963,None,146.75466489999963,None,146.75466489999963,None,148.50993625999544,None,148.50993625999544,None,148.50993625999544,None,,,,,,,,,,,210,24,Female,2022-05-04_16h54.10.895,Main,2022.1.1,60.01154621684275,
,,,,,,,,,,,,,,,,,,,,,,,,,,,,,,,,,,,,,,,,,,,,,,,,,,,,,,,,,,,,,,,,,,148.51762020000024,None,None,,,,,,,,210,24,Female,2022-05-04_16h54.10.895,Main,2022.1.1,60.01154621684275,
,,,,,,,,,,,,,,,,,,,,,,,,,,,,,,,,,,,,,,,,,,,,,,,,,,,,,,,,,,,,,,,,,,,,,0.022222223,-0.046296295,1,0,0,0.002843960013706237,None,210,24,Female,2022-05-04_16h54.10.895,Main,2022.1.1,60.01154621684275,
negative,negative,1,j,l,,,,,,,,,0,0,0,0,,,,,,,,,,,,,,,,,,,,,,150.82400579999376,None,main,1,1,1,negative,negative,j,j,1,1.2273289000004297,152.84538699999393,153.857832099995,153.81891049999103,None,152.84538699999393,None,152.84538699999393,None,152.84538699999393,None,155.0516982599889,None,155.0516982599889,None,155.0516982599889,None,,,,,,,,,,,210,24,Female,2022-05-04_16h54.10.895,Main,2022.1.1,60.01154621684275,
neutral,positive,2,k,k,,,,,,,,,0,1,1,13,,,,,,,,,,,,,,,,,,,,,,,,main,1,1,2,positive,neutral,k,k,1,0.791660500006401,155.07631720000063,156.08271889999742,156.06438529999286,None,155.07631720000063,None,155.07631720000063,None,155.07631720000063,None,156.84836805999802,None,156.84836805999802,None,156.84836805999802,None,,,,,,,,,,,210,24,Female,2022-05-04_16h54.10.895,Main,2022.1.1,60.01154621684275,
negative,neutral,2,j,l,,,,,,,,,0,2,2,12,,,,,,,,,,,,,,,,,,,,,,,,main,2,2,2,neutral,negative,j,j,1,0.7608635999931721,156.87298960000044,157.884521999993,157.8457211999921,None,156.87298960000044,None,156.87298960000044,None,156.87298960000044,None,158.61202595999347,None,158.61202595999347,None,158.61202595999347,None,,,,,,,,,,,210,24,Female,2022-05-04_16h54.10.895,Main,2022.1.1,60.01154621684275,
positive,positive,2,l,j,,,,,,,,,0,3,3,11,,,,,,,,,,,,,,,,,,,,,,,,main,2,2,2,positive,positive,l,l,1,0.7249505999934627,158.63416269999288,159.6547303999978,159.61461409999174,None,158.63416269999288,None,158.63416269999288,None,158.63416269999288,None,160.34142665999534,None,160.34142665999534,None,160.34142665999534,None,,,,,,,,,,,210,24,Female,2022-05-04_16h54.10.895,Main,2022.1.1,60.01154621684275,
positive,negative,2,l,j,,,,,,,,,0,4,4,14,,,,,,,,,,,,,,,,,,,,,,,,main,1,1,2,negative,positive,l,l,1,0.7183860000077402,160.36362009998993,161.37844149999728,161.35740199999418,None,160.36362009998993,None,160.36362009998993,None,160.36362009998993,None,162.06302525998908,None,162.06302525998908,None,162.06302525998908,None,,,,,,,,,,,210,24,Female,2022-05-04_16h54.10.895,Main,2022.1.1,60.01154621684275,
negative,neutral,1,j,l,,,,,,,,,0,5,5,3,,,,,,,,,,,,,,,,,,,,,,,,main,2,2,1,neutral,negative,j,j,1,0.7388535999925807,162.0836477999983,163.10017629999493,163.06081119998998,None,162.0836477999983,None,162.0836477999983,None,162.0836477999983,None,163.8059785599995,None,163.8059785599995,None,163.8059785599995,None,,,,,,,,,,,210,24,Female,2022-05-04_16h54.10.895,Main,2022.1.1,60.01154621684275,
neutral,neutral,2,k,k,,,,,,,,,0,6,6,10,,,,,,,,,,,,,,,,,,,,,,,,main,2,2,2,neutral,neutral,k,k,1,0.5810925999976462,163.82781199998863,164.8434993999981,164.80359039999894,None,163.82781199998863,None,163.82781199998863,None,163.82781199998863,None,165.38858405999198,None,165.38858405999198,None,165.38858405999198,None,,,,,,,,,,,210,24,Female,2022-05-04_16h54.10.895,Main,2022.1.1,60.01154621684275,
positive,negative,1,l,j,,,,,,,,,0,7,7,5,,,,,,,,,,,,,,,,,,,,,,,,main,1,1,1,negative,positive,l,l,1,0.7970470000000205,165.41002409999783,166.42546230000153,166.38579539999773,None,165.41002409999783,None,165.41002409999783,None,165.41002409999783,None,167.189515560001,None,167.189515560001,None,167.189515560001,None,,,,,,,,,,,210,24,Female,2022-05-04_16h54.10.895,Main,2022.1.1,60.01154621684275,
neutral,neutral,1,k,k,,,,,,,,,0,8,8,1,,,,,,,,,,,,,,,,,,,,,,,,main,2,2,1,neutral,neutral,k,k,1,0.757361399999354,167.2094059999945,168.22248529999342,168.18321570000262,None,167.2094059999945,None,167.2094059999945,None,167.2094059999945,None,168.9470525599987,None,168.9470525599987,None,168.9470525599987,None,,,,,,,,,,,210,24,Female,2022-05-04_16h54.10.895,Main,2022.1.1,60.01154621684275,
negative,positive,2,j,l,,,,,,,,,0,9,9,15,,,,,,,,,,,,,,,,,,,,,,,,main,2,2,2,positive,negative,j,j,1,0.631731800007401,168.97201230000064,169.99358309998934,169.95155240000167,None,168.97201230000064,None,168.97201230000064,None,168.97201230000064,None,170.57875316000136,None,170.57875316000136,None,170.57875316000136,None,,,,,,,,,,,210,24,Female,2022-05-04_16h54.10.895,Main,2022.1.1,60.01154621684275,
negative,negative,2,j,l,,,,,,,,,0,10,10,9,,,,,,,,,,,,,,,,,,,,,,,,main,2,2,2,negative,negative,j,j,1,0.5960376000002725,170.60537619999377,171.61407619999954,171.59516450000228,None,170.60537619999377,None,170.60537619999377,None,170.60537619999377,None,172.1800896599976,None,172.1800896599976,None,172.1800896599976,None,,,,,,,,,,,210,24,Female,2022-05-04_16h54.10.895,Main,2022.1.1,60.01154621684275,
positive,neutral,1,l,j,,,,,,,,,0,11,11,8,,,,,,,,,,,,,,,,,,,,,,,,main,2,2,1,neutral,positive,l,l,1,0.7617267000023276,172.2001739999978,173.21738709999772,173.17833219999739,None,172.2001739999978,None,172.2001739999978,None,172.2001739999978,None,173.94446765999018,None,173.94446765999018,None,173.94446765999018,None,,,,,,,,,,,210,24,Female,2022-05-04_16h54.10.895,Main,2022.1.1,60.01154621684275,
positive,positive,1,l,j,,,,,,,,,0,12,12,2,,,,,,,,,,,,,,,,,,,,,,,,main,1,1,1,positive,positive,l,k,0,0.623525899995002,173.966368399997,174.98714549999568,174.94868659999338,None,173.966368399997,None,173.966368399997,None,173.966368399997,None,175.57804019999458,None,175.57804019999458,None,175.57804019999458,None,,,,,,,,,,,210,24,Female,2022-05-04_16h54.10.895,Main,2022.1.1,60.01154621684275,
neutral,negative,1,k,k,,,,,,,,,0,13,13,7,,,,,,,,,,,,,,,,,,,,,,,,main,1,1,1,negative,neutral,k,k,1,0.6925304000033066,176.59863599999517,177.61854270000185,177.58056899999792,None,176.59863599999517,None,176.59863599999517,None,176.59863599999517,None,178.27309535999083,None,178.27309535999083,None,178.27309535999083,None,,,,,,,,,,,210,24,Female,2022-05-04_16h54.10.895,Main,2022.1.1,60.01154621684275,
neutral,negative,2,k,k,,,,,,,,,0,14,14,16,,,,,,,,,,,,,,,,,,,,,,,,main,2,2,2,negative,neutral,k,k,1,0.9063074000005145,178.29421690000163,179.3032000999956,179.28341509999882,None,178.29421690000163,None,178.29421690000163,None,178.29421690000163,None,180.1825121599919,None,180.1825121599919,None,180.1825121599919,None,,,,,,,,,,,210,24,Female,2022-05-04_16h54.10.895,Main,2022.1.1,60.01154621684275,
positive,neutral,2,l,j,,,,,,,,,0,15,15,17,,,,,,,,,,,,,,,,,,,,,,,,main,2,2,2,neutral,positive,l,l,1,0.7249073999992106,180.20297030000074,181.21665229999053,181.17780169998878,None,180.20297030000074,None,180.20297030000074,None,180.20297030000074,None,181.90953066000074,None,181.90953066000074,None,181.90953066000074,None,,,,,,,,,,,210,24,Female,2022-05-04_16h54.10.895,Main,2022.1.1,60.01154621684275,
negative,positive,1,j,l,,,,,,,,,0,16,16,6,,,,,,,,,,,,,,,,,,,,,,,,main,2,2,1,positive,negative,j,j,1,0.7184611999982735,181.9308830999944,182.94801709998865,182.91029509999498,None,181.9308830999944,None,181.9308830999944,None,181.9308830999944,None,183.63302196000004,None,183.63302196000004,None,183.63302196000004,None,,,,,,,,,,,210,24,Female,2022-05-04_16h54.10.895,Main,2022.1.1,60.01154621684275,
neutral,positive,1,k,k,,,,,,,,,0,17,17,4,,,,,,,,,,,,,,,,,,,,,,,,main,2,2,1,positive,neutral,k,k,1,0.7258044000045629,183.65359049999097,184.65881919999083,184.6388786000025,None,183.65359049999097,None,183.65359049999097,None,183.65359049999097,None,185.3595282599941,None,185.3595282599941,None,185.3595282599941,None,,,,,,,,,,,210,24,Female,2022-05-04_16h54.10.895,Main,2022.1.1,60.01154621684275,
neutral,positive,2,k,k,,,,,,,,,1,0,18,13,,,,,,,,,,,,,,,,,,,,,,,,main,2,2,2,positive,neutral,k,k,1,0.7499473999923794,185.37982129999727,186.39897879998898,186.3599938999978,None,185.37982129999727,None,185.37982129999727,None,185.37982129999727,None,187.1108397599979,None,187.1108397599979,None,187.1108397599979,None,,,,,,,,,,,210,24,Female,2022-05-04_16h54.10.895,Main,2022.1.1,60.01154621684275,
neutral,positive,1,k,k,,,,,,,,,1,1,19,4,,,,,,,,,,,,,,,,,,,,,,,,main,1,1,1,positive,neutral,k,k,1,0.6644654000119772,187.1316966000013,188.14471259999846,188.1251479999919,None,187.1316966000013,None,187.1316966000013,None,187.1316966000013,None,188.7777565599914,None,188.7777565599914,None,188.7777565599914,None,,,,,,,,,,,210,24,Female,2022-05-04_16h54.10.895,Main,2022.1.1,60.01154621684275,
negative,positive,2,j,l,,,,,,,,,1,2,20,15,,,,,,,,,,,,,,,,,,,,,,,,main,2,2,2,positive,negative,j,k,0,-0.6037900000083027,188.79913099999249,None,None,None,188.79913099999249,None,188.79913099999249,None,188.79913099999249,None,189.18362149999302,None,189.18362149999302,None,189.18362149999302,None,,,,,,,,,,,210,24,Female,2022-05-04_16h54.10.895,Main,2022.1.1,60.01154621684275,
positive,negative,2,l,j,,,,,,,,,1,3,21,14,,,,,,,,,,,,,,,,,,,,,,,,main,2,2,2,negative,positive,l,l,1,0.9805073000025004,192.1963626999932,193.1985515999986,193.17886699999508,None,192.1963626999932,None,192.1963626999932,None,192.1963626999932,None,194.1568852599972,None,194.1568852599972,None,194.1568852599972,None,,,,,,,,,,,210,24,Female,2022-05-04_16h54.10.895,Main,2022.1.1,60.01154621684275,
neutral,negative,2,k,k,,,,,,,,,1,4,22,16,,,,,,,,,,,,,,,,,,,,,,,,main,1,1,2,negative,neutral,k,k,1,0.6068869999871822,194.1783429999923,195.18499729999166,195.16568829999596,None,194.1783429999923,None,194.1783429999923,None,194.1783429999923,None,195.76692435998993,None,195.76692435998993,None,195.76692435998993,None,,,,,,,,,,,210,24,Female,2022-05-04_16h54.10.895,Main,2022.1.1,60.01154621684275,
negative,neutral,1,j,l,,,,,,,,,1,5,23,3,,,,,,,,,,,,,,,,,,,,,,,,main,1,1,1,neutral,negative,j,j,1,0.789599099996849,195.78900710000016,196.79247919999762,196.77340939998976,None,195.78900710000016,None,195.78900710000016,None,195.78900710000016,None,197.55856276000267,None,197.55856276000267,None,197.55856276000267,None,,,,,,,,,,,210,24,Female,2022-05-04_16h54.10.895,Main,2022.1.1,60.01154621684275,
positive,neutral,1,l,j,,,,,,,,,1,6,24,8,,,,,,,,,,,,,,,,,,,,,,,,main,1,1,1,neutral,positive,l,l,1,1.001662299997406,197.58108659999561,198.5880247999885,198.56810170000244,None,197.58108659999561,None,197.58108659999561,None,197.58108659999561,None,199.56296085999347,None,199.56296085999347,None,199.56296085999347,None,,,,,,,,,,,210,24,Female,2022-05-04_16h54.10.895,Main,2022.1.1,60.01154621684275,
positive,neutral,2,l,j,,,,,,,,,1,7,25,17,,,,,,,,,,,,,,,,,,,,,,,,main,1,1,2,neutral,positive,l,l,1,0.827443400004995,199.58399349999672,200.59436339999957,200.57452049999847,None,199.58399349999672,None,199.58399349999672,None,199.58399349999672,None,201.39296145999978,None,201.39296145999978,None,201.39296145999978,None,,,,,,,,,,,210,24,Female,2022-05-04_16h54.10.895,Main,2022.1.1,60.01154621684275,
neutral,neutral,2,k,k,,,,,,,,,1,8,26,10,,,,,,,,,,,,,,,,,,,,,,,,main,1,1,2,neutral,neutral,k,k,1,1.0601623999973526,201.4138180000009,202.42935939999006,202.3909735999914,None,201.4138180000009,None,201.4138180000009,None,201.4138180000009,None,203.45610595998878,None,203.45610595998878,None,203.45610595998878,None,,,,,,,,,,,210,24,Female,2022-05-04_16h54.10.895,Main,2022.1.1,60.01154621684275,
neutral,neutral,1,k,k,,,,,,,,,1,9,27,1,,,,,,,,,,,,,,,,,,,,,,,,main,2,2,1,neutral,neutral,k,j,0,1.5031143000087468,203.47572799999034,204.47877380000136,204.4599753999937,None,203.47572799999034,None,203.47572799999034,None,203.47572799999034,None,205.9718586999952,None,205.9718586999952,None,205.9718586999952,None,,,,,,,,,,,210,24,Female,2022-05-04_16h54.10.895,Main,2022.1.1,60.01154621684275,
neutral,negative,1,k,k,,,,,,,,,1,10,28,7,,,,,,,,,,,,,,,,,,,,,,,,main,2,2,1,negative,neutral,k,k,1,0.946884000004502,206.9966596000013,208.0170161999995,207.99766090000048,None,206.9966596000013,None,206.9966596000013,None,206.9966596000013,None,208.92190795999485,None,208.92190795999485,None,208.92190795999485,None,,,,,,,,,,,210,24,Female,2022-05-04_16h54.10.895,Main,2022.1.1,60.01154621684275,
negative,negative,1,j,l,,,,,,,,,1,11,29,0,,,,,,,,,,,,,,,,,,,,,,,,main,2,2,1,negative,negative,j,j,1,0.9268076000007568,208.94288249999227,209.96413189999294,209.91654779999226,None,208.94288249999227,None,208.94288249999227,None,208.94288249999227,None,210.8538991600013,None,210.8538991600013,None,210.8538991600013,None,,,,,,,,,,,210,24,Female,2022-05-04_16h54.10.895,Main,2022.1.1,60.01154621684275,
negative,positive,1,j,l,,,,,,,,,1,12,30,6,,,,,,,,,,,,,,,,,,,,,,,,main,2,2,1,positive,negative,j,j,1,0.7420066000049701,210.87435559999722,211.89374479999242,211.85500070000126,None,210.87435559999722,None,210.87435559999722,None,210.87435559999722,None,212.60033106000046,None,212.60033106000046,None,212.60033106000046,None,,,,,,,,,,,210,24,Female,2022-05-04_16h54.10.895,Main,2022.1.1,60.01154621684275,
negative,neutral,2,j,l,,,,,,,,,1,13,31,12,,,,,,,,,,,,,,,,,,,,,,,,main,2,2,2,neutral,negative,j,j,1,0.7596424000075785,212.62154120000196,213.64188319999084,213.6023242999945,None,212.62154120000196,None,212.62154120000196,None,212.62154120000196,None,214.36108316000318,None,214.36108316000318,None,214.36108316000318,None,,,,,,,,,,,210,24,Female,2022-05-04_16h54.10.895,Main,2022.1.1,60.01154621684275,
positive,positive,1,l,j,,,,,,,,,1,14,32,2,,,,,,,,,,,,,,,,,,,,,,,,main,1,1,1,positive,positive,l,l,1,0.7958737000008114,214.38234399999783,215.3957187999913,215.35747649999394,None,214.38234399999783,None,214.38234399999783,None,214.38234399999783,None,216.15685875999915,None,216.15685875999915,None,216.15685875999915,None,,,,,,,,,,,210,24,Female,2022-05-04_16h54.10.895,Main,2022.1.1,60.01154621684275,
positive,positive,2,l,j,,,,,,,,,1,15,33,11,,,,,,,,,,,,,,,,,,,,,,,,main,2,2,2,positive,positive,l,l,1,0.7514697000005981,216.18011989998922,217.18883739999728,217.16793579999649,None,216.18011989998922,None,216.18011989998922,None,216.18011989998922,None,217.91424526000046,None,217.91424526000046,None,217.91424526000046,None,,,,,,,,,,,210,24,Female,2022-05-04_16h54.10.895,Main,2022.1.1,60.01154621684275,
positive,negative,1,l,j,,,,,,,,,1,16,34,5,,,,,,,,,,,,,,,,,,,,,,,,main,1,1,1,negative,positive,l,l,1,0.7717450000054669,217.9349058999942,218.94263779999164,218.92373840000073,None,217.9349058999942,None,217.9349058999942,None,217.9349058999942,None,219.68655945998907,None,219.68655945998907,None,219.68655945998907,None,,,,,,,,,,,210,24,Female,2022-05-04_16h54.10.895,Main,2022.1.1,60.01154621684275,
negative,negative,2,j,l,,,,,,,,,1,17,35,9,,,,,,,,,,,,,,,,,,,,,,,,main,1,1,2,negative,negative,j,j,1,0.9806352000014158,219.70783040000242,220.71623150000232,220.69680239999434,None,219.70783040000242,None,219.70783040000242,None,219.70783040000242,None,221.67011046000115,None,221.67011046000115,None,221.67011046000115,None,,,,,,,,,,,210,24,Female,2022-05-04_16h54.10.895,Main,2022.1.1,60.01154621684275,
negative,neutral,2,j,l,,,,,,,,,2,0,36,12,,,,,,,,,,,,,,,,,,,,,,,,main,1,1,2,neutral,negative,j,j,1,1.2783183999999892,221.6919282000017,222.70144649999565,222.68092590000015,None,221.6919282000017,None,221.6919282000017,None,221.6919282000017,None,223.95297655999602,None,223.95297655999602,None,223.95297655999602,None,,,,,,,,,,,210,24,Female,2022-05-04_16h54.10.895,Main,2022.1.1,60.01154621684275,
neutral,negative,2,k,k,,,,,,,,,2,1,37,16,,,,,,,,,,,,,,,,,,,,,,,,main,1,1,2,negative,neutral,k,j,0,-0.6784525999973994,223.97493219999888,None,None,None,223.97493219999888,None,223.97493219999888,None,223.97493219999888,None,224.28539900000033,None,224.28539900000033,None,224.28539900000033,None,,,,,,,,,,,210,24,Female,2022-05-04_16h54.10.895,Main,2022.1.1,60.01154621684275,
positive,neutral,1,l,j,,,,,,,,,2,2,38,8,,,,,,,,,,,,,,,,,,,,,,,,main,1,1,1,neutral,positive,l,l,1,0.8193959999916842,227.30962129999534,228.32712960000208,228.2903948999883,None,227.30962129999534,None,227.30962129999534,None,227.30962129999534,None,229.10779515999602,None,229.10779515999602,None,229.10779515999602,None,,,,,,,,,,,210,24,Female,2022-05-04_16h54.10.895,Main,2022.1.1,60.01154621684275,
negative,positive,1,j,l,,,,,,,,,2,3,39,6,,,,,,,,,,,,,,,,,,,,,,,,main,1,1,1,positive,negative,j,j,1,0.7478568999940762,229.12856149999425,230.13956089998828,230.1206591999944,None,229.12856149999425,None,229.12856149999425,None,229.12856149999425,None,230.8609415600018,None,230.8609415600018,None,230.8609415600018,None,,,,,,,,,,,210,24,Female,2022-05-04_16h54.10.895,Main,2022.1.1,60.01154621684275,
positive,neutral,2,l,j,,,,,,,,,2,4,40,17,,,,,,,,,,,,,,,,,,,,,,,,main,1,1,2,neutral,positive,l,l,1,0.979886200002511,230.8809304999886,231.8990507999988,231.85959189999267,None,230.8809304999886,None,230.8809304999886,None,230.8809304999886,None,232.83957845999393,None,232.83957845999393,None,232.83957845999393,None,,,,,,,,,,,210,24,Female,2022-05-04_16h54.10.895,Main,2022.1.1,60.01154621684275,
neutral,positive,2,k,k,,,,,,,,,2,5,41,13,,,,,,,,,,,,,,,,,,,,,,,,main,2,2,2,positive,neutral,k,k,1,0.6478060999943409,232.86642289999872,233.88545469999372,233.84621360000165,None,232.86642289999872,None,232.86642289999872,None,232.86642289999872,None,234.49213495999865,None,234.49213495999865,None,234.49213495999865,None,,,,,,,,,,,210,24,Female,2022-05-04_16h54.10.895,Main,2022.1.1,60.01154621684275,
neutral,neutral,2,k,k,,,,,,,,,2,6,42,10,,,,,,,,,,,,,,,,,,,,,,,,main,1,1,2,neutral,neutral,k,k,1,0.7707546999881743,234.51143099999172,235.52723490000062,235.48854779999238,None,234.51143099999172,None,234.51143099999172,None,234.51143099999172,None,236.26533396000158,None,236.26533396000158,None,236.26533396000158,None,,,,,,,,,,,210,24,Female,2022-05-04_16h54.10.895,Main,2022.1.1,60.01154621684275,
neutral,positive,1,k,k,,,,,,,,,2,7,43,4,,,,,,,,,,,,,,,,,,,,,,,,main,2,2,1,positive,neutral,k,k,1,0.9322815999912564,236.28846479998901,237.30170270000235,237.26280620000034,None,236.28846479998901,None,236.28846479998901,None,236.28846479998901,None,238.2017497599969,None,238.2017497599969,None,238.2017497599969,None,,,,,,,,,,,210,24,Female,2022-05-04_16h54.10.895,Main,2022.1.1,60.01154621684275,
positive,positive,1,l,j,,,,,,,,,2,8,44,2,,,,,,,,,,,,,,,,,,,,,,,,main,1,1,1,positive,positive,l,l,1,0.736872499997844,238.22218599999906,239.23134899999422,239.2116676000005,None,238.22218599999906,None,238.22218599999906,None,238.22218599999906,None,239.94056725999107,None,239.94056725999107,None,239.94056725999107,None,,,,,,,,,,,210,24,Female,2022-05-04_16h54.10.895,Main,2022.1.1,60.01154621684275,
negative,neutral,1,j,l,,,,,,,,,2,9,45,3,,,,,,,,,,,,,,,,,,,,,,,,main,2,2,1,neutral,negative,j,j,1,0.6602582000050461,239.96766709999065,240.9788561000023,240.959220299992,None,239.96766709999065,None,239.96766709999065,None,239.96766709999065,None,241.6038404599909,None,241.6038404599909,None,241.6038404599909,None,,,,,,,,,,,210,24,Female,2022-05-04_16h54.10.895,Main,2022.1.1,60.01154621684275,
neutral,neutral,1,k,k,,,,,,,,,2,10,46,1,,,,,,,,,,,,,,,,,,,,,,,,main,1,1,1,neutral,neutral,k,k,1,0.8305401999969035,241.62398789999133,242.63114699999278,242.61199219999253,None,241.62398789999133,None,241.62398789999133,None,241.62398789999133,None,243.43699615999648,None,243.43699615999648,None,243.43699615999648,None,,,,,,,,,,,210,24,Female,2022-05-04_16h54.10.895,Main,2022.1.1,60.01154621684275,
negative,positive,2,j,l,,,,,,,,,2,11,47,15,,,,,,,,,,,,,,,,,,,,,,,,main,2,2,2,positive,negative,j,k,0,-0.5463424000045052,243.4583305999986,None,None,None,243.4583305999986,None,243.4583305999986,None,243.4583305999986,None,243.90245819999836,None,243.90245819999836,None,243.90245819999836,None,,,,,,,,,,,210,24,Female,2022-05-04_16h54.10.895,Main,2022.1.1,60.01154621684275,
neutral,negative,1,k,k,,,,,,,,,2,12,48,7,,,,,,,,,,,,,,,,,,,,,,,,main,1,1,1,negative,neutral,k,k,1,0.9994017999997595,246.92310759999964,247.93323349999264,247.91402260000177,None,246.92310759999964,None,246.92310759999964,None,246.92310759999964,None,248.90082245999074,None,248.90082245999074,None,248.90082245999074,None,,,,,,,,,,,210,24,Female,2022-05-04_16h54.10.895,Main,2022.1.1,60.01154621684275,
negative,negative,2,j,l,,,,,,,,,2,13,49,9,,,,,,,,,,,,,,,,,,,,,,,,main,2,2,2,negative,negative,j,j,1,0.9048445000080392,248.92307229999278,249.94103529999848,249.90285709999443,None,248.92307229999278,None,248.92307229999278,None,248.92307229999278,None,250.81205255998938,None,250.81205255998938,None,250.81205255998938,None,,,,,,,,,,,210,24,Female,2022-05-04_16h54.10.895,Main,2022.1.1,60.01154621684275,
positive,positive,2,l,j,,,,,,,,,2,14,50,11,,,,,,,,,,,,,,,,,,,,,,,,main,2,2,2,positive,positive,l,l,1,0.8606852999946568,250.83313269999053,251.84953619999578,251.80902239998977,None,250.83313269999053,None,250.83313269999053,None,250.83313269999053,None,252.67310745998984,None,252.67310745998984,None,252.67310745998984,None,,,,,,,,,,,210,24,Female,2022-05-04_16h54.10.895,Main,2022.1.1,60.01154621684275,
negative,negative,1,j,l,,,,,,,,,2,15,51,0,,,,,,,,,,,,,,,,,,,,,,,,main,1,1,1,negative,negative,j,j,1,0.8453630000003614,252.69754719999037,253.7167197999952,253.67803179999464,None,252.69754719999037,None,252.69754719999037,None,252.69754719999037,None,254.52120735999196,None,254.52120735999196,None,254.52120735999196,None,,,,,,,,,,,210,24,Female,2022-05-04_16h54.10.895,Main,2022.1.1,60.01154621684275,
positive,negative,2,l,j,,,,,,,,,2,16,52,14,,,,,,,,,,,,,,,,,,,,,,,,main,2,2,2,negative,positive,l,l,1,0.9324330999952508,254.5413317999919,255.55713020000258,255.52095120000013,None,254.5413317999919,None,254.5413317999919,None,254.5413317999919,None,256.4560750600009,None,256.4560750600009,None,256.4560750600009,None,,,,,,,,,,,210,24,Female,2022-05-04_16h54.10.895,Main,2022.1.1,60.01154621684275,
positive,negative,1,l,j,,,,,,,,,2,17,53,5,,,,,,,,,,,,,,,,,,,,,,,,main,2,2,1,negative,positive,l,l,1,0.8941515000042273,256.48010099999374,257.4943987000006,257.45438339999237,None,256.48010099999374,None,256.48010099999374,None,256.48010099999374,None,258.35247325999956,None,258.35247325999956,None,258.35247325999956,None,,,,,,,,,,,210,24,Female,2022-05-04_16h54.10.895,Main,2022.1.1,60.01154621684275,
positive,positive,1,l,j,,,,,,,,,3,0,54,2,,,,,,,,,,,,,,,,,,,,,,,,main,1,1,1,positive,positive,l,l,1,1.1791754000005312,258.37453580000147,259.3851163999934,259.36521509999875,None,258.37453580000147,None,258.37453580000147,None,258.37453580000147,None,260.5335098599986,None,260.5335098599986,None,260.5335098599986,None,,,,,,,,,,,210,24,Female,2022-05-04_16h54.10.895,Main,2022.1.1,60.01154621684275,
negative,neutral,2,j,l,,,,,,,,,3,1,55,12,,,,,,,,,,,,,,,,,,,,,,,,main,1,1,2,neutral,negative,j,j,1,1.0968316000071354,260.55473150000034,261.56817020000017,261.52884169999743,None,260.55473150000034,None,260.55473150000034,None,260.55473150000034,None,262.63411765999047,None,262.63411765999047,None,262.63411765999047,None,,,,,,,,,,,210,24,Female,2022-05-04_16h54.10.895,Main,2022.1.1,60.01154621684275,
negative,neutral,1,j,l,,,,,,,,,3,2,56,3,,,,,,,,,,,,,,,,,,,,,,,,main,1,1,1,neutral,negative,j,j,1,0.8157162999996217,262.6556542999897,263.66991060000146,263.6318835999991,None,262.6556542999897,None,262.6556542999897,None,262.6556542999897,None,264.4525959599938,None,264.4525959599938,None,264.4525959599938,None,,,,,,,,,,,210,24,Female,2022-05-04_16h54.10.895,Main,2022.1.1,60.01154621684275,
negative,positive,2,j,l,,,,,,,,,3,3,57,15,,,,,,,,,,,,,,,,,,,,,,,,main,1,1,2,positive,negative,j,j,1,0.8612542000046233,264.47326089999115,265.49316250000265,265.45483380000223,None,264.47326089999115,None,264.47326089999115,None,264.47326089999115,None,266.31666956000265,None,266.31666956000265,None,266.31666956000265,None,,,,,,,,,,,210,24,Female,2022-05-04_16h54.10.895,Main,2022.1.1,60.01154621684275,
positive,positive,2,l,j,,,,,,,,,3,4,58,11,,,,,,,,,,,,,,,,,,,,,,,,main,1,1,2,positive,positive,l,l,1,0.8691125999903306,266.3384487000003,267.3466706999898,267.32647169999836,None,266.3384487000003,None,266.3384487000003,None,266.3384487000003,None,268.1877365600027,None,268.1877365600027,None,268.1877365600027,None,,,,,,,,,,,210,24,Female,2022-05-04_16h54.10.895,Main,2022.1.1,60.01154621684275,
positive,neutral,2,l,j,,,,,,,,,3,5,59,17,,,,,,,,,,,,,,,,,,,,,,,,main,2,2,2,neutral,positive,l,l,1,0.7940758999902755,268.20901789999334,269.21880170000077,269.19883839999966,None,268.20901789999334,None,268.20901789999334,None,268.20901789999334,None,269.98493836000273,None,269.98493836000273,None,269.98493836000273,None,,,,,,,,,,,210,24,Female,2022-05-04_16h54.10.895,Main,2022.1.1,60.01154621684275,
neutral,negative,1,k,k,,,,,,,,,3,6,60,7,,,,,,,,,,,,,,,,,,,,,,,,main,2,2,1,negative,neutral,k,k,1,0.8395689000026323,270.0095949999959,271.02047489999677,271.00009200000204,None,270.0095949999959,None,270.0095949999959,None,270.0095949999959,None,271.82803515999115,None,271.82803515999115,None,271.82803515999115,None,,,,,,,,,,,210,24,Female,2022-05-04_16h54.10.895,Main,2022.1.1,60.01154621684275,
negative,negative,1,j,l,,,,,,,,,3,7,61,0,,,,,,,,,,,,,,,,,,,,,,,,main,1,1,1,negative,negative,j,j,1,0.91545899999619,271.84876589999476,272.8589701000019,272.8394058999984,None,271.84876589999476,None,271.84876589999476,None,271.84876589999476,None,273.7465381599992,None,273.7465381599992,None,273.7465381599992,None,,,,,,,,,,,210,24,Female,2022-05-04_16h54.10.895,Main,2022.1.1,60.01154621684275,
neutral,negative,2,k,k,,,,,,,,,3,8,62,16,,,,,,,,,,,,,,,,,,,,,,,,main,1,1,2,negative,neutral,k,k,1,0.9567957999970531,273.7678354999953,274.78641279999283,274.74932299999637,None,273.7678354999953,None,273.7678354999953,None,273.7678354999953,None,275.70825505999676,None,275.70825505999676,None,275.70825505999676,None,,,,,,,,,,,210,24,Female,2022-05-04_16h54.10.895,Main,2022.1.1,60.01154621684275,
neutral,neutral,1,k,k,,,,,,,,,3,9,63,1,,,,,,,,,,,,,,,,,,,,,,,,main,1,1,1,neutral,neutral,k,k,1,0.84316599999147,275.7305798000016,276.7369925999956,276.7175572999986,None,275.7305798000016,None,275.7305798000016,None,275.7305798000016,None,277.5550359599962,None,277.5550359599962,None,277.5550359599962,None,,,,,,,,,,,210,24,Female,2022-05-04_16h54.10.895,Main,2022.1.1,60.01154621684275,
neutral,positive,1,k,k,,,,,,,,,3,10,64,4,,,,,,,,,,,,,,,,,,,,,,,,main,2,2,1,positive,neutral,k,k,1,0.7446223000006285,277.5741646999959,278.59405739999784,278.553822899994,None,277.5741646999959,None,277.5741646999959,None,277.5741646999959,None,279.29980665999176,None,279.29980665999176,None,279.29980665999176,None,,,,,,,,,,,210,24,Female,2022-05-04_16h54.10.895,Main,2022.1.1,60.01154621684275,
neutral,neutral,2,k,k,,,,,,,,,3,11,65,10,,,,,,,,,,,,,,,,,,,,,,,,main,2,2,2,neutral,neutral,k,k,1,0.6034277999860933,279.32389030000195,280.33898499999486,280.3000472999993,None,279.32389030000195,None,279.32389030000195,None,279.32389030000195,None,280.9078028599994,None,280.9078028599994,None,280.9078028599994,None,,,,,,,,,,,210,24,Female,2022-05-04_16h54.10.895,Main,2022.1.1,60.01154621684275,
positive,neutral,1,l,j,,,,,,,,,3,12,66,8,,,,,,,,,,,,,,,,,,,,,,,,main,2,2,1,neutral,positive,l,l,1,0.8429767000052379,280.9282067000022,281.94291749999684,281.90385199998855,None,280.9282067000022,None,280.9282067000022,None,280.9282067000022,None,282.75133505999986,None,282.75133505999986,None,282.75133505999986,None,,,,,,,,,,,210,24,Female,2022-05-04_16h54.10.895,Main,2022.1.1,60.01154621684275,
negative,negative,2,j,l,,,,,,,,,3,13,67,9,,,,,,,,,,,,,,,,,,,,,,,,main,2,2,2,negative,negative,j,j,1,0.7268735999969067,282.7724065999937,283.7942968999996,283.7532462999952,None,282.7724065999937,None,282.7724065999937,None,282.7724065999937,None,284.48078095999665,None,284.48078095999665,None,284.48078095999665,None,,,,,,,,,,,210,24,Female,2022-05-04_16h54.10.895,Main,2022.1.1,60.01154621684275,
neutral,positive,2,k,k,,,,,,,,,3,14,68,13,,,,,,,,,,,,,,,,,,,,,,,,main,2,2,2,positive,neutral,k,k,1,0.8202870999957668,284.50156649999553,285.52120789999026,285.48324269999284,None,284.50156649999553,None,284.50156649999553,None,284.50156649999553,None,286.3055728599953,None,286.3055728599953,None,286.3055728599953,None,,,,,,,,,,,210,24,Female,2022-05-04_16h54.10.895,Main,2022.1.1,60.01154621684275,
positive,negative,1,l,j,,,,,,,,,3,15,69,5,,,,,,,,,,,,,,,,,,,,,,,,main,1,1,1,negative,positive,l,l,1,0.7618041000096127,286.3273143999977,287.3441926999949,287.3245972000004,None,286.3273143999977,None,286.3273143999977,None,286.3273143999977,None,288.0694391599915,None,288.0694391599915,None,288.0694391599915,None,,,,,,,,,,,210,24,Female,2022-05-04_16h54.10.895,Main,2022.1.1,60.01154621684275,
positive,negative,2,l,j,,,,,,,,,3,16,70,14,,,,,,,,,,,,,,,,,,,,,,,,main,1,1,2,negative,positive,l,l,1,0.6676692000037292,288.0905503999966,289.1007891999907,289.08174300000246,None,288.0905503999966,None,288.0905503999966,None,288.0905503999966,None,289.74109805999035,None,289.74109805999035,None,289.74109805999035,None,,,,,,,,,,,210,24,Female,2022-05-04_16h54.10.895,Main,2022.1.1,60.01154621684275,
negative,positive,1,j,l,,,,,,,,,3,17,71,6,,,,,,,,,,,,,,,,,,,,,,,,main,1,1,1,positive,negative,j,j,1,0.7263010000024224,289.7627441999939,290.76810139999725,290.7489263999887,None,289.7627441999939,None,289.7627441999939,None,289.7627441999939,None,291.47116686000084,None,291.47116686000084,None,291.47116686000084,None,,,,,,,,,,,210,24,Female,2022-05-04_16h54.10.895,Main,2022.1.1,60.01154621684275,
positive,negative,2,l,j,,,,,,,,,4,0,72,14,,,,,,,,,,,,,,,,,,,,,,,,main,1,1,2,negative,positive,l,l,1,0.8378704000060679,291.49484239998856,292.5142999999953,292.4762648999895,None,291.49484239998856,None,291.49484239998856,None,291.49484239998856,None,293.31124535999845,None,293.31124535999845,None,293.31124535999845,None,,,,,,,,,,,210,24,Female,2022-05-04_16h54.10.895,Main,2022.1.1,60.01154621684275,
negative,neutral,2,j,l,,,,,,,,,4,1,73,12,,,,,,,,,,,,,,,,,,,,,,,,main,2,2,2,neutral,negative,j,j,1,0.7739366000023438,293.3321652000013,294.3507738999906,294.3102776000014,None,293.3321652000013,None,293.3321652000013,None,293.3321652000013,None,295.08991265999214,None,295.08991265999214,None,295.08991265999214,None,,,,,,,,,,,210,24,Female,2022-05-04_16h54.10.895,Main,2022.1.1,60.01154621684275,
neutral,positive,1,k,k,,,,,,,,,4,2,74,4,,,,,,,,,,,,,,,,,,,,,,,,main,2,2,1,positive,neutral,k,k,1,0.7802999999985332,295.1097960999905,296.12786019999476,296.0894460999989,None,295.1097960999905,None,295.1097960999905,None,295.1097960999905,None,296.8710667599895,None,296.8710667599895,None,296.8710667599895,None,,,,,,,,,,,210,24,Female,2022-05-04_16h54.10.895,Main,2022.1.1,60.01154621684275,
negative,negative,1,j,l,,,,,,,,,4,3,75,0,,,,,,,,,,,,,,,,,,,,,,,,main,2,2,1,negative,negative,j,j,1,0.8912929000071017,296.8929480999941,297.90933609999774,297.8686788999912,None,296.8929480999941,None,296.8929480999941,None,296.8929480999941,None,298.76394995999874,None,298.76394995999874,None,298.76394995999874,None,,,,,,,,,,,210,24,Female,2022-05-04_16h54.10.895,Main,2022.1.1,60.01154621684275,
neutral,neutral,2,k,k,,,,,,,,,4,4,76,10,,,,,,,,,,,,,,,,,,,,,,,,main,1,1,2,neutral,neutral,k,k,1,0.8395113000005949,298.78515250000055,299.7910730000003,299.7718748999905,None,298.78515250000055,None,298.78515250000055,None,298.78515250000055,None,300.60806146000107,None,300.60806146000107,None,300.60806146000107,None,,,,,,,,,,,210,24,Female,2022-05-04_16h54.10.895,Main,2022.1.1,60.01154621684275,
positive,positive,2,l,j,,,,,,,,,4,5,77,11,,,,,,,,,,,,,,,,,,,,,,,,main,1,1,2,positive,positive,l,l,1,0.7087610999878962,300.629062299995,301.64850959999603,301.61016329999256,None,300.629062299995,None,300.629062299995,None,300.629062299995,None,302.32123725998974,None,302.32123725998974,None,302.32123725998974,None,,,,,,,,,,,210,24,Female,2022-05-04_16h54.10.895,Main,2022.1.1,60.01154621684275,
neutral,neutral,1,k,k,,,,,,,,,4,6,78,1,,,,,,,,,,,,,,,,,,,,,,,,main,2,2,1,neutral,neutral,k,k,1,0.926386499995715,302.3423657999956,303.3536835999985,303.31585559999803,None,302.3423657999956,None,302.3423657999956,None,302.3423657999956,None,304.25091385999406,None,304.25091385999406,None,304.25091385999406,None,,,,,,,,,,,210,24,Female,2022-05-04_16h54.10.895,Main,2022.1.1,60.01154621684275,
positive,positive,1,l,j,,,,,,,,,4,7,79,2,,,,,,,,,,,,,,,,,,,,,,,,main,2,2,1,positive,positive,l,l,1,0.8933380999951623,304.27115899999626,305.273720600002,305.25381909999123,None,304.27115899999626,None,304.27115899999626,None,304.27115899999626,None,306.1442486599932,None,306.1442486599932,None,306.1442486599932,None,,,,,,,,,,,210,24,Female,2022-05-04_16h54.10.895,Main,2022.1.1,60.01154621684275,
negative,neutral,1,j,l,,,,,,,,,4,8,80,3,,,,,,,,,,,,,,,,,,,,,,,,main,1,1,1,neutral,negative,j,j,1,0.7230448000045726,306.16557640000246,307.1736339999916,307.15385719999904,None,306.16557640000246,None,306.16557640000246,None,306.16557640000246,None,307.8721473599959,None,307.8721473599959,None,307.8721473599959,None,,,,,,,,,,,210,24,Female,2022-05-04_16h54.10.895,Main,2022.1.1,60.01154621684275,
positive,neutral,2,l,j,,,,,,,,,4,9,81,17,,,,,,,,,,,,,,,,,,,,,,,,main,2,2,2,neutral,positive,l,l,1,1.0131612999975914,307.89196470000024,308.90354800000205,308.88367379999545,None,307.89196470000024,None,307.89196470000024,None,307.89196470000024,None,309.8874721599947,None,309.8874721599947,None,309.8874721599947,None,,,,,,,,,,,210,24,Female,2022-05-04_16h54.10.895,Main,2022.1.1,60.01154621684275,
negative,negative,2,j,l,,,,,,,,,4,10,82,9,,,,,,,,,,,,,,,,,,,,,,,,main,1,1,2,negative,negative,j,j,1,0.9036868999974104,309.9083290999988,310.9115669999883,310.89234880000004,None,309.9083290999988,None,309.9083290999988,None,309.9083290999988,None,311.7896479599964,None,311.7896479599964,None,311.7896479599964,None,,,,,,,,,,,210,24,Female,2022-05-04_16h54.10.895,Main,2022.1.1,60.01154621684275,
positive,negative,1,l,j,,,,,,,,,4,11,83,5,,,,,,,,,,,,,,,,,,,,,,,,main,2,2,1,negative,positive,l,l,1,0.8998892999952659,311.8126549000008,312.81500419999065,312.7957529999985,None,311.8126549000008,None,311.8126549000008,None,311.8126549000008,None,313.6924481599941,None,313.6924481599941,None,313.6924481599941,None,,,,,,,,,,,210,24,Female,2022-05-04_16h54.10.895,Main,2022.1.1,60.01154621684275,
negative,positive,2,j,l,,,,,,,,,4,12,84,15,,,,,,,,,,,,,,,,,,,,,,,,main,1,1,2,positive,negative,j,j,1,0.8836229000007734,313.7140947000007,314.7251671999984,314.7056076000008,None,313.7140947000007,None,313.7140947000007,None,313.7140947000007,None,315.5822938599973,None,315.5822938599973,None,315.5822938599973,None,,,,,,,,,,,210,24,Female,2022-05-04_16h54.10.895,Main,2022.1.1,60.01154621684275,
neutral,positive,2,k,k,,,,,,,,,4,13,85,13,,,,,,,,,,,,,,,,,,,,,,,,main,1,1,2,positive,neutral,k,k,1,0.7692736000026343,315.60198759999184,316.6166674999986,316.5776399000024,None,315.60198759999184,None,315.60198759999184,None,315.60198759999184,None,317.35353345999613,None,317.35353345999613,None,317.35353345999613,None,,,,,,,,,,,210,24,Female,2022-05-04_16h54.10.895,Main,2022.1.1,60.01154621684275,
neutral,negative,1,k,k,,,,,,,,,4,14,86,7,,,,,,,,,,,,,,,,,,,,,,,,main,2,2,1,negative,neutral,k,k,1,0.7379432000016095,317.37537929999235,318.3866154999996,318.3484933,None,317.37537929999235,None,317.37537929999235,None,317.37537929999235,None,319.09242915998914,None,319.09242915998914,None,319.09242915998914,None,,,,,,,,,,,210,24,Female,2022-05-04_16h54.10.895,Main,2022.1.1,60.01154621684275,
negative,positive,1,j,l,,,,,,,,,4,15,87,6,,,,,,,,,,,,,,,,,,,,,,,,main,1,1,1,positive,negative,j,j,1,0.9231984999933047,319.11250469999504,320.1160486000008,320.09683660000155,None,319.11250469999504,None,319.11250469999504,None,319.11250469999504,None,321.01851285999294,None,321.01851285999294,None,321.01851285999294,None,,,,,,,,,,,210,24,Female,2022-05-04_16h54.10.895,Main,2022.1.1,60.01154621684275,
positive,neutral,1,l,j,,,,,,,,,4,16,88,8,,,,,,,,,,,,,,,,,,,,,,,,main,1,1,1,neutral,positive,l,l,1,0.8225285999942571,321.04067259999283,322.0485936999903,322.02774679999857,None,321.04067259999283,None,321.04067259999283,None,321.04067259999283,None,322.84292386000163,None,322.84292386000163,None,322.84292386000163,None,,,,,,,,,,,210,24,Female,2022-05-04_16h54.10.895,Main,2022.1.1,60.01154621684275,
neutral,negative,2,k,k,,,,,,,,,4,17,89,16,,,,,,,,,,,,,,,,,,,,,,,,main,1,1,2,negative,neutral,k,k,1,0.8498891000053845,322.86309739999706,323.8822641000006,323.84386199999426,None,322.86309739999706,None,322.86309739999706,None,322.86309739999706,None,324.69585635999977,None,324.69585635999977,None,324.69585635999977,None,,,,,,,,,,,210,24,Female,2022-05-04_16h54.10.895,Main,2022.1.1,60.01154621684275,
negative,positive,1,j,l,,,,,,,,,5,0,90,6,,,,,,,,,,,,,,,,,,,,,,,,main,2,2,1,positive,negative,j,j,1,0.703351100004511,324.71788460000244,325.7326044999936,325.69157599999744,None,324.71788460000244,None,324.71788460000244,None,324.71788460000244,None,326.40309606000085,None,326.40309606000085,None,326.40309606000085,None,,,,,,,,,,,210,24,Female,2022-05-04_16h54.10.895,Main,2022.1.1,60.01154621684275,
positive,negative,1,l,j,,,,,,,,,5,1,91,5,,,,,,,,,,,,,,,,,,,,,,,,main,2,2,1,negative,positive,l,l,1,0.861333699998795,326.42437199999404,327.4422368999949,327.401772600002,None,326.42437199999404,None,326.42437199999404,None,326.42437199999404,None,328.26704945999666,None,328.26704945999666,None,328.26704945999666,None,,,,,,,,,,,210,24,Female,2022-05-04_16h54.10.895,Main,2022.1.1,60.01154621684275,
positive,positive,2,l,j,,,,,,,,,5,2,92,11,,,,,,,,,,,,,,,,,,,,,,,,main,2,2,2,positive,positive,l,l,1,0.9249929000070551,328.2879404999985,329.3038735000009,329.2647428999917,None,328.2879404999985,None,328.2879404999985,None,328.2879404999985,None,330.1916187599942,None,330.1916187599942,None,330.1916187599942,None,,,,,,,,,,,210,24,Female,2022-05-04_16h54.10.895,Main,2022.1.1,60.01154621684275,
positive,neutral,2,l,j,,,,,,,,,5,3,93,17,,,,,,,,,,,,,,,,,,,,,,,,main,2,2,2,neutral,positive,l,l,1,0.8554988000105368,330.2128575999959,331.22436349999043,331.2040447999898,None,330.2128575999959,None,330.2128575999959,None,330.2128575999959,None,332.05187016000275,None,332.05187016000275,None,332.05187016000275,None,,,,,,,,,,,210,24,Female,2022-05-04_16h54.10.895,Main,2022.1.1,60.01154621684275,
neutral,negative,2,k,k,,,,,,,,,5,4,94,16,,,,,,,,,,,,,,,,,,,,,,,,main,2,2,2,negative,neutral,k,k,1,1.3176403000106802,332.0756377999933,333.083063099999,333.0631640999927,None,332.0756377999933,None,332.0756377999933,None,332.0756377999933,None,334.3739012599923,None,334.3739012599923,None,334.3739012599923,None,,,,,,,,,,,210,24,Female,2022-05-04_16h54.10.895,Main,2022.1.1,60.01154621684275,
positive,neutral,1,l,j,,,,,,,,,5,5,95,8,,,,,,,,,,,,,,,,,,,,,,,,main,2,2,1,neutral,positive,l,l,1,1.000370900001144,334.3959460999904,335.4143436000013,335.37598450000223,None,334.3959460999904,None,334.3959460999904,None,334.3959460999904,None,336.3801418599993,None,336.3801418599993,None,336.3801418599993,None,,,,,,,,,,,210,24,Female,2022-05-04_16h54.10.895,Main,2022.1.1,60.01154621684275,
neutral,neutral,2,k,k,,,,,,,,,5,6,96,10,,,,,,,,,,,,,,,,,,,,,,,,main,2,2,2,neutral,neutral,k,k,1,1.10387069999706,336.4015228999924,337.40747619999456,337.38829760000226,None,336.4015228999924,None,336.4015228999924,None,336.4015228999924,None,338.48553826000136,None,338.48553826000136,None,338.48553826000136,None,,,,,,,,,,,210,24,Female,2022-05-04_16h54.10.895,Main,2022.1.1,60.01154621684275,
negative,neutral,1,j,l,,,,,,,,,5,7,97,3,,,,,,,,,,,,,,,,,,,,,,,,main,2,2,1,neutral,negative,j,j,1,0.8225356999901123,338.50696299999254,339.5125030999916,339.4938431999908,None,338.50696299999254,None,338.50696299999254,None,338.50696299999254,None,340.3123293600016,None,340.3123293600016,None,340.3123293600016,None,,,,,,,,,,,210,24,Female,2022-05-04_16h54.10.895,Main,2022.1.1,60.01154621684275,
neutral,neutral,1,k,k,,,,,,,,,5,8,98,1,,,,,,,,,,,,,,,,,,,,,,,,main,2,2,1,neutral,neutral,k,k,1,0.7959685000096215,340.3320062999992,341.3422769000026,341.3229385000013,None,340.3320062999992,None,340.3320062999992,None,340.3320062999992,None,342.11242256000116,None,342.11242256000116,None,342.11242256000116,None,,,,,,,,,,,210,24,Female,2022-05-04_16h54.10.895,Main,2022.1.1,60.01154621684275,
negative,negative,2,j,l,,,,,,,,,5,9,99,9,,,,,,,,,,,,,,,,,,,,,,,,main,1,1,2,negative,negative,j,j,1,1.5863134000101127,342.136081699995,343.1499810999958,343.1119514999882,None,342.136081699995,None,342.136081699995,None,342.136081699995,None,344.7086450999923,None,344.7086450999923,None,344.7086450999923,None,,,,,,,,,,,210,24,Female,2022-05-04_16h54.10.895,Main,2022.1.1,60.01154621684275,
negative,positive,2,j,l,,,,,,,,,5,10,100,15,,,,,,,,,,,,,,,,,,,,,,,,main,1,1,2,positive,negative,j,j,1,0.667408900000737,345.727638700002,346.73013339999306,346.71051469999657,None,345.727638700002,None,345.727638700002,None,345.727638700002,None,347.37438505999455,None,347.37438505999455,None,347.37438505999455,None,,,,,,,,,,,210,24,Female,2022-05-04_16h54.10.895,Main,2022.1.1,60.01154621684275,
negative,negative,1,j,l,,,,,,,,,5,11,101,0,,,,,,,,,,,,,,,,,,,,,,,,main,1,1,1,negative,negative,j,j,1,0.6964905999921029,347.39636829998926,348.4051364999905,348.38524869999674,None,347.39636829998926,None,347.39636829998926,None,347.39636829998926,None,349.07258065998906,None,349.07258065998906,None,349.07258065998906,None,,,,,,,,,,,210,24,Female,2022-05-04_16h54.10.895,Main,2022.1.1,60.01154621684275,
neutral,negative,1,k,k,,,,,,,,,5,12,102,7,,,,,,,,,,,,,,,,,,,,,,,,main,2,2,1,negative,neutral,k,k,1,0.7373949000029825,349.0941427999933,350.0947312999924,350.07786479999777,None,349.0941427999933,None,349.0941427999933,None,349.0941427999933,None,350.8160046599893,None,350.8160046599893,None,350.8160046599893,None,,,,,,,,,,,210,24,Female,2022-05-04_16h54.10.895,Main,2022.1.1,60.01154621684275,
neutral,positive,2,k,k,,,,,,,,,5,13,103,13,,,,,,,,,,,,,,,,,,,,,,,,main,2,2,2,positive,neutral,k,k,1,0.8804958999971859,350.8378487000009,351.8502299999964,351.81114309999975,None,350.8378487000009,None,350.8378487000009,None,350.8378487000009,None,352.69848246000186,None,352.69848246000186,None,352.69848246000186,None,,,,,,,,,,,210,24,Female,2022-05-04_16h54.10.895,Main,2022.1.1,60.01154621684275,
negative,neutral,2,j,l,,,,,,,,,5,14,104,12,,,,,,,,,,,,,,,,,,,,,,,,main,2,2,2,neutral,negative,j,j,1,0.7292577999905916,352.72075880000193,353.72727699999814,353.7086344999989,None,352.72075880000193,None,352.72075880000193,None,352.72075880000193,None,354.430334459999,None,354.430334459999,None,354.430334459999,None,,,,,,,,,,,210,24,Female,2022-05-04_16h54.10.895,Main,2022.1.1,60.01154621684275,
positive,negative,2,l,j,,,,,,,,,5,15,105,14,,,,,,,,,,,,,,,,,,,,,,,,main,2,2,2,negative,positive,l,l,1,0.8824138000054518,354.45057239999005,355.4718226999976,355.43282469999394,None,354.45057239999005,None,354.45057239999005,None,354.45057239999005,None,356.31425135999746,None,356.31425135999746,None,356.31425135999746,None,,,,,,,,,,,210,24,Female,2022-05-04_16h54.10.895,Main,2022.1.1,60.01154621684275,
positive,positive,1,l,j,,,,,,,,,5,16,106,2,,,,,,,,,,,,,,,,,,,,,,,,main,2,2,1,positive,positive,l,l,1,0.8501427000010153,356.3356613999931,357.3420430999977,357.32240900000033,None,356.3356613999931,None,356.3356613999931,None,356.3356613999931,None,358.1677624599921,None,358.1677624599921,None,358.1677624599921,None,,,,,,,,,,,210,24,Female,2022-05-04_16h54.10.895,Main,2022.1.1,60.01154621684275,
neutral,positive,1,k,k,,,,,,,,,5,17,107,4,,,,,,,,,,,,,,,,,,,,,,,,main,2,2,1,positive,neutral,k,k,1,0.6862819999951171,358.18896879999375,359.203737799995,359.1651708999998,None,358.18896879999375,None,358.18896879999375,None,358.18896879999375,None,359.85540295999965,None,359.85540295999965,None,359.85540295999965,None,,,,,,,,,,,210,24,Female,2022-05-04_16h54.10.895,Main,2022.1.1,60.01154621684275,
neutral,negative,1,k,k,,,,,,,,,6,0,108,7,,,,,,,,,,,,,,,,,,,,,,,,main,2,2,1,negative,neutral,k,k,1,0.7213138999941293,359.8774582999904,360.8915658999904,360.87194810000074,None,359.8774582999904,None,359.8774582999904,None,359.8774582999904,None,361.582676560001,None,361.582676560001,None,361.582676560001,None,,,,,,,,,,,210,24,Female,2022-05-04_16h54.10.895,Main,2022.1.1,60.01154621684275,
negative,positive,2,j,l,,,,,,,,,6,1,109,15,,,,,,,,,,,,,,,,,,,,,,,,main,2,2,2,positive,negative,j,j,1,0.7165020000102231,361.6047901999991,362.6187455999898,362.57703239998955,None,361.6047901999991,None,361.6047901999991,None,361.6047901999991,None,363.30141185999094,None,363.30141185999094,None,363.30141185999094,None,,,,,,,,,,,210,24,Female,2022-05-04_16h54.10.895,Main,2022.1.1,60.01154621684275,
positive,neutral,2,l,j,,,,,,,,,6,2,110,17,,,,,,,,,,,,,,,,,,,,,,,,main,2,2,2,neutral,positive,l,l,1,0.7945999999938067,363.3231880999956,364.3318586999958,364.3111762999906,None,363.3231880999956,None,363.3231880999956,None,363.3231880999956,None,365.09913625999764,None,365.09913625999764,None,365.09913625999764,None,,,,,,,,,,,210,24,Female,2022-05-04_16h54.10.895,Main,2022.1.1,60.01154621684275,
positive,negative,1,l,j,,,,,,,,,6,3,111,5,,,,,,,,,,,,,,,,,,,,,,,,main,2,2,1,negative,positive,l,l,1,0.8534956999938004,365.1222754999908,366.13446279999334,366.1139914999949,None,365.1222754999908,None,365.1222754999908,None,365.1222754999908,None,366.9562546600006,None,366.9562546600006,None,366.9562546600006,None,,,,,,,,,,,210,24,Female,2022-05-04_16h54.10.895,Main,2022.1.1,60.01154621684275,
positive,negative,2,l,j,,,,,,,,,6,4,112,14,,,,,,,,,,,,,,,,,,,,,,,,main,1,1,2,negative,positive,l,l,1,0.7283078000036767,366.9766544000013,367.9795288000023,367.9599436999997,None,366.9766544000013,None,366.9766544000013,None,366.9766544000013,None,368.68755435999776,None,368.68755435999776,None,368.68755435999776,None,,,,,,,,,,,210,24,Female,2022-05-04_16h54.10.895,Main,2022.1.1,60.01154621684275,
neutral,neutral,2,k,k,,,,,,,,,6,5,113,10,,,,,,,,,,,,,,,,,,,,,,,,main,1,1,2,neutral,neutral,k,k,1,0.7621709999948507,368.7079298999888,369.70947349999915,369.6909708000021,None,368.7079298999888,None,368.7079298999888,None,368.7079298999888,None,370.4520625599922,None,370.4520625599922,None,370.4520625599922,None,,,,,,,,,,,210,24,Female,2022-05-04_16h54.10.895,Main,2022.1.1,60.01154621684275,
positive,positive,1,l,j,,,,,,,,,6,6,114,2,,,,,,,,,,,,,,,,,,,,,,,,main,2,2,1,positive,positive,l,l,1,0.8916603999969084,370.47345739998855,371.4797108999919,371.46009290000075,None,370.47345739998855,None,370.47345739998855,None,370.47345739998855,None,372.3468170599896,None,372.3468170599896,None,372.3468170599896,None,,,,,,,,,,,210,24,Female,2022-05-04_16h54.10.895,Main,2022.1.1,60.01154621684275,
negative,negative,2,j,l,,,,,,,,,6,7,115,9,,,,,,,,,,,,,,,,,,,,,,,,main,2,2,2,negative,negative,j,j,1,0.7229508000018541,372.36953619999986,373.37479649999295,373.3549514999904,None,372.36953619999986,None,372.36953619999986,None,372.36953619999986,None,374.0753231599898,None,374.0753231599898,None,374.0753231599898,None,,,,,,,,,,,210,24,Female,2022-05-04_16h54.10.895,Main,2022.1.1,60.01154621684275,
negative,positive,1,j,l,,,,,,,,,6,8,116,6,,,,,,,,,,,,,,,,,,,,,,,,main,2,2,1,positive,negative,j,j,1,0.8015785000025062,374.0970011999889,375.1112404000014,375.0719978999987,None,374.0970011999889,None,374.0970011999889,None,374.0970011999889,None,375.88094235999745,None,375.88094235999745,None,375.88094235999745,None,,,,,,,,,,,210,24,Female,2022-05-04_16h54.10.895,Main,2022.1.1,60.01154621684275,
negative,negative,1,j,l,,,,,,,,,6,9,117,0,,,,,,,,,,,,,,,,,,,,,,,,main,2,2,1,negative,negative,j,j,1,0.9141549999912968,375.9012493999908,376.90717479999876,376.88640560000204,None,375.9012493999908,None,375.9012493999908,None,375.9012493999908,None,377.79896126000097,None,377.79896126000097,None,377.79896126000097,None,,,,,,,,,,,210,24,Female,2022-05-04_16h54.10.895,Main,2022.1.1,60.01154621684275,
neutral,neutral,1,k,k,,,,,,,,,6,10,118,1,,,,,,,,,,,,,,,,,,,,,,,,main,2,2,1,neutral,neutral,k,k,1,0.6638173999963328,377.82237769999483,378.8391891999927,378.8012398999999,None,377.82237769999483,None,377.82237769999483,None,377.82237769999483,None,379.4657952599897,None,379.4657952599897,None,379.4657952599897,None,,,,,,,,,,,210,24,Female,2022-05-04_16h54.10.895,Main,2022.1.1,60.01154621684275,
positive,positive,2,l,j,,,,,,,,,6,11,119,11,,,,,,,,,,,,,,,,,,,,,,,,main,1,1,2,positive,positive,l,l,1,0.5922677999915322,379.48839430000226,380.4910363999952,380.47417059999134,None,379.48839430000226,None,379.48839430000226,None,379.48839430000226,None,381.0627856599982,None,381.0627856599982,None,381.0627856599982,None,,,,,,,,,,,210,24,Female,2022-05-04_16h54.10.895,Main,2022.1.1,60.01154621684275,
neutral,negative,2,k,k,,,,,,,,,6,12,120,16,,,,,,,,,,,,,,,,,,,,,,,,main,2,2,2,negative,neutral,k,k,1,0.7828710000030696,381.0857715999882,382.0938277999958,382.0743989999901,None,381.0857715999882,None,381.0857715999882,None,381.0857715999882,None,382.84955565998973,None,382.84955565998973,None,382.84955565998973,None,,,,,,,,,,,210,24,Female,2022-05-04_16h54.10.895,Main,2022.1.1,60.01154621684275,
negative,neutral,1,j,l,,,,,,,,,6,13,121,3,,,,,,,,,,,,,,,,,,,,,,,,main,2,2,1,neutral,negative,j,j,1,0.7117502000037348,382.8695962999918,383.88007059998927,383.8414522999956,None,382.8695962999918,None,382.8695962999918,None,382.8695962999918,None,384.56542775999117,None,384.56542775999117,None,384.56542775999117,None,,,,,,,,,,,210,24,Female,2022-05-04_16h54.10.895,Main,2022.1.1,60.01154621684275,
neutral,positive,1,k,k,,,,,,,,,6,14,122,4,,,,,,,,,,,,,,,,,,,,,,,,main,2,2,1,positive,neutral,k,k,1,0.7718684999999823,384.58580429998983,385.6010212999972,385.561489300002,None,384.58580429998983,None,384.58580429998983,None,384.58580429998983,None,386.34121295999796,None,386.34121295999796,None,386.34121295999796,None,,,,,,,,,,,210,24,Female,2022-05-04_16h54.10.895,Main,2022.1.1,60.01154621684275,
neutral,positive,2,k,k,,,,,,,,,6,15,123,13,,,,,,,,,,,,,,,,,,,,,,,,main,2,2,2,positive,neutral,k,k,1,0.6472171999921557,386.3634497000021,387.3741510999971,387.3549078999931,None,386.3634497000021,None,386.3634497000021,None,386.3634497000021,None,387.9912251599977,None,387.9912251599977,None,387.9912251599977,None,,,,,,,,,,,210,24,Female,2022-05-04_16h54.10.895,Main,2022.1.1,60.01154621684275,
negative,neutral,2,j,l,,,,,,,,,6,16,124,12,,,,,,,,,,,,,,,,,,,,,,,,main,2,2,2,neutral,negative,j,j,1,0.8324662999948487,388.01194589999795,389.021994499999,389.0022154999897,None,388.01194589999795,None,388.01194589999795,None,388.01194589999795,None,389.8216904599918,None,389.8216904599918,None,389.8216904599918,None,,,,,,,,,,,210,24,Female,2022-05-04_16h54.10.895,Main,2022.1.1,60.01154621684275,
positive,neutral,1,l,j,,,,,,,,,6,17,125,8,,,,,,,,,,,,,,,,,,,,,,,,main,2,2,1,neutral,positive,l,l,1,0.8723586999985855,389.84386280000035,390.8543529000017,390.83507459999237,None,389.84386280000035,None,389.84386280000035,None,389.84386280000035,None,391.6988324599894,None,391.6988324599894,None,391.6988324599894,None,,,,,,,,,,,210,24,Female,2022-05-04_16h54.10.895,Main,2022.1.1,60.01154621684275,
neutral,positive,1,k,k,,,,,,,,,7,0,126,4,,,,,,,,,,,,,,,,,,,,,,,,main,1,1,1,positive,neutral,k,k,1,0.8871672999957809,391.71993159998965,392.7281132999924,392.70803209999576,None,391.71993159998965,None,391.71993159998965,None,391.71993159998965,None,393.5888157599926,None,393.5888157599926,None,393.5888157599926,None,,,,,,,,,,,210,24,Female,2022-05-04_16h54.10.895,Main,2022.1.1,60.01154621684275,
neutral,negative,2,k,k,,,,,,,,,7,1,127,16,,,,,,,,,,,,,,,,,,,,,,,,main,1,1,2,negative,neutral,k,k,1,0.7935959999886109,393.60861009999644,394.61274609999964,394.5935664999997,None,393.60861009999644,None,393.60861009999644,None,393.60861009999644,None,395.38476175999097,None,395.38476175999097,None,395.38476175999097,None,,,,,,,,,,,210,24,Female,2022-05-04_16h54.10.895,Main,2022.1.1,60.01154621684275,
neutral,negative,1,k,k,,,,,,,,,7,2,128,7,,,,,,,,,,,,,,,,,,,,,,,,main,2,2,1,negative,neutral,k,k,1,0.7549244999972871,395.40471190000244,396.42212079999445,396.3838484000007,None,395.40471190000244,None,395.40471190000244,None,395.40471190000244,None,397.1439885599917,None,397.1439885599917,None,397.1439885599917,None,,,,,,,,,,,210,24,Female,2022-05-04_16h54.10.895,Main,2022.1.1,60.01154621684275,
positive,neutral,2,l,j,,,,,,,,,7,3,129,17,,,,,,,,,,,,,,,,,,,,,,,,main,1,1,2,neutral,positive,l,l,1,0.8418587000051048,397.16354709998996,398.1850912999944,398.1449122999911,None,397.16354709998996,None,397.16354709998996,None,397.16354709998996,None,398.9846018600016,None,398.9846018600016,None,398.9846018600016,None,,,,,,,,,,,210,24,Female,2022-05-04_16h54.10.895,Main,2022.1.1,60.01154621684275,
negative,positive,1,j,l,,,,,,,,,7,4,130,6,,,,,,,,,,,,,,,,,,,,,,,,main,2,2,1,positive,negative,j,j,1,0.8290365000138991,399.0077231999894,400.01471740000125,399.99525469999935,None,399.0077231999894,None,399.0077231999894,None,399.0077231999894,None,400.81733005999706,None,400.81733005999706,None,400.81733005999706,None,,,,,,,,,,,210,24,Female,2022-05-04_16h54.10.895,Main,2022.1.1,60.01154621684275,
positive,neutral,1,l,j,,,,,,,,,7,5,131,8,,,,,,,,,,,,,,,,,,,,,,,,main,1,1,1,neutral,positive,l,l,1,0.8764356000028783,400.83772689999023,401.8577637999988,401.8194930999889,None,400.83772689999023,None,400.83772689999023,None,400.83772689999023,None,402.69679075999886,None,402.69679075999886,None,402.69679075999886,None,,,,,,,,,,,210,24,Female,2022-05-04_16h54.10.895,Main,2022.1.1,60.01154621684275,
positive,negative,1,l,j,,,,,,,,,7,6,132,5,,,,,,,,,,,,,,,,,,,,,,,,main,2,2,1,negative,positive,l,l,1,0.7585801000095671,402.71893389998877,403.73094619999756,403.71074399999634,None,402.71893389998877,None,402.71893389998877,None,402.71893389998877,None,404.4610356599966,None,404.4610356599966,None,404.4610356599966,None,,,,,,,,,,,210,24,Female,2022-05-04_16h54.10.895,Main,2022.1.1,60.01154621684275,
negative,neutral,1,j,l,,,,,,,,,7,7,133,3,,,,,,,,,,,,,,,,,,,,,,,,main,1,1,1,neutral,negative,j,j,1,0.9887943000067025,404.4820211999904,405.48450330000196,405.4661485999968,None,404.4820211999904,None,404.4820211999904,None,404.4820211999904,None,406.45301176000214,None,406.45301176000214,None,406.45301176000214,None,,,,,,,,,,,210,24,Female,2022-05-04_16h54.10.895,Main,2022.1.1,60.01154621684275,
positive,positive,1,l,j,,,,,,,,,7,8,134,2,,,,,,,,,,,,,,,,,,,,,,,,main,2,2,1,positive,positive,l,l,1,0.9164013999979943,406.4740308999899,407.4857278999989,407.46620059999987,None,406.4740308999899,None,406.4740308999899,None,406.4740308999899,None,408.3731935600023,None,408.3731935600023,None,408.3731935600023,None,,,,,,,,,,,210,24,Female,2022-05-04_16h54.10.895,Main,2022.1.1,60.01154621684275,
neutral,neutral,1,k,k,,,,,,,,,7,9,135,1,,,,,,,,,,,,,,,,,,,,,,,,main,1,1,1,neutral,neutral,k,k,1,0.6983825000061188,408.39359039999545,409.4104165000026,409.37088969998877,None,408.39359039999545,None,408.39359039999545,None,408.39359039999545,None,410.0746415599948,None,410.0746415599948,None,410.0746415599948,None,,,,,,,,,,,210,24,Female,2022-05-04_16h54.10.895,Main,2022.1.1,60.01154621684275,
negative,negative,1,j,l,,,,,,,,,7,10,136,0,,,,,,,,,,,,,,,,,,,,,,,,main,1,1,1,negative,negative,j,j,1,1.1761868000030518,410.09420469999895,411.1004564999894,411.0817633999977,None,410.09420469999895,None,410.09420469999895,None,410.09420469999895,None,412.2509151599894,None,412.2509151599894,None,412.2509151599894,None,,,,,,,,,,,210,24,Female,2022-05-04_16h54.10.895,Main,2022.1.1,60.01154621684275,
negative,neutral,2,j,l,,,,,,,,,7,11,137,12,,,,,,,,,,,,,,,,,,,,,,,,main,1,1,2,neutral,negative,j,j,1,0.7134071000036784,412.2721518999897,413.2901107999933,413.2517025999987,None,412.2721518999897,None,412.2721518999897,None,412.2721518999897,None,413.9701534599968,None,413.9701534599968,None,413.9701534599968,None,,,,,,,,,,,210,24,Female,2022-05-04_16h54.10.895,Main,2022.1.1,60.01154621684275,
neutral,neutral,2,k,k,,,,,,,,,7,12,138,10,,,,,,,,,,,,,,,,,,,,,,,,main,1,1,2,neutral,neutral,k,k,1,0.832962000000407,413.98907879999024,414.9999886000005,414.98016039999493,None,413.98907879999024,None,413.98907879999024,None,413.98907879999024,None,415.80518115999587,None,415.80518115999587,None,415.80518115999587,None,,,,,,,,,,,210,24,Female,2022-05-04_16h54.10.895,Main,2022.1.1,60.01154621684275,
negative,positive,2,j,l,,,,,,,,,7,13,139,15,,,,,,,,,,,,,,,,,,,,,,,,main,2,2,2,positive,negative,j,j,1,0.685063099997933,415.8260888999939,416.8462984999933,416.8067824999889,None,415.8260888999939,None,415.8260888999939,None,415.8260888999939,None,417.49194216000035,None,417.49194216000035,None,417.49194216000035,None,,,,,,,,,,,210,24,Female,2022-05-04_16h54.10.895,Main,2022.1.1,60.01154621684275,
positive,negative,2,l,j,,,,,,,,,7,14,140,14,,,,,,,,,,,,,,,,,,,,,,,,main,2,2,2,negative,positive,l,l,1,0.6593005000031553,417.5126703999995,418.53159629998845,418.4936086999951,None,417.5126703999995,None,417.5126703999995,None,417.5126703999995,None,419.15554565999776,None,419.15554565999776,None,419.15554565999776,None,,,,,,,,,,,210,24,Female,2022-05-04_16h54.10.895,Main,2022.1.1,60.01154621684275,
neutral,positive,2,k,k,,,,,,,,,7,15,141,13,,,,,,,,,,,,,,,,,,,,,,,,main,1,1,2,positive,neutral,k,k,1,1.0246030000125756,419.1764336999913,420.19421489999513,420.15248489999794,None,419.1764336999913,None,419.1764336999913,None,419.1764336999913,None,421.1812950599939,None,421.1812950599939,None,421.1812950599939,None,,,,,,,,,,,210,24,Female,2022-05-04_16h54.10.895,Main,2022.1.1,60.01154621684275,
negative,negative,2,j,l,,,,,,,,,7,16,142,9,,,,,,,,,,,,,,,,,,,,,,,,main,2,2,2,negative,negative,j,j,1,0.7974002999981167,421.2013428999926,422.22426760000235,422.2036844999966,None,421.2013428999926,None,421.2013428999926,None,421.2013428999926,None,422.98081265999065,None,422.98081265999065,None,422.98081265999065,None,,,,,,,,,,,210,24,Female,2022-05-04_16h54.10.895,Main,2022.1.1,60.01154621684275,
positive,positive,2,l,j,,,,,,,,,7,17,143,11,,,,,,,,,,,,,,,,,,,,,,,,main,2,2,2,positive,positive,l,l,1,0.730607699995744,423.002298899999,424.0081005999964,423.98896829999285,None,423.002298899999,None,423.002298899999,None,423.002298899999,None,424.71383455999023,None,424.71383455999023,None,424.71383455999023,None,,,,,,,,,,,210,24,Female,2022-05-04_16h54.10.895,Main,2022.1.1,60.01154621684275,
negative,negative,1,j,l,,,,,,,,,8,0,144,0,,,,,,,,,,,,,,,,,,,,,,,,main,1,1,1,negative,negative,j,j,1,0.7335677000082796,424.735319799991,425.7480635999964,425.7101571999956,None,424.735319799991,None,424.735319799991,None,424.735319799991,None,426.4531067599979,None,426.4531067599979,None,426.4531067599979,None,,,,,,,,,,,210,24,Female,2022-05-04_16h54.10.895,Main,2022.1.1,60.01154621684275,
negative,neutral,1,j,l,,,,,,,,,8,1,145,3,,,,,,,,,,,,,,,,,,,,,,,,main,2,2,1,neutral,negative,j,j,1,0.762623500006157,426.47229379999044,427.4788525999902,427.45956019998994,None,426.47229379999044,None,426.47229379999044,None,426.47229379999044,None,428.21441465999817,None,428.21441465999817,None,428.21441465999817,None,,,,,,,,,,,210,24,Female,2022-05-04_16h54.10.895,Main,2022.1.1,60.01154621684275,
positive,positive,2,l,j,,,,,,,,,8,2,146,11,,,,,,,,,,,,,,,,,,,,,,,,main,2,2,2,positive,positive,l,l,1,0.8151460000080988,428.2379190999927,429.2496487999888,429.23022219999984,None,428.2379190999927,None,428.2379190999927,None,428.2379190999927,None,430.0349990600022,None,430.0349990600022,None,430.0349990600022,None,,,,,,,,,,,210,24,Female,2022-05-04_16h54.10.895,Main,2022.1.1,60.01154621684275,
positive,neutral,2,l,j,,,,,,,,,8,3,147,17,,,,,,,,,,,,,,,,,,,,,,,,main,2,2,2,neutral,positive,l,l,1,0.8868757000018377,430.0555180999945,431.0627392000024,431.04222079999454,None,430.0555180999945,None,430.0555180999945,None,430.0555180999945,None,431.924474159992,None,431.924474159992,None,431.924474159992,None,,,,,,,,,,,210,24,Female,2022-05-04_16h54.10.895,Main,2022.1.1,60.01154621684275,
positive,positive,1,l,j,,,,,,,,,8,4,148,2,,,,,,,,,,,,,,,,,,,,,,,,main,2,2,1,positive,positive,l,l,1,0.9364727000065614,431.946852699999,432.96591869999247,432.9268979999906,None,431.946852699999,None,431.946852699999,None,431.946852699999,None,433.8641012599925,None,433.8641012599925,None,433.8641012599925,None,,,,,,,,,,,210,24,Female,2022-05-04_16h54.10.895,Main,2022.1.1,60.01154621684275,
negative,negative,2,j,l,,,,,,,,,8,5,149,9,,,,,,,,,,,,,,,,,,,,,,,,main,2,2,2,negative,negative,j,j,1,0.9528515000129119,433.88923760000034,434.90514819999225,434.86695149999287,None,433.88923760000034,None,433.88923760000034,None,433.88923760000034,None,435.822330959994,None,435.822330959994,None,435.822330959994,None,,,,,,,,,,,210,24,Female,2022-05-04_16h54.10.895,Main,2022.1.1,60.01154621684275,
positive,negative,2,l,j,,,,,,,,,8,6,150,14,,,,,,,,,,,,,,,,,,,,,,,,main,1,1,2,negative,positive,l,l,1,0.7672386999911396,435.842253099996,436.85311489999003,436.81511619999947,None,435.842253099996,None,435.842253099996,None,435.842253099996,None,437.5918566599954,None,437.5918566599954,None,437.5918566599954,None,,,,,,,,,,,210,24,Female,2022-05-04_16h54.10.895,Main,2022.1.1,60.01154621684275,
negative,positive,2,j,l,,,,,,,,,8,7,151,15,,,,,,,,,,,,,,,,,,,,,,,,main,2,2,2,positive,negative,j,j,1,0.8851992999989307,437.6125572000019,438.6348369999905,438.58696499999496,None,437.6125572000019,None,437.6125572000019,None,437.6125572000019,None,439.47933486000113,None,439.47933486000113,None,439.47933486000113,None,,,,,,,,,,,210,24,Female,2022-05-04_16h54.10.895,Main,2022.1.1,60.01154621684275,
neutral,neutral,2,k,k,,,,,,,,,8,8,152,10,,,,,,,,,,,,,,,,,,,,,,,,main,1,1,2,neutral,neutral,k,k,1,0.9506875999941258,439.4996001999971,440.52068399998825,440.48059019999346,None,439.4996001999971,None,439.4996001999971,None,439.4996001999971,None,441.434797360003,None,441.434797360003,None,441.434797360003,None,,,,,,,,,,,210,24,Female,2022-05-04_16h54.10.895,Main,2022.1.1,60.01154621684275,
neutral,positive,1,k,k,,,,,,,,,8,9,153,4,,,,,,,,,,,,,,,,,,,,,,,,main,1,1,1,positive,neutral,k,k,1,1.282237500010524,441.45548769999004,442.4676940999925,442.429650399994,None,441.45548769999004,None,441.45548769999004,None,441.45548769999004,None,443.71928875999004,None,443.71928875999004,None,443.71928875999004,None,,,,,,,,,,,210,24,Female,2022-05-04_16h54.10.895,Main,2022.1.1,60.01154621684275,
neutral,neutral,1,k,k,,,,,,,,,8,10,154,1,,,,,,,,,,,,,,,,,,,,,,,,main,1,1,1,neutral,neutral,k,k,1,0.8617392000014661,443.7388415999885,444.75799649998953,444.7197079999896,None,443.7388415999885,None,443.7388415999885,None,443.7388415999885,None,445.58081346000256,None,445.58081346000256,None,445.58081346000256,None,,,,,,,,,,,210,24,Female,2022-05-04_16h54.10.895,Main,2022.1.1,60.01154621684275,
neutral,positive,2,k,k,,,,,,,,,8,11,155,13,,,,,,,,,,,,,,,,,,,,,,,,main,2,2,2,positive,neutral,k,k,1,0.8001651999948081,445.60130840000056,446.61724069999764,446.57920300000114,None,445.60130840000056,None,445.60130840000056,None,445.60130840000056,None,447.38581835998923,None,447.38581835998923,None,447.38581835998923,None,,,,,,,,,,,210,24,Female,2022-05-04_16h54.10.895,Main,2022.1.1,60.01154621684275,
negative,neutral,2,j,l,,,,,,,,,8,12,156,12,,,,,,,,,,,,,,,,,,,,,,,,main,2,2,2,neutral,negative,j,j,1,1.297980599993025,447.40805399999954,448.4141985000024,448.39371829999436,None,447.40805399999954,None,447.40805399999954,None,447.40805399999954,None,449.68610135999336,None,449.68610135999336,None,449.68610135999336,None,,,,,,,,,,,210,24,Female,2022-05-04_16h54.10.895,Main,2022.1.1,60.01154621684275,
positive,negative,1,l,j,,,,,,,,,8,13,157,5,,,,,,,,,,,,,,,,,,,,,,,,main,2,2,1,negative,positive,l,l,1,0.8791552999900887,449.7073185999907,450.7121241999994,450.6930807000026,None,449.7073185999907,None,449.7073185999907,None,449.7073185999907,None,451.56774445999474,None,451.56774445999474,None,451.56774445999474,None,,,,,,,,,,,210,24,Female,2022-05-04_16h54.10.895,Main,2022.1.1,60.01154621684275,
negative,positive,1,j,l,,,,,,,,,8,14,158,6,,,,,,,,,,,,,,,,,,,,,,,,main,2,2,1,positive,negative,j,j,1,0.9324748999933945,451.5888486999902,452.59787420000066,452.5783408999996,None,451.5888486999902,None,451.5888486999902,None,451.5888486999902,None,453.50305015999186,None,453.50305015999186,None,453.50305015999186,None,,,,,,,,,,,210,24,Female,2022-05-04_16h54.10.895,Main,2022.1.1,60.01154621684275,
positive,neutral,1,l,j,,,,,,,,,8,15,159,8,,,,,,,,,,,,,,,,,,,,,,,,main,2,2,1,neutral,positive,l,l,1,0.8103365999995731,453.5229565999907,454.53852239999105,454.4994549999974,None,453.5229565999907,None,453.5229565999907,None,453.5229565999907,None,455.31229605999545,None,455.31229605999545,None,455.31229605999545,None,,,,,,,,,,,210,24,Female,2022-05-04_16h54.10.895,Main,2022.1.1,60.01154621684275,
neutral,negative,1,k,k,,,,,,,,,8,16,160,7,,,,,,,,,,,,,,,,,,,,,,,,main,2,2,1,negative,neutral,k,k,1,0.7607648999983212,455.3337477999885,456.35459360000095,456.314873299998,None,455.3337477999885,None,455.3337477999885,None,455.3337477999885,None,457.0755498599989,None,457.0755498599989,None,457.0755498599989,None,,,,,,,,,,,210,24,Female,2022-05-04_16h54.10.895,Main,2022.1.1,60.01154621684275,
neutral,negative,2,k,k,,,,,,,,,8,17,161,16,,,,,,,,,,,,,,,,,,,,,,,,main,1,1,2,negative,neutral,k,k,1,0.6811096999881556,457.09696239999903,458.09934119999525,458.0804826999956,None,457.09696239999903,None,457.09696239999903,None,457.09696239999903,None,458.7599986599904,None,458.7599986599904,None,458.7599986599904,None,,,,,,,,,,,210,24,Female,2022-05-04_16h54.10.895,Main,2022.1.1,60.01154621684275,
neutral,negative,1,k,k,,,,,,,,,9,0,162,7,,,,,,,,,,,,,,,,,,,,,,,,main,1,1,1,negative,neutral,k,k,1,1.1969678000023123,458.7800000999996,459.7923796999967,459.75420830000076,None,458.7800000999996,None,458.7800000999996,None,458.7800000999996,None,460.959660859991,None,460.959660859991,None,460.959660859991,None,,,,,,,,,,,210,24,Female,2022-05-04_16h54.10.895,Main,2022.1.1,60.01154621684275,
negative,negative,2,j,l,,,,,,,,,9,1,163,9,,,,,,,,,,,,,,,,,,,,,,,,main,2,2,2,negative,negative,j,j,1,0.5835445999982767,460.97960639999656,462.00175489998946,461.9612047999981,None,460.97960639999656,None,460.97960639999656,None,460.97960639999656,None,462.54582745998925,None,462.54582745998925,None,462.54582745998925,None,,,,,,,,,,,210,24,Female,2022-05-04_16h54.10.895,Main,2022.1.1,60.01154621684275,
negative,positive,2,j,l,,,,,,,,,9,2,164,15,,,,,,,,,,,,,,,,,,,,,,,,main,1,1,2,positive,negative,j,j,1,0.6630532999988645,462.5673620000016,463.58910019999894,463.5487674999895,None,462.5673620000016,None,462.5673620000016,None,462.5673620000016,None,464.21294936000197,None,464.21294936000197,None,464.21294936000197,None,,,,,,,,,,,210,24,Female,2022-05-04_16h54.10.895,Main,2022.1.1,60.01154621684275,
negative,negative,1,j,l,,,,,,,,,9,3,165,0,,,,,,,,,,,,,,,,,,,,,,,,main,2,2,1,negative,negative,j,j,1,0.662377300002845,464.23331679998955,465.2527265999961,465.21378409999306,None,464.23331679998955,None,464.23331679998955,None,464.23331679998955,None,465.8769066600013,None,465.8769066600013,None,465.8769066600013,None,,,,,,,,,,,210,24,Female,2022-05-04_16h54.10.895,Main,2022.1.1,60.01154621684275,
neutral,positive,2,k,k,,,,,,,,,9,4,166,13,,,,,,,,,,,,,,,,,,,,,,,,main,2,2,2,positive,neutral,k,k,1,0.6140111999993678,465.8980530999979,466.91666760000226,466.8769855999999,None,465.8980530999979,None,465.8980530999979,None,465.8980530999979,None,467.49196585999164,None,467.49196585999164,None,467.49196585999164,None,,,,,,,,,,,210,24,Female,2022-05-04_16h54.10.895,Main,2022.1.1,60.01154621684275,
negative,neutral,1,j,l,,,,,,,,,9,5,167,3,,,,,,,,,,,,,,,,,,,,,,,,main,2,2,1,neutral,negative,j,k,0,0.6290198000060627,467.51440410000214,468.5177459999977,468.4969267999986,None,467.51440410000214,None,467.51440410000214,None,467.51440410000214,None,469.1306675999949,None,469.1306675999949,None,469.1306675999949,None,,,,,,,,,,,210,24,Female,2022-05-04_16h54.10.895,Main,2022.1.1,60.01154621684275,
positive,neutral,2,l,j,,,,,,,,,9,6,168,17,,,,,,,,,,,,,,,,,,,,,,,,main,2,2,2,neutral,positive,l,l,1,0.9077262000064366,470.14409989998967,471.16373960000055,471.1254831999977,None,470.14409989998967,None,470.14409989998967,None,470.14409989998967,None,472.0336977600033,None,472.0336977600033,None,472.0336977600033,None,,,,,,,,,,,210,24,Female,2022-05-04_16h54.10.895,Main,2022.1.1,60.01154621684275,
positive,negative,2,l,j,,,,,,,,,9,7,169,14,,,,,,,,,,,,,,,,,,,,,,,,main,1,1,2,negative,positive,l,l,1,1.356894900003681,472.0546013999992,473.0714325000008,473.03038620000007,None,472.0546013999992,None,472.0546013999992,None,472.0546013999992,None,474.3907677600015,None,474.3907677600015,None,474.3907677600015,None,,,,,,,,,,,210,24,Female,2022-05-04_16h54.10.895,Main,2022.1.1,60.01154621684275,
positive,positive,1,l,j,,,,,,,,,9,8,170,2,,,,,,,,,,,,,,,,,,,,,,,,main,2,2,1,positive,positive,l,l,1,0.7477130000042962,474.4139407999901,475.4336668999895,475.3949413999944,None,474.4139407999901,None,474.4139407999901,None,474.4139407999901,None,476.140561560003,None,476.140561560003,None,476.140561560003,None,,,,,,,,,,,210,24,Female,2022-05-04_16h54.10.895,Main,2022.1.1,60.01154621684275,
neutral,positive,1,k,k,,,,,,,,,9,9,171,4,,,,,,,,,,,,,,,,,,,,,,,,main,1,1,1,positive,neutral,k,k,1,0.7783264000026975,476.16432569999597,477.18351000000257,477.14366359999985,None,476.16432569999597,None,476.16432569999597,None,476.16432569999597,None,477.92397775999564,None,477.92397775999564,None,477.92397775999564,None,,,,,,,,,,,210,24,Female,2022-05-04_16h54.10.895,Main,2022.1.1,60.01154621684275,
neutral,negative,2,k,k,,,,,,,,,9,10,172,16,,,,,,,,,,,,,,,,,,,,,,,,main,2,2,2,negative,neutral,k,k,1,0.6211699999985285,477.9443207000004,478.95555309999327,478.91712749999715,None,477.9443207000004,None,477.9443207000004,None,477.9443207000004,None,479.5497574599955,None,479.5497574599955,None,479.5497574599955,None,,,,,,,,,,,210,24,Female,2022-05-04_16h54.10.895,Main,2022.1.1,60.01154621684275,
positive,neutral,1,l,j,,,,,,,,,9,11,173,8,,,,,,,,,,,,,,,,,,,,,,,,main,2,2,1,neutral,positive,l,l,1,0.9167723999998998,479.5711556000024,480.57689189999655,480.5570355999953,None,479.5711556000024,None,479.5711556000024,None,479.5711556000024,None,481.4683910599939,None,481.4683910599939,None,481.4683910599939,None,,,,,,,,,,,210,24,Female,2022-05-04_16h54.10.895,Main,2022.1.1,60.01154621684275,
neutral,neutral,2,k,k,,,,,,,,,9,12,174,10,,,,,,,,,,,,,,,,,,,,,,,,main,2,2,2,neutral,neutral,k,k,1,0.9572844999929657,481.4890371999936,482.5060830000002,482.4678683999955,None,481.4890371999936,None,481.4890371999936,None,481.4890371999936,None,483.4300502600032,None,483.4300502600032,None,483.4300502600032,None,,,,,,,,,,,210,24,Female,2022-05-04_16h54.10.895,Main,2022.1.1,60.01154621684275,
neutral,neutral,1,k,k,,,,,,,,,9,13,175,1,,,,,,,,,,,,,,,,,,,,,,,,main,2,2,1,neutral,neutral,k,k,1,0.7710404000099516,483.4505461999943,484.4671743999934,484.42770899999596,None,483.4505461999943,None,483.4505461999943,None,483.4505461999943,None,485.20264096000176,None,485.20264096000176,None,485.20264096000176,None,,,,,,,,,,,210,24,Female,2022-05-04_16h54.10.895,Main,2022.1.1,60.01154621684275,
positive,negative,1,l,j,,,,,,,,,9,14,176,5,,,,,,,,,,,,,,,,,,,,,,,,main,1,1,1,negative,positive,l,l,1,0.7686225999932503,485.22324729998945,486.2318488000019,486.21140419998846,None,485.22324729998945,None,485.22324729998945,None,485.22324729998945,None,486.97358565999605,None,486.97358565999605,None,486.97358565999605,None,,,,,,,,,,,210,24,Female,2022-05-04_16h54.10.895,Main,2022.1.1,60.01154621684275,
positive,positive,2,l,j,,,,,,,,,9,15,177,11,,,,,,,,,,,,,,,,,,,,,,,,main,1,1,2,positive,positive,l,l,1,0.8844103000010364,486.9957211000001,487.99943689999054,487.9802656999964,None,486.9957211000001,None,486.9957211000001,None,486.9957211000001,None,488.8623710600019,None,488.8623710600019,None,488.8623710600019,None,,,,,,,,,,,210,24,Female,2022-05-04_16h54.10.895,Main,2022.1.1,60.01154621684275,
negative,neutral,2,j,l,,,,,,,,,9,16,178,12,,,,,,,,,,,,,,,,,,,,,,,,main,2,2,2,neutral,negative,j,j,1,0.8306404000031762,488.8820459999988,489.8940436999983,489.8743807999999,None,488.8820459999988,None,488.8820459999988,None,488.8820459999988,None,490.69568385999594,None,490.69568385999594,None,490.69568385999594,None,,,,,,,,,,,210,24,Female,2022-05-04_16h54.10.895,Main,2022.1.1,60.01154621684275,
negative,positive,1,j,l,,,,,,,,,9,17,179,6,,,,,,,,,,,,,,,,,,,,,,,,main,2,2,1,positive,negative,j,j,1,0.6910758999874815,490.71845010000106,491.73900019998837,491.70018499999424,None,490.71845010000106,None,490.71845010000106,None,490.71845010000106,None,492.3875009599957,None,492.3875009599957,None,492.3875009599957,None,,,,,,,,,,,210,24,Female,2022-05-04_16h54.10.895,Main,2022.1.1,60.01154621684275,
negative,positive,2,j,l,,,,,,,,,10,0,180,15,,,,,,,,,,,,,,,,,,,,,,,,main,2,2,2,positive,negative,j,j,1,0.7594258999888552,492.40865069998836,493.4279775999894,493.3889906999975,None,492.40865069998836,None,492.40865069998836,None,492.40865069998836,None,494.15063905999125,None,494.15063905999125,None,494.15063905999125,None,,,,,,,,,,,210,24,Female,2022-05-04_16h54.10.895,Main,2022.1.1,60.01154621684275,
negative,negative,1,j,l,,,,,,,,,10,1,181,0,,,,,,,,,,,,,,,,,,,,,,,,main,2,2,1,negative,negative,j,j,1,0.7207527999999002,494.17337209999096,495.18545969999104,495.165920799991,None,494.17337209999096,None,494.17337209999096,None,494.17337209999096,None,495.8755906599923,None,495.8755906599923,None,495.8755906599923,None,,,,,,,,,,,210,24,Female,2022-05-04_16h54.10.895,Main,2022.1.1,60.01154621684275,
neutral,neutral,2,k,k,,,,,,,,,10,2,182,10,,,,,,,,,,,,,,,,,,,,,,,,main,2,2,2,neutral,neutral,k,k,1,0.7447278000036022,495.8980518000026,496.9189202999987,496.8791302999889,None,495.8980518000026,None,495.8980518000026,None,495.8980518000026,None,497.6219211599906,None,497.6219211599906,None,497.6219211599906,None,,,,,,,,,,,210,24,Female,2022-05-04_16h54.10.895,Main,2022.1.1,60.01154621684275,
positive,negative,1,l,j,,,,,,,,,10,3,183,5,,,,,,,,,,,,,,,,,,,,,,,,main,1,1,1,negative,positive,l,l,1,0.9149231000046711,497.6434955000004,498.6590531999973,498.6232563999947,None,497.6434955000004,None,497.6434955000004,None,497.6434955000004,None,499.54117295999606,None,499.54117295999606,None,499.54117295999606,None,,,,,,,,,,,210,24,Female,2022-05-04_16h54.10.895,Main,2022.1.1,60.01154621684275,
positive,neutral,1,l,j,,,,,,,,,10,4,184,8,,,,,,,,,,,,,,,,,,,,,,,,main,1,1,1,neutral,positive,l,l,1,0.698726100003114,499.5612243999931,500.5650827999925,500.54573519999394,None,499.5612243999931,None,499.5612243999931,None,499.5612243999931,None,501.24456745999635,None,501.24456745999635,None,501.24456745999635,None,,,,,,,,,,,210,24,Female,2022-05-04_16h54.10.895,Main,2022.1.1,60.01154621684275,
neutral,positive,2,k,k,,,,,,,,,10,5,185,13,,,,,,,,,,,,,,,,,,,,,,,,main,1,1,2,positive,neutral,k,k,1,0.7811676999990596,501.26362829998834,502.27995309999096,502.2405710000021,None,501.26362829998834,None,501.26362829998834,None,501.26362829998834,None,503.02576165999346,None,503.02576165999346,None,503.02576165999346,None,,,,,,,,,,,210,24,Female,2022-05-04_16h54.10.895,Main,2022.1.1,60.01154621684275,
neutral,negative,1,k,k,,,,,,,,,10,6,186,7,,,,,,,,,,,,,,,,,,,,,,,,main,2,2,1,negative,neutral,k,k,1,0.7796144000021741,503.0474480999983,504.0631057999999,504.02377459999116,None,503.0474480999983,None,503.0474480999983,None,503.0474480999983,None,504.8078788599902,None,504.8078788599902,None,504.8078788599902,None,,,,,,,,,,,210,24,Female,2022-05-04_16h54.10.895,Main,2022.1.1,60.01154621684275,
positive,negative,2,l,j,,,,,,,,,10,7,187,14,,,,,,,,,,,,,,,,,,,,,,,,main,1,1,2,negative,positive,l,l,1,0.70774359999632,504.82844620000105,505.8345002999995,505.8144414999988,None,504.82844620000105,None,504.82844620000105,None,504.82844620000105,None,506.51689736000264,None,506.51689736000264,None,506.51689736000264,None,,,,,,,,,,,210,24,Female,2022-05-04_16h54.10.895,Main,2022.1.1,60.01154621684275,
positive,positive,2,l,j,,,,,,,,,10,8,188,11,,,,,,,,,,,,,,,,,,,,,,,,main,2,2,2,positive,positive,l,l,1,0.7088739000027999,506.5390003999928,507.5602538999956,507.5191880999919,None,506.5390003999928,None,506.5390003999928,None,506.5390003999928,None,508.23084836000055,None,508.23084836000055,None,508.23084836000055,None,,,,,,,,,,,210,24,Female,2022-05-04_16h54.10.895,Main,2022.1.1,60.01154621684275,
neutral,negative,2,k,k,,,,,,,,,10,9,189,16,,,,,,,,,,,,,,,,,,,,,,,,main,2,2,2,negative,neutral,k,k,1,0.793805399996927,508.2517602000007,509.26846529998875,509.227913900002,None,508.2517602000007,None,508.2517602000007,None,508.2517602000007,None,510.0292015599931,None,510.0292015599931,None,510.0292015599931,None,,,,,,,,,,,210,24,Female,2022-05-04_16h54.10.895,Main,2022.1.1,60.01154621684275,
positive,positive,1,l,j,,,,,,,,,10,10,190,2,,,,,,,,,,,,,,,,,,,,,,,,main,2,2,1,positive,positive,l,l,1,0.6709384999994654,510.05007099999057,511.05440719999024,511.0353252999921,None,510.05007099999057,None,510.05007099999057,None,510.05007099999057,None,511.7009255599929,None,511.7009255599929,None,511.7009255599929,None,,,,,,,,,,,210,24,Female,2022-05-04_16h54.10.895,Main,2022.1.1,60.01154621684275,
positive,neutral,2,l,j,,,,,,,,,10,11,191,17,,,,,,,,,,,,,,,,,,,,,,,,main,1,1,2,neutral,positive,l,l,1,0.688258100009989,511.72163210000144,512.7290846999967,512.7098663999932,None,511.72163210000144,None,511.72163210000144,None,511.72163210000144,None,513.3936779599986,None,513.3936779599986,None,513.3936779599986,None,,,,,,,,,,,210,24,Female,2022-05-04_16h54.10.895,Main,2022.1.1,60.01154621684275,
negative,neutral,1,j,l,,,,,,,,,10,12,192,3,,,,,,,,,,,,,,,,,,,,,,,,main,2,2,1,neutral,negative,j,j,1,0.9449991000001319,513.4131624000001,514.426623899999,514.3868404999957,None,513.4131624000001,None,513.4131624000001,None,513.4131624000001,None,515.3405660599907,None,515.3405660599907,None,515.3405660599907,None,,,,,,,,,,,210,24,Female,2022-05-04_16h54.10.895,Main,2022.1.1,60.01154621684275,
negative,negative,2,j,l,,,,,,,,,10,13,193,9,,,,,,,,,,,,,,,,,,,,,,,,main,2,2,2,negative,negative,j,j,1,0.7957615000050282,515.3619445999939,516.3801673999988,516.3397573999973,None,515.3619445999939,None,515.3619445999939,None,515.3619445999939,None,517.1372051599989,None,517.1372051599989,None,517.1372051599989,None,,,,,,,,,,,210,24,Female,2022-05-04_16h54.10.895,Main,2022.1.1,60.01154621684275,
negative,neutral,2,j,l,,,,,,,,,10,14,194,12,,,,,,,,,,,,,,,,,,,,,,,,main,2,2,2,neutral,negative,j,j,1,0.746260899992194,517.1577254000003,518.165090800001,518.1462673999922,None,517.1577254000003,None,517.1577254000003,None,517.1577254000003,None,518.885703460002,None,518.885703460002,None,518.885703460002,None,,,,,,,,,,,210,24,Female,2022-05-04_16h54.10.895,Main,2022.1.1,60.01154621684275,
neutral,positive,1,k,k,,,,,,,,,10,15,195,4,,,,,,,,,,,,,,,,,,,,,,,,main,1,1,1,positive,neutral,k,k,1,0.8712516000086907,518.9065431999916,519.9264713000011,519.8877218999987,None,518.9065431999916,None,518.9065431999916,None,518.9065431999916,None,520.7620132599928,None,520.7620132599928,None,520.7620132599928,None,,,,,,,,,,,210,24,Female,2022-05-04_16h54.10.895,Main,2022.1.1,60.01154621684275,
negative,positive,1,j,l,,,,,,,,,10,16,196,6,,,,,,,,,,,,,,,,,,,,,,,,main,2,2,1,positive,negative,j,j,1,0.7603275000001304,520.7827864999999,521.8017073999945,521.7627640999999,None,520.7827864999999,None,520.7827864999999,None,520.7827864999999,None,522.5245352599974,None,522.5245352599974,None,522.5245352599974,None,,,,,,,,,,,210,24,Female,2022-05-04_16h54.10.895,Main,2022.1.1,60.01154621684275,
neutral,neutral,1,k,k,,,,,,,,,10,17,197,1,,,,,,,,,,,,,,,,,,,,,,,,main,2,2,1,neutral,neutral,k,k,1,0.8097409999900265,522.5451092000003,523.55413769999,523.533291300002,None,522.5451092000003,None,522.5451092000003,None,522.5451092000003,None,524.3355780599901,None,524.3355780599901,None,524.3355780599901,None,,,,,,,,,,,210,24,Female,2022-05-04_16h54.10.895,Main,2022.1.1,60.01154621684275,
negative,negative,2,j,l,,,,,,,,,11,0,198,9,,,,,,,,,,,,,,,,,,,,,,,,main,2,2,2,negative,negative,j,j,1,0.9827853000024334,524.3558839999896,525.3706778999913,525.3309354999947,None,524.3558839999896,None,524.3558839999896,None,524.3558839999896,None,526.3208496599924,None,526.3208496599924,None,526.3208496599924,None,,,,,,,,,,,210,24,Female,2022-05-04_16h54.10.895,Main,2022.1.1,60.01154621684275,
neutral,positive,1,k,k,,,,,,,,,11,1,199,4,,,,,,,,,,,,,,,,,,,,,,,,main,2,2,1,positive,neutral,k,k,1,0.6910083999973722,526.3418998999987,527.3475094999885,527.3278444000025,None,526.3418998999987,None,526.3418998999987,None,526.3418998999987,None,528.0142243599927,None,528.0142243599927,None,528.0142243599927,None,,,,,,,,,,,210,24,Female,2022-05-04_16h54.10.895,Main,2022.1.1,60.01154621684275,
neutral,neutral,1,k,k,,,,,,,,,11,2,200,1,,,,,,,,,,,,,,,,,,,,,,,,main,1,1,1,neutral,neutral,k,k,1,0.7246664999984205,528.034737199996,529.0434625999915,529.0242320999969,None,528.034737199996,None,528.034737199996,None,528.034737199996,None,529.7432089599985,None,529.7432089599985,None,529.7432089599985,None,,,,,,,,,,,210,24,Female,2022-05-04_16h54.10.895,Main,2022.1.1,60.01154621684275,
negative,positive,1,j,l,,,,,,,,,11,3,201,6,,,,,,,,,,,,,,,,,,,,,,,,main,1,1,1,positive,negative,j,j,1,0.7499754000018584,529.7641542999918,530.7759384999954,530.7378972000006,None,529.7641542999918,None,529.7641542999918,None,529.7641542999918,None,531.4958558599989,None,531.4958558599989,None,531.4958558599989,None,,,,,,,,,,,210,24,Female,2022-05-04_16h54.10.895,Main,2022.1.1,60.01154621684275,
positive,negative,1,l,j,,,,,,,,,11,4,202,5,,,,,,,,,,,,,,,,,,,,,,,,main,2,2,1,negative,positive,l,l,1,0.8858727000042563,531.5183232999989,532.5231231999933,532.5043425999902,None,531.5183232999989,None,531.5183232999989,None,531.5183232999989,None,533.3841465599922,None,533.3841465599922,None,533.3841465599922,None,,,,,,,,,,,210,24,Female,2022-05-04_16h54.10.895,Main,2022.1.1,60.01154621684275,
neutral,neutral,2,k,k,,,,,,,,,11,5,203,10,,,,,,,,,,,,,,,,,,,,,,,,main,1,1,2,neutral,neutral,k,k,1,0.9206146000069566,533.405038500001,534.4116555999935,534.3914912999899,None,533.405038500001,None,533.405038500001,None,533.405038500001,None,535.3087565599941,None,535.3087565599941,None,535.3087565599941,None,,,,,,,,,,,210,24,Female,2022-05-04_16h54.10.895,Main,2022.1.1,60.01154621684275,
positive,negative,2,l,j,,,,,,,,,11,6,204,14,,,,,,,,,,,,,,,,,,,,,,,,main,2,2,2,negative,positive,l,l,1,0.8494274000113364,535.3299719999923,536.339584100002,536.3201541000017,None,535.3299719999923,None,535.3299719999923,None,535.3299719999923,None,537.1611321600009,None,537.1611321600009,None,537.1611321600009,None,,,,,,,,,,,210,24,Female,2022-05-04_16h54.10.895,Main,2022.1.1,60.01154621684275,
positive,positive,1,l,j,,,,,,,,,11,7,205,2,,,,,,,,,,,,,,,,,,,,,,,,main,2,2,1,positive,positive,l,l,1,1.200948600002448,537.182853499995,538.1869568999973,538.1682406999898,None,537.182853499995,None,537.182853499995,None,537.182853499995,None,539.36493166,None,539.36493166,None,539.36493166,None,,,,,,,,,,,210,24,Female,2022-05-04_16h54.10.895,Main,2022.1.1,60.01154621684275,
neutral,positive,2,k,k,,,,,,,,,11,8,206,13,,,,,,,,,,,,,,,,,,,,,,,,main,1,1,2,positive,neutral,k,k,1,1.068751600003452,539.3858707999898,540.4046257000009,540.3723463999922,None,539.3858707999898,None,539.3858707999898,None,539.3858707999898,None,541.4377615599893,None,541.4377615599893,None,541.4377615599893,None,,,,,,,,,,,210,24,Female,2022-05-04_16h54.10.895,Main,2022.1.1,60.01154621684275,
negative,neutral,2,j,l,,,,,,,,,11,9,207,12,,,,,,,,,,,,,,,,,,,,,,,,main,1,1,2,neutral,negative,j,j,1,1.1436570000078063,541.4585311999981,542.4623672000016,542.4428226000018,None,541.4585311999981,None,541.4585311999981,None,541.4585311999981,None,543.5831347599975,None,543.5831347599975,None,543.5831347599975,None,,,,,,,,,,,210,24,Female,2022-05-04_16h54.10.895,Main,2022.1.1,60.01154621684275,
neutral,negative,1,k,k,,,,,,,,,11,10,208,7,,,,,,,,,,,,,,,,,,,,,,,,main,1,1,1,negative,neutral,k,k,1,0.9494436999957543,543.6039699999965,544.6116418999882,544.5918307999964,None,543.6039699999965,None,543.6039699999965,None,543.6039699999965,None,545.5378496599966,None,545.5378496599966,None,545.5378496599966,None,,,,,,,,,,,210,24,Female,2022-05-04_16h54.10.895,Main,2022.1.1,60.01154621684275,
