target,distractor,set,ans1,ans2,rep_loop2.thisRepN,rep_loop2.thisTrialN,rep_loop2.thisN,rep_loop2.thisIndex,flanker_prac_loop.thisRepN,flanker_prac_loop.thisTrialN,flanker_prac_loop.thisN,flanker_prac_loop.thisIndex,flanker_main_loop.thisRepN,flanker_main_loop.thisTrialN,flanker_main_loop.thisN,flanker_main_loop.thisIndex,fl_inst_resp.keys,mouse.x,mouse.y,mouse.leftButton,mouse.midButton,mouse.rightButton,mouse.started,mouse.stopped,sound_1.started,sound_1.stopped,no_text.started,no_text.stopped,yes_text.started,yes_text.stopped,mouse_2.x,mouse_2.y,mouse_2.leftButton,mouse_2.midButton,mouse_2.rightButton,mouse_2.started,mouse_2.stopped,back_2.started,back_2.stopped,main_prac,fl_cold,fl_colt,fl_set,fl_dcond,fl_tcond,fl_ans,fl_res,fl_corr,fl_rt,fix_fl.started,fix_fl.stopped,targ.started,targ.stopped,j_button.started,j_button.stopped,k_button.started,k_button.stopped,l_button.started,l_button.stopped,j_button2.started,j_button2.stopped,k_button2.started,k_button2.stopped,l_button2.started,l_button2.stopped,mainback.started,mainback.stopped,key_resp.keys,mouse_6.x,mouse_6.y,mouse_6.leftButton,mouse_6.midButton,mouse_6.rightButton,mouse_6.started,mouse_6.stopped,id*,age*,gender*,date,expName,psychopyVersion,frameRate,
,,,,,0,0,0,0,,,,,,,,,None,0.018518519,-0.25462964,0,0,0,1.0094986199728737,None,27.79182413000053,None,76.13822980000077,None,76.13822980000077,None,-0.08796296,-0.087037034,0,0,0,0.012587629998961347,None,,,,,,,,,,,,,,,,,,,,,,,,,,,,,,,,,,,,,,,211,19,Male,2022-05-06_14h22.23.897,Main,2022.1.1,60.00805308026232,
negative,negative,2,j,l,,,,,0,0,0,9,,,,,,,,,,,,,,,,,,,,,,,,,,79.4351499000004,None,prac,2,2,2,negative,negative,l,l,1,1.8612749000003532,81.48828469999899,82.49239300000045,82.4543536000001,None,81.48828469999899,None,81.48828469999899,None,81.48828469999899,None,84.34067270000014,None,84.34067270000014,None,84.34067270000014,None,,,,,,,,,,,211,19,Male,2022-05-06_14h22.23.897,Main,2022.1.1,60.00805308026232,
neutral,neutral,2,k,k,,,,,0,1,1,10,,,,,,,,,,,,,,,,,,,,,,,,,,,,prac,1,1,2,neutral,neutral,k,k,1,1.1763830999989295,85.38104009999915,86.38831449999998,86.36772869999913,None,85.38104009999915,None,85.38104009999915,None,85.38104009999915,None,87.52110343000022,None,87.52110343000022,None,87.52110343000022,None,,,,,,,,,,,211,19,Male,2022-05-06_14h22.23.897,Main,2022.1.1,60.00805308026232,
negative,negative,1,j,l,,,,,0,2,2,0,,,,,,,,,,,,,,,,,,,,,,,,,,,,prac,1,1,1,negative,negative,l,l,1,0.9120708999998897,87.55891039999915,88.57052499999918,88.53133170000001,None,87.55891039999915,None,87.55891039999915,None,87.55891039999915,None,89.43782383000071,None,89.43782383000071,None,89.43782383000071,None,,,,,,,,,,,211,19,Male,2022-05-06_14h22.23.897,Main,2022.1.1,60.00805308026232,
neutral,positive,2,k,k,,,,,0,3,3,13,,,,,,,,,,,,,,,,,,,,,,,,,,,,prac,2,2,2,positive,neutral,k,k,1,0.9039042000003974,89.47484070000064,90.48164650000035,90.46287780000057,None,89.47484070000064,None,89.47484070000064,None,89.47484070000064,None,91.34440893000028,None,91.34440893000028,None,91.34440893000028,None,,,,,,,,,,,211,19,Male,2022-05-06_14h22.23.897,Main,2022.1.1,60.00805308026232,
positive,negative,1,l,j,,,,,0,4,4,5,,,,,,,,,,,,,,,,,,,,,,,,,,,,prac,1,1,1,negative,positive,j,j,1,0.7665950000009616,91.37620529999913,92.38399930000014,92.36493130000053,None,91.37620529999913,None,91.37620529999913,None,91.37620529999913,None,93.11543803000059,None,93.11543803000059,None,93.11543803000059,None,,,,,,,,,,,211,19,Male,2022-05-06_14h22.23.897,Main,2022.1.1,60.00805308026232,
neutral,neutral,1,k,k,,,,,0,5,5,1,,,,,,,,,,,,,,,,,,,,,,,,,,,,prac,2,2,1,neutral,neutral,k,k,1,0.6936234000004333,93.15017350000016,94.16116390000025,94.12373130000014,None,93.15017350000016,None,93.15017350000016,None,93.15017350000016,None,94.80930962999919,None,94.80930962999919,None,94.80930962999919,None,,,,,,,,,,,211,19,Male,2022-05-06_14h22.23.897,Main,2022.1.1,60.00805308026232,
neutral,positive,1,k,k,,,,,0,6,6,4,,,,,,,,,,,,,,,,,,,,,,,,,,,,prac,2,2,1,positive,neutral,k,k,1,0.7240060999993148,94.84968379999918,95.8587750000006,95.84040699999969,None,94.84968379999918,None,94.84968379999918,None,94.84968379999918,None,96.53710083000006,None,96.53710083000006,None,96.53710083000006,None,,,,,,,,,,,211,19,Male,2022-05-06_14h22.23.897,Main,2022.1.1,60.00805308026232,
negative,positive,2,j,l,,,,,0,7,7,15,,,,,,,,,,,,,,,,,,,,,,,,,,,,prac,2,2,2,positive,negative,l,l,1,0.7498489999998128,96.55907990000014,97.57917400000042,97.54140220000045,None,96.55907990000014,None,96.55907990000014,None,96.55907990000014,None,98.29017053000025,None,98.29017053000025,None,98.29017053000025,None,,,,,,,,,,,211,19,Male,2022-05-06_14h22.23.897,Main,2022.1.1,60.00805308026232,
neutral,negative,2,k,k,,,,,0,8,8,16,,,,,,,,,,,,,,,,,,,,,,,,,,,,prac,2,2,2,negative,neutral,k,k,1,0.6858274999995047,98.31156960000044,99.3280610999991,99.29049809999924,None,98.31156960000044,None,98.31156960000044,None,98.31156960000044,None,99.9803820299996,None,99.9803820299996,None,99.9803820299996,None,,,,,,,,,,,211,19,Male,2022-05-06_14h22.23.897,Main,2022.1.1,60.00805308026232,
negative,neutral,2,j,l,,,,,0,9,9,12,,,,,,,,,,,,,,,,,,,,,,,,,,,,prac,1,1,2,neutral,negative,l,l,1,0.8096220000006724,100.01140040000064,101.02369080000062,101.00330340000073,None,100.01140040000064,None,100.01140040000064,None,100.01140040000064,None,101.79014242999911,None,101.79014242999911,None,101.79014242999911,None,,,,,,,,,,,211,19,Male,2022-05-06_14h22.23.897,Main,2022.1.1,60.00805308026232,
negative,neutral,1,j,l,,,,,0,10,10,3,,,,,,,,,,,,,,,,,,,,,,,,,,,,prac,2,2,1,neutral,negative,l,l,1,0.6680882000000565,101.82335459999922,102.82956109999941,102.81047190000027,None,101.82335459999922,None,101.82335459999922,None,101.82335459999922,None,103.46232193000033,None,103.46232193000033,None,103.46232193000033,None,,,,,,,,,,,211,19,Male,2022-05-06_14h22.23.897,Main,2022.1.1,60.00805308026232,
neutral,negative,1,k,k,,,,,0,11,11,7,,,,,,,,,,,,,,,,,,,,,,,,,,,,prac,1,1,1,negative,neutral,k,k,1,0.681533800001489,103.49321140000029,104.50897620000069,104.48884949999956,None,103.49321140000029,None,103.49321140000029,None,103.49321140000029,None,105.14350562999898,None,105.14350562999898,None,105.14350562999898,None,,,,,,,,,,,211,19,Male,2022-05-06_14h22.23.897,Main,2022.1.1,60.00805308026232,
positive,negative,2,l,j,,,,,0,12,12,14,,,,,,,,,,,,,,,,,,,,,,,,,,,,prac,1,1,2,negative,positive,j,j,1,0.7469352000007348,105.18086629999925,106.1843327000006,106.16470610000033,None,105.18086629999925,None,105.18086629999925,None,105.18086629999925,None,106.8951587299991,None,106.8951587299991,None,106.8951587299991,None,,,,,,,,,,,211,19,Male,2022-05-06_14h22.23.897,Main,2022.1.1,60.00805308026232,
positive,positive,1,l,j,,,,,0,13,13,2,,,,,,,,,,,,,,,,,,,,,,,,,,,,prac,2,2,1,positive,positive,j,j,1,0.7473402000014175,106.91632030000073,107.9349115999994,107.89630190000025,None,106.91632030000073,None,106.91632030000073,None,106.91632030000073,None,108.64141372999912,None,108.64141372999912,None,108.64141372999912,None,,,,,,,,,,,211,19,Male,2022-05-06_14h22.23.897,Main,2022.1.1,60.00805308026232,
positive,neutral,2,l,j,,,,,0,14,14,17,,,,,,,,,,,,,,,,,,,,,,,,,,,,prac,1,1,2,neutral,positive,j,j,1,0.5690608999993856,108.66303850000077,109.6762574000004,109.63812270000017,None,108.66303850000077,None,108.66303850000077,None,108.66303850000077,None,110.21582493000024,None,110.21582493000024,None,110.21582493000024,None,,,,,,,,,,,211,19,Male,2022-05-06_14h22.23.897,Main,2022.1.1,60.00805308026232,
positive,neutral,1,l,j,,,,,0,15,15,8,,,,,,,,,,,,,,,,,,,,,,,,,,,,prac,2,2,1,neutral,positive,j,j,1,0.777715199999875,110.23549160000039,111.24732849999964,111.21033800000077,None,110.23549160000039,None,110.23549160000039,None,110.23549160000039,None,111.99456593000032,None,111.99456593000032,None,111.99456593000032,None,,,,,,,,,,,211,19,Male,2022-05-06_14h22.23.897,Main,2022.1.1,60.00805308026232,
positive,positive,2,l,j,,,,,0,16,16,11,,,,,,,,,,,,,,,,,,,,,,,,,,,,prac,2,2,2,positive,positive,j,j,1,0.5755183000001125,112.01531889999933,113.02845969999908,112.99054509999951,None,112.01531889999933,None,112.01531889999933,None,112.01531889999933,None,113.57136723000004,None,113.57136723000004,None,113.57136723000004,None,,,,,,,,,,,211,19,Male,2022-05-06_14h22.23.897,Main,2022.1.1,60.00805308026232,
negative,positive,1,j,l,,,,,0,17,17,6,,,,,,,,,,,,,,,,,,,,,,,,,,,,prac,2,2,1,positive,negative,l,l,1,0.7859759000002668,113.59171459999925,114.60839149999993,114.5706166,None,113.59171459999925,None,113.59171459999925,None,113.59171459999925,None,115.3581304299998,None,115.3581304299998,None,115.3581304299998,None,,,,,,,,,,,211,19,Male,2022-05-06_14h22.23.897,Main,2022.1.1,60.00805308026232,
negative,positive,2,j,l,,,,,1,0,18,15,,,,,,,,,,,,,,,,,,,,,,,,,,,,prac,1,1,2,positive,negative,l,l,1,0.6971976000004361,115.39171279999937,116.40253789999952,116.38322650000009,None,115.39171279999937,None,115.39171279999937,None,115.39171279999937,None,117.05709343000053,None,117.05709343000053,None,117.05709343000053,None,,,,,,,,,,,211,19,Male,2022-05-06_14h22.23.897,Main,2022.1.1,60.00805308026232,
positive,positive,1,l,j,,,,,1,1,19,2,,,,,,,,,,,,,,,,,,,,,,,,,,,,prac,1,1,1,positive,positive,j,j,1,0.8859498000001622,117.09025449999899,118.10754719999932,118.07131440000012,None,117.09025449999899,None,117.09025449999899,None,117.09025449999899,None,118.94928542999988,None,118.94928542999988,None,118.94928542999988,None,,,,,,,,,,,211,19,Male,2022-05-06_14h22.23.897,Main,2022.1.1,60.00805308026232,
positive,negative,2,l,j,,,,,1,2,20,14,,,,,,,,,,,,,,,,,,,,,,,,,,,,prac,2,2,2,negative,positive,j,j,1,0.7111328999999387,118.9691139000006,119.97625949999929,119.95796519999931,None,118.9691139000006,None,118.9691139000006,None,118.9691139000006,None,120.66352332999959,None,120.66352332999959,None,120.66352332999959,None,,,,,,,,,,,211,19,Male,2022-05-06_14h22.23.897,Main,2022.1.1,60.00805308026232,
positive,negative,1,l,j,,,,,1,3,21,5,,,,,,,,,,,,,,,,,,,,,,,,,,,,prac,1,1,1,negative,positive,j,j,1,0.6043375999997807,120.68455999999969,121.69316359999902,121.65576429999965,None,120.68455999999969,None,120.68455999999969,None,120.68455999999969,None,122.2682258300003,None,122.2682258300003,None,122.2682258300003,None,,,,,,,,,,,211,19,Male,2022-05-06_14h22.23.897,Main,2022.1.1,60.00805308026232,
neutral,neutral,1,k,k,,,,,1,4,22,1,,,,,,,,,,,,,,,,,,,,,,,,,,,,prac,2,2,1,neutral,neutral,k,k,1,0.7612382000006619,122.28888949999964,123.30643409999902,123.26837109999906,None,122.28888949999964,None,122.28888949999964,None,122.28888949999964,None,124.033526729999,None,124.033526729999,None,124.033526729999,None,,,,,,,,,,,211,19,Male,2022-05-06_14h22.23.897,Main,2022.1.1,60.00805308026232,
neutral,positive,1,k,k,,,,,1,5,23,4,,,,,,,,,,,,,,,,,,,,,,,,,,,,prac,2,2,1,positive,neutral,k,k,1,0.5719706999989285,124.05656119999912,125.07099589999962,125.03344839999954,None,124.05656119999912,None,124.05656119999912,None,124.05656119999912,None,125.61001773000062,None,125.61001773000062,None,125.61001773000062,None,,,,,,,,,,,211,19,Male,2022-05-06_14h22.23.897,Main,2022.1.1,60.00805308026232,
negative,negative,1,j,l,,,,,1,6,24,0,,,,,,,,,,,,,,,,,,,,,,,,,,,,prac,1,1,1,negative,negative,l,l,1,0.8006069000002753,125.62967079999908,126.64771999999903,126.6091235999993,None,125.62967079999908,None,125.62967079999908,None,125.62967079999908,None,127.41277292999912,None,127.41277292999912,None,127.41277292999912,None,,,,,,,,,,,211,19,Male,2022-05-06_14h22.23.897,Main,2022.1.1,60.00805308026232,
negative,positive,1,j,l,,,,,1,7,25,6,,,,,,,,,,,,,,,,,,,,,,,,,,,,prac,1,1,1,positive,negative,l,l,1,0.5281599999998434,127.43469469999945,128.44297430000006,128.42427080000016,None,127.43469469999945,None,127.43469469999945,None,127.43469469999945,None,128.94385982999955,None,128.94385982999955,None,128.94385982999955,None,,,,,,,,,,,211,19,Male,2022-05-06_14h22.23.897,Main,2022.1.1,60.00805308026232,
neutral,negative,2,k,k,,,,,1,8,26,16,,,,,,,,,,,,,,,,,,,,,,,,,,,,prac,1,1,2,negative,neutral,k,k,1,0.6514009000002261,128.9632378999995,129.97903179999958,129.94152500000018,None,128.9632378999995,None,128.9632378999995,None,128.9632378999995,None,130.59750703000026,None,130.59750703000026,None,130.59750703000026,None,,,,,,,,,,,211,19,Male,2022-05-06_14h22.23.897,Main,2022.1.1,60.00805308026232,
negative,neutral,1,j,l,,,,,1,9,27,3,,,,,,,,,,,,,,,,,,,,,,,,,,,,prac,1,1,1,neutral,negative,l,l,1,0.7485877999988588,130.6321805000007,131.63980190000075,131.62086239999917,None,130.6321805000007,None,130.6321805000007,None,130.6321805000007,None,132.34862462999916,None,132.34862462999916,None,132.34862462999916,None,,,,,,,,,,,211,19,Male,2022-05-06_14h22.23.897,Main,2022.1.1,60.00805308026232,
positive,positive,2,l,j,,,,,1,10,28,11,,,,,,,,,,,,,,,,,,,,,,,,,,,,prac,2,2,2,positive,positive,j,l,0,1.1072340999999142,132.3686902999998,133.37131260000024,133.35223159999987,None,132.3686902999998,None,132.3686902999998,None,132.3686902999998,None,134.47149100000024,None,134.47149100000024,None,134.47149100000024,None,,,,,,,,,,,211,19,Male,2022-05-06_14h22.23.897,Main,2022.1.1,60.00805308026232,
neutral,neutral,2,k,k,,,,,1,11,29,10,,,,,,,,,,,,,,,,,,,,,,,,,,,,prac,1,1,2,neutral,neutral,k,k,1,0.8830504000015935,135.48878719999993,136.49145159999898,136.47261769999932,None,135.48878719999993,None,135.48878719999993,None,135.48878719999993,None,137.3517172299991,None,137.3517172299991,None,137.3517172299991,None,,,,,,,,,,,211,19,Male,2022-05-06_14h22.23.897,Main,2022.1.1,60.00805308026232,
negative,neutral,2,j,l,,,,,1,12,30,12,,,,,,,,,,,,,,,,,,,,,,,,,,,,prac,1,1,2,neutral,negative,l,k,0,0.9716688999997132,137.3746957000003,138.39447929999915,138.3566054999992,None,137.3746957000003,None,137.3746957000003,None,137.3746957000003,None,139.33507009999994,None,139.33507009999994,None,139.33507009999994,None,,,,,,,,,,,211,19,Male,2022-05-06_14h22.23.897,Main,2022.1.1,60.00805308026232,
neutral,positive,2,k,k,,,,,1,13,31,13,,,,,,,,,,,,,,,,,,,,,,,,,,,,prac,2,2,2,positive,neutral,k,k,1,0.8187985999993543,140.35548179999932,141.3698884000005,141.3507384000004,None,140.35548179999932,None,140.35548179999932,None,140.35548179999932,None,142.1535931299997,None,142.1535931299997,None,142.1535931299997,None,,,,,,,,,,,211,19,Male,2022-05-06_14h22.23.897,Main,2022.1.1,60.00805308026232,
negative,negative,2,j,l,,,,,1,14,32,9,,,,,,,,,,,,,,,,,,,,,,,,,,,,prac,2,2,2,negative,negative,l,l,1,0.8660732999996981,142.17426250000062,143.18806740000036,143.1503947000001,None,142.17426250000062,None,142.17426250000062,None,142.17426250000062,None,144.02378183000036,None,144.02378183000036,None,144.02378183000036,None,,,,,,,,,,,211,19,Male,2022-05-06_14h22.23.897,Main,2022.1.1,60.00805308026232,
positive,neutral,1,l,j,,,,,1,15,33,8,,,,,,,,,,,,,,,,,,,,,,,,,,,,prac,2,2,1,neutral,positive,j,j,1,0.8336256999991747,144.0468810000002,145.05163899999934,145.0334426999998,None,144.0468810000002,None,144.0468810000002,None,144.0468810000002,None,145.86031542999916,None,145.86031542999916,None,145.86031542999916,None,,,,,,,,,,,211,19,Male,2022-05-06_14h22.23.897,Main,2022.1.1,60.00805308026232,
neutral,negative,1,k,k,,,,,1,16,34,7,,,,,,,,,,,,,,,,,,,,,,,,,,,,prac,1,1,1,negative,neutral,k,k,1,0.6166953000010835,145.87962420000076,146.8829081999993,146.86423699999978,None,145.87962420000076,None,145.87962420000076,None,145.87962420000076,None,147.47926873000068,None,147.47926873000068,None,147.47926873000068,None,,,,,,,,,,,211,19,Male,2022-05-06_14h22.23.897,Main,2022.1.1,60.00805308026232,
positive,neutral,2,l,j,,,,,1,17,35,17,,,,,,,,,,,,,,,,,,,,,,,,,,,,prac,1,1,2,neutral,positive,j,j,1,1.0112116999989667,147.49916200000007,148.50337670000044,148.48426300000028,None,147.49916200000007,None,147.49916200000007,None,147.49916200000007,None,149.49483663000063,None,149.49483663000063,None,149.49483663000063,None,,,,,,,,,,,211,19,Male,2022-05-06_14h22.23.897,Main,2022.1.1,60.00805308026232,
,,,,,,,,,,,,,,,,,,,,,,,,,,,,,,,,,,,,,,,,,,,,,,,,,,,,,,,,,,,,,,,,,,149.50011880000056,None,None,,,,,,,,211,19,Male,2022-05-06_14h22.23.897,Main,2022.1.1,60.00805308026232,
,,,,,,,,,,,,,,,,,,,,,,,,,,,,,,,,,,,,,,,,,,,,,,,,,,,,,,,,,,,,,,,,,,,,,-0.1,-0.07962963,1,0,0,0.006793530001232284,None,211,19,Male,2022-05-06_14h22.23.897,Main,2022.1.1,60.00805308026232,
positive,positive,2,l,j,,,,,,,,,0,0,0,11,,,,,,,,,,,,,,,,,,,,,,154.44196249999914,None,main,1,1,2,positive,positive,j,j,1,0.8167592999998305,156.46312319999925,157.47599760000048,157.43816109999898,None,156.46312319999925,None,156.46312319999925,None,156.46312319999925,None,158.26045622999953,None,158.26045622999953,None,158.26045622999953,None,,,,,,,,,,,211,19,Male,2022-05-06_14h22.23.897,Main,2022.1.1,60.00805308026232,
negative,negative,1,j,l,,,,,,,,,0,1,1,0,,,,,,,,,,,,,,,,,,,,,,,,main,1,1,1,negative,negative,l,l,1,0.7468530000005558,158.2831129999995,159.29912440000044,159.2618194000006,None,158.2831129999995,None,158.2831129999995,None,158.2831129999995,None,160.01266073000005,None,160.01266073000005,None,160.01266073000005,None,,,,,,,,,,,211,19,Male,2022-05-06_14h22.23.897,Main,2022.1.1,60.00805308026232,
neutral,neutral,1,k,k,,,,,,,,,0,2,2,1,,,,,,,,,,,,,,,,,,,,,,,,main,1,1,1,neutral,neutral,k,k,1,0.7373389000003954,160.03285250000044,161.04996629999914,161.01267840000037,None,160.03285250000044,None,160.03285250000044,None,160.03285250000044,None,161.75198883000047,None,161.75198883000047,None,161.75198883000047,None,,,,,,,,,,,211,19,Male,2022-05-06_14h22.23.897,Main,2022.1.1,60.00805308026232,
neutral,negative,2,k,k,,,,,,,,,0,3,3,16,,,,,,,,,,,,,,,,,,,,,,,,main,1,1,2,negative,neutral,k,k,1,0.5994448999990709,161.7767469999999,162.78260559999944,162.76438579999922,None,161.7767469999999,None,161.7767469999999,None,161.7767469999999,None,163.35651602999968,None,163.35651602999968,None,163.35651602999968,None,,,,,,,,,,,211,19,Male,2022-05-06_14h22.23.897,Main,2022.1.1,60.00805308026232,
neutral,positive,1,k,k,,,,,,,,,0,4,4,4,,,,,,,,,,,,,,,,,,,,,,,,main,1,1,1,positive,neutral,k,k,1,0.5569949999990058,163.3789240999995,164.3967345000001,164.35792020000008,None,163.3789240999995,None,163.3789240999995,None,163.3789240999995,None,164.9130564300005,None,164.9130564300005,None,164.9130564300005,None,,,,,,,,,,,211,19,Male,2022-05-06_14h22.23.897,Main,2022.1.1,60.00805308026232,
positive,negative,1,l,j,,,,,,,,,0,5,5,5,,,,,,,,,,,,,,,,,,,,,,,,main,2,2,1,negative,positive,j,j,1,0.6879628999995475,164.94777590000012,165.95050129999981,165.93166229999952,None,164.94777590000012,None,164.94777590000012,None,164.94777590000012,None,166.60454022999983,None,166.60454022999983,None,166.60454022999983,None,,,,,,,,,,,211,19,Male,2022-05-06_14h22.23.897,Main,2022.1.1,60.00805308026232,
positive,positive,1,l,j,,,,,,,,,0,6,6,2,,,,,,,,,,,,,,,,,,,,,,,,main,1,1,1,positive,positive,j,j,1,0.5817485999996279,166.6279682000004,167.63480920000075,167.61600410000028,None,166.6279682000004,None,166.6279682000004,None,166.6279682000004,None,168.191731529999,None,168.191731529999,None,168.191731529999,None,,,,,,,,,,,211,19,Male,2022-05-06_14h22.23.897,Main,2022.1.1,60.00805308026232,
negative,neutral,2,j,l,,,,,,,,,0,7,7,12,,,,,,,,,,,,,,,,,,,,,,,,main,1,1,2,neutral,negative,l,l,1,0.7822998000010557,168.21277009999903,169.23134500000015,169.19309599999906,None,168.21277009999903,None,168.21277009999903,None,168.21277009999903,None,169.97709472999958,None,169.97709472999958,None,169.97709472999958,None,,,,,,,,,,,211,19,Male,2022-05-06_14h22.23.897,Main,2022.1.1,60.00805308026232,
neutral,neutral,2,k,k,,,,,,,,,0,8,8,10,,,,,,,,,,,,,,,,,,,,,,,,main,2,2,2,neutral,neutral,k,k,1,0.6862555000006978,170.01250029999937,171.03282209999998,170.99472520000018,None,170.01250029999937,None,170.01250029999937,None,170.01250029999937,None,171.6666263300005,None,171.6666263300005,None,171.6666263300005,None,,,,,,,,,,,211,19,Male,2022-05-06_14h22.23.897,Main,2022.1.1,60.00805308026232,
negative,neutral,1,j,l,,,,,,,,,0,9,9,3,,,,,,,,,,,,,,,,,,,,,,,,main,2,2,1,neutral,negative,l,l,1,0.9423612000009598,171.6929641000006,172.69455079999898,172.67546559999937,None,171.6929641000006,None,171.6929641000006,None,171.6929641000006,None,173.61210812999997,None,173.61210812999997,None,173.61210812999997,None,,,,,,,,,,,211,19,Male,2022-05-06_14h22.23.897,Main,2022.1.1,60.00805308026232,
positive,neutral,2,l,j,,,,,,,,,0,10,10,17,,,,,,,,,,,,,,,,,,,,,,,,main,2,2,2,neutral,positive,j,j,1,0.6078842000006262,173.63481739999952,174.64952129999983,174.6102350000001,None,173.63481739999952,None,173.63481739999952,None,173.63481739999952,None,175.22414503,None,175.22414503,None,175.22414503,None,,,,,,,,,,,211,19,Male,2022-05-06_14h22.23.897,Main,2022.1.1,60.00805308026232,
negative,positive,2,j,l,,,,,,,,,0,11,11,15,,,,,,,,,,,,,,,,,,,,,,,,main,2,2,2,positive,negative,l,,0,0.9244660000003933,175.24410370000078,176.25944680000066,176.2206098000006,None,175.24410370000078,None,175.24410370000078,None,175.24410370000078,None,177.15496189999976,None,177.15496189999976,None,177.15496189999976,None,,,,,,,,,,,211,19,Male,2022-05-06_14h22.23.897,Main,2022.1.1,60.00805308026232,
positive,neutral,1,l,j,,,,,,,,,0,12,12,8,,,,,,,,,,,,,,,,,,,,,,,,main,1,1,1,neutral,positive,j,j,1,0.8719990000008693,178.16675199999918,179.18657929999972,179.14833539999927,None,178.16675199999918,None,178.16675199999918,None,178.16675199999918,None,180.02125842999993,None,180.02125842999993,None,180.02125842999993,None,,,,,,,,,,,211,19,Male,2022-05-06_14h22.23.897,Main,2022.1.1,60.00805308026232,
positive,negative,2,l,j,,,,,,,,,0,13,13,14,,,,,,,,,,,,,,,,,,,,,,,,main,1,1,2,negative,positive,j,j,1,0.6503524999989168,180.04474209999898,181.06042969999908,181.0222446000007,None,180.04474209999898,None,180.04474209999898,None,180.04474209999898,None,181.67307482999894,None,181.67307482999894,None,181.67307482999894,None,,,,,,,,,,,211,19,Male,2022-05-06_14h22.23.897,Main,2022.1.1,60.00805308026232,
neutral,negative,1,k,k,,,,,,,,,0,14,14,7,,,,,,,,,,,,,,,,,,,,,,,,main,1,1,1,negative,neutral,k,k,1,0.725840099999914,181.69448910000028,182.7008810999996,182.6825484000001,None,181.69448910000028,None,181.69448910000028,None,181.69448910000028,None,183.40462722999945,None,183.40462722999945,None,183.40462722999945,None,,,,,,,,,,,211,19,Male,2022-05-06_14h22.23.897,Main,2022.1.1,60.00805308026232,
negative,negative,2,j,l,,,,,,,,,0,15,15,9,,,,,,,,,,,,,,,,,,,,,,,,main,2,2,2,negative,negative,l,l,1,0.7424743999999919,183.42450929999904,184.44219320000047,184.4025548999998,None,183.42450929999904,None,183.42450929999904,None,183.42450929999904,None,185.1474903299997,None,185.1474903299997,None,185.1474903299997,None,,,,,,,,,,,211,19,Male,2022-05-06_14h22.23.897,Main,2022.1.1,60.00805308026232,
negative,positive,1,j,l,,,,,,,,,0,16,16,6,,,,,,,,,,,,,,,,,,,,,,,,main,1,1,1,positive,negative,l,l,1,0.7693823000008706,185.1684368999995,186.1770935000004,186.15766260000055,None,185.1684368999995,None,185.1684368999995,None,185.1684368999995,None,186.92102382999946,None,186.92102382999946,None,186.92102382999946,None,,,,,,,,,,,211,19,Male,2022-05-06_14h22.23.897,Main,2022.1.1,60.00805308026232,
neutral,positive,2,k,k,,,,,,,,,0,17,17,13,,,,,,,,,,,,,,,,,,,,,,,,main,2,2,2,positive,neutral,k,k,1,0.7228768000004493,186.9424194000003,187.9537877999992,187.91567399999985,None,186.9424194000003,None,186.9424194000003,None,186.9424194000003,None,188.64312073000036,None,188.64312073000036,None,188.64312073000036,None,,,,,,,,,,,211,19,Male,2022-05-06_14h22.23.897,Main,2022.1.1,60.00805308026232,
negative,positive,2,j,l,,,,,,,,,1,0,18,15,,,,,,,,,,,,,,,,,,,,,,,,main,2,2,2,positive,negative,l,l,1,0.7559755999991467,188.66567629999918,189.6759947999999,189.6564784000002,None,188.66567629999918,None,188.66567629999918,None,188.66567629999918,None,190.40528233000003,None,190.40528233000003,None,190.40528233000003,None,,,,,,,,,,,211,19,Male,2022-05-06_14h22.23.897,Main,2022.1.1,60.00805308026232,
positive,neutral,2,l,j,,,,,,,,,1,1,19,17,,,,,,,,,,,,,,,,,,,,,,,,main,2,2,2,neutral,positive,j,j,1,0.7256503000007797,190.42557189999934,191.4407338000001,191.40146640000057,None,190.42557189999934,None,190.42557189999934,None,190.42557189999934,None,192.1335436300007,None,192.1335436300007,None,192.1335436300007,None,,,,,,,,,,,211,19,Male,2022-05-06_14h22.23.897,Main,2022.1.1,60.00805308026232,
positive,neutral,1,l,j,,,,,,,,,1,2,20,8,,,,,,,,,,,,,,,,,,,,,,,,main,2,2,1,neutral,positive,j,j,1,1.5588659000004554,192.15666989999954,193.16697299999942,193.12905390000014,None,192.15666989999954,None,192.15666989999954,None,192.15666989999954,None,194.69898079999984,None,194.69898079999984,None,194.69898079999984,None,,,,,,,,,,,211,19,Male,2022-05-06_14h22.23.897,Main,2022.1.1,60.00805308026232,
negative,negative,2,j,l,,,,,,,,,1,3,21,9,,,,,,,,,,,,,,,,,,,,,,,,main,2,2,2,negative,negative,l,l,1,0.7366110999992088,195.71454079999967,196.7295052999998,196.69223740000052,None,195.71454079999967,None,195.71454079999967,None,195.71454079999967,None,197.43340373000063,None,197.43340373000063,None,197.43340373000063,None,,,,,,,,,,,211,19,Male,2022-05-06_14h22.23.897,Main,2022.1.1,60.00805308026232,
neutral,neutral,2,k,k,,,,,,,,,1,4,22,10,,,,,,,,,,,,,,,,,,,,,,,,main,2,2,2,neutral,neutral,k,k,1,0.6476248999988456,197.4545694999997,198.46936450000067,198.43072199999915,None,197.4545694999997,None,197.4545694999997,None,197.4545694999997,None,199.084216729999,None,199.084216729999,None,199.084216729999,None,,,,,,,,,,,211,19,Male,2022-05-06_14h22.23.897,Main,2022.1.1,60.00805308026232,
positive,positive,2,l,j,,,,,,,,,1,5,23,11,,,,,,,,,,,,,,,,,,,,,,,,main,2,2,2,positive,positive,j,j,1,0.5691917000003741,199.1029634000006,200.1230744000004,200.0839773000007,None,199.1029634000006,None,199.1029634000006,None,199.1029634000006,None,200.65559282999965,None,200.65559282999965,None,200.65559282999965,None,,,,,,,,,,,211,19,Male,2022-05-06_14h22.23.897,Main,2022.1.1,60.00805308026232,
neutral,neutral,1,k,k,,,,,,,,,1,6,24,1,,,,,,,,,,,,,,,,,,,,,,,,main,2,2,1,neutral,neutral,k,k,1,0.7231145000005199,200.67578850000064,201.68067449999944,201.66206729999976,None,200.67578850000064,None,200.67578850000064,None,200.67578850000064,None,202.38281713000032,None,202.38281713000032,None,202.38281713000032,None,,,,,,,,,,,211,19,Male,2022-05-06_14h22.23.897,Main,2022.1.1,60.00805308026232,
positive,negative,2,l,j,,,,,,,,,1,7,25,14,,,,,,,,,,,,,,,,,,,,,,,,main,1,1,2,negative,positive,j,j,1,0.746174300000348,202.40221360000032,203.40497200000027,203.3861498999995,None,202.40221360000032,None,202.40221360000032,None,202.40221360000032,None,204.12975963000025,None,204.12975963000025,None,204.12975963000025,None,,,,,,,,,,,211,19,Male,2022-05-06_14h22.23.897,Main,2022.1.1,60.00805308026232,
neutral,negative,2,k,k,,,,,,,,,1,8,26,16,,,,,,,,,,,,,,,,,,,,,,,,main,1,1,2,negative,neutral,k,k,1,0.7670273000003363,204.15090369999962,205.16888520000066,205.13059989999965,None,204.15090369999962,None,204.15090369999962,None,204.15090369999962,None,205.90197992999964,None,205.90197992999964,None,205.90197992999964,None,,,,,,,,,,,211,19,Male,2022-05-06_14h22.23.897,Main,2022.1.1,60.00805308026232,
positive,negative,1,l,j,,,,,,,,,1,9,27,5,,,,,,,,,,,,,,,,,,,,,,,,main,2,2,1,negative,positive,j,j,1,0.6408284999997704,205.9241660000007,206.9299174000007,206.9099724000007,None,205.9241660000007,None,205.9241660000007,None,205.9241660000007,None,207.5435706300006,None,207.5435706300006,None,207.5435706300006,None,,,,,,,,,,,211,19,Male,2022-05-06_14h22.23.897,Main,2022.1.1,60.00805308026232,
negative,negative,1,j,l,,,,,,,,,1,10,28,0,,,,,,,,,,,,,,,,,,,,,,,,main,1,1,1,negative,negative,l,l,1,0.6880080999999336,207.56372080000074,208.56559770000058,208.54660279999916,None,207.56372080000074,None,207.56372080000074,None,207.56372080000074,None,209.23602073,None,209.23602073,None,209.23602073,None,,,,,,,,,,,211,19,Male,2022-05-06_14h22.23.897,Main,2022.1.1,60.00805308026232,
negative,neutral,2,j,l,,,,,,,,,1,11,29,12,,,,,,,,,,,,,,,,,,,,,,,,main,1,1,2,neutral,negative,l,l,1,0.9387461999995139,209.257509699999,210.2613853999992,210.24256930000047,None,209.257509699999,None,209.257509699999,None,209.257509699999,None,211.17556602999974,None,211.17556602999974,None,211.17556602999974,None,,,,,,,,,,,211,19,Male,2022-05-06_14h22.23.897,Main,2022.1.1,60.00805308026232,
negative,positive,1,j,l,,,,,,,,,1,12,30,6,,,,,,,,,,,,,,,,,,,,,,,,main,1,1,1,positive,negative,l,l,1,0.8632885000006354,211.19804490000024,212.21470910000062,212.1762591000006,None,211.19804490000024,None,211.19804490000024,None,211.19804490000024,None,213.04047302999896,None,213.04047302999896,None,213.04047302999896,None,,,,,,,,,,,211,19,Male,2022-05-06_14h22.23.897,Main,2022.1.1,60.00805308026232,
negative,neutral,1,j,l,,,,,,,,,1,13,31,3,,,,,,,,,,,,,,,,,,,,,,,,main,2,2,1,neutral,negative,l,l,1,0.681485099999918,213.06278120000025,214.0763121,214.03712319999977,None,213.06278120000025,None,213.06278120000025,None,213.06278120000025,None,214.7248200299993,None,214.7248200299993,None,214.7248200299993,None,,,,,,,,,,,211,19,Male,2022-05-06_14h22.23.897,Main,2022.1.1,60.00805308026232,
positive,positive,1,l,j,,,,,,,,,1,14,32,2,,,,,,,,,,,,,,,,,,,,,,,,main,1,1,1,positive,positive,j,j,1,0.7687284000003274,214.74651559999984,215.74888160000046,215.73046500000055,None,214.74651559999984,None,214.74651559999984,None,214.74651559999984,None,216.4977440300001,None,216.4977440300001,None,216.4977440300001,None,,,,,,,,,,,211,19,Male,2022-05-06_14h22.23.897,Main,2022.1.1,60.00805308026232,
neutral,positive,1,k,k,,,,,,,,,1,15,33,4,,,,,,,,,,,,,,,,,,,,,,,,main,1,1,1,positive,neutral,k,k,1,0.8309884000009333,216.5181780999992,217.52552509999987,217.50710330000038,None,216.5181780999992,None,216.5181780999992,None,216.5181780999992,None,218.33009962999967,None,218.33009962999967,None,218.33009962999967,None,,,,,,,,,,,211,19,Male,2022-05-06_14h22.23.897,Main,2022.1.1,60.00805308026232,
neutral,positive,2,k,k,,,,,,,,,1,16,34,13,,,,,,,,,,,,,,,,,,,,,,,,main,2,2,2,positive,neutral,k,k,1,0.6305209000001923,218.35471589999906,219.36425210000016,219.3453372999993,None,218.35471589999906,None,218.35471589999906,None,218.35471589999906,None,219.96180733,None,219.96180733,None,219.96180733,None,,,,,,,,,,,211,19,Male,2022-05-06_14h22.23.897,Main,2022.1.1,60.00805308026232,
neutral,negative,1,k,k,,,,,,,,,1,17,35,7,,,,,,,,,,,,,,,,,,,,,,,,main,2,2,1,negative,neutral,k,k,1,0.7353144999997312,219.98690019999958,220.9902091999993,220.97172800000044,None,219.98690019999958,None,219.98690019999958,None,219.98690019999958,None,221.7023129300007,None,221.7023129300007,None,221.7023129300007,None,,,,,,,,,,,211,19,Male,2022-05-06_14h22.23.897,Main,2022.1.1,60.00805308026232,
positive,neutral,1,l,j,,,,,,,,,2,0,36,8,,,,,,,,,,,,,,,,,,,,,,,,main,1,1,1,neutral,positive,j,j,1,0.681762099999105,221.72200379999958,222.7373002000004,222.69973559999926,None,221.72200379999958,None,221.72200379999958,None,221.72200379999958,None,223.38785113000012,None,223.38785113000012,None,223.38785113000012,None,,,,,,,,,,,211,19,Male,2022-05-06_14h22.23.897,Main,2022.1.1,60.00805308026232,
neutral,neutral,2,k,k,,,,,,,,,2,1,37,10,,,,,,,,,,,,,,,,,,,,,,,,main,1,1,2,neutral,neutral,k,k,1,0.6714947000000393,223.40742060000048,224.4117855000004,224.39413989999957,None,223.40742060000048,None,223.40742060000048,None,223.40742060000048,None,225.06211933000048,None,225.06211933000048,None,225.06211933000048,None,,,,,,,,,,,211,19,Male,2022-05-06_14h22.23.897,Main,2022.1.1,60.00805308026232,
neutral,neutral,1,k,k,,,,,,,,,2,2,38,1,,,,,,,,,,,,,,,,,,,,,,,,main,1,1,1,neutral,neutral,k,k,1,0.7792944999982865,225.08161549999932,226.08521160000055,226.06566179999936,None,225.08161549999932,None,225.08161549999932,None,225.08161549999932,None,226.84573492999988,None,226.84573492999988,None,226.84573492999988,None,,,,,,,,,,,211,19,Male,2022-05-06_14h22.23.897,Main,2022.1.1,60.00805308026232,
negative,neutral,2,j,l,,,,,,,,,2,3,39,12,,,,,,,,,,,,,,,,,,,,,,,,main,2,2,2,neutral,negative,l,l,1,0.7825047999995149,226.8651632000001,227.88026799999898,227.84112660000028,None,226.8651632000001,None,226.8651632000001,None,226.8651632000001,None,228.63052752999937,None,228.63052752999937,None,228.63052752999937,None,,,,,,,,,,,211,19,Male,2022-05-06_14h22.23.897,Main,2022.1.1,60.00805308026232,
positive,positive,1,l,j,,,,,,,,,2,4,40,2,,,,,,,,,,,,,,,,,,,,,,,,main,2,2,1,positive,positive,j,j,1,0.761300599999231,228.65023389999988,229.66177749999952,229.6241714000007,None,228.65023389999988,None,228.65023389999988,None,228.65023389999988,None,230.39225732999984,None,230.39225732999984,None,230.39225732999984,None,,,,,,,,,,,211,19,Male,2022-05-06_14h22.23.897,Main,2022.1.1,60.00805308026232,
negative,positive,1,j,l,,,,,,,,,2,5,41,6,,,,,,,,,,,,,,,,,,,,,,,,main,2,2,1,positive,negative,l,l,1,0.7611049999995885,230.41867180000008,231.42776679999952,231.38919239999996,None,230.41867180000008,None,230.41867180000008,None,230.41867180000008,None,232.15589712999935,None,232.15589712999935,None,232.15589712999935,None,,,,,,,,,,,211,19,Male,2022-05-06_14h22.23.897,Main,2022.1.1,60.00805308026232,
positive,negative,1,l,j,,,,,,,,,2,6,42,5,,,,,,,,,,,,,,,,,,,,,,,,main,1,1,1,negative,positive,j,j,1,0.7969004999995377,232.1775775999995,233.1892289999996,233.1524128000001,None,232.1775775999995,None,232.1775775999995,None,232.1775775999995,None,233.9555453299992,None,233.9555453299992,None,233.9555453299992,None,,,,,,,,,,,211,19,Male,2022-05-06_14h22.23.897,Main,2022.1.1,60.00805308026232,
negative,neutral,1,j,l,,,,,,,,,2,7,43,3,,,,,,,,,,,,,,,,,,,,,,,,main,1,1,1,neutral,negative,l,l,1,1.065756699999838,233.97621479999907,234.99539659999937,234.95782829999916,None,233.97621479999907,None,233.97621479999907,None,233.97621479999907,None,236.02386742999914,None,236.02386742999914,None,236.02386742999914,None,,,,,,,,,,,211,19,Male,2022-05-06_14h22.23.897,Main,2022.1.1,60.00805308026232,
positive,positive,2,l,j,,,,,,,,,2,8,44,11,,,,,,,,,,,,,,,,,,,,,,,,main,1,1,2,positive,positive,j,j,1,0.7288730999989639,236.0508334999995,237.0649126999997,237.02646300000015,None,236.0508334999995,None,236.0508334999995,None,236.0508334999995,None,237.75654162999962,None,237.75654162999962,None,237.75654162999962,None,,,,,,,,,,,211,19,Male,2022-05-06_14h22.23.897,Main,2022.1.1,60.00805308026232,
negative,positive,2,j,l,,,,,,,,,2,9,45,15,,,,,,,,,,,,,,,,,,,,,,,,main,2,2,2,positive,negative,l,l,1,0.7312225999994553,237.77792210000007,238.77795659999902,238.7612534,None,237.77792210000007,None,237.77792210000007,None,237.77792210000007,None,239.49001652999976,None,239.49001652999976,None,239.49001652999976,None,,,,,,,,,,,211,19,Male,2022-05-06_14h22.23.897,Main,2022.1.1,60.00805308026232,
neutral,positive,1,k,k,,,,,,,,,2,10,46,4,,,,,,,,,,,,,,,,,,,,,,,,main,1,1,1,positive,neutral,k,k,1,0.6141157999991265,239.51067850000072,240.51264099999935,240.49382200000036,None,239.51067850000072,None,239.51067850000072,None,239.51067850000072,None,241.10683392999925,None,241.10683392999925,None,241.10683392999925,None,,,,,,,,,,,211,19,Male,2022-05-06_14h22.23.897,Main,2022.1.1,60.00805308026232,
positive,negative,2,l,j,,,,,,,,,2,11,47,14,,,,,,,,,,,,,,,,,,,,,,,,main,1,1,2,negative,positive,j,j,1,0.6127986000010424,241.1271813000003,242.13041909999993,242.11046849999912,None,241.1271813000003,None,241.1271813000003,None,241.1271813000003,None,242.72187183000023,None,242.72187183000023,None,242.72187183000023,None,,,,,,,,,,,211,19,Male,2022-05-06_14h22.23.897,Main,2022.1.1,60.00805308026232,
neutral,positive,2,k,k,,,,,,,,,2,12,48,13,,,,,,,,,,,,,,,,,,,,,,,,main,2,2,2,positive,neutral,k,k,1,0.7476480000004813,242.74375449999934,243.7601856000001,243.72178580000036,None,242.74375449999934,None,242.74375449999934,None,242.74375449999934,None,244.4729994300007,None,244.4729994300007,None,244.4729994300007,None,,,,,,,,,,,211,19,Male,2022-05-06_14h22.23.897,Main,2022.1.1,60.00805308026232,
neutral,negative,2,k,k,,,,,,,,,2,13,49,16,,,,,,,,,,,,,,,,,,,,,,,,main,1,1,2,negative,neutral,k,k,1,0.6213486999986344,244.4940786999996,245.5089398,245.4717899999996,None,244.4940786999996,None,244.4940786999996,None,244.4940786999996,None,246.09815742999962,None,246.09815742999962,None,246.09815742999962,None,,,,,,,,,,,211,19,Male,2022-05-06_14h22.23.897,Main,2022.1.1,60.00805308026232,
negative,negative,2,j,l,,,,,,,,,2,14,50,9,,,,,,,,,,,,,,,,,,,,,,,,main,2,2,2,negative,negative,l,l,1,0.7701531000002433,246.11980419999963,247.13033039999937,247.1114680999999,None,246.11980419999963,None,246.11980419999963,None,246.11980419999963,None,247.87085923000012,None,247.87085923000012,None,247.87085923000012,None,,,,,,,,,,,211,19,Male,2022-05-06_14h22.23.897,Main,2022.1.1,60.00805308026232,
negative,negative,1,j,l,,,,,,,,,2,15,51,0,,,,,,,,,,,,,,,,,,,,,,,,main,1,1,1,negative,negative,l,l,1,1.0544171999990795,247.89139070000056,248.89406229999986,248.8758453999999,None,247.89139070000056,None,247.89139070000056,None,247.89139070000056,None,249.93035123000044,None,249.93035123000044,None,249.93035123000044,None,,,,,,,,,,,211,19,Male,2022-05-06_14h22.23.897,Main,2022.1.1,60.00805308026232,
neutral,negative,1,k,k,,,,,,,,,2,16,52,7,,,,,,,,,,,,,,,,,,,,,,,,main,1,1,1,negative,neutral,k,k,1,0.7184131000012712,249.94938469999943,250.96120429999974,250.9228218999997,None,249.94938469999943,None,249.94938469999943,None,249.94938469999943,None,251.65126592999985,None,251.65126592999985,None,251.65126592999985,None,,,,,,,,,,,211,19,Male,2022-05-06_14h22.23.897,Main,2022.1.1,60.00805308026232,
positive,neutral,2,l,j,,,,,,,,,2,17,53,17,,,,,,,,,,,,,,,,,,,,,,,,main,1,1,2,neutral,positive,j,j,1,0.9100830999996106,251.6725559000006,252.6742933000005,252.65533519999917,None,251.6725559000006,None,251.6725559000006,None,251.6725559000006,None,253.56519023000072,None,253.56519023000072,None,253.56519023000072,None,,,,,,,,,,,211,19,Male,2022-05-06_14h22.23.897,Main,2022.1.1,60.00805308026232,
negative,positive,2,j,l,,,,,,,,,3,0,54,15,,,,,,,,,,,,,,,,,,,,,,,,main,1,1,2,positive,negative,l,l,1,1.023867900001278,253.58509649999905,254.6011355999999,254.56258549999984,None,253.58509649999905,None,253.58509649999905,None,253.58509649999905,None,255.59010572999904,None,255.59010572999904,None,255.59010572999904,None,,,,,,,,,,,211,19,Male,2022-05-06_14h22.23.897,Main,2022.1.1,60.00805308026232,
negative,neutral,1,j,l,,,,,,,,,3,1,55,3,,,,,,,,,,,,,,,,,,,,,,,,main,1,1,1,neutral,negative,l,l,1,0.7439904000002571,255.61180160000004,256.63164700000016,256.59279310000056,None,255.61180160000004,None,255.61180160000004,None,255.61180160000004,None,257.33818833000004,None,257.33818833000004,None,257.33818833000004,None,,,,,,,,,,,211,19,Male,2022-05-06_14h22.23.897,Main,2022.1.1,60.00805308026232,
positive,negative,1,l,j,,,,,,,,,3,2,56,5,,,,,,,,,,,,,,,,,,,,,,,,main,2,2,1,negative,positive,j,j,1,1.003768200000195,257.35897959999966,258.36874139999964,258.3494735000004,None,257.35897959999966,None,257.35897959999966,None,257.35897959999966,None,259.34603073000034,None,259.34603073000034,None,259.34603073000034,None,,,,,,,,,,,211,19,Male,2022-05-06_14h22.23.897,Main,2022.1.1,60.00805308026232,
neutral,positive,2,k,k,,,,,,,,,3,3,57,13,,,,,,,,,,,,,,,,,,,,,,,,main,2,2,2,positive,neutral,k,k,1,0.6385418999998365,259.3668600000001,260.3713382999995,260.3523573000002,None,259.3668600000001,None,259.3668600000001,None,259.3668600000001,None,260.98535593000014,None,260.98535593000014,None,260.98535593000014,None,,,,,,,,,,,211,19,Male,2022-05-06_14h22.23.897,Main,2022.1.1,60.00805308026232,
neutral,negative,2,k,k,,,,,,,,,3,4,58,16,,,,,,,,,,,,,,,,,,,,,,,,main,2,2,2,negative,neutral,k,k,1,0.7047975999994378,261.0054240999998,262.00850829999945,261.9885426000001,None,261.0054240999998,None,261.0054240999998,None,261.0054240999998,None,262.6935868299999,None,262.6935868299999,None,262.6935868299999,None,,,,,,,,,,,211,19,Male,2022-05-06_14h22.23.897,Main,2022.1.1,60.00805308026232,
negative,neutral,2,j,l,,,,,,,,,3,5,59,12,,,,,,,,,,,,,,,,,,,,,,,,main,2,2,2,neutral,negative,l,l,1,0.7803278999999748,262.7140708000006,263.73343550000027,263.6954924999991,None,262.7140708000006,None,262.7140708000006,None,262.7140708000006,None,264.47717413000026,None,264.47717413000026,None,264.47717413000026,None,,,,,,,,,,,211,19,Male,2022-05-06_14h22.23.897,Main,2022.1.1,60.00805308026232,
positive,neutral,1,l,j,,,,,,,,,3,6,60,8,,,,,,,,,,,,,,,,,,,,,,,,main,2,2,1,neutral,positive,j,j,1,0.7558171000000584,264.49676270000055,265.5058274999992,265.4871536999999,None,264.49676270000055,None,264.49676270000055,None,264.49676270000055,None,266.23384512999945,None,266.23384512999945,None,266.23384512999945,None,,,,,,,,,,,211,19,Male,2022-05-06_14h22.23.897,Main,2022.1.1,60.00805308026232,
neutral,neutral,2,k,k,,,,,,,,,3,7,61,10,,,,,,,,,,,,,,,,,,,,,,,,main,2,2,2,neutral,neutral,k,k,1,0.6277357000017219,266.2538323000008,267.2714985999992,267.2330366999995,None,266.2538323000008,None,266.2538323000008,None,266.2538323000008,None,267.865551529999,None,267.865551529999,None,267.865551529999,None,,,,,,,,,,,211,19,Male,2022-05-06_14h22.23.897,Main,2022.1.1,60.00805308026232,
neutral,negative,1,k,k,,,,,,,,,3,8,62,7,,,,,,,,,,,,,,,,,,,,,,,,main,1,1,1,negative,neutral,k,k,1,0.6942574000004242,267.88732100000016,268.89357589999963,268.8746178000001,None,267.88732100000016,None,267.88732100000016,None,267.88732100000016,None,269.56334902999987,None,269.56334902999987,None,269.56334902999987,None,,,,,,,,,,,211,19,Male,2022-05-06_14h22.23.897,Main,2022.1.1,60.00805308026232,
positive,positive,2,l,j,,,,,,,,,3,9,63,11,,,,,,,,,,,,,,,,,,,,,,,,main,2,2,2,positive,positive,j,j,1,0.7865462999998272,269.585330599999,270.60327230000075,270.5659039000002,None,269.585330599999,None,269.585330599999,None,269.585330599999,None,271.3533861299995,None,271.3533861299995,None,271.3533861299995,None,,,,,,,,,,,211,19,Male,2022-05-06_14h22.23.897,Main,2022.1.1,60.00805308026232,
neutral,neutral,1,k,k,,,,,,,,,3,10,64,1,,,,,,,,,,,,,,,,,,,,,,,,main,1,1,1,neutral,neutral,k,k,1,0.5717471999996633,271.3735121999998,272.3735204000004,272.35678129999906,None,271.3735121999998,None,271.3735121999998,None,271.3735121999998,None,272.9296700299994,None,272.9296700299994,None,272.9296700299994,None,,,,,,,,,,,211,19,Male,2022-05-06_14h22.23.897,Main,2022.1.1,60.00805308026232,
positive,negative,2,l,j,,,,,,,,,3,11,65,14,,,,,,,,,,,,,,,,,,,,,,,,main,2,2,2,negative,positive,j,j,1,0.6093037999999069,272.9499238999997,273.95152469999994,273.93270680000023,None,272.9499238999997,None,272.9499238999997,None,272.9499238999997,None,274.54369282999977,None,274.54369282999977,None,274.54369282999977,None,,,,,,,,,,,211,19,Male,2022-05-06_14h22.23.897,Main,2022.1.1,60.00805308026232,
neutral,positive,1,k,k,,,,,,,,,3,12,66,4,,,,,,,,,,,,,,,,,,,,,,,,main,1,1,1,positive,neutral,k,k,1,1.2903917000003275,274.5656834000001,275.57843350000076,275.5413128,None,274.5656834000001,None,274.5656834000001,None,274.5656834000001,None,276.83344202999905,None,276.83344202999905,None,276.83344202999905,None,,,,,,,,,,,211,19,Male,2022-05-06_14h22.23.897,Main,2022.1.1,60.00805308026232,
positive,positive,1,l,j,,,,,,,,,3,13,67,2,,,,,,,,,,,,,,,,,,,,,,,,main,2,2,1,positive,positive,j,j,1,0.7305821999998443,276.8561895999992,277.86874139999964,277.83115089999956,None,276.8561895999992,None,276.8561895999992,None,276.8561895999992,None,278.5672976300004,None,278.5672976300004,None,278.5672976300004,None,,,,,,,,,,,211,19,Male,2022-05-06_14h22.23.897,Main,2022.1.1,60.00805308026232,
negative,negative,2,j,l,,,,,,,,,3,14,68,9,,,,,,,,,,,,,,,,,,,,,,,,main,1,1,2,negative,negative,l,l,1,0.8032870000006369,278.5876064999993,279.6026378000006,279.56410399999913,None,278.5876064999993,None,278.5876064999993,None,278.5876064999993,None,280.3752868299991,None,280.3752868299991,None,280.3752868299991,None,,,,,,,,,,,211,19,Male,2022-05-06_14h22.23.897,Main,2022.1.1,60.00805308026232,
negative,negative,1,j,l,,,,,,,,,3,15,69,0,,,,,,,,,,,,,,,,,,,,,,,,main,1,1,1,negative,negative,l,l,1,0.8940782999998191,280.39433029999964,281.40551980000055,281.36925560000054,None,280.39433029999964,None,280.39433029999964,None,280.39433029999964,None,282.26911622999904,None,282.26911622999904,None,282.26911622999904,None,,,,,,,,,,,211,19,Male,2022-05-06_14h22.23.897,Main,2022.1.1,60.00805308026232,
negative,positive,1,j,l,,,,,,,,,3,16,70,6,,,,,,,,,,,,,,,,,,,,,,,,main,1,1,1,positive,negative,l,l,1,0.8376418999996531,282.2908869999992,283.3057797999991,283.26832339999964,None,282.2908869999992,None,282.2908869999992,None,282.2908869999992,None,284.1122717299997,None,284.1122717299997,None,284.1122717299997,None,,,,,,,,,,,211,19,Male,2022-05-06_14h22.23.897,Main,2022.1.1,60.00805308026232,
positive,neutral,2,l,j,,,,,,,,,3,17,71,17,,,,,,,,,,,,,,,,,,,,,,,,main,1,1,2,neutral,positive,j,j,1,0.6940547999984119,284.1351625999996,285.14177240000026,285.1218979000005,None,284.1351625999996,None,284.1351625999996,None,284.1351625999996,None,285.8111704300001,None,285.8111704300001,None,285.8111704300001,None,,,,,,,,,,,211,19,Male,2022-05-06_14h22.23.897,Main,2022.1.1,60.00805308026232,
negative,positive,1,j,l,,,,,,,,,4,0,72,6,,,,,,,,,,,,,,,,,,,,,,,,main,2,2,1,positive,negative,l,l,1,0.6685999000001175,285.83330229999956,286.8511701999996,286.8124633999996,None,285.83330229999956,None,285.83330229999956,None,285.83330229999956,None,287.481958829999,None,287.481958829999,None,287.481958829999,None,,,,,,,,,,,211,19,Male,2022-05-06_14h22.23.897,Main,2022.1.1,60.00805308026232,
negative,positive,2,j,l,,,,,,,,,4,1,73,15,,,,,,,,,,,,,,,,,,,,,,,,main,1,1,2,positive,negative,l,l,1,0.7652835999997478,287.50532199999907,288.52503819999947,288.50614979999955,None,287.50532199999907,None,287.50532199999907,None,287.50532199999907,None,289.2505848299999,None,289.2505848299999,None,289.2505848299999,None,,,,,,,,,,,211,19,Male,2022-05-06_14h22.23.897,Main,2022.1.1,60.00805308026232,
positive,negative,2,l,j,,,,,,,,,4,2,74,14,,,,,,,,,,,,,,,,,,,,,,,,main,2,2,2,negative,positive,j,j,1,0.7573936999997386,289.2711751000006,290.2752810000002,290.25461519999953,None,289.2711751000006,None,289.2711751000006,None,289.2711751000006,None,291.01214912999893,None,291.01214912999893,None,291.01214912999893,None,,,,,,,,,,,211,19,Male,2022-05-06_14h22.23.897,Main,2022.1.1,60.00805308026232,
positive,neutral,1,l,j,,,,,,,,,4,3,75,8,,,,,,,,,,,,,,,,,,,,,,,,main,2,2,1,neutral,positive,j,j,1,0.7826048999995692,291.03235440000026,292.03627869999946,292.01730399999906,None,291.03235440000026,None,291.03235440000026,None,291.03235440000026,None,292.79753282999917,None,292.79753282999917,None,292.79753282999917,None,,,,,,,,,,,211,19,Male,2022-05-06_14h22.23.897,Main,2022.1.1,60.00805308026232,
neutral,positive,2,k,k,,,,,,,,,4,4,76,13,,,,,,,,,,,,,,,,,,,,,,,,main,1,1,2,positive,neutral,k,k,1,0.7875586000009207,292.8190412999993,293.8236065000001,293.8043238999999,None,292.8190412999993,None,292.8190412999993,None,292.8190412999993,None,294.59017543000044,None,294.59017543000044,None,294.59017543000044,None,,,,,,,,,,,211,19,Male,2022-05-06_14h22.23.897,Main,2022.1.1,60.00805308026232,
neutral,neutral,2,k,k,,,,,,,,,4,5,77,10,,,,,,,,,,,,,,,,,,,,,,,,main,1,1,2,neutral,neutral,k,k,1,0.6802559999996447,294.6099312000006,295.62849300000016,295.58979929999987,None,294.6099312000006,None,294.6099312000006,None,294.6099312000006,None,296.273361929999,None,296.273361929999,None,296.273361929999,None,,,,,,,,,,,211,19,Male,2022-05-06_14h22.23.897,Main,2022.1.1,60.00805308026232,
negative,negative,1,j,l,,,,,,,,,4,6,78,0,,,,,,,,,,,,,,,,,,,,,,,,main,1,1,1,negative,negative,l,l,1,0.695624999998472,296.29295400000046,297.2967374,297.27796820000003,None,296.29295400000046,None,296.29295400000046,None,296.29295400000046,None,297.97151582999976,None,297.97151582999976,None,297.97151582999976,None,,,,,,,,,,,211,19,Male,2022-05-06_14h22.23.897,Main,2022.1.1,60.00805308026232,
positive,neutral,2,l,j,,,,,,,,,4,7,79,17,,,,,,,,,,,,,,,,,,,,,,,,main,2,2,2,neutral,positive,j,j,1,0.7109951000002184,297.99426649999987,299.0120556999991,298.97361140000066,None,297.99426649999987,None,297.99426649999987,None,297.99426649999987,None,299.68291702999994,None,299.68291702999994,None,299.68291702999994,None,,,,,,,,,,,211,19,Male,2022-05-06_14h22.23.897,Main,2022.1.1,60.00805308026232,
neutral,negative,2,k,k,,,,,,,,,4,8,80,16,,,,,,,,,,,,,,,,,,,,,,,,main,1,1,2,negative,neutral,k,k,1,1.2428304999993998,299.70811929999945,300.7141740999996,300.6953899,None,299.70811929999945,None,299.70811929999945,None,299.70811929999945,None,301.9283626299995,None,301.9283626299995,None,301.9283626299995,None,,,,,,,,,,,211,19,Male,2022-05-06_14h22.23.897,Main,2022.1.1,60.00805308026232,
positive,positive,2,l,j,,,,,,,,,4,9,81,11,,,,,,,,,,,,,,,,,,,,,,,,main,2,2,2,positive,positive,j,j,1,1.47197320000123,301.94922190000034,302.9686280999995,302.93017750000035,None,301.94922190000034,None,301.94922190000034,None,301.94922190000034,None,304.4050037299996,None,304.4050037299996,None,304.4050037299996,None,,,,,,,,,,,211,19,Male,2022-05-06_14h22.23.897,Main,2022.1.1,60.00805308026232,
neutral,neutral,1,k,k,,,,,,,,,4,10,82,1,,,,,,,,,,,,,,,,,,,,,,,,main,1,1,1,neutral,neutral,k,k,1,0.6247407999999268,304.42441019999933,305.4419861000006,305.4022805000004,None,304.42441019999933,None,304.42441019999933,None,304.42441019999933,None,306.03062572999914,None,306.03062572999914,None,306.03062572999914,None,,,,,,,,,,,211,19,Male,2022-05-06_14h22.23.897,Main,2022.1.1,60.00805308026232,
negative,negative,2,j,l,,,,,,,,,4,11,83,9,,,,,,,,,,,,,,,,,,,,,,,,main,2,2,2,negative,negative,l,l,1,0.7237776000001759,306.0512381999997,307.05249469999944,307.03497249999964,None,306.0512381999997,None,306.0512381999997,None,306.0512381999997,None,307.75830052999953,None,307.75830052999953,None,307.75830052999953,None,,,,,,,,,,,211,19,Male,2022-05-06_14h22.23.897,Main,2022.1.1,60.00805308026232,
positive,negative,1,l,j,,,,,,,,,4,12,84,5,,,,,,,,,,,,,,,,,,,,,,,,main,1,1,1,negative,positive,j,j,1,0.9572611000003235,307.7788325999991,308.7817782000002,308.7621156999994,None,307.7788325999991,None,307.7788325999991,None,307.7788325999991,None,309.7185706299999,None,309.7185706299999,None,309.7185706299999,None,,,,,,,,,,,211,19,Male,2022-05-06_14h22.23.897,Main,2022.1.1,60.00805308026232,
positive,positive,1,l,j,,,,,,,,,4,13,85,2,,,,,,,,,,,,,,,,,,,,,,,,main,2,2,1,positive,positive,j,j,1,0.8330943000000843,309.7402562999996,310.7544715999993,310.7158978999996,None,309.7402562999996,None,309.7402562999996,None,309.7402562999996,None,311.5552154299996,None,311.5552154299996,None,311.5552154299996,None,,,,,,,,,,,211,19,Male,2022-05-06_14h22.23.897,Main,2022.1.1,60.00805308026232,
negative,neutral,1,j,l,,,,,,,,,4,14,86,3,,,,,,,,,,,,,,,,,,,,,,,,main,2,2,1,neutral,negative,l,l,1,0.7284018999998807,311.57470040000044,312.58113389999926,312.5625436999999,None,311.57470040000044,None,311.57470040000044,None,311.57470040000044,None,313.28500292999996,None,313.28500292999996,None,313.28500292999996,None,,,,,,,,,,,211,19,Male,2022-05-06_14h22.23.897,Main,2022.1.1,60.00805308026232,
neutral,negative,1,k,k,,,,,,,,,4,15,87,7,,,,,,,,,,,,,,,,,,,,,,,,main,2,2,1,negative,neutral,k,k,1,0.779334499999095,313.30597209999905,314.31547580000006,314.29656520000026,None,313.30597209999905,None,313.30597209999905,None,313.30597209999905,None,315.06804843000026,None,315.06804843000026,None,315.06804843000026,None,,,,,,,,,,,211,19,Male,2022-05-06_14h22.23.897,Main,2022.1.1,60.00805308026232,
neutral,positive,1,k,k,,,,,,,,,4,16,88,4,,,,,,,,,,,,,,,,,,,,,,,,main,1,1,1,positive,neutral,k,k,1,0.6815628999993351,315.0876877999999,316.09930800000075,316.0612865000003,None,315.0876877999999,None,315.0876877999999,None,315.0876877999999,None,316.7498892300002,None,316.7498892300002,None,316.7498892300002,None,,,,,,,,,,,211,19,Male,2022-05-06_14h22.23.897,Main,2022.1.1,60.00805308026232,
negative,neutral,2,j,l,,,,,,,,,4,17,89,12,,,,,,,,,,,,,,,,,,,,,,,,main,1,1,2,neutral,negative,l,l,1,0.7254756999991514,316.769531599999,317.7736189999996,317.7548207,None,316.769531599999,None,316.769531599999,None,316.769531599999,None,318.4782117299994,None,318.4782117299994,None,318.4782117299994,None,,,,,,,,,,,211,19,Male,2022-05-06_14h22.23.897,Main,2022.1.1,60.00805308026232,
negative,neutral,2,j,l,,,,,,,,,5,0,90,12,,,,,,,,,,,,,,,,,,,,,,,,main,1,1,2,neutral,negative,l,l,1,0.6658559999996214,318.4981067000008,319.50092199999926,319.4827375999994,None,318.4981067000008,None,318.4981067000008,None,318.4981067000008,None,320.14661513000027,None,320.14661513000027,None,320.14661513000027,None,,,,,,,,,,,211,19,Male,2022-05-06_14h22.23.897,Main,2022.1.1,60.00805308026232,
neutral,negative,1,k,k,,,,,,,,,5,1,91,7,,,,,,,,,,,,,,,,,,,,,,,,main,1,1,1,negative,neutral,k,k,1,0.6625819999990199,320.1705373999994,321.17883529999926,321.14119290000053,None,320.1705373999994,None,320.1705373999994,None,320.1705373999994,None,321.81190922999957,None,321.81190922999957,None,321.81190922999957,None,,,,,,,,,,,211,19,Male,2022-05-06_14h22.23.897,Main,2022.1.1,60.00805308026232,
neutral,neutral,1,k,k,,,,,,,,,5,2,92,1,,,,,,,,,,,,,,,,,,,,,,,,main,1,1,1,neutral,neutral,k,k,1,0.5801677999988897,321.8313240000007,322.8393902000007,322.8203745999999,None,321.8313240000007,None,321.8313240000007,None,321.8313240000007,None,323.3943292300002,None,323.3943292300002,None,323.3943292300002,None,,,,,,,,,,,211,19,Male,2022-05-06_14h22.23.897,Main,2022.1.1,60.00805308026232,
neutral,negative,2,k,k,,,,,,,,,5,3,93,16,,,,,,,,,,,,,,,,,,,,,,,,main,2,2,2,negative,neutral,k,k,1,0.5504718000011053,323.41450260000056,324.4317623000006,324.39409030000024,None,323.41450260000056,None,323.41450260000056,None,323.41450260000056,None,324.94677462999897,None,324.94677462999897,None,324.94677462999897,None,,,,,,,,,,,211,19,Male,2022-05-06_14h22.23.897,Main,2022.1.1,60.00805308026232,
positive,negative,1,l,j,,,,,,,,,5,4,94,5,,,,,,,,,,,,,,,,,,,,,,,,main,2,2,1,negative,positive,j,j,1,0.9045402000010654,324.96898750000037,325.97100730000057,325.9515320999999,None,324.96898750000037,None,324.96898750000037,None,324.96898750000037,None,326.8563835300003,None,326.8563835300003,None,326.8563835300003,None,,,,,,,,,,,211,19,Male,2022-05-06_14h22.23.897,Main,2022.1.1,60.00805308026232,
positive,neutral,2,l,j,,,,,,,,,5,5,95,17,,,,,,,,,,,,,,,,,,,,,,,,main,2,2,2,neutral,positive,j,j,1,0.6226802999990468,326.87642659999983,327.8834544000001,327.8644628999991,None,326.87642659999983,None,326.87642659999983,None,326.87642659999983,None,328.4832467299995,None,328.4832467299995,None,328.4832467299995,None,,,,,,,,,,,211,19,Male,2022-05-06_14h22.23.897,Main,2022.1.1,60.00805308026232,
negative,positive,1,j,l,,,,,,,,,5,6,96,6,,,,,,,,,,,,,,,,,,,,,,,,main,1,1,1,positive,negative,l,l,1,0.7082423000010749,328.50286159999996,329.5161472,329.4790740999997,None,328.50286159999996,None,328.50286159999996,None,328.50286159999996,None,330.1913945299995,None,330.1913945299995,None,330.1913945299995,None,,,,,,,,,,,211,19,Male,2022-05-06_14h22.23.897,Main,2022.1.1,60.00805308026232,
neutral,positive,2,k,k,,,,,,,,,5,7,97,13,,,,,,,,,,,,,,,,,,,,,,,,main,2,2,2,positive,neutral,k,k,1,0.617993400001069,330.21211050000056,331.2170881000002,331.19845859999987,None,330.21211050000056,None,330.21211050000056,None,330.21211050000056,None,331.8122743300002,None,331.8122743300002,None,331.8122743300002,None,,,,,,,,,,,211,19,Male,2022-05-06_14h22.23.897,Main,2022.1.1,60.00805308026232,
positive,neutral,1,l,j,,,,,,,,,5,8,98,8,,,,,,,,,,,,,,,,,,,,,,,,main,1,1,1,neutral,positive,j,j,1,0.8448427000002994,331.8325769999992,332.84161979999953,332.8225289999991,None,331.8325769999992,None,331.8325769999992,None,331.8325769999992,None,333.65980032999977,None,333.65980032999977,None,333.65980032999977,None,,,,,,,,,,,211,19,Male,2022-05-06_14h22.23.897,Main,2022.1.1,60.00805308026232,
negative,negative,2,j,l,,,,,,,,,5,9,99,9,,,,,,,,,,,,,,,,,,,,,,,,main,2,2,2,negative,negative,l,l,1,0.6805953000002773,333.6811424000007,334.687865599999,334.66906410000047,None,333.6811424000007,None,333.6811424000007,None,333.6811424000007,None,335.34351972999974,None,335.34351972999974,None,335.34351972999974,None,,,,,,,,,,,211,19,Male,2022-05-06_14h22.23.897,Main,2022.1.1,60.00805308026232,
negative,negative,1,j,l,,,,,,,,,5,10,100,0,,,,,,,,,,,,,,,,,,,,,,,,main,1,1,1,negative,negative,l,l,1,0.6729238000007172,335.36259710000013,336.3691722000003,336.3497308999995,None,335.36259710000013,None,335.36259710000013,None,335.36259710000013,None,337.0204903299993,None,337.0204903299993,None,337.0204903299993,None,,,,,,,,,,,211,19,Male,2022-05-06_14h22.23.897,Main,2022.1.1,60.00805308026232,
positive,positive,2,l,j,,,,,,,,,5,11,101,11,,,,,,,,,,,,,,,,,,,,,,,,main,2,2,2,positive,positive,j,j,1,0.7051924999996118,337.0412343000007,338.05120089999946,338.0129975,None,337.0412343000007,None,337.0412343000007,None,337.0412343000007,None,338.7249086299991,None,338.7249086299991,None,338.7249086299991,None,,,,,,,,,,,211,19,Male,2022-05-06_14h22.23.897,Main,2022.1.1,60.00805308026232,
negative,positive,2,j,l,,,,,,,,,5,12,102,15,,,,,,,,,,,,,,,,,,,,,,,,main,2,2,2,positive,negative,l,l,1,0.6944313999993028,338.7477502999991,339.75256719999925,339.73308870000074,None,338.7477502999991,None,338.7477502999991,None,338.7477502999991,None,340.42335312999893,None,340.42335312999893,None,340.42335312999893,None,,,,,,,,,,,211,19,Male,2022-05-06_14h22.23.897,Main,2022.1.1,60.00805308026232,
negative,neutral,1,j,l,,,,,,,,,5,13,103,3,,,,,,,,,,,,,,,,,,,,,,,,main,1,1,1,neutral,negative,l,l,1,0.7047481000008702,340.4460259000007,341.4473254000004,341.42854179999995,None,340.4460259000007,None,340.4460259000007,None,340.4460259000007,None,342.1345421300004,None,342.1345421300004,None,342.1345421300004,None,,,,,,,,,,,211,19,Male,2022-05-06_14h22.23.897,Main,2022.1.1,60.00805308026232,
neutral,positive,1,k,k,,,,,,,,,5,14,104,4,,,,,,,,,,,,,,,,,,,,,,,,main,2,2,1,positive,neutral,k,k,1,0.6273923999997351,342.1545079999996,343.1674987000006,343.1299541999997,None,342.1545079999996,None,342.1545079999996,None,342.1545079999996,None,343.7642277299994,None,343.7642277299994,None,343.7642277299994,None,,,,,,,,,,,211,19,Male,2022-05-06_14h22.23.897,Main,2022.1.1,60.00805308026232,
positive,negative,2,l,j,,,,,,,,,5,15,105,14,,,,,,,,,,,,,,,,,,,,,,,,main,2,2,2,negative,positive,j,j,1,0.7306137000014132,343.78609440000037,344.79121639999903,344.7726072000005,None,343.78609440000037,None,343.78609440000037,None,343.78609440000037,None,345.4987379299993,None,345.4987379299993,None,345.4987379299993,None,,,,,,,,,,,211,19,Male,2022-05-06_14h22.23.897,Main,2022.1.1,60.00805308026232,
positive,positive,1,l,j,,,,,,,,,5,16,106,2,,,,,,,,,,,,,,,,,,,,,,,,main,2,2,1,positive,positive,j,j,1,0.5838730999985273,345.5195616000001,346.52690950000033,346.50817199999983,None,345.5195616000001,None,345.5195616000001,None,345.5195616000001,None,347.08473173000056,None,347.08473173000056,None,347.08473173000056,None,,,,,,,,,,,211,19,Male,2022-05-06_14h22.23.897,Main,2022.1.1,60.00805308026232,
neutral,neutral,2,k,k,,,,,,,,,5,17,107,10,,,,,,,,,,,,,,,,,,,,,,,,main,1,1,2,neutral,neutral,k,k,1,0.7942304000007425,347.10652909999953,348.10958629999914,348.0895182999993,None,347.10652909999953,None,347.10652909999953,None,347.10652909999953,None,348.8821096299991,None,348.8821096299991,None,348.8821096299991,None,,,,,,,,,,,211,19,Male,2022-05-06_14h22.23.897,Main,2022.1.1,60.00805308026232,
positive,neutral,2,l,j,,,,,,,,,6,0,108,17,,,,,,,,,,,,,,,,,,,,,,,,main,1,1,2,neutral,positive,j,j,1,0.7478537000006327,348.9016988000003,349.90690949999953,349.8855208999994,None,348.9016988000003,None,348.9016988000003,None,348.9016988000003,None,350.6299842300006,None,350.6299842300006,None,350.6299842300006,None,,,,,,,,,,,211,19,Male,2022-05-06_14h22.23.897,Main,2022.1.1,60.00805308026232,
positive,positive,2,l,j,,,,,,,,,6,1,109,11,,,,,,,,,,,,,,,,,,,,,,,,main,2,2,2,positive,positive,j,j,1,0.7038256000014371,350.656222399999,351.6671361000008,351.64673009999933,None,350.656222399999,None,350.656222399999,None,350.656222399999,None,352.33636012999995,None,352.33636012999995,None,352.33636012999995,None,,,,,,,,,,,211,19,Male,2022-05-06_14h22.23.897,Main,2022.1.1,60.00805308026232,
negative,negative,2,j,l,,,,,,,,,6,2,110,9,,,,,,,,,,,,,,,,,,,,,,,,main,2,2,2,negative,negative,l,l,1,0.8331736000000092,352.36234499999955,353.38370419999956,353.3424338999994,None,352.36234499999955,None,352.36234499999955,None,352.36234499999955,None,354.1729321300001,None,354.1729321300001,None,354.1729321300001,None,,,,,,,,,,,211,19,Male,2022-05-06_14h22.23.897,Main,2022.1.1,60.00805308026232,
positive,neutral,1,l,j,,,,,,,,,6,3,111,8,,,,,,,,,,,,,,,,,,,,,,,,main,1,1,1,neutral,positive,j,j,1,0.7446569000003365,354.2012931999998,355.2152573000003,355.17387210000015,None,354.2012931999998,None,354.2012931999998,None,354.2012931999998,None,355.9207852299998,None,355.9207852299998,None,355.9207852299998,None,,,,,,,,,,,211,19,Male,2022-05-06_14h22.23.897,Main,2022.1.1,60.00805308026232,
positive,negative,1,l,j,,,,,,,,,6,4,112,5,,,,,,,,,,,,,,,,,,,,,,,,main,1,1,1,negative,positive,j,j,1,0.5847181999997701,355.9450892999994,356.96589660000063,356.9255556999997,None,355.9450892999994,None,355.9450892999994,None,355.9450892999994,None,357.5066105300004,None,357.5066105300004,None,357.5066105300004,None,,,,,,,,,,,211,19,Male,2022-05-06_14h22.23.897,Main,2022.1.1,60.00805308026232,
neutral,negative,2,k,k,,,,,,,,,6,5,113,16,,,,,,,,,,,,,,,,,,,,,,,,main,2,2,2,negative,neutral,k,k,1,0.7007508000006055,357.53592150000077,358.5506107000001,358.5295167000004,None,357.53592150000077,None,357.53592150000077,None,357.53592150000077,None,359.2139220300007,None,359.2139220300007,None,359.2139220300007,None,,,,,,,,,,,211,19,Male,2022-05-06_14h22.23.897,Main,2022.1.1,60.00805308026232,
negative,positive,2,j,l,,,,,,,,,6,6,114,15,,,,,,,,,,,,,,,,,,,,,,,,main,1,1,2,positive,negative,l,l,1,0.7411360000005516,359.2379767000002,360.25217449999946,360.2301222999995,None,359.2379767000002,None,359.2379767000002,None,359.2379767000002,None,360.95573943000016,None,360.95573943000016,None,360.95573943000016,None,,,,,,,,,,,211,19,Male,2022-05-06_14h22.23.897,Main,2022.1.1,60.00805308026232,
negative,neutral,2,j,l,,,,,,,,,6,7,115,12,,,,,,,,,,,,,,,,,,,,,,,,main,1,1,2,neutral,negative,l,l,1,0.7118963000011718,360.9805403999999,361.9937150000005,361.9734210000006,None,360.9805403999999,None,360.9805403999999,None,360.9805403999999,None,362.6695347300003,None,362.6695347300003,None,362.6695347300003,None,,,,,,,,,,,211,19,Male,2022-05-06_14h22.23.897,Main,2022.1.1,60.00805308026232,
neutral,neutral,2,k,k,,,,,,,,,6,8,116,10,,,,,,,,,,,,,,,,,,,,,,,,main,1,1,2,neutral,neutral,k,k,1,0.6455115999997361,362.69505389999904,363.69898379999904,363.6788801999992,None,362.69505389999904,None,362.69505389999904,None,362.69505389999904,None,364.3191631299989,None,364.3191631299989,None,364.3191631299989,None,,,,,,,,,,,211,19,Male,2022-05-06_14h22.23.897,Main,2022.1.1,60.00805308026232,
positive,negative,2,l,j,,,,,,,,,6,9,117,14,,,,,,,,,,,,,,,,,,,,,,,,main,1,1,2,negative,positive,j,j,1,0.7177704000005178,364.34424519999993,365.3686429999998,365.32348359999924,None,364.34424519999993,None,364.34424519999993,None,364.34424519999993,None,366.0393050300001,None,366.0393050300001,None,366.0393050300001,None,,,,,,,,,,,211,19,Male,2022-05-06_14h22.23.897,Main,2022.1.1,60.00805308026232,
negative,neutral,1,j,l,,,,,,,,,6,10,118,3,,,,,,,,,,,,,,,,,,,,,,,,main,1,1,1,neutral,negative,l,l,1,0.7422909999986587,366.06454569999914,367.0806818000001,367.05994199999986,None,366.06454569999914,None,366.06454569999914,None,366.06454569999914,None,367.785297829999,None,367.785297829999,None,367.785297829999,None,,,,,,,,,,,211,19,Male,2022-05-06_14h22.23.897,Main,2022.1.1,60.00805308026232,
neutral,positive,1,k,k,,,,,,,,,6,11,119,4,,,,,,,,,,,,,,,,,,,,,,,,main,2,2,1,positive,neutral,k,k,1,0.8607726999998704,367.81321220000063,368.8377593999994,368.7946936999997,None,367.81321220000063,None,367.81321220000063,None,367.81321220000063,None,369.64897863000004,None,369.64897863000004,None,369.64897863000004,None,,,,,,,,,,,211,19,Male,2022-05-06_14h22.23.897,Main,2022.1.1,60.00805308026232,
negative,negative,1,j,l,,,,,,,,,6,12,120,0,,,,,,,,,,,,,,,,,,,,,,,,main,1,1,1,negative,negative,l,l,1,0.7219332000004215,369.67563619999964,370.6926526999996,370.6727128000002,None,369.67563619999964,None,369.67563619999964,None,369.67563619999964,None,371.37637402999934,None,371.37637402999934,None,371.37637402999934,None,,,,,,,,,,,211,19,Male,2022-05-06_14h22.23.897,Main,2022.1.1,60.00805308026232,
negative,positive,1,j,l,,,,,,,,,6,13,121,6,,,,,,,,,,,,,,,,,,,,,,,,main,2,2,1,positive,negative,l,l,1,1.1426215000010416,371.39961140000014,372.4180149999993,372.37671709999995,None,371.39961140000014,None,371.39961140000014,None,371.39961140000014,None,373.52087922999925,None,373.52087922999925,None,373.52087922999925,None,,,,,,,,,,,211,19,Male,2022-05-06_14h22.23.897,Main,2022.1.1,60.00805308026232,
neutral,negative,1,k,k,,,,,,,,,6,14,122,7,,,,,,,,,,,,,,,,,,,,,,,,main,2,2,1,negative,neutral,k,k,1,0.7944740000002639,373.5495950000004,374.5656211000005,374.5440490000001,None,373.5495950000004,None,373.5495950000004,None,373.5495950000004,None,375.31874822999924,None,375.31874822999924,None,375.31874822999924,None,,,,,,,,,,,211,19,Male,2022-05-06_14h22.23.897,Main,2022.1.1,60.00805308026232,
neutral,positive,2,k,k,,,,,,,,,6,15,123,13,,,,,,,,,,,,,,,,,,,,,,,,main,2,2,2,positive,neutral,k,k,1,0.6160015999994357,375.3443755999997,376.3538265999996,376.3328170999994,None,375.3443755999997,None,375.3443755999997,None,375.3443755999997,None,376.9381704300005,None,376.9381704300005,None,376.9381704300005,None,,,,,,,,,,,211,19,Male,2022-05-06_14h22.23.897,Main,2022.1.1,60.00805308026232,
neutral,neutral,1,k,k,,,,,,,,,6,16,124,1,,,,,,,,,,,,,,,,,,,,,,,,main,2,2,1,neutral,neutral,k,k,1,0.6009699999995064,376.9661562000001,377.97636819999934,377.95553929999915,None,376.9661562000001,None,376.9661562000001,None,376.9661562000001,None,378.5423515300001,None,378.5423515300001,None,378.5423515300001,None,,,,,,,,,,,211,19,Male,2022-05-06_14h22.23.897,Main,2022.1.1,60.00805308026232,
positive,positive,1,l,j,,,,,,,,,6,17,125,2,,,,,,,,,,,,,,,,,,,,,,,,main,2,2,1,positive,positive,j,j,1,0.8103623000006337,378.56892759999937,379.58570039999904,379.5628152999998,None,378.56892759999937,None,378.56892759999937,None,378.56892759999937,None,380.35545842999926,None,380.35545842999926,None,380.35545842999926,None,,,,,,,,,,,211,19,Male,2022-05-06_14h22.23.897,Main,2022.1.1,60.00805308026232,
neutral,neutral,2,k,k,,,,,,,,,7,0,126,10,,,,,,,,,,,,,,,,,,,,,,,,main,2,2,2,neutral,neutral,k,k,1,0.6325727999992523,380.38176770000064,381.3864763999991,381.36611489999996,None,380.38176770000064,None,380.38176770000064,None,380.38176770000064,None,381.9924850300005,None,381.9924850300005,None,381.9924850300005,None,,,,,,,,,,,211,19,Male,2022-05-06_14h22.23.897,Main,2022.1.1,60.00805308026232,
positive,negative,1,l,j,,,,,,,,,7,1,127,5,,,,,,,,,,,,,,,,,,,,,,,,main,1,1,1,negative,positive,j,j,1,0.7147246000004088,382.0217833000006,383.02805179999996,383.00604270000076,None,382.0217833000006,None,382.0217833000006,None,382.0217833000006,None,383.7083658299991,None,383.7083658299991,None,383.7083658299991,None,,,,,,,,,,,211,19,Male,2022-05-06_14h22.23.897,Main,2022.1.1,60.00805308026232,
positive,neutral,2,l,j,,,,,,,,,7,2,128,17,,,,,,,,,,,,,,,,,,,,,,,,main,1,1,2,neutral,positive,j,j,1,0.5791626999998698,383.7350215999995,384.7569308000002,384.7362711000005,None,383.7350215999995,None,383.7350215999995,None,383.7350215999995,None,385.29488382999915,None,385.29488382999915,None,385.29488382999915,None,,,,,,,,,,,211,19,Male,2022-05-06_14h22.23.897,Main,2022.1.1,60.00805308026232,
neutral,positive,1,k,k,,,,,,,,,7,3,129,4,,,,,,,,,,,,,,,,,,,,,,,,main,1,1,1,positive,neutral,k,k,1,0.711483799999769,385.324505999999,386.34242730000005,386.30035189999944,None,385.324505999999,None,385.324505999999,None,385.324505999999,None,387.011876329999,None,387.011876329999,None,387.011876329999,None,,,,,,,,,,,211,19,Male,2022-05-06_14h22.23.897,Main,2022.1.1,60.00805308026232,
neutral,negative,1,k,k,,,,,,,,,7,4,130,7,,,,,,,,,,,,,,,,,,,,,,,,main,1,1,1,negative,neutral,k,k,1,0.5839745000012044,387.03628089999984,388.0551099000004,388.0158756000001,None,387.03628089999984,None,387.03628089999984,None,387.03628089999984,None,388.5987994300005,None,388.5987994300005,None,388.5987994300005,None,,,,,,,,,,,211,19,Male,2022-05-06_14h22.23.897,Main,2022.1.1,60.00805308026232,
neutral,positive,2,k,k,,,,,,,,,7,5,131,13,,,,,,,,,,,,,,,,,,,,,,,,main,1,1,2,positive,neutral,k,k,1,0.5689622999998392,388.6293091999996,389.65155140000024,389.6096202000008,None,388.6293091999996,None,388.6293091999996,None,388.6293091999996,None,390.17302192999995,None,390.17302192999995,None,390.17302192999995,None,,,,,,,,,,,211,19,Male,2022-05-06_14h22.23.897,Main,2022.1.1,60.00805308026232,
negative,positive,1,j,l,,,,,,,,,7,6,132,6,,,,,,,,,,,,,,,,,,,,,,,,main,2,2,1,positive,negative,l,l,1,0.8431273999995028,390.1984353000007,391.20303160000003,391.18217449999975,None,390.1984353000007,None,390.1984353000007,None,390.1984353000007,None,392.0175875300003,None,392.0175875300003,None,392.0175875300003,None,,,,,,,,,,,211,19,Male,2022-05-06_14h22.23.897,Main,2022.1.1,60.00805308026232,
positive,positive,2,l,j,,,,,,,,,7,7,133,11,,,,,,,,,,,,,,,,,,,,,,,,main,1,1,2,positive,positive,j,j,1,0.6766121000000567,392.04453359999934,393.0548295000008,393.03323629999977,None,392.04453359999934,None,392.04453359999934,None,392.04453359999934,None,393.6985797299996,None,393.6985797299996,None,393.6985797299996,None,,,,,,,,,,,211,19,Male,2022-05-06_14h22.23.897,Main,2022.1.1,60.00805308026232,
negative,negative,1,j,l,,,,,,,,,7,8,134,0,,,,,,,,,,,,,,,,,,,,,,,,main,1,1,1,negative,negative,l,l,1,0.8716368999994302,393.7255992999999,394.7370941999998,394.717256599999,None,393.7255992999999,None,393.7255992999999,None,393.7255992999999,None,395.5741102299991,None,395.5741102299991,None,395.5741102299991,None,,,,,,,,,,,211,19,Male,2022-05-06_14h22.23.897,Main,2022.1.1,60.00805308026232,
negative,negative,2,j,l,,,,,,,,,7,9,135,9,,,,,,,,,,,,,,,,,,,,,,,,main,1,1,2,negative,negative,l,l,1,0.7526717000000644,395.59909589999916,396.6185834000007,396.5982368999994,None,395.59909589999916,None,395.59909589999916,None,395.59909589999916,None,397.332091129999,None,397.332091129999,None,397.332091129999,None,,,,,,,,,,,211,19,Male,2022-05-06_14h22.23.897,Main,2022.1.1,60.00805308026232,
negative,positive,2,j,l,,,,,,,,,7,10,136,15,,,,,,,,,,,,,,,,,,,,,,,,main,2,2,2,positive,negative,l,l,1,0.6224660999996559,397.35468349999974,398.363937099999,398.34099179999976,None,397.35468349999974,None,397.35468349999974,None,397.35468349999974,None,398.9554866299997,None,398.9554866299997,None,398.9554866299997,None,,,,,,,,,,,211,19,Male,2022-05-06_14h22.23.897,Main,2022.1.1,60.00805308026232,
positive,neutral,1,l,j,,,,,,,,,7,11,137,8,,,,,,,,,,,,,,,,,,,,,,,,main,2,2,1,neutral,positive,j,j,1,0.9556966000000102,398.9803885000001,399.9843495999994,399.9653125999994,None,398.9803885000001,None,398.9803885000001,None,398.9803885000001,None,400.9135628300002,None,400.9135628300002,None,400.9135628300002,None,,,,,,,,,,,211,19,Male,2022-05-06_14h22.23.897,Main,2022.1.1,60.00805308026232,
negative,neutral,2,j,l,,,,,,,,,7,12,138,12,,,,,,,,,,,,,,,,,,,,,,,,main,2,2,2,neutral,negative,l,l,1,0.7001558000010846,400.9445357000004,401.95752879999964,401.9206653000001,None,400.9445357000004,None,400.9445357000004,None,400.9445357000004,None,402.61759033000016,None,402.61759033000016,None,402.61759033000016,None,,,,,,,,,,,211,19,Male,2022-05-06_14h22.23.897,Main,2022.1.1,60.00805308026232,
neutral,negative,2,k,k,,,,,,,,,7,13,139,16,,,,,,,,,,,,,,,,,,,,,,,,main,2,2,2,negative,neutral,k,k,1,0.6405251000014687,402.6426444000008,403.64624919999915,403.6252311999997,None,402.6426444000008,None,402.6426444000008,None,402.6426444000008,None,404.27564996000035,None,404.27564996000035,None,404.27564996000035,None,,,,,,,,,,,211,19,Male,2022-05-06_14h22.23.897,Main,2022.1.1,60.00805308026232,
negative,neutral,1,j,l,,,,,,,,,7,14,140,3,,,,,,,,,,,,,,,,,,,,,,,,main,2,2,1,neutral,negative,l,l,1,0.6860097000007954,404.2900731999998,405.31265209999947,405.26765689999957,None,404.2900731999998,None,404.2900731999998,None,404.2900731999998,None,405.9513898300003,None,405.9513898300003,None,405.9513898300003,None,,,,,,,,,,,211,19,Male,2022-05-06_14h22.23.897,Main,2022.1.1,60.00805308026232,
positive,positive,1,l,j,,,,,,,,,7,15,141,2,,,,,,,,,,,,,,,,,,,,,,,,main,1,1,1,positive,positive,j,j,1,0.779590799998914,405.97946240000056,406.99954439999965,406.97581979999995,None,405.97946240000056,None,405.97946240000056,None,405.97946240000056,None,407.7341512300001,None,407.7341512300001,None,407.7341512300001,None,,,,,,,,,,,211,19,Male,2022-05-06_14h22.23.897,Main,2022.1.1,60.00805308026232,
positive,negative,2,l,j,,,,,,,,,7,16,142,14,,,,,,,,,,,,,,,,,,,,,,,,main,2,2,2,negative,positive,j,j,1,0.9315559999995457,407.76254789999984,408.76708619999954,408.7468212999993,None,407.76254789999984,None,407.76254789999984,None,407.76254789999984,None,409.66880102999966,None,409.66880102999966,None,409.66880102999966,None,,,,,,,,,,,211,19,Male,2022-05-06_14h22.23.897,Main,2022.1.1,60.00805308026232,
neutral,neutral,1,k,k,,,,,,,,,7,17,143,1,,,,,,,,,,,,,,,,,,,,,,,,main,2,2,1,neutral,neutral,k,k,1,0.8697582000004331,409.699878899999,410.7034543999998,410.68343690000074,None,409.699878899999,None,409.699878899999,None,409.699878899999,None,411.5447252299993,None,411.5447252299993,None,411.5447252299993,None,,,,,,,,,,,211,19,Male,2022-05-06_14h22.23.897,Main,2022.1.1,60.00805308026232,
negative,positive,1,j,l,,,,,,,,,8,0,144,6,,,,,,,,,,,,,,,,,,,,,,,,main,2,2,1,positive,negative,l,l,1,0.6924186000014743,411.5678547999996,412.57271910000054,412.5534183,None,411.5678547999996,None,411.5678547999996,None,411.5678547999996,None,413.2378287299991,None,413.2378287299991,None,413.2378287299991,None,,,,,,,,,,,211,19,Male,2022-05-06_14h22.23.897,Main,2022.1.1,60.00805308026232,
negative,negative,2,j,l,,,,,,,,,8,1,145,9,,,,,,,,,,,,,,,,,,,,,,,,main,1,1,2,negative,negative,l,l,1,0.7602836000005482,413.266826699999,414.27715609999905,414.2585409000003,None,413.266826699999,None,413.266826699999,None,413.266826699999,None,415.0039279299992,None,415.0039279299992,None,415.0039279299992,None,,,,,,,,,,,211,19,Male,2022-05-06_14h22.23.897,Main,2022.1.1,60.00805308026232,
positive,negative,1,l,j,,,,,,,,,8,2,146,5,,,,,,,,,,,,,,,,,,,,,,,,main,1,1,1,negative,positive,j,j,1,0.6824200000010023,415.0288137000007,416.04675730000054,416.0226741999995,None,415.0288137000007,None,415.0288137000007,None,415.0288137000007,None,416.6908969299995,None,416.6908969299995,None,416.6908969299995,None,,,,,,,,,,,211,19,Male,2022-05-06_14h22.23.897,Main,2022.1.1,60.00805308026232,
neutral,negative,2,k,k,,,,,,,,,8,3,147,16,,,,,,,,,,,,,,,,,,,,,,,,main,2,2,2,negative,neutral,k,k,1,0.6889683000008517,416.7185645999998,417.7344723999995,417.6956073000001,None,416.7185645999998,None,416.7185645999998,None,416.7185645999998,None,418.383144229999,None,418.383144229999,None,418.383144229999,None,,,,,,,,,,,211,19,Male,2022-05-06_14h22.23.897,Main,2022.1.1,60.00805308026232,
negative,negative,1,j,l,,,,,,,,,8,4,148,0,,,,,,,,,,,,,,,,,,,,,,,,main,2,2,1,negative,negative,l,l,1,0.7514509000011458,418.4067161999992,419.4237137,419.40360150000015,None,418.4067161999992,None,418.4067161999992,None,418.4067161999992,None,420.1377389300007,None,420.1377389300007,None,420.1377389300007,None,,,,,,,,,,,211,19,Male,2022-05-06_14h22.23.897,Main,2022.1.1,60.00805308026232,
negative,positive,2,j,l,,,,,,,,,8,5,149,15,,,,,,,,,,,,,,,,,,,,,,,,main,2,2,2,positive,negative,l,l,1,0.5631119000008766,420.16146970000045,421.16774839999925,421.14726990000054,None,420.16146970000045,None,420.16146970000045,None,420.16146970000045,None,421.7029144300006,None,421.7029144300006,None,421.7029144300006,None,,,,,,,,,,,211,19,Male,2022-05-06_14h22.23.897,Main,2022.1.1,60.00805308026232,
neutral,negative,1,k,k,,,,,,,,,8,6,150,7,,,,,,,,,,,,,,,,,,,,,,,,main,2,2,1,negative,neutral,k,k,1,0.8771791999988636,421.72917249999955,422.7502855999992,422.72715380000045,None,421.72917249999955,None,421.72917249999955,None,421.72917249999955,None,423.58776422999944,None,423.58776422999944,None,423.58776422999944,None,,,,,,,,,,,211,19,Male,2022-05-06_14h22.23.897,Main,2022.1.1,60.00805308026232,
neutral,positive,2,k,k,,,,,,,,,8,7,151,13,,,,,,,,,,,,,,,,,,,,,,,,main,2,2,2,positive,neutral,k,k,1,0.6375832999983686,423.6110358999995,424.630997799999,424.5891312999993,None,423.6110358999995,None,423.6110358999995,None,423.6110358999995,None,425.2272258299992,None,425.2272258299992,None,425.2272258299992,None,,,,,,,,,,,211,19,Male,2022-05-06_14h22.23.897,Main,2022.1.1,60.00805308026232,
positive,positive,2,l,j,,,,,,,,,8,8,152,11,,,,,,,,,,,,,,,,,,,,,,,,main,1,1,2,positive,positive,j,j,1,0.785078999999314,425.2529534000005,426.26946809999936,426.24897149999924,None,425.2529534000005,None,425.2529534000005,None,425.2529534000005,None,427.01596412999896,None,427.01596412999896,None,427.01596412999896,None,,,,,,,,,,,211,19,Male,2022-05-06_14h22.23.897,Main,2022.1.1,60.00805308026232,
negative,neutral,2,j,l,,,,,,,,,8,9,153,12,,,,,,,,,,,,,,,,,,,,,,,,main,1,1,2,neutral,negative,l,l,1,0.7728452999999718,427.0395976,428.05015189999904,428.02942409999923,None,427.0395976,None,427.0395976,None,427.0395976,None,428.7902446300006,None,428.7902446300006,None,428.7902446300006,None,,,,,,,,,,,211,19,Male,2022-05-06_14h22.23.897,Main,2022.1.1,60.00805308026232,
positive,neutral,2,l,j,,,,,,,,,8,10,154,17,,,,,,,,,,,,,,,,,,,,,,,,main,1,1,2,neutral,positive,j,j,1,0.8725696000001335,428.8192024,429.8227702999993,429.8018597999999,None,428.8192024,None,428.8192024,None,428.8192024,None,430.6691082299996,None,430.6691082299996,None,430.6691082299996,None,,,,,,,,,,,211,19,Male,2022-05-06_14h22.23.897,Main,2022.1.1,60.00805308026232,
neutral,neutral,1,k,k,,,,,,,,,8,11,155,1,,,,,,,,,,,,,,,,,,,,,,,,main,2,2,1,neutral,neutral,k,k,1,0.7572786000000633,430.6948408999997,431.70593890000055,431.686799699999,None,430.6948408999997,None,430.6948408999997,None,430.6948408999997,None,432.4268816300002,None,432.4268816300002,None,432.4268816300002,None,,,,,,,,,,,211,19,Male,2022-05-06_14h22.23.897,Main,2022.1.1,60.00805308026232,
positive,positive,1,l,j,,,,,,,,,8,12,156,2,,,,,,,,,,,,,,,,,,,,,,,,main,2,2,1,positive,positive,j,j,1,0.7458315000003495,432.4602121000007,433.4766173000007,433.4538685000007,None,432.4602121000007,None,432.4602121000007,None,432.4602121000007,None,434.1787545300005,None,434.1787545300005,None,434.1787545300005,None,,,,,,,,,,,211,19,Male,2022-05-06_14h22.23.897,Main,2022.1.1,60.00805308026232,
neutral,neutral,2,k,k,,,,,,,,,8,13,157,10,,,,,,,,,,,,,,,,,,,,,,,,main,2,2,2,neutral,neutral,k,k,1,0.720252300001448,434.20415610000055,435.20776579999983,435.1879979000005,None,434.20415610000055,None,434.20415610000055,None,434.20415610000055,None,435.9022342300006,None,435.9022342300006,None,435.9022342300006,None,,,,,,,,,,,211,19,Male,2022-05-06_14h22.23.897,Main,2022.1.1,60.00805308026232,
neutral,positive,1,k,k,,,,,,,,,8,14,158,4,,,,,,,,,,,,,,,,,,,,,,,,main,2,2,1,positive,neutral,k,k,1,0.7114777000006143,435.9304506999997,436.94792509999934,436.90983679999954,None,435.9304506999997,None,435.9304506999997,None,435.9304506999997,None,437.61891923,None,437.61891923,None,437.61891923,None,,,,,,,,,,,211,19,Male,2022-05-06_14h22.23.897,Main,2022.1.1,60.00805308026232,
positive,neutral,1,l,j,,,,,,,,,8,15,159,8,,,,,,,,,,,,,,,,,,,,,,,,main,1,1,1,neutral,positive,j,j,1,0.7468668999990768,437.64800119999927,438.6656965000002,438.6426228,None,437.64800119999927,None,437.64800119999927,None,437.64800119999927,None,439.3686891299996,None,439.3686891299996,None,439.3686891299996,None,,,,,,,,,,,211,19,Male,2022-05-06_14h22.23.897,Main,2022.1.1,60.00805308026232,
positive,negative,2,l,j,,,,,,,,,8,16,160,14,,,,,,,,,,,,,,,,,,,,,,,,main,1,1,2,negative,positive,j,j,1,0.7049974999990809,439.4006702000006,440.4121020999992,440.3914750999993,None,439.4006702000006,None,439.4006702000006,None,439.4006702000006,None,441.07516392999895,None,441.07516392999895,None,441.07516392999895,None,,,,,,,,,,,211,19,Male,2022-05-06_14h22.23.897,Main,2022.1.1,60.00805308026232,
negative,neutral,1,j,l,,,,,,,,,8,17,161,3,,,,,,,,,,,,,,,,,,,,,,,,main,2,2,1,neutral,negative,l,l,1,0.8011602000005951,441.10083010000017,442.1124727000006,442.09420780000073,None,441.10083010000017,None,441.10083010000017,None,441.10083010000017,None,442.8800849299998,None,442.8800849299998,None,442.8800849299998,None,,,,,,,,,,,211,19,Male,2022-05-06_14h22.23.897,Main,2022.1.1,60.00805308026232,
neutral,neutral,2,k,k,,,,,,,,,9,0,162,10,,,,,,,,,,,,,,,,,,,,,,,,main,2,2,2,neutral,neutral,k,k,1,0.7698165000001609,442.9104962000001,443.9294049,443.91050019999966,None,442.9104962000001,None,442.9104962000001,None,442.9104962000001,None,444.65926963000055,None,444.65926963000055,None,444.65926963000055,None,,,,,,,,,,,211,19,Male,2022-05-06_14h22.23.897,Main,2022.1.1,60.00805308026232,
positive,positive,2,l,j,,,,,,,,,9,1,163,11,,,,,,,,,,,,,,,,,,,,,,,,main,2,2,2,positive,positive,j,j,1,0.7001945000010892,444.6823218999998,445.6859210999992,445.66650169999957,None,444.6823218999998,None,444.6823218999998,None,444.6823218999998,None,446.360109729999,None,446.360109729999,None,446.360109729999,None,,,,,,,,,,,211,19,Male,2022-05-06_14h22.23.897,Main,2022.1.1,60.00805308026232,
neutral,positive,2,k,k,,,,,,,,,9,2,164,13,,,,,,,,,,,,,,,,,,,,,,,,main,1,1,2,positive,neutral,k,k,1,0.643639500000063,446.390832699999,447.3985768000002,447.3798162999992,None,446.390832699999,None,446.390832699999,None,446.390832699999,None,448.008247429999,None,448.008247429999,None,448.008247429999,None,,,,,,,,,,,211,19,Male,2022-05-06_14h22.23.897,Main,2022.1.1,60.00805308026232,
negative,neutral,1,j,l,,,,,,,,,9,3,165,3,,,,,,,,,,,,,,,,,,,,,,,,main,1,1,1,neutral,negative,l,l,1,0.8190346999999747,448.04128990000027,449.05841899999905,449.0204018000004,None,448.04128990000027,None,448.04128990000027,None,448.04128990000027,None,449.8279615299991,None,449.8279615299991,None,449.8279615299991,None,,,,,,,,,,,211,19,Male,2022-05-06_14h22.23.897,Main,2022.1.1,60.00805308026232,
neutral,positive,1,k,k,,,,,,,,,9,4,166,4,,,,,,,,,,,,,,,,,,,,,,,,main,1,1,1,positive,neutral,k,k,1,0.6952344999990601,449.8574116,450.8672057999993,450.84952899999917,None,449.8574116,None,449.8574116,None,449.8574116,None,451.52966382999983,None,451.52966382999983,None,451.52966382999983,None,,,,,,,,,,,211,19,Male,2022-05-06_14h22.23.897,Main,2022.1.1,60.00805308026232,
positive,negative,2,l,j,,,,,,,,,9,5,167,14,,,,,,,,,,,,,,,,,,,,,,,,main,1,1,2,negative,positive,j,j,1,0.7843080999991798,451.552144199999,452.5607939999991,452.5413427000003,None,451.552144199999,None,451.552144199999,None,451.552144199999,None,453.3175262300003,None,453.3175262300003,None,453.3175262300003,None,,,,,,,,,,,211,19,Male,2022-05-06_14h22.23.897,Main,2022.1.1,60.00805308026232,
negative,positive,1,j,l,,,,,,,,,9,6,168,6,,,,,,,,,,,,,,,,,,,,,,,,main,1,1,1,positive,negative,l,l,1,0.8052289999995992,453.3453129999998,454.36850910000067,454.32576549999976,None,453.3453129999998,None,453.3453129999998,None,453.3453129999998,None,455.12364452999935,None,455.12364452999935,None,455.12364452999935,None,,,,,,,,,,,211,19,Male,2022-05-06_14h22.23.897,Main,2022.1.1,60.00805308026232,
neutral,negative,2,k,k,,,,,,,,,9,7,169,16,,,,,,,,,,,,,,,,,,,,,,,,main,2,2,2,negative,neutral,k,k,1,0.6768566999999166,455.1468549000001,456.1529033000006,456.1333706000005,None,455.1468549000001,None,455.1468549000001,None,455.1468549000001,None,456.80446973000033,None,456.80446973000033,None,456.80446973000033,None,,,,,,,,,,,211,19,Male,2022-05-06_14h22.23.897,Main,2022.1.1,60.00805308026232,
positive,positive,1,l,j,,,,,,,,,9,8,170,2,,,,,,,,,,,,,,,,,,,,,,,,main,1,1,1,positive,positive,j,j,1,0.8046162999999069,456.8387438999998,457.86142520000067,457.8176674999995,None,456.8387438999998,None,456.8387438999998,None,456.8387438999998,None,458.6143818299999,None,458.6143818299999,None,458.6143818299999,None,,,,,,,,,,,211,19,Male,2022-05-06_14h22.23.897,Main,2022.1.1,60.00805308026232,
negative,positive,2,j,l,,,,,,,,,9,9,171,15,,,,,,,,,,,,,,,,,,,,,,,,main,2,2,2,positive,negative,l,l,1,0.7930642999999691,458.6421967999995,459.64969009999913,459.63158440000007,None,458.6421967999995,None,458.6421967999995,None,458.6421967999995,None,460.40852012999966,None,460.40852012999966,None,460.40852012999966,None,,,,,,,,,,,211,19,Male,2022-05-06_14h22.23.897,Main,2022.1.1,60.00805308026232,
negative,negative,2,j,l,,,,,,,,,9,10,172,9,,,,,,,,,,,,,,,,,,,,,,,,main,2,2,2,negative,negative,l,l,1,0.5855916000000434,460.43874549999964,461.45540210000036,461.43368589999955,None,460.43874549999964,None,460.43874549999964,None,460.43874549999964,None,462.003151529999,None,462.003151529999,None,462.003151529999,None,,,,,,,,,,,211,19,Male,2022-05-06_14h22.23.897,Main,2022.1.1,60.00805308026232,
positive,neutral,2,l,j,,,,,,,,,9,11,173,17,,,,,,,,,,,,,,,,,,,,,,,,main,2,2,2,neutral,positive,j,j,1,0.808778099999472,462.02528130000064,463.04724709999937,463.0066136000005,None,462.02528130000064,None,462.02528130000064,None,462.02528130000064,None,463.8097790299991,None,463.8097790299991,None,463.8097790299991,None,,,,,,,,,,,211,19,Male,2022-05-06_14h22.23.897,Main,2022.1.1,60.00805308026232,
negative,negative,1,j,l,,,,,,,,,9,12,174,0,,,,,,,,,,,,,,,,,,,,,,,,main,1,1,1,negative,negative,l,l,1,0.6700419000007969,463.84104599999955,464.84917900000073,464.827718999999,None,463.84104599999955,None,463.84104599999955,None,463.84104599999955,None,465.48404873,None,465.48404873,None,465.48404873,None,,,,,,,,,,,211,19,Male,2022-05-06_14h22.23.897,Main,2022.1.1,60.00805308026232,
positive,neutral,1,l,j,,,,,,,,,9,13,175,8,,,,,,,,,,,,,,,,,,,,,,,,main,2,2,1,neutral,positive,j,j,1,0.7667287000003853,465.5099451999995,466.5152381000007,466.49383110000053,None,465.5099451999995,None,465.5099451999995,None,465.5099451999995,None,467.25461683000066,None,467.25461683000066,None,467.25461683000066,None,,,,,,,,,,,211,19,Male,2022-05-06_14h22.23.897,Main,2022.1.1,60.00805308026232,
neutral,negative,1,k,k,,,,,,,,,9,14,176,7,,,,,,,,,,,,,,,,,,,,,,,,main,2,2,1,negative,neutral,k,k,1,0.7195444999997562,467.2838976999992,468.2895148000007,468.2683125000003,None,467.2838976999992,None,467.2838976999992,None,467.2838976999992,None,468.98274512999996,None,468.98274512999996,None,468.98274512999996,None,,,,,,,,,,,211,19,Male,2022-05-06_14h22.23.897,Main,2022.1.1,60.00805308026232,
negative,neutral,2,j,l,,,,,,,,,9,15,177,12,,,,,,,,,,,,,,,,,,,,,,,,main,2,2,2,neutral,negative,l,l,1,0.7403319999993982,469.0043800000003,470.0251454999998,469.9837291999993,None,469.0043800000003,None,469.0043800000003,None,469.0043800000003,None,470.7238175300001,None,470.7238175300001,None,470.7238175300001,None,,,,,,,,,,,211,19,Male,2022-05-06_14h22.23.897,Main,2022.1.1,60.00805308026232,
positive,negative,1,l,j,,,,,,,,,9,16,178,5,,,,,,,,,,,,,,,,,,,,,,,,main,1,1,1,negative,positive,j,j,1,0.7512660000011238,470.74676589999945,471.77317519999997,471.72686260000046,None,470.74676589999945,None,470.74676589999945,None,470.74676589999945,None,472.47645983,None,472.47645983,None,472.47645983,None,,,,,,,,,,,211,19,Male,2022-05-06_14h22.23.897,Main,2022.1.1,60.00805308026232,
neutral,neutral,1,k,k,,,,,,,,,9,17,179,1,,,,,,,,,,,,,,,,,,,,,,,,main,2,2,1,neutral,neutral,k,k,1,0.8319931000005454,472.50309580000066,473.5086234999999,473.4904984999994,None,472.50309580000066,None,472.50309580000066,None,472.50309580000066,None,474.3150126299999,None,474.3150126299999,None,474.3150126299999,None,,,,,,,,,,,211,19,Male,2022-05-06_14h22.23.897,Main,2022.1.1,60.00805308026232,
neutral,positive,1,k,k,,,,,,,,,10,0,180,4,,,,,,,,,,,,,,,,,,,,,,,,main,2,2,1,positive,neutral,k,k,1,0.5920755000006466,474.3382855,475.3640582000007,475.31834739999977,None,474.3382855,None,474.3382855,None,474.3382855,None,475.90588202999896,None,475.90588202999896,None,475.90588202999896,None,,,,,,,,,,,211,19,Male,2022-05-06_14h22.23.897,Main,2022.1.1,60.00805308026232,
positive,negative,1,l,j,,,,,,,,,10,1,181,5,,,,,,,,,,,,,,,,,,,,,,,,main,1,1,1,negative,positive,j,j,1,0.6506266000014875,475.93390369999906,476.94283240000004,476.9225129000006,None,475.93390369999906,None,475.93390369999906,None,475.93390369999906,None,477.56208373000044,None,477.56208373000044,None,477.56208373000044,None,,,,,,,,,,,211,19,Male,2022-05-06_14h22.23.897,Main,2022.1.1,60.00805308026232,
neutral,negative,1,k,k,,,,,,,,,10,2,182,7,,,,,,,,,,,,,,,,,,,,,,,,main,1,1,1,negative,neutral,k,k,1,0.7158749000009266,477.58622970000033,478.59292690000075,478.57297909999943,None,477.58622970000033,None,477.58622970000033,None,477.58622970000033,None,479.29300245999946,None,479.29300245999946,None,479.29300245999946,None,,,,,,,,,,,211,19,Male,2022-05-06_14h22.23.897,Main,2022.1.1,60.00805308026232,
neutral,positive,2,k,k,,,,,,,,,10,3,183,13,,,,,,,,,,,,,,,,,,,,,,,,main,2,2,2,positive,neutral,k,k,1,0.6608004999998229,479.31107580000025,480.32265279999956,480.3037887999999,None,479.31107580000025,None,479.31107580000025,None,479.31107580000025,None,480.94454112999955,None,480.94454112999955,None,480.94454112999955,None,,,,,,,,,,,211,19,Male,2022-05-06_14h22.23.897,Main,2022.1.1,60.00805308026232,
negative,negative,2,j,l,,,,,,,,,10,4,184,9,,,,,,,,,,,,,,,,,,,,,,,,main,2,2,2,negative,negative,l,l,1,0.7618507999995927,480.97021499999937,481.98461959999986,481.94572940000035,None,480.97021499999937,None,480.97021499999937,None,480.97021499999937,None,482.70818292999974,None,482.70818292999974,None,482.70818292999974,None,,,,,,,,,,,211,19,Male,2022-05-06_14h22.23.897,Main,2022.1.1,60.00805308026232,
neutral,neutral,1,k,k,,,,,,,,,10,5,185,1,,,,,,,,,,,,,,,,,,,,,,,,main,1,1,1,neutral,neutral,k,k,1,0.6922753999988345,482.73919340000066,483.7495386999999,483.7273017999996,None,482.73919340000066,None,482.73919340000066,None,482.73919340000066,None,484.40514702999934,None,484.40514702999934,None,484.40514702999934,None,,,,,,,,,,,211,19,Male,2022-05-06_14h22.23.897,Main,2022.1.1,60.00805308026232,
positive,positive,1,l,j,,,,,,,,,10,6,186,2,,,,,,,,,,,,,,,,,,,,,,,,main,2,2,1,positive,positive,j,j,1,0.7892060999984096,484.4304525000007,485.4346743999995,485.4137174999996,None,484.4304525000007,None,484.4304525000007,None,484.4304525000007,None,486.20121453000064,None,486.20121453000064,None,486.20121453000064,None,,,,,,,,,,,211,19,Male,2022-05-06_14h22.23.897,Main,2022.1.1,60.00805308026232,
positive,neutral,2,l,j,,,,,,,,,10,7,187,17,,,,,,,,,,,,,,,,,,,,,,,,main,2,2,2,neutral,positive,j,j,1,1.2073099999997794,486.22422279999955,487.230657099999,487.20929029999934,None,486.22422279999955,None,486.22422279999955,None,486.22422279999955,None,488.4135510299995,None,488.4135510299995,None,488.4135510299995,None,,,,,,,,,,,211,19,Male,2022-05-06_14h22.23.897,Main,2022.1.1,60.00805308026232,
positive,neutral,1,l,j,,,,,,,,,10,8,188,8,,,,,,,,,,,,,,,,,,,,,,,,main,1,1,1,neutral,positive,j,j,1,1.497583600001235,488.43540009999924,489.4548964000005,489.43448159999934,None,488.43540009999924,None,488.43540009999924,None,488.43540009999924,None,490.91304332999897,None,490.91304332999897,None,490.91304332999897,None,,,,,,,,,,,211,19,Male,2022-05-06_14h22.23.897,Main,2022.1.1,60.00805308026232,
negative,negative,1,j,l,,,,,,,,,10,9,189,0,,,,,,,,,,,,,,,,,,,,,,,,main,2,2,1,negative,negative,l,l,1,0.7390132000000449,490.94171839999944,491.95800699999927,491.9364650999996,None,490.94171839999944,None,490.94171839999944,None,490.94171839999944,None,492.655646729999,None,492.655646729999,None,492.655646729999,None,,,,,,,,,,,211,19,Male,2022-05-06_14h22.23.897,Main,2022.1.1,60.00805308026232,
positive,positive,2,l,j,,,,,,,,,10,10,190,11,,,,,,,,,,,,,,,,,,,,,,,,main,2,2,2,positive,positive,j,j,1,0.8159956999988935,492.6811316000003,493.69264959999964,493.67217469999923,None,492.6811316000003,None,492.6811316000003,None,492.6811316000003,None,494.47217322999967,None,494.47217322999967,None,494.47217322999967,None,,,,,,,,,,,211,19,Male,2022-05-06_14h22.23.897,Main,2022.1.1,60.00805308026232,
negative,positive,1,j,l,,,,,,,,,10,11,191,6,,,,,,,,,,,,,,,,,,,,,,,,main,2,2,1,positive,negative,l,,0,1.3311040999997203,494.4985820999991,495.51944829999957,495.49739729999965,None,494.4985820999991,None,494.4985820999991,None,494.4985820999991,None,496.81702290000067,None,496.81702290000067,None,496.81702290000067,None,,,,,,,,,,,211,19,Male,2022-05-06_14h22.23.897,Main,2022.1.1,60.00805308026232,
negative,positive,2,j,l,,,,,,,,,10,12,192,15,,,,,,,,,,,,,,,,,,,,,,,,main,2,2,2,positive,negative,l,l,1,0.7242894999999407,497.84293160000016,498.8545744999992,498.8340993999991,None,497.84293160000016,None,497.84293160000016,None,497.84293160000016,None,499.54620062999965,None,499.54620062999965,None,499.54620062999965,None,,,,,,,,,,,211,19,Male,2022-05-06_14h22.23.897,Main,2022.1.1,60.00805308026232,
positive,negative,2,l,j,,,,,,,,,10,13,193,14,,,,,,,,,,,,,,,,,,,,,,,,main,1,1,2,negative,positive,j,j,1,0.8096450999983063,499.5752726999999,500.5844907999999,500.5634547999998,None,499.5752726999999,None,499.5752726999999,None,499.5752726999999,None,501.3628618300001,None,501.3628618300001,None,501.3628618300001,None,,,,,,,,,,,211,19,Male,2022-05-06_14h22.23.897,Main,2022.1.1,60.00805308026232,
negative,neutral,2,j,l,,,,,,,,,10,14,194,12,,,,,,,,,,,,,,,,,,,,,,,,main,2,2,2,neutral,negative,l,l,1,0.7865936999987753,501.386465399999,502.4147976000004,502.3676317999998,None,501.386465399999,None,501.386465399999,None,501.386465399999,None,503.14719943000017,None,503.14719943000017,None,503.14719943000017,None,,,,,,,,,,,211,19,Male,2022-05-06_14h22.23.897,Main,2022.1.1,60.00805308026232,
negative,neutral,1,j,l,,,,,,,,,10,15,195,3,,,,,,,,,,,,,,,,,,,,,,,,main,1,1,1,neutral,negative,l,l,1,0.6408085000002757,503.1818739999999,504.1894014999998,504.1700550000005,None,503.1818739999999,None,503.1818739999999,None,503.1818739999999,None,504.79766343000045,None,504.79766343000045,None,504.79766343000045,None,,,,,,,,,,,211,19,Male,2022-05-06_14h22.23.897,Main,2022.1.1,60.00805308026232,
neutral,neutral,2,k,k,,,,,,,,,10,16,196,10,,,,,,,,,,,,,,,,,,,,,,,,main,1,1,2,neutral,neutral,k,k,1,1.3680549999990035,504.8238674000004,505.84559909999916,505.80355620000046,None,504.8238674000004,None,504.8238674000004,None,504.8238674000004,None,507.1678478299993,None,507.1678478299993,None,507.1678478299993,None,,,,,,,,,,,211,19,Male,2022-05-06_14h22.23.897,Main,2022.1.1,60.00805308026232,
neutral,negative,2,k,k,,,,,,,,,10,17,197,16,,,,,,,,,,,,,,,,,,,,,,,,main,2,2,2,negative,neutral,k,k,1,0.6207987999987381,507.19680309999967,508.2068521000001,508.18703619999906,None,507.19680309999967,None,507.19680309999967,None,507.19680309999967,None,508.79101842999916,None,508.79101842999916,None,508.79101842999916,None,,,,,,,,,,,211,19,Male,2022-05-06_14h22.23.897,Main,2022.1.1,60.00805308026232,
positive,negative,2,l,j,,,,,,,,,11,0,198,14,,,,,,,,,,,,,,,,,,,,,,,,main,1,1,2,negative,positive,j,j,1,0.7569100999990042,508.8166125000007,509.81927949999954,509.8003850999994,None,508.8166125000007,None,508.8166125000007,None,508.8166125000007,None,510.55241053000026,None,510.55241053000026,None,510.55241053000026,None,,,,,,,,,,,211,19,Male,2022-05-06_14h22.23.897,Main,2022.1.1,60.00805308026232,
positive,neutral,2,l,j,,,,,,,,,11,1,199,17,,,,,,,,,,,,,,,,,,,,,,,,main,1,1,2,neutral,positive,j,j,1,0.6530729000005522,510.5829733999999,511.6049777999997,511.5606224000003,None,510.5829733999999,None,510.5829733999999,None,510.5829733999999,None,512.2120323299998,None,512.2120323299998,None,512.2120323299998,None,,,,,,,,,,,211,19,Male,2022-05-06_14h22.23.897,Main,2022.1.1,60.00805308026232,
negative,negative,1,j,l,,,,,,,,,11,2,200,0,,,,,,,,,,,,,,,,,,,,,,,,main,2,2,1,negative,negative,l,l,1,0.8252157000006264,512.2398166999992,513.2536462000007,513.2334738999998,None,512.2398166999992,None,512.2398166999992,None,512.2398166999992,None,514.0364550299994,None,514.0364550299994,None,514.0364550299994,None,,,,,,,,,,,211,19,Male,2022-05-06_14h22.23.897,Main,2022.1.1,60.00805308026232,
positive,positive,2,l,j,,,,,,,,,11,3,201,11,,,,,,,,,,,,,,,,,,,,,,,,main,2,2,2,positive,positive,j,j,1,0.7542044999991049,514.0664976999997,515.0721427000008,515.0506447999996,None,514.0664976999997,None,514.0664976999997,None,514.0664976999997,None,515.7956908299996,None,515.7956908299996,None,515.7956908299996,None,,,,,,,,,,,211,19,Male,2022-05-06_14h22.23.897,Main,2022.1.1,60.00805308026232,
neutral,negative,1,k,k,,,,,,,,,11,4,202,7,,,,,,,,,,,,,,,,,,,,,,,,main,1,1,1,negative,neutral,k,k,1,0.8099376000009215,515.8284583000004,516.8451537000001,516.8261514000005,None,515.8284583000004,None,515.8284583000004,None,515.8284583000004,None,517.6124474300007,None,517.6124474300007,None,517.6124474300007,None,,,,,,,,,,,211,19,Male,2022-05-06_14h22.23.897,Main,2022.1.1,60.00805308026232,
neutral,positive,1,k,k,,,,,,,,,11,5,203,4,,,,,,,,,,,,,,,,,,,,,,,,main,2,2,1,positive,neutral,k,k,1,0.7837419000006776,517.6388174000003,518.6440633000002,518.6220438,None,517.6388174000003,None,517.6388174000003,None,517.6388174000003,None,519.3985133300005,None,519.3985133300005,None,519.3985133300005,None,,,,,,,,,,,211,19,Male,2022-05-06_14h22.23.897,Main,2022.1.1,60.00805308026232,
positive,negative,1,l,j,,,,,,,,,11,6,204,5,,,,,,,,,,,,,,,,,,,,,,,,main,2,2,1,negative,positive,j,j,1,0.7613273999995727,519.4282695000002,520.4346483999998,520.4143843000002,None,519.4282695000002,None,519.4282695000002,None,519.4282695000002,None,521.1664594299993,None,521.1664594299993,None,521.1664594299993,None,,,,,,,,,,,211,19,Male,2022-05-06_14h22.23.897,Main,2022.1.1,60.00805308026232,
neutral,neutral,2,k,k,,,,,,,,,11,7,205,10,,,,,,,,,,,,,,,,,,,,,,,,main,1,1,2,neutral,neutral,k,k,1,0.6168695999986085,521.1877358000002,522.1984434999995,522.1766974999991,None,521.1877358000002,None,521.1877358000002,None,521.1877358000002,None,522.7842364300006,None,522.7842364300006,None,522.7842364300006,None,,,,,,,,,,,211,19,Male,2022-05-06_14h22.23.897,Main,2022.1.1,60.00805308026232,
negative,neutral,1,j,l,,,,,,,,,11,8,206,3,,,,,,,,,,,,,,,,,,,,,,,,main,2,2,1,neutral,negative,l,l,1,0.7835851999989245,522.8100553999993,523.8270434999995,523.8065700000006,None,522.8100553999993,None,522.8100553999993,None,522.8100553999993,None,524.5672533299996,None,524.5672533299996,None,524.5672533299996,None,,,,,,,,,,,211,19,Male,2022-05-06_14h22.23.897,Main,2022.1.1,60.00805308026232,
neutral,negative,2,k,k,,,,,,,,,11,9,207,16,,,,,,,,,,,,,,,,,,,,,,,,main,1,1,2,negative,neutral,k,k,1,0.712247400000706,524.5961975999999,525.6062538999995,525.5872118000007,None,524.5961975999999,None,524.5961975999999,None,524.5961975999999,None,526.2862429299996,None,526.2862429299996,None,526.2862429299996,None,,,,,,,,,,,211,19,Male,2022-05-06_14h22.23.897,Main,2022.1.1,60.00805308026232,
negative,positive,1,j,l,,,,,,,,,11,10,208,6,,,,,,,,,,,,,,,,,,,,,,,,main,1,1,1,positive,negative,l,l,1,0.8016191000006074,526.3124807999993,527.3180334999997,527.2986211999996,None,526.3124807999993,None,526.3124807999993,None,526.3124807999993,None,528.0897996300002,None,528.0897996300002,None,528.0897996300002,None,,,,,,,,,,,211,19,Male,2022-05-06_14h22.23.897,Main,2022.1.1,60.00805308026232,
positive,neutral,1,l,j,,,,,,,,,11,11,209,8,,,,,,,,,,,,,,,,,,,,,,,,main,2,2,1,neutral,positive,j,j,1,0.9116689000002225,528.1207231999997,529.1349807000006,529.1141977000007,None,528.1207231999997,None,528.1207231999997,None,528.1207231999997,None,530.0094651299999,None,530.0094651299999,None,530.0094651299999,None,,,,,,,,,,,211,19,Male,2022-05-06_14h22.23.897,Main,2022.1.1,60.00805308026232,
negative,neutral,2,j,l,,,,,,,,,11,12,210,12,,,,,,,,,,,,,,,,,,,,,,,,main,2,2,2,neutral,negative,l,l,1,0.8093519000012748,530.0319517000007,531.0452120999998,531.0249034000008,None,530.0319517000007,None,530.0319517000007,None,530.0319517000007,None,531.8186741300008,None,531.8186741300008,None,531.8186741300008,None,,,,,,,,,,,211,19,Male,2022-05-06_14h22.23.897,Main,2022.1.1,60.00805308026232,
