target,distractor,set,ans1,ans2,rep_loop2.thisRepN,rep_loop2.thisTrialN,rep_loop2.thisN,rep_loop2.thisIndex,flanker_prac_loop.thisRepN,flanker_prac_loop.thisTrialN,flanker_prac_loop.thisN,flanker_prac_loop.thisIndex,flanker_main_loop.thisRepN,flanker_main_loop.thisTrialN,flanker_main_loop.thisN,flanker_main_loop.thisIndex,fl_inst_resp.keys,mouse.x,mouse.y,mouse.leftButton,mouse.midButton,mouse.rightButton,mouse.started,mouse.stopped,sound_1.started,sound_1.stopped,no_text.started,no_text.stopped,yes_text.started,yes_text.stopped,mouse_2.x,mouse_2.y,mouse_2.leftButton,mouse_2.midButton,mouse_2.rightButton,mouse_2.started,mouse_2.stopped,back_2.started,back_2.stopped,main_prac,fl_cold,fl_colt,fl_set,fl_dcond,fl_tcond,fl_ans,fl_res,fl_corr,fl_rt,fix_fl.started,fix_fl.stopped,targ.started,targ.stopped,j_button.started,j_button.stopped,k_button.started,k_button.stopped,l_button.started,l_button.stopped,j_button2.started,j_button2.stopped,k_button2.started,k_button2.stopped,l_button2.started,l_button2.stopped,mainback.started,mainback.stopped,key_resp.keys,mouse_6.x,mouse_6.y,mouse_6.leftButton,mouse_6.midButton,mouse_6.rightButton,mouse_6.started,mouse_6.stopped,id*,age*,gender*,date,expName,psychopyVersion,frameRate,
,,,,,0,0,0,0,,,,,,,,,None,0.25277779,-0.40462962,0,0,0,0.9998899399761285,None,24.462266429999183,None,74.87459979999949,None,74.87459979999949,None,-0.09259259,-0.07962963,0,0,0,0.012670629997955984,None,,,,,,,,,,,,,,,,,,,,,,,,,,,,,,,,,,,,,,,212,23,Female,2022-05-06_15h56.55.880,Main,2022.1.1,60.01237455197935,
positive,negative,2,l,j,,,,,0,0,0,14,,,,,,,,,,,,,,,,,,,,,,,,,,78.10486479999963,None,prac,2,2,2,negative,positive,l,l,1,1.5752960999998322,80.13253079999959,81.13816709999992,81.11817639999936,None,80.13253079999959,None,80.13253079999959,None,80.13253079999959,None,82.7000981000001,None,82.7000981000001,None,82.7000981000001,None,,,,,,,,,,,212,23,Female,2022-05-06_15h56.55.880,Main,2022.1.1,60.01237455197935,
positive,positive,1,l,j,,,,,0,1,1,2,,,,,,,,,,,,,,,,,,,,,,,,,,,,prac,1,1,1,positive,positive,l,k,0,1.404316000000108,83.71644930000002,84.72201010000026,84.70259110000006,None,83.71644930000002,None,83.71644930000002,None,83.71644930000002,None,86.10977429999912,None,86.10977429999912,None,86.10977429999912,None,,,,,,,,,,,212,23,Female,2022-05-06_15h56.55.880,Main,2022.1.1,60.01237455197935,
neutral,negative,2,k,k,,,,,0,2,2,16,,,,,,,,,,,,,,,,,,,,,,,,,,,,prac,2,2,2,negative,neutral,k,k,1,0.913435099999333,87.1312997999994,88.14364700000078,88.12423909999961,None,87.1312997999994,None,87.1312997999994,None,87.1312997999994,None,89.02518692999965,None,89.02518692999965,None,89.02518692999965,None,,,,,,,,,,,212,23,Female,2022-05-06_15h56.55.880,Main,2022.1.1,60.01237455197935,
positive,positive,2,l,j,,,,,0,3,3,11,,,,,,,,,,,,,,,,,,,,,,,,,,,,prac,2,2,2,positive,positive,l,k,0,-0.684187999999267,89.04693869999937,None,None,None,89.04693869999937,None,89.04693869999937,None,89.04693869999937,None,89.35911510000005,None,89.35911510000005,None,89.35911510000005,None,,,,,,,,,,,212,23,Female,2022-05-06_15h56.55.880,Main,2022.1.1,60.01237455197935,
neutral,negative,1,k,k,,,,,0,4,4,7,,,,,,,,,,,,,,,,,,,,,,,,,,,,prac,2,2,1,negative,neutral,k,k,1,0.7482214000010572,92.38138099999924,93.39903699999923,93.3606204000007,None,92.38138099999924,None,92.38138099999924,None,92.38138099999924,None,94.1085686299999,None,94.1085686299999,None,94.1085686299999,None,,,,,,,,,,,212,23,Female,2022-05-06_15h56.55.880,Main,2022.1.1,60.01237455197935,
neutral,positive,1,k,k,,,,,0,5,5,4,,,,,,,,,,,,,,,,,,,,,,,,,,,,prac,2,2,1,positive,neutral,k,k,1,0.7332428000008804,94.13251669999954,95.15230279999923,95.1136815000009,None,94.13251669999954,None,94.13251669999954,None,94.13251669999954,None,95.84472583000078,None,95.84472583000078,None,95.84472583000078,None,,,,,,,,,,,212,23,Female,2022-05-06_15h56.55.880,Main,2022.1.1,60.01237455197935,
positive,negative,1,l,j,,,,,0,6,6,5,,,,,,,,,,,,,,,,,,,,,,,,,,,,prac,1,1,1,negative,positive,l,l,1,1.186068900000464,95.86969150000004,96.88607009999942,96.84745010000006,None,95.86969150000004,None,95.86969150000004,None,95.86969150000004,None,98.03371492999995,None,98.03371492999995,None,98.03371492999995,None,,,,,,,,,,,212,23,Female,2022-05-06_15h56.55.880,Main,2022.1.1,60.01237455197935,
negative,neutral,2,j,l,,,,,0,7,7,12,,,,,,,,,,,,,,,,,,,,,,,,,,,,prac,2,2,2,neutral,negative,j,j,1,0.9259463999987929,98.05597640000087,99.07250340000064,99.05276120000053,None,98.05597640000087,None,98.05597640000087,None,98.05597640000087,None,99.96150073000044,None,99.96150073000044,None,99.96150073000044,None,,,,,,,,,,,212,23,Female,2022-05-06_15h56.55.880,Main,2022.1.1,60.01237455197935,
positive,neutral,2,l,j,,,,,0,8,8,17,,,,,,,,,,,,,,,,,,,,,,,,,,,,prac,2,2,2,neutral,positive,l,l,1,0.8046403000007558,99.98205609999968,101.00014320000082,100.96181050000087,None,99.98205609999968,None,99.98205609999968,None,99.98205609999968,None,101.7700188299992,None,101.7700188299992,None,101.7700188299992,None,,,,,,,,,,,212,23,Female,2022-05-06_15h56.55.880,Main,2022.1.1,60.01237455197935,
negative,neutral,1,j,l,,,,,0,9,9,3,,,,,,,,,,,,,,,,,,,,,,,,,,,,prac,1,1,1,neutral,negative,j,k,0,0.8382125999996788,101.79202400000031,102.80780210000012,102.7682091000006,None,101.79202400000031,None,101.79202400000031,None,101.79202400000031,None,103.6206555000008,None,103.6206555000008,None,103.6206555000008,None,,,,,,,,,,,212,23,Female,2022-05-06_15h56.55.880,Main,2022.1.1,60.01237455197935,
neutral,neutral,1,k,k,,,,,0,10,10,1,,,,,,,,,,,,,,,,,,,,,,,,,,,,prac,1,1,1,neutral,neutral,k,k,1,0.8228820000003907,104.64603870000064,105.6479404999991,105.62879330000032,None,104.64603870000064,None,104.64603870000064,None,104.64603870000064,None,106.45098922999986,None,106.45098922999986,None,106.45098922999986,None,,,,,,,,,,,212,23,Female,2022-05-06_15h56.55.880,Main,2022.1.1,60.01237455197935,
neutral,positive,2,k,k,,,,,0,11,11,13,,,,,,,,,,,,,,,,,,,,,,,,,,,,prac,1,1,2,positive,neutral,k,k,1,0.7559505999997782,106.47161810000034,107.47889960000066,107.45959790000052,None,106.47161810000034,None,106.47161810000034,None,106.47161810000034,None,108.20707332999936,None,108.20707332999936,None,108.20707332999936,None,,,,,,,,,,,212,23,Female,2022-05-06_15h56.55.880,Main,2022.1.1,60.01237455197935,
negative,negative,2,j,l,,,,,0,12,12,9,,,,,,,,,,,,,,,,,,,,,,,,,,,,prac,2,2,2,negative,negative,j,j,1,1.0185603000008996,108.22910090000005,109.23502130000088,109.21533789999921,None,108.22910090000005,None,108.22910090000005,None,108.22910090000005,None,110.22769082999966,None,110.22769082999966,None,110.22769082999966,None,,,,,,,,,,,212,23,Female,2022-05-06_15h56.55.880,Main,2022.1.1,60.01237455197935,
positive,neutral,1,l,j,,,,,0,13,13,8,,,,,,,,,,,,,,,,,,,,,,,,,,,,prac,2,2,1,neutral,positive,l,l,1,0.7933642000007239,110.24994209999932,111.25668009999936,111.23712429999978,None,110.24994209999932,None,110.24994209999932,None,110.24994209999932,None,112.02301782999947,None,112.02301782999947,None,112.02301782999947,None,,,,,,,,,,,212,23,Female,2022-05-06_15h56.55.880,Main,2022.1.1,60.01237455197935,
neutral,neutral,2,k,k,,,,,0,14,14,10,,,,,,,,,,,,,,,,,,,,,,,,,,,,prac,1,1,2,neutral,neutral,k,k,1,0.7395916000004945,112.04368760000034,113.05884940000033,113.01961839999967,None,112.04368760000034,None,112.04368760000034,None,112.04368760000034,None,113.76691663000074,None,113.76691663000074,None,113.76691663000074,None,,,,,,,,,,,212,23,Female,2022-05-06_15h56.55.880,Main,2022.1.1,60.01237455197935,
negative,positive,2,j,l,,,,,0,15,15,15,,,,,,,,,,,,,,,,,,,,,,,,,,,,prac,2,2,2,positive,negative,j,j,1,1.0005605999995169,113.78768610000043,114.80179979999957,114.76282940000056,None,113.78768610000043,None,113.78768610000043,None,113.78768610000043,None,115.76996693000055,None,115.76996693000055,None,115.76996693000055,None,,,,,,,,,,,212,23,Female,2022-05-06_15h56.55.880,Main,2022.1.1,60.01237455197935,
negative,positive,1,j,l,,,,,0,16,16,6,,,,,,,,,,,,,,,,,,,,,,,,,,,,prac,1,1,1,positive,negative,j,j,1,0.7867064000001847,115.79179219999969,116.7950196999991,116.77588619999915,None,115.79179219999969,None,115.79179219999969,None,115.79179219999969,None,117.55914413000082,None,117.55914413000082,None,117.55914413000082,None,,,,,,,,,,,212,23,Female,2022-05-06_15h56.55.880,Main,2022.1.1,60.01237455197935,
negative,negative,1,j,l,,,,,0,17,17,0,,,,,,,,,,,,,,,,,,,,,,,,,,,,prac,2,2,1,negative,negative,j,j,1,0.6174973999986832,117.5831290999995,118.60449970000082,118.56315829999949,None,117.5831290999995,None,117.5831290999995,None,117.5831290999995,None,119.18031152999956,None,119.18031152999956,None,119.18031152999956,None,,,,,,,,,,,212,23,Female,2022-05-06_15h56.55.880,Main,2022.1.1,60.01237455197935,
neutral,positive,1,k,k,,,,,1,0,18,4,,,,,,,,,,,,,,,,,,,,,,,,,,,,prac,1,1,1,positive,neutral,k,k,1,0.7280353999994986,119.20255329999964,120.22213159999956,120.18255209999916,None,119.20255329999964,None,119.20255329999964,None,119.20255329999964,None,120.90906752999999,None,120.90906752999999,None,120.90906752999999,None,,,,,,,,,,,212,23,Female,2022-05-06_15h56.55.880,Main,2022.1.1,60.01237455197935,
negative,neutral,1,j,l,,,,,1,1,19,3,,,,,,,,,,,,,,,,,,,,,,,,,,,,prac,2,2,1,neutral,negative,j,j,1,0.905634499998996,120.93578739999975,121.93849450000016,121.91962579999927,None,120.93578739999975,None,120.93578739999975,None,120.93578739999975,None,122.82055672999977,None,122.82055672999977,None,122.82055672999977,None,,,,,,,,,,,212,23,Female,2022-05-06_15h56.55.880,Main,2022.1.1,60.01237455197935,
neutral,negative,2,k,k,,,,,1,2,20,16,,,,,,,,,,,,,,,,,,,,,,,,,,,,prac,2,2,2,negative,neutral,k,k,1,0.7265406999995321,122.8408158000002,123.86075399999936,123.82147930000065,None,122.8408158000002,None,122.8408158000002,None,122.8408158000002,None,124.5516931299995,None,124.5516931299995,None,124.5516931299995,None,,,,,,,,,,,212,23,Female,2022-05-06_15h56.55.880,Main,2022.1.1,60.01237455197935,
negative,positive,1,j,l,,,,,1,3,21,6,,,,,,,,,,,,,,,,,,,,,,,,,,,,prac,2,2,1,positive,negative,j,j,1,0.8085959000000003,124.57199550000041,125.57343530000071,125.55474490000051,None,124.57199550000041,None,124.57199550000041,None,124.57199550000041,None,126.36438943000084,None,126.36438943000084,None,126.36438943000084,None,,,,,,,,,,,212,23,Female,2022-05-06_15h56.55.880,Main,2022.1.1,60.01237455197935,
negative,negative,2,j,l,,,,,1,4,22,9,,,,,,,,,,,,,,,,,,,,,,,,,,,,prac,1,1,2,negative,negative,j,j,1,0.8013355000002775,126.38619090000066,127.40575969999918,127.3666419000001,None,126.38619090000066,None,126.38619090000066,None,126.38619090000066,None,128.16815292999908,None,128.16815292999908,None,128.16815292999908,None,,,,,,,,,,,212,23,Female,2022-05-06_15h56.55.880,Main,2022.1.1,60.01237455197935,
positive,positive,1,l,j,,,,,1,5,23,2,,,,,,,,,,,,,,,,,,,,,,,,,,,,prac,1,1,1,positive,positive,l,l,1,0.8753087000004598,128.18802590000087,129.19278330000088,129.17369230000077,None,128.18802590000087,None,128.18802590000087,None,128.18802590000087,None,130.04672233000073,None,130.04672233000073,None,130.04672233000073,None,,,,,,,,,,,212,23,Female,2022-05-06_15h56.55.880,Main,2022.1.1,60.01237455197935,
positive,neutral,2,l,j,,,,,1,6,24,17,,,,,,,,,,,,,,,,,,,,,,,,,,,,prac,2,2,2,neutral,positive,l,l,1,0.7457145000007586,130.0668327000003,131.0829751000001,131.04335469999933,None,130.0668327000003,None,130.0668327000003,None,130.0668327000003,None,131.7944099300008,None,131.7944099300008,None,131.7944099300008,None,,,,,,,,,,,212,23,Female,2022-05-06_15h56.55.880,Main,2022.1.1,60.01237455197935,
positive,neutral,1,l,j,,,,,1,7,25,8,,,,,,,,,,,,,,,,,,,,,,,,,,,,prac,1,1,1,neutral,positive,l,l,1,0.6301363999991736,131.81611820000035,132.81996980000076,132.80073339999944,None,131.81611820000035,None,131.81611820000035,None,131.81611820000035,None,133.42456722999904,None,133.42456722999904,None,133.42456722999904,None,,,,,,,,,,,212,23,Female,2022-05-06_15h56.55.880,Main,2022.1.1,60.01237455197935,
positive,negative,1,l,j,,,,,1,8,26,5,,,,,,,,,,,,,,,,,,,,,,,,,,,,prac,1,1,1,negative,positive,l,l,1,0.6848299999983283,133.4479580999996,134.45957029999954,134.42027889999918,None,133.4479580999996,None,133.4479580999996,None,133.4479580999996,None,135.11369543000055,None,135.11369543000055,None,135.11369543000055,None,,,,,,,,,,,212,23,Female,2022-05-06_15h56.55.880,Main,2022.1.1,60.01237455197935,
negative,neutral,2,j,l,,,,,1,9,27,12,,,,,,,,,,,,,,,,,,,,,,,,,,,,prac,2,2,2,neutral,negative,j,j,1,0.8447886000012659,135.13350580000042,136.15273659999912,136.11242010000024,None,135.13350580000042,None,135.13350580000042,None,135.13350580000042,None,136.96094153000067,None,136.96094153000067,None,136.96094153000067,None,,,,,,,,,,,212,23,Female,2022-05-06_15h56.55.880,Main,2022.1.1,60.01237455197935,
neutral,positive,2,k,k,,,,,1,10,28,13,,,,,,,,,,,,,,,,,,,,,,,,,,,,prac,1,1,2,positive,neutral,k,k,1,0.8052325999997265,136.98251039999923,137.99574969999958,137.95713149999938,None,136.98251039999923,None,136.98251039999923,None,136.98251039999923,None,138.76787532999933,None,138.76787532999933,None,138.76787532999933,None,,,,,,,,,,,212,23,Female,2022-05-06_15h56.55.880,Main,2022.1.1,60.01237455197935,
negative,positive,2,j,l,,,,,1,11,29,15,,,,,,,,,,,,,,,,,,,,,,,,,,,,prac,2,2,2,positive,negative,j,j,1,0.815961199999947,138.7896013999998,139.8101740000002,139.77118920000066,None,138.7896013999998,None,138.7896013999998,None,138.7896013999998,None,140.58572762999992,None,140.58572762999992,None,140.58572762999992,None,,,,,,,,,,,212,23,Female,2022-05-06_15h56.55.880,Main,2022.1.1,60.01237455197935,
neutral,neutral,1,k,k,,,,,1,12,30,1,,,,,,,,,,,,,,,,,,,,,,,,,,,,prac,2,2,1,neutral,neutral,k,k,1,0.6478805999995529,140.6061807999995,141.62328510000043,141.58288370000082,None,140.6061807999995,None,140.6061807999995,None,140.6061807999995,None,142.23547473000016,None,142.23547473000016,None,142.23547473000016,None,,,,,,,,,,,212,23,Female,2022-05-06_15h56.55.880,Main,2022.1.1,60.01237455197935,
negative,negative,1,j,l,,,,,1,13,31,0,,,,,,,,,,,,,,,,,,,,,,,,,,,,prac,2,2,1,negative,negative,j,j,1,0.7521725999995397,142.25822180000068,143.27957799999967,143.2395792999996,None,142.25822180000068,None,142.25822180000068,None,142.25822180000068,None,143.99266722999946,None,143.99266722999946,None,143.99266722999946,None,,,,,,,,,,,212,23,Female,2022-05-06_15h56.55.880,Main,2022.1.1,60.01237455197935,
neutral,neutral,2,k,k,,,,,1,14,32,10,,,,,,,,,,,,,,,,,,,,,,,,,,,,prac,2,2,2,neutral,neutral,k,k,1,0.7325504000000365,144.0129319000007,145.01876679999987,144.99878639999952,None,144.0129319000007,None,144.0129319000007,None,144.0129319000007,None,145.72510763000045,None,145.72510763000045,None,145.72510763000045,None,,,,,,,,,,,212,23,Female,2022-05-06_15h56.55.880,Main,2022.1.1,60.01237455197935,
positive,positive,2,l,j,,,,,1,15,33,11,,,,,,,,,,,,,,,,,,,,,,,,,,,,prac,1,1,2,positive,positive,l,l,1,0.7078607000003103,145.74612370000068,146.7678364000003,146.72622779999983,None,145.74612370000068,None,145.74612370000068,None,145.74612370000068,None,147.43532273000037,None,147.43532273000037,None,147.43532273000037,None,,,,,,,,,,,212,23,Female,2022-05-06_15h56.55.880,Main,2022.1.1,60.01237455197935,
neutral,negative,1,k,k,,,,,1,16,34,7,,,,,,,,,,,,,,,,,,,,,,,,,,,,prac,1,1,1,negative,neutral,k,k,1,0.7066059000007954,147.4555648000005,148.4725455000007,148.4320387000007,None,147.4555648000005,None,147.4555648000005,None,147.4555648000005,None,149.14588672999943,None,149.14588672999943,None,149.14588672999943,None,,,,,,,,,,,212,23,Female,2022-05-06_15h56.55.880,Main,2022.1.1,60.01237455197935,
positive,negative,2,l,j,,,,,1,17,35,14,,,,,,,,,,,,,,,,,,,,,,,,,,,,prac,2,2,2,negative,positive,l,l,1,0.7342802000002848,149.16861280000012,150.1725179999994,150.1535815999996,None,149.16861280000012,None,149.16861280000012,None,149.16861280000012,None,150.88256923000026,None,150.88256923000026,None,150.88256923000026,None,,,,,,,,,,,212,23,Female,2022-05-06_15h56.55.880,Main,2022.1.1,60.01237455197935,
,,,,,,,,,,,,,,,,,,,,,,,,,,,,,,,,,,,,,,,,,,,,,,,,,,,,,,,,,,,,,,,,,,150.88881319999928,None,None,,,,,,,,212,23,Female,2022-05-06_15h56.55.880,Main,2022.1.1,60.01237455197935,
,,,,,,,,,,,,,,,,,,,,,,,,,,,,,,,,,,,,,,,,,,,,,,,,,,,,,,,,,,,,,,,,,,,,,0.44166666,-0.108333334,1,0,0,0.004638129998056684,None,212,23,Female,2022-05-06_15h56.55.880,Main,2022.1.1,60.01237455197935,
neutral,positive,2,k,k,,,,,,,,,0,0,0,13,,,,,,,,,,,,,,,,,,,,,,153.16213880000032,None,main,1,1,2,positive,neutral,k,k,1,0.6792100000002392,155.18101360000037,156.19206049999957,156.1712846999999,None,155.18101360000037,None,155.18101360000037,None,155.18101360000037,None,156.8421438299998,None,156.8421438299998,None,156.8421438299998,None,,,,,,,,,,,212,23,Female,2022-05-06_15h56.55.880,Main,2022.1.1,60.01237455197935,
positive,neutral,2,l,j,,,,,,,,,0,1,1,17,,,,,,,,,,,,,,,,,,,,,,,,main,1,1,2,neutral,positive,l,l,1,0.5630592000015895,156.86376399999972,157.87873039999977,157.83970659999977,None,156.86376399999972,None,156.86376399999972,None,156.86376399999972,None,158.40795732999922,None,158.40795732999922,None,158.40795732999922,None,,,,,,,,,,,212,23,Female,2022-05-06_15h56.55.880,Main,2022.1.1,60.01237455197935,
positive,positive,2,l,j,,,,,,,,,0,2,2,11,,,,,,,,,,,,,,,,,,,,,,,,main,1,1,2,positive,positive,l,l,1,0.5813963000000513,158.4295517999999,159.44054719999986,159.4206450999991,None,158.4295517999999,None,158.4295517999999,None,158.4295517999999,None,159.99187942999978,None,159.99187942999978,None,159.99187942999978,None,,,,,,,,,,,212,23,Female,2022-05-06_15h56.55.880,Main,2022.1.1,60.01237455197935,
positive,negative,1,l,j,,,,,,,,,0,3,3,5,,,,,,,,,,,,,,,,,,,,,,,,main,1,1,1,negative,positive,l,l,1,0.7296924000002036,160.01188720000027,161.0136311999995,160.99432290000004,None,160.01188720000027,None,160.01188720000027,None,160.01188720000027,None,161.72525492999975,None,161.72525492999975,None,161.72525492999975,None,,,,,,,,,,,212,23,Female,2022-05-06_15h56.55.880,Main,2022.1.1,60.01237455197935,
negative,neutral,2,j,l,,,,,,,,,0,4,4,12,,,,,,,,,,,,,,,,,,,,,,,,main,2,2,2,neutral,negative,j,j,1,0.7809433999991597,161.74533580000025,162.75750960000005,162.73572539999986,None,161.74533580000025,None,161.74533580000025,None,161.74533580000025,None,163.50609572999983,None,163.50609572999983,None,163.50609572999983,None,,,,,,,,,,,212,23,Female,2022-05-06_15h56.55.880,Main,2022.1.1,60.01237455197935,
positive,positive,1,l,j,,,,,,,,,0,5,5,2,,,,,,,,,,,,,,,,,,,,,,,,main,1,1,1,positive,positive,l,l,1,0.9960702999997011,163.52718819999973,164.5418253000007,164.5034058000001,None,163.52718819999973,None,163.52718819999973,None,163.52718819999973,None,165.50668153000024,None,165.50668153000024,None,165.50668153000024,None,,,,,,,,,,,212,23,Female,2022-05-06_15h56.55.880,Main,2022.1.1,60.01237455197935,
neutral,negative,2,k,k,,,,,,,,,0,6,6,16,,,,,,,,,,,,,,,,,,,,,,,,main,1,1,2,negative,neutral,k,k,1,0.6937250000009954,165.52716449999934,166.53437719999965,166.51533179999933,None,165.52716449999934,None,165.52716449999934,None,165.52716449999934,None,167.20121952999997,None,167.20121952999997,None,167.20121952999997,None,,,,,,,,,,,212,23,Female,2022-05-06_15h56.55.880,Main,2022.1.1,60.01237455197935,
neutral,neutral,1,k,k,,,,,,,,,0,7,7,1,,,,,,,,,,,,,,,,,,,,,,,,main,1,1,1,neutral,neutral,k,k,1,0.6451580000011745,167.22177700000066,168.24064329999965,168.20066190000034,None,167.22177700000066,None,167.22177700000066,None,167.22177700000066,None,168.84946383000042,None,168.84946383000042,None,168.84946383000042,None,,,,,,,,,,,212,23,Female,2022-05-06_15h56.55.880,Main,2022.1.1,60.01237455197935,
positive,neutral,1,l,j,,,,,,,,,0,8,8,8,,,,,,,,,,,,,,,,,,,,,,,,main,2,2,1,neutral,positive,l,l,1,0.6156204999988404,168.86960159999944,169.8935877999993,169.84632769999916,None,168.86960159999944,None,168.86960159999944,None,168.86960159999944,None,170.46719102999904,None,170.46719102999904,None,170.46719102999904,None,,,,,,,,,,,212,23,Female,2022-05-06_15h56.55.880,Main,2022.1.1,60.01237455197935,
neutral,negative,1,k,k,,,,,,,,,0,9,9,7,,,,,,,,,,,,,,,,,,,,,,,,main,2,2,1,negative,neutral,k,k,1,0.7781149000002188,170.48941039999954,171.49901789999967,171.47912609999912,None,170.48941039999954,None,170.48941039999954,None,170.48941039999954,None,172.24761762999933,None,172.24761762999933,None,172.24761762999933,None,,,,,,,,,,,212,23,Female,2022-05-06_15h56.55.880,Main,2022.1.1,60.01237455197935,
negative,negative,1,j,l,,,,,,,,,0,10,10,0,,,,,,,,,,,,,,,,,,,,,,,,main,1,1,1,negative,negative,j,j,1,0.9321206999993592,172.27149090000057,173.28927809999914,173.25249880000047,None,172.27149090000057,None,172.27149090000057,None,172.27149090000057,None,174.1832729299991,None,174.1832729299991,None,174.1832729299991,None,,,,,,,,,,,212,23,Female,2022-05-06_15h56.55.880,Main,2022.1.1,60.01237455197935,
negative,neutral,1,j,l,,,,,,,,,0,11,11,3,,,,,,,,,,,,,,,,,,,,,,,,main,2,2,1,neutral,negative,j,j,1,0.7811781000000337,174.20871780000016,175.2254654999997,175.18676790000063,None,174.20871780000016,None,174.20871780000016,None,174.20871780000016,None,175.96733892999927,None,175.96733892999927,None,175.96733892999927,None,,,,,,,,,,,212,23,Female,2022-05-06_15h56.55.880,Main,2022.1.1,60.01237455197935,
negative,negative,2,j,l,,,,,,,,,0,12,12,9,,,,,,,,,,,,,,,,,,,,,,,,main,2,2,2,negative,negative,j,j,1,0.680516099999295,175.98787869999978,177.00324659999933,176.9651603000002,None,175.98787869999978,None,175.98787869999978,None,175.98787869999978,None,177.65033722999996,None,177.65033722999996,None,177.65033722999996,None,,,,,,,,,,,212,23,Female,2022-05-06_15h56.55.880,Main,2022.1.1,60.01237455197935,
positive,negative,2,l,j,,,,,,,,,0,13,13,14,,,,,,,,,,,,,,,,,,,,,,,,main,1,1,2,negative,positive,l,l,1,0.7197699999996985,177.67082560000017,178.6879417,178.64907520000088,None,177.67082560000017,None,177.67082560000017,None,177.67082560000017,None,179.3749138299996,None,179.3749138299996,None,179.3749138299996,None,,,,,,,,,,,212,23,Female,2022-05-06_15h56.55.880,Main,2022.1.1,60.01237455197935,
negative,positive,1,j,l,,,,,,,,,0,14,14,6,,,,,,,,,,,,,,,,,,,,,,,,main,1,1,1,positive,negative,j,j,1,0.8258759000000282,179.39808719999928,180.41380030000073,180.3730489999998,None,179.39808719999928,None,179.39808719999928,None,179.39808719999928,None,181.2004143300006,None,181.2004143300006,None,181.2004143300006,None,,,,,,,,,,,212,23,Female,2022-05-06_15h56.55.880,Main,2022.1.1,60.01237455197935,
neutral,neutral,2,k,k,,,,,,,,,0,15,15,10,,,,,,,,,,,,,,,,,,,,,,,,main,2,2,2,neutral,neutral,k,k,1,0.6790822999992088,181.2216513000003,182.22920030000023,182.20887389999916,None,181.2216513000003,None,181.2216513000003,None,181.2216513000003,None,182.88265953000027,None,182.88265953000027,None,182.88265953000027,None,,,,,,,,,,,212,23,Female,2022-05-06_15h56.55.880,Main,2022.1.1,60.01237455197935,
negative,positive,2,j,l,,,,,,,,,0,16,16,15,,,,,,,,,,,,,,,,,,,,,,,,main,2,2,2,positive,negative,j,j,1,0.7854664000005869,182.90493400000014,183.92091210000035,183.8819908000005,None,182.90493400000014,None,182.90493400000014,None,182.90493400000014,None,184.67372952999958,None,184.67372952999958,None,184.67372952999958,None,,,,,,,,,,,212,23,Female,2022-05-06_15h56.55.880,Main,2022.1.1,60.01237455197935,
neutral,positive,1,k,k,,,,,,,,,0,17,17,4,,,,,,,,,,,,,,,,,,,,,,,,main,2,2,1,positive,neutral,k,k,1,0.7157621999995172,184.69450309999957,185.69852600000013,185.6792932999997,None,184.69450309999957,None,184.69450309999957,None,184.69450309999957,None,186.39206212999906,None,186.39206212999906,None,186.39206212999906,None,,,,,,,,,,,212,23,Female,2022-05-06_15h56.55.880,Main,2022.1.1,60.01237455197935,
positive,positive,2,l,j,,,,,,,,,1,0,18,11,,,,,,,,,,,,,,,,,,,,,,,,main,1,1,2,positive,positive,l,l,1,0.6730764999992971,186.41304479999962,187.43235730000015,187.39273660000072,None,186.41304479999962,None,186.41304479999962,None,186.41304479999962,None,188.06390082999914,None,188.06390082999914,None,188.06390082999914,None,,,,,,,,,,,212,23,Female,2022-05-06_15h56.55.880,Main,2022.1.1,60.01237455197935,
positive,negative,1,l,j,,,,,,,,,1,1,19,5,,,,,,,,,,,,,,,,,,,,,,,,main,1,1,1,negative,positive,l,l,1,0.5838840999986132,188.08706940000047,189.0980178000009,189.07887819999996,None,188.08706940000047,None,188.08706940000047,None,188.08706940000047,None,189.65388052999933,None,189.65388052999933,None,189.65388052999933,None,,,,,,,,,,,212,23,Female,2022-05-06_15h56.55.880,Main,2022.1.1,60.01237455197935,
neutral,positive,2,k,k,,,,,,,,,1,2,20,13,,,,,,,,,,,,,,,,,,,,,,,,main,1,1,2,positive,neutral,k,k,1,0.6535523000002286,189.67428649999965,190.68223840000064,190.6633600999994,None,189.67428649999965,None,189.67428649999965,None,189.67428649999965,None,191.30998043000054,None,191.30998043000054,None,191.30998043000054,None,,,,,,,,,,,212,23,Female,2022-05-06_15h56.55.880,Main,2022.1.1,60.01237455197935,
negative,neutral,1,j,l,,,,,,,,,1,3,21,3,,,,,,,,,,,,,,,,,,,,,,,,main,2,2,1,neutral,negative,j,j,1,0.6787972000001901,191.33011120000083,192.34529160000056,192.3036620999992,None,191.33011120000083,None,191.33011120000083,None,191.33011120000083,None,192.9935581300002,None,192.9935581300002,None,192.9935581300002,None,,,,,,,,,,,212,23,Female,2022-05-06_15h56.55.880,Main,2022.1.1,60.01237455197935,
negative,positive,2,j,l,,,,,,,,,1,4,22,15,,,,,,,,,,,,,,,,,,,,,,,,main,1,1,2,positive,negative,j,j,1,0.6203593999998702,193.0139691000004,194.02438380000058,194.0046695000001,None,193.0139691000004,None,193.0139691000004,None,193.0139691000004,None,194.61630023000052,None,194.61630023000052,None,194.61630023000052,None,,,,,,,,,,,212,23,Female,2022-05-06_15h56.55.880,Main,2022.1.1,60.01237455197935,
positive,negative,2,l,j,,,,,,,,,1,5,23,14,,,,,,,,,,,,,,,,,,,,,,,,main,2,2,2,negative,positive,l,j,0,0.6146771000003355,194.63935649999985,195.6453830999999,195.6266558999996,None,194.63935649999985,None,194.63935649999985,None,194.63935649999985,None,196.24223820000043,None,196.24223820000043,None,196.24223820000043,None,,,,,,,,,,,212,23,Female,2022-05-06_15h56.55.880,Main,2022.1.1,60.01237455197935,
negative,neutral,2,j,l,,,,,,,,,1,6,24,12,,,,,,,,,,,,,,,,,,,,,,,,main,1,1,2,neutral,negative,j,j,1,0.7519099000001006,197.26766789999965,198.2720260999995,198.25231650000023,None,197.26766789999965,None,197.26766789999965,None,197.26766789999965,None,198.9990207300003,None,198.9990207300003,None,198.9990207300003,None,,,,,,,,,,,212,23,Female,2022-05-06_15h56.55.880,Main,2022.1.1,60.01237455197935,
neutral,neutral,2,k,k,,,,,,,,,1,7,25,10,,,,,,,,,,,,,,,,,,,,,,,,main,1,1,2,neutral,neutral,k,k,1,0.6679662999995344,199.0230135999991,200.02859949999947,200.0085276000009,None,199.0230135999991,None,199.0230135999991,None,199.0230135999991,None,200.67275632999971,None,200.67275632999971,None,200.67275632999971,None,,,,,,,,,,,212,23,Female,2022-05-06_15h56.55.880,Main,2022.1.1,60.01237455197935,
neutral,negative,1,k,k,,,,,,,,,1,8,26,7,,,,,,,,,,,,,,,,,,,,,,,,main,1,1,1,negative,neutral,k,k,1,1.1716923999993014,200.6919837000005,201.70231339999918,201.6825590999997,None,200.6919837000005,None,200.6919837000005,None,200.6919837000005,None,202.84413573000037,None,202.84413573000037,None,202.84413573000037,None,,,,,,,,,,,212,23,Female,2022-05-06_15h56.55.880,Main,2022.1.1,60.01237455197935,
positive,neutral,2,l,j,,,,,,,,,1,9,27,17,,,,,,,,,,,,,,,,,,,,,,,,main,1,1,2,neutral,positive,l,l,1,0.7050532000012026,202.86554819999947,203.86942180000005,203.85009999999966,None,202.86554819999947,None,202.86554819999947,None,202.86554819999947,None,204.55430813000075,None,204.55430813000075,None,204.55430813000075,None,,,,,,,,,,,212,23,Female,2022-05-06_15h56.55.880,Main,2022.1.1,60.01237455197935,
neutral,negative,2,k,k,,,,,,,,,1,10,28,16,,,,,,,,,,,,,,,,,,,,,,,,main,2,2,2,negative,neutral,k,k,1,0.782766399999673,204.57466170000043,205.59440969999923,205.55428290000054,None,204.57466170000043,None,204.57466170000043,None,204.57466170000043,None,206.33974573000032,None,206.33974573000032,None,206.33974573000032,None,,,,,,,,,,,212,23,Female,2022-05-06_15h56.55.880,Main,2022.1.1,60.01237455197935,
neutral,neutral,1,k,k,,,,,,,,,1,11,29,1,,,,,,,,,,,,,,,,,,,,,,,,main,1,1,1,neutral,neutral,k,k,1,0.7071442999986175,206.36276689999977,207.38460510000004,207.3438487000003,None,206.36276689999977,None,206.36276689999977,None,206.36276689999977,None,208.04729613000072,None,208.04729613000072,None,208.04729613000072,None,,,,,,,,,,,212,23,Female,2022-05-06_15h56.55.880,Main,2022.1.1,60.01237455197935,
neutral,positive,1,k,k,,,,,,,,,1,12,30,4,,,,,,,,,,,,,,,,,,,,,,,,main,1,1,1,positive,neutral,k,k,1,0.601746300000741,208.06780470000012,209.0798931999998,209.04105010000058,None,208.06780470000012,None,208.06780470000012,None,208.06780470000012,None,209.65354433000047,None,209.65354433000047,None,209.65354433000047,None,,,,,,,,,,,212,23,Female,2022-05-06_15h56.55.880,Main,2022.1.1,60.01237455197935,
positive,positive,1,l,j,,,,,,,,,1,13,31,2,,,,,,,,,,,,,,,,,,,,,,,,main,1,1,1,positive,positive,l,l,1,0.6435658000009425,209.67360879999978,210.6879009000004,210.64855329999955,None,209.67360879999978,None,209.67360879999978,None,209.67360879999978,None,211.29564923000052,None,211.29564923000052,None,211.29564923000052,None,,,,,,,,,,,212,23,Female,2022-05-06_15h56.55.880,Main,2022.1.1,60.01237455197935,
negative,positive,1,j,l,,,,,,,,,1,14,32,6,,,,,,,,,,,,,,,,,,,,,,,,main,2,2,1,positive,negative,j,j,1,0.7548541000014666,211.32254359999934,212.32646829999976,212.3050514000006,None,211.32254359999934,None,211.32254359999934,None,211.32254359999934,None,213.0567736300005,None,213.0567736300005,None,213.0567736300005,None,,,,,,,,,,,212,23,Female,2022-05-06_15h56.55.880,Main,2022.1.1,60.01237455197935,
positive,neutral,1,l,j,,,,,,,,,1,15,33,8,,,,,,,,,,,,,,,,,,,,,,,,main,2,2,1,neutral,positive,l,l,1,0.8690542000003916,213.0776139999998,214.0837993999994,214.06465329999992,None,213.0776139999998,None,213.0776139999998,None,213.0776139999998,None,214.92845523000014,None,214.92845523000014,None,214.92845523000014,None,,,,,,,,,,,212,23,Female,2022-05-06_15h56.55.880,Main,2022.1.1,60.01237455197935,
negative,negative,2,j,l,,,,,,,,,1,16,34,9,,,,,,,,,,,,,,,,,,,,,,,,main,1,1,2,negative,negative,j,j,1,0.6670764000009513,214.94988740000008,215.95425670000077,215.9349244999994,None,214.94988740000008,None,214.94988740000008,None,214.94988740000008,None,216.60133523000022,None,216.60133523000022,None,216.60133523000022,None,,,,,,,,,,,212,23,Female,2022-05-06_15h56.55.880,Main,2022.1.1,60.01237455197935,
negative,negative,1,j,l,,,,,,,,,1,17,35,0,,,,,,,,,,,,,,,,,,,,,,,,main,1,1,1,negative,negative,j,j,1,0.6997615000000224,216.6248340000002,217.63432699999976,217.5959425000001,None,216.6248340000002,None,216.6248340000002,None,216.6248340000002,None,218.30366213000033,None,218.30366213000033,None,218.30366213000033,None,,,,,,,,,,,212,23,Female,2022-05-06_15h56.55.880,Main,2022.1.1,60.01237455197935,
neutral,positive,1,k,k,,,,,,,,,2,0,36,4,,,,,,,,,,,,,,,,,,,,,,,,main,1,1,1,positive,neutral,k,k,1,0.6789920999999595,218.32355540000026,219.33891679999942,219.29992449999918,None,218.32355540000026,None,218.32355540000026,None,218.32355540000026,None,219.98511503000063,None,219.98511503000063,None,219.98511503000063,None,,,,,,,,,,,212,23,Female,2022-05-06_15h56.55.880,Main,2022.1.1,60.01237455197935,
positive,positive,1,l,j,,,,,,,,,2,1,37,2,,,,,,,,,,,,,,,,,,,,,,,,main,2,2,1,positive,positive,l,l,1,0.6661027000009199,220.00542049999967,221.02270979999957,220.98292369999945,None,220.00542049999967,None,220.00542049999967,None,220.00542049999967,None,221.6534034300008,None,221.6534034300008,None,221.6534034300008,None,,,,,,,,,,,212,23,Female,2022-05-06_15h56.55.880,Main,2022.1.1,60.01237455197935,
positive,negative,1,l,j,,,,,,,,,2,2,38,5,,,,,,,,,,,,,,,,,,,,,,,,main,2,2,1,negative,positive,l,l,1,0.6295019999997749,221.67475600000034,222.6888712,222.64867100000083,None,221.67475600000034,None,221.67475600000034,None,221.67475600000034,None,223.28495433000043,None,223.28495433000043,None,223.28495433000043,None,,,,,,,,,,,212,23,Female,2022-05-06_15h56.55.880,Main,2022.1.1,60.01237455197935,
neutral,negative,1,k,k,,,,,,,,,2,3,39,7,,,,,,,,,,,,,,,,,,,,,,,,main,2,2,1,negative,neutral,k,k,1,0.62804049999977,223.30916380000053,224.31922119999945,224.2799109000007,None,223.30916380000053,None,223.30916380000053,None,223.30916380000053,None,224.91555933000072,None,224.91555933000072,None,224.91555933000072,None,,,,,,,,,,,212,23,Female,2022-05-06_15h56.55.880,Main,2022.1.1,60.01237455197935,
positive,positive,2,l,j,,,,,,,,,2,4,40,11,,,,,,,,,,,,,,,,,,,,,,,,main,2,2,2,positive,positive,l,l,1,0.7083032999998977,224.93643750000047,225.95011300000078,225.91140740000083,None,224.93643750000047,None,224.93643750000047,None,224.93643750000047,None,226.62434423000067,None,226.62434423000067,None,226.62434423000067,None,,,,,,,,,,,212,23,Female,2022-05-06_15h56.55.880,Main,2022.1.1,60.01237455197935,
neutral,negative,2,k,k,,,,,,,,,2,5,41,16,,,,,,,,,,,,,,,,,,,,,,,,main,2,2,2,negative,neutral,k,k,1,0.6638934999991761,226.64546189999965,227.6623082999995,227.6244327000004,None,226.64546189999965,None,226.64546189999965,None,226.64546189999965,None,228.29122463000076,None,228.29122463000076,None,228.29122463000076,None,,,,,,,,,,,212,23,Female,2022-05-06_15h56.55.880,Main,2022.1.1,60.01237455197935,
positive,neutral,1,l,j,,,,,,,,,2,6,42,8,,,,,,,,,,,,,,,,,,,,,,,,main,2,2,1,neutral,positive,l,l,1,0.6027001999991626,228.3125818999997,229.32440510000015,229.2853828999996,None,228.3125818999997,None,228.3125818999997,None,228.3125818999997,None,229.8947926299994,None,229.8947926299994,None,229.8947926299994,None,,,,,,,,,,,212,23,Female,2022-05-06_15h56.55.880,Main,2022.1.1,60.01237455197935,
negative,negative,2,j,l,,,,,,,,,2,7,43,9,,,,,,,,,,,,,,,,,,,,,,,,main,1,1,2,negative,negative,j,j,1,0.7816143000000011,229.91573470000003,230.93284379999932,230.89528299999984,None,229.91573470000003,None,229.91573470000003,None,229.91573470000003,None,231.67998603000032,None,231.67998603000032,None,231.67998603000032,None,,,,,,,,,,,212,23,Female,2022-05-06_15h56.55.880,Main,2022.1.1,60.01237455197935,
negative,negative,1,j,l,,,,,,,,,2,8,44,0,,,,,,,,,,,,,,,,,,,,,,,,main,1,1,1,negative,negative,j,j,1,0.9799060000004829,231.7004006999996,232.71908129999974,232.67992439999944,None,231.7004006999996,None,231.7004006999996,None,231.7004006999996,None,233.6641916300001,None,233.6641916300001,None,233.6641916300001,None,,,,,,,,,,,212,23,Female,2022-05-06_15h56.55.880,Main,2022.1.1,60.01237455197935,
neutral,neutral,2,k,k,,,,,,,,,2,9,45,10,,,,,,,,,,,,,,,,,,,,,,,,main,2,2,2,neutral,neutral,k,k,1,0.5546692999996594,233.68473860000086,234.68835279999985,234.66785549999986,None,233.68473860000086,None,233.68473860000086,None,233.68473860000086,None,235.22069753000014,None,235.22069753000014,None,235.22069753000014,None,,,,,,,,,,,212,23,Female,2022-05-06_15h56.55.880,Main,2022.1.1,60.01237455197935,
neutral,positive,2,k,k,,,,,,,,,2,10,46,13,,,,,,,,,,,,,,,,,,,,,,,,main,2,2,2,positive,neutral,k,k,1,0.5729233000001841,235.24238289999994,236.2444878999995,236.22483420000026,None,235.24238289999994,None,235.24238289999994,None,235.24238289999994,None,236.7970359300003,None,236.7970359300003,None,236.7970359300003,None,,,,,,,,,,,212,23,Female,2022-05-06_15h56.55.880,Main,2022.1.1,60.01237455197935,
negative,positive,2,j,l,,,,,,,,,2,11,47,15,,,,,,,,,,,,,,,,,,,,,,,,main,2,2,2,positive,negative,j,j,1,0.6951998000004096,236.81789150000077,237.82452849999936,237.80499450000025,None,236.81789150000077,None,236.81789150000077,None,236.81789150000077,None,238.49404313000068,None,238.49404313000068,None,238.49404313000068,None,,,,,,,,,,,212,23,Female,2022-05-06_15h56.55.880,Main,2022.1.1,60.01237455197935,
positive,neutral,2,l,j,,,,,,,,,2,12,48,17,,,,,,,,,,,,,,,,,,,,,,,,main,2,2,2,neutral,positive,l,l,1,0.6275380999995832,238.51532919999954,239.53065179999976,239.49140049999914,None,238.51532919999954,None,238.51532919999954,None,238.51532919999954,None,240.12437783000004,None,240.12437783000004,None,240.12437783000004,None,,,,,,,,,,,212,23,Female,2022-05-06_15h56.55.880,Main,2022.1.1,60.01237455197935,
positive,negative,2,l,j,,,,,,,,,2,13,49,14,,,,,,,,,,,,,,,,,,,,,,,,main,1,1,2,negative,positive,l,l,1,0.5568829999992886,240.15055980000034,241.17275379999955,241.13287409999975,None,240.15055980000034,None,240.15055980000034,None,240.15055980000034,None,241.68612882999932,None,241.68612882999932,None,241.68612882999932,None,,,,,,,,,,,212,23,Female,2022-05-06_15h56.55.880,Main,2022.1.1,60.01237455197935,
negative,positive,1,j,l,,,,,,,,,2,14,50,6,,,,,,,,,,,,,,,,,,,,,,,,main,1,1,1,positive,negative,j,j,1,0.7890924000002997,241.7070253999991,242.7269866000006,242.68694529999993,None,241.7070253999991,None,241.7070253999991,None,241.7070253999991,None,243.4770821299995,None,243.4770821299995,None,243.4770821299995,None,,,,,,,,,,,212,23,Female,2022-05-06_15h56.55.880,Main,2022.1.1,60.01237455197935,
negative,neutral,1,j,l,,,,,,,,,2,15,51,3,,,,,,,,,,,,,,,,,,,,,,,,main,2,2,1,neutral,negative,j,j,1,0.627571999999418,243.4982631999992,244.51642960000027,244.47730459999912,None,243.4982631999992,None,243.4982631999992,None,243.4982631999992,None,245.1078443299999,None,245.1078443299999,None,245.1078443299999,None,,,,,,,,,,,212,23,Female,2022-05-06_15h56.55.880,Main,2022.1.1,60.01237455197935,
neutral,neutral,1,k,k,,,,,,,,,2,16,52,1,,,,,,,,,,,,,,,,,,,,,,,,main,2,2,1,neutral,neutral,k,k,1,0.5643190999999206,245.1286770000006,246.14137929999924,246.10235400000056,None,245.1286770000006,None,245.1286770000006,None,245.1286770000006,None,246.67451352999942,None,246.67451352999942,None,246.67451352999942,None,,,,,,,,,,,212,23,Female,2022-05-06_15h56.55.880,Main,2022.1.1,60.01237455197935,
negative,neutral,2,j,l,,,,,,,,,2,17,53,12,,,,,,,,,,,,,,,,,,,,,,,,main,2,2,2,neutral,negative,j,j,1,0.6189794000001712,246.69579949999934,247.71319579999908,247.6748520000001,None,246.69579949999934,None,246.69579949999934,None,246.69579949999934,None,248.2982989300004,None,248.2982989300004,None,248.2982989300004,None,,,,,,,,,,,212,23,Female,2022-05-06_15h56.55.880,Main,2022.1.1,60.01237455197935,
neutral,neutral,1,k,k,,,,,,,,,3,0,54,1,,,,,,,,,,,,,,,,,,,,,,,,main,1,1,1,neutral,neutral,k,k,1,0.8126007000009849,248.3185900999997,249.3293346999999,249.30989840000075,None,248.3185900999997,None,248.3185900999997,None,248.3185900999997,None,250.11186483000037,None,250.11186483000037,None,250.11186483000037,None,,,,,,,,,,,212,23,Female,2022-05-06_15h56.55.880,Main,2022.1.1,60.01237455197935,
neutral,negative,1,k,k,,,,,,,,,3,1,55,7,,,,,,,,,,,,,,,,,,,,,,,,main,2,2,1,negative,neutral,k,k,1,0.5837069000008341,250.13257039999917,251.14254690000053,251.1237947999998,None,250.13257039999917,None,250.13257039999917,None,250.13257039999917,None,251.6995964299991,None,251.6995964299991,None,251.6995964299991,None,,,,,,,,,,,212,23,Female,2022-05-06_15h56.55.880,Main,2022.1.1,60.01237455197935,
negative,negative,1,j,l,,,,,,,,,3,2,56,0,,,,,,,,,,,,,,,,,,,,,,,,main,1,1,1,negative,negative,j,j,1,0.6716725999995106,251.7199657000001,252.7392920000002,252.6992257999991,None,251.7199657000001,None,251.7199657000001,None,251.7199657000001,None,253.37212482999948,None,253.37212482999948,None,253.37212482999948,None,,,,,,,,,,,212,23,Female,2022-05-06_15h56.55.880,Main,2022.1.1,60.01237455197935,
negative,neutral,1,j,l,,,,,,,,,3,3,57,3,,,,,,,,,,,,,,,,,,,,,,,,main,2,2,1,neutral,negative,j,j,1,0.6164833000002545,253.39297889999943,254.40134260000013,254.38188339999942,None,253.39297889999943,None,253.39297889999943,None,253.39297889999943,None,254.99129322999997,None,254.99129322999997,None,254.99129322999997,None,,,,,,,,,,,212,23,Female,2022-05-06_15h56.55.880,Main,2022.1.1,60.01237455197935,
neutral,neutral,2,k,k,,,,,,,,,3,4,58,10,,,,,,,,,,,,,,,,,,,,,,,,main,1,1,2,neutral,neutral,k,k,1,0.676728100001128,255.01321719999942,256.0241753999999,255.98604010000054,None,255.01321719999942,None,255.01321719999942,None,255.01321719999942,None,256.6704457300008,None,256.6704457300008,None,256.6704457300008,None,,,,,,,,,,,212,23,Female,2022-05-06_15h56.55.880,Main,2022.1.1,60.01237455197935,
positive,positive,1,l,j,,,,,,,,,3,5,59,2,,,,,,,,,,,,,,,,,,,,,,,,main,2,2,1,positive,positive,l,l,1,0.7973440999994637,256.6910222000006,257.6986524999993,257.67843060000087,None,256.6910222000006,None,256.6910222000006,None,256.6910222000006,None,258.4664084300008,None,258.4664084300008,None,258.4664084300008,None,,,,,,,,,,,212,23,Female,2022-05-06_15h56.55.880,Main,2022.1.1,60.01237455197935,
negative,negative,2,j,l,,,,,,,,,3,6,60,9,,,,,,,,,,,,,,,,,,,,,,,,main,1,1,2,negative,negative,j,j,1,0.7536271999997552,258.49019919999955,259.50112140000056,259.48193360000005,None,258.49019919999955,None,258.49019919999955,None,258.49019919999955,None,260.2278461299999,None,260.2278461299999,None,260.2278461299999,None,,,,,,,,,,,212,23,Female,2022-05-06_15h56.55.880,Main,2022.1.1,60.01237455197935,
positive,neutral,2,l,j,,,,,,,,,3,7,61,17,,,,,,,,,,,,,,,,,,,,,,,,main,1,1,2,neutral,positive,l,l,1,0.7937197999999626,260.25113899999997,261.25611580000077,261.23695640000005,None,260.25113899999997,None,260.25113899999997,None,260.25113899999997,None,262.02182183000025,None,262.02182183000025,None,262.02182183000025,None,,,,,,,,,,,212,23,Female,2022-05-06_15h56.55.880,Main,2022.1.1,60.01237455197935,
negative,positive,1,j,l,,,,,,,,,3,8,62,6,,,,,,,,,,,,,,,,,,,,,,,,main,2,2,1,positive,negative,j,j,1,1.115421000000424,262.0432115000003,263.05440199999975,263.0346616000006,None,262.0432115000003,None,262.0432115000003,None,262.0432115000003,None,264.1399705299997,None,264.1399705299997,None,264.1399705299997,None,,,,,,,,,,,212,23,Female,2022-05-06_15h56.55.880,Main,2022.1.1,60.01237455197935,
neutral,negative,2,k,k,,,,,,,,,3,9,63,16,,,,,,,,,,,,,,,,,,,,,,,,main,2,2,2,negative,neutral,k,k,1,0.6878465999998298,264.16491700000006,265.1847345999995,265.1451049999996,None,264.16491700000006,None,264.16491700000006,None,264.16491700000006,None,265.8323759300007,None,265.8323759300007,None,265.8323759300007,None,,,,,,,,,,,212,23,Female,2022-05-06_15h56.55.880,Main,2022.1.1,60.01237455197935,
negative,neutral,2,j,l,,,,,,,,,3,10,64,12,,,,,,,,,,,,,,,,,,,,,,,,main,1,1,2,neutral,negative,j,j,1,0.8289436000013666,265.85272690000056,266.86067039999944,266.84096599999975,None,265.85272690000056,None,265.85272690000056,None,265.85272690000056,None,267.66408343000023,None,267.66408343000023,None,267.66408343000023,None,,,,,,,,,,,212,23,Female,2022-05-06_15h56.55.880,Main,2022.1.1,60.01237455197935,
neutral,positive,2,k,k,,,,,,,,,3,11,65,13,,,,,,,,,,,,,,,,,,,,,,,,main,2,2,2,positive,neutral,k,k,1,0.7425251000004209,267.68624380000074,268.7145722000005,268.66682890000084,None,267.68624380000074,None,267.68624380000074,None,267.68624380000074,None,269.40650813000013,None,269.40650813000013,None,269.40650813000013,None,,,,,,,,,,,212,23,Female,2022-05-06_15h56.55.880,Main,2022.1.1,60.01237455197935,
neutral,positive,1,k,k,,,,,,,,,3,12,66,4,,,,,,,,,,,,,,,,,,,,,,,,main,2,2,1,positive,neutral,k,k,1,0.7922438000005059,269.4299112000008,270.4483935999997,270.4086420000003,None,269.4299112000008,None,269.4299112000008,None,269.4299112000008,None,271.2017395299996,None,271.2017395299996,None,271.2017395299996,None,,,,,,,,,,,212,23,Female,2022-05-06_15h56.55.880,Main,2022.1.1,60.01237455197935,
positive,negative,1,l,j,,,,,,,,,3,13,67,5,,,,,,,,,,,,,,,,,,,,,,,,main,1,1,1,negative,positive,l,l,1,0.7229621000005864,271.22268780000013,272.23785639999915,272.19810320000033,None,271.22268780000013,None,271.22268780000013,None,271.22268780000013,None,272.92948022999974,None,272.92948022999974,None,272.92948022999974,None,,,,,,,,,,,212,23,Female,2022-05-06_15h56.55.880,Main,2022.1.1,60.01237455197935,
negative,positive,2,j,l,,,,,,,,,3,14,68,15,,,,,,,,,,,,,,,,,,,,,,,,main,2,2,2,positive,negative,j,j,1,0.7806486999998015,272.94963239999925,273.96095219999916,273.92274870000074,None,272.94963239999925,None,272.94963239999925,None,272.94963239999925,None,274.7127296299992,None,274.7127296299992,None,274.7127296299992,None,,,,,,,,,,,212,23,Female,2022-05-06_15h56.55.880,Main,2022.1.1,60.01237455197935,
positive,positive,2,l,j,,,,,,,,,3,15,69,11,,,,,,,,,,,,,,,,,,,,,,,,main,1,1,2,positive,positive,l,l,1,0.8552671999987069,274.7321176000005,275.7404712999996,275.7210046,None,274.7321176000005,None,274.7321176000005,None,274.7321176000005,None,276.56826513,None,276.56826513,None,276.56826513,None,,,,,,,,,,,212,23,Female,2022-05-06_15h56.55.880,Main,2022.1.1,60.01237455197935,
positive,neutral,1,l,j,,,,,,,,,3,16,70,8,,,,,,,,,,,,,,,,,,,,,,,,main,2,2,1,neutral,positive,l,l,1,0.9018993000008777,276.58896540000023,277.59226879999915,277.57529350000004,None,276.58896540000023,None,276.58896540000023,None,276.58896540000023,None,278.47217933000013,None,278.47217933000013,None,278.47217933000013,None,,,,,,,,,,,212,23,Female,2022-05-06_15h56.55.880,Main,2022.1.1,60.01237455197935,
positive,negative,2,l,j,,,,,,,,,3,17,71,14,,,,,,,,,,,,,,,,,,,,,,,,main,2,2,2,negative,positive,l,l,1,0.8168948000002274,278.4937181000005,279.51539240000056,279.4751116999996,None,278.4937181000005,None,278.4937181000005,None,278.4937181000005,None,280.2941330300006,None,280.2941330300006,None,280.2941330300006,None,,,,,,,,,,,212,23,Female,2022-05-06_15h56.55.880,Main,2022.1.1,60.01237455197935,
neutral,neutral,2,k,k,,,,,,,,,4,0,72,10,,,,,,,,,,,,,,,,,,,,,,,,main,1,1,2,neutral,neutral,k,k,1,0.8503317999984574,280.3146839000001,281.3220108000005,281.3029740999991,None,280.3146839000001,None,280.3146839000001,None,280.3146839000001,None,282.1467885299995,None,282.1467885299995,None,282.1467885299995,None,,,,,,,,,,,212,23,Female,2022-05-06_15h56.55.880,Main,2022.1.1,60.01237455197935,
negative,neutral,1,j,l,,,,,,,,,4,1,73,3,,,,,,,,,,,,,,,,,,,,,,,,main,1,1,1,neutral,negative,j,j,1,0.7388357999989239,282.16615529999945,283.1778042999995,283.1568406999995,None,282.16615529999945,None,282.16615529999945,None,282.16615529999945,None,283.8860130300005,None,283.8860130300005,None,283.8860130300005,None,,,,,,,,,,,212,23,Female,2022-05-06_15h56.55.880,Main,2022.1.1,60.01237455197935,
neutral,positive,2,k,k,,,,,,,,,4,2,74,13,,,,,,,,,,,,,,,,,,,,,,,,main,2,2,2,positive,neutral,k,k,1,0.6687823000011122,283.9071409999997,284.92630049999934,284.8869594000007,None,283.9071409999997,None,283.9071409999997,None,283.9071409999997,None,285.55873592999944,None,285.55873592999944,None,285.55873592999944,None,,,,,,,,,,,212,23,Female,2022-05-06_15h56.55.880,Main,2022.1.1,60.01237455197935,
positive,positive,2,l,j,,,,,,,,,4,3,75,11,,,,,,,,,,,,,,,,,,,,,,,,main,2,2,2,positive,positive,l,l,1,0.7645895000005112,285.5795775000006,286.59528339999997,286.5567307000001,None,285.5795775000006,None,285.5795775000006,None,285.5795775000006,None,287.3264217300008,None,287.3264217300008,None,287.3264217300008,None,,,,,,,,,,,212,23,Female,2022-05-06_15h56.55.880,Main,2022.1.1,60.01237455197935,
positive,negative,2,l,j,,,,,,,,,4,4,76,14,,,,,,,,,,,,,,,,,,,,,,,,main,1,1,2,negative,positive,l,l,1,0.6729267999999138,287.3471432000006,288.3518315000001,288.3321113000002,None,287.3471432000006,None,287.3471432000006,None,287.3471432000006,None,288.99966582999934,None,288.99966582999934,None,288.99966582999934,None,,,,,,,,,,,212,23,Female,2022-05-06_15h56.55.880,Main,2022.1.1,60.01237455197935,
negative,positive,2,j,l,,,,,,,,,4,5,77,15,,,,,,,,,,,,,,,,,,,,,,,,main,2,2,2,positive,negative,j,j,1,0.7354775000003428,289.02057550000063,290.0273221000007,290.00746210000034,None,289.02057550000063,None,289.02057550000063,None,289.02057550000063,None,290.74014552999927,None,290.74014552999927,None,290.74014552999927,None,,,,,,,,,,,212,23,Female,2022-05-06_15h56.55.880,Main,2022.1.1,60.01237455197935,
neutral,positive,1,k,k,,,,,,,,,4,6,78,4,,,,,,,,,,,,,,,,,,,,,,,,main,1,1,1,positive,neutral,k,k,1,0.6526758999989397,290.7603928000008,291.7640797999993,291.7447432000008,None,290.7603928000008,None,290.7603928000008,None,290.7603928000008,None,292.39483453000014,None,292.39483453000014,None,292.39483453000014,None,,,,,,,,,,,212,23,Female,2022-05-06_15h56.55.880,Main,2022.1.1,60.01237455197935,
positive,neutral,2,l,j,,,,,,,,,4,7,79,17,,,,,,,,,,,,,,,,,,,,,,,,main,2,2,2,neutral,positive,l,l,1,0.84215469999981,292.41546539999945,293.43476870000086,293.3956405000008,None,292.41546539999945,None,292.41546539999945,None,292.41546539999945,None,294.2373958300001,None,294.2373958300001,None,294.2373958300001,None,,,,,,,,,,,212,23,Female,2022-05-06_15h56.55.880,Main,2022.1.1,60.01237455197935,
negative,negative,1,j,l,,,,,,,,,4,8,80,0,,,,,,,,,,,,,,,,,,,,,,,,main,1,1,1,negative,negative,j,j,1,0.7208023000002868,294.2583580999999,295.27259140000024,295.23495,None,294.2583580999999,None,294.2583580999999,None,294.2583580999999,None,295.96332443000085,None,295.96332443000085,None,295.96332443000085,None,,,,,,,,,,,212,23,Female,2022-05-06_15h56.55.880,Main,2022.1.1,60.01237455197935,
positive,neutral,1,l,j,,,,,,,,,4,9,81,8,,,,,,,,,,,,,,,,,,,,,,,,main,2,2,1,neutral,positive,l,l,1,0.7922233000008418,295.98320930000045,296.9915192999997,296.9725718000009,None,295.98320930000045,None,295.98320930000045,None,295.98320930000045,None,297.7597081299997,None,297.7597081299997,None,297.7597081299997,None,,,,,,,,,,,212,23,Female,2022-05-06_15h56.55.880,Main,2022.1.1,60.01237455197935,
negative,negative,2,j,l,,,,,,,,,4,10,82,9,,,,,,,,,,,,,,,,,,,,,,,,main,1,1,2,negative,negative,j,j,1,0.8774750000011409,297.7796543000004,298.79479600000013,298.75646919999963,None,297.7796543000004,None,297.7796543000004,None,297.7796543000004,None,299.6402801299997,None,299.6402801299997,None,299.6402801299997,None,,,,,,,,,,,212,23,Female,2022-05-06_15h56.55.880,Main,2022.1.1,60.01237455197935,
neutral,negative,2,k,k,,,,,,,,,4,11,83,16,,,,,,,,,,,,,,,,,,,,,,,,main,1,1,2,negative,neutral,k,k,1,0.7195224999995844,299.6597719000001,300.67783769999915,300.63758489999964,None,299.6597719000001,None,299.6597719000001,None,299.6597719000001,None,301.3621328300002,None,301.3621328300002,None,301.3621328300002,None,,,,,,,,,,,212,23,Female,2022-05-06_15h56.55.880,Main,2022.1.1,60.01237455197935,
positive,negative,1,l,j,,,,,,,,,4,12,84,5,,,,,,,,,,,,,,,,,,,,,,,,main,2,2,1,negative,positive,l,l,1,0.8173920000008366,301.38240939999923,302.39697669999987,302.35578519999945,None,301.38240939999923,None,301.38240939999923,None,301.38240939999923,None,303.18173952999916,None,303.18173952999916,None,303.18173952999916,None,,,,,,,,,,,212,23,Female,2022-05-06_15h56.55.880,Main,2022.1.1,60.01237455197935,
neutral,negative,1,k,k,,,,,,,,,4,13,85,7,,,,,,,,,,,,,,,,,,,,,,,,main,1,1,1,negative,neutral,k,k,1,0.8985984999999346,303.20257200000015,304.21768390000034,304.17842179999934,None,303.20257200000015,None,303.20257200000015,None,303.20257200000015,None,305.0824653299993,None,305.0824653299993,None,305.0824653299993,None,,,,,,,,,,,212,23,Female,2022-05-06_15h56.55.880,Main,2022.1.1,60.01237455197935,
positive,positive,1,l,j,,,,,,,,,4,14,86,2,,,,,,,,,,,,,,,,,,,,,,,,main,2,2,1,positive,positive,l,l,1,0.7686291000009078,305.1034288999999,306.12442010000086,306.0837947,None,305.1034288999999,None,305.1034288999999,None,305.1034288999999,None,306.85601243000076,None,306.85601243000076,None,306.85601243000076,None,,,,,,,,,,,212,23,Female,2022-05-06_15h56.55.880,Main,2022.1.1,60.01237455197935,
negative,neutral,2,j,l,,,,,,,,,4,15,87,12,,,,,,,,,,,,,,,,,,,,,,,,main,2,2,2,neutral,negative,j,j,1,0.7746474999985367,306.87670140000046,307.8829114,307.8633341999994,None,306.87670140000046,None,306.87670140000046,None,306.87670140000046,None,308.63097013000026,None,308.63097013000026,None,308.63097013000026,None,,,,,,,,,,,212,23,Female,2022-05-06_15h56.55.880,Main,2022.1.1,60.01237455197935,
negative,positive,1,j,l,,,,,,,,,4,16,88,6,,,,,,,,,,,,,,,,,,,,,,,,main,2,2,1,positive,negative,j,j,1,0.6731815000002825,308.65195979999953,309.65797460000067,309.6383631000008,None,308.65195979999953,None,308.65195979999953,None,308.65195979999953,None,310.30842512999936,None,310.30842512999936,None,310.30842512999936,None,,,,,,,,,,,212,23,Female,2022-05-06_15h56.55.880,Main,2022.1.1,60.01237455197935,
neutral,neutral,1,k,k,,,,,,,,,4,17,89,1,,,,,,,,,,,,,,,,,,,,,,,,main,2,2,1,neutral,neutral,k,k,1,0.5740291000001889,310.3295500000004,311.33479350000016,311.3152062999998,None,310.3295500000004,None,310.3295500000004,None,310.3295500000004,None,311.88294933000054,None,311.88294933000054,None,311.88294933000054,None,,,,,,,,,,,212,23,Female,2022-05-06_15h56.55.880,Main,2022.1.1,60.01237455197935,
positive,neutral,1,l,j,,,,,,,,,5,0,90,8,,,,,,,,,,,,,,,,,,,,,,,,main,2,2,1,neutral,positive,l,l,1,0.6820062000006146,311.90568239999993,312.9210884000004,312.8813847000001,None,311.90568239999993,None,311.90568239999993,None,311.90568239999993,None,313.56817762999947,None,313.56817762999947,None,313.56817762999947,None,,,,,,,,,,,212,23,Female,2022-05-06_15h56.55.880,Main,2022.1.1,60.01237455197935,
negative,positive,1,j,l,,,,,,,,,5,1,91,6,,,,,,,,,,,,,,,,,,,,,,,,main,2,2,1,positive,negative,j,j,1,0.7897413999999117,313.5932298000007,314.61297860000013,314.5733574999995,None,313.5932298000007,None,313.5932298000007,None,313.5932298000007,None,315.36124063000045,None,315.36124063000045,None,315.36124063000045,None,,,,,,,,,,,212,23,Female,2022-05-06_15h56.55.880,Main,2022.1.1,60.01237455197935,
negative,neutral,1,j,l,,,,,,,,,5,2,92,3,,,,,,,,,,,,,,,,,,,,,,,,main,2,2,1,neutral,negative,j,j,1,0.6657807000010507,315.38354849999996,316.4013262999997,316.3625205999997,None,315.38354849999996,None,315.38354849999996,None,315.38354849999996,None,317.03121302999955,None,317.03121302999955,None,317.03121302999955,None,,,,,,,,,,,212,23,Female,2022-05-06_15h56.55.880,Main,2022.1.1,60.01237455197935,
positive,positive,2,l,j,,,,,,,,,5,3,93,11,,,,,,,,,,,,,,,,,,,,,,,,main,2,2,2,positive,positive,l,l,1,0.8037588999995933,317.0538711999998,318.06588329999977,318.02703479999946,None,317.0538711999998,None,317.0538711999998,None,317.0538711999998,None,318.8390570300004,None,318.8390570300004,None,318.8390570300004,None,,,,,,,,,,,212,23,Female,2022-05-06_15h56.55.880,Main,2022.1.1,60.01237455197935,
neutral,negative,2,k,k,,,,,,,,,5,4,94,16,,,,,,,,,,,,,,,,,,,,,,,,main,2,2,2,negative,neutral,k,k,1,0.811023700000078,318.86261419999937,319.8685416999997,319.8491173000002,None,318.86261419999937,None,318.86261419999937,None,318.86261419999937,None,320.6528895300004,None,320.6528895300004,None,320.6528895300004,None,,,,,,,,,,,212,23,Female,2022-05-06_15h56.55.880,Main,2022.1.1,60.01237455197935,
positive,negative,2,l,j,,,,,,,,,5,5,95,14,,,,,,,,,,,,,,,,,,,,,,,,main,1,1,2,negative,positive,l,l,1,0.8032376000010117,320.6729445000001,321.6958856000001,321.65500749999956,None,320.6729445000001,None,320.6729445000001,None,320.6729445000001,None,322.45889552999927,None,322.45889552999927,None,322.45889552999927,None,,,,,,,,,,,212,23,Female,2022-05-06_15h56.55.880,Main,2022.1.1,60.01237455197935,
neutral,positive,2,k,k,,,,,,,,,5,6,96,13,,,,,,,,,,,,,,,,,,,,,,,,main,1,1,2,positive,neutral,k,k,1,0.7420845999986341,322.47939340000084,323.4963052999992,323.45683309999913,None,322.47939340000084,None,322.47939340000084,None,322.47939340000084,None,324.20522462999963,None,324.20522462999963,None,324.20522462999963,None,,,,,,,,,,,212,23,Female,2022-05-06_15h56.55.880,Main,2022.1.1,60.01237455197935,
positive,neutral,2,l,j,,,,,,,,,5,7,97,17,,,,,,,,,,,,,,,,,,,,,,,,main,1,1,2,neutral,positive,l,l,1,0.6819296999983635,324.2287207999998,325.23892850000084,325.19974849999926,None,324.2287207999998,None,324.2287207999998,None,324.2287207999998,None,325.88946543000077,None,325.88946543000077,None,325.88946543000077,None,,,,,,,,,,,212,23,Female,2022-05-06_15h56.55.880,Main,2022.1.1,60.01237455197935,
positive,positive,1,l,j,,,,,,,,,5,8,98,2,,,,,,,,,,,,,,,,,,,,,,,,main,1,1,1,positive,positive,l,l,1,0.7604903999999806,325.90958669999964,326.9244567000005,326.8844888000003,None,325.90958669999964,None,325.90958669999964,None,325.90958669999964,None,327.6526716300001,None,327.6526716300001,None,327.6526716300001,None,,,,,,,,,,,212,23,Female,2022-05-06_15h56.55.880,Main,2022.1.1,60.01237455197935,
positive,negative,1,l,j,,,,,,,,,5,9,99,5,,,,,,,,,,,,,,,,,,,,,,,,main,1,1,1,negative,positive,l,l,1,0.5696924000003492,327.67489510000087,328.6899095000008,328.6506289000008,None,327.67489510000087,None,327.67489510000087,None,327.67489510000087,None,329.22470863,None,329.22470863,None,329.22470863,None,,,,,,,,,,,212,23,Female,2022-05-06_15h56.55.880,Main,2022.1.1,60.01237455197935,
negative,positive,2,j,l,,,,,,,,,5,10,100,15,,,,,,,,,,,,,,,,,,,,,,,,main,1,1,2,positive,negative,j,j,1,0.8532773999995698,329.2458521999997,330.27499220000027,330.2253990999998,None,329.2458521999997,None,329.2458521999997,None,329.2458521999997,None,331.08082243000047,None,331.08082243000047,None,331.08082243000047,None,,,,,,,,,,,212,23,Female,2022-05-06_15h56.55.880,Main,2022.1.1,60.01237455197935,
neutral,neutral,2,k,k,,,,,,,,,5,11,101,10,,,,,,,,,,,,,,,,,,,,,,,,main,1,1,2,neutral,neutral,k,k,1,0.7730046999986371,331.10143400000015,332.11298870000064,332.07508489999964,None,331.10143400000015,None,331.10143400000015,None,331.10143400000015,None,332.85878773000024,None,332.85878773000024,None,332.85878773000024,None,,,,,,,,,,,212,23,Female,2022-05-06_15h56.55.880,Main,2022.1.1,60.01237455197935,
neutral,neutral,1,k,k,,,,,,,,,5,12,102,1,,,,,,,,,,,,,,,,,,,,,,,,main,1,1,1,neutral,neutral,k,k,1,0.7951862999998411,332.8801093999991,333.8909007000002,333.8714084000003,None,332.8801093999991,None,332.8801093999991,None,332.8801093999991,None,334.65928853000025,None,334.65928853000025,None,334.65928853000025,None,,,,,,,,,,,212,23,Female,2022-05-06_15h56.55.880,Main,2022.1.1,60.01237455197935,
negative,negative,1,j,l,,,,,,,,,5,13,103,0,,,,,,,,,,,,,,,,,,,,,,,,main,1,1,1,negative,negative,j,j,1,0.9585293999989517,334.68033859999923,335.69545619999917,335.65716430000066,None,334.68033859999923,None,334.68033859999923,None,334.68033859999923,None,336.6209537300007,None,336.6209537300007,None,336.6209537300007,None,,,,,,,,,,,212,23,Female,2022-05-06_15h56.55.880,Main,2022.1.1,60.01237455197935,
neutral,positive,1,k,k,,,,,,,,,5,14,104,4,,,,,,,,,,,,,,,,,,,,,,,,main,2,2,1,positive,neutral,k,k,1,0.7706094000004668,336.6430866999999,337.64507570000023,337.6257688000005,None,336.6430866999999,None,336.6430866999999,None,336.6430866999999,None,338.3934636300006,None,338.3934636300006,None,338.3934636300006,None,,,,,,,,,,,212,23,Female,2022-05-06_15h56.55.880,Main,2022.1.1,60.01237455197935,
neutral,negative,1,k,k,,,,,,,,,5,15,105,7,,,,,,,,,,,,,,,,,,,,,,,,main,2,2,1,negative,neutral,k,k,1,0.6671065999998973,338.41441699999996,339.42962310000075,339.39037520000056,None,338.41441699999996,None,338.41441699999996,None,338.41441699999996,None,340.0616502300005,None,340.0616502300005,None,340.0616502300005,None,,,,,,,,,,,212,23,Female,2022-05-06_15h56.55.880,Main,2022.1.1,60.01237455197935,
negative,neutral,2,j,l,,,,,,,,,5,16,106,12,,,,,,,,,,,,,,,,,,,,,,,,main,1,1,2,neutral,negative,j,j,1,0.8296272000006866,340.08359910000036,341.0892743000004,341.06949709999935,None,340.08359910000036,None,340.08359910000036,None,340.08359910000036,None,341.89513232999946,None,341.89513232999946,None,341.89513232999946,None,,,,,,,,,,,212,23,Female,2022-05-06_15h56.55.880,Main,2022.1.1,60.01237455197935,
negative,negative,2,j,l,,,,,,,,,5,17,107,9,,,,,,,,,,,,,,,,,,,,,,,,main,2,2,2,negative,negative,j,j,1,0.6436558999994304,341.9170801,342.9321622000007,342.89227629999914,None,341.9170801,None,341.9170801,None,341.9170801,None,343.54216983000026,None,343.54216983000026,None,343.54216983000026,None,,,,,,,,,,,212,23,Female,2022-05-06_15h56.55.880,Main,2022.1.1,60.01237455197935,
neutral,positive,1,k,k,,,,,,,,,6,0,108,4,,,,,,,,,,,,,,,,,,,,,,,,main,2,2,1,positive,neutral,k,k,1,0.7845456000013655,343.5625008999996,344.5909308999999,344.5402114999997,None,343.5625008999996,None,343.5625008999996,None,343.5625008999996,None,345.3288279300001,None,345.3288279300001,None,345.3288279300001,None,,,,,,,,,,,212,23,Female,2022-05-06_15h56.55.880,Main,2022.1.1,60.01237455197935,
negative,neutral,1,j,l,,,,,,,,,6,1,109,3,,,,,,,,,,,,,,,,,,,,,,,,main,2,2,1,neutral,negative,j,j,1,0.7625477999990835,345.35011459999987,346.3665242999996,346.3255198000006,None,345.35011459999987,None,345.35011459999987,None,345.35011459999987,None,347.09456973,None,347.09456973,None,347.09456973,None,,,,,,,,,,,212,23,Female,2022-05-06_15h56.55.880,Main,2022.1.1,60.01237455197935,
negative,neutral,2,j,l,,,,,,,,,6,2,110,12,,,,,,,,,,,,,,,,,,,,,,,,main,2,2,2,neutral,negative,j,j,1,0.7448280999997223,347.11528759999965,348.1339079999998,348.0969626999995,None,347.11528759999965,None,347.11528759999965,None,347.11528759999965,None,348.84119732999955,None,348.84119732999955,None,348.84119732999955,None,,,,,,,,,,,212,23,Female,2022-05-06_15h56.55.880,Main,2022.1.1,60.01237455197935,
negative,positive,1,j,l,,,,,,,,,6,3,111,6,,,,,,,,,,,,,,,,,,,,,,,,main,2,2,1,positive,negative,j,j,1,0.6910955000003014,348.8622008000002,349.8644497999994,349.8446236,None,348.8622008000002,None,348.8622008000002,None,348.8622008000002,None,350.53728943000044,None,350.53728943000044,None,350.53728943000044,None,,,,,,,,,,,212,23,Female,2022-05-06_15h56.55.880,Main,2022.1.1,60.01237455197935,
neutral,positive,2,k,k,,,,,,,,,6,4,112,13,,,,,,,,,,,,,,,,,,,,,,,,main,1,1,2,positive,neutral,k,k,1,0.6465654000003269,350.5571968000004,351.57978960000037,351.5389204000003,None,350.5571968000004,None,350.5571968000004,None,350.5571968000004,None,352.18580173000066,None,352.18580173000066,None,352.18580173000066,None,,,,,,,,,,,212,23,Female,2022-05-06_15h56.55.880,Main,2022.1.1,60.01237455197935,
neutral,negative,2,k,k,,,,,,,,,6,5,113,16,,,,,,,,,,,,,,,,,,,,,,,,main,1,1,2,negative,neutral,k,k,1,0.5606098999996902,352.2064028999994,353.2187303999999,353.1795755000003,None,352.2064028999994,None,352.2064028999994,None,352.2064028999994,None,353.74877292999975,None,353.74877292999975,None,353.74877292999975,None,,,,,,,,,,,212,23,Female,2022-05-06_15h56.55.880,Main,2022.1.1,60.01237455197935,
positive,positive,1,l,j,,,,,,,,,6,6,114,2,,,,,,,,,,,,,,,,,,,,,,,,main,1,1,1,positive,positive,l,l,1,0.8496517999992648,353.76950150000084,354.78957439999976,354.75008460000026,None,353.76950150000084,None,353.76950150000084,None,353.76950150000084,None,355.6014250300001,None,355.6014250300001,None,355.6014250300001,None,,,,,,,,,,,212,23,Female,2022-05-06_15h56.55.880,Main,2022.1.1,60.01237455197935,
positive,negative,1,l,j,,,,,,,,,6,7,115,5,,,,,,,,,,,,,,,,,,,,,,,,main,2,2,1,negative,positive,l,l,1,0.5243622999987565,355.6265459999995,356.63234139999986,356.61328909999975,None,355.6265459999995,None,355.6265459999995,None,355.6265459999995,None,357.1287520299999,None,357.1287520299999,None,357.1287520299999,None,,,,,,,,,,,212,23,Female,2022-05-06_15h56.55.880,Main,2022.1.1,60.01237455197935,
neutral,negative,1,k,k,,,,,,,,,6,8,116,7,,,,,,,,,,,,,,,,,,,,,,,,main,1,1,1,negative,neutral,k,k,1,0.6495422000007238,357.14958470000056,358.1713208000001,358.13169899999957,None,357.14958470000056,None,357.14958470000056,None,357.14958470000056,None,358.7828893299999,None,358.7828893299999,None,358.7828893299999,None,,,,,,,,,,,212,23,Female,2022-05-06_15h56.55.880,Main,2022.1.1,60.01237455197935,
negative,positive,2,j,l,,,,,,,,,6,9,117,15,,,,,,,,,,,,,,,,,,,,,,,,main,1,1,2,positive,negative,j,j,1,0.6773682000002736,358.8048882999992,359.8158137999999,359.7971314999995,None,358.8048882999992,None,358.8048882999992,None,358.8048882999992,None,360.4620027299994,None,360.4620027299994,None,360.4620027299994,None,,,,,,,,,,,212,23,Female,2022-05-06_15h56.55.880,Main,2022.1.1,60.01237455197935,
negative,negative,2,j,l,,,,,,,,,6,10,118,9,,,,,,,,,,,,,,,,,,,,,,,,main,1,1,2,negative,negative,j,j,1,0.644065700000283,360.4853038000001,361.50446510000074,361.4659083000006,None,360.4853038000001,None,360.4853038000001,None,360.4853038000001,None,362.10842053,None,362.10842053,None,362.10842053,None,,,,,,,,,,,212,23,Female,2022-05-06_15h56.55.880,Main,2022.1.1,60.01237455197935,
neutral,neutral,1,k,k,,,,,,,,,6,11,119,1,,,,,,,,,,,,,,,,,,,,,,,,main,1,1,1,neutral,neutral,k,k,1,0.5675480999998399,362.13001339999937,363.1488066999991,363.1103755000004,None,362.13001339999937,None,362.13001339999937,None,362.13001339999937,None,363.6772784299998,None,363.6772784299998,None,363.6772784299998,None,,,,,,,,,,,212,23,Female,2022-05-06_15h56.55.880,Main,2022.1.1,60.01237455197935,
positive,positive,2,l,j,,,,,,,,,6,12,120,11,,,,,,,,,,,,,,,,,,,,,,,,main,2,2,2,positive,positive,l,l,1,0.5844553999995696,363.70013160000053,364.71134469999924,364.6915245,None,363.70013160000053,None,363.70013160000053,None,363.70013160000053,None,365.26802412999916,None,365.26802412999916,None,365.26802412999916,None,,,,,,,,,,,212,23,Female,2022-05-06_15h56.55.880,Main,2022.1.1,60.01237455197935,
positive,negative,2,l,j,,,,,,,,,6,13,121,14,,,,,,,,,,,,,,,,,,,,,,,,main,2,2,2,negative,positive,l,l,1,0.5412458999999217,365.28895639999973,366.3004705000003,366.2805941000006,None,365.28895639999973,None,365.28895639999973,None,365.28895639999973,None,366.80994223000073,None,366.80994223000073,None,366.80994223000073,None,,,,,,,,,,,212,23,Female,2022-05-06_15h56.55.880,Main,2022.1.1,60.01237455197935,
positive,neutral,1,l,j,,,,,,,,,6,14,122,8,,,,,,,,,,,,,,,,,,,,,,,,main,2,2,1,neutral,positive,l,l,1,0.6308944000011252,366.83178620000035,367.8346973000007,367.8150607000007,None,366.83178620000035,None,366.83178620000035,None,366.83178620000035,None,368.44345103000035,None,368.44345103000035,None,368.44345103000035,None,,,,,,,,,,,212,23,Female,2022-05-06_15h56.55.880,Main,2022.1.1,60.01237455197935,
negative,negative,1,j,l,,,,,,,,,6,15,123,0,,,,,,,,,,,,,,,,,,,,,,,,main,2,2,1,negative,negative,j,j,1,0.6399209999999584,368.46415159999924,369.4707878999998,369.4509457999993,None,368.46415159999924,None,368.46415159999924,None,368.46415159999924,None,370.08759042999975,None,370.08759042999975,None,370.08759042999975,None,,,,,,,,,,,212,23,Female,2022-05-06_15h56.55.880,Main,2022.1.1,60.01237455197935,
neutral,neutral,2,k,k,,,,,,,,,6,16,124,10,,,,,,,,,,,,,,,,,,,,,,,,main,2,2,2,neutral,neutral,k,k,1,0.6333125000001019,370.11022349999985,371.1327533999993,371.09193980000055,None,370.11022349999985,None,370.11022349999985,None,370.11022349999985,None,371.7235707299993,None,371.7235707299993,None,371.7235707299993,None,,,,,,,,,,,212,23,Female,2022-05-06_15h56.55.880,Main,2022.1.1,60.01237455197935,
positive,neutral,2,l,j,,,,,,,,,6,17,125,17,,,,,,,,,,,,,,,,,,,,,,,,main,2,2,2,neutral,positive,l,l,1,0.924279500000921,371.74634589999914,372.76435259999926,372.72548989999996,None,371.74634589999914,None,371.74634589999914,None,371.74634589999914,None,373.65386703000024,None,373.65386703000024,None,373.65386703000024,None,,,,,,,,,,,212,23,Female,2022-05-06_15h56.55.880,Main,2022.1.1,60.01237455197935,
negative,negative,2,j,l,,,,,,,,,7,0,126,9,,,,,,,,,,,,,,,,,,,,,,,,main,2,2,2,negative,negative,j,j,1,0.7109592999986489,373.6745491999991,374.6890234000002,374.64940410000054,None,373.6745491999991,None,373.6745491999991,None,373.6745491999991,None,375.3691238300004,None,375.3691238300004,None,375.3691238300004,None,,,,,,,,,,,212,23,Female,2022-05-06_15h56.55.880,Main,2022.1.1,60.01237455197935,
negative,negative,1,j,l,,,,,,,,,7,1,127,0,,,,,,,,,,,,,,,,,,,,,,,,main,2,2,1,negative,negative,j,j,1,0.7244823000000906,375.39051610000024,376.4027055000006,376.36283170000024,None,375.39051610000024,None,375.39051610000024,None,375.39051610000024,None,377.09790572999975,None,377.09790572999975,None,377.09790572999975,None,,,,,,,,,,,212,23,Female,2022-05-06_15h56.55.880,Main,2022.1.1,60.01237455197935,
neutral,neutral,1,k,k,,,,,,,,,7,2,128,1,,,,,,,,,,,,,,,,,,,,,,,,main,2,2,1,neutral,neutral,k,k,1,0.8460653999991337,377.11823150000055,378.1259855999997,378.1069368999997,None,377.11823150000055,None,377.11823150000055,None,377.11823150000055,None,378.94674933000044,None,378.94674933000044,None,378.94674933000044,None,,,,,,,,,,,212,23,Female,2022-05-06_15h56.55.880,Main,2022.1.1,60.01237455197935,
positive,neutral,2,l,j,,,,,,,,,7,3,129,17,,,,,,,,,,,,,,,,,,,,,,,,main,1,1,2,neutral,positive,l,l,1,0.6244621999994706,378.9669608999993,379.98301899999933,379.9444003000008,None,378.9669608999993,None,378.9669608999993,None,378.9669608999993,None,380.5714195299994,None,380.5714195299994,None,380.5714195299994,None,,,,,,,,,,,212,23,Female,2022-05-06_15h56.55.880,Main,2022.1.1,60.01237455197935,
neutral,negative,1,k,k,,,,,,,,,7,4,130,7,,,,,,,,,,,,,,,,,,,,,,,,main,2,2,1,negative,neutral,k,k,1,0.6872659000000567,380.5948449999996,381.61235250000027,381.5755069000006,None,380.5948449999996,None,380.5948449999996,None,380.5948449999996,None,382.2632789299993,None,382.2632789299993,None,382.2632789299993,None,,,,,,,,,,,212,23,Female,2022-05-06_15h56.55.880,Main,2022.1.1,60.01237455197935,
neutral,neutral,2,k,k,,,,,,,,,7,5,131,10,,,,,,,,,,,,,,,,,,,,,,,,main,1,1,2,neutral,neutral,k,k,1,0.6452324000001681,382.28320259999964,383.2847925999995,383.26590849999957,None,382.28320259999964,None,382.28320259999964,None,382.28320259999964,None,383.90907973000014,None,383.90907973000014,None,383.90907973000014,None,,,,,,,,,,,212,23,Female,2022-05-06_15h56.55.880,Main,2022.1.1,60.01237455197935,
positive,positive,1,l,j,,,,,,,,,7,6,132,2,,,,,,,,,,,,,,,,,,,,,,,,main,2,2,1,positive,positive,l,l,1,0.7444455999993806,383.92974460000005,384.9419306,384.92233529999976,None,383.92974460000005,None,383.92974460000005,None,383.92974460000005,None,385.6556815299997,None,385.6556815299997,None,385.6556815299997,None,,,,,,,,,,,212,23,Female,2022-05-06_15h56.55.880,Main,2022.1.1,60.01237455197935,
negative,neutral,2,j,l,,,,,,,,,7,7,133,12,,,,,,,,,,,,,,,,,,,,,,,,main,1,1,2,neutral,negative,j,j,1,0.7095714999995835,385.6778596000004,386.68262850000065,386.6626004000009,None,385.6778596000004,None,385.6778596000004,None,385.6778596000004,None,387.36957913000026,None,387.36957913000026,None,387.36957913000026,None,,,,,,,,,,,212,23,Female,2022-05-06_15h56.55.880,Main,2022.1.1,60.01237455197935,
negative,neutral,1,j,l,,,,,,,,,7,8,134,3,,,,,,,,,,,,,,,,,,,,,,,,main,1,1,1,neutral,negative,j,j,1,0.8220813999996608,387.3903286999994,388.39453350000076,388.3746365999996,None,387.3903286999994,None,387.3903286999994,None,387.3903286999994,None,389.19635923000044,None,389.19635923000044,None,389.19635923000044,None,,,,,,,,,,,212,23,Female,2022-05-06_15h56.55.880,Main,2022.1.1,60.01237455197935,
positive,negative,2,l,j,,,,,,,,,7,9,135,14,,,,,,,,,,,,,,,,,,,,,,,,main,2,2,2,negative,positive,l,l,1,0.7014970000000176,389.21668169999975,390.2337110999997,390.1944700999993,None,389.21668169999975,None,389.21668169999975,None,389.21668169999975,None,390.90015673000073,None,390.90015673000073,None,390.90015673000073,None,,,,,,,,,,,212,23,Female,2022-05-06_15h56.55.880,Main,2022.1.1,60.01237455197935,
neutral,negative,2,k,k,,,,,,,,,7,10,136,16,,,,,,,,,,,,,,,,,,,,,,,,main,1,1,2,negative,neutral,k,k,1,0.6902011000001949,390.92111060000025,391.92704650000087,391.9075749000003,None,390.92111060000025,None,390.92111060000025,None,390.92111060000025,None,392.59300802999917,None,392.59300802999917,None,392.59300802999917,None,,,,,,,,,,,212,23,Female,2022-05-06_15h56.55.880,Main,2022.1.1,60.01237455197935,
positive,positive,2,l,j,,,,,,,,,7,11,137,11,,,,,,,,,,,,,,,,,,,,,,,,main,1,1,2,positive,positive,l,l,1,0.7928843999998207,392.61380420000023,393.61743319999914,393.5975849000006,None,392.61380420000023,None,392.61380420000023,None,392.61380420000023,None,394.3882337300007,None,394.3882337300007,None,394.3882337300007,None,,,,,,,,,,,212,23,Female,2022-05-06_15h56.55.880,Main,2022.1.1,60.01237455197935,
negative,positive,2,j,l,,,,,,,,,7,12,138,15,,,,,,,,,,,,,,,,,,,,,,,,main,2,2,2,positive,negative,j,j,1,0.7822790999998688,394.41509570000017,395.4249963000002,395.4055434999991,None,394.41509570000017,None,394.41509570000017,None,394.41509570000017,None,396.17698882999923,None,396.17698882999923,None,396.17698882999923,None,,,,,,,,,,,212,23,Female,2022-05-06_15h56.55.880,Main,2022.1.1,60.01237455197935,
negative,positive,1,j,l,,,,,,,,,7,13,139,6,,,,,,,,,,,,,,,,,,,,,,,,main,1,1,1,positive,negative,j,j,1,0.6905731999995623,396.2000466999998,397.2193408999992,397.1798581999992,None,396.2000466999998,None,396.2000466999998,None,396.2000466999998,None,397.8683057299992,None,397.8683057299992,None,397.8683057299992,None,,,,,,,,,,,212,23,Female,2022-05-06_15h56.55.880,Main,2022.1.1,60.01237455197935,
positive,neutral,1,l,j,,,,,,,,,7,14,140,8,,,,,,,,,,,,,,,,,,,,,,,,main,1,1,1,neutral,positive,l,l,1,0.6891317999998137,397.8888783000002,398.8912519000005,398.8721132999999,None,397.8888783000002,None,397.8888783000002,None,397.8888783000002,None,399.56004653,None,399.56004653,None,399.56004653,None,,,,,,,,,,,212,23,Female,2022-05-06_15h56.55.880,Main,2022.1.1,60.01237455197935,
positive,negative,1,l,j,,,,,,,,,7,15,141,5,,,,,,,,,,,,,,,,,,,,,,,,main,2,2,1,negative,positive,l,l,1,0.6488833000003069,399.58194580000054,400.5982236,400.5568948,None,399.58194580000054,None,399.58194580000054,None,399.58194580000054,None,401.21317642999986,None,401.21317642999986,None,401.21317642999986,None,,,,,,,,,,,212,23,Female,2022-05-06_15h56.55.880,Main,2022.1.1,60.01237455197935,
neutral,positive,1,k,k,,,,,,,,,7,16,142,4,,,,,,,,,,,,,,,,,,,,,,,,main,2,2,1,positive,neutral,k,k,1,0.6879047999991599,401.2327415,402.25001580000026,402.21032620000005,None,401.2327415,None,401.2327415,None,401.2327415,None,402.90134932999956,None,402.90134932999956,None,402.90134932999956,None,,,,,,,,,,,212,23,Female,2022-05-06_15h56.55.880,Main,2022.1.1,60.01237455197935,
neutral,positive,2,k,k,,,,,,,,,7,17,143,13,,,,,,,,,,,,,,,,,,,,,,,,main,2,2,2,positive,neutral,k,k,1,0.8311109999995097,402.92309620000015,403.94231539999964,403.90358240000023,None,402.92309620000015,None,402.92309620000015,None,402.92309620000015,None,404.73357533,None,404.73357533,None,404.73357533,None,,,,,,,,,,,212,23,Female,2022-05-06_15h56.55.880,Main,2022.1.1,60.01237455197935,
neutral,negative,1,k,k,,,,,,,,,8,0,144,7,,,,,,,,,,,,,,,,,,,,,,,,main,2,2,1,negative,neutral,k,k,1,0.6192277999998623,404.75713689999975,405.76060900000084,405.74132070000087,None,404.75713689999975,None,404.75713689999975,None,404.75713689999975,None,406.3555607299992,None,406.3555607299992,None,406.3555607299992,None,,,,,,,,,,,212,23,Female,2022-05-06_15h56.55.880,Main,2022.1.1,60.01237455197935,
positive,neutral,2,l,j,,,,,,,,,8,1,145,17,,,,,,,,,,,,,,,,,,,,,,,,main,2,2,2,neutral,positive,l,l,1,0.5788522000002558,406.3774909999993,407.38456869999936,407.36582850000013,None,406.3774909999993,None,406.3774909999993,None,406.3774909999993,None,407.93664152999975,None,407.93664152999975,None,407.93664152999975,None,,,,,,,,,,,212,23,Female,2022-05-06_15h56.55.880,Main,2022.1.1,60.01237455197935,
neutral,neutral,2,k,k,,,,,,,,,8,2,146,10,,,,,,,,,,,,,,,,,,,,,,,,main,1,1,2,neutral,neutral,k,k,1,0.7062746999999945,407.9591170999993,408.96450410000034,408.94555349999973,None,407.9591170999993,None,407.9591170999993,None,407.9591170999993,None,409.64686313000004,None,409.64686313000004,None,409.64686313000004,None,,,,,,,,,,,212,23,Female,2022-05-06_15h56.55.880,Main,2022.1.1,60.01237455197935,
negative,neutral,1,j,l,,,,,,,,,8,3,147,3,,,,,,,,,,,,,,,,,,,,,,,,main,1,1,1,neutral,negative,j,j,1,0.7545289999998204,409.6696281000004,410.68517600000087,410.64574560000074,None,409.6696281000004,None,409.6696281000004,None,409.6696281000004,None,411.40813002999914,None,411.40813002999914,None,411.40813002999914,None,,,,,,,,,,,212,23,Female,2022-05-06_15h56.55.880,Main,2022.1.1,60.01237455197935,
positive,negative,2,l,j,,,,,,,,,8,4,148,14,,,,,,,,,,,,,,,,,,,,,,,,main,1,1,2,negative,positive,l,l,1,0.9330508000002737,411.4283641999991,412.4416025999999,412.40267420000055,None,411.4283641999991,None,411.4283641999991,None,411.4283641999991,None,413.3435639299993,None,413.3435639299993,None,413.3435639299993,None,,,,,,,,,,,212,23,Female,2022-05-06_15h56.55.880,Main,2022.1.1,60.01237455197935,
negative,negative,1,j,l,,,,,,,,,8,5,149,0,,,,,,,,,,,,,,,,,,,,,,,,main,1,1,1,negative,negative,j,j,1,0.7775826000015513,413.3655792999998,414.37276159999965,414.35392649999994,None,413.3655792999998,None,413.3655792999998,None,413.3655792999998,None,415.1214134299995,None,415.1214134299995,None,415.1214134299995,None,,,,,,,,,,,212,23,Female,2022-05-06_15h56.55.880,Main,2022.1.1,60.01237455197935,
neutral,neutral,1,k,k,,,,,,,,,8,6,150,1,,,,,,,,,,,,,,,,,,,,,,,,main,2,2,1,neutral,neutral,k,k,1,0.6657601999995677,415.1443607000001,416.1530067999993,416.13395069999933,None,415.1443607000001,None,415.1443607000001,None,415.1443607000001,None,416.78766942999994,None,416.78766942999994,None,416.78766942999994,None,,,,,,,,,,,212,23,Female,2022-05-06_15h56.55.880,Main,2022.1.1,60.01237455197935,
positive,negative,1,l,j,,,,,,,,,8,7,151,5,,,,,,,,,,,,,,,,,,,,,,,,main,1,1,1,negative,positive,l,l,1,0.6599206999999296,416.81808210000054,417.84139420000065,417.7984135000006,None,416.81808210000054,None,416.81808210000054,None,416.81808210000054,None,418.45113532999915,None,418.45113532999915,None,418.45113532999915,None,,,,,,,,,,,212,23,Female,2022-05-06_15h56.55.880,Main,2022.1.1,60.01237455197935,
positive,positive,2,l,j,,,,,,,,,8,8,152,11,,,,,,,,,,,,,,,,,,,,,,,,main,2,2,2,positive,positive,l,l,1,0.6145459999988816,418.47813510000015,419.4900078999999,419.46795779999957,None,418.47813510000015,None,418.47813510000015,None,418.47813510000015,None,420.0692563300005,None,420.0692563300005,None,420.0692563300005,None,,,,,,,,,,,212,23,Female,2022-05-06_15h56.55.880,Main,2022.1.1,60.01237455197935,
positive,positive,1,l,j,,,,,,,,,8,9,153,2,,,,,,,,,,,,,,,,,,,,,,,,main,1,1,1,positive,positive,l,l,1,0.6083281999999599,420.09566789999917,421.1062880999998,421.08520619999945,None,420.09566789999917,None,420.09566789999917,None,420.09566789999917,None,421.68154342999935,None,421.68154342999935,None,421.68154342999935,None,,,,,,,,,,,212,23,Female,2022-05-06_15h56.55.880,Main,2022.1.1,60.01237455197935,
neutral,negative,2,k,k,,,,,,,,,8,10,154,16,,,,,,,,,,,,,,,,,,,,,,,,main,1,1,2,negative,neutral,k,k,1,0.7380434000006062,421.7073708000007,422.71955829999933,422.6990413000003,None,421.7073708000007,None,421.7073708000007,None,421.7073708000007,None,423.42267523000066,None,423.42267523000066,None,423.42267523000066,None,,,,,,,,,,,212,23,Female,2022-05-06_15h56.55.880,Main,2022.1.1,60.01237455197935,
negative,neutral,2,j,l,,,,,,,,,8,11,155,12,,,,,,,,,,,,,,,,,,,,,,,,main,1,1,2,neutral,negative,j,j,1,1.0181886999998824,423.4506658999999,424.4580829000006,424.4378228000005,None,423.4506658999999,None,423.4506658999999,None,423.4506658999999,None,425.4458160300006,None,425.4458160300006,None,425.4458160300006,None,,,,,,,,,,,212,23,Female,2022-05-06_15h56.55.880,Main,2022.1.1,60.01237455197935,
negative,positive,2,j,l,,,,,,,,,8,12,156,15,,,,,,,,,,,,,,,,,,,,,,,,main,2,2,2,positive,negative,j,j,1,0.7245065999995859,425.4748782000006,426.4946388999997,426.47019159999945,None,425.4748782000006,None,425.4748782000006,None,425.4748782000006,None,427.1721039299997,None,427.1721039299997,None,427.1721039299997,None,,,,,,,,,,,212,23,Female,2022-05-06_15h56.55.880,Main,2022.1.1,60.01237455197935,
neutral,positive,2,k,k,,,,,,,,,8,13,157,13,,,,,,,,,,,,,,,,,,,,,,,,main,2,2,2,positive,neutral,k,k,1,0.8410010999996302,427.2012706000005,428.2175927999997,428.1959685999991,None,427.2012706000005,None,427.2012706000005,None,427.2012706000005,None,429.01890202999914,None,429.01890202999914,None,429.01890202999914,None,,,,,,,,,,,212,23,Female,2022-05-06_15h56.55.880,Main,2022.1.1,60.01237455197935,
negative,negative,2,j,l,,,,,,,,,8,14,158,9,,,,,,,,,,,,,,,,,,,,,,,,main,1,1,2,negative,negative,j,j,1,0.7954258000008849,429.0471128999998,430.0640612999996,430.0426759000002,None,429.0471128999998,None,429.0471128999998,None,429.0471128999998,None,430.81895592999956,None,430.81895592999956,None,430.81895592999956,None,,,,,,,,,,,212,23,Female,2022-05-06_15h56.55.880,Main,2022.1.1,60.01237455197935,
positive,neutral,1,l,j,,,,,,,,,8,15,159,8,,,,,,,,,,,,,,,,,,,,,,,,main,1,1,1,neutral,positive,l,l,1,0.8858366000004025,430.8477337000004,431.8598875000007,431.83945660000063,None,430.8477337000004,None,430.8477337000004,None,430.8477337000004,None,432.70973042999924,None,432.70973042999924,None,432.70973042999924,None,,,,,,,,,,,212,23,Female,2022-05-06_15h56.55.880,Main,2022.1.1,60.01237455197935,
negative,positive,1,j,l,,,,,,,,,8,16,160,6,,,,,,,,,,,,,,,,,,,,,,,,main,2,2,1,positive,negative,j,j,1,0.7822882999989815,432.7393288000003,433.76283839999996,433.7192242000001,None,432.7393288000003,None,432.7393288000003,None,432.7393288000003,None,434.4949728300004,None,434.4949728300004,None,434.4949728300004,None,,,,,,,,,,,212,23,Female,2022-05-06_15h56.55.880,Main,2022.1.1,60.01237455197935,
neutral,positive,1,k,k,,,,,,,,,8,17,161,4,,,,,,,,,,,,,,,,,,,,,,,,main,2,2,1,positive,neutral,k,k,1,0.7317817000002833,434.5188359999993,435.52343309999924,435.50225189999946,None,434.5188359999993,None,434.5188359999993,None,434.5188359999993,None,436.2298327300001,None,436.2298327300001,None,436.2298327300001,None,,,,,,,,,,,212,23,Female,2022-05-06_15h56.55.880,Main,2022.1.1,60.01237455197935,
negative,neutral,2,j,l,,,,,,,,,9,0,162,12,,,,,,,,,,,,,,,,,,,,,,,,main,2,2,2,neutral,negative,j,j,1,0.7535850999993272,436.25817970000026,437.27894000000015,437.23695770000086,None,436.25817970000026,None,436.25817970000026,None,436.25817970000026,None,437.98567652999975,None,437.98567652999975,None,437.98567652999975,None,,,,,,,,,,,212,23,Female,2022-05-06_15h56.55.880,Main,2022.1.1,60.01237455197935,
neutral,neutral,1,k,k,,,,,,,,,9,1,163,1,,,,,,,,,,,,,,,,,,,,,,,,main,2,2,1,neutral,neutral,k,k,1,0.6915014000005613,438.0153205000006,439.02145200000086,438.99921240000003,None,438.0153205000006,None,438.0153205000006,None,438.0153205000006,None,439.6812177300004,None,439.6812177300004,None,439.6812177300004,None,,,,,,,,,,,212,23,Female,2022-05-06_15h56.55.880,Main,2022.1.1,60.01237455197935,
negative,negative,2,j,l,,,,,,,,,9,2,164,9,,,,,,,,,,,,,,,,,,,,,,,,main,1,1,2,negative,negative,j,j,1,0.7391067000007752,439.7065263000004,440.7282195000007,440.6853231999994,None,439.7065263000004,None,439.7065263000004,None,439.7065263000004,None,441.42541503000086,None,441.42541503000086,None,441.42541503000086,None,,,,,,,,,,,212,23,Female,2022-05-06_15h56.55.880,Main,2022.1.1,60.01237455197935,
negative,neutral,1,j,l,,,,,,,,,9,3,165,3,,,,,,,,,,,,,,,,,,,,,,,,main,2,2,1,neutral,negative,j,j,1,0.7790010000007896,441.4526201000008,442.4675277999995,442.44671689999996,None,441.4526201000008,None,441.4526201000008,None,441.4526201000008,None,443.20982392999997,None,443.20982392999997,None,443.20982392999997,None,,,,,,,,,,,212,23,Female,2022-05-06_15h56.55.880,Main,2022.1.1,60.01237455197935,
positive,neutral,2,l,j,,,,,,,,,9,4,166,17,,,,,,,,,,,,,,,,,,,,,,,,main,1,1,2,neutral,positive,l,l,1,0.8177989999985584,443.2412745999991,444.25795839999955,444.2151216000002,None,443.2412745999991,None,443.2412745999991,None,443.2412745999991,None,445.0293749300005,None,445.0293749300005,None,445.0293749300005,None,,,,,,,,,,,212,23,Female,2022-05-06_15h56.55.880,Main,2022.1.1,60.01237455197935,
negative,positive,2,j,l,,,,,,,,,9,5,167,15,,,,,,,,,,,,,,,,,,,,,,,,main,2,2,2,positive,negative,j,j,1,0.7900736000010511,445.05744980000054,446.07481870000083,446.0536936999997,None,445.05744980000054,None,445.05744980000054,None,445.05744980000054,None,446.8264171300003,None,446.8264171300003,None,446.8264171300003,None,,,,,,,,,,,212,23,Female,2022-05-06_15h56.55.880,Main,2022.1.1,60.01237455197935,
neutral,neutral,2,k,k,,,,,,,,,9,6,168,10,,,,,,,,,,,,,,,,,,,,,,,,main,1,1,2,neutral,neutral,k,k,1,0.8440735999993194,446.85147329999927,447.8680036000005,447.8456153999996,None,446.85147329999927,None,446.85147329999927,None,446.85147329999927,None,448.67517912999995,None,448.67517912999995,None,448.67517912999995,None,,,,,,,,,,,212,23,Female,2022-05-06_15h56.55.880,Main,2022.1.1,60.01237455197935,
negative,positive,1,j,l,,,,,,,,,9,7,169,6,,,,,,,,,,,,,,,,,,,,,,,,main,1,1,1,positive,negative,j,j,1,1.006092699999499,448.70197240000016,449.7064205000006,449.68622870000036,None,448.70197240000016,None,448.70197240000016,None,448.70197240000016,None,450.68734113000085,None,450.68734113000085,None,450.68734113000085,None,,,,,,,,,,,212,23,Female,2022-05-06_15h56.55.880,Main,2022.1.1,60.01237455197935,
neutral,negative,2,k,k,,,,,,,,,9,8,170,16,,,,,,,,,,,,,,,,,,,,,,,,main,1,1,2,negative,neutral,k,k,1,0.7221049999989191,450.7125665000003,451.74118180000005,451.6945489999998,None,450.7125665000003,None,450.7125665000003,None,450.7125665000003,None,452.4089536300004,None,452.4089536300004,None,452.4089536300004,None,,,,,,,,,,,212,23,Female,2022-05-06_15h56.55.880,Main,2022.1.1,60.01237455197935,
negative,negative,1,j,l,,,,,,,,,9,9,171,0,,,,,,,,,,,,,,,,,,,,,,,,main,1,1,1,negative,negative,j,j,1,0.7366135000011127,452.43719950000013,453.45580510000036,453.41379380000035,None,452.43719950000013,None,452.43719950000013,None,452.43719950000013,None,454.1483694299992,None,454.1483694299992,None,454.1483694299992,None,,,,,,,,,,,212,23,Female,2022-05-06_15h56.55.880,Main,2022.1.1,60.01237455197935,
neutral,positive,1,k,k,,,,,,,,,9,10,172,4,,,,,,,,,,,,,,,,,,,,,,,,main,1,1,1,positive,neutral,k,k,1,0.912877100001424,454.17802689999917,455.1935281999995,455.17422009999973,None,454.17802689999917,None,454.17802689999917,None,454.17802689999917,None,456.06940432999966,None,456.06940432999966,None,456.06940432999966,None,,,,,,,,,,,212,23,Female,2022-05-06_15h56.55.880,Main,2022.1.1,60.01237455197935,
positive,negative,2,l,j,,,,,,,,,9,11,173,14,,,,,,,,,,,,,,,,,,,,,,,,main,2,2,2,negative,positive,l,l,1,0.8985893999997643,456.09132639999916,457.1098631999994,457.0685076000009,None,456.09132639999916,None,456.09132639999916,None,456.09132639999916,None,457.97049493,None,457.97049493,None,457.97049493,None,,,,,,,,,,,212,23,Female,2022-05-06_15h56.55.880,Main,2022.1.1,60.01237455197935,
neutral,negative,1,k,k,,,,,,,,,9,12,174,7,,,,,,,,,,,,,,,,,,,,,,,,main,1,1,1,negative,neutral,k,k,1,0.7123387000010553,457.9959268999992,459.0165935999994,458.9728175,None,457.9959268999992,None,457.9959268999992,None,457.9959268999992,None,459.68270173000076,None,459.68270173000076,None,459.68270173000076,None,,,,,,,,,,,212,23,Female,2022-05-06_15h56.55.880,Main,2022.1.1,60.01237455197935,
positive,positive,1,l,j,,,,,,,,,9,13,175,2,,,,,,,,,,,,,,,,,,,,,,,,main,2,2,1,positive,positive,l,l,1,0.7838916000000609,459.7044339999993,460.71485100000064,460.6935697000008,None,459.7044339999993,None,459.7044339999993,None,459.7044339999993,None,461.47015863000036,None,461.47015863000036,None,461.47015863000036,None,,,,,,,,,,,212,23,Female,2022-05-06_15h56.55.880,Main,2022.1.1,60.01237455197935,
positive,positive,2,l,j,,,,,,,,,9,14,176,11,,,,,,,,,,,,,,,,,,,,,,,,main,2,2,2,positive,positive,l,l,1,0.720553099999961,461.4951872999991,462.50409670000045,462.4816498,None,461.4951872999991,None,461.4951872999991,None,461.4951872999991,None,463.1901315300007,None,463.1901315300007,None,463.1901315300007,None,,,,,,,,,,,212,23,Female,2022-05-06_15h56.55.880,Main,2022.1.1,60.01237455197935,
positive,neutral,1,l,j,,,,,,,,,9,15,177,8,,,,,,,,,,,,,,,,,,,,,,,,main,1,1,1,neutral,positive,l,l,1,0.7651526999998168,463.2165151999998,464.2330810000003,464.1943632000002,None,463.2165151999998,None,463.2165151999998,None,463.2165151999998,None,464.9611292300002,None,464.9611292300002,None,464.9611292300002,None,,,,,,,,,,,212,23,Female,2022-05-06_15h56.55.880,Main,2022.1.1,60.01237455197935,
neutral,positive,2,k,k,,,,,,,,,9,16,178,13,,,,,,,,,,,,,,,,,,,,,,,,main,1,1,2,positive,neutral,k,k,1,0.6996935000006488,464.98672389999956,465.9964548000007,465.9761968999992,None,464.98672389999956,None,464.98672389999956,None,464.98672389999956,None,466.66251203000013,None,466.66251203000013,None,466.66251203000013,None,,,,,,,,,,,212,23,Female,2022-05-06_15h56.55.880,Main,2022.1.1,60.01237455197935,
positive,negative,1,l,j,,,,,,,,,9,17,179,5,,,,,,,,,,,,,,,,,,,,,,,,main,2,2,1,negative,positive,l,l,1,0.8823105999999825,466.68834249999964,467.7080439000001,467.66719919999923,None,466.68834249999964,None,466.68834249999964,None,466.68834249999964,None,468.54635072999974,None,468.54635072999974,None,468.54635072999974,None,,,,,,,,,,,212,23,Female,2022-05-06_15h56.55.880,Main,2022.1.1,60.01237455197935,
positive,positive,1,l,j,,,,,,,,,10,0,180,2,,,,,,,,,,,,,,,,,,,,,,,,main,1,1,1,positive,positive,l,l,1,0.7133763999991061,468.5753652000003,469.5827814999993,469.5635932999994,None,468.5753652000003,None,468.5753652000003,None,468.5753652000003,None,470.2656434299994,None,470.2656434299994,None,470.2656434299994,None,,,,,,,,,,,212,23,Female,2022-05-06_15h56.55.880,Main,2022.1.1,60.01237455197935,
negative,negative,1,j,l,,,,,,,,,10,1,181,0,,,,,,,,,,,,,,,,,,,,,,,,main,2,2,1,negative,negative,j,j,1,1.0410585000008723,470.28924259999985,471.31027580000045,471.26741389999916,None,470.28924259999985,None,470.28924259999985,None,470.28924259999985,None,472.3088506299997,None,472.3088506299997,None,472.3088506299997,None,,,,,,,,,,,212,23,Female,2022-05-06_15h56.55.880,Main,2022.1.1,60.01237455197935,
positive,positive,2,l,j,,,,,,,,,10,2,182,11,,,,,,,,,,,,,,,,,,,,,,,,main,1,1,2,positive,positive,l,l,1,0.8827221000010468,472.3406503999995,473.34445659999983,473.32551389999935,None,472.3406503999995,None,472.3406503999995,None,472.3406503999995,None,474.1937176300004,None,474.1937176300004,None,474.1937176300004,None,,,,,,,,,,,212,23,Female,2022-05-06_15h56.55.880,Main,2022.1.1,60.01237455197935,
neutral,negative,2,k,k,,,,,,,,,10,3,183,16,,,,,,,,,,,,,,,,,,,,,,,,main,1,1,2,negative,neutral,k,k,1,0.6946016999991116,474.22558070000014,475.2328667999991,475.2135995000008,None,474.22558070000014,None,474.22558070000014,None,474.22558070000014,None,475.8936494300002,None,475.8936494300002,None,475.8936494300002,None,,,,,,,,,,,212,23,Female,2022-05-06_15h56.55.880,Main,2022.1.1,60.01237455197935,
positive,neutral,2,l,j,,,,,,,,,10,4,184,17,,,,,,,,,,,,,,,,,,,,,,,,main,2,2,2,neutral,positive,l,l,1,0.7053285000001779,475.91960239999935,476.9317374000002,476.90878110000085,None,475.91960239999935,None,475.91960239999935,None,475.91960239999935,None,477.61352955999905,None,477.61352955999905,None,477.61352955999905,None,,,,,,,,,,,212,23,Female,2022-05-06_15h56.55.880,Main,2022.1.1,60.01237455197935,
neutral,neutral,1,k,k,,,,,,,,,10,5,185,1,,,,,,,,,,,,,,,,,,,,,,,,main,1,1,1,neutral,neutral,k,k,1,0.7385818999991898,477.6322643000003,478.65986949999933,478.6343988999997,None,477.6322643000003,None,477.6322643000003,None,477.6322643000003,None,479.3587634600001,None,479.3587634600001,None,479.3587634600001,None,,,,,,,,,,,212,23,Female,2022-05-06_15h56.55.880,Main,2022.1.1,60.01237455197935,
negative,neutral,2,j,l,,,,,,,,,10,6,186,12,,,,,,,,,,,,,,,,,,,,,,,,main,2,2,2,neutral,negative,j,j,1,0.8583121000010578,479.38342139999986,480.3904168000008,480.3669222999997,None,479.38342139999986,None,479.38342139999986,None,479.38342139999986,None,481.20776182999964,None,481.20776182999964,None,481.20776182999964,None,,,,,,,,,,,212,23,Female,2022-05-06_15h56.55.880,Main,2022.1.1,60.01237455197935,
positive,negative,1,l,j,,,,,,,,,10,7,187,5,,,,,,,,,,,,,,,,,,,,,,,,main,1,1,1,negative,positive,l,l,1,0.7984460000006948,481.2352374000002,482.2591197999991,482.21545200000037,None,481.2352374000002,None,481.2352374000002,None,481.2352374000002,None,483.0105877299999,None,483.0105877299999,None,483.0105877299999,None,,,,,,,,,,,212,23,Female,2022-05-06_15h56.55.880,Main,2022.1.1,60.01237455197935,
negative,positive,2,j,l,,,,,,,,,10,8,188,15,,,,,,,,,,,,,,,,,,,,,,,,main,1,1,2,positive,negative,j,j,1,0.8367127000001346,483.0408631999999,484.05981729999985,484.01833160000024,None,483.0408631999999,None,483.0408631999999,None,483.0408631999999,None,484.85458123000046,None,484.85458123000046,None,484.85458123000046,None,,,,,,,,,,,212,23,Female,2022-05-06_15h56.55.880,Main,2022.1.1,60.01237455197935,
neutral,positive,1,k,k,,,,,,,,,10,9,189,4,,,,,,,,,,,,,,,,,,,,,,,,main,2,2,1,positive,neutral,k,k,1,0.8346617999995942,484.8820668999997,485.90268749999996,485.86320739999974,None,484.8820668999997,None,484.8820668999997,None,484.8820668999997,None,486.69453343000043,None,486.69453343000043,None,486.69453343000043,None,,,,,,,,,,,212,23,Female,2022-05-06_15h56.55.880,Main,2022.1.1,60.01237455197935,
neutral,positive,2,k,k,,,,,,,,,10,10,190,13,,,,,,,,,,,,,,,,,,,,,,,,main,1,1,2,positive,neutral,k,k,1,0.8428939000004902,486.72433529999944,487.7454216999995,487.70403570000053,None,486.72433529999944,None,486.72433529999944,None,486.72433529999944,None,488.5408607300002,None,488.5408607300002,None,488.5408607300002,None,,,,,,,,,,,212,23,Female,2022-05-06_15h56.55.880,Main,2022.1.1,60.01237455197935,
neutral,neutral,2,k,k,,,,,,,,,10,11,191,10,,,,,,,,,,,,,,,,,,,,,,,,main,1,1,2,neutral,neutral,k,k,1,0.7433271999998396,488.5686788999992,489.58861179999985,489.56764289999956,None,488.5686788999992,None,488.5686788999992,None,488.5686788999992,None,490.2891146299995,None,490.2891146299995,None,490.2891146299995,None,,,,,,,,,,,212,23,Female,2022-05-06_15h56.55.880,Main,2022.1.1,60.01237455197935,
negative,positive,1,j,l,,,,,,,,,10,12,192,6,,,,,,,,,,,,,,,,,,,,,,,,main,2,2,1,positive,negative,j,j,1,0.8217531999998755,490.3202956999994,491.3308376999994,491.3090998000007,None,490.3202956999994,None,490.3202956999994,None,490.3202956999994,None,492.11561033000055,None,492.11561033000055,None,492.11561033000055,None,,,,,,,,,,,212,23,Female,2022-05-06_15h56.55.880,Main,2022.1.1,60.01237455197935,
positive,neutral,1,l,j,,,,,,,,,10,13,193,8,,,,,,,,,,,,,,,,,,,,,,,,main,1,1,1,neutral,positive,l,l,1,0.9386061000004702,492.14135870000064,493.1523221999996,493.13038640000013,None,492.14135870000064,None,492.14135870000064,None,492.14135870000064,None,494.0580906300007,None,494.0580906300007,None,494.0580906300007,None,,,,,,,,,,,212,23,Female,2022-05-06_15h56.55.880,Main,2022.1.1,60.01237455197935,
neutral,negative,1,k,k,,,,,,,,,10,14,194,7,,,,,,,,,,,,,,,,,,,,,,,,main,1,1,1,negative,neutral,k,k,1,0.769323099999383,494.08093779999945,495.0894755999998,495.0683575000003,None,494.08093779999945,None,494.08093779999945,None,494.08093779999945,None,495.82843732999993,None,495.82843732999993,None,495.82843732999993,None,,,,,,,,,,,212,23,Female,2022-05-06_15h56.55.880,Main,2022.1.1,60.01237455197935,
positive,negative,2,l,j,,,,,,,,,10,15,195,14,,,,,,,,,,,,,,,,,,,,,,,,main,2,2,2,negative,positive,l,l,1,0.8097183999998379,495.85577849999936,496.87940490000074,496.8371554999994,None,495.85577849999936,None,495.85577849999936,None,495.85577849999936,None,497.6478565299991,None,497.6478565299991,None,497.6478565299991,None,,,,,,,,,,,212,23,Female,2022-05-06_15h56.55.880,Main,2022.1.1,60.01237455197935,
negative,neutral,1,j,l,,,,,,,,,10,16,196,3,,,,,,,,,,,,,,,,,,,,,,,,main,2,2,1,neutral,negative,j,j,1,0.8177278999992268,497.6749041999992,498.7055419999997,498.65601179999976,None,497.6749041999992,None,497.6749041999992,None,497.6749041999992,None,499.4696920299999,None,499.4696920299999,None,499.4696920299999,None,,,,,,,,,,,212,23,Female,2022-05-06_15h56.55.880,Main,2022.1.1,60.01237455197935,
negative,negative,2,j,l,,,,,,,,,10,17,197,9,,,,,,,,,,,,,,,,,,,,,,,,main,2,2,2,negative,negative,j,j,1,0.8062594000002719,499.4938736999993,500.5078570000005,500.4870666000006,None,499.4938736999993,None,499.4938736999993,None,499.4938736999993,None,501.28229643,None,501.28229643,None,501.28229643,None,,,,,,,,,,,212,23,Female,2022-05-06_15h56.55.880,Main,2022.1.1,60.01237455197935,
positive,negative,2,l,j,,,,,,,,,11,0,198,14,,,,,,,,,,,,,,,,,,,,,,,,main,1,1,2,negative,positive,l,l,1,0.7955052999986947,501.30516119999993,502.31649749999997,502.2943219000008,None,501.30516119999993,None,501.30516119999993,None,501.30516119999993,None,503.0761229299993,None,503.0761229299993,None,503.0761229299993,None,,,,,,,,,,,212,23,Female,2022-05-06_15h56.55.880,Main,2022.1.1,60.01237455197935,
neutral,positive,2,k,k,,,,,,,,,11,1,199,13,,,,,,,,,,,,,,,,,,,,,,,,main,2,2,2,positive,neutral,k,k,1,0.748370999999679,503.1031335000007,504.1246291000007,504.0824128000004,None,503.1031335000007,None,503.1031335000007,None,503.1031335000007,None,504.83028803000036,None,504.83028803000036,None,504.83028803000036,None,,,,,,,,,,,212,23,Female,2022-05-06_15h56.55.880,Main,2022.1.1,60.01237455197935,
neutral,negative,1,k,k,,,,,,,,,11,2,200,7,,,,,,,,,,,,,,,,,,,,,,,,main,2,2,1,negative,neutral,k,k,1,0.9135587000000669,504.8598426999997,505.8712391000008,505.84914709999975,None,504.8598426999997,None,504.8598426999997,None,504.8598426999997,None,506.74438412999973,None,506.74438412999973,None,506.74438412999973,None,,,,,,,,,,,212,23,Female,2022-05-06_15h56.55.880,Main,2022.1.1,60.01237455197935,
negative,neutral,2,j,l,,,,,,,,,11,3,201,12,,,,,,,,,,,,,,,,,,,,,,,,main,1,1,2,neutral,negative,j,j,1,0.7762155999989773,506.77133460000005,507.79096799999934,507.7691006999994,None,506.77133460000005,None,506.77133460000005,None,506.77133460000005,None,508.5253258300005,None,508.5253258300005,None,508.5253258300005,None,,,,,,,,,,,212,23,Female,2022-05-06_15h56.55.880,Main,2022.1.1,60.01237455197935,
positive,positive,1,l,j,,,,,,,,,11,4,202,2,,,,,,,,,,,,,,,,,,,,,,,,main,2,2,1,positive,positive,l,l,1,0.6644882000000507,508.5517942000006,509.56575239999984,509.5460839999996,None,508.5517942000006,None,508.5517942000006,None,508.5517942000006,None,510.19272583000077,None,510.19272583000077,None,510.19272583000077,None,,,,,,,,,,,212,23,Female,2022-05-06_15h56.55.880,Main,2022.1.1,60.01237455197935,
negative,neutral,1,j,l,,,,,,,,,11,5,203,3,,,,,,,,,,,,,,,,,,,,,,,,main,2,2,1,neutral,negative,j,j,1,0.7634154999996099,510.2219241999992,511.2256526000001,511.20573800000057,None,510.2219241999992,None,510.2219241999992,None,510.2219241999992,None,511.9599888300005,None,511.9599888300005,None,511.9599888300005,None,,,,,,,,,,,212,23,Female,2022-05-06_15h56.55.880,Main,2022.1.1,60.01237455197935,
neutral,positive,1,k,k,,,,,,,,,11,6,204,4,,,,,,,,,,,,,,,,,,,,,,,,main,1,1,1,positive,neutral,k,k,1,0.85401660000025,511.9852291999996,512.9890651000005,512.9687517000002,None,511.9852291999996,None,511.9852291999996,None,511.9852291999996,None,513.8181759299993,None,513.8181759299993,None,513.8181759299993,None,,,,,,,,,,,212,23,Female,2022-05-06_15h56.55.880,Main,2022.1.1,60.01237455197935,
positive,positive,2,l,j,,,,,,,,,11,7,205,11,,,,,,,,,,,,,,,,,,,,,,,,main,1,1,2,positive,positive,l,l,1,0.7696434999998019,513.8444340000005,514.8644256000007,514.8244938000007,None,513.8444340000005,None,513.8444340000005,None,513.8444340000005,None,515.5908753299997,None,515.5908753299997,None,515.5908753299997,None,,,,,,,,,,,212,23,Female,2022-05-06_15h56.55.880,Main,2022.1.1,60.01237455197935,
neutral,neutral,2,k,k,,,,,,,,,11,8,206,10,,,,,,,,,,,,,,,,,,,,,,,,main,1,1,2,neutral,neutral,k,k,1,0.7342035000001488,515.6206760000005,516.6418668000006,516.6028009000001,None,515.6206760000005,None,515.6206760000005,None,515.6206760000005,None,517.3283016299998,None,517.3283016299998,None,517.3283016299998,None,,,,,,,,,,,212,23,Female,2022-05-06_15h56.55.880,Main,2022.1.1,60.01237455197935,
negative,negative,1,j,l,,,,,,,,,11,9,207,0,,,,,,,,,,,,,,,,,,,,,,,,main,2,2,1,negative,negative,j,j,1,0.7638294999997015,517.3540059999996,518.3775664999994,518.3353148999995,None,517.3540059999996,None,517.3540059999996,None,517.3540059999996,None,519.0943501299995,None,519.0943501299995,None,519.0943501299995,None,,,,,,,,,,,212,23,Female,2022-05-06_15h56.55.880,Main,2022.1.1,60.01237455197935,
positive,neutral,2,l,j,,,,,,,,,11,10,208,17,,,,,,,,,,,,,,,,,,,,,,,,main,1,1,2,neutral,positive,l,l,1,0.7960408999988431,519.1218718,520.1324872000005,520.1133530000006,None,519.1218718,None,519.1218718,None,519.1218718,None,520.8943225299996,None,520.8943225299996,None,520.8943225299996,None,,,,,,,,,,,212,23,Female,2022-05-06_15h56.55.880,Main,2022.1.1,60.01237455197935,
