target,distractor,set,ans1,ans2,rep_loop2.thisRepN,rep_loop2.thisTrialN,rep_loop2.thisN,rep_loop2.thisIndex,flanker_prac_loop.thisRepN,flanker_prac_loop.thisTrialN,flanker_prac_loop.thisN,flanker_prac_loop.thisIndex,flanker_main_loop.thisRepN,flanker_main_loop.thisTrialN,flanker_main_loop.thisN,flanker_main_loop.thisIndex,fl_inst_resp.keys,mouse.x,mouse.y,mouse.leftButton,mouse.midButton,mouse.rightButton,mouse.started,mouse.stopped,sound_1.started,sound_1.stopped,no_text.started,no_text.stopped,yes_text.started,yes_text.stopped,mouse_2.x,mouse_2.y,mouse_2.leftButton,mouse_2.midButton,mouse_2.rightButton,mouse_2.started,mouse_2.stopped,back_2.started,back_2.stopped,main_prac,fl_cold,fl_colt,fl_set,fl_dcond,fl_tcond,fl_ans,fl_res,fl_corr,fl_rt,fix_fl.started,fix_fl.stopped,targ.started,targ.stopped,j_button.started,j_button.stopped,k_button.started,k_button.stopped,l_button.started,l_button.stopped,j_button2.started,j_button2.stopped,k_button2.started,k_button2.stopped,l_button2.started,l_button2.stopped,mainback.started,mainback.stopped,key_resp.keys,mouse_6.x,mouse_6.y,mouse_6.leftButton,mouse_6.midButton,mouse_6.rightButton,mouse_6.started,mouse_6.stopped,id*,age*,gender*,date,expName,psychopyVersion,frameRate,
,,,,,0,0,0,0,,,,,,,,,None,0.18703704,-0.28333333,0,0,0,1.0143027200042525,None,22.136217239999816,None,74.81531479999967,None,74.81531479999967,None,-0.11296296,-0.098148145,0,0,0,0.012684340000305383,None,,,,,,,,,,,,,,,,,,,,,,,,,,,,,,,,,,,,,,,213,24,Female,2022-05-10_14h17.14.551,Main,2022.1.1,59.99610025336378,
negative,neutral,2,j,l,,,,,0,0,0,12,,,,,,,,,,,,,,,,,,,,,,,,,,78.84581660000003,None,prac,2,2,2,neutral,negative,l,l,1,1.3162939000003462,80.9043185999999,81.92074559999992,81.88400719999981,None,80.9043185999999,None,80.9043185999999,None,80.9043185999999,None,83.18128053999985,None,83.18128053999985,None,83.18128053999985,None,,,,,,,,,,,213,24,Female,2022-05-10_14h17.14.551,Main,2022.1.1,59.99610025336378,
neutral,negative,1,k,k,,,,,0,1,1,7,,,,,,,,,,,,,,,,,,,,,,,,,,,,prac,2,2,1,negative,neutral,k,k,1,0.8889267999998083,83.22792799999979,84.23738569999978,84.20049530000006,None,83.22792799999979,None,83.22792799999979,None,83.22792799999979,None,85.07485454000002,None,85.07485454000002,None,85.07485454000002,None,,,,,,,,,,,213,24,Female,2022-05-10_14h17.14.551,Main,2022.1.1,59.99610025336378,
positive,neutral,2,l,j,,,,,0,2,2,17,,,,,,,,,,,,,,,,,,,,,,,,,,,,prac,2,2,2,neutral,positive,j,j,1,0.5492120999997496,85.11147879999999,86.12774760000002,86.08924109999998,None,85.11147879999999,None,85.11147879999999,None,85.11147879999999,None,86.62646673999993,None,86.62646673999993,None,86.62646673999993,None,,,,,,,,,,,213,24,Female,2022-05-10_14h17.14.551,Main,2022.1.1,59.99610025336378,
neutral,negative,2,k,k,,,,,0,3,3,16,,,,,,,,,,,,,,,,,,,,,,,,,,,,prac,1,1,2,negative,neutral,k,k,1,0.8019976000000497,86.66735769999968,87.68094789999986,87.6422063,None,86.66735769999968,None,86.66735769999968,None,86.66735769999968,None,88.43185853999998,None,88.43185853999998,None,88.43185853999998,None,,,,,,,,,,,213,24,Female,2022-05-10_14h17.14.551,Main,2022.1.1,59.99610025336378,
positive,negative,1,l,j,,,,,0,4,4,5,,,,,,,,,,,,,,,,,,,,,,,,,,,,prac,1,1,1,negative,positive,j,j,1,0.6273974000000635,88.47733659999994,89.4892961999999,89.45144789999995,None,88.47733659999994,None,88.47733659999994,None,88.47733659999994,None,90.06312493999971,None,90.06312493999971,None,90.06312493999971,None,,,,,,,,,,,213,24,Female,2022-05-10_14h17.14.551,Main,2022.1.1,59.99610025336378,
positive,positive,2,l,j,,,,,0,5,5,11,,,,,,,,,,,,,,,,,,,,,,,,,,,,prac,1,1,2,positive,positive,j,j,1,0.7584980999999971,90.0997468999999,91.10153579999997,91.08273919999965,None,90.0997468999999,None,90.0997468999999,None,90.0997468999999,None,91.82553863999996,None,91.82553863999996,None,91.82553863999996,None,,,,,,,,,,,213,24,Female,2022-05-10_14h17.14.551,Main,2022.1.1,59.99610025336378,
negative,negative,2,j,l,,,,,0,6,6,9,,,,,,,,,,,,,,,,,,,,,,,,,,,,prac,2,2,2,negative,negative,l,l,1,0.6147052999999687,91.85517419999996,92.87221709999994,92.85365629999978,None,91.85517419999996,None,91.85517419999996,None,91.85517419999996,None,93.44354503999998,None,93.44354503999998,None,93.44354503999998,None,,,,,,,,,,,213,24,Female,2022-05-10_14h17.14.551,Main,2022.1.1,59.99610025336378,
negative,positive,2,j,l,,,,,0,7,7,15,,,,,,,,,,,,,,,,,,,,,,,,,,,,prac,2,2,2,positive,negative,l,l,1,0.559266000000207,93.47440529999994,94.48642199999995,94.46830509999972,None,93.47440529999994,None,93.47440529999994,None,93.47440529999994,None,95.00268933999982,None,95.00268933999982,None,95.00268933999982,None,,,,,,,,,,,213,24,Female,2022-05-10_14h17.14.551,Main,2022.1.1,59.99610025336378,
neutral,neutral,1,k,k,,,,,0,8,8,1,,,,,,,,,,,,,,,,,,,,,,,,,,,,prac,2,2,1,neutral,neutral,k,k,1,0.5644326000001456,95.03478819999964,96.05211159999999,96.03343649999988,None,95.03478819999964,None,95.03478819999964,None,95.03478819999964,None,96.56881093999968,None,96.56881093999968,None,96.56881093999968,None,,,,,,,,,,,213,24,Female,2022-05-10_14h17.14.551,Main,2022.1.1,59.99610025336378,
positive,neutral,1,l,j,,,,,0,9,9,8,,,,,,,,,,,,,,,,,,,,,,,,,,,,prac,1,1,1,neutral,positive,j,j,1,0.5667677000001277,96.60611639999979,97.62300719999985,97.60340559999986,None,96.60611639999979,None,96.60611639999979,None,96.60611639999979,None,98.14082893999998,None,98.14082893999998,None,98.14082893999998,None,,,,,,,,,,,213,24,Female,2022-05-10_14h17.14.551,Main,2022.1.1,59.99610025336378,
negative,neutral,1,j,l,,,,,0,10,10,3,,,,,,,,,,,,,,,,,,,,,,,,,,,,prac,1,1,1,neutral,negative,l,l,1,0.6614016999997148,98.16055489999962,99.17939829999978,99.14076049999994,None,98.16055489999962,None,98.16055489999962,None,98.16055489999962,None,99.80244383999965,None,99.80244383999965,None,99.80244383999965,None,,,,,,,,,,,213,24,Female,2022-05-10_14h17.14.551,Main,2022.1.1,59.99610025336378,
negative,negative,1,j,l,,,,,0,11,11,0,,,,,,,,,,,,,,,,,,,,,,,,,,,,prac,1,1,1,negative,negative,l,l,1,0.622821699999804,99.82353560000001,100.83471809999992,100.79736899999989,None,99.82353560000001,None,99.82353560000001,None,99.82353560000001,None,101.4291905399999,None,101.4291905399999,None,101.4291905399999,None,,,,,,,,,,,213,24,Female,2022-05-10_14h17.14.551,Main,2022.1.1,59.99610025336378,
neutral,positive,1,k,k,,,,,0,12,12,4,,,,,,,,,,,,,,,,,,,,,,,,,,,,prac,2,2,1,positive,neutral,k,k,1,0.5817280000001119,101.46756629999982,102.47586839999985,102.45618239999976,None,101.46756629999982,None,101.46756629999982,None,101.46756629999982,None,103.0141326399997,None,103.0141326399997,None,103.0141326399997,None,,,,,,,,,,,213,24,Female,2022-05-10_14h17.14.551,Main,2022.1.1,59.99610025336378,
neutral,positive,2,k,k,,,,,0,13,13,13,,,,,,,,,,,,,,,,,,,,,,,,,,,,prac,1,1,2,positive,neutral,k,k,1,0.5643965999997818,103.03519349999988,104.03933869999992,104.02207989999988,None,103.03519349999988,None,103.03519349999988,None,103.03519349999988,None,104.58104343999989,None,104.58104343999989,None,104.58104343999989,None,,,,,,,,,,,213,24,Female,2022-05-10_14h17.14.551,Main,2022.1.1,59.99610025336378,
neutral,neutral,2,k,k,,,,,0,14,14,10,,,,,,,,,,,,,,,,,,,,,,,,,,,,prac,2,2,2,neutral,neutral,k,k,1,0.7239188999997168,104.60157429999981,105.61993269999994,105.58258099999966,None,104.60157429999981,None,104.60157429999981,None,104.60157429999981,None,106.30857703999968,None,106.30857703999968,None,106.30857703999968,None,,,,,,,,,,,213,24,Female,2022-05-10_14h17.14.551,Main,2022.1.1,59.99610025336378,
negative,positive,1,j,l,,,,,0,15,15,6,,,,,,,,,,,,,,,,,,,,,,,,,,,,prac,1,1,1,positive,negative,l,l,1,0.9501424000000043,106.34402090000003,107.36420429999998,107.34429319999981,None,106.34402090000003,None,106.34402090000003,None,106.34402090000003,None,108.26114293999976,None,108.26114293999976,None,108.26114293999976,None,,,,,,,,,,,213,24,Female,2022-05-10_14h17.14.551,Main,2022.1.1,59.99610025336378,
positive,negative,2,l,j,,,,,0,16,16,14,,,,,,,,,,,,,,,,,,,,,,,,,,,,prac,2,2,2,negative,positive,j,j,1,0.7419905000001563,108.28406969999969,109.3032605999997,109.26597099999981,None,108.28406969999969,None,108.28406969999969,None,108.28406969999969,None,110.00776433999985,None,110.00776433999985,None,110.00776433999985,None,,,,,,,,,,,213,24,Female,2022-05-10_14h17.14.551,Main,2022.1.1,59.99610025336378,
positive,positive,1,l,j,,,,,0,17,17,2,,,,,,,,,,,,,,,,,,,,,,,,,,,,prac,1,1,1,positive,positive,j,l,0,0.6246353999999883,110.02741739999965,111.03554579999991,111.01520389999996,None,110.02741739999965,None,110.02741739999965,None,110.02741739999965,None,111.65886150000006,None,111.65886150000006,None,111.65886150000006,None,,,,,,,,,,,213,24,Female,2022-05-10_14h17.14.551,Main,2022.1.1,59.99610025336378,
negative,positive,2,j,l,,,,,1,0,18,15,,,,,,,,,,,,,,,,,,,,,,,,,,,,prac,2,2,2,positive,negative,l,l,1,0.7814898999999969,112.6691493999997,113.68133469999975,113.6616552999999,None,112.6691493999997,None,112.6691493999997,None,112.6691493999997,None,114.43034243999986,None,114.43034243999986,None,114.43034243999986,None,,,,,,,,,,,213,24,Female,2022-05-10_14h17.14.551,Main,2022.1.1,59.99610025336378,
negative,neutral,2,j,l,,,,,1,1,19,12,,,,,,,,,,,,,,,,,,,,,,,,,,,,prac,1,1,2,neutral,negative,l,l,1,0.6333872999998675,114.4635731999997,115.47685189999993,115.43817149999995,None,114.4635731999997,None,114.4635731999997,None,114.4635731999997,None,116.06673673999998,None,116.06673673999998,None,116.06673673999998,None,,,,,,,,,,,213,24,Female,2022-05-10_14h17.14.551,Main,2022.1.1,59.99610025336378,
positive,positive,1,l,j,,,,,1,2,20,2,,,,,,,,,,,,,,,,,,,,,,,,,,,,prac,2,2,1,positive,positive,j,j,1,0.7403424000003724,116.08773969999993,117.09831880000002,117.05992239999978,None,116.08773969999993,None,116.08773969999993,None,116.08773969999993,None,117.81113723999974,None,117.81113723999974,None,117.81113723999974,None,,,,,,,,,,,213,24,Female,2022-05-10_14h17.14.551,Main,2022.1.1,59.99610025336378,
negative,positive,1,j,l,,,,,1,3,21,6,,,,,,,,,,,,,,,,,,,,,,,,,,,,prac,2,2,1,positive,negative,l,l,1,0.6395160000001852,117.83198139999968,118.835736,118.81700739999997,None,117.83198139999968,None,117.83198139999968,None,117.83198139999968,None,119.45312283999996,None,119.45312283999996,None,119.45312283999996,None,,,,,,,,,,,213,24,Female,2022-05-10_14h17.14.551,Main,2022.1.1,59.99610025336378,
neutral,negative,1,k,k,,,,,1,4,22,7,,,,,,,,,,,,,,,,,,,,,,,,,,,,prac,2,2,1,negative,neutral,k,k,1,0.6271507999999812,119.47364070000003,120.4938044999999,120.45516289999978,None,119.47364070000003,None,119.47364070000003,None,119.47364070000003,None,121.08304763999999,None,121.08304763999999,None,121.08304763999999,None,,,,,,,,,,,213,24,Female,2022-05-10_14h17.14.551,Main,2022.1.1,59.99610025336378,
neutral,neutral,1,k,k,,,,,1,5,23,1,,,,,,,,,,,,,,,,,,,,,,,,,,,,prac,1,1,1,neutral,neutral,k,k,1,0.5308093000003282,121.10277039999983,122.10401339999999,122.0853775999999,None,121.10277039999983,None,121.10277039999983,None,121.10277039999983,None,122.61609273999997,None,122.61609273999997,None,122.61609273999997,None,,,,,,,,,,,213,24,Female,2022-05-10_14h17.14.551,Main,2022.1.1,59.99610025336378,
positive,neutral,1,l,j,,,,,1,6,24,8,,,,,,,,,,,,,,,,,,,,,,,,,,,,prac,1,1,1,neutral,positive,j,j,1,0.6956084000003102,122.63571009999987,123.64443549999987,123.62564879999991,None,122.63571009999987,None,122.63571009999987,None,122.63571009999987,None,124.31388053999976,None,124.31388053999976,None,124.31388053999976,None,,,,,,,,,,,213,24,Female,2022-05-10_14h17.14.551,Main,2022.1.1,59.99610025336378,
negative,neutral,1,j,l,,,,,1,7,25,3,,,,,,,,,,,,,,,,,,,,,,,,,,,,prac,1,1,1,neutral,negative,l,l,1,0.5889852000000246,124.33298939999986,125.35301379999964,125.31433309999966,None,124.33298939999986,None,124.33298939999986,None,124.33298939999986,None,125.90498453999984,None,125.90498453999984,None,125.90498453999984,None,,,,,,,,,,,213,24,Female,2022-05-10_14h17.14.551,Main,2022.1.1,59.99610025336378,
positive,negative,1,l,j,,,,,1,8,26,5,,,,,,,,,,,,,,,,,,,,,,,,,,,,prac,2,2,1,negative,positive,j,j,1,0.7230033000000731,125.92535279999993,126.94006249999984,126.90224009999974,None,125.92535279999993,None,125.92535279999993,None,125.92535279999993,None,127.62971363999972,None,127.62971363999972,None,127.62971363999972,None,,,,,,,,,,,213,24,Female,2022-05-10_14h17.14.551,Main,2022.1.1,59.99610025336378,
negative,negative,1,j,l,,,,,1,9,27,0,,,,,,,,,,,,,,,,,,,,,,,,,,,,prac,2,2,1,negative,negative,l,l,1,0.716558100000384,127.64997449999964,128.65659669999968,128.63709579999977,None,127.64997449999964,None,127.64997449999964,None,127.64997449999964,None,129.34778203999971,None,129.34778203999971,None,129.34778203999971,None,,,,,,,,,,,213,24,Female,2022-05-10_14h17.14.551,Main,2022.1.1,59.99610025336378,
positive,neutral,2,l,j,,,,,1,10,28,17,,,,,,,,,,,,,,,,,,,,,,,,,,,,prac,2,2,2,neutral,positive,j,l,0,1.350715399999899,129.36941509999997,130.3776011,130.3583291,None,129.36941509999997,None,129.36941509999997,None,129.36941509999997,None,131.70903689999977,None,131.70903689999977,None,131.70903689999977,None,,,,,,,,,,,213,24,Female,2022-05-10_14h17.14.551,Main,2022.1.1,59.99610025336378,
neutral,positive,1,k,k,,,,,1,11,29,4,,,,,,,,,,,,,,,,,,,,,,,,,,,,prac,1,1,1,positive,neutral,k,l,0,-0.3736999999996442,132.7330165999997,None,None,None,132.7330165999997,None,132.7330165999997,None,132.7330165999997,None,133.35469269999976,None,133.35469269999976,None,133.35469269999976,None,,,,,,,,,,,213,24,Female,2022-05-10_14h17.14.551,Main,2022.1.1,59.99610025336378,
neutral,positive,2,k,k,,,,,1,12,30,13,,,,,,,,,,,,,,,,,,,,,,,,,,,,prac,2,2,2,positive,neutral,k,k,1,1.1213861000001089,136.36677869999994,137.37178419999964,137.35248739999997,None,136.36677869999994,None,136.36677869999994,None,136.36677869999994,None,138.46742323999965,None,138.46742323999965,None,138.46742323999965,None,,,,,,,,,,,213,24,Female,2022-05-10_14h17.14.551,Main,2022.1.1,59.99610025336378,
neutral,neutral,2,k,k,,,,,1,13,31,10,,,,,,,,,,,,,,,,,,,,,,,,,,,,prac,2,2,2,neutral,neutral,k,k,1,0.5482760999998391,138.48764189999974,139.50050089999968,139.4630262999999,None,138.48764189999974,None,138.48764189999974,None,138.48764189999974,None,140.01982484000004,None,140.01982484000004,None,140.01982484000004,None,,,,,,,,,,,213,24,Female,2022-05-10_14h17.14.551,Main,2022.1.1,59.99610025336378,
neutral,negative,2,k,k,,,,,1,14,32,16,,,,,,,,,,,,,,,,,,,,,,,,,,,,prac,1,1,2,negative,neutral,k,k,1,0.5920937999999296,140.03955049999968,141.04273759999978,141.02313989999993,None,140.03955049999968,None,140.03955049999968,None,140.03955049999968,None,141.61259153999967,None,141.61259153999967,None,141.61259153999967,None,,,,,,,,,,,213,24,Female,2022-05-10_14h17.14.551,Main,2022.1.1,59.99610025336378,
negative,negative,2,j,l,,,,,1,15,33,9,,,,,,,,,,,,,,,,,,,,,,,,,,,,prac,2,2,2,negative,negative,l,l,1,0.644703699999809,141.63194729999987,142.6501920999999,142.61168839999982,None,141.63194729999987,None,141.63194729999987,None,141.63194729999987,None,143.25960563999965,None,143.25960563999965,None,143.25960563999965,None,,,,,,,,,,,213,24,Female,2022-05-10_14h17.14.551,Main,2022.1.1,59.99610025336378,
positive,negative,2,l,j,,,,,1,16,34,14,,,,,,,,,,,,,,,,,,,,,,,,,,,,prac,2,2,2,negative,positive,j,j,1,0.7278000999999676,143.2797083999999,144.2821414,144.26370709999992,None,143.2797083999999,None,143.2797083999999,None,143.2797083999999,None,144.99106983999977,None,144.99106983999977,None,144.99106983999977,None,,,,,,,,,,,213,24,Female,2022-05-10_14h17.14.551,Main,2022.1.1,59.99610025336378,
positive,positive,2,l,j,,,,,1,17,35,11,,,,,,,,,,,,,,,,,,,,,,,,,,,,prac,1,1,2,positive,positive,j,j,1,0.680354200000238,145.01137579999977,146.02495929999986,145.98480359999985,None,145.01137579999977,None,145.01137579999977,None,145.01137579999977,None,146.6751067399999,None,146.6751067399999,None,146.6751067399999,None,,,,,,,,,,,213,24,Female,2022-05-10_14h17.14.551,Main,2022.1.1,59.99610025336378,
,,,,,,,,,,,,,,,,,,,,,,,,,,,,,,,,,,,,,,,,,,,,,,,,,,,,,,,,,,,,,,,,,,146.68051119999973,None,None,,,,,,,,213,24,Female,2022-05-10_14h17.14.551,Main,2022.1.1,59.99610025336378,
,,,,,,,,,,,,,,,,,,,,,,,,,,,,,,,,,,,,,,,,,,,,,,,,,,,,,,,,,,,,,,,,,,,,,-0.05740741,-0.055555556,1,0,0,0.0049409399998694425,None,213,24,Female,2022-05-10_14h17.14.551,Main,2022.1.1,59.99610025336378,
negative,neutral,2,j,l,,,,,,,,,0,0,0,12,,,,,,,,,,,,,,,,,,,,,,157.3358444999999,None,main,2,2,2,neutral,negative,l,l,1,0.7264694000000418,159.3576294999998,160.37559789999978,160.33899410000004,None,159.3576294999998,None,159.3576294999998,None,159.3576294999998,None,161.06214873999974,None,161.06214873999974,None,161.06214873999974,None,,,,,,,,,,,213,24,Female,2022-05-10_14h17.14.551,Main,2022.1.1,59.99610025336378,
positive,negative,1,l,j,,,,,,,,,0,1,1,5,,,,,,,,,,,,,,,,,,,,,,,,main,1,1,1,negative,positive,j,j,1,0.6594033000001218,161.08575979999978,162.09244779999972,162.07354439999972,None,161.08575979999978,None,161.08575979999978,None,161.08575979999978,None,162.7251604399997,None,162.7251604399997,None,162.7251604399997,None,,,,,,,,,,,213,24,Female,2022-05-10_14h17.14.551,Main,2022.1.1,59.99610025336378,
neutral,neutral,2,k,k,,,,,,,,,0,2,2,10,,,,,,,,,,,,,,,,,,,,,,,,main,2,2,2,neutral,neutral,k,k,1,0.5350301000003128,162.74762359999977,163.76593619999994,163.73785150000003,None,162.74762359999977,None,162.74762359999977,None,162.74762359999977,None,164.26512573999966,None,164.26512573999966,None,164.26512573999966,None,,,,,,,,,,,213,24,Female,2022-05-10_14h17.14.551,Main,2022.1.1,59.99610025336378,
positive,positive,2,l,j,,,,,,,,,0,3,3,11,,,,,,,,,,,,,,,,,,,,,,,,main,1,1,2,positive,positive,j,j,1,0.7493813999999475,164.28696979999995,165.29731019999963,165.27886059999992,None,164.28696979999995,None,164.28696979999995,None,164.28696979999995,None,166.0170153399998,None,166.0170153399998,None,166.0170153399998,None,,,,,,,,,,,213,24,Female,2022-05-10_14h17.14.551,Main,2022.1.1,59.99610025336378,
negative,neutral,1,j,l,,,,,,,,,0,4,4,3,,,,,,,,,,,,,,,,,,,,,,,,main,2,2,1,neutral,negative,l,l,1,0.6691562000000886,166.0368583999998,167.0394799999999,167.02120479999985,None,166.0368583999998,None,166.0368583999998,None,166.0368583999998,None,167.68863173999975,None,167.68863173999975,None,167.68863173999975,None,,,,,,,,,,,213,24,Female,2022-05-10_14h17.14.551,Main,2022.1.1,59.99610025336378,
positive,positive,1,l,j,,,,,,,,,0,5,5,2,,,,,,,,,,,,,,,,,,,,,,,,main,2,2,1,positive,positive,j,j,1,0.7517012000002978,167.70979979999993,168.7180731999997,168.69856179999988,None,167.70979979999993,None,167.70979979999993,None,167.70979979999993,None,169.44259353999982,None,169.44259353999982,None,169.44259353999982,None,,,,,,,,,,,213,24,Female,2022-05-10_14h17.14.551,Main,2022.1.1,59.99610025336378,
negative,negative,1,j,l,,,,,,,,,0,6,6,0,,,,,,,,,,,,,,,,,,,,,,,,main,2,2,1,negative,negative,l,l,1,0.6162823999998182,169.46718329999976,170.48403129999997,170.44659749999983,None,169.46718329999976,None,169.46718329999976,None,169.46718329999976,None,171.0632891399999,None,171.0632891399999,None,171.0632891399999,None,,,,,,,,,,,213,24,Female,2022-05-10_14h17.14.551,Main,2022.1.1,59.99610025336378,
negative,positive,2,j,l,,,,,,,,,0,7,7,15,,,,,,,,,,,,,,,,,,,,,,,,main,2,2,2,positive,negative,l,j,0,0.7517517999999654,171.08302689999982,172.08974669999998,172.07101160000002,None,171.08302689999982,None,171.08302689999982,None,171.08302689999982,None,172.8246626,None,172.8246626,None,172.8246626,None,,,,,,,,,,,213,24,Female,2022-05-10_14h17.14.551,Main,2022.1.1,59.99610025336378,
positive,neutral,2,l,j,,,,,,,,,0,8,8,17,,,,,,,,,,,,,,,,,,,,,,,,main,2,2,2,neutral,positive,j,j,1,0.6547637000003306,173.8448601,174.85033179999982,174.8312775999998,None,173.8448601,None,173.8448601,None,173.8448601,None,175.48144113999965,None,175.48144113999965,None,175.48144113999965,None,,,,,,,,,,,213,24,Female,2022-05-10_14h17.14.551,Main,2022.1.1,59.99610025336378,
neutral,negative,1,k,k,,,,,,,,,0,9,9,7,,,,,,,,,,,,,,,,,,,,,,,,main,2,2,1,negative,neutral,k,k,1,0.6633730000003197,175.50089959999968,176.51701060000005,176.47912069999984,None,175.50089959999968,None,175.50089959999968,None,175.50089959999968,None,177.14602713999997,None,177.14602713999997,None,177.14602713999997,None,,,,,,,,,,,213,24,Female,2022-05-10_14h17.14.551,Main,2022.1.1,59.99610025336378,
neutral,neutral,1,k,k,,,,,,,,,0,10,10,1,,,,,,,,,,,,,,,,,,,,,,,,main,1,1,1,neutral,neutral,k,k,1,0.5957195000000866,177.16738239999995,178.1756934,178.15716209999982,None,177.16738239999995,None,177.16738239999995,None,177.16738239999995,None,178.74601573999993,None,178.74601573999993,None,178.74601573999993,None,,,,,,,,,,,213,24,Female,2022-05-10_14h17.14.551,Main,2022.1.1,59.99610025336378,
negative,negative,2,j,l,,,,,,,,,0,11,11,9,,,,,,,,,,,,,,,,,,,,,,,,main,1,1,2,negative,negative,l,l,1,0.5857799999998861,178.76961219999976,179.77794819999963,179.74041119999993,None,178.76961219999976,None,178.76961219999976,None,178.76961219999976,None,180.3348323399999,None,180.3348323399999,None,180.3348323399999,None,,,,,,,,,,,213,24,Female,2022-05-10_14h17.14.551,Main,2022.1.1,59.99610025336378,
neutral,positive,2,k,k,,,,,,,,,0,12,12,13,,,,,,,,,,,,,,,,,,,,,,,,main,1,1,2,positive,neutral,k,k,1,0.8152725999998438,180.35623309999983,181.37546909999992,181.33851389999973,None,180.35623309999983,None,180.35623309999983,None,180.35623309999983,None,182.15349703999968,None,182.15349703999968,None,182.15349703999968,None,,,,,,,,,,,213,24,Female,2022-05-10_14h17.14.551,Main,2022.1.1,59.99610025336378,
neutral,positive,1,k,k,,,,,,,,,0,13,13,4,,,,,,,,,,,,,,,,,,,,,,,,main,1,1,1,positive,neutral,k,k,1,0.6641300999999658,182.17596520000006,183.19072289999986,183.15212629999996,None,182.17596520000006,None,182.17596520000006,None,182.17596520000006,None,183.82073883999996,None,183.82073883999996,None,183.82073883999996,None,,,,,,,,,,,213,24,Female,2022-05-10_14h17.14.551,Main,2022.1.1,59.99610025336378,
positive,neutral,1,l,j,,,,,,,,,0,14,14,8,,,,,,,,,,,,,,,,,,,,,,,,main,2,2,1,neutral,positive,j,j,1,0.6868760999996084,183.84133219999967,184.86298249999982,184.82352049999963,None,183.84133219999967,None,183.84133219999967,None,183.84133219999967,None,185.51027943999983,None,185.51027943999983,None,185.51027943999983,None,,,,,,,,,,,213,24,Female,2022-05-10_14h17.14.551,Main,2022.1.1,59.99610025336378,
negative,positive,1,j,l,,,,,,,,,0,15,15,6,,,,,,,,,,,,,,,,,,,,,,,,main,1,1,1,positive,negative,l,l,1,0.624659199999769,185.53140719999965,186.54447589999972,186.50464250000005,None,185.53140719999965,None,185.53140719999965,None,185.53140719999965,None,187.13682133999995,None,187.13682133999995,None,187.13682133999995,None,,,,,,,,,,,213,24,Female,2022-05-10_14h17.14.551,Main,2022.1.1,59.99610025336378,
neutral,negative,2,k,k,,,,,,,,,0,16,16,16,,,,,,,,,,,,,,,,,,,,,,,,main,2,2,2,negative,neutral,k,k,1,0.7591259000000719,187.15878159999966,188.16466039999978,188.14522529999977,None,187.15878159999966,None,187.15878159999966,None,187.15878159999966,None,188.9008102399997,None,188.9008102399997,None,188.9008102399997,None,,,,,,,,,,,213,24,Female,2022-05-10_14h17.14.551,Main,2022.1.1,59.99610025336378,
positive,negative,2,l,j,,,,,,,,,0,17,17,14,,,,,,,,,,,,,,,,,,,,,,,,main,2,2,2,negative,positive,j,j,1,0.7057064999999056,188.92236860000003,189.92357709999987,189.90476099999978,None,188.92236860000003,None,188.92236860000003,None,188.92236860000003,None,190.6108921399999,None,190.6108921399999,None,190.6108921399999,None,,,,,,,,,,,213,24,Female,2022-05-10_14h17.14.551,Main,2022.1.1,59.99610025336378,
positive,positive,2,l,j,,,,,,,,,1,0,18,11,,,,,,,,,,,,,,,,,,,,,,,,main,1,1,2,positive,positive,j,j,1,0.8447608999999829,190.63112739999997,191.63573169999972,191.61680089999982,None,190.63112739999997,None,190.63112739999997,None,190.63112739999997,None,192.45627344,None,192.45627344,None,192.45627344,None,,,,,,,,,,,213,24,Female,2022-05-10_14h17.14.551,Main,2022.1.1,59.99610025336378,
negative,neutral,2,j,l,,,,,,,,,1,1,19,12,,,,,,,,,,,,,,,,,,,,,,,,main,1,1,2,neutral,negative,l,l,1,0.6744693000000552,192.47638310000002,193.48972709999998,193.45031879999988,None,192.47638310000002,None,192.47638310000002,None,192.47638310000002,None,194.13508623999982,None,194.13508623999982,None,194.13508623999982,None,,,,,,,,,,,213,24,Female,2022-05-10_14h17.14.551,Main,2022.1.1,59.99610025336378,
neutral,negative,1,k,k,,,,,,,,,1,2,20,7,,,,,,,,,,,,,,,,,,,,,,,,main,1,1,1,negative,neutral,k,k,1,0.6881017000000611,194.1557260999998,195.15952949999973,195.14045319999968,None,194.1557260999998,None,194.1557260999998,None,194.1557260999998,None,195.82624133999965,None,195.82624133999965,None,195.82624133999965,None,,,,,,,,,,,213,24,Female,2022-05-10_14h17.14.551,Main,2022.1.1,59.99610025336378,
negative,positive,1,j,l,,,,,,,,,1,3,21,6,,,,,,,,,,,,,,,,,,,,,,,,main,1,1,1,positive,negative,l,k,0,0.6808636000000661,195.85042329999987,196.8553268999999,196.83668820000003,None,195.85042329999987,None,195.85042329999987,None,195.85042329999987,None,197.51670509999985,None,197.51670509999985,None,197.51670509999985,None,,,,,,,,,,,213,24,Female,2022-05-10_14h17.14.551,Main,2022.1.1,59.99610025336378,
neutral,neutral,2,k,k,,,,,,,,,1,4,22,10,,,,,,,,,,,,,,,,,,,,,,,,main,2,2,2,neutral,neutral,k,k,1,0.6989341000003151,198.54215619999968,199.55337899999995,199.5338044,None,198.54215619999968,None,198.54215619999968,None,198.54215619999968,None,200.22023784000007,None,200.22023784000007,None,200.22023784000007,None,,,,,,,,,,,213,24,Female,2022-05-10_14h17.14.551,Main,2022.1.1,59.99610025336378,
positive,negative,1,l,j,,,,,,,,,1,5,23,5,,,,,,,,,,,,,,,,,,,,,,,,main,2,2,1,negative,positive,j,j,1,0.6856339999999363,200.24217839999983,201.26143509999974,201.22300339999993,None,200.24217839999983,None,200.24217839999983,None,200.24217839999983,None,201.9091117399997,None,201.9091117399997,None,201.9091117399997,None,,,,,,,,,,,213,24,Female,2022-05-10_14h17.14.551,Main,2022.1.1,59.99610025336378,
positive,neutral,1,l,j,,,,,,,,,1,6,24,8,,,,,,,,,,,,,,,,,,,,,,,,main,1,1,1,neutral,positive,j,j,1,0.7804792999995698,201.92976969999972,202.93660169999976,202.91827539999986,None,201.92976969999972,None,201.92976969999972,None,201.92976969999972,None,203.6894402399997,None,203.6894402399997,None,203.6894402399997,None,,,,,,,,,,,213,24,Female,2022-05-10_14h17.14.551,Main,2022.1.1,59.99610025336378,
neutral,neutral,1,k,k,,,,,,,,,1,7,25,1,,,,,,,,,,,,,,,,,,,,,,,,main,1,1,1,neutral,neutral,k,k,1,0.7525352000002385,203.71282799999972,204.72366269999975,204.70496090000006,None,203.71282799999972,None,203.71282799999972,None,203.71282799999972,None,205.44916064000003,None,205.44916064000003,None,205.44916064000003,None,,,,,,,,,,,213,24,Female,2022-05-10_14h17.14.551,Main,2022.1.1,59.99610025336378,
negative,negative,2,j,l,,,,,,,,,1,8,26,9,,,,,,,,,,,,,,,,,,,,,,,,main,2,2,2,negative,negative,l,l,1,0.7119701000001442,205.4700528999997,206.47968739999988,206.46048029999974,None,205.4700528999997,None,205.4700528999997,None,205.4700528999997,None,207.16543083999963,None,207.16543083999963,None,207.16543083999963,None,,,,,,,,,,,213,24,Female,2022-05-10_14h17.14.551,Main,2022.1.1,59.99610025336378,
neutral,positive,1,k,k,,,,,,,,,1,9,27,4,,,,,,,,,,,,,,,,,,,,,,,,main,2,2,1,positive,neutral,k,k,1,0.7130713000001379,207.18752089999998,208.20722320000004,208.16895969999996,None,207.18752089999998,None,207.18752089999998,None,207.18752089999998,None,208.88259883999976,None,208.88259883999976,None,208.88259883999976,None,,,,,,,,,,,213,24,Female,2022-05-10_14h17.14.551,Main,2022.1.1,59.99610025336378,
positive,neutral,2,l,j,,,,,,,,,1,10,28,17,,,,,,,,,,,,,,,,,,,,,,,,main,1,1,2,neutral,positive,j,j,1,0.8336911999999757,208.90461539999978,209.92041329999984,209.88366700000006,None,208.90461539999978,None,208.90461539999978,None,208.90461539999978,None,210.71951933999966,None,210.71951933999966,None,210.71951933999966,None,,,,,,,,,,,213,24,Female,2022-05-10_14h17.14.551,Main,2022.1.1,59.99610025336378,
neutral,positive,2,k,k,,,,,,,,,1,11,29,13,,,,,,,,,,,,,,,,,,,,,,,,main,2,2,2,positive,neutral,k,k,1,0.7582461000001786,210.74043429999983,211.75076360000003,211.73105639999994,None,210.74043429999983,None,210.74043429999983,None,210.74043429999983,None,212.48176483999973,None,212.48176483999973,None,212.48176483999973,None,,,,,,,,,,,213,24,Female,2022-05-10_14h17.14.551,Main,2022.1.1,59.99610025336378,
negative,neutral,1,j,l,,,,,,,,,1,12,30,3,,,,,,,,,,,,,,,,,,,,,,,,main,1,1,1,neutral,negative,l,l,1,0.7393357000000833,212.50392599999986,213.52124830000002,213.52124830000002,None,212.50392599999986,None,212.50392599999986,None,212.50392599999986,None,214.2250473399998,None,214.2250473399998,None,214.2250473399998,None,,,,,,,,,,,213,24,Female,2022-05-10_14h17.14.551,Main,2022.1.1,59.99610025336378,
positive,positive,1,l,j,,,,,,,,,1,13,31,2,,,,,,,,,,,,,,,,,,,,,,,,main,2,2,1,positive,positive,j,j,1,1.068976499999735,214.24907110000004,215.26257570000007,215.22417219999988,None,214.24907110000004,None,214.24907110000004,None,214.24907110000004,None,216.29751143999997,None,216.29751143999997,None,216.29751143999997,None,,,,,,,,,,,213,24,Female,2022-05-10_14h17.14.551,Main,2022.1.1,59.99610025336378,
negative,positive,2,j,l,,,,,,,,,1,14,32,15,,,,,,,,,,,,,,,,,,,,,,,,main,2,2,2,positive,negative,l,l,1,0.7010890000001382,216.31763309999997,217.32442579999997,217.30551949999972,None,216.31763309999997,None,216.31763309999997,None,216.31763309999997,None,217.99949233999982,None,217.99949233999982,None,217.99949233999982,None,,,,,,,,,,,213,24,Female,2022-05-10_14h17.14.551,Main,2022.1.1,59.99610025336378,
positive,negative,2,l,j,,,,,,,,,1,15,33,14,,,,,,,,,,,,,,,,,,,,,,,,main,1,1,2,negative,positive,j,j,1,0.8911342999999761,218.0217779999998,219.03871839999965,219.00109969999994,None,218.0217779999998,None,218.0217779999998,None,218.0217779999998,None,219.89626993999977,None,219.89626993999977,None,219.89626993999977,None,,,,,,,,,,,213,24,Female,2022-05-10_14h17.14.551,Main,2022.1.1,59.99610025336378,
negative,negative,1,j,l,,,,,,,,,1,16,34,0,,,,,,,,,,,,,,,,,,,,,,,,main,2,2,1,negative,negative,l,l,1,0.6777385999998842,219.91655049999963,220.92205369999965,220.90220649999992,None,219.91655049999963,None,219.91655049999963,None,219.91655049999963,None,221.57769623999988,None,221.57769623999988,None,221.57769623999988,None,,,,,,,,,,,213,24,Female,2022-05-10_14h17.14.551,Main,2022.1.1,59.99610025336378,
neutral,negative,2,k,k,,,,,,,,,1,17,35,16,,,,,,,,,,,,,,,,,,,,,,,,main,2,2,2,negative,neutral,k,k,1,0.900604000000385,221.60085230000004,222.60674249999965,222.58786859999964,None,221.60085230000004,None,221.60085230000004,None,221.60085230000004,None,223.48211093999984,None,223.48211093999984,None,223.48211093999984,None,,,,,,,,,,,213,24,Female,2022-05-10_14h17.14.551,Main,2022.1.1,59.99610025336378,
negative,negative,2,j,l,,,,,,,,,2,0,36,9,,,,,,,,,,,,,,,,,,,,,,,,main,2,2,2,negative,negative,l,l,1,1.0665079000000333,223.5021512999997,224.50480289999996,224.48536739999963,None,223.5021512999997,None,223.5021512999997,None,223.5021512999997,None,225.55030333999989,None,225.55030333999989,None,225.55030333999989,None,,,,,,,,,,,213,24,Female,2022-05-10_14h17.14.551,Main,2022.1.1,59.99610025336378,
positive,neutral,1,l,j,,,,,,,,,2,1,37,8,,,,,,,,,,,,,,,,,,,,,,,,main,2,2,1,neutral,positive,j,j,1,0.7224966999997378,225.5713639999999,226.59263829999963,226.5530776999999,None,225.5713639999999,None,225.5713639999999,None,225.5713639999999,None,227.27777894000005,None,227.27777894000005,None,227.27777894000005,None,,,,,,,,,,,213,24,Female,2022-05-10_14h17.14.551,Main,2022.1.1,59.99610025336378,
positive,neutral,2,l,j,,,,,,,,,2,2,38,17,,,,,,,,,,,,,,,,,,,,,,,,main,1,1,2,neutral,positive,j,j,1,0.7926449999999932,227.29767779999975,228.31417789999978,228.27625099999977,None,227.29767779999975,None,227.29767779999975,None,227.29767779999975,None,229.07280363999993,None,229.07280363999993,None,229.07280363999993,None,,,,,,,,,,,213,24,Female,2022-05-10_14h17.14.551,Main,2022.1.1,59.99610025336378,
neutral,neutral,2,k,k,,,,,,,,,2,3,39,10,,,,,,,,,,,,,,,,,,,,,,,,main,1,1,2,neutral,neutral,k,k,1,0.07734140000002299,229.09375339999997,230.11221699999987,230.0739684,None,229.09375339999997,None,229.09375339999997,None,229.09375339999997,None,230.16015119999975,None,230.16015119999975,None,230.16015119999975,None,,,,,,,,,,,213,24,Female,2022-05-10_14h17.14.551,Main,2022.1.1,59.99610025336378,
negative,neutral,1,j,l,,,,,,,,,2,4,40,3,,,,,,,,,,,,,,,,,,,,,,,,main,2,2,1,neutral,negative,l,l,1,0.7334608000001026,233.17013599999973,234.17617759999985,234.15720369999963,None,233.17013599999973,None,233.17013599999973,None,233.17013599999973,None,234.88383603999986,None,234.88383603999986,None,234.88383603999986,None,,,,,,,,,,,213,24,Female,2022-05-10_14h17.14.551,Main,2022.1.1,59.99610025336378,
positive,positive,2,l,j,,,,,,,,,2,5,41,11,,,,,,,,,,,,,,,,,,,,,,,,main,2,2,2,positive,positive,j,j,1,0.7044076999995923,234.90506969999979,235.91790459999993,235.88001480000003,None,234.90506969999979,None,234.90506969999979,None,234.90506969999979,None,236.5931490399997,None,236.5931490399997,None,236.5931490399997,None,,,,,,,,,,,213,24,Female,2022-05-10_14h17.14.551,Main,2022.1.1,59.99610025336378,
positive,negative,1,l,j,,,,,,,,,2,6,42,5,,,,,,,,,,,,,,,,,,,,,,,,main,2,2,1,negative,positive,j,j,1,0.6724104999998417,236.61337999999978,237.6146116,237.5958972999997,None,236.61337999999978,None,236.61337999999978,None,236.61337999999978,None,238.2663294399998,None,238.2663294399998,None,238.2663294399998,None,,,,,,,,,,,213,24,Female,2022-05-10_14h17.14.551,Main,2022.1.1,59.99610025336378,
positive,positive,1,l,j,,,,,,,,,2,7,43,2,,,,,,,,,,,,,,,,,,,,,,,,main,1,1,1,positive,positive,j,j,1,0.644787499999893,238.28634209999973,239.30107069999985,239.2627577999997,None,238.28634209999973,None,238.28634209999973,None,238.28634209999973,None,239.91205853999995,None,239.91205853999995,None,239.91205853999995,None,,,,,,,,,,,213,24,Female,2022-05-10_14h17.14.551,Main,2022.1.1,59.99610025336378,
neutral,negative,2,k,k,,,,,,,,,2,8,44,16,,,,,,,,,,,,,,,,,,,,,,,,main,2,2,2,negative,neutral,k,k,1,0.6466158000002906,239.93444109999973,240.95394480000004,240.91610219999984,None,239.93444109999973,None,239.93444109999973,None,239.93444109999973,None,241.56329723999974,None,241.56329723999974,None,241.56329723999974,None,,,,,,,,,,,213,24,Female,2022-05-10_14h17.14.551,Main,2022.1.1,59.99610025336378,
negative,positive,1,j,l,,,,,,,,,2,9,45,6,,,,,,,,,,,,,,,,,,,,,,,,main,1,1,1,positive,negative,l,l,1,0.732473999999911,241.58638119999978,242.59192910000002,242.57199039999978,None,241.58638119999978,None,241.58638119999978,None,241.58638119999978,None,243.2986170399998,None,243.2986170399998,None,243.2986170399998,None,,,,,,,,,,,213,24,Female,2022-05-10_14h17.14.551,Main,2022.1.1,59.99610025336378,
neutral,positive,1,k,k,,,,,,,,,2,10,46,4,,,,,,,,,,,,,,,,,,,,,,,,main,1,1,1,positive,neutral,k,k,1,0.6841975000002094,243.3204252999999,244.33951639999987,244.3005350999997,None,243.3204252999999,None,243.3204252999999,None,243.3204252999999,None,244.98593594000008,None,244.98593594000008,None,244.98593594000008,None,,,,,,,,,,,213,24,Female,2022-05-10_14h17.14.551,Main,2022.1.1,59.99610025336378,
negative,positive,2,j,l,,,,,,,,,2,11,47,15,,,,,,,,,,,,,,,,,,,,,,,,main,1,1,2,positive,negative,l,l,1,0.6817823999999746,245.0053869999997,246.0208776999998,245.9831952999998,None,245.0053869999997,None,245.0053869999997,None,245.0053869999997,None,246.67002734000002,None,246.67002734000002,None,246.67002734000002,None,,,,,,,,,,,213,24,Female,2022-05-10_14h17.14.551,Main,2022.1.1,59.99610025336378,
neutral,neutral,1,k,k,,,,,,,,,2,12,48,1,,,,,,,,,,,,,,,,,,,,,,,,main,2,2,1,neutral,neutral,k,k,1,0.7801444000001538,246.6934855999998,247.7117820999997,247.67309709999972,None,246.6934855999998,None,246.6934855999998,None,246.6934855999998,None,248.45371493999968,None,248.45371493999968,None,248.45371493999968,None,,,,,,,,,,,213,24,Female,2022-05-10_14h17.14.551,Main,2022.1.1,59.99610025336378,
negative,neutral,2,j,l,,,,,,,,,2,13,49,12,,,,,,,,,,,,,,,,,,,,,,,,main,2,2,2,neutral,negative,l,l,1,0.6641930999999204,248.4780980999999,249.4805908999997,249.46167229999992,None,248.4780980999999,None,248.4780980999999,None,248.4780980999999,None,250.11953963999972,None,250.11953963999972,None,250.11953963999972,None,,,,,,,,,,,213,24,Female,2022-05-10_14h17.14.551,Main,2022.1.1,59.99610025336378,
negative,negative,1,j,l,,,,,,,,,2,14,50,0,,,,,,,,,,,,,,,,,,,,,,,,main,1,1,1,negative,negative,l,l,1,0.652087400000255,250.13961149999977,251.1439977,251.12338669999963,None,250.13961149999977,None,250.13961149999977,None,250.13961149999977,None,251.77586503999996,None,251.77586503999996,None,251.77586503999996,None,,,,,,,,,,,213,24,Female,2022-05-10_14h17.14.551,Main,2022.1.1,59.99610025336378,
neutral,positive,2,k,k,,,,,,,,,2,15,51,13,,,,,,,,,,,,,,,,,,,,,,,,main,1,1,2,positive,neutral,k,k,1,0.7717459999998937,251.7959796,252.80180149999978,252.78154240000003,None,251.7959796,None,251.7959796,None,251.7959796,None,253.54959873999982,None,253.54959873999982,None,253.54959873999982,None,,,,,,,,,,,213,24,Female,2022-05-10_14h17.14.551,Main,2022.1.1,59.99610025336378,
neutral,negative,1,k,k,,,,,,,,,2,16,52,7,,,,,,,,,,,,,,,,,,,,,,,,main,1,1,1,negative,neutral,k,k,1,1.24522160000015,253.57350670000005,254.59338509999998,254.5535832999999,None,253.57350670000005,None,253.57350670000005,None,253.57350670000005,None,255.79732163999992,None,255.79732163999992,None,255.79732163999992,None,,,,,,,,,,,213,24,Female,2022-05-10_14h17.14.551,Main,2022.1.1,59.99610025336378,
positive,negative,2,l,j,,,,,,,,,2,17,53,14,,,,,,,,,,,,,,,,,,,,,,,,main,2,2,2,negative,positive,j,j,1,0.6369972000002235,255.8187785,256.83039529999996,256.7929944999996,None,255.8187785,None,255.8187785,None,255.8187785,None,257.4386815399997,None,257.4386815399997,None,257.4386815399997,None,,,,,,,,,,,213,24,Female,2022-05-10_14h17.14.551,Main,2022.1.1,59.99610025336378,
positive,positive,2,l,j,,,,,,,,,3,0,54,11,,,,,,,,,,,,,,,,,,,,,,,,main,2,2,2,positive,positive,j,j,1,0.6951386000000639,257.4592868999998,258.4684825999998,258.4492811,None,257.4592868999998,None,257.4592868999998,None,257.4592868999998,None,259.13643653999986,None,259.13643653999986,None,259.13643653999986,None,,,,,,,,,,,213,24,Female,2022-05-10_14h17.14.551,Main,2022.1.1,59.99610025336378,
negative,negative,2,j,l,,,,,,,,,3,1,55,9,,,,,,,,,,,,,,,,,,,,,,,,main,1,1,2,negative,negative,l,l,1,0.8099839999999858,259.15528819999963,260.1699011999999,260.1324897999998,None,259.15528819999963,None,259.15528819999963,None,259.15528819999963,None,260.94702933999986,None,260.94702933999986,None,260.94702933999986,None,,,,,,,,,,,213,24,Female,2022-05-10_14h17.14.551,Main,2022.1.1,59.99610025336378,
negative,positive,1,j,l,,,,,,,,,3,2,56,6,,,,,,,,,,,,,,,,,,,,,,,,main,2,2,1,positive,negative,l,l,1,0.7703003999999964,260.9687805999997,261.97425380000004,261.9558251999997,None,260.9687805999997,None,260.9687805999997,None,260.9687805999997,None,262.72267083999975,None,262.72267083999975,None,262.72267083999975,None,,,,,,,,,,,213,24,Female,2022-05-10_14h17.14.551,Main,2022.1.1,59.99610025336378,
negative,neutral,2,j,l,,,,,,,,,3,3,57,12,,,,,,,,,,,,,,,,,,,,,,,,main,1,1,2,neutral,negative,l,l,1,0.6799357999998392,262.7441823999998,263.75071089999983,263.73179329999994,None,262.7441823999998,None,262.7441823999998,None,262.7441823999998,None,264.4051909399999,None,264.4051909399999,None,264.4051909399999,None,,,,,,,,,,,213,24,Female,2022-05-10_14h17.14.551,Main,2022.1.1,59.99610025336378,
neutral,positive,2,k,k,,,,,,,,,3,4,58,13,,,,,,,,,,,,,,,,,,,,,,,,main,1,1,2,positive,neutral,k,l,0,1.361580799999956,264.4268118,265.4382830999998,265.3995854,None,264.4268118,None,264.4268118,None,264.4268118,None,266.7746210999999,None,266.7746210999999,None,266.7746210999999,None,,,,,,,,,,,213,24,Female,2022-05-10_14h17.14.551,Main,2022.1.1,59.99610025336378,
neutral,positive,1,k,k,,,,,,,,,3,5,59,4,,,,,,,,,,,,,,,,,,,,,,,,main,1,1,1,positive,neutral,k,k,1,0.7068537000000106,267.8010984999996,268.80865649999987,268.7898189999996,None,267.8010984999996,None,267.8010984999996,None,267.8010984999996,None,269.4872136399998,None,269.4872136399998,None,269.4872136399998,None,,,,,,,,,,,213,24,Female,2022-05-10_14h17.14.551,Main,2022.1.1,59.99610025336378,
positive,negative,2,l,j,,,,,,,,,3,6,60,14,,,,,,,,,,,,,,,,,,,,,,,,main,1,1,2,negative,positive,j,j,1,0.7381458999998358,269.5093419,270.5225384999999,270.48439359999975,None,269.5093419,None,269.5093419,None,269.5093419,None,271.22760523999966,None,271.22760523999966,None,271.22760523999966,None,,,,,,,,,,,213,24,Female,2022-05-10_14h17.14.551,Main,2022.1.1,59.99610025336378,
neutral,neutral,1,k,k,,,,,,,,,3,7,61,1,,,,,,,,,,,,,,,,,,,,,,,,main,1,1,1,neutral,neutral,k,k,1,0.6499831000000995,271.24781699999994,272.2568704,272.2379719999999,None,271.24781699999994,None,271.24781699999994,None,271.24781699999994,None,272.87968413999977,None,272.87968413999977,None,272.87968413999977,None,,,,,,,,,,,213,24,Female,2022-05-10_14h17.14.551,Main,2022.1.1,59.99610025336378,
negative,negative,1,j,l,,,,,,,,,3,8,62,0,,,,,,,,,,,,,,,,,,,,,,,,main,2,2,1,negative,negative,l,l,1,0.6401951000002555,272.9002935999997,273.9133892,273.87545610000006,None,272.9002935999997,None,272.9002935999997,None,272.9002935999997,None,274.52422853999985,None,274.52422853999985,None,274.52422853999985,None,,,,,,,,,,,213,24,Female,2022-05-10_14h17.14.551,Main,2022.1.1,59.99610025336378,
neutral,neutral,2,k,k,,,,,,,,,3,9,63,10,,,,,,,,,,,,,,,,,,,,,,,,main,1,1,2,neutral,neutral,k,k,1,0.6012636999998904,274.5445282999999,275.5588195999999,275.52037500000006,None,274.5445282999999,None,274.5445282999999,None,274.5445282999999,None,276.12809203999984,None,276.12809203999984,None,276.12809203999984,None,,,,,,,,,,,213,24,Female,2022-05-10_14h17.14.551,Main,2022.1.1,59.99610025336378,
negative,neutral,1,j,l,,,,,,,,,3,10,64,3,,,,,,,,,,,,,,,,,,,,,,,,main,1,1,1,neutral,negative,l,l,1,0.6939981000000444,276.14900179999995,277.1603729999997,277.1222208999998,None,276.14900179999995,None,276.14900179999995,None,276.14900179999995,None,277.8250040399997,None,277.8250040399997,None,277.8250040399997,None,,,,,,,,,,,213,24,Female,2022-05-10_14h17.14.551,Main,2022.1.1,59.99610025336378,
positive,negative,1,l,j,,,,,,,,,3,11,65,5,,,,,,,,,,,,,,,,,,,,,,,,main,2,2,1,negative,positive,j,j,1,0.7716192000002593,277.8448282999998,278.8464049999998,278.82804480000004,None,277.8448282999998,None,277.8448282999998,None,277.8448282999998,None,279.59889513999985,None,279.59889513999985,None,279.59889513999985,None,,,,,,,,,,,213,24,Female,2022-05-10_14h17.14.551,Main,2022.1.1,59.99610025336378,
neutral,negative,2,k,k,,,,,,,,,3,12,66,16,,,,,,,,,,,,,,,,,,,,,,,,main,1,1,2,negative,neutral,k,k,1,0.7227388000001156,279.6201243999999,280.63881889999993,280.60060829999975,None,279.6201243999999,None,279.6201243999999,None,279.6201243999999,None,281.3248909399998,None,281.3248909399998,None,281.3248909399998,None,,,,,,,,,,,213,24,Female,2022-05-10_14h17.14.551,Main,2022.1.1,59.99610025336378,
negative,positive,2,j,l,,,,,,,,,3,13,67,15,,,,,,,,,,,,,,,,,,,,,,,,main,1,1,2,positive,negative,l,k,0,-0.5956923999997343,281.3461597999999,None,None,None,281.3461597999999,None,281.3461597999999,None,281.3461597999999,None,281.73992610000005,None,281.73992610000005,None,281.73992610000005,None,,,,,,,,,,,213,24,Female,2022-05-10_14h17.14.551,Main,2022.1.1,59.99610025336378,
neutral,negative,1,k,k,,,,,,,,,3,14,68,7,,,,,,,,,,,,,,,,,,,,,,,,main,1,1,1,negative,neutral,k,k,1,0.7241647000000739,284.7643929000001,285.7813223999997,285.74322269999993,None,284.7643929000001,None,284.7643929000001,None,284.7643929000001,None,286.4703224399999,None,286.4703224399999,None,286.4703224399999,None,,,,,,,,,,,213,24,Female,2022-05-10_14h17.14.551,Main,2022.1.1,59.99610025336378,
positive,neutral,2,l,j,,,,,,,,,3,15,69,17,,,,,,,,,,,,,,,,,,,,,,,,main,2,2,2,neutral,positive,j,j,1,0.8073914999999943,286.49116319999985,287.4983050999999,287.47984769999994,None,286.49116319999985,None,286.49116319999985,None,286.49116319999985,None,288.27782883999987,None,288.27782883999987,None,288.27782883999987,None,,,,,,,,,,,213,24,Female,2022-05-10_14h17.14.551,Main,2022.1.1,59.99610025336378,
positive,neutral,1,l,j,,,,,,,,,3,16,70,8,,,,,,,,,,,,,,,,,,,,,,,,main,2,2,1,neutral,positive,j,j,1,0.800481199999922,288.3018612000001,289.32144679999965,289.2826538999998,None,288.3018612000001,None,288.3018612000001,None,288.3018612000001,None,290.0839526399999,None,290.0839526399999,None,290.0839526399999,None,,,,,,,,,,,213,24,Female,2022-05-10_14h17.14.551,Main,2022.1.1,59.99610025336378,
positive,positive,1,l,j,,,,,,,,,3,17,71,2,,,,,,,,,,,,,,,,,,,,,,,,main,2,2,1,positive,positive,j,j,1,0.6569019999997181,290.1028545999998,291.1081703,291.0896158999999,None,290.1028545999998,None,290.1028545999998,None,290.1028545999998,None,291.74078804,None,291.74078804,None,291.74078804,None,,,,,,,,,,,213,24,Female,2022-05-10_14h17.14.551,Main,2022.1.1,59.99610025336378,
negative,positive,2,j,l,,,,,,,,,4,0,72,15,,,,,,,,,,,,,,,,,,,,,,,,main,2,2,2,positive,negative,l,l,1,0.6260744000001068,291.7622431,292.7734492999998,292.73505209999985,None,291.7622431,None,291.7622431,None,291.7622431,None,293.37108443999966,None,293.37108443999966,None,293.37108443999966,None,,,,,,,,,,,213,24,Female,2022-05-10_14h17.14.551,Main,2022.1.1,59.99610025336378,
positive,neutral,2,l,j,,,,,,,,,4,1,73,17,,,,,,,,,,,,,,,,,,,,,,,,main,2,2,2,neutral,positive,j,j,1,0.8863117999999304,293.3929820999997,294.3983764999998,294.3798450999998,None,293.3929820999997,None,293.3929820999997,None,293.3929820999997,None,295.2581219399998,None,295.2581219399998,None,295.2581219399998,None,,,,,,,,,,,213,24,Female,2022-05-10_14h17.14.551,Main,2022.1.1,59.99610025336378,
negative,negative,1,j,l,,,,,,,,,4,2,74,0,,,,,,,,,,,,,,,,,,,,,,,,main,2,2,1,negative,negative,l,l,1,0.8095339000001331,295.2849293999998,296.2868169999997,296.2678523999998,None,295.2849293999998,None,295.2849293999998,None,295.2849293999998,None,297.07249433999993,None,297.07249433999993,None,297.07249433999993,None,,,,,,,,,,,213,24,Female,2022-05-10_14h17.14.551,Main,2022.1.1,59.99610025336378,
negative,neutral,1,j,l,,,,,,,,,4,3,75,3,,,,,,,,,,,,,,,,,,,,,,,,main,2,2,1,neutral,negative,l,l,1,0.6174780999999712,297.09487709999985,298.10292009999966,298.0841355999996,None,297.09487709999985,None,297.09487709999985,None,297.09487709999985,None,298.69268894000004,None,298.69268894000004,None,298.69268894000004,None,,,,,,,,,,,213,24,Female,2022-05-10_14h17.14.551,Main,2022.1.1,59.99610025336378,
neutral,neutral,2,k,k,,,,,,,,,4,4,76,10,,,,,,,,,,,,,,,,,,,,,,,,main,1,1,2,neutral,neutral,k,k,1,0.6610301999999137,298.7140122999999,299.73373820000006,299.6952071999999,None,298.7140122999999,None,298.7140122999999,None,298.7140122999999,None,300.35687313999995,None,300.35687313999995,None,300.35687313999995,None,,,,,,,,,,,213,24,Female,2022-05-10_14h17.14.551,Main,2022.1.1,59.99610025336378,
negative,negative,2,j,l,,,,,,,,,4,5,77,9,,,,,,,,,,,,,,,,,,,,,,,,main,2,2,2,negative,negative,l,l,1,0.7605016000002252,300.37767239999994,301.38184379999984,301.3629785999997,None,300.37767239999994,None,300.37767239999994,None,300.37767239999994,None,302.1211853399999,None,302.1211853399999,None,302.1211853399999,None,,,,,,,,,,,213,24,Female,2022-05-10_14h17.14.551,Main,2022.1.1,59.99610025336378,
positive,positive,1,l,j,,,,,,,,,4,6,78,2,,,,,,,,,,,,,,,,,,,,,,,,main,1,1,1,positive,positive,j,j,1,0.7484122999999272,302.1416783999998,303.14482739999994,303.12596829999984,None,302.1416783999998,None,302.1416783999998,None,302.1416783999998,None,303.8720047400001,None,303.8720047400001,None,303.8720047400001,None,,,,,,,,,,,213,24,Female,2022-05-10_14h17.14.551,Main,2022.1.1,59.99610025336378,
positive,negative,1,l,j,,,,,,,,,4,7,79,5,,,,,,,,,,,,,,,,,,,,,,,,main,1,1,1,negative,positive,j,j,1,1.4555872999999337,303.8920699999999,304.9000269999997,304.88109600000007,None,303.8920699999999,None,303.8920699999999,None,303.8920699999999,None,306.3288338399997,None,306.3288338399997,None,306.3288338399997,None,,,,,,,,,,,213,24,Female,2022-05-10_14h17.14.551,Main,2022.1.1,59.99610025336378,
positive,neutral,1,l,j,,,,,,,,,4,8,80,8,,,,,,,,,,,,,,,,,,,,,,,,main,1,1,1,neutral,positive,j,j,1,0.6162319999998545,306.34997939999994,307.3619166999997,307.3244415999998,None,306.34997939999994,None,306.34997939999994,None,306.34997939999994,None,307.95047074,None,307.95047074,None,307.95047074,None,,,,,,,,,,,213,24,Female,2022-05-10_14h17.14.551,Main,2022.1.1,59.99610025336378,
positive,negative,2,l,j,,,,,,,,,4,9,81,14,,,,,,,,,,,,,,,,,,,,,,,,main,1,1,2,negative,positive,j,j,1,0.7520009999998365,307.9719135,308.9795390999998,308.96222369999987,None,307.9719135,None,307.9719135,None,307.9719135,None,309.7047089399997,None,309.7047089399997,None,309.7047089399997,None,,,,,,,,,,,213,24,Female,2022-05-10_14h17.14.551,Main,2022.1.1,59.99610025336378,
neutral,positive,2,k,k,,,,,,,,,4,10,82,13,,,,,,,,,,,,,,,,,,,,,,,,main,2,2,2,positive,neutral,k,k,1,1.4344934000000649,309.7252337,310.7295267999998,310.71117909999975,None,309.7252337,None,309.7252337,None,309.7252337,None,312.14140914000006,None,312.14140914000006,None,312.14140914000006,None,,,,,,,,,,,213,24,Female,2022-05-10_14h17.14.551,Main,2022.1.1,59.99610025336378,
neutral,positive,1,k,k,,,,,,,,,4,11,83,4,,,,,,,,,,,,,,,,,,,,,,,,main,1,1,1,positive,neutral,k,k,1,0.6851760999998078,312.16247429999976,313.1856017,313.1441329999998,None,312.16247429999976,None,312.16247429999976,None,312.16247429999976,None,313.8310093399999,None,313.8310093399999,None,313.8310093399999,None,,,,,,,,,,,213,24,Female,2022-05-10_14h17.14.551,Main,2022.1.1,59.99610025336378,
neutral,negative,2,k,k,,,,,,,,,4,12,84,16,,,,,,,,,,,,,,,,,,,,,,,,main,1,1,2,negative,neutral,k,k,1,-0.02551180000000386,313.8500224999998,None,None,None,313.8500224999998,None,313.8500224999998,None,313.8500224999998,None,314.81306129999984,None,314.81306129999984,None,314.81306129999984,None,,,,,,,,,,,213,24,Female,2022-05-10_14h17.14.551,Main,2022.1.1,59.99610025336378,
positive,positive,2,l,j,,,,,,,,,4,13,85,11,,,,,,,,,,,,,,,,,,,,,,,,main,1,1,2,positive,positive,j,j,1,0.7822756000000481,317.8270852999999,318.8450921999997,318.80793079999967,None,317.8270852999999,None,317.8270852999999,None,317.8270852999999,None,319.5882331399997,None,319.5882331399997,None,319.5882331399997,None,,,,,,,,,,,213,24,Female,2022-05-10_14h17.14.551,Main,2022.1.1,59.99610025336378,
neutral,neutral,1,k,k,,,,,,,,,4,14,86,1,,,,,,,,,,,,,,,,,,,,,,,,main,1,1,1,neutral,neutral,k,k,1,0.7278887999996186,319.60886779999964,320.62116369999967,320.5835122999997,None,319.60886779999964,None,319.60886779999964,None,319.60886779999964,None,321.31955933999996,None,321.31955933999996,None,321.31955933999996,None,,,,,,,,,,,213,24,Female,2022-05-10_14h17.14.551,Main,2022.1.1,59.99610025336378,
neutral,negative,1,k,k,,,,,,,,,4,15,87,7,,,,,,,,,,,,,,,,,,,,,,,,main,2,2,1,negative,neutral,k,k,1,0.6304495999997926,321.3417534,322.3451735999997,322.32666199999994,None,321.3417534,None,321.3417534,None,321.3417534,None,322.9528041399998,None,322.9528041399998,None,322.9528041399998,None,,,,,,,,,,,213,24,Female,2022-05-10_14h17.14.551,Main,2022.1.1,59.99610025336378,
negative,neutral,2,j,l,,,,,,,,,4,16,88,12,,,,,,,,,,,,,,,,,,,,,,,,main,2,2,2,neutral,negative,l,l,1,0.7215922000000319,322.9743377,323.99085620000005,323.95280079999975,None,322.9743377,None,322.9743377,None,322.9743377,None,324.67781714,None,324.67781714,None,324.67781714,None,,,,,,,,,,,213,24,Female,2022-05-10_14h17.14.551,Main,2022.1.1,59.99610025336378,
negative,positive,1,j,l,,,,,,,,,4,17,89,6,,,,,,,,,,,,,,,,,,,,,,,,main,1,1,1,positive,negative,l,l,1,0.7468645000003562,324.70327959999986,325.7055756999998,325.6866608,None,324.70327959999986,None,324.70327959999986,None,324.70327959999986,None,326.4278052399999,None,326.4278052399999,None,326.4278052399999,None,,,,,,,,,,,213,24,Female,2022-05-10_14h17.14.551,Main,2022.1.1,59.99610025336378,
positive,neutral,1,l,j,,,,,,,,,5,0,90,8,,,,,,,,,,,,,,,,,,,,,,,,main,1,1,1,neutral,positive,j,j,1,1.0875851999999213,326.44780809999975,327.46044359999996,327.4218429999996,None,326.44780809999975,None,326.44780809999975,None,326.44780809999975,None,328.5182787399998,None,328.5182787399998,None,328.5182787399998,None,,,,,,,,,,,213,24,Female,2022-05-10_14h17.14.551,Main,2022.1.1,59.99610025336378,
neutral,positive,2,k,k,,,,,,,,,5,1,91,13,,,,,,,,,,,,,,,,,,,,,,,,main,1,1,2,positive,neutral,k,k,1,0.7558853000000454,328.5380387,329.5530893,329.5139512999999,None,328.5380387,None,328.5380387,None,328.5380387,None,330.27402444000006,None,330.27402444000006,None,330.27402444000006,None,,,,,,,,,,,213,24,Female,2022-05-10_14h17.14.551,Main,2022.1.1,59.99610025336378,
negative,negative,1,j,l,,,,,,,,,5,2,92,0,,,,,,,,,,,,,,,,,,,,,,,,main,1,1,1,negative,negative,l,l,1,0.6632122000000891,330.2960009999997,331.30808709999974,331.2706288999998,None,330.2960009999997,None,330.2960009999997,None,330.2960009999997,None,331.9392822399999,None,331.9392822399999,None,331.9392822399999,None,,,,,,,,,,,213,24,Female,2022-05-10_14h17.14.551,Main,2022.1.1,59.99610025336378,
negative,positive,1,j,l,,,,,,,,,5,3,93,6,,,,,,,,,,,,,,,,,,,,,,,,main,2,2,1,positive,negative,l,l,1,1.1975916999999754,331.9622768999998,332.97720919999983,332.939437,None,331.9622768999998,None,331.9622768999998,None,331.9622768999998,None,334.14308603999996,None,334.14308603999996,None,334.14308603999996,None,,,,,,,,,,,213,24,Female,2022-05-10_14h17.14.551,Main,2022.1.1,59.99610025336378,
neutral,neutral,2,k,k,,,,,,,,,5,4,94,10,,,,,,,,,,,,,,,,,,,,,,,,main,2,2,2,neutral,neutral,k,k,1,0.6842875000002095,334.1650176999997,335.17971549999993,335.14256479999995,None,334.1650176999997,None,334.1650176999997,None,334.1650176999997,None,335.83027273999994,None,335.83027273999994,None,335.83027273999994,None,,,,,,,,,,,213,24,Female,2022-05-10_14h17.14.551,Main,2022.1.1,59.99610025336378,
neutral,positive,1,k,k,,,,,,,,,5,5,95,4,,,,,,,,,,,,,,,,,,,,,,,,main,2,2,1,positive,neutral,k,k,1,0.8741323999997803,335.85247249999975,336.86747590000004,336.8296204999997,None,335.85247249999975,None,335.85247249999975,None,335.85247249999975,None,337.7085553400001,None,337.7085553400001,None,337.7085553400001,None,,,,,,,,,,,213,24,Female,2022-05-10_14h17.14.551,Main,2022.1.1,59.99610025336378,
positive,negative,2,l,j,,,,,,,,,5,6,96,14,,,,,,,,,,,,,,,,,,,,,,,,main,1,1,2,negative,positive,j,j,1,1.2120362000000569,337.7315355999999,338.75113680000004,338.7121996999999,None,337.7315355999999,None,337.7315355999999,None,337.7315355999999,None,339.92495333999966,None,339.92495333999966,None,339.92495333999966,None,,,,,,,,,,,213,24,Female,2022-05-10_14h17.14.551,Main,2022.1.1,59.99610025336378,
negative,negative,2,j,l,,,,,,,,,5,7,97,9,,,,,,,,,,,,,,,,,,,,,,,,main,2,2,2,negative,negative,l,l,1,0.8082300000000942,339.94403429999966,340.95473939999965,340.91711229999964,None,339.94403429999966,None,339.94403429999966,None,339.94403429999966,None,341.7339459399999,None,341.7339459399999,None,341.7339459399999,None,,,,,,,,,,,213,24,Female,2022-05-10_14h17.14.551,Main,2022.1.1,59.99610025336378,
neutral,neutral,1,k,k,,,,,,,,,5,8,98,1,,,,,,,,,,,,,,,,,,,,,,,,main,2,2,1,neutral,neutral,k,k,1,1.1607456000001548,341.7536359999999,342.75471119999975,342.7361142,None,341.7536359999999,None,341.7536359999999,None,341.7536359999999,None,343.89876233999973,None,343.89876233999973,None,343.89876233999973,None,,,,,,,,,,,213,24,Female,2022-05-10_14h17.14.551,Main,2022.1.1,59.99610025336378,
positive,negative,1,l,j,,,,,,,,,5,9,99,5,,,,,,,,,,,,,,,,,,,,,,,,main,1,1,1,negative,positive,j,j,1,1.5686525000000984,343.9212911999998,344.92990869999994,344.9093134999998,None,343.9212911999998,None,343.9212911999998,None,343.9212911999998,None,346.48271479999994,None,346.48271479999994,None,346.48271479999994,None,,,,,,,,,,,213,24,Female,2022-05-10_14h17.14.551,Main,2022.1.1,59.99610025336378,
neutral,negative,1,k,k,,,,,,,,,5,10,100,7,,,,,,,,,,,,,,,,,,,,,,,,main,1,1,1,negative,neutral,k,k,1,0.8483798000002025,347.50579070000003,348.52053939999996,348.4832216,None,347.50579070000003,None,347.50579070000003,None,347.50579070000003,None,349.33427623999967,None,349.33427623999967,None,349.33427623999967,None,,,,,,,,,,,213,24,Female,2022-05-10_14h17.14.551,Main,2022.1.1,59.99610025336378,
positive,positive,1,l,j,,,,,,,,,5,11,101,2,,,,,,,,,,,,,,,,,,,,,,,,main,1,1,1,positive,positive,j,j,1,0.6681757000001198,349.3543916999997,350.35807529999965,350.3394092999997,None,349.3543916999997,None,349.3543916999997,None,349.3543916999997,None,351.0052463400001,None,351.0052463400001,None,351.0052463400001,None,,,,,,,,,,,213,24,Female,2022-05-10_14h17.14.551,Main,2022.1.1,59.99610025336378,
negative,neutral,1,j,l,,,,,,,,,5,12,102,3,,,,,,,,,,,,,,,,,,,,,,,,main,2,2,1,neutral,negative,l,l,1,0.6189329999997426,351.02563680000003,352.03723649999984,351.99984829999994,None,351.02563680000003,None,351.02563680000003,None,351.02563680000003,None,352.6286241399997,None,352.6286241399997,None,352.6286241399997,None,,,,,,,,,,,213,24,Female,2022-05-10_14h17.14.551,Main,2022.1.1,59.99610025336378,
negative,neutral,2,j,l,,,,,,,,,5,13,103,12,,,,,,,,,,,,,,,,,,,,,,,,main,2,2,2,neutral,negative,l,l,1,0.6555074999996577,352.64783739999984,353.65484530000003,353.63515039999993,None,352.64783739999984,None,352.64783739999984,None,352.64783739999984,None,354.28488503999995,None,354.28488503999995,None,354.28488503999995,None,,,,,,,,,,,213,24,Female,2022-05-10_14h17.14.551,Main,2022.1.1,59.99610025336378,
positive,positive,2,l,j,,,,,,,,,5,14,104,11,,,,,,,,,,,,,,,,,,,,,,,,main,1,1,2,positive,positive,j,j,1,0.7639576000001398,354.30621159999964,355.30998929999987,355.29061729999967,None,354.30621159999964,None,354.30621159999964,None,354.30621159999964,None,356.05163333999997,None,356.05163333999997,None,356.05163333999997,None,,,,,,,,,,,213,24,Female,2022-05-10_14h17.14.551,Main,2022.1.1,59.99610025336378,
negative,positive,2,j,l,,,,,,,,,5,15,105,15,,,,,,,,,,,,,,,,,,,,,,,,main,1,1,2,positive,negative,l,l,1,0.7361981000003652,356.07420030000003,357.0882969999998,357.05132449999974,None,356.07420030000003,None,356.07420030000003,None,356.07420030000003,None,357.79229144,None,357.79229144,None,357.79229144,None,,,,,,,,,,,213,24,Female,2022-05-10_14h17.14.551,Main,2022.1.1,59.99610025336378,
positive,neutral,2,l,j,,,,,,,,,5,16,106,17,,,,,,,,,,,,,,,,,,,,,,,,main,2,2,2,neutral,positive,j,j,1,0.7106566999996176,357.81177549999984,358.8181142999997,358.7995962,None,357.81177549999984,None,357.81177549999984,None,357.81177549999984,None,359.50393533999966,None,359.50393533999966,None,359.50393533999966,None,,,,,,,,,,,213,24,Female,2022-05-10_14h17.14.551,Main,2022.1.1,59.99610025336378,
neutral,negative,2,k,k,,,,,,,,,5,17,107,16,,,,,,,,,,,,,,,,,,,,,,,,main,2,2,2,negative,neutral,k,k,1,0.7821685999997499,359.5237296999999,360.53329289999965,360.5143426999998,None,359.5237296999999,None,359.5237296999999,None,359.5237296999999,None,361.29031354000006,None,361.29031354000006,None,361.29031354000006,None,,,,,,,,,,,213,24,Female,2022-05-10_14h17.14.551,Main,2022.1.1,59.99610025336378,
neutral,negative,2,k,k,,,,,,,,,6,0,108,16,,,,,,,,,,,,,,,,,,,,,,,,main,2,2,2,negative,neutral,k,k,1,0.8076906000001145,361.3098233999999,362.3255108999997,362.2876710999999,None,361.3098233999999,None,361.3098233999999,None,361.3098233999999,None,363.09904004,None,363.09904004,None,363.09904004,None,,,,,,,,,,,213,24,Female,2022-05-10_14h17.14.551,Main,2022.1.1,59.99610025336378,
negative,negative,2,j,l,,,,,,,,,6,1,109,9,,,,,,,,,,,,,,,,,,,,,,,,main,2,2,2,negative,negative,l,l,1,0.7769493000000693,363.1200780999998,364.12697049999997,364.1086848,None,363.1200780999998,None,363.1200780999998,None,363.1200780999998,None,364.8796587400001,None,364.8796587400001,None,364.8796587400001,None,,,,,,,,,,,213,24,Female,2022-05-10_14h17.14.551,Main,2022.1.1,59.99610025336378,
negative,neutral,1,j,l,,,,,,,,,6,2,110,3,,,,,,,,,,,,,,,,,,,,,,,,main,1,1,1,neutral,negative,l,l,1,0.6823535000003176,364.9006532999997,365.9188884,365.8812257999998,None,364.9006532999997,None,364.9006532999997,None,364.9006532999997,None,366.56533544,None,366.56533544,None,366.56533544,None,,,,,,,,,,,213,24,Female,2022-05-10_14h17.14.551,Main,2022.1.1,59.99610025336378,
positive,positive,2,l,j,,,,,,,,,6,3,111,11,,,,,,,,,,,,,,,,,,,,,,,,main,2,2,2,positive,positive,j,j,1,0.6873945999996067,366.58771720000004,367.6047884999998,367.5693908999997,None,366.58771720000004,None,366.58771720000004,None,366.58771720000004,None,368.25329513999975,None,368.25329513999975,None,368.25329513999975,None,,,,,,,,,,,213,24,Female,2022-05-10_14h17.14.551,Main,2022.1.1,59.99610025336378,
neutral,neutral,1,k,k,,,,,,,,,6,4,112,1,,,,,,,,,,,,,,,,,,,,,,,,main,2,2,1,neutral,neutral,k,k,1,0.680261199999677,368.27479300000005,369.2880332,369.2528881999997,None,368.27479300000005,None,368.27479300000005,None,368.27479300000005,None,369.93719864,None,369.93719864,None,369.93719864,None,,,,,,,,,,,213,24,Female,2022-05-10_14h17.14.551,Main,2022.1.1,59.99610025336378,
negative,negative,1,j,l,,,,,,,,,6,5,113,0,,,,,,,,,,,,,,,,,,,,,,,,main,1,1,1,negative,negative,l,l,1,0.9090771999999561,369.961002,370.9627634999997,370.94343249999974,None,369.961002,None,369.961002,None,369.961002,None,371.8487727400001,None,371.8487727400001,None,371.8487727400001,None,,,,,,,,,,,213,24,Female,2022-05-10_14h17.14.551,Main,2022.1.1,59.99610025336378,
neutral,negative,1,k,k,,,,,,,,,6,6,114,7,,,,,,,,,,,,,,,,,,,,,,,,main,2,2,1,negative,neutral,k,k,1,0.6683406000001924,371.8709174999999,372.8878924999999,372.8522654999997,None,371.8709174999999,None,371.8709174999999,None,371.8709174999999,None,373.5196747399999,None,373.5196747399999,None,373.5196747399999,None,,,,,,,,,,,213,24,Female,2022-05-10_14h17.14.551,Main,2022.1.1,59.99610025336378,
neutral,neutral,2,k,k,,,,,,,,,6,7,115,10,,,,,,,,,,,,,,,,,,,,,,,,main,1,1,2,neutral,neutral,k,k,1,0.6904883999995945,373.54094159999977,374.5501684000001,374.5312154999997,None,373.54094159999977,None,373.54094159999977,None,373.54094159999977,None,375.21396644000004,None,375.21396644000004,None,375.21396644000004,None,,,,,,,,,,,213,24,Female,2022-05-10_14h17.14.551,Main,2022.1.1,59.99610025336378,
positive,negative,2,l,j,,,,,,,,,6,8,116,14,,,,,,,,,,,,,,,,,,,,,,,,main,1,1,2,negative,positive,j,j,1,1.4165138999996998,375.2346927999997,376.23788399999967,376.2196624999997,None,375.2346927999997,None,375.2346927999997,None,375.2346927999997,None,377.63268164,None,377.63268164,None,377.63268164,None,,,,,,,,,,,213,24,Female,2022-05-10_14h17.14.551,Main,2022.1.1,59.99610025336378,
neutral,positive,2,k,k,,,,,,,,,6,9,117,13,,,,,,,,,,,,,,,,,,,,,,,,main,1,1,2,positive,neutral,k,k,1,0.6217056000000412,377.65249059999996,378.6699266999999,378.63267629999973,None,377.65249059999996,None,377.65249059999996,None,377.65249059999996,None,379.25896543999977,None,379.25896543999977,None,379.25896543999977,None,,,,,,,,,,,213,24,Female,2022-05-10_14h17.14.551,Main,2022.1.1,59.99610025336378,
positive,negative,1,l,j,,,,,,,,,6,10,118,5,,,,,,,,,,,,,,,,,,,,,,,,main,2,2,1,negative,positive,j,j,1,0.8854357999998683,379.27922769999986,380.2975007,380.2592442,None,379.27922769999986,None,379.27922769999986,None,379.27922769999986,None,381.14668733999986,None,381.14668733999986,None,381.14668733999986,None,,,,,,,,,,,213,24,Female,2022-05-10_14h17.14.551,Main,2022.1.1,59.99610025336378,
neutral,positive,1,k,k,,,,,,,,,6,11,119,4,,,,,,,,,,,,,,,,,,,,,,,,main,2,2,1,positive,neutral,k,k,1,1.2600587000001724,381.1674316999997,382.1850265999997,382.1466551999997,None,381.1674316999997,None,381.1674316999997,None,381.1674316999997,None,383.41011063999974,None,383.41011063999974,None,383.41011063999974,None,,,,,,,,,,,213,24,Female,2022-05-10_14h17.14.551,Main,2022.1.1,59.99610025336378,
positive,neutral,2,l,j,,,,,,,,,6,12,120,17,,,,,,,,,,,,,,,,,,,,,,,,main,1,1,2,neutral,positive,j,j,1,0.8490760999998201,383.43244879999975,384.4464478,384.4093957,None,383.43244879999975,None,383.43244879999975,None,383.43244879999975,None,385.2608622399997,None,385.2608622399997,None,385.2608622399997,None,,,,,,,,,,,213,24,Female,2022-05-10_14h17.14.551,Main,2022.1.1,59.99610025336378,
negative,positive,2,j,l,,,,,,,,,6,13,121,15,,,,,,,,,,,,,,,,,,,,,,,,main,2,2,2,positive,negative,l,l,1,1.0202979000000596,385.28271099999984,386.2961522999999,386.2586674999998,None,385.28271099999984,None,385.28271099999984,None,385.28271099999984,None,387.28668594,None,387.28668594,None,387.28668594,None,,,,,,,,,,,213,24,Female,2022-05-10_14h17.14.551,Main,2022.1.1,59.99610025336378,
positive,neutral,1,l,j,,,,,,,,,6,14,122,8,,,,,,,,,,,,,,,,,,,,,,,,main,1,1,1,neutral,positive,j,l,0,-0.6532665999998244,387.30647279999994,None,None,None,387.30647279999994,None,387.30647279999994,None,387.30647279999994,None,387.64254230000006,None,387.64254230000006,None,387.64254230000006,None,,,,,,,,,,,213,24,Female,2022-05-10_14h17.14.551,Main,2022.1.1,59.99610025336378,
negative,positive,1,j,l,,,,,,,,,6,15,123,6,,,,,,,,,,,,,,,,,,,,,,,,main,1,1,1,positive,negative,l,l,1,0.882618800000273,390.6669311999999,391.6685462999999,391.65156549999983,None,390.6669311999999,None,390.6669311999999,None,390.6669311999999,None,392.5288143399997,None,392.5288143399997,None,392.5288143399997,None,,,,,,,,,,,213,24,Female,2022-05-10_14h17.14.551,Main,2022.1.1,59.99610025336378,
positive,positive,1,l,j,,,,,,,,,6,16,124,2,,,,,,,,,,,,,,,,,,,,,,,,main,2,2,1,positive,positive,j,j,1,0.8234353000002557,392.55119609999974,393.55313079999996,393.5341562999997,None,392.55119609999974,None,392.55119609999974,None,392.55119609999974,None,394.3557207399998,None,394.3557207399998,None,394.3557207399998,None,,,,,,,,,,,213,24,Female,2022-05-10_14h17.14.551,Main,2022.1.1,59.99610025336378,
negative,neutral,2,j,l,,,,,,,,,6,17,125,12,,,,,,,,,,,,,,,,,,,,,,,,main,2,2,2,neutral,negative,l,l,1,0.752693100000215,394.3794014,395.3833328999999,395.3647450999997,None,394.3794014,None,394.3794014,None,394.3794014,None,396.11291664,None,396.11291664,None,396.11291664,None,,,,,,,,,,,213,24,Female,2022-05-10_14h17.14.551,Main,2022.1.1,59.99610025336378,
negative,positive,2,j,l,,,,,,,,,7,0,126,15,,,,,,,,,,,,,,,,,,,,,,,,main,2,2,2,positive,negative,l,l,1,0.6433082999997168,396.13459079999984,397.142746,397.1215503999997,None,396.13459079999984,None,396.13459079999984,None,396.13459079999984,None,397.75839583999993,None,397.75839583999993,None,397.75839583999993,None,,,,,,,,,,,213,24,Female,2022-05-10_14h17.14.551,Main,2022.1.1,59.99610025336378,
negative,positive,1,j,l,,,,,,,,,7,1,127,6,,,,,,,,,,,,,,,,,,,,,,,,main,2,2,1,positive,negative,l,l,1,0.6710732999999891,397.7790126,398.7995643999998,398.7609054999998,None,397.7790126,None,397.7790126,None,397.7790126,None,399.43263414,None,399.43263414,None,399.43263414,None,,,,,,,,,,,213,24,Female,2022-05-10_14h17.14.551,Main,2022.1.1,59.99610025336378,
negative,negative,2,j,l,,,,,,,,,7,2,128,9,,,,,,,,,,,,,,,,,,,,,,,,main,2,2,2,negative,negative,l,l,1,2.563365800000156,399.4531248999997,400.4734162,400.4338964999997,None,399.4531248999997,None,399.4531248999997,None,399.4531248999997,None,403.0083918,None,403.0083918,None,403.0083918,None,,,,,,,,,,,213,24,Female,2022-05-10_14h17.14.551,Main,2022.1.1,59.99610025336378,
neutral,neutral,2,k,k,,,,,,,,,7,3,129,10,,,,,,,,,,,,,,,,,,,,,,,,main,1,1,2,neutral,neutral,k,k,1,0.8564083000001119,404.0318416,405.0392075999998,405.02052379999986,None,404.0318416,None,404.0318416,None,404.0318416,None,405.87015164,None,405.87015164,None,405.87015164,None,,,,,,,,,,,213,24,Female,2022-05-10_14h17.14.551,Main,2022.1.1,59.99610025336378,
neutral,negative,2,k,k,,,,,,,,,7,4,130,16,,,,,,,,,,,,,,,,,,,,,,,,main,1,1,2,negative,neutral,k,k,1,0.6748809999999139,405.8922128999998,406.90714549999984,406.86674519999997,None,405.8922128999998,None,405.8922128999998,None,405.8922128999998,None,407.5463582399997,None,407.5463582399997,None,407.5463582399997,None,,,,,,,,,,,213,24,Female,2022-05-10_14h17.14.551,Main,2022.1.1,59.99610025336378,
negative,negative,1,j,l,,,,,,,,,7,5,131,0,,,,,,,,,,,,,,,,,,,,,,,,main,2,2,1,negative,negative,l,l,1,0.7015375000000859,407.5661428999997,408.5858533999999,408.5469054,None,407.5661428999997,None,407.5661428999997,None,407.5661428999997,None,409.2518607400001,None,409.2518607400001,None,409.2518607400001,None,,,,,,,,,,,213,24,Female,2022-05-10_14h17.14.551,Main,2022.1.1,59.99610025336378,
positive,positive,2,l,j,,,,,,,,,7,6,132,11,,,,,,,,,,,,,,,,,,,,,,,,main,2,2,2,positive,positive,j,j,1,0.7443867000001774,409.27191300000004,410.2861789999997,410.2489768999999,None,409.27191300000004,None,409.27191300000004,None,409.27191300000004,None,410.99501943999974,None,410.99501943999974,None,410.99501943999974,None,,,,,,,,,,,213,24,Female,2022-05-10_14h17.14.551,Main,2022.1.1,59.99610025336378,
positive,neutral,2,l,j,,,,,,,,,7,7,133,17,,,,,,,,,,,,,,,,,,,,,,,,main,1,1,2,neutral,positive,j,j,1,0.6985051999999996,411.0193777999998,412.0321248,411.9941945999999,None,411.0193777999998,None,411.0193777999998,None,411.0193777999998,None,412.6974597399998,None,412.6974597399998,None,412.6974597399998,None,,,,,,,,,,,213,24,Female,2022-05-10_14h17.14.551,Main,2022.1.1,59.99610025336378,
positive,neutral,1,l,j,,,,,,,,,7,8,134,8,,,,,,,,,,,,,,,,,,,,,,,,main,2,2,1,neutral,positive,j,j,1,0.8671841999998833,412.7180841999998,413.7338603999997,413.7057461999998,None,412.7180841999998,None,412.7180841999998,None,412.7180841999998,None,414.56937763999974,None,414.56937763999974,None,414.56937763999974,None,,,,,,,,,,,213,24,Female,2022-05-10_14h17.14.551,Main,2022.1.1,59.99610025336378,
neutral,positive,2,k,k,,,,,,,,,7,9,135,13,,,,,,,,,,,,,,,,,,,,,,,,main,1,1,2,positive,neutral,k,k,1,0.8884975999999369,414.65496570000005,415.6597179999999,415.56486459999996,None,414.65496570000005,None,414.65496570000005,None,414.65496570000005,None,416.4586660399999,None,416.4586660399999,None,416.4586660399999,None,,,,,,,,,,,213,24,Female,2022-05-10_14h17.14.551,Main,2022.1.1,59.99610025336378,
neutral,positive,1,k,k,,,,,,,,,7,10,136,4,,,,,,,,,,,,,,,,,,,,,,,,main,1,1,1,positive,neutral,k,k,1,1.4514383000000635,416.4796105999999,417.48253069999964,417.4644900999997,None,416.4796105999999,None,416.4796105999999,None,416.4796105999999,None,418.91073644000005,None,418.91073644000005,None,418.91073644000005,None,,,,,,,,,,,213,24,Female,2022-05-10_14h17.14.551,Main,2022.1.1,59.99610025336378,
negative,neutral,1,j,l,,,,,,,,,7,11,137,3,,,,,,,,,,,,,,,,,,,,,,,,main,2,2,1,neutral,negative,l,l,1,0.7373431999999411,418.9325205,419.9480940999997,419.9122930999997,None,418.9325205,None,418.9325205,None,418.9325205,None,420.65407773999993,None,420.65407773999993,None,420.65407773999993,None,,,,,,,,,,,213,24,Female,2022-05-10_14h17.14.551,Main,2022.1.1,59.99610025336378,
positive,negative,2,l,j,,,,,,,,,7,12,138,14,,,,,,,,,,,,,,,,,,,,,,,,main,2,2,2,negative,positive,j,j,1,0.7184018999996624,420.67732350000006,421.6962472,421.65949,None,420.67732350000006,None,420.67732350000006,None,420.67732350000006,None,422.3768612399998,None,422.3768612399998,None,422.3768612399998,None,,,,,,,,,,,213,24,Female,2022-05-10_14h17.14.551,Main,2022.1.1,59.99610025336378,
neutral,neutral,1,k,k,,,,,,,,,7,13,139,1,,,,,,,,,,,,,,,,,,,,,,,,main,2,2,1,neutral,neutral,k,k,1,0.7845526999999493,422.3968200999998,423.4019666999998,423.38237519999984,None,422.3968200999998,None,422.3968200999998,None,422.3968200999998,None,424.1647513399997,None,424.1647513399997,None,424.1647513399997,None,,,,,,,,,,,213,24,Female,2022-05-10_14h17.14.551,Main,2022.1.1,59.99610025336378,
positive,negative,1,l,j,,,,,,,,,7,14,140,5,,,,,,,,,,,,,,,,,,,,,,,,main,1,1,1,negative,positive,j,k,0,0.738493699999708,424.1887244999998,425.19870679999985,425.1607750999997,None,424.1887244999998,None,424.1887244999998,None,424.1887244999998,None,425.91118609999967,None,425.91118609999967,None,425.91118609999967,None,,,,,,,,,,,213,24,Female,2022-05-10_14h17.14.551,Main,2022.1.1,59.99610025336378,
negative,neutral,2,j,l,,,,,,,,,7,15,141,12,,,,,,,,,,,,,,,,,,,,,,,,main,1,1,2,neutral,negative,l,l,1,0.8090352000003804,426.92781879999984,427.94323829999985,427.9065937999999,None,426.92781879999984,None,426.92781879999984,None,426.92781879999984,None,428.7194066400001,None,428.7194066400001,None,428.7194066400001,None,,,,,,,,,,,213,24,Female,2022-05-10_14h17.14.551,Main,2022.1.1,59.99610025336378,
positive,positive,1,l,j,,,,,,,,,7,16,142,2,,,,,,,,,,,,,,,,,,,,,,,,main,2,2,1,positive,positive,j,j,1,0.7508241999998972,428.74138589999984,429.7467290999998,429.72827069999994,None,428.74138589999984,None,428.74138589999984,None,428.74138589999984,None,430.47454173999984,None,430.47454173999984,None,430.47454173999984,None,,,,,,,,,,,213,24,Female,2022-05-10_14h17.14.551,Main,2022.1.1,59.99610025336378,
neutral,negative,1,k,k,,,,,,,,,7,17,143,7,,,,,,,,,,,,,,,,,,,,,,,,main,1,1,1,negative,neutral,k,k,1,0.6924208000000363,430.4947459,431.5132097999999,431.47399529999984,None,430.4947459,None,430.4947459,None,430.4947459,None,432.1708368399999,None,432.1708368399999,None,432.1708368399999,None,,,,,,,,,,,213,24,Female,2022-05-10_14h17.14.551,Main,2022.1.1,59.99610025336378,
negative,neutral,1,j,l,,,,,,,,,8,0,144,3,,,,,,,,,,,,,,,,,,,,,,,,main,1,1,1,neutral,negative,l,l,1,0.8351413000000321,432.1924331,433.20004289999997,433.1811668,None,432.1924331,None,432.1924331,None,432.1924331,None,434.00883913999985,None,434.00883913999985,None,434.00883913999985,None,,,,,,,,,,,213,24,Female,2022-05-10_14h17.14.551,Main,2022.1.1,59.99610025336378,
positive,positive,2,l,j,,,,,,,,,8,1,145,11,,,,,,,,,,,,,,,,,,,,,,,,main,1,1,2,positive,positive,j,j,1,0.9292796999998245,434.0312242,435.03530299999966,435.01650979999977,None,434.0312242,None,434.0312242,None,434.0312242,None,435.9421251399998,None,435.9421251399998,None,435.9421251399998,None,,,,,,,,,,,213,24,Female,2022-05-10_14h17.14.551,Main,2022.1.1,59.99610025336378,
neutral,neutral,1,k,k,,,,,,,,,8,2,146,1,,,,,,,,,,,,,,,,,,,,,,,,main,2,2,1,neutral,neutral,k,l,0,-0.5986437999999907,435.96276119999993,None,None,None,435.96276119999993,None,435.96276119999993,None,435.96276119999993,None,436.35339159999967,None,436.35339159999967,None,436.35339159999967,None,,,,,,,,,,,213,24,Female,2022-05-10_14h17.14.551,Main,2022.1.1,59.99610025336378,
negative,negative,1,j,l,,,,,,,,,8,3,147,0,,,,,,,,,,,,,,,,,,,,,,,,main,1,1,1,negative,negative,l,l,1,0.683745700000145,439.3792590999997,440.3960718999997,440.3595049999999,None,439.3792590999997,None,439.3792590999997,None,439.3792590999997,None,441.0415338399997,None,441.0415338399997,None,441.0415338399997,None,,,,,,,,,,,213,24,Female,2022-05-10_14h17.14.551,Main,2022.1.1,59.99610025336378,
positive,positive,1,l,j,,,,,,,,,8,4,148,2,,,,,,,,,,,,,,,,,,,,,,,,main,1,1,1,positive,positive,j,j,1,0.7208192000002782,441.0618835,442.0629251999999,442.0443141999999,None,441.0618835,None,441.0618835,None,441.0618835,None,442.7671893400001,None,442.7671893400001,None,442.7671893400001,None,,,,,,,,,,,213,24,Female,2022-05-10_14h17.14.551,Main,2022.1.1,59.99610025336378,
negative,positive,2,j,l,,,,,,,,,8,5,149,15,,,,,,,,,,,,,,,,,,,,,,,,main,1,1,2,positive,negative,l,l,1,0.7565049999998337,442.78786869999976,443.80564989999993,443.76874599999974,None,442.78786869999976,None,442.78786869999976,None,442.78786869999976,None,444.52397074,None,444.52397074,None,444.52397074,None,,,,,,,,,,,213,24,Female,2022-05-10_14h17.14.551,Main,2022.1.1,59.99610025336378,
negative,neutral,2,j,l,,,,,,,,,8,6,150,12,,,,,,,,,,,,,,,,,,,,,,,,main,2,2,2,neutral,negative,l,l,1,0.6458769999999276,444.5445135,445.56543799999963,445.52592979999963,None,444.5445135,None,444.5445135,None,444.5445135,None,446.1726556399998,None,446.1726556399998,None,446.1726556399998,None,,,,,,,,,,,213,24,Female,2022-05-10_14h17.14.551,Main,2022.1.1,59.99610025336378,
neutral,neutral,2,k,k,,,,,,,,,8,7,151,10,,,,,,,,,,,,,,,,,,,,,,,,main,1,1,2,neutral,neutral,k,k,1,1.1510714000000917,446.19288229999984,447.2009920999999,447.18144619999975,None,446.19288229999984,None,446.19288229999984,None,446.19288229999984,None,448.32699943999967,None,448.32699943999967,None,448.32699943999967,None,,,,,,,,,,,213,24,Female,2022-05-10_14h17.14.551,Main,2022.1.1,59.99610025336378,
positive,negative,1,l,j,,,,,,,,,8,8,152,5,,,,,,,,,,,,,,,,,,,,,,,,main,1,1,1,negative,positive,j,j,1,1.285957199999757,448.34831029999987,449.3620195999997,449.3255343999999,None,448.34831029999987,None,448.34831029999987,None,448.34831029999987,None,450.6174655399999,None,450.6174655399999,None,450.6174655399999,None,,,,,,,,,,,213,24,Female,2022-05-10_14h17.14.551,Main,2022.1.1,59.99610025336378,
neutral,positive,1,k,k,,,,,,,,,8,9,153,4,,,,,,,,,,,,,,,,,,,,,,,,main,2,2,1,positive,neutral,k,k,1,0.7248373999996147,450.63790900000004,451.6578956999997,451.62017209999976,None,450.63790900000004,None,450.63790900000004,None,450.63790900000004,None,452.3469920399997,None,452.3469920399997,None,452.3469920399997,None,,,,,,,,,,,213,24,Female,2022-05-10_14h17.14.551,Main,2022.1.1,59.99610025336378,
positive,neutral,1,l,j,,,,,,,,,8,10,154,8,,,,,,,,,,,,,,,,,,,,,,,,main,2,2,1,neutral,positive,j,j,1,1.3325383999999758,452.36921159999974,453.3773719999999,453.3395465999997,None,452.36921159999974,None,452.36921159999974,None,452.36921159999974,None,454.6815554399999,None,454.6815554399999,None,454.6815554399999,None,,,,,,,,,,,213,24,Female,2022-05-10_14h17.14.551,Main,2022.1.1,59.99610025336378,
positive,negative,2,l,j,,,,,,,,,8,11,155,14,,,,,,,,,,,,,,,,,,,,,,,,main,1,1,2,negative,positive,j,j,1,0.802861799999846,454.70116789999975,455.71114209999996,455.6745455,None,454.70116789999975,None,454.70116789999975,None,454.70116789999975,None,456.4856908400001,None,456.4856908400001,None,456.4856908400001,None,,,,,,,,,,,213,24,Female,2022-05-10_14h17.14.551,Main,2022.1.1,59.99610025336378,
neutral,negative,1,k,k,,,,,,,,,8,12,156,7,,,,,,,,,,,,,,,,,,,,,,,,main,1,1,1,negative,neutral,k,k,1,0.8294544999998834,456.5069478999999,457.52284889999964,457.4854247999997,None,456.5069478999999,None,456.5069478999999,None,456.5069478999999,None,458.3181369399998,None,458.3181369399998,None,458.3181369399998,None,,,,,,,,,,,213,24,Female,2022-05-10_14h17.14.551,Main,2022.1.1,59.99610025336378,
positive,neutral,2,l,j,,,,,,,,,8,13,157,17,,,,,,,,,,,,,,,,,,,,,,,,main,1,1,2,neutral,positive,j,j,1,0.8647086999999374,458.3405496999999,459.3532062999998,459.31645579999986,None,458.3405496999999,None,458.3405496999999,None,458.3405496999999,None,460.18689394,None,460.18689394,None,460.18689394,None,,,,,,,,,,,213,24,Female,2022-05-10_14h17.14.551,Main,2022.1.1,59.99610025336378,
neutral,positive,2,k,k,,,,,,,,,8,14,158,13,,,,,,,,,,,,,,,,,,,,,,,,main,1,1,2,positive,neutral,k,k,1,0.8781349000000773,460.2064747999998,461.22531630000003,461.18741120000004,None,460.2064747999998,None,460.2064747999998,None,460.2064747999998,None,462.0676982399999,None,462.0676982399999,None,462.0676982399999,None,,,,,,,,,,,213,24,Female,2022-05-10_14h17.14.551,Main,2022.1.1,59.99610025336378,
negative,positive,1,j,l,,,,,,,,,8,15,159,6,,,,,,,,,,,,,,,,,,,,,,,,main,2,2,1,positive,negative,l,l,1,0.9402799999998024,462.0885215999997,463.09244929999977,463.0734401999998,None,462.0885215999997,None,462.0885215999997,None,462.0885215999997,None,464.01223633999996,None,464.01223633999996,None,464.01223633999996,None,,,,,,,,,,,213,24,Female,2022-05-10_14h17.14.551,Main,2022.1.1,59.99610025336378,
negative,negative,2,j,l,,,,,,,,,8,16,160,9,,,,,,,,,,,,,,,,,,,,,,,,main,1,1,2,negative,negative,l,l,1,1.0815185999999812,464.03156039999976,465.04003859999966,465.02126569999973,None,464.03156039999976,None,464.03156039999976,None,464.03156039999976,None,466.0964695399997,None,466.0964695399997,None,466.0964695399997,None,,,,,,,,,,,213,24,Female,2022-05-10_14h17.14.551,Main,2022.1.1,59.99610025336378,
neutral,negative,2,k,k,,,,,,,,,8,17,161,16,,,,,,,,,,,,,,,,,,,,,,,,main,2,2,2,negative,neutral,k,k,1,0.9608072999999422,466.11583189999965,467.11710019999964,467.0984940999997,None,466.11583189999965,None,466.11583189999965,None,466.11583189999965,None,468.0599777399997,None,468.0599777399997,None,468.0599777399997,None,,,,,,,,,,,213,24,Female,2022-05-10_14h17.14.551,Main,2022.1.1,59.99610025336378,
neutral,positive,2,k,k,,,,,,,,,9,0,162,13,,,,,,,,,,,,,,,,,,,,,,,,main,1,1,2,positive,neutral,k,k,1,0.8568159000001287,468.0807153999999,469.0952049999996,469.05669369999987,None,468.0807153999999,None,468.0807153999999,None,468.0807153999999,None,469.9175143399997,None,469.9175143399997,None,469.9175143399997,None,,,,,,,,,,,213,24,Female,2022-05-10_14h17.14.551,Main,2022.1.1,59.99610025336378,
positive,neutral,2,l,j,,,,,,,,,9,1,163,17,,,,,,,,,,,,,,,,,,,,,,,,main,2,2,2,neutral,positive,j,j,1,0.9645806999997149,469.9394196999997,470.94715399999995,470.9286517999999,None,469.9394196999997,None,469.9394196999997,None,469.9394196999997,None,471.88452663999976,None,471.88452663999976,None,471.88452663999976,None,,,,,,,,,,,213,24,Female,2022-05-10_14h17.14.551,Main,2022.1.1,59.99610025336378,
neutral,negative,2,k,k,,,,,,,,,9,2,164,16,,,,,,,,,,,,,,,,,,,,,,,,main,2,2,2,negative,neutral,k,j,0,0.9571915999999874,471.90500539999994,472.90820600000006,472.88947059999964,None,471.90500539999994,None,471.90500539999994,None,471.90500539999994,None,473.85135489999993,None,473.85135489999993,None,473.85135489999993,None,,,,,,,,,,,213,24,Female,2022-05-10_14h17.14.551,Main,2022.1.1,59.99610025336378,
negative,neutral,1,j,l,,,,,,,,,9,3,165,3,,,,,,,,,,,,,,,,,,,,,,,,main,2,2,1,neutral,negative,l,l,1,0.7439880000001722,474.8720423,475.87420159999965,475.8553812,None,474.8720423,None,474.8720423,None,474.8720423,None,476.5982458399998,None,476.5982458399998,None,476.5982458399998,None,,,,,,,,,,,213,24,Female,2022-05-10_14h17.14.551,Main,2022.1.1,59.99610025336378,
neutral,positive,1,k,k,,,,,,,,,9,4,166,4,,,,,,,,,,,,,,,,,,,,,,,,main,2,2,1,positive,neutral,k,k,1,0.6930281999998442,476.6217508999998,477.6412100999996,477.60352109999985,None,476.6217508999998,None,476.6217508999998,None,476.6217508999998,None,478.2950972399998,None,478.2950972399998,None,478.2950972399998,None,,,,,,,,,,,213,24,Female,2022-05-10_14h17.14.551,Main,2022.1.1,59.99610025336378,
positive,positive,2,l,j,,,,,,,,,9,5,167,11,,,,,,,,,,,,,,,,,,,,,,,,main,1,1,2,positive,positive,j,j,1,0.7093472999999904,478.31652459999987,479.32443710000007,479.30577379999977,None,478.31652459999987,None,478.31652459999987,None,478.31652459999987,None,480.00975073999996,None,480.00975073999996,None,480.00975073999996,None,,,,,,,,,,,213,24,Female,2022-05-10_14h17.14.551,Main,2022.1.1,59.99610025336378,
negative,negative,1,j,l,,,,,,,,,9,6,168,0,,,,,,,,,,,,,,,,,,,,,,,,main,2,2,1,negative,negative,l,l,1,0.6659291000000849,480.03028559999984,481.04480799999965,481.0065889999996,None,480.03028559999984,None,480.03028559999984,None,480.03028559999984,None,481.67786523999973,None,481.67786523999973,None,481.67786523999973,None,,,,,,,,,,,213,24,Female,2022-05-10_14h17.14.551,Main,2022.1.1,59.99610025336378,
positive,positive,1,l,j,,,,,,,,,9,7,169,2,,,,,,,,,,,,,,,,,,,,,,,,main,2,2,1,positive,positive,j,j,1,0.7856539000003977,481.69828289999987,482.7012261,482.6825257999999,None,481.69828289999987,None,481.69828289999987,None,481.69828289999987,None,483.46539174,None,483.46539174,None,483.46539174,None,,,,,,,,,,,213,24,Female,2022-05-10_14h17.14.551,Main,2022.1.1,59.99610025336378,
negative,neutral,2,j,l,,,,,,,,,9,8,170,12,,,,,,,,,,,,,,,,,,,,,,,,main,2,2,2,neutral,negative,l,l,1,0.8384967999995752,483.48471549999977,484.48846539999977,484.46989299999996,None,483.48471549999977,None,483.48471549999977,None,483.48471549999977,None,485.30596654,None,485.30596654,None,485.30596654,None,,,,,,,,,,,213,24,Female,2022-05-10_14h17.14.551,Main,2022.1.1,59.99610025336378,
negative,positive,1,j,l,,,,,,,,,9,9,171,6,,,,,,,,,,,,,,,,,,,,,,,,main,1,1,1,positive,negative,l,l,1,0.6679552999999032,485.3259466999998,486.34544830000004,486.30685459999995,None,485.3259466999998,None,485.3259466999998,None,485.3259466999998,None,486.97754613999984,None,486.97754613999984,None,486.97754613999984,None,,,,,,,,,,,213,24,Female,2022-05-10_14h17.14.551,Main,2022.1.1,59.99610025336378,
negative,negative,2,j,l,,,,,,,,,9,10,172,9,,,,,,,,,,,,,,,,,,,,,,,,main,2,2,2,negative,negative,l,l,1,0.8881575000000339,486.99843250000004,488.0138015999996,487.9759509999999,None,486.99843250000004,None,486.99843250000004,None,486.99843250000004,None,488.86825493999993,None,488.86825493999993,None,488.86825493999993,None,,,,,,,,,,,213,24,Female,2022-05-10_14h17.14.551,Main,2022.1.1,59.99610025336378,
neutral,neutral,2,k,k,,,,,,,,,9,11,173,10,,,,,,,,,,,,,,,,,,,,,,,,main,2,2,2,neutral,neutral,k,k,1,0.7290121000000909,488.89021539999976,489.9114258999998,489.87240759999986,None,488.89021539999976,None,488.89021539999976,None,488.89021539999976,None,490.5996083399999,None,490.5996083399999,None,490.5996083399999,None,,,,,,,,,,,213,24,Female,2022-05-10_14h17.14.551,Main,2022.1.1,59.99610025336378,
neutral,negative,1,k,k,,,,,,,,,9,12,174,7,,,,,,,,,,,,,,,,,,,,,,,,main,1,1,1,negative,neutral,k,k,1,0.7704558999998881,490.61993989999974,491.63141879999966,491.59309129999974,None,490.61993989999974,None,490.61993989999974,None,490.61993989999974,None,492.37513853999997,None,492.37513853999997,None,492.37513853999997,None,,,,,,,,,,,213,24,Female,2022-05-10_14h17.14.551,Main,2022.1.1,59.99610025336378,
neutral,neutral,1,k,k,,,,,,,,,9,13,175,1,,,,,,,,,,,,,,,,,,,,,,,,main,2,2,1,neutral,neutral,k,k,1,0.7785428000001957,492.3942907999999,493.3964765999999,493.37771509999993,None,492.3942907999999,None,492.3942907999999,None,492.3942907999999,None,494.1559418400001,None,494.1559418400001,None,494.1559418400001,None,,,,,,,,,,,213,24,Female,2022-05-10_14h17.14.551,Main,2022.1.1,59.99610025336378,
negative,positive,2,j,l,,,,,,,,,9,14,176,15,,,,,,,,,,,,,,,,,,,,,,,,main,1,1,2,positive,negative,l,k,0,0.6697953999996571,494.1771054000001,495.1953930999998,495.1568454999997,None,494.1771054000001,None,494.1771054000001,None,494.1771054000001,None,495.8345767999999,None,495.8345767999999,None,495.8345767999999,None,,,,,,,,,,,213,24,Female,2022-05-10_14h17.14.551,Main,2022.1.1,59.99610025336378,
positive,neutral,1,l,j,,,,,,,,,9,15,177,8,,,,,,,,,,,,,,,,,,,,,,,,main,2,2,1,neutral,positive,j,j,1,0.9855047999999442,496.85315189999983,497.8645855,497.8461388999999,None,496.85315189999983,None,496.85315189999983,None,496.85315189999983,None,498.8180713400001,None,498.8180713400001,None,498.8180713400001,None,,,,,,,,,,,213,24,Female,2022-05-10_14h17.14.551,Main,2022.1.1,59.99610025336378,
positive,negative,2,l,j,,,,,,,,,9,16,178,14,,,,,,,,,,,,,,,,,,,,,,,,main,2,2,2,negative,positive,j,j,1,0.7294925000001058,498.8393025999999,499.8461777999996,499.8276385999998,None,498.8393025999999,None,498.8393025999999,None,498.8393025999999,None,500.54830303999995,None,500.54830303999995,None,500.54830303999995,None,,,,,,,,,,,213,24,Female,2022-05-10_14h17.14.551,Main,2022.1.1,59.99610025336378,
positive,negative,1,l,j,,,,,,,,,9,17,179,5,,,,,,,,,,,,,,,,,,,,,,,,main,1,1,1,negative,positive,j,j,1,0.6716231000000334,500.57797779999964,501.5976206999999,501.5600178999998,None,500.57797779999964,None,500.57797779999964,None,500.57797779999964,None,502.2281397400001,None,502.2281397400001,None,502.2281397400001,None,,,,,,,,,,,213,24,Female,2022-05-10_14h17.14.551,Main,2022.1.1,59.99610025336378,
negative,negative,1,j,l,,,,,,,,,10,0,180,0,,,,,,,,,,,,,,,,,,,,,,,,main,2,2,1,negative,negative,l,l,1,0.7454797000000326,502.24845860000005,503.25064840000005,503.23138679999965,None,502.24845860000005,None,502.24845860000005,None,502.24845860000005,None,503.9779086399998,None,503.9779086399998,None,503.9779086399998,None,,,,,,,,,,,213,24,Female,2022-05-10_14h17.14.551,Main,2022.1.1,59.99610025336378,
positive,negative,1,l,j,,,,,,,,,10,1,181,5,,,,,,,,,,,,,,,,,,,,,,,,main,1,1,1,negative,positive,j,j,1,0.816045099999883,503.9986429999999,505.0006054999999,504.9821318999998,None,503.9986429999999,None,503.9986429999999,None,503.9986429999999,None,505.7970770400001,None,505.7970770400001,None,505.7970770400001,None,,,,,,,,,,,213,24,Female,2022-05-10_14h17.14.551,Main,2022.1.1,59.99610025336378,
negative,neutral,2,j,l,,,,,,,,,10,2,182,12,,,,,,,,,,,,,,,,,,,,,,,,main,1,1,2,neutral,negative,l,l,1,0.7053599000000759,505.81960690000005,506.82366209999964,506.80384090000007,None,505.81960690000005,None,505.81960690000005,None,505.81960690000005,None,507.50737653999965,None,507.50737653999965,None,507.50737653999965,None,,,,,,,,,,,213,24,Female,2022-05-10_14h17.14.551,Main,2022.1.1,59.99610025336378,
neutral,positive,1,k,k,,,,,,,,,10,3,183,4,,,,,,,,,,,,,,,,,,,,,,,,main,1,1,1,positive,neutral,k,k,1,0.9576200999999855,507.5279876999998,508.5350492999996,508.51641070000005,None,507.5279876999998,None,507.5279876999998,None,507.5279876999998,None,509.4662799399997,None,509.4662799399997,None,509.4662799399997,None,,,,,,,,,,,213,24,Female,2022-05-10_14h17.14.551,Main,2022.1.1,59.99610025336378,
negative,positive,1,j,l,,,,,,,,,10,4,184,6,,,,,,,,,,,,,,,,,,,,,,,,main,2,2,1,positive,negative,l,l,1,0.8107875000000604,509.4861793,510.49452629999996,510.4753357999998,None,509.4861793,None,509.4861793,None,509.4861793,None,511.2800589399998,None,511.2800589399998,None,511.2800589399998,None,,,,,,,,,,,213,24,Female,2022-05-10_14h17.14.551,Main,2022.1.1,59.99610025336378,
negative,negative,2,j,l,,,,,,,,,10,5,185,9,,,,,,,,,,,,,,,,,,,,,,,,main,2,2,2,negative,negative,l,l,1,1.32630300000028,511.29946819999986,512.3108738999999,512.2729172999998,None,511.29946819999986,None,511.29946819999986,None,511.29946819999986,None,513.6101774399998,None,513.6101774399998,None,513.6101774399998,None,,,,,,,,,,,213,24,Female,2022-05-10_14h17.14.551,Main,2022.1.1,59.99610025336378,
positive,negative,2,l,j,,,,,,,,,10,6,186,14,,,,,,,,,,,,,,,,,,,,,,,,main,2,2,2,negative,positive,j,j,1,0.9156084999999621,513.631464,514.6421990999997,514.6028392999997,None,513.631464,None,513.631464,None,513.631464,None,515.5280323400001,None,515.5280323400001,None,515.5280323400001,None,,,,,,,,,,,213,24,Female,2022-05-10_14h17.14.551,Main,2022.1.1,59.99610025336378,
neutral,positive,2,k,k,,,,,,,,,10,7,187,13,,,,,,,,,,,,,,,,,,,,,,,,main,1,1,2,positive,neutral,k,k,1,0.8040940000000774,515.5481049999999,516.5557037999997,516.5357921999998,None,515.5481049999999,None,515.5481049999999,None,515.5481049999999,None,517.33623454,None,517.33623454,None,517.33623454,None,,,,,,,,,,,213,24,Female,2022-05-10_14h17.14.551,Main,2022.1.1,59.99610025336378,
positive,neutral,1,l,j,,,,,,,,,10,8,188,8,,,,,,,,,,,,,,,,,,,,,,,,main,1,1,1,neutral,positive,j,j,1,1.0176824000000124,517.3553190999996,518.3637088999999,518.3455457999999,None,517.3553190999996,None,517.3553190999996,None,517.3553190999996,None,519.3566195399998,None,519.3566195399998,None,519.3566195399998,None,,,,,,,,,,,213,24,Female,2022-05-10_14h17.14.551,Main,2022.1.1,59.99610025336378,
negative,positive,2,j,l,,,,,,,,,10,9,189,15,,,,,,,,,,,,,,,,,,,,,,,,main,2,2,2,positive,negative,l,l,1,1.018278399999872,519.3760437999999,520.3814221999996,520.3626294999999,None,519.3760437999999,None,519.3760437999999,None,519.3760437999999,None,521.3763327400001,None,521.3763327400001,None,521.3763327400001,None,,,,,,,,,,,213,24,Female,2022-05-10_14h17.14.551,Main,2022.1.1,59.99610025336378,
neutral,neutral,1,k,k,,,,,,,,,10,10,190,1,,,,,,,,,,,,,,,,,,,,,,,,main,2,2,1,neutral,neutral,k,k,1,0.8265004999998382,521.3975898999997,522.4121058999999,522.3752743,None,521.3975898999997,None,521.3975898999997,None,521.3975898999997,None,523.2067955399997,None,523.2067955399997,None,523.2067955399997,None,,,,,,,,,,,213,24,Female,2022-05-10_14h17.14.551,Main,2022.1.1,59.99610025336378,
positive,neutral,2,l,j,,,,,,,,,10,11,191,17,,,,,,,,,,,,,,,,,,,,,,,,main,1,1,2,neutral,positive,j,j,1,2.456886399999803,523.2271154,524.2433019,524.2041209999998,None,523.2271154,None,523.2271154,None,523.2271154,None,526.6709120999999,None,526.6709120999999,None,526.6709120999999,None,,,,,,,,,,,213,24,Female,2022-05-10_14h17.14.551,Main,2022.1.1,59.99610025336378,
neutral,negative,1,k,k,,,,,,,,,10,12,192,7,,,,,,,,,,,,,,,,,,,,,,,,main,2,2,1,negative,neutral,k,k,1,0.8328643999998349,527.6816469999999,528.6945895999997,528.6752351999999,None,527.6816469999999,None,527.6816469999999,None,527.6816469999999,None,529.49529814,None,529.49529814,None,529.49529814,None,,,,,,,,,,,213,24,Female,2022-05-10_14h17.14.551,Main,2022.1.1,59.99610025336378,
positive,positive,2,l,j,,,,,,,,,10,13,193,11,,,,,,,,,,,,,,,,,,,,,,,,main,2,2,2,positive,positive,j,j,1,0.8188866999998936,529.5160842999999,530.5345262999999,530.4964975999997,None,529.5160842999999,None,529.5160842999999,None,529.5160842999999,None,531.31879234,None,531.31879234,None,531.31879234,None,,,,,,,,,,,213,24,Female,2022-05-10_14h17.14.551,Main,2022.1.1,59.99610025336378,
neutral,neutral,2,k,k,,,,,,,,,10,14,194,10,,,,,,,,,,,,,,,,,,,,,,,,main,1,1,2,neutral,neutral,k,k,1,0.7510088000003634,531.3395738999998,532.3506223999998,532.3133168999998,None,531.3395738999998,None,531.3395738999998,None,531.3395738999998,None,533.0721855400001,None,533.0721855400001,None,533.0721855400001,None,,,,,,,,,,,213,24,Female,2022-05-10_14h17.14.551,Main,2022.1.1,59.99610025336378,
neutral,negative,2,k,k,,,,,,,,,10,15,195,16,,,,,,,,,,,,,,,,,,,,,,,,main,2,2,2,negative,neutral,k,k,1,0.7155281999998806,533.0914902,534.0932742,534.0747432999997,None,533.0914902,None,533.0914902,None,533.0914902,None,534.7902623399999,None,534.7902623399999,None,534.7902623399999,None,,,,,,,,,,,213,24,Female,2022-05-10_14h17.14.551,Main,2022.1.1,59.99610025336378,
negative,neutral,1,j,l,,,,,,,,,10,16,196,3,,,,,,,,,,,,,,,,,,,,,,,,main,2,2,1,neutral,negative,l,l,1,0.7546136999999362,534.8107938999997,535.828278,535.7894622999997,None,534.8107938999997,None,534.8107938999997,None,534.8107938999997,None,536.5478176400001,None,536.5478176400001,None,536.5478176400001,None,,,,,,,,,,,213,24,Female,2022-05-10_14h17.14.551,Main,2022.1.1,59.99610025336378,
positive,positive,1,l,j,,,,,,,,,10,17,197,2,,,,,,,,,,,,,,,,,,,,,,,,main,2,2,1,positive,positive,j,j,1,0.9474488000000747,536.5720501000001,537.5792308,537.5597078999999,None,536.5720501000001,None,536.5720501000001,None,536.5720501000001,None,538.4973378399999,None,538.4973378399999,None,538.4973378399999,None,,,,,,,,,,,213,24,Female,2022-05-10_14h17.14.551,Main,2022.1.1,59.99610025336378,
neutral,positive,2,k,k,,,,,,,,,11,0,198,13,,,,,,,,,,,,,,,,,,,,,,,,main,2,2,2,positive,neutral,k,k,1,2.037180300000273,538.5177709999998,539.5208169999996,539.502602,None,538.5177709999998,None,538.5177709999998,None,538.5177709999998,None,541.5449362999998,None,541.5449362999998,None,541.5449362999998,None,,,,,,,,,,,213,24,Female,2022-05-10_14h17.14.551,Main,2022.1.1,59.99610025336378,
positive,neutral,2,l,j,,,,,,,,,11,1,199,17,,,,,,,,,,,,,,,,,,,,,,,,main,2,2,2,neutral,positive,j,j,1,0.8710820999999669,542.5640724999998,543.5761820999996,543.5568238999999,None,542.5640724999998,None,542.5640724999998,None,542.5640724999998,None,544.4168919399998,None,544.4168919399998,None,544.4168919399998,None,,,,,,,,,,,213,24,Female,2022-05-10_14h17.14.551,Main,2022.1.1,59.99610025336378,
negative,negative,1,j,l,,,,,,,,,11,2,200,0,,,,,,,,,,,,,,,,,,,,,,,,main,2,2,1,negative,negative,l,l,1,0.7454502999999022,544.4380848000001,545.4574938999999,545.4164081999998,None,544.4380848000001,None,544.4380848000001,None,544.4380848000001,None,546.1634858399997,None,546.1634858399997,None,546.1634858399997,None,,,,,,,,,,,213,24,Female,2022-05-10_14h17.14.551,Main,2022.1.1,59.99610025336378,
negative,neutral,1,j,l,,,,,,,,,11,3,201,3,,,,,,,,,,,,,,,,,,,,,,,,main,1,1,1,neutral,negative,l,l,1,0.6988492000000406,546.1832866,547.2027989999997,547.1648777,None,546.1832866,None,546.1832866,None,546.1832866,None,547.86646504,None,547.86646504,None,547.86646504,None,,,,,,,,,,,213,24,Female,2022-05-10_14h17.14.551,Main,2022.1.1,59.99610025336378,
negative,neutral,2,j,l,,,,,,,,,11,4,202,12,,,,,,,,,,,,,,,,,,,,,,,,main,1,1,2,neutral,negative,l,l,1,0.6947346000001744,547.8861231999999,548.8963844,548.8592974999997,None,547.8861231999999,None,547.8861231999999,None,547.8861231999999,None,549.5624033399998,None,549.5624033399998,None,549.5624033399998,None,,,,,,,,,,,213,24,Female,2022-05-10_14h17.14.551,Main,2022.1.1,59.99610025336378,
positive,neutral,1,l,j,,,,,,,,,11,5,203,8,,,,,,,,,,,,,,,,,,,,,,,,main,1,1,1,neutral,positive,j,k,0,1.5769208000001527,549.5824356999997,550.5952092999996,550.5582028999997,None,549.5824356999997,None,549.5824356999997,None,549.5824356999997,None,552.1521011999998,None,552.1521011999998,None,552.1521011999998,None,,,,,,,,,,,213,24,Female,2022-05-10_14h17.14.551,Main,2022.1.1,59.99610025336378,
negative,positive,1,j,l,,,,,,,,,11,6,204,6,,,,,,,,,,,,,,,,,,,,,,,,main,2,2,1,positive,negative,l,l,1,0.9406567999999425,553.1631064999997,554.1678935999998,554.1485426999998,None,553.1631064999997,None,553.1631064999997,None,553.1631064999997,None,555.08514434,None,555.08514434,None,555.08514434,None,,,,,,,,,,,213,24,Female,2022-05-10_14h17.14.551,Main,2022.1.1,59.99610025336378,
neutral,neutral,1,k,k,,,,,,,,,11,7,205,1,,,,,,,,,,,,,,,,,,,,,,,,main,1,1,1,neutral,neutral,k,k,1,0.7632166000003053,555.1053715999997,556.1174670999999,556.0784228999996,None,555.1053715999997,None,555.1053715999997,None,555.1053715999997,None,556.8511326399997,None,556.8511326399997,None,556.8511326399997,None,,,,,,,,,,,213,24,Female,2022-05-10_14h17.14.551,Main,2022.1.1,59.99610025336378,
positive,negative,2,l,j,,,,,,,,,11,8,206,14,,,,,,,,,,,,,,,,,,,,,,,,main,2,2,2,negative,positive,j,j,1,0.7667136999998547,556.8708198999998,557.8806353999998,557.8444735999997,None,556.8708198999998,None,556.8708198999998,None,556.8708198999998,None,558.6202713399997,None,558.6202713399997,None,558.6202713399997,None,,,,,,,,,,,213,24,Female,2022-05-10_14h17.14.551,Main,2022.1.1,59.99610025336378,
neutral,positive,1,k,k,,,,,,,,,11,9,207,4,,,,,,,,,,,,,,,,,,,,,,,,main,2,2,1,positive,neutral,k,k,1,0.7352843000003304,558.6417655999999,559.6562254,559.6190954999997,None,558.6417655999999,None,558.6417655999999,None,558.6417655999999,None,560.3584729399998,None,560.3584729399998,None,560.3584729399998,None,,,,,,,,,,,213,24,Female,2022-05-10_14h17.14.551,Main,2022.1.1,59.99610025336378,
negative,positive,2,j,l,,,,,,,,,11,10,208,15,,,,,,,,,,,,,,,,,,,,,,,,main,1,1,2,positive,negative,l,l,1,0.8602460000001884,560.3795403999998,561.3872622999997,561.3685796,None,560.3795403999998,None,560.3795403999998,None,560.3795403999998,None,562.2215858399999,None,562.2215858399999,None,562.2215858399999,None,,,,,,,,,,,213,24,Female,2022-05-10_14h17.14.551,Main,2022.1.1,59.99610025336378,
neutral,negative,1,k,k,,,,,,,,,11,11,209,7,,,,,,,,,,,,,,,,,,,,,,,,main,2,2,1,negative,neutral,k,k,1,0.921244999999999,562.2429230999996,563.2536636,563.2143601999996,None,562.2429230999996,None,562.2429230999996,None,562.2429230999996,None,564.1450658399998,None,564.1450658399998,None,564.1450658399998,None,,,,,,,,,,,213,24,Female,2022-05-10_14h17.14.551,Main,2022.1.1,59.99610025336378,
positive,positive,1,l,j,,,,,,,,,11,12,210,2,,,,,,,,,,,,,,,,,,,,,,,,main,1,1,1,positive,positive,j,j,1,0.9637769999999364,564.1656647,565.1828495,565.1454706999998,None,564.1656647,None,564.1656647,None,564.1656647,None,566.1113859400001,None,566.1113859400001,None,566.1113859400001,None,,,,,,,,,,,213,24,Female,2022-05-10_14h17.14.551,Main,2022.1.1,59.99610025336378,
negative,negative,2,j,l,,,,,,,,,11,13,211,9,,,,,,,,,,,,,,,,,,,,,,,,main,2,2,2,negative,negative,l,l,1,1.018880199999785,566.1357767,567.1435727999997,567.1068035999997,None,566.1357767,None,566.1357767,None,566.1357767,None,568.1349644400001,None,568.1349644400001,None,568.1349644400001,None,,,,,,,,,,,213,24,Female,2022-05-10_14h17.14.551,Main,2022.1.1,59.99610025336378,
