target,distractor,set,ans1,ans2,rep_loop2.thisRepN,rep_loop2.thisTrialN,rep_loop2.thisN,rep_loop2.thisIndex,flanker_prac_loop.thisRepN,flanker_prac_loop.thisTrialN,flanker_prac_loop.thisN,flanker_prac_loop.thisIndex,flanker_main_loop.thisRepN,flanker_main_loop.thisTrialN,flanker_main_loop.thisN,flanker_main_loop.thisIndex,fl_inst_resp.keys,mouse.x,mouse.y,mouse.leftButton,mouse.midButton,mouse.rightButton,mouse.started,mouse.stopped,sound_1.started,sound_1.stopped,no_text.started,no_text.stopped,yes_text.started,yes_text.stopped,mouse_2.x,mouse_2.y,mouse_2.leftButton,mouse_2.midButton,mouse_2.rightButton,mouse_2.started,mouse_2.stopped,back_2.started,back_2.stopped,main_prac,fl_cold,fl_colt,fl_set,fl_dcond,fl_tcond,fl_ans,fl_res,fl_corr,fl_rt,fix_fl.started,fix_fl.stopped,targ.started,targ.stopped,j_button.started,j_button.stopped,k_button.started,k_button.stopped,l_button.started,l_button.stopped,j_button2.started,j_button2.stopped,k_button2.started,k_button2.stopped,l_button2.started,l_button2.stopped,mainback.started,mainback.stopped,key_resp.keys,mouse_6.x,mouse_6.y,mouse_6.leftButton,mouse_6.midButton,mouse_6.rightButton,mouse_6.started,mouse_6.stopped,id*,age*,gender*,date,expName,psychopyVersion,frameRate,
,,,,,0,0,0,0,,,,,,,,,None,0.11574074,-0.4,0,0,0,1.014280280098319,None,21.526954429997204,None,71.75616639999862,None,71.75616639999862,None,-0.06759259,-0.060185187,0,0,0,0.012373530000331812,None,,,,,,,,,,,,,,,,,,,,,,,,,,,,,,,,,,,,,,,214,28,Female,2022-05-10_18h27.34.789,Main,2022.1.1,59.96152868256364,
positive,neutral,1,l,j,,,,,0,0,0,8,,,,,,,,,,,,,,,,,,,,,,,,,,75.53678939999736,None,prac,2,2,1,neutral,positive,l,l,1,1.6568961000011768,77.57433189999938,78.58628879999742,78.56678259999899,None,77.57433189999938,None,77.57433189999938,None,77.57433189999938,None,80.23301579999679,None,80.23301579999679,None,80.23301579999679,None,,,,,,,,,,,214,28,Female,2022-05-10_18h27.34.789,Main,2022.1.1,59.96152868256364,
neutral,neutral,1,k,k,,,,,0,1,1,1,,,,,,,,,,,,,,,,,,,,,,,,,,,,prac,1,1,1,neutral,neutral,k,k,1,0.8698762000021816,81.24983729999803,82.25533899999937,82.23369339999772,None,81.24983729999803,None,81.24983729999803,None,81.24983729999803,None,83.09749152999757,None,83.09749152999757,None,83.09749152999757,None,,,,,,,,,,,214,28,Female,2022-05-10_18h27.34.789,Main,2022.1.1,59.96152868256364,
negative,neutral,1,j,l,,,,,0,2,2,3,,,,,,,,,,,,,,,,,,,,,,,,,,,,prac,2,2,1,neutral,negative,j,j,1,0.68281769999885,83.12613719999717,84.13188329999684,84.1122301999967,None,83.12613719999717,None,83.12613719999717,None,83.12613719999717,None,84.78503642999749,None,84.78503642999749,None,84.78503642999749,None,,,,,,,,,,,214,28,Female,2022-05-10_18h27.34.789,Main,2022.1.1,59.96152868256364,
positive,positive,1,l,j,,,,,0,3,3,2,,,,,,,,,,,,,,,,,,,,,,,,,,,,prac,1,1,1,positive,positive,l,l,1,0.6620618000015384,84.81208549999792,85.81573479999861,85.81573479999861,None,84.81208549999792,None,84.81208549999792,None,84.81208549999792,None,86.44908402999681,None,86.44908402999681,None,86.44908402999681,None,,,,,,,,,,,214,28,Female,2022-05-10_18h27.34.789,Main,2022.1.1,59.96152868256364,
positive,negative,2,l,j,,,,,0,4,4,14,,,,,,,,,,,,,,,,,,,,,,,,,,,,prac,2,2,2,negative,positive,l,l,1,0.6946836999995867,86.47641719999956,87.49387879999995,87.4553081999984,None,86.47641719999956,None,86.47641719999956,None,86.47641719999956,None,88.14364682999985,None,88.14364682999985,None,88.14364682999985,None,,,,,,,,,,,214,28,Female,2022-05-10_18h27.34.789,Main,2022.1.1,59.96152868256364,
neutral,negative,2,k,k,,,,,0,5,5,16,,,,,,,,,,,,,,,,,,,,,,,,,,,,prac,1,1,2,negative,neutral,k,k,1,0.7166234999967855,88.1674303999971,89.17723969999861,89.15831629999957,None,88.1674303999971,None,88.1674303999971,None,88.1674303999971,None,89.86512872999992,None,89.86512872999992,None,89.86512872999992,None,,,,,,,,,,,214,28,Female,2022-05-10_18h27.34.789,Main,2022.1.1,59.96152868256364,
negative,negative,2,j,l,,,,,0,6,6,9,,,,,,,,,,,,,,,,,,,,,,,,,,,,prac,2,2,2,negative,negative,j,j,1,0.6084010000013222,89.88508809999985,90.88931069999671,90.87030009999944,None,89.88508809999985,None,89.88508809999985,None,89.88508809999985,None,91.47353512999871,None,91.47353512999871,None,91.47353512999871,None,,,,,,,,,,,214,28,Female,2022-05-10_18h27.34.789,Main,2022.1.1,59.96152868256364,
neutral,negative,1,k,k,,,,,0,7,7,7,,,,,,,,,,,,,,,,,,,,,,,,,,,,prac,2,2,1,negative,neutral,k,k,1,0.7649788000016997,91.50182869999844,92.51226189999943,92.49280089999957,None,91.50182869999844,None,91.50182869999844,None,91.50182869999844,None,93.2410784299991,None,93.2410784299991,None,93.2410784299991,None,,,,,,,,,,,214,28,Female,2022-05-10_18h27.34.789,Main,2022.1.1,59.96152868256364,
negative,positive,1,j,l,,,,,0,8,8,6,,,,,,,,,,,,,,,,,,,,,,,,,,,,prac,2,2,1,positive,negative,j,j,1,0.6875354000003426,93.26841299999796,94.27893619999668,94.25972629999887,None,93.26841299999796,None,93.26841299999796,None,93.26841299999796,None,94.93243452999923,None,94.93243452999923,None,94.93243452999923,None,,,,,,,,,,,214,28,Female,2022-05-10_18h27.34.789,Main,2022.1.1,59.96152868256364,
negative,neutral,2,j,l,,,,,0,9,9,12,,,,,,,,,,,,,,,,,,,,,,,,,,,,prac,2,2,2,neutral,negative,j,j,1,0.6679517999982636,94.95947709999746,95.9675344999996,95.94738569999754,None,94.95947709999746,None,94.95947709999746,None,94.95947709999746,None,96.60251222999977,None,96.60251222999977,None,96.60251222999977,None,,,,,,,,,,,214,28,Female,2022-05-10_18h27.34.789,Main,2022.1.1,59.96152868256364,
positive,neutral,2,l,j,,,,,0,10,10,17,,,,,,,,,,,,,,,,,,,,,,,,,,,,prac,1,1,2,neutral,positive,l,l,1,1.0085158999972919,96.62924349999957,97.63944699999774,97.62015819999942,None,96.62924349999957,None,96.62924349999957,None,96.62924349999957,None,98.61342123000031,None,98.61342123000031,None,98.61342123000031,None,,,,,,,,,,,214,28,Female,2022-05-10_18h27.34.789,Main,2022.1.1,59.96152868256364,
neutral,neutral,2,k,k,,,,,0,11,11,10,,,,,,,,,,,,,,,,,,,,,,,,,,,,prac,2,2,2,neutral,neutral,k,k,1,0.6188949999996112,98.63418909999746,99.64524359999996,99.62456289999682,None,98.63418909999746,None,98.63418909999746,None,98.63418909999746,None,100.23425592999956,None,100.23425592999956,None,100.23425592999956,None,,,,,,,,,,,214,28,Female,2022-05-10_18h27.34.789,Main,2022.1.1,59.96152868256364,
positive,positive,2,l,j,,,,,0,12,12,11,,,,,,,,,,,,,,,,,,,,,,,,,,,,prac,2,2,2,positive,positive,l,l,1,0.660995099999127,100.26296319999892,101.2830744999992,101.24366929999815,None,100.26296319999892,None,100.26296319999892,None,100.26296319999892,None,101.89882742999725,None,101.89882742999725,None,101.89882742999725,None,,,,,,,,,,,214,28,Female,2022-05-10_18h27.34.789,Main,2022.1.1,59.96152868256364,
positive,negative,1,l,j,,,,,0,13,13,5,,,,,,,,,,,,,,,,,,,,,,,,,,,,prac,2,2,1,negative,positive,l,l,1,0.6519114999973681,101.91975759999696,102.92253219999839,102.90278249999756,None,101.91975759999696,None,101.91975759999696,None,101.91975759999696,None,103.55310202999863,None,103.55310202999863,None,103.55310202999863,None,,,,,,,,,,,214,28,Female,2022-05-10_18h27.34.789,Main,2022.1.1,59.96152868256364,
neutral,positive,2,k,k,,,,,0,14,14,13,,,,,,,,,,,,,,,,,,,,,,,,,,,,prac,2,2,2,positive,neutral,k,k,1,0.6521092000002682,103.57376979999754,104.59212709999701,104.55325019999873,None,103.57376979999754,None,103.57376979999754,None,103.57376979999754,None,105.20720172999972,None,105.20720172999972,None,105.20720172999972,None,,,,,,,,,,,214,28,Female,2022-05-10_18h27.34.789,Main,2022.1.1,59.96152868256364,
negative,negative,1,j,l,,,,,0,15,15,0,,,,,,,,,,,,,,,,,,,,,,,,,,,,prac,1,1,1,negative,negative,j,j,1,0.5031820999975025,105.23588179999933,106.24115609999717,106.22204509999938,None,105.23588179999933,None,105.23588179999933,None,105.23588179999933,None,106.7147147300002,None,106.7147147300002,None,106.7147147300002,None,,,,,,,,,,,214,28,Female,2022-05-10_18h27.34.789,Main,2022.1.1,59.96152868256364,
neutral,positive,1,k,k,,,,,0,16,16,4,,,,,,,,,,,,,,,,,,,,,,,,,,,,prac,2,2,1,positive,neutral,k,k,1,0.5812274999989313,106.73540389999835,107.74393299999792,107.72444839999662,None,106.73540389999835,None,106.73540389999835,None,106.73540389999835,None,108.29493662999994,None,108.29493662999994,None,108.29493662999994,None,,,,,,,,,,,214,28,Female,2022-05-10_18h27.34.789,Main,2022.1.1,59.96152868256364,
negative,positive,2,j,l,,,,,0,17,17,15,,,,,,,,,,,,,,,,,,,,,,,,,,,,prac,2,2,2,positive,negative,j,j,1,0.5263140000024578,108.3172816999977,109.33089939999991,109.2925284999983,None,108.3172816999977,None,108.3172816999977,None,108.3172816999977,None,109.82461102999696,None,109.82461102999696,None,109.82461102999696,None,,,,,,,,,,,214,28,Female,2022-05-10_18h27.34.789,Main,2022.1.1,59.96152868256364,
neutral,positive,1,k,k,,,,,1,0,18,4,,,,,,,,,,,,,,,,,,,,,,,,,,,,prac,2,2,1,positive,neutral,k,k,1,0.5946914000014658,109.84517689999848,110.86249679999673,110.82358739999836,None,109.84517689999848,None,109.84517689999848,None,109.84517689999848,None,111.421345929999,None,111.421345929999,None,111.421345929999,None,,,,,,,,,,,214,28,Female,2022-05-10_18h27.34.789,Main,2022.1.1,59.96152868256364,
positive,neutral,2,l,j,,,,,1,1,19,17,,,,,,,,,,,,,,,,,,,,,,,,,,,,prac,1,1,2,neutral,positive,l,l,1,0.43407939999815426,111.442592899999,112.44621199999892,112.4278736999986,None,111.442592899999,None,111.442592899999,None,111.442592899999,None,112.85882572999799,None,112.85882572999799,None,112.85882572999799,None,,,,,,,,,,,214,28,Female,2022-05-10_18h27.34.789,Main,2022.1.1,59.96152868256364,
neutral,negative,1,k,k,,,,,1,2,20,7,,,,,,,,,,,,,,,,,,,,,,,,,,,,prac,2,2,1,negative,neutral,k,k,1,0.6416955999993661,112.87912289999804,113.89225599999918,113.87332679999963,None,112.87912289999804,None,112.87912289999804,None,112.87912289999804,None,114.50343753000016,None,114.50343753000016,None,114.50343753000016,None,,,,,,,,,,,214,28,Female,2022-05-10_18h27.34.789,Main,2022.1.1,59.96152868256364,
neutral,neutral,1,k,k,,,,,1,3,21,1,,,,,,,,,,,,,,,,,,,,,,,,,,,,prac,1,1,1,neutral,neutral,k,j,0,0.5102384999991045,114.52468919999956,115.52881129999878,115.50984069999686,None,114.52468919999956,None,114.52468919999956,None,114.52468919999956,None,116.0282961999983,None,116.0282961999983,None,116.0282961999983,None,,,,,,,,,,,214,28,Female,2022-05-10_18h27.34.789,Main,2022.1.1,59.96152868256364,
negative,neutral,1,j,l,,,,,1,4,22,3,,,,,,,,,,,,,,,,,,,,,,,,,,,,prac,1,1,1,neutral,negative,j,j,1,1.5762690999981714,117.04233709999971,118.04518539999845,118.02817689999938,None,117.04233709999971,None,117.04233709999971,None,117.04233709999971,None,119.60745789999783,None,119.60745789999783,None,119.60745789999783,None,,,,,,,,,,,214,28,Female,2022-05-10_18h27.34.789,Main,2022.1.1,59.96152868256364,
positive,neutral,1,l,j,,,,,1,5,23,8,,,,,,,,,,,,,,,,,,,,,,,,,,,,prac,1,1,1,neutral,positive,l,l,1,0.7267613000003621,120.62561709999864,121.6324504999975,121.61184199999843,None,120.62561709999864,None,120.62561709999864,None,120.62561709999864,None,122.33416362999742,None,122.33416362999742,None,122.33416362999742,None,,,,,,,,,,,214,28,Female,2022-05-10_18h27.34.789,Main,2022.1.1,59.96152868256364,
positive,negative,1,l,j,,,,,1,6,24,5,,,,,,,,,,,,,,,,,,,,,,,,,,,,prac,1,1,1,negative,positive,l,l,1,0.5561508999999205,122.35592869999891,123.36121289999937,123.34226579999813,None,122.35592869999891,None,122.35592869999891,None,122.35592869999891,None,123.89341202999822,None,123.89341202999822,None,123.89341202999822,None,,,,,,,,,,,214,28,Female,2022-05-10_18h27.34.789,Main,2022.1.1,59.96152868256364,
positive,positive,2,l,j,,,,,1,7,25,11,,,,,,,,,,,,,,,,,,,,,,,,,,,,prac,1,1,2,positive,positive,l,l,1,0.6683192999989842,123.9208652999987,124.93640749999759,124.91633159999765,None,123.9208652999987,None,123.9208652999987,None,123.9208652999987,None,125.56570132999877,None,125.56570132999877,None,125.56570132999877,None,,,,,,,,,,,214,28,Female,2022-05-10_18h27.34.789,Main,2022.1.1,59.96152868256364,
neutral,positive,2,k,k,,,,,1,8,26,13,,,,,,,,,,,,,,,,,,,,,,,,,,,,prac,2,2,2,positive,neutral,k,k,1,0.6093632000010984,125.58738619999713,126.60066579999693,126.56033969999771,None,125.58738619999713,None,125.58738619999713,None,125.58738619999713,None,127.17512452999836,None,127.17512452999836,None,127.17512452999836,None,,,,,,,,,,,214,28,Female,2022-05-10_18h27.34.789,Main,2022.1.1,59.96152868256364,
neutral,neutral,2,k,k,,,,,1,9,27,10,,,,,,,,,,,,,,,,,,,,,,,,,,,,prac,2,2,2,neutral,neutral,k,k,1,0.7265307000016037,127.19888050000009,128.21952669999882,128.17958769999677,None,127.19888050000009,None,127.19888050000009,None,127.19888050000009,None,128.90386462999777,None,128.90386462999777,None,128.90386462999777,None,,,,,,,,,,,214,28,Female,2022-05-10_18h27.34.789,Main,2022.1.1,59.96152868256364,
negative,neutral,2,j,l,,,,,1,10,28,12,,,,,,,,,,,,,,,,,,,,,,,,,,,,prac,2,2,2,neutral,negative,j,j,1,0.5892273999997997,128.92419840000002,129.94272439999986,129.9042133999974,None,128.92419840000002,None,128.92419840000002,None,128.92419840000002,None,130.49598922999758,None,130.49598922999758,None,130.49598922999758,None,,,,,,,,,,,214,28,Female,2022-05-10_18h27.34.789,Main,2022.1.1,59.96152868256364,
negative,positive,1,j,l,,,,,1,11,29,6,,,,,,,,,,,,,,,,,,,,,,,,,,,,prac,2,2,1,positive,negative,j,j,1,0.7286708999999973,130.51852579999832,131.53583029999936,131.4966706999985,None,130.51852579999832,None,130.51852579999832,None,130.51852579999832,None,132.2266620299979,None,132.2266620299979,None,132.2266620299979,None,,,,,,,,,,,214,28,Female,2022-05-10_18h27.34.789,Main,2022.1.1,59.96152868256364,
positive,negative,2,l,j,,,,,1,12,30,14,,,,,,,,,,,,,,,,,,,,,,,,,,,,prac,2,2,2,negative,positive,l,j,0,0.8476538999966579,132.24823849999666,133.25402109999777,133.23489789999803,None,132.24823849999666,None,132.24823849999666,None,132.24823849999666,None,134.08464009999807,None,134.08464009999807,None,134.08464009999807,None,,,,,,,,,,,214,28,Female,2022-05-10_18h27.34.789,Main,2022.1.1,59.96152868256364,
negative,negative,2,j,l,,,,,1,13,31,9,,,,,,,,,,,,,,,,,,,,,,,,,,,,prac,2,2,2,negative,negative,j,j,1,0.732508199998847,135.1079273999967,136.11284749999686,136.09310229999755,None,135.1079273999967,None,135.1079273999967,None,135.1079273999967,None,136.819731829999,None,136.819731829999,None,136.819731829999,None,,,,,,,,,,,214,28,Female,2022-05-10_18h27.34.789,Main,2022.1.1,59.96152868256364,
positive,positive,1,l,j,,,,,1,14,32,2,,,,,,,,,,,,,,,,,,,,,,,,,,,,prac,1,1,1,positive,positive,l,l,1,1.3405945999984397,136.8419388000002,137.85199029999785,137.83264659999986,None,136.8419388000002,None,136.8419388000002,None,136.8419388000002,None,139.1645891299977,None,139.1645891299977,None,139.1645891299977,None,,,,,,,,,,,214,28,Female,2022-05-10_18h27.34.789,Main,2022.1.1,59.96152868256364,
negative,positive,2,j,l,,,,,1,15,33,15,,,,,,,,,,,,,,,,,,,,,,,,,,,,prac,1,1,2,positive,negative,j,j,1,0.7103456000004371,139.18484349999926,140.2053855999984,140.1665549999998,None,139.18484349999926,None,139.18484349999926,None,139.18484349999926,None,140.87930613000026,None,140.87930613000026,None,140.87930613000026,None,,,,,,,,,,,214,28,Female,2022-05-10_18h27.34.789,Main,2022.1.1,59.96152868256364,
neutral,negative,2,k,k,,,,,1,16,34,16,,,,,,,,,,,,,,,,,,,,,,,,,,,,prac,2,2,2,negative,neutral,k,k,1,0.6608703999991121,140.89981859999898,141.91677439999694,141.8750489999984,None,140.89981859999898,None,140.89981859999898,None,140.89981859999898,None,142.54242142999829,None,142.54242142999829,None,142.54242142999829,None,,,,,,,,,,,214,28,Female,2022-05-10_18h27.34.789,Main,2022.1.1,59.96152868256364,
negative,negative,1,j,l,,,,,1,17,35,0,,,,,,,,,,,,,,,,,,,,,,,,,,,,prac,2,2,1,negative,negative,j,j,1,0.5802874000000884,142.56262579999748,143.57004569999845,143.55045419999806,None,142.56262579999748,None,142.56262579999748,None,142.56262579999748,None,144.12471852999988,None,144.12471852999988,None,144.12471852999988,None,,,,,,,,,,,214,28,Female,2022-05-10_18h27.34.789,Main,2022.1.1,59.96152868256364,
,,,,,,,,,,,,,,,,,,,,,,,,,,,,,,,,,,,,,,,,,,,,,,,,,,,,,,,,,,,,,,,,,,144.13203280000016,None,None,,,,,,,,214,28,Female,2022-05-10_18h27.34.789,Main,2022.1.1,59.96152868256364,
,,,,,,,,,,,,,,,,,,,,,,,,,,,,,,,,,,,,,,,,,,,,,,,,,,,,,,,,,,,,,,,,,,,,,0.09537037,-0.08148148,1,0,0,0.006144330000097398,None,214,28,Female,2022-05-10_18h27.34.789,Main,2022.1.1,59.96152868256364,
positive,negative,2,l,j,,,,,,,,,0,0,0,14,,,,,,,,,,,,,,,,,,,,,,152.86022479999883,None,main,1,1,2,negative,positive,l,l,1,0.8340459000028204,154.88271489999897,155.90292039999986,155.86432149999746,None,154.88271489999897,None,154.88271489999897,None,154.88271489999897,None,156.69567492999886,None,156.69567492999886,None,156.69567492999886,None,,,,,,,,,,,214,28,Female,2022-05-10_18h27.34.789,Main,2022.1.1,59.96152868256364,
negative,positive,2,j,l,,,,,,,,,0,1,1,15,,,,,,,,,,,,,,,,,,,,,,,,main,2,2,2,positive,negative,j,j,1,0.7525759000018297,156.71975729999758,157.72222159999728,157.702678499998,None,156.71975729999758,None,156.71975729999758,None,156.71975729999758,None,158.45214052999836,None,158.45214052999836,None,158.45214052999836,None,,,,,,,,,,,214,28,Female,2022-05-10_18h27.34.789,Main,2022.1.1,59.96152868256364,
positive,positive,1,l,j,,,,,,,,,0,2,2,2,,,,,,,,,,,,,,,,,,,,,,,,main,2,2,1,positive,positive,l,l,1,0.6658166999986861,158.47310490000018,159.4903686999969,159.45138269999734,None,158.47310490000018,None,158.47310490000018,None,158.47310490000018,None,160.1219193300003,None,160.1219193300003,None,160.1219193300003,None,,,,,,,,,,,214,28,Female,2022-05-10_18h27.34.789,Main,2022.1.1,59.96152868256364,
negative,negative,2,j,l,,,,,,,,,0,3,3,9,,,,,,,,,,,,,,,,,,,,,,,,main,1,1,2,negative,negative,j,j,1,0.6617695999993884,160.14264550000007,161.1552886999998,161.11685739999666,None,160.14264550000007,None,160.14264550000007,None,160.14264550000007,None,161.78466962999846,None,161.78466962999846,None,161.78466962999846,None,,,,,,,,,,,214,28,Female,2022-05-10_18h27.34.789,Main,2022.1.1,59.96152868256364,
neutral,negative,1,k,k,,,,,,,,,0,4,4,7,,,,,,,,,,,,,,,,,,,,,,,,main,2,2,1,negative,neutral,k,k,1,0.6512775000010151,161.80567729999893,162.8128345999976,162.79295959999945,None,161.80567729999893,None,161.80567729999893,None,161.80567729999893,None,163.44011682999735,None,163.44011682999735,None,163.44011682999735,None,,,,,,,,,,,214,28,Female,2022-05-10_18h27.34.789,Main,2022.1.1,59.96152868256364,
neutral,neutral,2,k,k,,,,,,,,,0,5,5,10,,,,,,,,,,,,,,,,,,,,,,,,main,2,2,2,neutral,neutral,k,k,1,0.6843155999995361,163.46030009999959,164.47639329999947,164.43730460000006,None,163.46030009999959,None,163.46030009999959,None,163.46030009999959,None,165.12697512999694,None,165.12697512999694,None,165.12697512999694,None,,,,,,,,,,,214,28,Female,2022-05-10_18h27.34.789,Main,2022.1.1,59.96152868256364,
positive,positive,2,l,j,,,,,,,,,0,6,6,11,,,,,,,,,,,,,,,,,,,,,,,,main,1,1,2,positive,positive,l,l,1,0.7231399999982386,165.1475587999994,166.1639060999987,166.1251510000002,None,165.1475587999994,None,165.1475587999994,None,165.1475587999994,None,166.85439692999898,None,166.85439692999898,None,166.85439692999898,None,,,,,,,,,,,214,28,Female,2022-05-10_18h27.34.789,Main,2022.1.1,59.96152868256364,
negative,positive,1,j,l,,,,,,,,,0,7,7,6,,,,,,,,,,,,,,,,,,,,,,,,main,1,1,1,positive,negative,j,j,1,0.5342120999994222,166.8752671000002,167.88066809999873,167.86090599999807,None,166.8752671000002,None,166.8752671000002,None,166.8752671000002,None,168.3913267299995,None,168.3913267299995,None,168.3913267299995,None,,,,,,,,,,,214,28,Female,2022-05-10_18h27.34.789,Main,2022.1.1,59.96152868256364,
neutral,positive,2,k,k,,,,,,,,,0,8,8,13,,,,,,,,,,,,,,,,,,,,,,,,main,2,2,2,positive,neutral,k,k,1,0.6323252000001958,168.41226039999674,169.43276799999876,169.39310879999903,None,168.41226039999674,None,168.41226039999674,None,168.41226039999674,None,170.0257876300002,None,170.0257876300002,None,170.0257876300002,None,,,,,,,,,,,214,28,Female,2022-05-10_18h27.34.789,Main,2022.1.1,59.96152868256364,
negative,neutral,1,j,l,,,,,,,,,0,9,9,3,,,,,,,,,,,,,,,,,,,,,,,,main,1,1,1,neutral,negative,j,j,1,0.7157138000002305,170.04701829999976,171.0574319999978,171.0378733999969,None,170.04701829999976,None,170.04701829999976,None,170.04701829999976,None,171.7441348299999,None,171.7441348299999,None,171.7441348299999,None,,,,,,,,,,,214,28,Female,2022-05-10_18h27.34.789,Main,2022.1.1,59.96152868256364,
positive,negative,1,l,j,,,,,,,,,0,10,10,5,,,,,,,,,,,,,,,,,,,,,,,,main,2,2,1,negative,positive,l,l,1,0.6171780999975454,171.76529440000013,172.7713318999995,172.7521514,None,171.76529440000013,None,171.76529440000013,None,171.76529440000013,None,173.36392072999843,None,173.36392072999843,None,173.36392072999843,None,,,,,,,,,,,214,28,Female,2022-05-10_18h27.34.789,Main,2022.1.1,59.96152868256364,
neutral,negative,2,k,k,,,,,,,,,0,11,11,16,,,,,,,,,,,,,,,,,,,,,,,,main,1,1,2,negative,neutral,k,k,1,0.6468949999980396,173.38467469999887,174.40073389999816,174.36201049999727,None,173.38467469999887,None,173.38467469999887,None,173.38467469999887,None,175.0132578299981,None,175.0132578299981,None,175.0132578299981,None,,,,,,,,,,,214,28,Female,2022-05-10_18h27.34.789,Main,2022.1.1,59.96152868256364,
positive,neutral,2,l,j,,,,,,,,,0,12,12,17,,,,,,,,,,,,,,,,,,,,,,,,main,2,2,2,neutral,positive,l,l,1,0.6814521000014793,175.03426509999917,176.0468297999978,176.02686099999846,None,175.03426509999917,None,175.03426509999917,None,175.03426509999917,None,176.6961839300002,None,176.6961839300002,None,176.6961839300002,None,,,,,,,,,,,214,28,Female,2022-05-10_18h27.34.789,Main,2022.1.1,59.96152868256364,
neutral,neutral,1,k,k,,,,,,,,,0,13,13,1,,,,,,,,,,,,,,,,,,,,,,,,main,2,2,1,neutral,neutral,k,k,1,0.7695024000022386,176.7183961999981,177.72151349999695,177.70284919999904,None,176.7183961999981,None,176.7183961999981,None,176.7183961999981,None,178.46929332999753,None,178.46929332999753,None,178.46929332999753,None,,,,,,,,,,,214,28,Female,2022-05-10_18h27.34.789,Main,2022.1.1,59.96152868256364,
positive,neutral,1,l,j,,,,,,,,,0,14,14,8,,,,,,,,,,,,,,,,,,,,,,,,main,2,2,1,neutral,positive,l,l,1,0.6934858000022359,178.4897130999998,179.49394439999742,179.47223959999974,None,178.4897130999998,None,178.4897130999998,None,178.4897130999998,None,180.1647728299995,None,180.1647728299995,None,180.1647728299995,None,,,,,,,,,,,214,28,Female,2022-05-10_18h27.34.789,Main,2022.1.1,59.96152868256364,
neutral,positive,1,k,k,,,,,,,,,0,15,15,4,,,,,,,,,,,,,,,,,,,,,,,,main,2,2,1,positive,neutral,k,k,1,0.7298002000025008,180.1860480999967,181.204479,181.16464439999982,None,180.1860480999967,None,180.1860480999967,None,180.1860480999967,None,181.89718962999723,None,181.89718962999723,None,181.89718962999723,None,,,,,,,,,,,214,28,Female,2022-05-10_18h27.34.789,Main,2022.1.1,59.96152868256364,
negative,neutral,2,j,l,,,,,,,,,0,16,16,12,,,,,,,,,,,,,,,,,,,,,,,,main,2,2,2,neutral,negative,j,j,1,0.7388990999970702,181.91932619999716,182.93462019999788,182.8940483999977,None,181.91932619999716,None,181.91932619999716,None,181.91932619999716,None,183.64158072999817,None,183.64158072999817,None,183.64158072999817,None,,,,,,,,,,,214,28,Female,2022-05-10_18h27.34.789,Main,2022.1.1,59.96152868256364,
negative,negative,1,j,l,,,,,,,,,0,17,17,0,,,,,,,,,,,,,,,,,,,,,,,,main,2,2,1,negative,negative,j,j,1,1.4670957000016642,183.66287269999884,184.67073529999834,184.65113869999914,None,183.66287269999884,None,183.66287269999884,None,183.66287269999884,None,186.11133462999896,None,186.11133462999896,None,186.11133462999896,None,,,,,,,,,,,214,28,Female,2022-05-10_18h27.34.789,Main,2022.1.1,59.96152868256364,
positive,neutral,2,l,j,,,,,,,,,1,0,18,17,,,,,,,,,,,,,,,,,,,,,,,,main,2,2,2,neutral,positive,l,l,1,0.7928648000015528,186.13410099999965,187.15351299999747,187.11453359999723,None,186.13410099999965,None,186.13410099999965,None,186.13410099999965,None,187.90861892999783,None,187.90861892999783,None,187.90861892999783,None,,,,,,,,,,,214,28,Female,2022-05-10_18h27.34.789,Main,2022.1.1,59.96152868256364,
neutral,negative,2,k,k,,,,,,,,,1,1,19,16,,,,,,,,,,,,,,,,,,,,,,,,main,1,1,2,negative,neutral,k,k,1,0.6209573000014643,187.92990669999926,188.94373839999753,188.9043012000002,None,187.92990669999926,None,187.92990669999926,None,187.92990669999926,None,189.5321833299986,None,189.5321833299986,None,189.5321833299986,None,,,,,,,,,,,214,28,Female,2022-05-10_18h27.34.789,Main,2022.1.1,59.96152868256364,
positive,neutral,1,l,j,,,,,,,,,1,2,20,8,,,,,,,,,,,,,,,,,,,,,,,,main,2,2,1,neutral,positive,l,l,1,0.6693878999976732,189.553434999998,190.57447279999906,190.53513909999674,None,189.553434999998,None,189.553434999998,None,189.553434999998,None,191.20658353,None,191.20658353,None,191.20658353,None,,,,,,,,,,,214,28,Female,2022-05-10_18h27.34.789,Main,2022.1.1,59.96152868256364,
negative,neutral,2,j,l,,,,,,,,,1,3,21,12,,,,,,,,,,,,,,,,,,,,,,,,main,1,1,2,neutral,negative,j,j,1,0.7772353999971529,191.2265453,192.2397611999986,192.20051709999825,None,191.2265453,None,191.2265453,None,191.2265453,None,192.98647333000008,None,192.98647333000008,None,192.98647333000008,None,,,,,,,,,,,214,28,Female,2022-05-10_18h27.34.789,Main,2022.1.1,59.96152868256364,
negative,positive,2,j,l,,,,,,,,,1,4,22,15,,,,,,,,,,,,,,,,,,,,,,,,main,2,2,2,positive,negative,j,j,1,1.5343544999996084,193.0073599999996,194.01230509999732,193.99262850000014,None,193.0073599999996,None,193.0073599999996,None,193.0073599999996,None,195.52969649999795,None,195.52969649999795,None,195.52969649999795,None,,,,,,,,,,,214,28,Female,2022-05-10_18h27.34.789,Main,2022.1.1,59.96152868256364,
neutral,neutral,1,k,k,,,,,,,,,1,5,23,1,,,,,,,,,,,,,,,,,,,,,,,,main,1,1,1,neutral,neutral,k,k,1,0.7199407000007341,196.5500202999974,197.5616420999977,197.54194129999814,None,196.5500202999974,None,196.5500202999974,None,196.5500202999974,None,198.25130982999872,None,198.25130982999872,None,198.25130982999872,None,,,,,,,,,,,214,28,Female,2022-05-10_18h27.34.789,Main,2022.1.1,59.96152868256364,
positive,negative,2,l,j,,,,,,,,,1,6,24,14,,,,,,,,,,,,,,,,,,,,,,,,main,2,2,2,negative,positive,l,l,1,0.7596173999991152,198.27246119999836,199.283796599997,199.2645338000002,None,198.27246119999836,None,198.27246119999836,None,198.27246119999836,None,200.0118142299998,None,200.0118142299998,None,200.0118142299998,None,,,,,,,,,,,214,28,Female,2022-05-10_18h27.34.789,Main,2022.1.1,59.96152868256364,
neutral,neutral,2,k,k,,,,,,,,,1,7,25,10,,,,,,,,,,,,,,,,,,,,,,,,main,2,2,2,neutral,neutral,k,k,1,0.7517316000012215,200.03296769999724,201.04973229999814,201.0106883999979,None,200.03296769999724,None,200.03296769999724,None,200.03296769999724,None,201.76517493000028,None,201.76517493000028,None,201.76517493000028,None,,,,,,,,,,,214,28,Female,2022-05-10_18h27.34.789,Main,2022.1.1,59.96152868256364,
neutral,positive,1,k,k,,,,,,,,,1,8,26,4,,,,,,,,,,,,,,,,,,,,,,,,main,1,1,1,positive,neutral,k,k,1,0.7004259999994247,201.7908411999997,202.80333079999764,202.7639066999982,None,201.7908411999997,None,201.7908411999997,None,201.7908411999997,None,203.4706435299977,None,203.4706435299977,None,203.4706435299977,None,,,,,,,,,,,214,28,Female,2022-05-10_18h27.34.789,Main,2022.1.1,59.96152868256364,
positive,negative,1,l,j,,,,,,,,,1,9,27,5,,,,,,,,,,,,,,,,,,,,,,,,main,2,2,1,negative,positive,l,l,1,0.6992635000024165,203.4922497999978,204.4945231999991,204.47479459999886,None,203.4922497999978,None,203.4922497999978,None,203.4922497999978,None,205.17234382999777,None,205.17234382999777,None,205.17234382999777,None,,,,,,,,,,,214,28,Female,2022-05-10_18h27.34.789,Main,2022.1.1,59.96152868256364,
positive,positive,1,l,j,,,,,,,,,1,10,28,2,,,,,,,,,,,,,,,,,,,,,,,,main,2,2,1,positive,positive,l,l,1,0.7088258000003407,205.19368469999972,206.20877269999983,206.16883359999701,None,205.19368469999972,None,205.19368469999972,None,205.19368469999972,None,206.8854942300004,None,206.8854942300004,None,206.8854942300004,None,,,,,,,,,,,214,28,Female,2022-05-10_18h27.34.789,Main,2022.1.1,59.96152868256364,
negative,neutral,1,j,l,,,,,,,,,1,11,29,3,,,,,,,,,,,,,,,,,,,,,,,,main,2,2,1,neutral,negative,j,j,1,0.6472011000005296,206.9068230999983,207.9238396999972,207.88425819999975,None,206.9068230999983,None,206.9068230999983,None,206.9068230999983,None,208.53540273,None,208.53540273,None,208.53540273,None,,,,,,,,,,,214,28,Female,2022-05-10_18h27.34.789,Main,2022.1.1,59.96152868256364,
positive,positive,2,l,j,,,,,,,,,1,12,30,11,,,,,,,,,,,,,,,,,,,,,,,,main,2,2,2,positive,positive,l,l,1,0.6555396000003384,208.55807639999693,209.5604045,209.5411056999983,None,208.55807639999693,None,208.55807639999693,None,208.55807639999693,None,210.19188642999688,None,210.19188642999688,None,210.19188642999688,None,,,,,,,,,,,214,28,Female,2022-05-10_18h27.34.789,Main,2022.1.1,59.96152868256364,
negative,positive,1,j,l,,,,,,,,,1,13,31,6,,,,,,,,,,,,,,,,,,,,,,,,main,1,1,1,positive,negative,j,j,1,0.6521229999998468,210.21361389999947,211.21619799999826,211.19646519999878,None,210.21361389999947,None,210.21361389999947,None,210.21361389999947,None,211.84930822999922,None,211.84930822999922,None,211.84930822999922,None,,,,,,,,,,,214,28,Female,2022-05-10_18h27.34.789,Main,2022.1.1,59.96152868256364,
negative,negative,2,j,l,,,,,,,,,1,14,32,9,,,,,,,,,,,,,,,,,,,,,,,,main,2,2,2,negative,negative,j,j,1,0.5791685999975016,211.86976329999743,212.89068679999764,212.85059309999997,None,211.86976329999743,None,211.86976329999743,None,211.86976329999743,None,213.42794192999827,None,213.42794192999827,None,213.42794192999827,None,,,,,,,,,,,214,28,Female,2022-05-10_18h27.34.789,Main,2022.1.1,59.96152868256364,
neutral,negative,1,k,k,,,,,,,,,1,15,33,7,,,,,,,,,,,,,,,,,,,,,,,,main,2,2,1,negative,neutral,k,k,1,0.6762331999998423,213.45510619999914,214.47520809999696,214.43633209999825,None,213.45510619999914,None,213.45510619999914,None,213.45510619999914,None,215.1086833299978,None,215.1086833299978,None,215.1086833299978,None,,,,,,,,,,,214,28,Female,2022-05-10_18h27.34.789,Main,2022.1.1,59.96152868256364,
negative,negative,1,j,l,,,,,,,,,1,16,34,0,,,,,,,,,,,,,,,,,,,,,,,,main,2,2,1,negative,negative,j,j,1,0.6668899999967834,215.1303917999976,216.1455047999989,216.10706349999964,None,215.1303917999976,None,215.1303917999976,None,215.1303917999976,None,216.77839462999873,None,216.77839462999873,None,216.77839462999873,None,,,,,,,,,,,214,28,Female,2022-05-10_18h27.34.789,Main,2022.1.1,59.96152868256364,
neutral,positive,2,k,k,,,,,,,,,1,17,35,13,,,,,,,,,,,,,,,,,,,,,,,,main,1,1,2,positive,neutral,k,k,1,0.6191715999993903,216.80365579999852,217.8121100999997,217.79191639999772,None,216.80365579999852,None,216.80365579999852,None,216.80365579999852,None,218.40367652999885,None,218.40367652999885,None,218.40367652999885,None,,,,,,,,,,,214,28,Female,2022-05-10_18h27.34.789,Main,2022.1.1,59.96152868256364,
neutral,neutral,2,k,k,,,,,,,,,2,0,36,10,,,,,,,,,,,,,,,,,,,,,,,,main,2,2,2,neutral,neutral,k,k,1,0.6938807000005909,218.42571889999817,219.43085369999972,219.41180840000015,None,218.42571889999817,None,218.42571889999817,None,218.42571889999817,None,220.10270122999827,None,220.10270122999827,None,220.10270122999827,None,,,,,,,,,,,214,28,Female,2022-05-10_18h27.34.789,Main,2022.1.1,59.96152868256364,
neutral,negative,2,k,k,,,,,,,,,2,1,37,16,,,,,,,,,,,,,,,,,,,,,,,,main,2,2,2,negative,neutral,k,k,1,1.2791113000021141,220.12486889999855,221.14458869999726,221.106135799997,None,220.12486889999855,None,220.12486889999855,None,220.12486889999855,None,222.3829718299985,None,222.3829718299985,None,222.3829718299985,None,,,,,,,,,,,214,28,Female,2022-05-10_18h27.34.789,Main,2022.1.1,59.96152868256364,
positive,neutral,2,l,j,,,,,,,,,2,2,38,17,,,,,,,,,,,,,,,,,,,,,,,,main,1,1,2,neutral,positive,l,l,1,0.6949830999983533,222.40352199999688,223.4109686999982,223.39163369999733,None,222.40352199999688,None,222.40352199999688,None,222.40352199999688,None,224.08152892999897,None,224.08152892999897,None,224.08152892999897,None,,,,,,,,,,,214,28,Female,2022-05-10_18h27.34.789,Main,2022.1.1,59.96152868256364,
positive,negative,2,l,j,,,,,,,,,2,3,39,14,,,,,,,,,,,,,,,,,,,,,,,,main,1,1,2,negative,positive,l,l,1,0.8815285000018775,224.10200219999751,225.11727729999984,225.0781379,None,224.10200219999751,None,224.10200219999751,None,224.10200219999751,None,225.9655392299992,None,225.9655392299992,None,225.9655392299992,None,,,,,,,,,,,214,28,Female,2022-05-10_18h27.34.789,Main,2022.1.1,59.96152868256364,
negative,neutral,2,j,l,,,,,,,,,2,4,40,12,,,,,,,,,,,,,,,,,,,,,,,,main,1,1,2,neutral,negative,j,j,1,0.8346856999996817,225.98550189999878,226.99534219999987,226.97605999999723,None,225.98550189999878,None,225.98550189999878,None,225.98550189999878,None,227.80288002999987,None,227.80288002999987,None,227.80288002999987,None,,,,,,,,,,,214,28,Female,2022-05-10_18h27.34.789,Main,2022.1.1,59.96152868256364,
negative,negative,1,j,l,,,,,,,,,2,5,41,0,,,,,,,,,,,,,,,,,,,,,,,,main,2,2,1,negative,negative,j,j,1,0.6364733999980672,227.82377019999694,228.82932909999727,228.8097361,None,227.82377019999694,None,227.82377019999694,None,227.82377019999694,None,229.44168383000033,None,229.44168383000033,None,229.44168383000033,None,,,,,,,,,,,214,28,Female,2022-05-10_18h27.34.789,Main,2022.1.1,59.96152868256364,
neutral,neutral,1,k,k,,,,,,,,,2,6,42,1,,,,,,,,,,,,,,,,,,,,,,,,main,1,1,1,neutral,neutral,k,k,1,0.7000077000011515,229.46247519999815,230.4746970999986,230.43680869999662,None,229.46247519999815,None,229.46247519999815,None,229.46247519999815,None,231.14401622999685,None,231.14401622999685,None,231.14401622999685,None,,,,,,,,,,,214,28,Female,2022-05-10_18h27.34.789,Main,2022.1.1,59.96152868256364,
neutral,negative,1,k,k,,,,,,,,,2,7,43,7,,,,,,,,,,,,,,,,,,,,,,,,main,2,2,1,negative,neutral,k,k,1,1.0513723000003665,231.16994509999859,232.1734424999995,232.15332289999787,None,231.16994509999859,None,231.16994509999859,None,231.16994509999859,None,233.20038992999798,None,233.20038992999798,None,233.20038992999798,None,,,,,,,,,,,214,28,Female,2022-05-10_18h27.34.789,Main,2022.1.1,59.96152868256364,
negative,positive,2,j,l,,,,,,,,,2,8,44,15,,,,,,,,,,,,,,,,,,,,,,,,main,2,2,2,positive,negative,j,j,1,0.7113309000014851,233.22163539999747,234.24149380000017,234.20284799999718,None,233.22163539999747,None,233.22163539999747,None,233.22163539999747,None,234.91387652999947,None,234.91387652999947,None,234.91387652999947,None,,,,,,,,,,,214,28,Female,2022-05-10_18h27.34.789,Main,2022.1.1,59.96152868256364,
positive,negative,1,l,j,,,,,,,,,2,9,45,5,,,,,,,,,,,,,,,,,,,,,,,,main,2,2,1,negative,positive,l,l,1,1.6342096999978821,234.93425079999724,235.9521922999993,235.91240729999845,None,234.93425079999724,None,234.93425079999724,None,234.93425079999724,None,237.55754259999958,None,237.55754259999958,None,237.55754259999958,None,,,,,,,,,,,214,28,Female,2022-05-10_18h27.34.789,Main,2022.1.1,59.96152868256364,
positive,positive,1,l,j,,,,,,,,,2,10,46,2,,,,,,,,,,,,,,,,,,,,,,,,main,2,2,1,positive,positive,l,l,1,0.7237710000008519,238.578332699999,239.58987609999895,239.56877349999922,None,238.578332699999,None,238.578332699999,None,238.578332699999,None,240.28264192999814,None,240.28264192999814,None,240.28264192999814,None,,,,,,,,,,,214,28,Female,2022-05-10_18h27.34.789,Main,2022.1.1,59.96152868256364,
negative,negative,2,j,l,,,,,,,,,2,11,47,9,,,,,,,,,,,,,,,,,,,,,,,,main,2,2,2,negative,negative,j,j,1,0.7913752000022214,240.30347749999783,241.31492139999682,241.2949336999991,None,240.30347749999783,None,240.30347749999783,None,240.30347749999783,None,242.0750725300004,None,242.0750725300004,None,242.0750725300004,None,,,,,,,,,,,214,28,Female,2022-05-10_18h27.34.789,Main,2022.1.1,59.96152868256364,
positive,positive,2,l,j,,,,,,,,,2,12,48,11,,,,,,,,,,,,,,,,,,,,,,,,main,2,2,2,positive,positive,l,l,1,0.6636163999974087,242.09612999999808,243.1088796999975,243.08872009999686,None,242.09612999999808,None,242.09612999999808,None,242.09612999999808,None,243.74123442999735,None,243.74123442999735,None,243.74123442999735,None,,,,,,,,,,,214,28,Female,2022-05-10_18h27.34.789,Main,2022.1.1,59.96152868256364,
neutral,positive,1,k,k,,,,,,,,,2,13,49,4,,,,,,,,,,,,,,,,,,,,,,,,main,2,2,1,positive,neutral,k,k,1,0.7354518000029202,243.7651877999997,244.78871939999954,244.74747299999945,None,243.7651877999997,None,243.7651877999997,None,243.7651877999997,None,245.4814173299983,None,245.4814173299983,None,245.4814173299983,None,,,,,,,,,,,214,28,Female,2022-05-10_18h27.34.789,Main,2022.1.1,59.96152868256364,
positive,neutral,1,l,j,,,,,,,,,2,14,50,8,,,,,,,,,,,,,,,,,,,,,,,,main,1,1,1,neutral,positive,l,l,1,1.7267826999996032,245.50470789999963,246.51162169999952,246.49277909999728,None,245.50470789999963,None,245.50470789999963,None,245.50470789999963,None,248.215484999997,None,248.215484999997,None,248.215484999997,None,,,,,,,,,,,214,28,Female,2022-05-10_18h27.34.789,Main,2022.1.1,59.96152868256364,
negative,positive,1,j,l,,,,,,,,,2,15,51,6,,,,,,,,,,,,,,,,,,,,,,,,main,2,2,1,positive,negative,j,j,1,0.6766949000011664,249.243813699999,250.2488732999991,250.2288591999968,None,249.243813699999,None,249.243813699999,None,249.243813699999,None,250.90066442999705,None,250.90066442999705,None,250.90066442999705,None,,,,,,,,,,,214,28,Female,2022-05-10_18h27.34.789,Main,2022.1.1,59.96152868256364,
negative,neutral,1,j,l,,,,,,,,,2,16,52,3,,,,,,,,,,,,,,,,,,,,,,,,main,2,2,1,neutral,negative,j,j,1,0.8058310999986134,250.92240279999896,251.92411699999866,251.90491279999696,None,250.92240279999896,None,250.92240279999896,None,250.92240279999896,None,252.71171582999705,None,252.71171582999705,None,252.71171582999705,None,,,,,,,,,,,214,28,Female,2022-05-10_18h27.34.789,Main,2022.1.1,59.96152868256364,
neutral,positive,2,k,k,,,,,,,,,2,17,53,13,,,,,,,,,,,,,,,,,,,,,,,,main,1,1,2,positive,neutral,k,k,1,0.644277500003227,252.73324229999707,253.75948249999783,253.7117744999996,None,252.73324229999707,None,252.73324229999707,None,252.73324229999707,None,254.35774003000006,None,254.35774003000006,None,254.35774003000006,None,,,,,,,,,,,214,28,Female,2022-05-10_18h27.34.789,Main,2022.1.1,59.96152868256364,
negative,positive,1,j,l,,,,,,,,,3,0,54,6,,,,,,,,,,,,,,,,,,,,,,,,main,1,1,1,positive,negative,j,j,1,0.7759765000009793,254.37903619999997,255.38626339999973,255.36702819999846,None,254.37903619999997,None,254.37903619999997,None,254.37903619999997,None,256.13603622999835,None,256.13603622999835,None,256.13603622999835,None,,,,,,,,,,,214,28,Female,2022-05-10_18h27.34.789,Main,2022.1.1,59.96152868256364,
negative,positive,2,j,l,,,,,,,,,3,1,55,15,,,,,,,,,,,,,,,,,,,,,,,,main,1,1,2,positive,negative,j,j,1,0.7087446000005002,256.1588460999992,257.17696519999663,257.1365816999969,None,256.1588460999992,None,256.1588460999992,None,256.1588460999992,None,257.849743929999,None,257.849743929999,None,257.849743929999,None,,,,,,,,,,,214,28,Female,2022-05-10_18h27.34.789,Main,2022.1.1,59.96152868256364,
neutral,negative,2,k,k,,,,,,,,,3,2,56,16,,,,,,,,,,,,,,,,,,,,,,,,main,1,1,2,negative,neutral,k,k,1,1.3346394000000146,257.87134869999863,258.89005969999926,258.85131909999836,None,257.87134869999863,None,257.87134869999863,None,257.87134869999863,None,260.18645402999937,None,260.18645402999937,None,260.18645402999937,None,,,,,,,,,,,214,28,Female,2022-05-10_18h27.34.789,Main,2022.1.1,59.96152868256364,
neutral,negative,1,k,k,,,,,,,,,3,3,57,7,,,,,,,,,,,,,,,,,,,,,,,,main,1,1,1,negative,neutral,k,k,1,0.6248288000024331,260.20789049999803,261.2243413999968,261.18720669999675,None,260.20789049999803,None,260.20789049999803,None,260.20789049999803,None,261.8157841299999,None,261.8157841299999,None,261.8157841299999,None,,,,,,,,,,,214,28,Female,2022-05-10_18h27.34.789,Main,2022.1.1,59.96152868256364,
negative,negative,1,j,l,,,,,,,,,3,4,58,0,,,,,,,,,,,,,,,,,,,,,,,,main,2,2,1,negative,negative,j,j,1,0.8357663999995566,261.83763519999775,262.8429714999984,262.8237943999993,None,261.83763519999775,None,261.83763519999775,None,261.83763519999775,None,263.654320929998,None,263.654320929998,None,263.654320929998,None,,,,,,,,,,,214,28,Female,2022-05-10_18h27.34.789,Main,2022.1.1,59.96152868256364,
neutral,neutral,2,k,k,,,,,,,,,3,5,59,10,,,,,,,,,,,,,,,,,,,,,,,,main,2,2,2,neutral,neutral,k,k,1,0.6318084999984421,263.67766519999714,264.69372680000015,264.6545383999983,None,263.67766519999714,None,263.67766519999714,None,263.67766519999714,None,265.28880712999853,None,265.28880712999853,None,265.28880712999853,None,,,,,,,,,,,214,28,Female,2022-05-10_18h27.34.789,Main,2022.1.1,59.96152868256364,
neutral,neutral,1,k,k,,,,,,,,,3,6,60,1,,,,,,,,,,,,,,,,,,,,,,,,main,2,2,1,neutral,neutral,k,k,1,0.6529556000023149,265.3098943999976,266.3204061999968,266.3010762999984,None,265.3098943999976,None,265.3098943999976,None,265.3098943999976,None,266.946689729999,None,266.946689729999,None,266.946689729999,None,,,,,,,,,,,214,28,Female,2022-05-10_18h27.34.789,Main,2022.1.1,59.96152868256364,
neutral,positive,2,k,k,,,,,,,,,3,7,61,13,,,,,,,,,,,,,,,,,,,,,,,,main,1,1,2,positive,neutral,k,k,1,0.6411720999967656,266.96699859999717,267.97474749999674,267.9537993999984,None,266.96699859999717,None,266.96699859999717,None,266.96699859999717,None,268.586210129999,None,268.586210129999,None,268.586210129999,None,,,,,,,,,,,214,28,Female,2022-05-10_18h27.34.789,Main,2022.1.1,59.96152868256364,
positive,negative,2,l,j,,,,,,,,,3,8,62,14,,,,,,,,,,,,,,,,,,,,,,,,main,2,2,2,negative,positive,l,l,1,0.7268898000002082,268.60899529999733,269.61331909999717,269.5935302999969,None,268.60899529999733,None,268.60899529999733,None,268.60899529999733,None,270.3174615299995,None,270.3174615299995,None,270.3174615299995,None,,,,,,,,,,,214,28,Female,2022-05-10_18h27.34.789,Main,2022.1.1,59.96152868256364,
negative,negative,2,j,l,,,,,,,,,3,9,63,9,,,,,,,,,,,,,,,,,,,,,,,,main,2,2,2,negative,negative,j,j,1,0.7650408999979845,270.3389971999968,271.3590654999971,271.3200849999994,None,270.3389971999968,None,270.3389971999968,None,270.3389971999968,None,272.08570272999896,None,272.08570272999896,None,272.08570272999896,None,,,,,,,,,,,214,28,Female,2022-05-10_18h27.34.789,Main,2022.1.1,59.96152868256364,
negative,neutral,2,j,l,,,,,,,,,3,10,64,12,,,,,,,,,,,,,,,,,,,,,,,,main,2,2,2,neutral,negative,j,j,1,0.7731434000015724,272.10694129999683,273.1112050999982,273.0916335999973,None,272.10694129999683,None,272.10694129999683,None,272.10694129999683,None,273.8631332299974,None,273.8631332299974,None,273.8631332299974,None,,,,,,,,,,,214,28,Female,2022-05-10_18h27.34.789,Main,2022.1.1,59.96152868256364,
positive,neutral,2,l,j,,,,,,,,,3,11,65,17,,,,,,,,,,,,,,,,,,,,,,,,main,2,2,2,neutral,positive,l,l,1,0.8758398999998462,273.8836170999966,274.89447409999775,274.8742300999984,None,273.8836170999966,None,273.8836170999966,None,273.8836170999966,None,275.740188329999,None,275.740188329999,None,275.740188329999,None,,,,,,,,,,,214,28,Female,2022-05-10_18h27.34.789,Main,2022.1.1,59.96152868256364,
positive,positive,1,l,j,,,,,,,,,3,12,66,2,,,,,,,,,,,,,,,,,,,,,,,,main,2,2,1,positive,positive,l,l,1,0.7403753999969922,275.7614173999973,276.7665457999974,276.74694549999913,None,275.7614173999973,None,275.7614173999973,None,275.7614173999973,None,277.4822059300004,None,277.4822059300004,None,277.4822059300004,None,,,,,,,,,,,214,28,Female,2022-05-10_18h27.34.789,Main,2022.1.1,59.96152868256364,
positive,neutral,1,l,j,,,,,,,,,3,13,67,8,,,,,,,,,,,,,,,,,,,,,,,,main,1,1,1,neutral,positive,l,l,1,0.6813860000002023,277.50623829999677,278.51876249999987,278.4994412999986,None,277.50623829999677,None,277.50623829999677,None,277.50623829999677,None,279.1664479299998,None,279.1664479299998,None,279.1664479299998,None,,,,,,,,,,,214,28,Female,2022-05-10_18h27.34.789,Main,2022.1.1,59.96152868256364,
positive,positive,2,l,j,,,,,,,,,3,14,68,11,,,,,,,,,,,,,,,,,,,,,,,,main,2,2,2,positive,positive,l,l,1,0.9063012000005983,279.18955749999805,280.20553449999716,280.16599519999727,None,279.18955749999805,None,279.18955749999805,None,279.18955749999805,None,281.0770245299991,None,281.0770245299991,None,281.0770245299991,None,,,,,,,,,,,214,28,Female,2022-05-10_18h27.34.789,Main,2022.1.1,59.96152868256364,
neutral,positive,1,k,k,,,,,,,,,3,15,69,4,,,,,,,,,,,,,,,,,,,,,,,,main,2,2,1,positive,neutral,k,k,1,1.1140469999991183,281.09853010000006,282.1080446999986,282.0866916999985,None,281.09853010000006,None,281.09853010000006,None,281.09853010000006,None,283.1937445299973,None,283.1937445299973,None,283.1937445299973,None,,,,,,,,,,,214,28,Female,2022-05-10_18h27.34.789,Main,2022.1.1,59.96152868256364,
negative,neutral,1,j,l,,,,,,,,,3,16,70,3,,,,,,,,,,,,,,,,,,,,,,,,main,2,2,1,neutral,negative,j,j,1,0.8111556000003475,283.21508449999965,284.2357538999968,284.1968511999985,None,283.21508449999965,None,283.21508449999965,None,283.21508449999965,None,285.007360829999,None,285.007360829999,None,285.007360829999,None,,,,,,,,,,,214,28,Female,2022-05-10_18h27.34.789,Main,2022.1.1,59.96152868256364,
positive,negative,1,l,j,,,,,,,,,3,17,71,5,,,,,,,,,,,,,,,,,,,,,,,,main,2,2,1,negative,positive,l,l,1,0.7373684999984107,285.02809909999996,286.04842479999934,286.0089997999967,None,285.02809909999996,None,285.02809909999996,None,285.02809909999996,None,286.74700182999914,None,286.74700182999914,None,286.74700182999914,None,,,,,,,,,,,214,28,Female,2022-05-10_18h27.34.789,Main,2022.1.1,59.96152868256364,
positive,negative,2,l,j,,,,,,,,,4,0,72,14,,,,,,,,,,,,,,,,,,,,,,,,main,1,1,2,negative,positive,l,l,1,0.6896359999991546,286.7674518999993,287.7836635999993,287.74329020000005,None,286.7674518999993,None,286.7674518999993,None,286.7674518999993,None,288.44121602999985,None,288.44121602999985,None,288.44121602999985,None,,,,,,,,,,,214,28,Female,2022-05-10_18h27.34.789,Main,2022.1.1,59.96152868256364,
negative,positive,1,j,l,,,,,,,,,4,1,73,6,,,,,,,,,,,,,,,,,,,,,,,,main,1,1,1,positive,negative,j,j,1,0.8112412000009499,288.4616731999995,289.46779759999845,289.4484037000002,None,288.4616731999995,None,288.4616731999995,None,288.4616731999995,None,290.2530935300001,None,290.2530935300001,None,290.2530935300001,None,,,,,,,,,,,214,28,Female,2022-05-10_18h27.34.789,Main,2022.1.1,59.96152868256364,
negative,negative,2,j,l,,,,,,,,,4,2,74,9,,,,,,,,,,,,,,,,,,,,,,,,main,2,2,2,negative,negative,j,j,1,0.8417840999973123,290.27390000000014,291.29339919999984,291.25401749999946,None,290.27390000000014,None,290.27390000000014,None,290.27390000000014,None,292.09727802999805,None,292.09727802999805,None,292.09727802999805,None,,,,,,,,,,,214,28,Female,2022-05-10_18h27.34.789,Main,2022.1.1,59.96152868256364,
negative,neutral,1,j,l,,,,,,,,,4,3,75,3,,,,,,,,,,,,,,,,,,,,,,,,main,2,2,1,neutral,negative,j,j,1,0.5701153999980306,292.11833839999963,293.1204249000002,293.10152579999703,None,292.11833839999963,None,292.11833839999963,None,292.11833839999963,None,293.66969352999695,None,293.66969352999695,None,293.66969352999695,None,,,,,,,,,,,214,28,Female,2022-05-10_18h27.34.789,Main,2022.1.1,59.96152868256364,
negative,neutral,2,j,l,,,,,,,,,4,4,76,12,,,,,,,,,,,,,,,,,,,,,,,,main,1,1,2,neutral,negative,j,j,1,0.5837329000023601,293.69058519999817,294.7064148999998,294.66727869999886,None,293.69058519999817,None,293.69058519999817,None,293.69058519999817,None,295.25831862999803,None,295.25831862999803,None,295.25831862999803,None,,,,,,,,,,,214,28,Female,2022-05-10_18h27.34.789,Main,2022.1.1,59.96152868256364,
positive,positive,2,l,j,,,,,,,,,4,5,77,11,,,,,,,,,,,,,,,,,,,,,,,,main,1,1,2,positive,positive,l,l,1,1.2543326000013622,295.2783395999977,296.2946138999978,296.2548175999982,None,295.2783395999977,None,295.2783395999977,None,295.2783395999977,None,297.5130019299995,None,297.5130019299995,None,297.5130019299995,None,,,,,,,,,,,214,28,Female,2022-05-10_18h27.34.789,Main,2022.1.1,59.96152868256364,
neutral,negative,2,k,k,,,,,,,,,4,6,78,16,,,,,,,,,,,,,,,,,,,,,,,,main,1,1,2,negative,neutral,k,k,1,0.6717357000015909,297.5350593999974,298.54712010000003,298.5279097999992,None,297.5350593999974,None,297.5350593999974,None,297.5350593999974,None,299.19035182999687,None,299.19035182999687,None,299.19035182999687,None,,,,,,,,,,,214,28,Female,2022-05-10_18h27.34.789,Main,2022.1.1,59.96152868256364,
positive,neutral,1,l,j,,,,,,,,,4,7,79,8,,,,,,,,,,,,,,,,,,,,,,,,main,2,2,1,neutral,positive,l,l,1,0.65655279999919,299.2133135999975,300.2190253999979,300.1997288999992,None,299.2133135999975,None,299.2133135999975,None,299.2133135999975,None,300.8471018299988,None,300.8471018299988,None,300.8471018299988,None,,,,,,,,,,,214,28,Female,2022-05-10_18h27.34.789,Main,2022.1.1,59.96152868256364,
positive,neutral,2,l,j,,,,,,,,,4,8,80,17,,,,,,,,,,,,,,,,,,,,,,,,main,2,2,2,neutral,positive,l,l,1,0.6671701000013854,300.86885099999927,301.88819559999683,301.8484377999994,None,300.86885099999927,None,300.86885099999927,None,300.86885099999927,None,302.5171327299995,None,302.5171327299995,None,302.5171327299995,None,,,,,,,,,,,214,28,Female,2022-05-10_18h27.34.789,Main,2022.1.1,59.96152868256364,
negative,negative,1,j,l,,,,,,,,,4,9,81,0,,,,,,,,,,,,,,,,,,,,,,,,main,2,2,1,negative,negative,j,j,1,0.6993392000003951,302.5383946999973,303.54683779999687,303.5280211999998,None,302.5383946999973,None,302.5383946999973,None,302.5383946999973,None,304.21906162999767,None,304.21906162999767,None,304.21906162999767,None,,,,,,,,,,,214,28,Female,2022-05-10_18h27.34.789,Main,2022.1.1,59.96152868256364,
neutral,neutral,2,k,k,,,,,,,,,4,10,82,10,,,,,,,,,,,,,,,,,,,,,,,,main,2,2,2,neutral,neutral,k,k,1,0.8243356000020867,304.2410447999973,305.2587234999992,305.2187208999967,None,304.2410447999973,None,304.2410447999973,None,304.2410447999973,None,306.0469472299974,None,306.0469472299974,None,306.0469472299974,None,,,,,,,,,,,214,28,Female,2022-05-10_18h27.34.789,Main,2022.1.1,59.96152868256364,
neutral,positive,2,k,k,,,,,,,,,4,11,83,13,,,,,,,,,,,,,,,,,,,,,,,,main,2,2,2,positive,neutral,k,k,1,0.7400550000020303,306.06777650000004,307.0805557999993,307.04078409999784,None,306.06777650000004,None,306.06777650000004,None,306.06777650000004,None,307.79112512999745,None,307.79112512999745,None,307.79112512999745,None,,,,,,,,,,,214,28,Female,2022-05-10_18h27.34.789,Main,2022.1.1,59.96152868256364,
neutral,negative,1,k,k,,,,,,,,,4,12,84,7,,,,,,,,,,,,,,,,,,,,,,,,main,2,2,1,negative,neutral,k,k,1,0.9483087999979034,307.81312069999694,308.83000170000014,308.7904028999983,None,307.81312069999694,None,307.81312069999694,None,307.81312069999694,None,309.74165813000036,None,309.74165813000036,None,309.74165813000036,None,,,,,,,,,,,214,28,Female,2022-05-10_18h27.34.789,Main,2022.1.1,59.96152868256364,
negative,positive,2,j,l,,,,,,,,,4,13,85,15,,,,,,,,,,,,,,,,,,,,,,,,main,1,1,2,positive,negative,j,j,1,0.6631372999981977,309.76251839999895,310.7776481999972,310.7381762999976,None,309.76251839999895,None,309.76251839999895,None,309.76251839999895,None,311.4091762299995,None,311.4091762299995,None,311.4091762299995,None,,,,,,,,,,,214,28,Female,2022-05-10_18h27.34.789,Main,2022.1.1,59.96152868256364,
positive,negative,1,l,j,,,,,,,,,4,14,86,5,,,,,,,,,,,,,,,,,,,,,,,,main,1,1,1,negative,positive,l,l,1,0.6660494999996445,311.429988099997,312.44804250000016,312.4069297999995,None,311.429988099997,None,311.429988099997,None,311.429988099997,None,313.0778432299976,None,313.0778432299976,None,313.0778432299976,None,,,,,,,,,,,214,28,Female,2022-05-10_18h27.34.789,Main,2022.1.1,59.96152868256364,
neutral,neutral,1,k,k,,,,,,,,,4,15,87,1,,,,,,,,,,,,,,,,,,,,,,,,main,2,2,1,neutral,neutral,k,k,1,0.6979284000008192,313.09891439999774,314.1112342999986,314.0728601999981,None,313.09891439999774,None,313.09891439999774,None,313.09891439999774,None,314.778328729999,None,314.778328729999,None,314.778328729999,None,,,,,,,,,,,214,28,Female,2022-05-10_18h27.34.789,Main,2022.1.1,59.96152868256364,
neutral,positive,1,k,k,,,,,,,,,4,16,88,4,,,,,,,,,,,,,,,,,,,,,,,,main,2,2,1,positive,neutral,k,k,1,1.4007961999996041,314.79949759999727,315.8040039999978,315.78491459999714,None,314.79949759999727,None,314.79949759999727,None,314.79949759999727,None,317.1811135299995,None,317.1811135299995,None,317.1811135299995,None,,,,,,,,,,,214,28,Female,2022-05-10_18h27.34.789,Main,2022.1.1,59.96152868256364,
positive,positive,1,l,j,,,,,,,,,4,17,89,2,,,,,,,,,,,,,,,,,,,,,,,,main,2,2,1,positive,positive,l,l,1,0.6717967000004137,317.20278119999784,318.2235408999986,318.18403719999696,None,317.20278119999784,None,317.20278119999784,None,317.20278119999784,None,318.8568571300002,None,318.8568571300002,None,318.8568571300002,None,,,,,,,,,,,214,28,Female,2022-05-10_18h27.34.789,Main,2022.1.1,59.96152868256364,
positive,negative,1,l,j,,,,,,,,,5,0,90,5,,,,,,,,,,,,,,,,,,,,,,,,main,2,2,1,negative,positive,l,l,1,0.9170271000002685,318.87892329999886,319.9059312999998,319.85822740000003,None,318.87892329999886,None,318.87892329999886,None,318.87892329999886,None,320.77753392999693,None,320.77753392999693,None,320.77753392999693,None,,,,,,,,,,,214,28,Female,2022-05-10_18h27.34.789,Main,2022.1.1,59.96152868256364,
negative,positive,2,j,l,,,,,,,,,5,1,91,15,,,,,,,,,,,,,,,,,,,,,,,,main,2,2,2,positive,negative,j,j,1,1.2881746999992174,320.80045489999975,321.8083119999974,321.78889009999693,None,320.80045489999975,None,320.80045489999975,None,320.80045489999975,None,323.0703318299984,None,323.0703318299984,None,323.0703318299984,None,,,,,,,,,,,214,28,Female,2022-05-10_18h27.34.789,Main,2022.1.1,59.96152868256364,
neutral,negative,1,k,k,,,,,,,,,5,2,92,7,,,,,,,,,,,,,,,,,,,,,,,,main,1,1,1,negative,neutral,k,k,1,0.7026101000010385,323.0922241999979,324.10111029999825,324.0815145999986,None,323.0922241999979,None,323.0922241999979,None,323.0922241999979,None,324.775423629997,None,324.775423629997,None,324.775423629997,None,,,,,,,,,,,214,28,Female,2022-05-10_18h27.34.789,Main,2022.1.1,59.96152868256364,
positive,positive,2,l,j,,,,,,,,,5,3,93,11,,,,,,,,,,,,,,,,,,,,,,,,main,2,2,2,positive,positive,l,l,1,1.9677869999977702,324.79635419999977,325.8034176999972,325.7836443999986,None,324.79635419999977,None,324.79635419999977,None,324.79635419999977,None,327.7524216999991,None,327.7524216999991,None,327.7524216999991,None,,,,,,,,,,,214,28,Female,2022-05-10_18h27.34.789,Main,2022.1.1,59.96152868256364,
positive,positive,1,l,j,,,,,,,,,5,4,94,2,,,,,,,,,,,,,,,,,,,,,,,,main,2,2,1,positive,positive,l,l,1,0.7228178000004846,328.76747759999853,329.7748875999969,329.75497469999755,None,328.76747759999853,None,328.76747759999853,None,328.76747759999853,None,330.4700108300003,None,330.4700108300003,None,330.4700108300003,None,,,,,,,,,,,214,28,Female,2022-05-10_18h27.34.789,Main,2022.1.1,59.96152868256364,
negative,neutral,1,j,l,,,,,,,,,5,5,95,3,,,,,,,,,,,,,,,,,,,,,,,,main,1,1,1,neutral,negative,j,j,1,0.9582707999979903,330.49098159999994,331.50770799999736,331.4685970999999,None,330.49098159999994,None,330.49098159999994,None,330.49098159999994,None,332.42937402999996,None,332.42937402999996,None,332.42937402999996,None,,,,,,,,,,,214,28,Female,2022-05-10_18h27.34.789,Main,2022.1.1,59.96152868256364,
negative,negative,2,j,l,,,,,,,,,5,6,96,9,,,,,,,,,,,,,,,,,,,,,,,,main,1,1,2,negative,negative,j,j,1,1.2482266000006348,332.45027560000017,333.4668249999995,333.4276394999979,None,332.45027560000017,None,332.45027560000017,None,332.45027560000017,None,334.6799086299998,None,334.6799086299998,None,334.6799086299998,None,,,,,,,,,,,214,28,Female,2022-05-10_18h27.34.789,Main,2022.1.1,59.96152868256364,
positive,neutral,2,l,j,,,,,,,,,5,7,97,17,,,,,,,,,,,,,,,,,,,,,,,,main,2,2,2,neutral,positive,l,l,1,1.2783669999989797,334.70123909999893,335.7226152999974,335.6827971999992,None,334.70123909999893,None,334.70123909999893,None,334.70123909999893,None,336.96113332999994,None,336.96113332999994,None,336.96113332999994,None,,,,,,,,,,,214,28,Female,2022-05-10_18h27.34.789,Main,2022.1.1,59.96152868256364,
negative,neutral,2,j,l,,,,,,,,,5,8,98,12,,,,,,,,,,,,,,,,,,,,,,,,main,1,1,2,neutral,negative,j,j,1,0.7391443999986222,336.98122879999937,337.99607130000004,337.9555951000002,None,336.98122879999937,None,336.98122879999937,None,336.98122879999937,None,338.7047376299979,None,338.7047376299979,None,338.7047376299979,None,,,,,,,,,,,214,28,Female,2022-05-10_18h27.34.789,Main,2022.1.1,59.96152868256364,
neutral,neutral,2,k,k,,,,,,,,,5,9,99,10,,,,,,,,,,,,,,,,,,,,,,,,main,1,1,2,neutral,neutral,k,k,1,1.0489474999994854,338.7261577999998,339.73184599999877,339.71216339999955,None,338.7261577999998,None,338.7261577999998,None,338.7261577999998,None,340.75689042999693,None,340.75689042999693,None,340.75689042999693,None,,,,,,,,,,,214,28,Female,2022-05-10_18h27.34.789,Main,2022.1.1,59.96152868256364,
negative,negative,1,j,l,,,,,,,,,5,10,100,0,,,,,,,,,,,,,,,,,,,,,,,,main,2,2,1,negative,negative,j,j,1,0.6620947000010347,340.7776615999974,341.79009479999877,341.77011279999715,None,340.7776615999974,None,340.7776615999974,None,340.7776615999974,None,342.42264072999933,None,342.42264072999933,None,342.42264072999933,None,,,,,,,,,,,214,28,Female,2022-05-10_18h27.34.789,Main,2022.1.1,59.96152868256364,
neutral,positive,2,k,k,,,,,,,,,5,11,101,13,,,,,,,,,,,,,,,,,,,,,,,,main,2,2,2,positive,neutral,k,k,1,0.7712661999976262,342.4447951999973,343.4669667999988,343.4259674999994,None,342.4447951999973,None,342.4447951999973,None,342.4447951999973,None,344.19914782999876,None,344.19914782999876,None,344.19914782999876,None,,,,,,,,,,,214,28,Female,2022-05-10_18h27.34.789,Main,2022.1.1,59.96152868256364,
neutral,positive,1,k,k,,,,,,,,,5,12,102,4,,,,,,,,,,,,,,,,,,,,,,,,main,2,2,1,positive,neutral,k,k,1,0.6736921000010625,344.22004939999897,345.2397738999971,345.20120269999825,None,344.22004939999897,None,344.22004939999897,None,344.22004939999897,None,345.87355982999907,None,345.87355982999907,None,345.87355982999907,None,,,,,,,,,,,214,28,Female,2022-05-10_18h27.34.789,Main,2022.1.1,59.96152868256364,
neutral,neutral,1,k,k,,,,,,,,,5,13,103,1,,,,,,,,,,,,,,,,,,,,,,,,main,1,1,1,neutral,neutral,k,k,1,0.6733162000018638,345.8968769999992,346.9013871999996,346.8798351999976,None,345.8968769999992,None,345.8968769999992,None,345.8968769999992,None,347.5515851299988,None,347.5515851299988,None,347.5515851299988,None,,,,,,,,,,,214,28,Female,2022-05-10_18h27.34.789,Main,2022.1.1,59.96152868256364,
negative,positive,1,j,l,,,,,,,,,5,14,104,6,,,,,,,,,,,,,,,,,,,,,,,,main,2,2,1,positive,negative,j,j,1,1.4121521000015491,347.5724582999974,348.5754882000001,348.5564736999986,None,347.5724582999974,None,347.5724582999974,None,347.5724582999974,None,349.9659499299978,None,349.9659499299978,None,349.9659499299978,None,,,,,,,,,,,214,28,Female,2022-05-10_18h27.34.789,Main,2022.1.1,59.96152868256364,
positive,neutral,1,l,j,,,,,,,,,5,15,105,8,,,,,,,,,,,,,,,,,,,,,,,,main,2,2,1,neutral,positive,l,l,1,0.6329172000005201,349.9870033999978,350.99052519999896,350.9704845999986,None,349.9870033999978,None,349.9870033999978,None,349.9870033999978,None,351.60110402999817,None,351.60110402999817,None,351.60110402999817,None,,,,,,,,,,,214,28,Female,2022-05-10_18h27.34.789,Main,2022.1.1,59.96152868256364,
positive,negative,2,l,j,,,,,,,,,5,16,106,14,,,,,,,,,,,,,,,,,,,,,,,,main,2,2,2,negative,positive,l,l,1,0.8037354000007326,351.6221136999993,352.6390328999987,352.59922919999735,None,351.6221136999993,None,351.6221136999993,None,351.6221136999993,None,353.40468573,None,353.40468573,None,353.40468573,None,,,,,,,,,,,214,28,Female,2022-05-10_18h27.34.789,Main,2022.1.1,59.96152868256364,
neutral,negative,2,k,k,,,,,,,,,5,17,107,16,,,,,,,,,,,,,,,,,,,,,,,,main,1,1,2,negative,neutral,k,k,1,0.6050356999985524,353.42674559999796,354.44019579999804,354.4010389999967,None,353.42674559999796,None,353.42674559999796,None,353.42674559999796,None,355.01516422999885,None,355.01516422999885,None,355.01516422999885,None,,,,,,,,,,,214,28,Female,2022-05-10_18h27.34.789,Main,2022.1.1,59.96152868256364,
negative,positive,2,j,l,,,,,,,,,6,0,108,15,,,,,,,,,,,,,,,,,,,,,,,,main,2,2,2,positive,negative,j,j,1,1.2280096000031335,355.0386970999971,356.0586719999992,356.0192565999969,None,355.0386970999971,None,355.0386970999971,None,355.0386970999971,None,357.24370452999756,None,357.24370452999756,None,357.24370452999756,None,,,,,,,,,,,214,28,Female,2022-05-10_18h27.34.789,Main,2022.1.1,59.96152868256364,
negative,neutral,1,j,l,,,,,,,,,6,1,109,3,,,,,,,,,,,,,,,,,,,,,,,,main,2,2,1,neutral,negative,j,j,1,0.6731031000017538,357.26440789999833,358.2749745999972,358.25561529999686,None,357.26440789999833,None,357.26440789999833,None,357.26440789999833,None,358.9200284299968,None,358.9200284299968,None,358.9200284299968,None,,,,,,,,,,,214,28,Female,2022-05-10_18h27.34.789,Main,2022.1.1,59.96152868256364,
neutral,positive,1,k,k,,,,,,,,,6,2,110,4,,,,,,,,,,,,,,,,,,,,,,,,main,1,1,1,positive,neutral,k,k,1,0.7775062000000617,358.9427230000001,359.957084499998,359.9371145999976,None,358.9427230000001,None,358.9427230000001,None,358.9427230000001,None,360.70307692999813,None,360.70307692999813,None,360.70307692999813,None,,,,,,,,,,,214,28,Female,2022-05-10_18h27.34.789,Main,2022.1.1,59.96152868256364,
neutral,negative,1,k,k,,,,,,,,,6,3,111,7,,,,,,,,,,,,,,,,,,,,,,,,main,2,2,1,negative,neutral,k,k,1,0.733014399997046,360.725004099997,361.72704539999904,361.7076504999968,None,360.725004099997,None,360.725004099997,None,360.725004099997,None,362.43841232999876,None,362.43841232999876,None,362.43841232999876,None,,,,,,,,,,,214,28,Female,2022-05-10_18h27.34.789,Main,2022.1.1,59.96152868256364,
negative,negative,2,j,l,,,,,,,,,6,4,112,9,,,,,,,,,,,,,,,,,,,,,,,,main,2,2,2,negative,negative,j,j,1,0.6251225999985763,362.45967799999926,363.47567999999956,363.433440599998,None,362.45967799999926,None,362.45967799999926,None,362.45967799999926,None,364.06862442999955,None,364.06862442999955,None,364.06862442999955,None,,,,,,,,,,,214,28,Female,2022-05-10_18h27.34.789,Main,2022.1.1,59.96152868256364,
positive,negative,2,l,j,,,,,,,,,6,5,113,14,,,,,,,,,,,,,,,,,,,,,,,,main,1,1,2,negative,positive,l,j,0,0.8131394000010914,364.0904744999971,365.10183009999673,365.08204099999784,None,364.0904744999971,None,364.0904744999971,None,364.0904744999971,None,365.89364979999664,None,365.89364979999664,None,365.89364979999664,None,,,,,,,,,,,214,28,Female,2022-05-10_18h27.34.789,Main,2022.1.1,59.96152868256364,
negative,positive,1,j,l,,,,,,,,,6,6,114,6,,,,,,,,,,,,,,,,,,,,,,,,main,2,2,1,positive,negative,j,j,1,0.8844723000001977,366.91131069999756,367.9259512999997,367.905981099997,None,366.91131069999756,None,366.91131069999756,None,366.91131069999756,None,368.77508012999715,None,368.77508012999715,None,368.77508012999715,None,,,,,,,,,,,214,28,Female,2022-05-10_18h27.34.789,Main,2022.1.1,59.96152868256364,
negative,neutral,2,j,l,,,,,,,,,6,7,115,12,,,,,,,,,,,,,,,,,,,,,,,,main,2,2,2,neutral,negative,j,j,1,0.6848750000026484,368.79823049999686,369.81321559999924,369.785132099998,None,368.79823049999686,None,368.79823049999686,None,368.79823049999686,None,370.4650721300004,None,370.4650721300004,None,370.4650721300004,None,,,,,,,,,,,214,28,Female,2022-05-10_18h27.34.789,Main,2022.1.1,59.96152868256364,
neutral,negative,2,k,k,,,,,,,,,6,8,116,16,,,,,,,,,,,,,,,,,,,,,,,,main,2,2,2,negative,neutral,k,k,1,0.6595574999992095,370.4862332999983,371.49919509999745,371.4601987999995,None,370.4862332999983,None,370.4862332999983,None,370.4862332999983,None,372.1250397299973,None,372.1250397299973,None,372.1250397299973,None,,,,,,,,,,,214,28,Female,2022-05-10_18h27.34.789,Main,2022.1.1,59.96152868256364,
neutral,neutral,1,k,k,,,,,,,,,6,9,117,1,,,,,,,,,,,,,,,,,,,,,,,,main,1,1,1,neutral,neutral,k,k,1,0.7716392000002088,372.14610679999896,373.15951049999785,373.1208508999989,None,372.14610679999896,None,372.14610679999896,None,372.14610679999896,None,373.90176762999727,None,373.90176762999727,None,373.90176762999727,None,,,,,,,,,,,214,28,Female,2022-05-10_18h27.34.789,Main,2022.1.1,59.96152868256364,
neutral,neutral,2,k,k,,,,,,,,,6,10,118,10,,,,,,,,,,,,,,,,,,,,,,,,main,2,2,2,neutral,neutral,k,k,1,2.3061524000004283,373.92525639999803,374.94327089999933,374.9049539999978,None,373.92525639999803,None,373.92525639999803,None,373.92525639999803,None,377.2191142999982,None,377.2191142999982,None,377.2191142999982,None,,,,,,,,,,,214,28,Female,2022-05-10_18h27.34.789,Main,2022.1.1,59.96152868256364,
neutral,positive,2,k,k,,,,,,,,,6,11,119,13,,,,,,,,,,,,,,,,,,,,,,,,main,1,1,2,positive,neutral,k,k,1,0.7688183000027493,378.24192760000005,379.2616643000001,379.2227688999992,None,378.24192760000005,None,378.24192760000005,None,378.24192760000005,None,379.99070163000033,None,379.99070163000033,None,379.99070163000033,None,,,,,,,,,,,214,28,Female,2022-05-10_18h27.34.789,Main,2022.1.1,59.96152868256364,
positive,negative,1,l,j,,,,,,,,,6,12,120,5,,,,,,,,,,,,,,,,,,,,,,,,main,2,2,1,negative,positive,l,l,1,1.054146499998751,380.012898099998,381.022265399999,381.0029625999996,None,380.012898099998,None,380.012898099998,None,380.012898099998,None,382.05001812999944,None,382.05001812999944,None,382.05001812999944,None,,,,,,,,,,,214,28,Female,2022-05-10_18h27.34.789,Main,2022.1.1,59.96152868256364,
positive,positive,2,l,j,,,,,,,,,6,13,121,11,,,,,,,,,,,,,,,,,,,,,,,,main,2,2,2,positive,positive,l,l,1,1.010346600000048,382.07114819999697,383.0761745999989,383.0546676999984,None,382.07114819999697,None,382.07114819999697,None,382.07114819999697,None,384.0649778299976,None,384.0649778299976,None,384.0649778299976,None,,,,,,,,,,,214,28,Female,2022-05-10_18h27.34.789,Main,2022.1.1,59.96152868256364,
negative,negative,1,j,l,,,,,,,,,6,14,122,0,,,,,,,,,,,,,,,,,,,,,,,,main,1,1,1,negative,negative,j,k,0,1.1604884999978822,384.0861530000002,385.0940797999974,385.07503129999895,None,384.0861530000002,None,384.0861530000002,None,384.0861530000002,None,386.2346148999968,None,386.2346148999968,None,386.2346148999968,None,,,,,,,,,,,214,28,Female,2022-05-10_18h27.34.789,Main,2022.1.1,59.96152868256364,
positive,neutral,1,l,j,,,,,,,,,6,15,123,8,,,,,,,,,,,,,,,,,,,,,,,,main,2,2,1,neutral,positive,l,l,1,1.5258567999990191,387.2582311999977,388.27580919999673,388.236602099998,None,387.2582311999977,None,387.2582311999977,None,387.2582311999977,None,389.7720574999985,None,389.7720574999985,None,389.7720574999985,None,,,,,,,,,,,214,28,Female,2022-05-10_18h27.34.789,Main,2022.1.1,59.96152868256364,
positive,positive,1,l,j,,,,,,,,,6,16,124,2,,,,,,,,,,,,,,,,,,,,,,,,main,1,1,1,positive,positive,l,l,1,1.0390134000008402,390.79136689999723,391.79361739999877,391.77453179999793,None,390.79136689999723,None,390.79136689999723,None,390.79136689999723,None,392.8118834299985,None,392.8118834299985,None,392.8118834299985,None,,,,,,,,,,,214,28,Female,2022-05-10_18h27.34.789,Main,2022.1.1,59.96152868256364,
positive,neutral,2,l,j,,,,,,,,,6,17,125,17,,,,,,,,,,,,,,,,,,,,,,,,main,1,1,2,neutral,positive,l,l,1,0.8987027000002854,392.83223949999956,393.833864799999,393.81464669999696,None,392.83223949999956,None,392.83223949999956,None,392.83223949999956,None,394.713716029999,None,394.713716029999,None,394.713716029999,None,,,,,,,,,,,214,28,Female,2022-05-10_18h27.34.789,Main,2022.1.1,59.96152868256364,
negative,positive,2,j,l,,,,,,,,,7,0,126,15,,,,,,,,,,,,,,,,,,,,,,,,main,2,2,2,positive,negative,j,j,1,0.7308798999983992,394.7340855000002,395.75260759999946,395.71301139999923,None,394.7340855000002,None,394.7340855000002,None,394.7340855000002,None,396.44695772999876,None,396.44695772999876,None,396.44695772999876,None,,,,,,,,,,,214,28,Female,2022-05-10_18h27.34.789,Main,2022.1.1,59.96152868256364,
neutral,positive,2,k,k,,,,,,,,,7,1,127,13,,,,,,,,,,,,,,,,,,,,,,,,main,2,2,2,positive,neutral,k,k,1,0.9029394000026514,396.4679197999976,397.479513899998,397.44065639999826,None,396.4679197999976,None,396.4679197999976,None,396.4679197999976,None,398.3504801299987,None,398.3504801299987,None,398.3504801299987,None,,,,,,,,,,,214,28,Female,2022-05-10_18h27.34.789,Main,2022.1.1,59.96152868256364,
positive,neutral,1,l,j,,,,,,,,,7,2,128,8,,,,,,,,,,,,,,,,,,,,,,,,main,1,1,1,neutral,positive,l,l,1,0.7252131999994162,398.3714304999994,399.37677339999937,399.3575273999995,None,398.3714304999994,None,398.3714304999994,None,398.3714304999994,None,400.080696529998,None,400.080696529998,None,400.080696529998,None,,,,,,,,,,,214,28,Female,2022-05-10_18h27.34.789,Main,2022.1.1,59.96152868256364,
negative,positive,1,j,l,,,,,,,,,7,3,129,6,,,,,,,,,,,,,,,,,,,,,,,,main,2,2,1,positive,negative,j,j,1,0.887868099998741,400.10268449999785,401.1172434,401.07832569999664,None,400.10268449999785,None,400.10268449999785,None,400.10268449999785,None,401.97082582999974,None,401.97082582999974,None,401.97082582999974,None,,,,,,,,,,,214,28,Female,2022-05-10_18h27.34.789,Main,2022.1.1,59.96152868256364,
positive,neutral,2,l,j,,,,,,,,,7,4,130,17,,,,,,,,,,,,,,,,,,,,,,,,main,1,1,2,neutral,positive,l,l,1,1.2166881999983161,401.99553009999727,402.998877799997,402.9789531999995,None,401.99553009999727,None,401.99553009999727,None,401.99553009999727,None,404.1919546299996,None,404.1919546299996,None,404.1919546299996,None,,,,,,,,,,,214,28,Female,2022-05-10_18h27.34.789,Main,2022.1.1,59.96152868256364,
negative,negative,2,j,l,,,,,,,,,7,5,131,9,,,,,,,,,,,,,,,,,,,,,,,,main,2,2,2,negative,negative,j,j,1,1.7574789999998757,404.21169889999874,405.2330906999996,405.19380459999957,None,404.21169889999874,None,404.21169889999874,None,404.21169889999874,None,406.9551737999973,None,406.9551737999973,None,406.9551737999973,None,,,,,,,,,,,214,28,Female,2022-05-10_18h27.34.789,Main,2022.1.1,59.96152868256364,
neutral,positive,1,k,k,,,,,,,,,7,6,132,4,,,,,,,,,,,,,,,,,,,,,,,,main,1,1,1,positive,neutral,k,k,1,0.9904768999986118,407.9727235999999,408.9826643999986,408.9639744999986,None,407.9727235999999,None,407.9727235999999,None,407.9727235999999,None,409.9447256299991,None,409.9447256299991,None,409.9447256299991,None,,,,,,,,,,,214,28,Female,2022-05-10_18h27.34.789,Main,2022.1.1,59.96152868256364,
negative,neutral,1,j,l,,,,,,,,,7,7,133,3,,,,,,,,,,,,,,,,,,,,,,,,main,2,2,1,neutral,negative,j,j,1,0.679713500001526,409.96552039999733,410.97049309999784,410.9509251999989,None,409.96552039999733,None,409.96552039999733,None,409.96552039999733,None,411.62710743000025,None,411.62710743000025,None,411.62710743000025,None,,,,,,,,,,,214,28,Female,2022-05-10_18h27.34.789,Main,2022.1.1,59.96152868256364,
neutral,negative,2,k,k,,,,,,,,,7,8,134,16,,,,,,,,,,,,,,,,,,,,,,,,main,1,1,2,negative,neutral,k,k,1,0.775854999999865,411.64800599999944,412.65326749999804,412.6339674999981,None,411.64800599999944,None,411.64800599999944,None,411.64800599999944,None,413.401004729998,None,413.401004729998,None,413.401004729998,None,,,,,,,,,,,214,28,Female,2022-05-10_18h27.34.789,Main,2022.1.1,59.96152868256364,
neutral,neutral,1,k,k,,,,,,,,,7,9,135,1,,,,,,,,,,,,,,,,,,,,,,,,main,2,2,1,neutral,neutral,k,k,1,0.9193954000002122,413.4285729999974,414.44639339999776,414.40627459999814,None,413.4285729999974,None,413.4285729999974,None,413.4285729999974,None,415.32698532999893,None,415.32698532999893,None,415.32698532999893,None,,,,,,,,,,,214,28,Female,2022-05-10_18h27.34.789,Main,2022.1.1,59.96152868256364,
positive,negative,2,l,j,,,,,,,,,7,10,136,14,,,,,,,,,,,,,,,,,,,,,,,,main,2,2,2,negative,positive,l,l,1,0.8589294999983395,415.3479690999993,416.364365999998,416.32446290000007,None,415.3479690999993,None,415.3479690999993,None,415.3479690999993,None,417.1887062299993,None,417.1887062299993,None,417.1887062299993,None,,,,,,,,,,,214,28,Female,2022-05-10_18h27.34.789,Main,2022.1.1,59.96152868256364,
positive,positive,1,l,j,,,,,,,,,7,11,137,2,,,,,,,,,,,,,,,,,,,,,,,,main,2,2,1,positive,positive,l,l,1,0.9655428000005486,417.20968939999875,418.22690019999936,418.18784289999894,None,417.20968939999875,None,417.20968939999875,None,417.20968939999875,None,419.1564441299979,None,419.1564441299979,None,419.1564441299979,None,,,,,,,,,,,214,28,Female,2022-05-10_18h27.34.789,Main,2022.1.1,59.96152868256364,
positive,positive,2,l,j,,,,,,,,,7,12,138,11,,,,,,,,,,,,,,,,,,,,,,,,main,2,2,2,positive,positive,l,l,1,0.6476638000021921,419.1776983999989,420.1951816999972,420.1556105999989,None,419.1776983999989,None,419.1776983999989,None,419.1776983999989,None,420.804775229999,None,420.804775229999,None,420.804775229999,None,,,,,,,,,,,214,28,Female,2022-05-10_18h27.34.789,Main,2022.1.1,59.96152868256364,
positive,negative,1,l,j,,,,,,,,,7,13,139,5,,,,,,,,,,,,,,,,,,,,,,,,main,2,2,1,negative,positive,l,l,1,0.6450662999995984,420.8261552999975,421.8386621999998,421.8190474999974,None,420.8261552999975,None,420.8261552999975,None,420.8261552999975,None,422.4519621299969,None,422.4519621299969,None,422.4519621299969,None,,,,,,,,,,,214,28,Female,2022-05-10_18h27.34.789,Main,2022.1.1,59.96152868256364,
negative,negative,1,j,l,,,,,,,,,7,14,140,0,,,,,,,,,,,,,,,,,,,,,,,,main,2,2,1,negative,negative,j,j,1,0.64732880000156,422.473131499999,423.48881739999706,423.4501154999998,None,422.473131499999,None,422.473131499999,None,422.473131499999,None,424.1019627299993,None,424.1019627299993,None,424.1019627299993,None,,,,,,,,,,,214,28,Female,2022-05-10_18h27.34.789,Main,2022.1.1,59.96152868256364,
negative,neutral,2,j,l,,,,,,,,,7,15,141,12,,,,,,,,,,,,,,,,,,,,,,,,main,2,2,2,neutral,negative,j,l,0,0.7279658000006748,424.12502959999983,425.1458155,425.1065963999972,None,424.12502959999983,None,424.12502959999983,None,424.12502959999983,None,425.8427351999999,None,425.8427351999999,None,425.8427351999999,None,,,,,,,,,,,214,28,Female,2022-05-10_18h27.34.789,Main,2022.1.1,59.96152868256364,
neutral,neutral,2,k,k,,,,,,,,,7,16,142,10,,,,,,,,,,,,,,,,,,,,,,,,main,1,1,2,neutral,neutral,k,k,1,1.0338040999995428,426.870082999998,427.8868771999987,427.84793290000016,None,426.870082999998,None,426.870082999998,None,426.870082999998,None,428.8828313299982,None,428.8828313299982,None,428.8828313299982,None,,,,,,,,,,,214,28,Female,2022-05-10_18h27.34.789,Main,2022.1.1,59.96152868256364,
neutral,negative,1,k,k,,,,,,,,,7,17,143,7,,,,,,,,,,,,,,,,,,,,,,,,main,2,2,1,negative,neutral,k,k,1,0.9226287999990745,428.904160099999,429.90813309999794,429.8885055999999,None,428.904160099999,None,428.904160099999,None,428.904160099999,None,430.81041382999865,None,430.81041382999865,None,430.81041382999865,None,,,,,,,,,,,214,28,Female,2022-05-10_18h27.34.789,Main,2022.1.1,59.96152868256364,
positive,negative,2,l,j,,,,,,,,,8,0,144,14,,,,,,,,,,,,,,,,,,,,,,,,main,2,2,2,negative,positive,l,l,1,0.6961827999984962,430.83135929999844,431.8407365999992,431.82081449999896,None,430.83135929999844,None,430.83135929999844,None,430.83135929999844,None,432.51137302999814,None,432.51137302999814,None,432.51137302999814,None,,,,,,,,,,,214,28,Female,2022-05-10_18h27.34.789,Main,2022.1.1,59.96152868256364,
negative,positive,1,j,l,,,,,,,,,8,1,145,6,,,,,,,,,,,,,,,,,,,,,,,,main,1,1,1,positive,negative,j,j,1,0.7277834999986226,432.53267969999797,433.53784099999757,433.5184659999977,None,432.53267969999797,None,432.53267969999797,None,432.53267969999797,None,434.244073429998,None,434.244073429998,None,434.244073429998,None,,,,,,,,,,,214,28,Female,2022-05-10_18h27.34.789,Main,2022.1.1,59.96152868256364,
negative,negative,2,j,l,,,,,,,,,8,2,146,9,,,,,,,,,,,,,,,,,,,,,,,,main,2,2,2,negative,negative,j,j,1,0.6538285999995423,434.2665007999967,435.2775554,435.2384710999977,None,434.2665007999967,None,434.2665007999967,None,434.2665007999967,None,435.900019429997,None,435.900019429997,None,435.900019429997,None,,,,,,,,,,,214,28,Female,2022-05-10_18h27.34.789,Main,2022.1.1,59.96152868256364,
negative,neutral,1,j,l,,,,,,,,,8,3,147,3,,,,,,,,,,,,,,,,,,,,,,,,main,2,2,1,neutral,negative,j,j,1,0.6326948999994784,435.92115809999814,436.93081189999793,436.91125009999814,None,435.92115809999814,None,435.92115809999814,None,435.92115809999814,None,437.5374568299976,None,437.5374568299976,None,437.5374568299976,None,,,,,,,,,,,214,28,Female,2022-05-10_18h27.34.789,Main,2022.1.1,59.96152868256364,
neutral,negative,2,k,k,,,,,,,,,8,4,148,16,,,,,,,,,,,,,,,,,,,,,,,,main,2,2,2,negative,neutral,k,j,0,0.6306001999982982,437.55840549999994,438.56467299999713,438.5455650999975,None,437.55840549999994,None,437.55840549999994,None,437.55840549999994,None,439.1745020999988,None,439.1745020999988,None,439.1745020999988,None,,,,,,,,,,,214,28,Female,2022-05-10_18h27.34.789,Main,2022.1.1,59.96152868256364,
positive,positive,2,l,j,,,,,,,,,8,5,149,11,,,,,,,,,,,,,,,,,,,,,,,,main,2,2,2,positive,positive,l,l,1,0.9970983999992313,440.2020678999979,441.2135419999977,441.1924175999993,None,440.2020678999979,None,440.2020678999979,None,440.2020678999979,None,442.1765201299986,None,442.1765201299986,None,442.1765201299986,None,,,,,,,,,,,214,28,Female,2022-05-10_18h27.34.789,Main,2022.1.1,59.96152868256364,
negative,neutral,2,j,l,,,,,,,,,8,6,150,12,,,,,,,,,,,,,,,,,,,,,,,,main,1,1,2,neutral,negative,j,j,1,1.2076111999995192,442.1997044999989,443.2192568999999,443.18008779999946,None,442.1997044999989,None,442.1997044999989,None,442.1997044999989,None,444.39058822999687,None,444.39058822999687,None,444.39058822999687,None,,,,,,,,,,,214,28,Female,2022-05-10_18h27.34.789,Main,2022.1.1,59.96152868256364,
neutral,neutral,1,k,k,,,,,,,,,8,7,151,1,,,,,,,,,,,,,,,,,,,,,,,,main,1,1,1,neutral,neutral,k,,0,0.9084961999978987,444.4127516999979,445.42285719999927,445.4027735999989,None,444.4127516999979,None,444.4127516999979,None,444.4127516999979,None,446.3112614999991,None,446.3112614999991,None,446.3112614999991,None,,,,,,,,,,,214,28,Female,2022-05-10_18h27.34.789,Main,2022.1.1,59.96152868256364,
positive,neutral,1,l,j,,,,,,,,,8,8,152,8,,,,,,,,,,,,,,,,,,,,,,,,main,2,2,1,neutral,positive,l,l,1,0.6238908999985142,447.3342537999997,448.3458565000001,448.3267093999966,None,447.3342537999997,None,447.3342537999997,None,447.3342537999997,None,448.93906632999824,None,448.93906632999824,None,448.93906632999824,None,,,,,,,,,,,214,28,Female,2022-05-10_18h27.34.789,Main,2022.1.1,59.96152868256364,
neutral,positive,1,k,k,,,,,,,,,8,9,153,4,,,,,,,,,,,,,,,,,,,,,,,,main,2,2,1,positive,neutral,k,k,1,0.7116989999994985,448.96022169999924,449.96164839999983,449.9426381999983,None,448.96022169999924,None,448.96022169999924,None,448.96022169999924,None,450.653570829998,None,450.653570829998,None,450.653570829998,None,,,,,,,,,,,214,28,Female,2022-05-10_18h27.34.789,Main,2022.1.1,59.96152868256364,
negative,negative,1,j,l,,,,,,,,,8,10,154,0,,,,,,,,,,,,,,,,,,,,,,,,main,2,2,1,negative,negative,j,j,1,0.8307076999990386,450.67472749999797,451.6901532999982,451.6508189999986,None,450.67472749999797,None,450.67472749999797,None,450.67472749999797,None,452.4869745300002,None,452.4869745300002,None,452.4869745300002,None,,,,,,,,,,,214,28,Female,2022-05-10_18h27.34.789,Main,2022.1.1,59.96152868256364,
positive,neutral,2,l,j,,,,,,,,,8,11,155,17,,,,,,,,,,,,,,,,,,,,,,,,main,2,2,2,neutral,positive,l,l,1,1.0438735999996425,452.50775129999965,453.5251688999997,453.48613750000004,None,452.50775129999965,None,452.50775129999965,None,452.50775129999965,None,454.53087443000004,None,454.53087443000004,None,454.53087443000004,None,,,,,,,,,,,214,28,Female,2022-05-10_18h27.34.789,Main,2022.1.1,59.96152868256364,
positive,negative,1,l,j,,,,,,,,,8,12,156,5,,,,,,,,,,,,,,,,,,,,,,,,main,2,2,1,negative,positive,l,l,1,0.6711641999972926,454.55302089999896,455.5738642999968,455.5344874000002,None,454.55302089999896,None,454.55302089999896,None,454.55302089999896,None,456.20669842999814,None,456.20669842999814,None,456.20669842999814,None,,,,,,,,,,,214,28,Female,2022-05-10_18h27.34.789,Main,2022.1.1,59.96152868256364,
negative,positive,2,j,l,,,,,,,,,8,13,157,15,,,,,,,,,,,,,,,,,,,,,,,,main,1,1,2,positive,negative,j,j,1,0.9788641999984975,456.2279546999998,457.24597749999884,457.20708719999675,None,456.2279546999998,None,456.2279546999998,None,456.2279546999998,None,458.19032182999763,None,458.19032182999763,None,458.19032182999763,None,,,,,,,,,,,214,28,Female,2022-05-10_18h27.34.789,Main,2022.1.1,59.96152868256364,
positive,positive,1,l,j,,,,,,,,,8,14,158,2,,,,,,,,,,,,,,,,,,,,,,,,main,2,2,1,positive,positive,l,l,1,0.6269030000003113,458.2108100999976,459.2306239999998,459.1925018999973,None,458.2108100999976,None,458.2108100999976,None,458.2108100999976,None,459.82173732999763,None,459.82173732999763,None,459.82173732999763,None,,,,,,,,,,,214,28,Female,2022-05-10_18h27.34.789,Main,2022.1.1,59.96152868256364,
neutral,negative,1,k,k,,,,,,,,,8,15,159,7,,,,,,,,,,,,,,,,,,,,,,,,main,1,1,1,negative,neutral,k,k,1,0.7240334000016446,459.84191179999834,460.8581133999978,460.8170394999979,None,459.84191179999834,None,459.84191179999834,None,459.84191179999834,None,461.5464470299976,None,461.5464470299976,None,461.5464470299976,None,,,,,,,,,,,214,28,Female,2022-05-10_18h27.34.789,Main,2022.1.1,59.96152868256364,
neutral,neutral,2,k,k,,,,,,,,,8,16,160,10,,,,,,,,,,,,,,,,,,,,,,,,main,1,1,2,neutral,neutral,k,l,0,0.7484206999979506,461.5673029999998,462.57218459999785,462.5522734999977,None,461.5673029999998,None,461.5673029999998,None,461.5673029999998,None,463.30309489999854,None,463.30309489999854,None,463.30309489999854,None,,,,,,,,,,,214,28,Female,2022-05-10_18h27.34.789,Main,2022.1.1,59.96152868256364,
neutral,positive,2,k,k,,,,,,,,,8,17,161,13,,,,,,,,,,,,,,,,,,,,,,,,main,1,1,2,positive,neutral,k,k,1,0.7746268999981112,464.31518369999685,465.3200098999987,465.3001689999983,None,464.31518369999685,None,464.31518369999685,None,464.31518369999685,None,466.0714703299982,None,466.0714703299982,None,466.0714703299982,None,,,,,,,,,,,214,28,Female,2022-05-10_18h27.34.789,Main,2022.1.1,59.96152868256364,
neutral,negative,2,k,k,,,,,,,,,9,0,162,16,,,,,,,,,,,,,,,,,,,,,,,,main,2,2,2,negative,neutral,k,k,1,0.8581739000001107,466.0922471999984,467.10795719999805,467.0682777000002,None,466.0922471999984,None,466.0922471999984,None,466.0922471999984,None,467.9316165299988,None,467.9316165299988,None,467.9316165299988,None,,,,,,,,,,,214,28,Female,2022-05-10_18h27.34.789,Main,2022.1.1,59.96152868256364,
positive,neutral,2,l,j,,,,,,,,,9,1,163,17,,,,,,,,,,,,,,,,,,,,,,,,main,2,2,2,neutral,positive,l,l,1,1.1094704999995884,467.95243189999746,468.9580855999993,468.93872179999744,None,467.95243189999746,None,467.95243189999746,None,467.95243189999746,None,470.0436526299982,None,470.0436526299982,None,470.0436526299982,None,,,,,,,,,,,214,28,Female,2022-05-10_18h27.34.789,Main,2022.1.1,59.96152868256364,
positive,positive,1,l,j,,,,,,,,,9,2,164,2,,,,,,,,,,,,,,,,,,,,,,,,main,2,2,1,positive,positive,l,l,1,0.6313245000019378,470.06622479999714,471.0837169999977,471.04434089999995,None,470.06622479999714,None,470.06622479999714,None,470.06622479999714,None,471.6768270299999,None,471.6768270299999,None,471.6768270299999,None,,,,,,,,,,,214,28,Female,2022-05-10_18h27.34.789,Main,2022.1.1,59.96152868256364,
negative,positive,1,j,l,,,,,,,,,9,3,165,6,,,,,,,,,,,,,,,,,,,,,,,,main,1,1,1,positive,negative,j,j,1,0.8185005000013916,471.6987556999993,472.7114204999998,472.67326219999813,None,471.6987556999993,None,471.6987556999993,None,471.6987556999993,None,473.5008132299972,None,473.5008132299972,None,473.5008132299972,None,,,,,,,,,,,214,28,Female,2022-05-10_18h27.34.789,Main,2022.1.1,59.96152868256364,
negative,neutral,1,j,l,,,,,,,,,9,4,166,3,,,,,,,,,,,,,,,,,,,,,,,,main,1,1,1,neutral,negative,j,j,1,1.0637349000026006,473.5198672999977,474.5285061999966,474.5094380999981,None,473.5198672999977,None,473.5198672999977,None,473.5198672999977,None,475.56700742999783,None,475.56700742999783,None,475.56700742999783,None,,,,,,,,,,,214,28,Female,2022-05-10_18h27.34.789,Main,2022.1.1,59.96152868256364,
positive,neutral,1,l,j,,,,,,,,,9,5,167,8,,,,,,,,,,,,,,,,,,,,,,,,main,2,2,1,neutral,positive,l,l,1,0.6648002000001725,475.58717590000015,476.59668579999925,476.57729539999855,None,475.58717590000015,None,475.58717590000015,None,475.58717590000015,None,477.2341461300002,None,477.2341461300002,None,477.2341461300002,None,,,,,,,,,,,214,28,Female,2022-05-10_18h27.34.789,Main,2022.1.1,59.96152868256364,
neutral,negative,1,k,k,,,,,,,,,9,6,168,7,,,,,,,,,,,,,,,,,,,,,,,,main,2,2,1,negative,neutral,k,k,1,0.7100626999999804,477.25468249999903,478.27397740000015,478.23494949999804,None,477.25468249999903,None,477.25468249999903,None,477.25468249999903,None,478.94438872999854,None,478.94438872999854,None,478.94438872999854,None,,,,,,,,,,,214,28,Female,2022-05-10_18h27.34.789,Main,2022.1.1,59.96152868256364,
neutral,positive,2,k,k,,,,,,,,,9,7,169,13,,,,,,,,,,,,,,,,,,,,,,,,main,1,1,2,positive,neutral,k,k,1,0.7972880000015721,478.96523389999857,479.97563349999837,479.95679109999764,None,478.96523389999857,None,478.96523389999857,None,478.96523389999857,None,480.7441429299997,None,480.7441429299997,None,480.7441429299997,None,,,,,,,,,,,214,28,Female,2022-05-10_18h27.34.789,Main,2022.1.1,59.96152868256364,
negative,negative,1,j,l,,,,,,,,,9,8,170,0,,,,,,,,,,,,,,,,,,,,,,,,main,2,2,1,negative,negative,j,j,1,0.7711772000002384,480.77123219999703,481.7872729999981,481.74783789999856,None,480.77123219999703,None,480.77123219999703,None,480.77123219999703,None,482.5184243299973,None,482.5184243299973,None,482.5184243299973,None,,,,,,,,,,,214,28,Female,2022-05-10_18h27.34.789,Main,2022.1.1,59.96152868256364,
neutral,neutral,1,k,k,,,,,,,,,9,9,171,1,,,,,,,,,,,,,,,,,,,,,,,,main,1,1,1,neutral,neutral,k,k,1,0.7255380999995396,482.54113359999974,483.5474217999981,483.5281224999999,None,482.54113359999974,None,482.54113359999974,None,482.54113359999974,None,484.250640029999,None,484.250640029999,None,484.250640029999,None,,,,,,,,,,,214,28,Female,2022-05-10_18h27.34.789,Main,2022.1.1,59.96152868256364,
negative,neutral,2,j,l,,,,,,,,,9,10,172,12,,,,,,,,,,,,,,,,,,,,,,,,main,1,1,2,neutral,negative,j,j,1,3.562043199999607,484.27065279999806,485.2884744999974,485.2487594999984,None,484.27065279999806,None,484.27065279999806,None,484.27065279999806,None,488.8218130999994,None,488.8218130999994,None,488.8218130999994,None,,,,,,,,,,,214,28,Female,2022-05-10_18h27.34.789,Main,2022.1.1,59.96152868256364,
neutral,positive,1,k,k,,,,,,,,,9,11,173,4,,,,,,,,,,,,,,,,,,,,,,,,main,1,1,1,positive,neutral,k,k,1,0.7036565999987943,489.8454289000001,490.86201749999964,490.8236029999971,None,489.8454289000001,None,489.8454289000001,None,489.8454289000001,None,491.5303265299972,None,491.5303265299972,None,491.5303265299972,None,,,,,,,,,,,214,28,Female,2022-05-10_18h27.34.789,Main,2022.1.1,59.96152868256364,
negative,negative,2,j,l,,,,,,,,,9,12,174,9,,,,,,,,,,,,,,,,,,,,,,,,main,1,1,2,negative,negative,j,j,1,1.2630877000010514,491.5511452999999,492.5625790999984,492.52455499999996,None,491.5511452999999,None,491.5511452999999,None,491.5511452999999,None,493.79441652999776,None,493.79441652999776,None,493.79441652999776,None,,,,,,,,,,,214,28,Female,2022-05-10_18h27.34.789,Main,2022.1.1,59.96152868256364,
positive,negative,1,l,j,,,,,,,,,9,13,175,5,,,,,,,,,,,,,,,,,,,,,,,,main,1,1,1,negative,positive,l,l,1,0.9596534999982396,493.81550419999985,494.8353978999985,494.79568839999774,None,493.81550419999985,None,493.81550419999985,None,493.81550419999985,None,495.7568927299999,None,495.7568927299999,None,495.7568927299999,None,,,,,,,,,,,214,28,Female,2022-05-10_18h27.34.789,Main,2022.1.1,59.96152868256364,
positive,negative,2,l,j,,,,,,,,,9,14,176,14,,,,,,,,,,,,,,,,,,,,,,,,main,1,1,2,negative,positive,l,l,1,0.7819364999995742,495.77907629999754,496.7994084999991,496.7592435999977,None,495.77907629999754,None,495.77907629999754,None,495.77907629999754,None,497.5415269299974,None,497.5415269299974,None,497.5415269299974,None,,,,,,,,,,,214,28,Female,2022-05-10_18h27.34.789,Main,2022.1.1,59.96152868256364,
neutral,neutral,2,k,k,,,,,,,,,9,15,177,10,,,,,,,,,,,,,,,,,,,,,,,,main,1,1,2,neutral,neutral,k,k,1,0.6677631000020483,497.5613083999997,498.57013639999786,498.5511910999994,None,497.5613083999997,None,497.5613083999997,None,497.5613083999997,None,499.21381223000026,None,499.21381223000026,None,499.21381223000026,None,,,,,,,,,,,214,28,Female,2022-05-10_18h27.34.789,Main,2022.1.1,59.96152868256364,
negative,positive,2,j,l,,,,,,,,,9,16,178,15,,,,,,,,,,,,,,,,,,,,,,,,main,1,1,2,positive,negative,j,j,1,0.6753835000017716,499.2337657999997,500.2405134999972,500.2214041999978,None,499.2337657999997,None,499.2337657999997,None,499.2337657999997,None,500.8890815299983,None,500.8890815299983,None,500.8890815299983,None,,,,,,,,,,,214,28,Female,2022-05-10_18h27.34.789,Main,2022.1.1,59.96152868256364,
positive,positive,2,l,j,,,,,,,,,9,17,179,11,,,,,,,,,,,,,,,,,,,,,,,,main,2,2,2,positive,positive,l,l,1,0.7658234000009543,500.9109032999986,501.9280934999988,501.887690399999,None,500.9109032999986,None,500.9109032999986,None,500.9109032999986,None,502.6576429299985,None,502.6576429299985,None,502.6576429299985,None,,,,,,,,,,,214,28,Female,2022-05-10_18h27.34.789,Main,2022.1.1,59.96152868256364,
negative,positive,2,j,l,,,,,,,,,10,0,180,15,,,,,,,,,,,,,,,,,,,,,,,,main,1,1,2,positive,negative,j,j,1,0.6796008000019356,502.6791000999983,503.68736609999905,503.66830189999746,None,502.6791000999983,None,502.6791000999983,None,502.6791000999983,None,504.34000592999837,None,504.34000592999837,None,504.34000592999837,None,,,,,,,,,,,214,28,Female,2022-05-10_18h27.34.789,Main,2022.1.1,59.96152868256364,
positive,neutral,1,l,j,,,,,,,,,10,1,181,8,,,,,,,,,,,,,,,,,,,,,,,,main,1,1,1,neutral,positive,l,l,1,0.9208877999990364,504.36072729999796,505.3778599999969,505.3382051999979,None,504.36072729999796,None,504.36072729999796,None,504.36072729999796,None,506.2653716299992,None,506.2653716299992,None,506.2653716299992,None,,,,,,,,,,,214,28,Female,2022-05-10_18h27.34.789,Main,2022.1.1,59.96152868256364,
neutral,positive,2,k,k,,,,,,,,,10,2,182,13,,,,,,,,,,,,,,,,,,,,,,,,main,2,2,2,positive,neutral,k,k,1,1.2429603000018687,506.2892393999973,507.30969489999916,507.2706831999967,None,506.2892393999973,None,506.2892393999973,None,506.2892393999973,None,508.51317392999954,None,508.51317392999954,None,508.51317392999954,None,,,,,,,,,,,214,28,Female,2022-05-10_18h27.34.789,Main,2022.1.1,59.96152868256364,
positive,negative,2,l,j,,,,,,,,,10,3,183,14,,,,,,,,,,,,,,,,,,,,,,,,main,2,2,2,negative,positive,l,l,1,0.676550899999711,508.5335950999979,509.5442723999986,509.5247219999983,None,508.5335950999979,None,508.5335950999979,None,508.5335950999979,None,510.19039232999967,None,510.19039232999967,None,510.19039232999967,None,,,,,,,,,,,214,28,Female,2022-05-10_18h27.34.789,Main,2022.1.1,59.96152868256364,
positive,negative,1,l,j,,,,,,,,,10,4,184,5,,,,,,,,,,,,,,,,,,,,,,,,main,2,2,1,negative,positive,l,l,1,0.5490272999995796,510.2110056999991,511.2302430999989,511.1906052999984,None,510.2110056999991,None,510.2110056999991,None,510.2110056999991,None,511.74377332999757,None,511.74377332999757,None,511.74377332999757,None,,,,,,,,,,,214,28,Female,2022-05-10_18h27.34.789,Main,2022.1.1,59.96152868256364,
positive,positive,2,l,j,,,,,,,,,10,5,185,11,,,,,,,,,,,,,,,,,,,,,,,,main,2,2,2,positive,positive,l,l,1,0.718384399999195,511.7673408999981,512.7871047999979,512.7473769999997,None,511.7673408999981,None,511.7673408999981,None,511.7673408999981,None,513.4649315299994,None,513.4649315299994,None,513.4649315299994,None,,,,,,,,,,,214,28,Female,2022-05-10_18h27.34.789,Main,2022.1.1,59.96152868256364,
negative,neutral,2,j,l,,,,,,,,,10,6,186,12,,,,,,,,,,,,,,,,,,,,,,,,main,1,1,2,neutral,negative,j,j,1,0.6626265000013518,513.485030099997,514.5006061999993,514.4806885999969,None,513.485030099997,None,513.485030099997,None,513.485030099997,None,515.1305500299986,None,515.1305500299986,None,515.1305500299986,None,,,,,,,,,,,214,28,Female,2022-05-10_18h27.34.789,Main,2022.1.1,59.96152868256364,
negative,positive,1,j,l,,,,,,,,,10,7,187,6,,,,,,,,,,,,,,,,,,,,,,,,main,2,2,1,positive,negative,j,k,0,0.5753565000013623,515.1526379999996,516.1691773999992,516.1288878999985,None,515.1526379999996,None,515.1526379999996,None,515.1526379999996,None,516.7133985,None,516.7133985,None,516.7133985,None,,,,,,,,,,,214,28,Female,2022-05-10_18h27.34.789,Main,2022.1.1,59.96152868256364,
neutral,neutral,1,k,k,,,,,,,,,10,8,188,1,,,,,,,,,,,,,,,,,,,,,,,,main,1,1,1,neutral,neutral,k,k,1,1.3557858999993186,517.7242745999974,518.7421316,518.7039313999994,None,517.7242745999974,None,517.7242745999974,None,517.7242745999974,None,520.0624518299974,None,520.0624518299974,None,520.0624518299974,None,,,,,,,,,,,214,28,Female,2022-05-10_18h27.34.789,Main,2022.1.1,59.96152868256364,
neutral,positive,1,k,k,,,,,,,,,10,9,189,4,,,,,,,,,,,,,,,,,,,,,,,,main,1,1,1,positive,neutral,k,k,1,1.1461624999974447,520.0821260999983,521.0937447999968,521.0552313999979,None,520.0821260999983,None,520.0821260999983,None,520.0821260999983,None,522.2114220299973,None,522.2114220299973,None,522.2114220299973,None,,,,,,,,,,,214,28,Female,2022-05-10_18h27.34.789,Main,2022.1.1,59.96152868256364,
negative,neutral,1,j,l,,,,,,,,,10,10,190,3,,,,,,,,,,,,,,,,,,,,,,,,main,2,2,1,neutral,negative,j,j,1,0.6734900000010384,522.231917699999,523.2364436999997,523.2168134999993,None,522.231917699999,None,522.231917699999,None,522.231917699999,None,523.8838933299976,None,523.8838933299976,None,523.8838933299976,None,,,,,,,,,,,214,28,Female,2022-05-10_18h27.34.789,Main,2022.1.1,59.96152868256364,
negative,negative,1,j,l,,,,,,,,,10,11,191,0,,,,,,,,,,,,,,,,,,,,,,,,main,1,1,1,negative,negative,j,j,1,0.812278299999889,523.9067669999968,524.9117823999986,524.8922093000001,None,523.9067669999968,None,523.9067669999968,None,523.9067669999968,None,525.7000085299969,None,525.7000085299969,None,525.7000085299969,None,,,,,,,,,,,214,28,Female,2022-05-10_18h27.34.789,Main,2022.1.1,59.96152868256364,
neutral,negative,1,k,k,,,,,,,,,10,12,192,7,,,,,,,,,,,,,,,,,,,,,,,,main,1,1,1,negative,neutral,k,k,1,0.6699100000005274,525.7211418999977,526.7425729999995,526.7028647999978,None,525.7211418999977,None,525.7211418999977,None,525.7211418999977,None,527.3747042300001,None,527.3747042300001,None,527.3747042300001,None,,,,,,,,,,,214,28,Female,2022-05-10_18h27.34.789,Main,2022.1.1,59.96152868256364,
positive,neutral,2,l,j,,,,,,,,,10,13,193,17,,,,,,,,,,,,,,,,,,,,,,,,main,1,1,2,neutral,positive,l,l,1,0.7608388000007835,527.3953838999987,528.4117924999991,528.3734463999972,None,527.3953838999987,None,527.3953838999987,None,527.3953838999987,None,529.1362967299992,None,529.1362967299992,None,529.1362967299992,None,,,,,,,,,,,214,28,Female,2022-05-10_18h27.34.789,Main,2022.1.1,59.96152868256364,
neutral,negative,2,k,k,,,,,,,,,10,14,194,16,,,,,,,,,,,,,,,,,,,,,,,,main,2,2,2,negative,neutral,k,k,1,0.6660064999996393,529.158951399997,530.1624862999997,530.141480299997,None,529.158951399997,None,529.158951399997,None,529.158951399997,None,530.80456323,None,530.80456323,None,530.80456323,None,,,,,,,,,,,214,28,Female,2022-05-10_18h27.34.789,Main,2022.1.1,59.96152868256364,
neutral,neutral,2,k,k,,,,,,,,,10,15,195,10,,,,,,,,,,,,,,,,,,,,,,,,main,1,1,2,neutral,neutral,k,k,1,1.0338310999977693,530.8252428999986,531.8444631999992,531.8061649999981,None,530.8252428999986,None,530.8252428999986,None,530.8252428999986,None,532.8431083300002,None,532.8431083300002,None,532.8431083300002,None,,,,,,,,,,,214,28,Female,2022-05-10_18h27.34.789,Main,2022.1.1,59.96152868256364,
positive,positive,1,l,j,,,,,,,,,10,16,196,2,,,,,,,,,,,,,,,,,,,,,,,,main,2,2,1,positive,positive,l,l,1,0.7506646000001638,532.863727099997,533.8659847999988,533.8468181999997,None,532.863727099997,None,532.863727099997,None,532.863727099997,None,534.5958655300001,None,534.5958655300001,None,534.5958655300001,None,,,,,,,,,,,214,28,Female,2022-05-10_18h27.34.789,Main,2022.1.1,59.96152868256364,
negative,negative,2,j,l,,,,,,,,,10,17,197,9,,,,,,,,,,,,,,,,,,,,,,,,main,2,2,2,negative,negative,j,j,1,3.106786899999861,534.6166538999969,535.6287252999973,535.6084128999973,None,534.6166538999969,None,534.6166538999969,None,534.6166538999969,None,538.7132253999989,None,538.7132253999989,None,538.7132253999989,None,,,,,,,,,,,214,28,Female,2022-05-10_18h27.34.789,Main,2022.1.1,59.96152868256364,
neutral,negative,2,k,k,,,,,,,,,11,0,198,16,,,,,,,,,,,,,,,,,,,,,,,,main,1,1,2,negative,neutral,k,k,1,0.7025748999985808,539.7386219,540.7574805999975,540.7187410999977,None,539.7386219,None,539.7386219,None,539.7386219,None,541.4201961299968,None,541.4201961299968,None,541.4201961299968,None,,,,,,,,,,,214,28,Female,2022-05-10_18h27.34.789,Main,2022.1.1,59.96152868256364,
negative,positive,1,j,l,,,,,,,,,11,1,199,6,,,,,,,,,,,,,,,,,,,,,,,,main,1,1,1,positive,negative,j,j,1,0.6571105000002717,541.4419050999968,542.4609450999997,542.4219244999986,None,541.4419050999968,None,541.4419050999968,None,541.4419050999968,None,543.080853229998,None,543.080853229998,None,543.080853229998,None,,,,,,,,,,,214,28,Female,2022-05-10_18h27.34.789,Main,2022.1.1,59.96152868256364,
positive,positive,1,l,j,,,,,,,,,11,2,200,2,,,,,,,,,,,,,,,,,,,,,,,,main,1,1,1,positive,positive,l,l,1,1.2738341000003857,543.1020777999984,544.1225739999973,544.0832435999982,None,543.1020777999984,None,543.1020777999984,None,543.1020777999984,None,545.3599575299977,None,545.3599575299977,None,545.3599575299977,None,,,,,,,,,,,214,28,Female,2022-05-10_18h27.34.789,Main,2022.1.1,59.96152868256364,
positive,negative,2,l,j,,,,,,,,,11,3,201,14,,,,,,,,,,,,,,,,,,,,,,,,main,2,2,2,negative,positive,l,l,1,0.6629627000002074,545.3802128999996,546.397315299997,546.3577171999968,None,545.3802128999996,None,545.3802128999996,None,545.3802128999996,None,547.0253200299976,None,547.0253200299976,None,547.0253200299976,None,,,,,,,,,,,214,28,Female,2022-05-10_18h27.34.789,Main,2022.1.1,59.96152868256364,
neutral,neutral,2,k,k,,,,,,,,,11,4,202,10,,,,,,,,,,,,,,,,,,,,,,,,main,1,1,2,neutral,neutral,k,k,1,1.6428679999989981,547.0454436999971,548.0557516999979,548.0369705999983,None,547.0454436999971,None,547.0454436999971,None,547.0454436999971,None,549.6747232999987,None,549.6747232999987,None,549.6747232999987,None,,,,,,,,,,,214,28,Female,2022-05-10_18h27.34.789,Main,2022.1.1,59.96152868256364,
neutral,positive,1,k,k,,,,,,,,,11,5,203,4,,,,,,,,,,,,,,,,,,,,,,,,main,2,2,1,positive,neutral,k,k,1,0.7115620999975363,550.6880375000001,551.7084988999995,551.6691402999968,None,550.6880375000001,None,550.6880375000001,None,550.6880375000001,None,552.3797238299976,None,552.3797238299976,None,552.3797238299976,None,,,,,,,,,,,214,28,Female,2022-05-10_18h27.34.789,Main,2022.1.1,59.96152868256364,
negative,negative,1,j,l,,,,,,,,,11,6,204,0,,,,,,,,,,,,,,,,,,,,,,,,main,2,2,1,negative,negative,j,j,1,0.7388923999969848,552.400543599997,553.4164937999994,553.3775645999995,None,552.400543599997,None,552.400543599997,None,552.400543599997,None,554.1239139299996,None,554.1239139299996,None,554.1239139299996,None,,,,,,,,,,,214,28,Female,2022-05-10_18h27.34.789,Main,2022.1.1,59.96152868256364,
negative,neutral,1,j,l,,,,,,,,,11,7,205,3,,,,,,,,,,,,,,,,,,,,,,,,main,2,2,1,neutral,negative,j,j,1,0.5745139999999083,554.1428040999999,555.1503948999998,555.131033499998,None,554.1428040999999,None,554.1428040999999,None,554.1428040999999,None,555.6987763300003,None,555.6987763300003,None,555.6987763300003,None,,,,,,,,,,,214,28,Female,2022-05-10_18h27.34.789,Main,2022.1.1,59.96152868256364,
positive,positive,2,l,j,,,,,,,,,11,8,206,11,,,,,,,,,,,,,,,,,,,,,,,,main,1,1,2,positive,positive,l,l,1,1.4000080000005255,555.7194347999975,556.7217935999979,556.7023752999994,None,555.7194347999975,None,555.7194347999975,None,555.7194347999975,None,558.1008314299997,None,558.1008314299997,None,558.1008314299997,None,,,,,,,,,,,214,28,Female,2022-05-10_18h27.34.789,Main,2022.1.1,59.96152868256364,
negative,neutral,2,j,l,,,,,,,,,11,9,207,12,,,,,,,,,,,,,,,,,,,,,,,,main,1,1,2,neutral,negative,j,j,1,0.7647997999993095,558.1209721999985,559.1298752999974,559.1101904999996,None,558.1209721999985,None,558.1209721999985,None,558.1209721999985,None,559.8686783299981,None,559.8686783299981,None,559.8686783299981,None,,,,,,,,,,,214,28,Female,2022-05-10_18h27.34.789,Main,2022.1.1,59.96152868256364,
positive,negative,1,l,j,,,,,,,,,11,10,208,5,,,,,,,,,,,,,,,,,,,,,,,,main,1,1,1,negative,positive,l,l,1,1.6018407000010484,559.890757899997,560.9074530999969,560.868452499999,None,559.890757899997,None,559.890757899997,None,559.890757899997,None,562.4822964999985,None,562.4822964999985,None,562.4822964999985,None,,,,,,,,,,,214,28,Female,2022-05-10_18h27.34.789,Main,2022.1.1,59.96152868256364,
