target,distractor,set,ans1,ans2,rep_loop2.thisRepN,rep_loop2.thisTrialN,rep_loop2.thisN,rep_loop2.thisIndex,flanker_prac_loop.thisRepN,flanker_prac_loop.thisTrialN,flanker_prac_loop.thisN,flanker_prac_loop.thisIndex,flanker_main_loop.thisRepN,flanker_main_loop.thisTrialN,flanker_main_loop.thisN,flanker_main_loop.thisIndex,fl_inst_resp.keys,mouse.x,mouse.y,mouse.leftButton,mouse.midButton,mouse.rightButton,mouse.started,mouse.stopped,sound_1.started,sound_1.stopped,no_text.started,no_text.stopped,yes_text.started,yes_text.stopped,mouse_2.x,mouse_2.y,mouse_2.leftButton,mouse_2.midButton,mouse_2.rightButton,mouse_2.started,mouse_2.stopped,back_2.started,back_2.stopped,main_prac,fl_cold,fl_colt,fl_set,fl_dcond,fl_tcond,fl_ans,fl_res,fl_corr,fl_rt,fix_fl.started,fix_fl.stopped,targ.started,targ.stopped,j_button.started,j_button.stopped,k_button.started,k_button.stopped,l_button.started,l_button.stopped,j_button2.started,j_button2.stopped,k_button2.started,k_button2.stopped,l_button2.started,l_button2.stopped,mainback.started,mainback.stopped,key_resp.keys,mouse_6.x,mouse_6.y,mouse_6.leftButton,mouse_6.midButton,mouse_6.rightButton,mouse_6.started,mouse_6.stopped,id*,age*,gender*,date,expName,psychopyVersion,frameRate,
,,,,,0,0,0,0,,,,,,,,,None,0.074074075,-0.39444444,0,0,0,1.0116404799891825,None,23.47375696000008,None,74.65310180000006,None,74.65310180000006,None,0.09537037,-0.062037036,0,0,0,0.012680060000093363,None,,,,,,,,,,,,,,,,,,,,,,,,,,,,,,,,,,,,,,,215,20,Female,2022-05-11_16h50.32.711,Main,2022.1.1,60.09405922144996,
,,,,,1,0,1,0,,,,,,,,,None,-0.019444445,-0.39722222,1,0,0,1.0065397600001234,None,78.33345305999993,None,81.36983549999968,None,81.36983549999968,None,-0.098148145,-0.09907407,0,0,0,0.005849460000263207,None,,,,,,,,,,,,,,,,,,,,,,,,,,,,,,,,,,,,,,,215,20,Female,2022-05-11_16h50.32.711,Main,2022.1.1,60.09405922144996,
neutral,positive,2,k,k,,,,,0,0,0,13,,,,,,,,,,,,,,,,,,,,,,,,,,90.7487900000001,None,prac,1,1,2,positive,neutral,k,k,1,1.401734199999737,92.79147310000008,93.80856799999992,93.77198839999983,None,92.79147310000008,None,92.79147310000008,None,92.79147310000008,None,95.15720255999977,None,95.15720255999977,None,95.15720255999977,None,,,,,,,,,,,215,20,Female,2022-05-11_16h50.32.711,Main,2022.1.1,60.09405922144996,
positive,negative,2,l,j,,,,,0,1,1,14,,,,,,,,,,,,,,,,,,,,,,,,,,,,prac,2,2,2,negative,positive,j,j,1,1.2579738999997971,95.20126609999988,96.21040760000005,96.1744905999999,None,95.20126609999988,None,95.20126609999988,None,95.20126609999988,None,97.41906815999974,None,97.41906815999974,None,97.41906815999974,None,,,,,,,,,,,215,20,Female,2022-05-11_16h50.32.711,Main,2022.1.1,60.09405922144996,
negative,positive,2,j,l,,,,,0,2,2,15,,,,,,,,,,,,,,,,,,,,,,,,,,,,prac,2,2,2,positive,negative,l,l,1,0.9383919000001697,97.45098039999993,98.46555269999999,98.44554999999991,None,97.45098039999993,None,97.45098039999993,None,97.45098039999993,None,99.35925235999994,None,99.35925235999994,None,99.35925235999994,None,,,,,,,,,,,215,20,Female,2022-05-11_16h50.32.711,Main,2022.1.1,60.09405922144996,
negative,negative,2,j,l,,,,,0,3,3,9,,,,,,,,,,,,,,,,,,,,,,,,,,,,prac,2,2,2,negative,negative,l,l,1,0.7597590000000309,99.37822879999976,100.39423480000005,100.35861739999973,None,99.37822879999976,None,99.37822879999976,None,99.37822879999976,None,101.12099406000007,None,101.12099406000007,None,101.12099406000007,None,,,,,,,,,,,215,20,Female,2022-05-11_16h50.32.711,Main,2022.1.1,60.09405922144996,
negative,positive,1,j,l,,,,,0,4,4,6,,,,,,,,,,,,,,,,,,,,,,,,,,,,prac,2,2,1,positive,negative,l,l,1,1.385957099999814,101.15630979999969,102.16015719999996,102.14321699999982,None,101.15630979999969,None,101.15630979999969,None,101.15630979999969,None,103.50932535999974,None,103.50932535999974,None,103.50932535999974,None,,,,,,,,,,,215,20,Female,2022-05-11_16h50.32.711,Main,2022.1.1,60.09405922144996,
positive,neutral,2,l,j,,,,,0,5,5,17,,,,,,,,,,,,,,,,,,,,,,,,,,,,prac,1,1,2,neutral,positive,j,j,1,0.8972125000000233,103.54017399999975,104.5464552999997,104.52708099999973,None,103.54017399999975,None,103.54017399999975,None,103.54017399999975,None,105.40871575999964,None,105.40871575999964,None,105.40871575999964,None,,,,,,,,,,,215,20,Female,2022-05-11_16h50.32.711,Main,2022.1.1,60.09405922144996,
neutral,negative,1,k,k,,,,,0,6,6,7,,,,,,,,,,,,,,,,,,,,,,,,,,,,prac,1,1,1,negative,neutral,k,k,1,1.0095243999999184,105.45085729999983,106.46425060000001,106.42553120000002,None,105.45085729999983,None,105.45085729999983,None,105.45085729999983,None,107.42008595999997,None,107.42008595999997,None,107.42008595999997,None,,,,,,,,,,,215,20,Female,2022-05-11_16h50.32.711,Main,2022.1.1,60.09405922144996,
positive,positive,1,l,j,,,,,0,7,7,2,,,,,,,,,,,,,,,,,,,,,,,,,,,,prac,2,2,1,positive,positive,j,j,1,0.7895705999999336,107.44234370000004,108.45841249999967,108.42080189999979,None,107.44234370000004,None,107.44234370000004,None,107.44234370000004,None,109.21352975999972,None,109.21352975999972,None,109.21352975999972,None,,,,,,,,,,,215,20,Female,2022-05-11_16h50.32.711,Main,2022.1.1,60.09405922144996,
neutral,positive,1,k,k,,,,,0,8,8,4,,,,,,,,,,,,,,,,,,,,,,,,,,,,prac,1,1,1,positive,neutral,k,k,1,0.7468269000000873,109.24625349999997,110.2631335000001,110.24393239999972,None,109.24625349999997,None,109.24625349999997,None,109.24625349999997,None,110.96269015999988,None,110.96269015999988,None,110.96269015999988,None,,,,,,,,,,,215,20,Female,2022-05-11_16h50.32.711,Main,2022.1.1,60.09405922144996,
positive,neutral,1,l,j,,,,,0,9,9,8,,,,,,,,,,,,,,,,,,,,,,,,,,,,prac,2,2,1,neutral,positive,j,j,1,0.8825667000000976,110.99825969999983,112.01232679999976,111.97461900000008,None,110.99825969999983,None,110.99825969999983,None,110.99825969999983,None,112.84758345999981,None,112.84758345999981,None,112.84758345999981,None,,,,,,,,,,,215,20,Female,2022-05-11_16h50.32.711,Main,2022.1.1,60.09405922144996,
positive,positive,2,l,j,,,,,0,10,10,11,,,,,,,,,,,,,,,,,,,,,,,,,,,,prac,1,1,2,positive,positive,j,j,1,0.8069194999998217,112.8660117999998,113.88111299999991,113.84213520000003,None,112.8660117999998,None,112.8660117999998,None,112.8660117999998,None,114.65447005999968,None,114.65447005999968,None,114.65447005999968,None,,,,,,,,,,,215,20,Female,2022-05-11_16h50.32.711,Main,2022.1.1,60.09405922144996,
neutral,negative,2,k,k,,,,,0,11,11,16,,,,,,,,,,,,,,,,,,,,,,,,,,,,prac,2,2,2,negative,neutral,k,k,1,0.7567383000000518,114.68546900000001,115.69527149999976,115.67603359999976,None,114.68546900000001,None,114.68546900000001,None,114.68546900000001,None,116.41556275999974,None,116.41556275999974,None,116.41556275999974,None,,,,,,,,,,,215,20,Female,2022-05-11_16h50.32.711,Main,2022.1.1,60.09405922144996,
negative,negative,1,j,l,,,,,0,12,12,0,,,,,,,,,,,,,,,,,,,,,,,,,,,,prac,2,2,1,negative,negative,l,l,1,0.8032594999999674,116.44790049999983,117.45128709999972,117.43273520000002,None,116.44790049999983,None,116.44790049999983,None,116.44790049999983,None,118.22060305999995,None,118.22060305999995,None,118.22060305999995,None,,,,,,,,,,,215,20,Female,2022-05-11_16h50.32.711,Main,2022.1.1,60.09405922144996,
negative,neutral,1,j,l,,,,,0,13,13,3,,,,,,,,,,,,,,,,,,,,,,,,,,,,prac,1,1,1,neutral,negative,l,l,1,0.6623683000002529,118.25267189999977,119.27106699999968,119.25276699999995,None,118.25267189999977,None,118.25267189999977,None,118.25267189999977,None,119.88524615999987,None,119.88524615999987,None,119.88524615999987,None,,,,,,,,,,,215,20,Female,2022-05-11_16h50.32.711,Main,2022.1.1,60.09405922144996,
neutral,neutral,1,k,k,,,,,0,14,14,1,,,,,,,,,,,,,,,,,,,,,,,,,,,,prac,1,1,1,neutral,neutral,k,k,1,0.7227978000000803,119.90491870000005,120.92154879999998,120.88292860000001,None,119.90491870000005,None,119.90491870000005,None,119.90491870000005,None,121.61225486000004,None,121.61225486000004,None,121.61225486000004,None,,,,,,,,,,,215,20,Female,2022-05-11_16h50.32.711,Main,2022.1.1,60.09405922144996,
positive,negative,1,l,j,,,,,0,15,15,5,,,,,,,,,,,,,,,,,,,,,,,,,,,,prac,1,1,1,negative,positive,j,j,1,0.6773038999999699,121.63112249999995,122.64594929999976,122.60849409999992,None,121.63112249999995,None,121.63112249999995,None,121.63112249999995,None,123.29031635999982,None,123.29031635999982,None,123.29031635999982,None,,,,,,,,,,,215,20,Female,2022-05-11_16h50.32.711,Main,2022.1.1,60.09405922144996,
negative,neutral,2,j,l,,,,,0,16,16,12,,,,,,,,,,,,,,,,,,,,,,,,,,,,prac,1,1,2,neutral,negative,l,l,1,0.854413200000181,123.3204925,124.32910279999987,124.31099059999997,None,123.3204925,None,123.3204925,None,123.3204925,None,125.14802666000006,None,125.14802666000006,None,125.14802666000006,None,,,,,,,,,,,215,20,Female,2022-05-11_16h50.32.711,Main,2022.1.1,60.09405922144996,
neutral,neutral,2,k,k,,,,,0,17,17,10,,,,,,,,,,,,,,,,,,,,,,,,,,,,prac,2,2,2,neutral,neutral,k,k,1,0.7266921000000366,125.17218950000006,126.18813689999979,126.15099349999991,None,125.17218950000006,None,125.17218950000006,None,125.17218950000006,None,126.87909495999966,None,126.87909495999966,None,126.87909495999966,None,,,,,,,,,,,215,20,Female,2022-05-11_16h50.32.711,Main,2022.1.1,60.09405922144996,
negative,positive,2,j,l,,,,,1,0,18,15,,,,,,,,,,,,,,,,,,,,,,,,,,,,prac,1,1,2,positive,negative,l,l,1,0.7831989999999678,126.89761739999994,127.91604299999972,127.87892329999977,None,126.89761739999994,None,126.89761739999994,None,126.89761739999994,None,128.6639187599998,None,128.6639187599998,None,128.6639187599998,None,,,,,,,,,,,215,20,Female,2022-05-11_16h50.32.711,Main,2022.1.1,60.09405922144996,
positive,positive,1,l,j,,,,,1,1,19,2,,,,,,,,,,,,,,,,,,,,,,,,,,,,prac,2,2,1,positive,positive,j,j,1,0.7613153000002058,128.68493949999993,129.6861398000001,129.66788009999982,None,128.68493949999993,None,128.68493949999993,None,128.68493949999993,None,130.42957025999968,None,130.42957025999968,None,130.42957025999968,None,,,,,,,,,,,215,20,Female,2022-05-11_16h50.32.711,Main,2022.1.1,60.09405922144996,
negative,negative,2,j,l,,,,,1,2,20,9,,,,,,,,,,,,,,,,,,,,,,,,,,,,prac,1,1,2,negative,negative,l,l,1,0.7397968999998739,130.46351189999996,131.4687660999998,131.45079639999994,None,130.46351189999996,None,130.46351189999996,None,130.46351189999996,None,132.17377286,None,132.17377286,None,132.17377286,None,,,,,,,,,,,215,20,Female,2022-05-11_16h50.32.711,Main,2022.1.1,60.09405922144996,
positive,negative,2,l,j,,,,,1,3,21,14,,,,,,,,,,,,,,,,,,,,,,,,,,,,prac,1,1,2,negative,positive,j,j,1,0.9273354000001746,132.19258919999993,133.20555119999972,133.1677291000001,None,132.19258919999993,None,132.19258919999993,None,132.19258919999993,None,134.10125706,None,134.10125706,None,134.10125706,None,,,,,,,,,,,215,20,Female,2022-05-11_16h50.32.711,Main,2022.1.1,60.09405922144996,
positive,neutral,2,l,j,,,,,1,4,22,17,,,,,,,,,,,,,,,,,,,,,,,,,,,,prac,1,1,2,neutral,positive,j,j,1,0.684903000000304,134.1211085,135.13690959999985,135.0999667000001,None,134.1211085,None,134.1211085,None,134.1211085,None,135.78871735999965,None,135.78871735999965,None,135.78871735999965,None,,,,,,,,,,,215,20,Female,2022-05-11_16h50.32.711,Main,2022.1.1,60.09405922144996,
negative,positive,1,j,l,,,,,1,5,23,6,,,,,,,,,,,,,,,,,,,,,,,,,,,,prac,2,2,1,positive,negative,l,l,1,0.748700000000099,135.8120799999997,136.81439539999974,136.79548729999988,None,135.8120799999997,None,135.8120799999997,None,135.8120799999997,None,137.5411668599999,None,137.5411668599999,None,137.5411668599999,None,,,,,,,,,,,215,20,Female,2022-05-11_16h50.32.711,Main,2022.1.1,60.09405922144996,
neutral,neutral,2,k,k,,,,,1,6,24,10,,,,,,,,,,,,,,,,,,,,,,,,,,,,prac,2,2,2,neutral,neutral,k,k,1,0.6232221999998728,137.56046689999994,138.5775819999999,138.5390881999997,None,137.56046689999994,None,137.56046689999994,None,137.56046689999994,None,139.16507446000006,None,139.16507446000006,None,139.16507446000006,None,,,,,,,,,,,215,20,Female,2022-05-11_16h50.32.711,Main,2022.1.1,60.09405922144996,
neutral,negative,1,k,k,,,,,1,7,25,7,,,,,,,,,,,,,,,,,,,,,,,,,,,,prac,2,2,1,negative,neutral,k,k,1,0.6475918000001002,139.18403919999992,140.18597599999976,140.1675169,None,139.18403919999992,None,139.18403919999992,None,139.18403919999992,None,140.81455236000002,None,140.81455236000002,None,140.81455236000002,None,,,,,,,,,,,215,20,Female,2022-05-11_16h50.32.711,Main,2022.1.1,60.09405922144996,
positive,negative,1,l,j,,,,,1,8,26,5,,,,,,,,,,,,,,,,,,,,,,,,,,,,prac,2,2,1,negative,positive,j,j,1,1.3672803000004023,140.83535940000002,141.85114179999982,141.81509490000008,None,140.83535940000002,None,140.83535940000002,None,140.83535940000002,None,143.18411835999987,None,143.18411835999987,None,143.18411835999987,None,,,,,,,,,,,215,20,Female,2022-05-11_16h50.32.711,Main,2022.1.1,60.09405922144996,
neutral,positive,1,k,k,,,,,1,9,27,4,,,,,,,,,,,,,,,,,,,,,,,,,,,,prac,1,1,1,positive,neutral,k,k,1,0.7716183000002275,143.20461840000007,144.21934729999975,144.18307800000002,None,143.20461840000007,None,143.20461840000007,None,143.20461840000007,None,144.9582122599999,None,144.9582122599999,None,144.9582122599999,None,,,,,,,,,,,215,20,Female,2022-05-11_16h50.32.711,Main,2022.1.1,60.09405922144996,
positive,positive,2,l,j,,,,,1,10,28,11,,,,,,,,,,,,,,,,,,,,,,,,,,,,prac,2,2,2,positive,positive,j,j,1,0.7008084999997664,144.97971159999997,145.9911591,145.95363829999997,None,144.97971159999997,None,144.97971159999997,None,144.97971159999997,None,146.66252755999986,None,146.66252755999986,None,146.66252755999986,None,,,,,,,,,,,215,20,Female,2022-05-11_16h50.32.711,Main,2022.1.1,60.09405922144996,
negative,negative,1,j,l,,,,,1,11,29,0,,,,,,,,,,,,,,,,,,,,,,,,,,,,prac,1,1,1,negative,negative,l,l,1,1.0703495000002476,146.6830172,147.69203229999994,147.67346169999973,None,146.6830172,None,146.6830172,None,146.6830172,None,148.73747145999997,None,148.73747145999997,None,148.73747145999997,None,,,,,,,,,,,215,20,Female,2022-05-11_16h50.32.711,Main,2022.1.1,60.09405922144996,
negative,neutral,1,j,l,,,,,1,12,30,3,,,,,,,,,,,,,,,,,,,,,,,,,,,,prac,2,2,1,neutral,negative,l,l,1,1.0221848999999565,148.75652869999976,149.77145960000007,149.73496459999978,None,148.75652869999976,None,148.75652869999976,None,148.75652869999976,None,150.76156226000003,None,150.76156226000003,None,150.76156226000003,None,,,,,,,,,,,215,20,Female,2022-05-11_16h50.32.711,Main,2022.1.1,60.09405922144996,
neutral,negative,2,k,k,,,,,1,13,31,16,,,,,,,,,,,,,,,,,,,,,,,,,,,,prac,2,2,2,negative,neutral,k,k,1,0.8596698000001197,150.7815344999999,151.79063300000007,151.77150559999973,None,150.7815344999999,None,150.7815344999999,None,150.7815344999999,None,152.62566445999974,None,152.62566445999974,None,152.62566445999974,None,,,,,,,,,,,215,20,Female,2022-05-11_16h50.32.711,Main,2022.1.1,60.09405922144996,
neutral,positive,2,k,k,,,,,1,14,32,13,,,,,,,,,,,,,,,,,,,,,,,,,,,,prac,1,1,2,positive,neutral,k,k,1,0.6551340999999411,152.64502519999996,153.6609365999998,153.62372249999999,None,152.64502519999996,None,152.64502519999996,None,152.64502519999996,None,154.28077526000007,None,154.28077526000007,None,154.28077526000007,None,,,,,,,,,,,215,20,Female,2022-05-11_16h50.32.711,Main,2022.1.1,60.09405922144996,
neutral,neutral,1,k,k,,,,,1,15,33,1,,,,,,,,,,,,,,,,,,,,,,,,,,,,prac,1,1,1,neutral,neutral,k,k,1,0.6658365999996931,154.30063040000005,155.3194536000001,155.28136099999983,None,154.30063040000005,None,154.30063040000005,None,154.30063040000005,None,155.94921225999988,None,155.94921225999988,None,155.94921225999988,None,,,,,,,,,,,215,20,Female,2022-05-11_16h50.32.711,Main,2022.1.1,60.09405922144996,
negative,neutral,2,j,l,,,,,1,16,34,12,,,,,,,,,,,,,,,,,,,,,,,,,,,,prac,1,1,2,neutral,negative,l,l,1,0.7114145999998982,155.96888199999967,156.97473999999966,156.95638400000007,None,155.96888199999967,None,155.96888199999967,None,155.96888199999967,None,157.66310366000008,None,157.66310366000008,None,157.66310366000008,None,,,,,,,,,,,215,20,Female,2022-05-11_16h50.32.711,Main,2022.1.1,60.09405922144996,
positive,neutral,1,l,j,,,,,1,17,35,8,,,,,,,,,,,,,,,,,,,,,,,,,,,,prac,1,1,1,neutral,positive,j,j,1,0.664736300000186,157.68177359999981,158.69128169999976,158.6535243999997,None,157.68177359999981,None,157.68177359999981,None,157.68177359999981,None,159.32993885999977,None,159.32993885999977,None,159.32993885999977,None,,,,,,,,,,,215,20,Female,2022-05-11_16h50.32.711,Main,2022.1.1,60.09405922144996,
,,,,,,,,,,,,,,,,,,,,,,,,,,,,,,,,,,,,,,,,,,,,,,,,,,,,,,,,,,,,,,,,,,159.3352587999998,None,None,,,,,,,,215,20,Female,2022-05-11_16h50.32.711,Main,2022.1.1,60.09405922144996,
,,,,,,,,,,,,,,,,,,,,,,,,,,,,,,,,,,,,,,,,,,,,,,,,,,,,,,,,,,,,,,,,,,,,,0.075925924,-0.16018519,1,0,0,0.00494565999997576,None,215,20,Female,2022-05-11_16h50.32.711,Main,2022.1.1,60.09405922144996,
positive,positive,1,l,j,,,,,,,,,0,0,0,2,,,,,,,,,,,,,,,,,,,,,,163.3730612999998,None,main,2,2,1,positive,positive,j,j,1,0.7264329999998154,165.39267410000002,166.40275359999987,166.3663563,None,165.39267410000002,None,165.39267410000002,None,165.39267410000002,None,167.0987713599997,None,167.0987713599997,None,167.0987713599997,None,,,,,,,,,,,215,20,Female,2022-05-11_16h50.32.711,Main,2022.1.1,60.09405922144996,
positive,negative,2,l,j,,,,,,,,,0,1,1,14,,,,,,,,,,,,,,,,,,,,,,,,main,2,2,2,negative,positive,j,j,1,0.7263020999998844,167.12100229999987,168.14029589999973,168.1019799999999,None,167.12100229999987,None,167.12100229999987,None,167.12100229999987,None,168.8292465599997,None,168.8292465599997,None,168.8292465599997,None,,,,,,,,,,,215,20,Female,2022-05-11_16h50.32.711,Main,2022.1.1,60.09405922144996,
negative,neutral,1,j,l,,,,,,,,,0,2,2,3,,,,,,,,,,,,,,,,,,,,,,,,main,2,2,1,neutral,negative,l,l,1,0.6784649000001082,168.84937820000005,169.86321019999968,169.82676059999994,None,168.84937820000005,None,168.84937820000005,None,168.84937820000005,None,170.51077776000002,None,170.51077776000002,None,170.51077776000002,None,,,,,,,,,,,215,20,Female,2022-05-11_16h50.32.711,Main,2022.1.1,60.09405922144996,
negative,negative,1,j,l,,,,,,,,,0,3,3,0,,,,,,,,,,,,,,,,,,,,,,,,main,1,1,1,negative,negative,l,l,1,0.7327946000000338,170.5313532,171.5385166000001,171.51924419999978,None,170.5313532,None,170.5313532,None,170.5313532,None,172.24550265999997,None,172.24550265999997,None,172.24550265999997,None,,,,,,,,,,,215,20,Female,2022-05-11_16h50.32.711,Main,2022.1.1,60.09405922144996,
negative,neutral,2,j,l,,,,,,,,,0,4,4,12,,,,,,,,,,,,,,,,,,,,,,,,main,1,1,2,neutral,negative,l,l,1,1.2158908999999767,172.26520759999994,173.27454869999974,173.25443259999975,None,172.26520759999994,None,172.26520759999994,None,172.26520759999994,None,174.46387515999996,None,174.46387515999996,None,174.46387515999996,None,,,,,,,,,,,215,20,Female,2022-05-11_16h50.32.711,Main,2022.1.1,60.09405922144996,
neutral,neutral,2,k,k,,,,,,,,,0,5,5,10,,,,,,,,,,,,,,,,,,,,,,,,main,1,1,2,neutral,neutral,k,l,0,-0.7180554000001393,174.48340229999985,None,None,None,174.48340229999985,None,174.48340229999985,None,174.48340229999985,None,174.77739789999987,None,174.77739789999987,None,174.77739789999987,None,,,,,,,,,,,215,20,Female,2022-05-11_16h50.32.711,Main,2022.1.1,60.09405922144996,
neutral,positive,2,k,k,,,,,,,,,0,6,6,13,,,,,,,,,,,,,,,,,,,,,,,,main,2,2,2,positive,neutral,k,k,1,0.8539789000001292,177.79755399999976,178.80938479999986,178.79107479999993,None,177.79755399999976,None,177.79755399999976,None,177.79755399999976,None,179.6324186599999,None,179.6324186599999,None,179.6324186599999,None,,,,,,,,,,,215,20,Female,2022-05-11_16h50.32.711,Main,2022.1.1,60.09405922144996,
negative,negative,2,j,l,,,,,,,,,0,7,7,9,,,,,,,,,,,,,,,,,,,,,,,,main,2,2,2,negative,negative,l,l,1,1.444995999999719,179.65254509999977,180.6615999999999,180.6432047999997,None,179.65254509999977,None,179.65254509999977,None,179.65254509999977,None,182.08065346000004,None,182.08065346000004,None,182.08065346000004,None,,,,,,,,,,,215,20,Female,2022-05-11_16h50.32.711,Main,2022.1.1,60.09405922144996,
positive,negative,1,l,j,,,,,,,,,0,8,8,5,,,,,,,,,,,,,,,,,,,,,,,,main,2,2,1,negative,positive,j,j,1,0.8383628000001409,182.1007552000001,183.10524669999995,183.08638549999978,None,182.1007552000001,None,182.1007552000001,None,182.1007552000001,None,183.92211885999987,None,183.92211885999987,None,183.92211885999987,None,,,,,,,,,,,215,20,Female,2022-05-11_16h50.32.711,Main,2022.1.1,60.09405922144996,
neutral,negative,2,k,k,,,,,,,,,0,9,9,16,,,,,,,,,,,,,,,,,,,,,,,,main,2,2,2,negative,neutral,k,k,1,0.7167613999999958,183.9454735999998,184.96150579999994,184.9251651999998,None,183.9454735999998,None,183.9454735999998,None,183.9454735999998,None,185.64348145999966,None,185.64348145999966,None,185.64348145999966,None,,,,,,,,,,,215,20,Female,2022-05-11_16h50.32.711,Main,2022.1.1,60.09405922144996,
positive,positive,2,l,j,,,,,,,,,0,10,10,11,,,,,,,,,,,,,,,,,,,,,,,,main,1,1,2,positive,positive,j,j,1,0.6975607000003947,185.6634125999999,186.68058169999995,186.64398299999993,None,185.6634125999999,None,185.6634125999999,None,185.6634125999999,None,187.34401545999972,None,187.34401545999972,None,187.34401545999972,None,,,,,,,,,,,215,20,Female,2022-05-11_16h50.32.711,Main,2022.1.1,60.09405922144996,
positive,neutral,2,l,j,,,,,,,,,0,11,11,17,,,,,,,,,,,,,,,,,,,,,,,,main,1,1,2,neutral,positive,j,j,1,0.6242238999998335,187.36402339999995,188.37444359999972,188.33782010000004,None,187.36402339999995,None,187.36402339999995,None,187.36402339999995,None,188.97270765999966,None,188.97270765999966,None,188.97270765999966,None,,,,,,,,,,,215,20,Female,2022-05-11_16h50.32.711,Main,2022.1.1,60.09405922144996,
neutral,neutral,1,k,k,,,,,,,,,0,12,12,1,,,,,,,,,,,,,,,,,,,,,,,,main,2,2,1,neutral,neutral,k,k,1,0.7610207999996419,188.99347279999984,190.008014,189.9710955999999,None,188.99347279999984,None,188.99347279999984,None,188.99347279999984,None,190.73788185999993,None,190.73788185999993,None,190.73788185999993,None,,,,,,,,,,,215,20,Female,2022-05-11_16h50.32.711,Main,2022.1.1,60.09405922144996,
positive,neutral,1,l,j,,,,,,,,,0,13,13,8,,,,,,,,,,,,,,,,,,,,,,,,main,1,1,1,neutral,positive,j,j,1,0.8082679000003736,190.76003330000003,191.76502889999983,191.7466930999999,None,190.76003330000003,None,190.76003330000003,None,190.76003330000003,None,192.54768486000003,None,192.54768486000003,None,192.54768486000003,None,,,,,,,,,,,215,20,Female,2022-05-11_16h50.32.711,Main,2022.1.1,60.09405922144996,
neutral,positive,1,k,k,,,,,,,,,0,14,14,4,,,,,,,,,,,,,,,,,,,,,,,,main,2,2,1,positive,neutral,k,k,1,0.7870993000001363,192.56792300000006,193.57069479999973,193.55182539999987,None,192.56792300000006,None,192.56792300000006,None,192.56792300000006,None,194.33773875999978,None,194.33773875999978,None,194.33773875999978,None,,,,,,,,,,,215,20,Female,2022-05-11_16h50.32.711,Main,2022.1.1,60.09405922144996,
negative,positive,1,j,l,,,,,,,,,0,15,15,6,,,,,,,,,,,,,,,,,,,,,,,,main,2,2,1,positive,negative,l,l,1,0.7862209999998413,194.35920669999996,195.3597264,195.3415845999998,None,194.35920669999996,None,194.35920669999996,None,194.35920669999996,None,196.1278063599997,None,196.1278063599997,None,196.1278063599997,None,,,,,,,,,,,215,20,Female,2022-05-11_16h50.32.711,Main,2022.1.1,60.09405922144996,
neutral,negative,1,k,k,,,,,,,,,0,16,16,7,,,,,,,,,,,,,,,,,,,,,,,,main,2,2,1,negative,neutral,k,k,1,0.7066583000000719,196.1473560999998,197.16558869999972,197.1290369999997,None,196.1473560999998,None,196.1473560999998,None,196.1473560999998,None,197.8384588600001,None,197.8384588600001,None,197.8384588600001,None,,,,,,,,,,,215,20,Female,2022-05-11_16h50.32.711,Main,2022.1.1,60.09405922144996,
negative,positive,2,j,l,,,,,,,,,0,17,17,15,,,,,,,,,,,,,,,,,,,,,,,,main,2,2,2,positive,negative,l,l,1,0.8606954000001679,197.8581879999997,198.8593009000001,198.84090969999988,None,197.8581879999997,None,197.8581879999997,None,197.8581879999997,None,199.70344695999975,None,199.70344695999975,None,199.70344695999975,None,,,,,,,,,,,215,20,Female,2022-05-11_16h50.32.711,Main,2022.1.1,60.09405922144996,
positive,neutral,2,l,j,,,,,,,,,1,0,18,17,,,,,,,,,,,,,,,,,,,,,,,,main,2,2,2,neutral,positive,j,j,1,1.1355288999998265,199.72361739999997,200.74189089999982,200.70487009999988,None,199.72361739999997,None,199.72361739999997,None,199.72361739999997,None,201.84163735999974,None,201.84163735999974,None,201.84163735999974,None,,,,,,,,,,,215,20,Female,2022-05-11_16h50.32.711,Main,2022.1.1,60.09405922144996,
positive,negative,2,l,j,,,,,,,,,1,1,19,14,,,,,,,,,,,,,,,,,,,,,,,,main,1,1,2,negative,positive,j,j,1,0.6060347999996338,201.86150129999987,202.86408140000003,202.84580890000007,None,201.86150129999987,None,201.86150129999987,None,201.86150129999987,None,203.45230645999973,None,203.45230645999973,None,203.45230645999973,None,,,,,,,,,,,215,20,Female,2022-05-11_16h50.32.711,Main,2022.1.1,60.09405922144996,
neutral,neutral,2,k,k,,,,,,,,,1,2,20,10,,,,,,,,,,,,,,,,,,,,,,,,main,1,1,2,neutral,neutral,k,k,1,0.7070251000000098,203.47172789999968,204.48378430000002,204.4465737999999,None,203.47172789999968,None,203.47172789999968,None,203.47172789999968,None,205.15931506000007,None,205.15931506000007,None,205.15931506000007,None,,,,,,,,,,,215,20,Female,2022-05-11_16h50.32.711,Main,2022.1.1,60.09405922144996,
neutral,neutral,1,k,k,,,,,,,,,1,3,21,1,,,,,,,,,,,,,,,,,,,,,,,,main,2,2,1,neutral,neutral,k,k,1,0.617569900000035,205.17981499999996,206.1956998999999,206.1585814,None,205.17981499999996,None,205.17981499999996,None,205.17981499999996,None,206.78153755999975,None,206.78153755999975,None,206.78153755999975,None,,,,,,,,,,,215,20,Female,2022-05-11_16h50.32.711,Main,2022.1.1,60.09405922144996,
negative,negative,1,j,l,,,,,,,,,1,4,22,0,,,,,,,,,,,,,,,,,,,,,,,,main,2,2,1,negative,negative,l,l,1,0.769334500000241,206.8017077999998,207.81873919999998,207.78047089999973,None,206.8017077999998,None,206.8017077999998,None,206.8017077999998,None,208.55325295999992,None,208.55325295999992,None,208.55325295999992,None,,,,,,,,,,,215,20,Female,2022-05-11_16h50.32.711,Main,2022.1.1,60.09405922144996,
neutral,positive,1,k,k,,,,,,,,,1,5,23,4,,,,,,,,,,,,,,,,,,,,,,,,main,2,2,1,positive,neutral,k,k,1,0.7630038999996032,208.57665559999987,209.5907787000001,209.5541518,None,208.57665559999987,None,208.57665559999987,None,208.57665559999987,None,210.32130445999965,None,210.32130445999965,None,210.32130445999965,None,,,,,,,,,,,215,20,Female,2022-05-11_16h50.32.711,Main,2022.1.1,60.09405922144996,
negative,positive,1,j,l,,,,,,,,,1,6,24,6,,,,,,,,,,,,,,,,,,,,,,,,main,1,1,1,positive,negative,l,l,1,0.8066975000001548,210.34218099999998,211.3568977,211.31890569999996,None,210.34218099999998,None,210.34218099999998,None,210.34218099999998,None,212.13207625999976,None,212.13207625999976,None,212.13207625999976,None,,,,,,,,,,,215,20,Female,2022-05-11_16h50.32.711,Main,2022.1.1,60.09405922144996,
negative,positive,2,j,l,,,,,,,,,1,7,25,15,,,,,,,,,,,,,,,,,,,,,,,,main,2,2,2,positive,negative,l,l,1,0.7230533000001742,212.15348099999983,213.16204179999977,213.14371989999972,None,212.15348099999983,None,212.15348099999983,None,212.15348099999983,None,213.85680885999992,None,213.85680885999992,None,213.85680885999992,None,,,,,,,,,,,215,20,Female,2022-05-11_16h50.32.711,Main,2022.1.1,60.09405922144996,
neutral,negative,2,k,k,,,,,,,,,1,8,26,16,,,,,,,,,,,,,,,,,,,,,,,,main,2,2,2,negative,neutral,k,k,1,0.8054861000000528,213.87723329999972,214.93269839999994,214.91393930000004,None,213.87723329999972,None,213.87723329999972,None,213.87723329999972,None,215.66714915999992,None,215.66714915999992,None,215.66714915999992,None,,,,,,,,,,,215,20,Female,2022-05-11_16h50.32.711,Main,2022.1.1,60.09405922144996,
neutral,negative,1,k,k,,,,,,,,,1,9,27,7,,,,,,,,,,,,,,,,,,,,,,,,main,2,2,1,negative,neutral,k,k,1,0.5976009000000886,215.68596979999984,216.68728359999977,216.66844009999977,None,215.68596979999984,None,215.68596979999984,None,215.68596979999984,None,217.26727445999987,None,217.26727445999987,None,217.26727445999987,None,,,,,,,,,,,215,20,Female,2022-05-11_16h50.32.711,Main,2022.1.1,60.09405922144996,
neutral,positive,2,k,k,,,,,,,,,1,10,28,13,,,,,,,,,,,,,,,,,,,,,,,,main,2,2,2,positive,neutral,k,k,1,0.6085044999999809,217.28616499999998,218.29779849999977,218.25916389999975,None,217.28616499999998,None,217.28616499999998,None,217.28616499999998,None,218.87817675999977,None,218.87817675999977,None,218.87817675999977,None,,,,,,,,,,,215,20,Female,2022-05-11_16h50.32.711,Main,2022.1.1,60.09405922144996,
positive,positive,1,l,j,,,,,,,,,1,11,29,2,,,,,,,,,,,,,,,,,,,,,,,,main,2,2,1,positive,positive,j,j,1,0.6770680999998149,218.8981558999999,219.9170497,219.8784943999999,None,218.8981558999999,None,218.8981558999999,None,218.8981558999999,None,220.55662556000007,None,220.55662556000007,None,220.55662556000007,None,,,,,,,,,,,215,20,Female,2022-05-11_16h50.32.711,Main,2022.1.1,60.09405922144996,
negative,neutral,1,j,l,,,,,,,,,1,12,30,3,,,,,,,,,,,,,,,,,,,,,,,,main,1,1,1,neutral,negative,l,l,1,0.8274379000004046,220.57745010000008,221.58830009999974,221.5696607,None,220.57745010000008,None,220.57745010000008,None,220.57745010000008,None,222.38732685999994,None,222.38732685999994,None,222.38732685999994,None,,,,,,,,,,,215,20,Female,2022-05-11_16h50.32.711,Main,2022.1.1,60.09405922144996,
negative,neutral,2,j,l,,,,,,,,,1,13,31,12,,,,,,,,,,,,,,,,,,,,,,,,main,1,1,2,neutral,negative,l,l,1,0.5867014000000381,222.40732769999977,223.41703419999976,223.3976536,None,222.40732769999977,None,222.40732769999977,None,222.40732769999977,None,223.97822345999967,None,223.97822345999967,None,223.97822345999967,None,,,,,,,,,,,215,20,Female,2022-05-11_16h50.32.711,Main,2022.1.1,60.09405922144996,
positive,neutral,1,l,j,,,,,,,,,1,14,32,8,,,,,,,,,,,,,,,,,,,,,,,,main,2,2,1,neutral,positive,j,j,1,0.8473978000001807,223.99766279999994,225.00430749999987,224.98637329999974,None,223.99766279999994,None,223.99766279999994,None,223.99766279999994,None,225.8268029599998,None,225.8268029599998,None,225.8268029599998,None,,,,,,,,,,,215,20,Female,2022-05-11_16h50.32.711,Main,2022.1.1,60.09405922144996,
positive,negative,1,l,j,,,,,,,,,1,15,33,5,,,,,,,,,,,,,,,,,,,,,,,,main,1,1,1,negative,positive,j,j,1,0.6504485000000386,225.8526499999998,226.86410139999998,226.82627699999966,None,225.8526499999998,None,225.8526499999998,None,225.8526499999998,None,227.48129685999984,None,227.48129685999984,None,227.48129685999984,None,,,,,,,,,,,215,20,Female,2022-05-11_16h50.32.711,Main,2022.1.1,60.09405922144996,
negative,negative,2,j,l,,,,,,,,,1,16,34,9,,,,,,,,,,,,,,,,,,,,,,,,main,1,1,2,negative,negative,l,l,1,0.7425437000001693,227.50205039999992,228.51924469999994,228.48275429999967,None,227.50205039999992,None,227.50205039999992,None,227.50205039999992,None,229.22710365999993,None,229.22710365999993,None,229.22710365999993,None,,,,,,,,,,,215,20,Female,2022-05-11_16h50.32.711,Main,2022.1.1,60.09405922144996,
positive,positive,2,l,j,,,,,,,,,1,17,35,11,,,,,,,,,,,,,,,,,,,,,,,,main,1,1,2,positive,positive,j,j,1,0.7323013999998693,229.24672949999967,230.25471070000003,230.2371863999997,None,229.24672949999967,None,229.24672949999967,None,229.24672949999967,None,230.9620604599999,None,230.9620604599999,None,230.9620604599999,None,,,,,,,,,,,215,20,Female,2022-05-11_16h50.32.711,Main,2022.1.1,60.09405922144996,
positive,neutral,2,l,j,,,,,,,,,2,0,36,17,,,,,,,,,,,,,,,,,,,,,,,,main,2,2,2,neutral,positive,j,j,1,0.5938931999999113,230.98080200000004,231.9967475999997,231.95895119999977,None,230.98080200000004,None,230.98080200000004,None,230.98080200000004,None,232.55656936000005,None,232.55656936000005,None,232.55656936000005,None,,,,,,,,,,,215,20,Female,2022-05-11_16h50.32.711,Main,2022.1.1,60.09405922144996,
neutral,negative,2,k,k,,,,,,,,,2,1,37,16,,,,,,,,,,,,,,,,,,,,,,,,main,2,2,2,negative,neutral,k,k,1,0.6688070000000153,232.5764497,233.59413019999965,233.55802390000008,None,232.5764497,None,232.5764497,None,232.5764497,None,234.2300824600001,None,234.2300824600001,None,234.2300824600001,None,,,,,,,,,,,215,20,Female,2022-05-11_16h50.32.711,Main,2022.1.1,60.09405922144996,
positive,positive,2,l,j,,,,,,,,,2,2,38,11,,,,,,,,,,,,,,,,,,,,,,,,main,2,2,2,positive,positive,j,j,1,0.7658043999999791,234.25158349999992,235.25286329999972,235.23432980000007,None,234.25158349999992,None,234.25158349999992,None,234.25158349999992,None,235.99801616000005,None,235.99801616000005,None,235.99801616000005,None,,,,,,,,,,,215,20,Female,2022-05-11_16h50.32.711,Main,2022.1.1,60.09405922144996,
neutral,positive,2,k,k,,,,,,,,,2,3,39,13,,,,,,,,,,,,,,,,,,,,,,,,main,1,1,2,positive,neutral,k,k,1,0.8429035000003751,236.01742009999998,237.0290700999999,236.99237369999992,None,236.01742009999998,None,236.01742009999998,None,236.01742009999998,None,237.8421915600001,None,237.8421915600001,None,237.8421915600001,None,,,,,,,,,,,215,20,Female,2022-05-11_16h50.32.711,Main,2022.1.1,60.09405922144996,
positive,negative,1,l,j,,,,,,,,,2,4,40,5,,,,,,,,,,,,,,,,,,,,,,,,main,2,2,1,negative,positive,j,j,1,0.6847512999997889,237.8666591000001,238.87659749999966,238.83997629999976,None,237.8666591000001,None,237.8666591000001,None,237.8666591000001,None,239.53187385999982,None,239.53187385999982,None,239.53187385999982,None,,,,,,,,,,,215,20,Female,2022-05-11_16h50.32.711,Main,2022.1.1,60.09405922144996,
positive,positive,1,l,j,,,,,,,,,2,5,41,2,,,,,,,,,,,,,,,,,,,,,,,,main,1,1,1,positive,positive,j,j,1,0.6254903000003651,239.55134550000002,240.5611039999999,240.52351210000006,None,239.55134550000002,None,239.55134550000002,None,239.55134550000002,None,241.16130126,None,241.16130126,None,241.16130126,None,,,,,,,,,,,215,20,Female,2022-05-11_16h50.32.711,Main,2022.1.1,60.09405922144996,
positive,neutral,1,l,j,,,,,,,,,2,6,42,8,,,,,,,,,,,,,,,,,,,,,,,,main,2,2,1,neutral,positive,j,j,1,0.572733800000151,241.18097639999996,242.19286199999988,242.15509139999995,None,241.18097639999996,None,241.18097639999996,None,241.18097639999996,None,242.73529296000007,None,242.73529296000007,None,242.73529296000007,None,,,,,,,,,,,215,20,Female,2022-05-11_16h50.32.711,Main,2022.1.1,60.09405922144996,
negative,neutral,2,j,l,,,,,,,,,2,7,43,12,,,,,,,,,,,,,,,,,,,,,,,,main,2,2,2,neutral,negative,l,l,1,0.836640499999703,242.75786629999993,243.77541059999976,243.7391662,None,242.75786629999993,None,242.75786629999993,None,242.75786629999993,None,244.57723075999994,None,244.57723075999994,None,244.57723075999994,None,,,,,,,,,,,215,20,Female,2022-05-11_16h50.32.711,Main,2022.1.1,60.09405922144996,
negative,neutral,1,j,l,,,,,,,,,2,8,44,3,,,,,,,,,,,,,,,,,,,,,,,,main,2,2,1,neutral,negative,l,l,1,0.8332712000001266,244.59593229999973,245.60610469999983,245.56908309999972,None,244.59593229999973,None,244.59593229999973,None,244.59593229999973,None,246.41311566000005,None,246.41311566000005,None,246.41311566000005,None,,,,,,,,,,,215,20,Female,2022-05-11_16h50.32.711,Main,2022.1.1,60.09405922144996,
negative,negative,1,j,l,,,,,,,,,2,9,45,0,,,,,,,,,,,,,,,,,,,,,,,,main,1,1,1,negative,negative,l,l,1,0.6437942000002295,246.4328900999999,247.43453610000006,247.4158352999998,None,246.4328900999999,None,246.4328900999999,None,246.4328900999999,None,248.05939475999995,None,248.05939475999995,None,248.05939475999995,None,,,,,,,,,,,215,20,Female,2022-05-11_16h50.32.711,Main,2022.1.1,60.09405922144996,
negative,negative,2,j,l,,,,,,,,,2,10,46,9,,,,,,,,,,,,,,,,,,,,,,,,main,1,1,2,negative,negative,l,l,1,0.6433808000001591,248.0792391,249.08750109999983,249.06902749999972,None,248.0792391,None,248.0792391,None,248.0792391,None,249.7028885599997,None,249.7028885599997,None,249.7028885599997,None,,,,,,,,,,,215,20,Female,2022-05-11_16h50.32.711,Main,2022.1.1,60.09405922144996,
neutral,neutral,1,k,k,,,,,,,,,2,11,47,1,,,,,,,,,,,,,,,,,,,,,,,,main,1,1,1,neutral,neutral,k,k,1,0.9375183999995897,249.7225338999997,250.73192960000006,250.71338639999976,None,249.7225338999997,None,249.7225338999997,None,249.7225338999997,None,251.64529375999965,None,251.64529375999965,None,251.64529375999965,None,,,,,,,,,,,215,20,Female,2022-05-11_16h50.32.711,Main,2022.1.1,60.09405922144996,
positive,negative,2,l,j,,,,,,,,,2,12,48,14,,,,,,,,,,,,,,,,,,,,,,,,main,2,2,2,negative,positive,j,j,1,0.7608292999998412,251.6671505999998,252.67311949999976,252.65302079999992,None,251.6671505999998,None,251.6671505999998,None,251.6671505999998,None,253.40911636,None,253.40911636,None,253.40911636,None,,,,,,,,,,,215,20,Female,2022-05-11_16h50.32.711,Main,2022.1.1,60.09405922144996,
negative,positive,2,j,l,,,,,,,,,2,13,49,15,,,,,,,,,,,,,,,,,,,,,,,,main,1,1,2,positive,negative,l,l,1,0.7907185999997637,253.4307531999998,254.43459299999995,254.41594639999994,None,253.4307531999998,None,253.4307531999998,None,253.4307531999998,None,255.20055335999987,None,255.20055335999987,None,255.20055335999987,None,,,,,,,,,,,215,20,Female,2022-05-11_16h50.32.711,Main,2022.1.1,60.09405922144996,
neutral,neutral,2,k,k,,,,,,,,,2,14,50,10,,,,,,,,,,,,,,,,,,,,,,,,main,2,2,2,neutral,neutral,k,k,1,0.7370321999997032,255.219474,256.2314827,256.19377889999987,None,255.219474,None,255.219474,None,255.219474,None,256.93903225999964,None,256.93903225999964,None,256.93903225999964,None,,,,,,,,,,,215,20,Female,2022-05-11_16h50.32.711,Main,2022.1.1,60.09405922144996,
negative,positive,1,j,l,,,,,,,,,2,15,51,6,,,,,,,,,,,,,,,,,,,,,,,,main,2,2,1,positive,negative,l,l,1,1.244106599999668,256.96357179999995,257.9741592999999,257.93581319999976,None,256.96357179999995,None,256.96357179999995,None,256.96357179999995,None,259.1861156599997,None,259.1861156599997,None,259.1861156599997,None,,,,,,,,,,,215,20,Female,2022-05-11_16h50.32.711,Main,2022.1.1,60.09405922144996,
neutral,negative,1,k,k,,,,,,,,,2,16,52,7,,,,,,,,,,,,,,,,,,,,,,,,main,2,2,1,negative,neutral,k,k,1,0.7165847000001122,259.2058638999997,260.2179020999997,260.1810080999999,None,259.2058638999997,None,259.2058638999997,None,259.2058638999997,None,260.9053677599999,None,260.9053677599999,None,260.9053677599999,None,,,,,,,,,,,215,20,Female,2022-05-11_16h50.32.711,Main,2022.1.1,60.09405922144996,
neutral,positive,1,k,k,,,,,,,,,2,17,53,4,,,,,,,,,,,,,,,,,,,,,,,,main,1,1,1,positive,neutral,k,k,1,0.7350403999998889,260.9250649999999,261.93878229999973,261.9023468999999,None,260.9250649999999,None,260.9250649999999,None,260.9250649999999,None,262.6449251599996,None,262.6449251599996,None,262.6449251599996,None,,,,,,,,,,,215,20,Female,2022-05-11_16h50.32.711,Main,2022.1.1,60.09405922144996,
negative,neutral,1,j,l,,,,,,,,,3,0,54,3,,,,,,,,,,,,,,,,,,,,,,,,main,2,2,1,neutral,negative,l,l,1,0.7494021000002249,262.6644484999997,263.6704544999998,263.65069189999986,None,262.6644484999997,None,262.6644484999997,None,262.6644484999997,None,264.3967993599998,None,264.3967993599998,None,264.3967993599998,None,,,,,,,,,,,215,20,Female,2022-05-11_16h50.32.711,Main,2022.1.1,60.09405922144996,
negative,positive,2,j,l,,,,,,,,,3,1,55,15,,,,,,,,,,,,,,,,,,,,,,,,main,2,2,2,positive,negative,l,l,1,0.7241879000002882,264.4169148000001,265.4223916000001,265.40325459999985,None,264.4169148000001,None,264.4169148000001,None,264.4169148000001,None,266.12540155999966,None,266.12540155999966,None,266.12540155999966,None,,,,,,,,,,,215,20,Female,2022-05-11_16h50.32.711,Main,2022.1.1,60.09405922144996,
neutral,neutral,2,k,k,,,,,,,,,3,2,56,10,,,,,,,,,,,,,,,,,,,,,,,,main,1,1,2,neutral,neutral,k,k,1,0.7103789000002507,266.1466461,267.1555767,267.13731129999996,None,266.1466461,None,266.1466461,None,266.1466461,None,267.83749565999995,None,267.83749565999995,None,267.83749565999995,None,,,,,,,,,,,215,20,Female,2022-05-11_16h50.32.711,Main,2022.1.1,60.09405922144996,
neutral,positive,2,k,k,,,,,,,,,3,3,57,13,,,,,,,,,,,,,,,,,,,,,,,,main,1,1,2,positive,neutral,k,k,1,0.6413244999998824,267.85731940000005,268.86716979999983,268.84883919999993,None,267.85731940000005,None,267.85731940000005,None,267.85731940000005,None,269.48191185999974,None,269.48191185999974,None,269.48191185999974,None,,,,,,,,,,,215,20,Female,2022-05-11_16h50.32.711,Main,2022.1.1,60.09405922144996,
negative,neutral,2,j,l,,,,,,,,,3,4,58,12,,,,,,,,,,,,,,,,,,,,,,,,main,1,1,2,neutral,negative,l,l,1,0.637603399999989,269.5014210999998,270.5042562999997,270.4858168999999,None,269.5014210999998,None,269.5014210999998,None,269.5014210999998,None,271.12144105999994,None,271.12144105999994,None,271.12144105999994,None,,,,,,,,,,,215,20,Female,2022-05-11_16h50.32.711,Main,2022.1.1,60.09405922144996,
neutral,neutral,1,k,k,,,,,,,,,3,5,59,1,,,,,,,,,,,,,,,,,,,,,,,,main,1,1,1,neutral,neutral,k,k,1,0.6820700999996916,271.1414713999998,272.15560099999993,272.11905639999986,None,271.1414713999998,None,271.1414713999998,None,271.1414713999998,None,272.80793996,None,272.80793996,None,272.80793996,None,,,,,,,,,,,215,20,Female,2022-05-11_16h50.32.711,Main,2022.1.1,60.09405922144996,
positive,negative,2,l,j,,,,,,,,,3,6,60,14,,,,,,,,,,,,,,,,,,,,,,,,main,1,1,2,negative,positive,j,j,1,0.7960186999998768,272.8270907000001,273.83423939999966,273.8161808,None,272.8270907000001,None,272.8270907000001,None,272.8270907000001,None,274.6068997599999,None,274.6068997599999,None,274.6068997599999,None,,,,,,,,,,,215,20,Female,2022-05-11_16h50.32.711,Main,2022.1.1,60.09405922144996,
positive,neutral,2,l,j,,,,,,,,,3,7,61,17,,,,,,,,,,,,,,,,,,,,,,,,main,1,1,2,neutral,positive,j,j,1,0.5790536000004067,274.6270058,275.62780380000004,275.60952849999967,None,274.6270058,None,274.6270058,None,274.6270058,None,276.18801675999964,None,276.18801675999964,None,276.18801675999964,None,,,,,,,,,,,215,20,Female,2022-05-11_16h50.32.711,Main,2022.1.1,60.09405922144996,
neutral,negative,2,k,k,,,,,,,,,3,8,62,16,,,,,,,,,,,,,,,,,,,,,,,,main,1,1,2,negative,neutral,k,k,1,0.6950683000000026,276.2069289000001,277.2217410999997,277.1849420999997,None,276.2069289000001,None,276.2069289000001,None,276.2069289000001,None,277.88388885999973,None,277.88388885999973,None,277.88388885999973,None,,,,,,,,,,,215,20,Female,2022-05-11_16h50.32.711,Main,2022.1.1,60.09405922144996,
negative,negative,1,j,l,,,,,,,,,3,9,63,0,,,,,,,,,,,,,,,,,,,,,,,,main,1,1,1,negative,negative,l,l,1,0.6176990999997543,277.90855139999985,278.91392419999966,278.8765070999998,None,277.90855139999985,None,277.90855139999985,None,277.90855139999985,None,279.5054217599999,None,279.5054217599999,None,279.5054217599999,None,,,,,,,,,,,215,20,Female,2022-05-11_16h50.32.711,Main,2022.1.1,60.09405922144996,
positive,positive,1,l,j,,,,,,,,,3,10,64,2,,,,,,,,,,,,,,,,,,,,,,,,main,1,1,1,positive,positive,j,j,1,0.6825159999998505,279.52551730000005,280.5285171999999,280.5097043999999,None,279.52551730000005,None,279.52551730000005,None,279.52551730000005,None,281.1910121599998,None,281.1910121599998,None,281.1910121599998,None,,,,,,,,,,,215,20,Female,2022-05-11_16h50.32.711,Main,2022.1.1,60.09405922144996,
negative,negative,2,j,l,,,,,,,,,3,11,65,9,,,,,,,,,,,,,,,,,,,,,,,,main,1,1,2,negative,negative,l,l,1,0.7169475999999122,281.2094234000001,282.2241819999999,282.18684099999973,None,281.2094234000001,None,281.2094234000001,None,281.2094234000001,None,282.90992275999986,None,282.90992275999986,None,282.90992275999986,None,,,,,,,,,,,215,20,Female,2022-05-11_16h50.32.711,Main,2022.1.1,60.09405922144996,
positive,negative,1,l,j,,,,,,,,,3,12,66,5,,,,,,,,,,,,,,,,,,,,,,,,main,2,2,1,negative,positive,j,j,1,0.7339941000000181,282.93030180000005,283.93189889999985,283.9139574999999,None,282.93030180000005,None,282.93030180000005,None,282.93030180000005,None,284.64682746000005,None,284.64682746000005,None,284.64682746000005,None,,,,,,,,,,,215,20,Female,2022-05-11_16h50.32.711,Main,2022.1.1,60.09405922144996,
neutral,positive,1,k,k,,,,,,,,,3,13,67,4,,,,,,,,,,,,,,,,,,,,,,,,main,1,1,1,positive,neutral,k,k,1,0.7045929999999316,284.66716039999983,285.6901659,285.6434469000001,None,284.66716039999983,None,284.66716039999983,None,284.66716039999983,None,286.35564755999974,None,286.35564755999974,None,286.35564755999974,None,,,,,,,,,,,215,20,Female,2022-05-11_16h50.32.711,Main,2022.1.1,60.09405922144996,
positive,positive,2,l,j,,,,,,,,,3,14,68,11,,,,,,,,,,,,,,,,,,,,,,,,main,2,2,2,positive,positive,j,j,1,0.679283999999825,286.37388770000007,287.3784295999999,287.3599317999997,None,286.37388770000007,None,286.37388770000007,None,286.37388770000007,None,288.03543045999993,None,288.03543045999993,None,288.03543045999993,None,,,,,,,,,,,215,20,Female,2022-05-11_16h50.32.711,Main,2022.1.1,60.09405922144996,
positive,neutral,1,l,j,,,,,,,,,3,15,69,8,,,,,,,,,,,,,,,,,,,,,,,,main,2,2,1,neutral,positive,j,j,1,0.7873463000000811,288.05642369999987,289.06579250000004,289.02957530000003,None,288.05642369999987,None,288.05642369999987,None,288.05642369999987,None,289.82723376,None,289.82723376,None,289.82723376,None,,,,,,,,,,,215,20,Female,2022-05-11_16h50.32.711,Main,2022.1.1,60.09405922144996,
negative,positive,1,j,l,,,,,,,,,3,16,70,6,,,,,,,,,,,,,,,,,,,,,,,,main,1,1,1,positive,negative,l,l,1,0.75671310000007,289.8471436,290.86054379999996,290.82297819999985,None,289.8471436,None,289.8471436,None,289.8471436,None,291.58822045999966,None,291.58822045999966,None,291.58822045999966,None,,,,,,,,,,,215,20,Female,2022-05-11_16h50.32.711,Main,2022.1.1,60.09405922144996,
neutral,negative,1,k,k,,,,,,,,,3,17,71,7,,,,,,,,,,,,,,,,,,,,,,,,main,2,2,1,negative,neutral,k,k,1,0.745331300000089,291.60854870000003,292.60989819999986,292.5913501,None,291.60854870000003,None,291.60854870000003,None,291.60854870000003,None,293.3341824599996,None,293.3341824599996,None,293.3341824599996,None,,,,,,,,,,,215,20,Female,2022-05-11_16h50.32.711,Main,2022.1.1,60.09405922144996,
neutral,neutral,2,k,k,,,,,,,,,4,0,72,10,,,,,,,,,,,,,,,,,,,,,,,,main,2,2,2,neutral,neutral,k,k,1,0.6422990999999456,293.35436869999967,294.3623883,294.3440283,None,293.35436869999967,None,293.35436869999967,None,293.35436869999967,None,294.97898245999966,None,294.97898245999966,None,294.97898245999966,None,,,,,,,,,,,215,20,Female,2022-05-11_16h50.32.711,Main,2022.1.1,60.09405922144996,
negative,neutral,1,j,l,,,,,,,,,4,1,73,3,,,,,,,,,,,,,,,,,,,,,,,,main,1,1,1,neutral,negative,l,l,1,0.7911106999999902,294.9991055999999,296.01672789999975,295.97953789999974,None,294.9991055999999,None,294.9991055999999,None,294.9991055999999,None,296.77452875999995,None,296.77452875999995,None,296.77452875999995,None,,,,,,,,,,,215,20,Female,2022-05-11_16h50.32.711,Main,2022.1.1,60.09405922144996,
positive,negative,1,l,j,,,,,,,,,4,2,74,5,,,,,,,,,,,,,,,,,,,,,,,,main,1,1,1,negative,positive,j,j,1,0.9063916000000063,296.795349,297.8052201999999,297.78646279999975,None,296.795349,None,296.795349,None,296.795349,None,298.68208625999966,None,298.68208625999966,None,298.68208625999966,None,,,,,,,,,,,215,20,Female,2022-05-11_16h50.32.711,Main,2022.1.1,60.09405922144996,
negative,negative,1,j,l,,,,,,,,,4,3,75,0,,,,,,,,,,,,,,,,,,,,,,,,main,1,1,1,negative,negative,l,l,1,0.7583080999997946,298.70293300000003,299.7238580999997,299.6852017000001,None,298.70293300000003,None,298.70293300000003,None,298.70293300000003,None,300.44405535999965,None,300.44405535999965,None,300.44405535999965,None,,,,,,,,,,,215,20,Female,2022-05-11_16h50.32.711,Main,2022.1.1,60.09405922144996,
positive,positive,1,l,j,,,,,,,,,4,4,76,2,,,,,,,,,,,,,,,,,,,,,,,,main,2,2,1,positive,positive,j,j,1,0.6618306000000302,300.46402009999974,301.47122469999977,301.4514350999998,None,300.46402009999974,None,300.46402009999974,None,300.46402009999974,None,302.1094515599997,None,302.1094515599997,None,302.1094515599997,None,,,,,,,,,,,215,20,Female,2022-05-11_16h50.32.711,Main,2022.1.1,60.09405922144996,
negative,positive,1,j,l,,,,,,,,,4,5,77,6,,,,,,,,,,,,,,,,,,,,,,,,main,1,1,1,positive,negative,l,l,1,0.6684559000000263,302.12963790000003,303.1450182999997,303.10595269999976,None,302.12963790000003,None,302.12963790000003,None,302.12963790000003,None,303.78026325999997,None,303.78026325999997,None,303.78026325999997,None,,,,,,,,,,,215,20,Female,2022-05-11_16h50.32.711,Main,2022.1.1,60.09405922144996,
positive,positive,2,l,j,,,,,,,,,4,6,78,11,,,,,,,,,,,,,,,,,,,,,,,,main,2,2,2,positive,positive,j,j,1,0.7030227000000195,303.8005235999999,304.8163727000001,304.77900150000005,None,303.8005235999999,None,303.8005235999999,None,303.8005235999999,None,305.48796566,None,305.48796566,None,305.48796566,None,,,,,,,,,,,215,20,Female,2022-05-11_16h50.32.711,Main,2022.1.1,60.09405922144996,
neutral,positive,1,k,k,,,,,,,,,4,7,79,4,,,,,,,,,,,,,,,,,,,,,,,,main,1,1,1,positive,neutral,k,k,1,0.8002636000001075,305.5078496000001,306.5267184999998,306.4890476999999,None,305.5078496000001,None,305.5078496000001,None,305.5078496000001,None,307.29036085999985,None,307.29036085999985,None,307.29036085999985,None,,,,,,,,,,,215,20,Female,2022-05-11_16h50.32.711,Main,2022.1.1,60.09405922144996,
negative,negative,2,j,l,,,,,,,,,4,8,80,9,,,,,,,,,,,,,,,,,,,,,,,,main,1,1,2,negative,negative,l,l,1,0.6763160000000425,307.30988389999993,308.3220274,308.28252859999975,None,307.30988389999993,None,307.30988389999993,None,307.30988389999993,None,308.97108066,None,308.97108066,None,308.97108066,None,,,,,,,,,,,215,20,Female,2022-05-11_16h50.32.711,Main,2022.1.1,60.09405922144996,
neutral,positive,2,k,k,,,,,,,,,4,9,81,13,,,,,,,,,,,,,,,,,,,,,,,,main,1,1,2,positive,neutral,k,k,1,0.7837390999998206,308.9907138999997,309.99603690000004,309.9771731000001,None,308.9907138999997,None,308.9907138999997,None,308.9907138999997,None,310.75744316,None,310.75744316,None,310.75744316,None,,,,,,,,,,,215,20,Female,2022-05-11_16h50.32.711,Main,2022.1.1,60.09405922144996,
negative,neutral,2,j,l,,,,,,,,,4,10,82,12,,,,,,,,,,,,,,,,,,,,,,,,main,2,2,2,neutral,negative,l,l,1,0.6689222999998492,310.7797975999997,311.7931768999997,311.75633070000003,None,310.7797975999997,None,310.7797975999997,None,310.7797975999997,None,312.42742185999975,None,312.42742185999975,None,312.42742185999975,None,,,,,,,,,,,215,20,Female,2022-05-11_16h50.32.711,Main,2022.1.1,60.09405922144996,
positive,negative,2,l,j,,,,,,,,,4,11,83,14,,,,,,,,,,,,,,,,,,,,,,,,main,2,2,2,negative,positive,j,j,1,0.6589429000000564,312.44895670000005,313.4531443999999,313.4334758,None,312.44895670000005,None,312.44895670000005,None,312.44895670000005,None,314.0913431599996,None,314.0913431599996,None,314.0913431599996,None,,,,,,,,,,,215,20,Female,2022-05-11_16h50.32.711,Main,2022.1.1,60.09405922144996,
positive,neutral,2,l,j,,,,,,,,,4,12,84,17,,,,,,,,,,,,,,,,,,,,,,,,main,2,2,2,neutral,positive,j,j,1,0.7559607999996842,314.11110389999976,315.11983299999974,315.0998771999998,None,314.11110389999976,None,314.11110389999976,None,314.11110389999976,None,315.8510338599998,None,315.8510338599998,None,315.8510338599998,None,,,,,,,,,,,215,20,Female,2022-05-11_16h50.32.711,Main,2022.1.1,60.09405922144996,
negative,positive,2,j,l,,,,,,,,,4,13,85,15,,,,,,,,,,,,,,,,,,,,,,,,main,1,1,2,positive,negative,l,l,1,0.6764336999999614,315.87068759999966,316.8859416,316.84832830000005,None,315.87068759999966,None,315.87068759999966,None,315.87068759999966,None,317.5282169599999,None,317.5282169599999,None,317.5282169599999,None,,,,,,,,,,,215,20,Female,2022-05-11_16h50.32.711,Main,2022.1.1,60.09405922144996,
neutral,negative,1,k,k,,,,,,,,,4,14,86,7,,,,,,,,,,,,,,,,,,,,,,,,main,1,1,1,negative,neutral,k,k,1,1.5610121999998228,317.5482520999999,318.5631506999998,318.5264110999997,None,317.5482520999999,None,317.5482520999999,None,317.5482520999999,None,320.1026870999999,None,320.1026870999999,None,320.1026870999999,None,,,,,,,,,,,215,20,Female,2022-05-11_16h50.32.711,Main,2022.1.1,60.09405922144996,
positive,neutral,1,l,j,,,,,,,,,4,15,87,8,,,,,,,,,,,,,,,,,,,,,,,,main,2,2,1,neutral,positive,j,j,1,0.7013777000001937,321.1125133999999,322.1256521,322.10713689999966,None,321.1125133999999,None,321.1125133999999,None,321.1125133999999,None,322.7949496599998,None,322.7949496599998,None,322.7949496599998,None,,,,,,,,,,,215,20,Female,2022-05-11_16h50.32.711,Main,2022.1.1,60.09405922144996,
neutral,neutral,1,k,k,,,,,,,,,4,16,88,1,,,,,,,,,,,,,,,,,,,,,,,,main,2,2,1,neutral,neutral,k,k,1,0.6194074,322.81456819999994,323.8313186999999,323.79442149999977,None,322.81456819999994,None,322.81456819999994,None,322.81456819999994,None,324.41920695999977,None,324.41920695999977,None,324.41920695999977,None,,,,,,,,,,,215,20,Female,2022-05-11_16h50.32.711,Main,2022.1.1,60.09405922144996,
neutral,negative,2,k,k,,,,,,,,,4,17,89,16,,,,,,,,,,,,,,,,,,,,,,,,main,2,2,2,negative,neutral,k,k,1,0.7547755000000507,324.43903980000005,325.4453155000001,325.42715569999973,None,324.43903980000005,None,324.43903980000005,None,324.43903980000005,None,326.17509045999975,None,326.17509045999975,None,326.17509045999975,None,,,,,,,,,,,215,20,Female,2022-05-11_16h50.32.711,Main,2022.1.1,60.09405922144996,
positive,negative,1,l,j,,,,,,,,,5,0,90,5,,,,,,,,,,,,,,,,,,,,,,,,main,2,2,1,negative,positive,j,j,1,0.8008469999999761,326.1966957999998,327.20888579999973,327.1722001999997,None,326.1966957999998,None,326.1966957999998,None,326.1966957999998,None,327.97822975999986,None,327.97822975999986,None,327.97822975999986,None,,,,,,,,,,,215,20,Female,2022-05-11_16h50.32.711,Main,2022.1.1,60.09405922144996,
neutral,positive,1,k,k,,,,,,,,,5,1,91,4,,,,,,,,,,,,,,,,,,,,,,,,main,2,2,1,positive,neutral,k,k,1,0.7236876000001757,327.9988441999999,329.0135597999997,328.97726809999995,None,327.9988441999999,None,327.9988441999999,None,327.9988441999999,None,329.7063397599999,None,329.7063397599999,None,329.7063397599999,None,,,,,,,,,,,215,20,Female,2022-05-11_16h50.32.711,Main,2022.1.1,60.09405922144996,
negative,negative,1,j,l,,,,,,,,,5,2,92,0,,,,,,,,,,,,,,,,,,,,,,,,main,2,2,1,negative,negative,l,l,1,0.6930253999998968,329.7267800999998,330.7469097999997,330.7088208,None,329.7267800999998,None,329.7267800999998,None,329.7267800999998,None,331.4017554599999,None,331.4017554599999,None,331.4017554599999,None,,,,,,,,,,,215,20,Female,2022-05-11_16h50.32.711,Main,2022.1.1,60.09405922144996,
positive,positive,2,l,j,,,,,,,,,5,3,93,11,,,,,,,,,,,,,,,,,,,,,,,,main,2,2,2,positive,positive,j,j,1,0.7978511999999682,331.4236090999998,332.42877799999997,332.4104070999997,None,331.4236090999998,None,331.4236090999998,None,331.4236090999998,None,333.20501206000006,None,333.20501206000006,None,333.20501206000006,None,,,,,,,,,,,215,20,Female,2022-05-11_16h50.32.711,Main,2022.1.1,60.09405922144996,
negative,positive,2,j,l,,,,,,,,,5,4,94,15,,,,,,,,,,,,,,,,,,,,,,,,main,2,2,2,positive,negative,l,l,1,0.7051719000000958,333.2249726,334.24248629999965,334.2056620999997,None,333.2249726,None,333.2249726,None,333.2249726,None,334.9130991599999,None,334.9130991599999,None,334.9130991599999,None,,,,,,,,,,,215,20,Female,2022-05-11_16h50.32.711,Main,2022.1.1,60.09405922144996,
neutral,negative,1,k,k,,,,,,,,,5,5,95,7,,,,,,,,,,,,,,,,,,,,,,,,main,2,2,1,negative,neutral,k,k,1,0.6986300999997184,334.93421609999996,335.944739,335.9082049999997,None,334.93421609999996,None,334.93421609999996,None,334.93421609999996,None,336.61431605999985,None,336.61431605999985,None,336.61431605999985,None,,,,,,,,,,,215,20,Female,2022-05-11_16h50.32.711,Main,2022.1.1,60.09405922144996,
positive,neutral,2,l,j,,,,,,,,,5,6,96,17,,,,,,,,,,,,,,,,,,,,,,,,main,1,1,2,neutral,positive,j,j,1,0.7609679000001961,336.6357407999999,337.64445320000004,337.626209,None,336.6357407999999,None,336.6357407999999,None,336.6357407999999,None,338.37814855999966,None,338.37814855999966,None,338.37814855999966,None,,,,,,,,,,,215,20,Female,2022-05-11_16h50.32.711,Main,2022.1.1,60.09405922144996,
negative,neutral,1,j,l,,,,,,,,,5,7,97,3,,,,,,,,,,,,,,,,,,,,,,,,main,2,2,1,neutral,negative,l,l,1,0.7954152000002068,338.4009424000001,339.4112706000001,339.3745423999999,None,338.4009424000001,None,338.4009424000001,None,338.4009424000001,None,340.17416275999983,None,340.17416275999983,None,340.17416275999983,None,,,,,,,,,,,215,20,Female,2022-05-11_16h50.32.711,Main,2022.1.1,60.09405922144996,
negative,negative,2,j,l,,,,,,,,,5,8,98,9,,,,,,,,,,,,,,,,,,,,,,,,main,1,1,2,negative,negative,l,l,1,0.7474664999999732,340.1961646999998,341.2100056999998,341.17211240000006,None,340.1961646999998,None,340.1961646999998,None,340.1961646999998,None,341.92609596,None,341.92609596,None,341.92609596,None,,,,,,,,,,,215,20,Female,2022-05-11_16h50.32.711,Main,2022.1.1,60.09405922144996,
neutral,negative,2,k,k,,,,,,,,,5,9,99,16,,,,,,,,,,,,,,,,,,,,,,,,main,1,1,2,negative,neutral,k,k,1,0.7814990000001671,341.9446122999998,342.94654649999984,342.92818910000005,None,341.9446122999998,None,341.9446122999998,None,341.9446122999998,None,343.70887975999983,None,343.70887975999983,None,343.70887975999983,None,,,,,,,,,,,215,20,Female,2022-05-11_16h50.32.711,Main,2022.1.1,60.09405922144996,
neutral,neutral,1,k,k,,,,,,,,,5,10,100,1,,,,,,,,,,,,,,,,,,,,,,,,main,2,2,1,neutral,neutral,k,k,1,0.6341199000003144,343.7298848999999,344.74869420000005,344.70937049999975,None,343.7298848999999,None,343.7298848999999,None,343.7298848999999,None,345.34796705999986,None,345.34796705999986,None,345.34796705999986,None,,,,,,,,,,,215,20,Female,2022-05-11_16h50.32.711,Main,2022.1.1,60.09405922144996,
positive,negative,2,l,j,,,,,,,,,5,11,101,14,,,,,,,,,,,,,,,,,,,,,,,,main,2,2,2,negative,positive,j,j,1,1.0430787999998756,345.3675814999997,346.3808184999998,346.34329879999996,None,345.3675814999997,None,345.3675814999997,None,345.3675814999997,None,347.3911558599997,None,347.3911558599997,None,347.3911558599997,None,,,,,,,,,,,215,20,Female,2022-05-11_16h50.32.711,Main,2022.1.1,60.09405922144996,
negative,neutral,2,j,l,,,,,,,,,5,12,102,12,,,,,,,,,,,,,,,,,,,,,,,,main,1,1,2,neutral,negative,l,l,1,0.6616228000002593,347.4114878999999,348.42301659999976,348.3867611999999,None,347.4114878999999,None,347.4114878999999,None,347.4114878999999,None,349.0556703599999,None,349.0556703599999,None,349.0556703599999,None,,,,,,,,,,,215,20,Female,2022-05-11_16h50.32.711,Main,2022.1.1,60.09405922144996,
positive,positive,1,l,j,,,,,,,,,5,13,103,2,,,,,,,,,,,,,,,,,,,,,,,,main,1,1,1,positive,positive,j,j,1,0.7318725000000086,349.0753577999999,350.0774177999997,350.0577705999999,None,349.0753577999999,None,349.0753577999999,None,349.0753577999999,None,350.78931035999983,None,350.78931035999983,None,350.78931035999983,None,,,,,,,,,,,215,20,Female,2022-05-11_16h50.32.711,Main,2022.1.1,60.09405922144996,
positive,neutral,1,l,j,,,,,,,,,5,14,104,8,,,,,,,,,,,,,,,,,,,,,,,,main,2,2,1,neutral,positive,j,j,1,0.7393446999999469,350.8151975999999,351.8200253,351.7995550999999,None,350.8151975999999,None,350.8151975999999,None,350.8151975999999,None,352.53282105999995,None,352.53282105999995,None,352.53282105999995,None,,,,,,,,,,,215,20,Female,2022-05-11_16h50.32.711,Main,2022.1.1,60.09405922144996,
neutral,positive,2,k,k,,,,,,,,,5,15,105,13,,,,,,,,,,,,,,,,,,,,,,,,main,2,2,2,positive,neutral,k,k,1,0.7923429000002216,352.5605972999997,353.5713046000001,353.55076959999997,None,352.5605972999997,None,352.5605972999997,None,352.5605972999997,None,354.3301517599997,None,354.3301517599997,None,354.3301517599997,None,,,,,,,,,,,215,20,Female,2022-05-11_16h50.32.711,Main,2022.1.1,60.09405922144996,
negative,positive,1,j,l,,,,,,,,,5,16,106,6,,,,,,,,,,,,,,,,,,,,,,,,main,2,2,1,positive,negative,l,l,1,0.7235129000000597,354.3566960999997,355.3621072000001,355.33973289999994,None,354.3566960999997,None,354.3566960999997,None,354.3566960999997,None,356.05389435999984,None,356.05389435999984,None,356.05389435999984,None,,,,,,,,,,,215,20,Female,2022-05-11_16h50.32.711,Main,2022.1.1,60.09405922144996,
neutral,neutral,2,k,k,,,,,,,,,5,17,107,10,,,,,,,,,,,,,,,,,,,,,,,,main,1,1,2,neutral,neutral,k,k,1,0.7700517999996919,356.08070039999984,357.09958989999996,357.05839259999993,None,356.08070039999984,None,356.08070039999984,None,356.08070039999984,None,357.82516275999967,None,357.82516275999967,None,357.82516275999967,None,,,,,,,,,,,215,20,Female,2022-05-11_16h50.32.711,Main,2022.1.1,60.09405922144996,
neutral,negative,1,k,k,,,,,,,,,6,0,108,7,,,,,,,,,,,,,,,,,,,,,,,,main,2,2,1,negative,neutral,k,k,1,0.7248850000000857,357.8531674000001,358.86803770000006,358.8459334999998,None,357.8531674000001,None,357.8531674000001,None,357.8531674000001,None,359.55415566,None,359.55415566,None,359.55415566,None,,,,,,,,,,,215,20,Female,2022-05-11_16h50.32.711,Main,2022.1.1,60.09405922144996,
neutral,neutral,1,k,k,,,,,,,,,6,1,109,1,,,,,,,,,,,,,,,,,,,,,,,,main,2,2,1,neutral,neutral,k,k,1,0.6462799999999334,359.57895729999973,360.6003754999997,360.5574357999999,None,359.57895729999973,None,359.57895729999973,None,359.57895729999973,None,361.20305726000004,None,361.20305726000004,None,361.20305726000004,None,,,,,,,,,,,215,20,Female,2022-05-11_16h50.32.711,Main,2022.1.1,60.09405922144996,
neutral,negative,2,k,k,,,,,,,,,6,2,110,16,,,,,,,,,,,,,,,,,,,,,,,,main,2,2,2,negative,neutral,k,k,1,1.7999635000001035,361.2326930999998,362.25027329999966,362.2092561999998,None,361.2326930999998,None,361.2326930999998,None,361.2326930999998,None,364.01621529999966,None,364.01621529999966,None,364.01621529999966,None,,,,,,,,,,,215,20,Female,2022-05-11_16h50.32.711,Main,2022.1.1,60.09405922144996,
negative,neutral,2,j,l,,,,,,,,,6,3,111,12,,,,,,,,,,,,,,,,,,,,,,,,main,2,2,2,neutral,negative,l,l,1,0.8552937999997994,365.04536310000003,366.06317820000004,366.0420718999999,None,365.04536310000003,None,365.04536310000003,None,365.04536310000003,None,366.8773876599997,None,366.8773876599997,None,366.8773876599997,None,,,,,,,,,,,215,20,Female,2022-05-11_16h50.32.711,Main,2022.1.1,60.09405922144996,
positive,neutral,2,l,j,,,,,,,,,6,4,112,17,,,,,,,,,,,,,,,,,,,,,,,,main,1,1,2,neutral,positive,j,j,1,0.7620175000001836,366.9034975999998,367.9083400999998,367.8877941999999,None,366.9034975999998,None,366.9034975999998,None,366.9034975999998,None,368.64316715999973,None,368.64316715999973,None,368.64316715999973,None,,,,,,,,,,,215,20,Female,2022-05-11_16h50.32.711,Main,2022.1.1,60.09405922144996,
negative,neutral,1,j,l,,,,,,,,,6,5,113,3,,,,,,,,,,,,,,,,,,,,,,,,main,2,2,1,neutral,negative,l,l,1,0.7586421999999402,368.66819129999976,369.67415359999995,369.65361140000005,None,368.66819129999976,None,368.66819129999976,None,368.66819129999976,None,370.4007665599996,None,370.4007665599996,None,370.4007665599996,None,,,,,,,,,,,215,20,Female,2022-05-11_16h50.32.711,Main,2022.1.1,60.09405922144996,
neutral,neutral,2,k,k,,,,,,,,,6,6,114,10,,,,,,,,,,,,,,,,,,,,,,,,main,2,2,2,neutral,neutral,k,k,1,0.7352601000002323,370.4315974000001,371.4510101999999,371.40974789999973,None,370.4315974000001,None,370.4315974000001,None,370.4315974000001,None,372.14121865999994,None,372.14121865999994,None,372.14121865999994,None,,,,,,,,,,,215,20,Female,2022-05-11_16h50.32.711,Main,2022.1.1,60.09405922144996,
neutral,positive,1,k,k,,,,,,,,,6,7,115,4,,,,,,,,,,,,,,,,,,,,,,,,main,2,2,1,positive,neutral,k,k,1,0.6602252000002409,372.1660238999998,373.1721610999998,373.15162359999977,None,372.1660238999998,None,372.1660238999998,None,372.1660238999998,None,373.80487735999975,None,373.80487735999975,None,373.80487735999975,None,,,,,,,,,,,215,20,Female,2022-05-11_16h50.32.711,Main,2022.1.1,60.09405922144996,
positive,negative,1,l,j,,,,,,,,,6,8,116,5,,,,,,,,,,,,,,,,,,,,,,,,main,2,2,1,negative,positive,j,j,1,0.7110697000002801,373.83422459999974,374.8442497000001,374.8240867999998,None,373.83422459999974,None,373.83422459999974,None,373.83422459999974,None,375.51887376,None,375.51887376,None,375.51887376,None,,,,,,,,,,,215,20,Female,2022-05-11_16h50.32.711,Main,2022.1.1,60.09405922144996,
neutral,positive,2,k,k,,,,,,,,,6,9,117,13,,,,,,,,,,,,,,,,,,,,,,,,main,2,2,2,positive,neutral,k,k,1,0.768848700000035,375.5447850999999,376.5539251,376.5329701999999,None,375.5447850999999,None,375.5447850999999,None,375.5447850999999,None,377.2899619599997,None,377.2899619599997,None,377.2899619599997,None,,,,,,,,,,,215,20,Female,2022-05-11_16h50.32.711,Main,2022.1.1,60.09405922144996,
negative,negative,2,j,l,,,,,,,,,6,10,118,9,,,,,,,,,,,,,,,,,,,,,,,,main,2,2,2,negative,negative,l,l,1,0.748475899999903,377.3177495,378.3326211999997,378.31204209999987,None,377.3177495,None,377.3177495,None,377.3177495,None,379.0437465599997,None,379.0437465599997,None,379.0437465599997,None,,,,,,,,,,,215,20,Female,2022-05-11_16h50.32.711,Main,2022.1.1,60.09405922144996,
positive,neutral,1,l,j,,,,,,,,,6,11,119,8,,,,,,,,,,,,,,,,,,,,,,,,main,2,2,1,neutral,positive,j,j,1,0.7667557000004308,379.0697832999999,380.08067690000007,380.0599930999997,None,379.0697832999999,None,379.0697832999999,None,379.0697832999999,None,380.8137019599998,None,380.8137019599998,None,380.8137019599998,None,,,,,,,,,,,215,20,Female,2022-05-11_16h50.32.711,Main,2022.1.1,60.09405922144996,
positive,positive,1,l,j,,,,,,,,,6,12,120,2,,,,,,,,,,,,,,,,,,,,,,,,main,2,2,1,positive,positive,j,j,1,0.7728157999999894,380.83958170000005,381.85184679999975,381.8306614999997,None,380.83958170000005,None,380.83958170000005,None,380.83958170000005,None,382.59127686,None,382.59127686,None,382.59127686,None,,,,,,,,,,,215,20,Female,2022-05-11_16h50.32.711,Main,2022.1.1,60.09405922144996,
positive,negative,2,l,j,,,,,,,,,6,13,121,14,,,,,,,,,,,,,,,,,,,,,,,,main,2,2,2,negative,positive,j,j,1,0.758940100000018,382.61906610000005,383.62571309999976,383.60276079999994,None,382.61906610000005,None,382.61906610000005,None,382.61906610000005,None,384.3516995599997,None,384.3516995599997,None,384.3516995599997,None,,,,,,,,,,,215,20,Female,2022-05-11_16h50.32.711,Main,2022.1.1,60.09405922144996,
negative,negative,1,j,l,,,,,,,,,6,14,122,0,,,,,,,,,,,,,,,,,,,,,,,,main,1,1,1,negative,negative,l,l,1,0.7688987000001362,384.3730351999998,385.3799312000001,385.3587425999999,None,384.3730351999998,None,384.3730351999998,None,384.3730351999998,None,386.1246900599998,None,386.1246900599998,None,386.1246900599998,None,,,,,,,,,,,215,20,Female,2022-05-11_16h50.32.711,Main,2022.1.1,60.09405922144996,
negative,positive,2,j,l,,,,,,,,,6,15,123,15,,,,,,,,,,,,,,,,,,,,,,,,main,2,2,2,positive,negative,l,l,1,0.6923041999998532,386.1500489,387.17191019999973,387.1308380999999,None,386.1500489,None,386.1500489,None,386.1500489,None,387.81860485999994,None,387.81860485999994,None,387.81860485999994,None,,,,,,,,,,,215,20,Female,2022-05-11_16h50.32.711,Main,2022.1.1,60.09405922144996,
negative,positive,1,j,l,,,,,,,,,6,16,124,6,,,,,,,,,,,,,,,,,,,,,,,,main,2,2,1,positive,negative,l,l,1,0.6635526000000027,387.84360289999995,388.8607643999999,388.8401571999998,None,387.84360289999995,None,387.84360289999995,None,387.84360289999995,None,389.4841851599998,None,389.4841851599998,None,389.4841851599998,None,,,,,,,,,,,215,20,Female,2022-05-11_16h50.32.711,Main,2022.1.1,60.09405922144996,
positive,positive,2,l,j,,,,,,,,,6,17,125,11,,,,,,,,,,,,,,,,,,,,,,,,main,2,2,2,positive,positive,j,j,1,0.7509870999997474,389.5117683999997,390.5320287999998,390.48946320000005,None,389.5117683999997,None,389.5117683999997,None,389.5117683999997,None,391.24031785999966,None,391.24031785999966,None,391.24031785999966,None,,,,,,,,,,,215,20,Female,2022-05-11_16h50.32.711,Main,2022.1.1,60.09405922144996,
neutral,neutral,1,k,k,,,,,,,,,7,0,126,1,,,,,,,,,,,,,,,,,,,,,,,,main,2,2,1,neutral,neutral,k,k,1,0.5965728000001036,391.26678949999996,392.27644059999966,392.2546119999997,None,391.26678949999996,None,391.26678949999996,None,391.26678949999996,None,392.8385577599996,None,392.8385577599996,None,392.8385577599996,None,,,,,,,,,,,215,20,Female,2022-05-11_16h50.32.711,Main,2022.1.1,60.09405922144996,
negative,negative,1,j,l,,,,,,,,,7,1,127,0,,,,,,,,,,,,,,,,,,,,,,,,main,2,2,1,negative,negative,l,l,1,0.7783558999999514,392.8643041,393.87003830000003,393.8499625999998,None,392.8643041,None,392.8643041,None,392.8643041,None,394.6195710599999,None,394.6195710599999,None,394.6195710599999,None,,,,,,,,,,,215,20,Female,2022-05-11_16h50.32.711,Main,2022.1.1,60.09405922144996,
neutral,neutral,2,k,k,,,,,,,,,7,2,128,10,,,,,,,,,,,,,,,,,,,,,,,,main,2,2,2,neutral,neutral,k,k,1,0.6706178999997974,394.64467250000007,395.6689633000001,395.6270139999997,None,394.64467250000007,None,394.64467250000007,None,394.64467250000007,None,396.29564375999996,None,396.29564375999996,None,396.29564375999996,None,,,,,,,,,,,215,20,Female,2022-05-11_16h50.32.711,Main,2022.1.1,60.09405922144996,
positive,negative,1,l,j,,,,,,,,,7,3,129,5,,,,,,,,,,,,,,,,,,,,,,,,main,1,1,1,negative,positive,j,j,1,0.6872880999999325,396.3214767999998,397.3407354000001,397.29968959999997,None,396.3214767999998,None,396.3214767999998,None,396.3214767999998,None,397.98447185999964,None,397.98447185999964,None,397.98447185999964,None,,,,,,,,,,,215,20,Female,2022-05-11_16h50.32.711,Main,2022.1.1,60.09405922144996,
negative,neutral,1,j,l,,,,,,,,,7,4,130,3,,,,,,,,,,,,,,,,,,,,,,,,main,2,2,1,neutral,negative,l,l,1,0.769687100000283,398.01159499999994,399.0304289999999,399.0083936000001,None,398.01159499999994,None,398.01159499999994,None,398.01159499999994,None,399.7597850599999,None,399.7597850599999,None,399.7597850599999,None,,,,,,,,,,,215,20,Female,2022-05-11_16h50.32.711,Main,2022.1.1,60.09405922144996,
positive,positive,1,l,j,,,,,,,,,7,5,131,2,,,,,,,,,,,,,,,,,,,,,,,,main,1,1,1,positive,positive,j,j,1,0.943297000000257,399.7875018999998,400.7927267,400.77244489999975,None,399.7875018999998,None,399.7875018999998,None,399.7875018999998,None,401.7085784599998,None,401.7085784599998,None,401.7085784599998,None,,,,,,,,,,,215,20,Female,2022-05-11_16h50.32.711,Main,2022.1.1,60.09405922144996,
neutral,negative,1,k,k,,,,,,,,,7,6,132,7,,,,,,,,,,,,,,,,,,,,,,,,main,2,2,1,negative,neutral,k,k,1,0.7786478999996689,401.7349989999998,402.7413492999999,402.72033509999983,None,401.7349989999998,None,401.7349989999998,None,401.7349989999998,None,403.4897492599997,None,403.4897492599997,None,403.4897492599997,None,,,,,,,,,,,215,20,Female,2022-05-11_16h50.32.711,Main,2022.1.1,60.09405922144996,
neutral,negative,2,k,k,,,,,,,,,7,7,133,16,,,,,,,,,,,,,,,,,,,,,,,,main,1,1,2,negative,neutral,k,k,1,0.766216600000007,403.51920199999995,404.53499220000003,404.5154472999998,None,403.51920199999995,None,403.51920199999995,None,403.51920199999995,None,405.26275096000006,None,405.26275096000006,None,405.26275096000006,None,,,,,,,,,,,215,20,Female,2022-05-11_16h50.32.711,Main,2022.1.1,60.09405922144996,
positive,positive,2,l,j,,,,,,,,,7,8,134,11,,,,,,,,,,,,,,,,,,,,,,,,main,1,1,2,positive,positive,j,j,1,0.842999399999826,405.36588619999975,406.37690810000004,406.2726997999998,None,405.36588619999975,None,405.36588619999975,None,405.36588619999975,None,407.10875926000006,None,407.10875926000006,None,407.10875926000006,None,,,,,,,,,,,215,20,Female,2022-05-11_16h50.32.711,Main,2022.1.1,60.09405922144996,
neutral,positive,2,k,k,,,,,,,,,7,9,135,13,,,,,,,,,,,,,,,,,,,,,,,,main,2,2,2,positive,neutral,k,k,1,0.7060752999996112,407.1349639,408.15153999999984,408.13113209999983,None,407.1349639,None,407.1349639,None,407.1349639,None,408.8208949599997,None,408.8208949599997,None,408.8208949599997,None,,,,,,,,,,,215,20,Female,2022-05-11_16h50.32.711,Main,2022.1.1,60.09405922144996,
positive,neutral,2,l,j,,,,,,,,,7,10,136,17,,,,,,,,,,,,,,,,,,,,,,,,main,2,2,2,neutral,positive,j,j,1,0.7670122999998057,408.8476412,409.85441820000005,409.8334215,None,408.8476412,None,408.8476412,None,408.8476412,None,410.5904624599997,None,410.5904624599997,None,410.5904624599997,None,,,,,,,,,,,215,20,Female,2022-05-11_16h50.32.711,Main,2022.1.1,60.09405922144996,
neutral,positive,1,k,k,,,,,,,,,7,11,137,4,,,,,,,,,,,,,,,,,,,,,,,,main,2,2,1,positive,neutral,k,k,1,0.7046758000001319,410.6162482999998,411.6223409999998,411.5993248,None,410.6162482999998,None,410.6162482999998,None,410.6162482999998,None,412.29680105999967,None,412.29680105999967,None,412.29680105999967,None,,,,,,,,,,,215,20,Female,2022-05-11_16h50.32.711,Main,2022.1.1,60.09405922144996,
positive,negative,2,l,j,,,,,,,,,7,12,138,14,,,,,,,,,,,,,,,,,,,,,,,,main,1,1,2,negative,positive,j,j,1,0.7838214000003063,412.3231787999998,413.3419309000001,413.32111729999997,None,412.3231787999998,None,412.3231787999998,None,412.3231787999998,None,414.0870151599996,None,414.0870151599996,None,414.0870151599996,None,,,,,,,,,,,215,20,Female,2022-05-11_16h50.32.711,Main,2022.1.1,60.09405922144996,
negative,negative,2,j,l,,,,,,,,,7,13,139,9,,,,,,,,,,,,,,,,,,,,,,,,main,2,2,2,negative,negative,l,l,1,0.7672132000002421,414.1128798,415.1271367999998,415.1068943,None,414.1128798,None,414.1128798,None,414.1128798,None,415.85631625999974,None,415.85631625999974,None,415.85631625999974,None,,,,,,,,,,,215,20,Female,2022-05-11_16h50.32.711,Main,2022.1.1,60.09405922144996,
positive,neutral,1,l,j,,,,,,,,,7,14,140,8,,,,,,,,,,,,,,,,,,,,,,,,main,1,1,1,neutral,positive,j,j,1,0.745311700000002,415.88371929999994,416.8992112000001,416.85984129999997,None,415.88371929999994,None,415.88371929999994,None,415.88371929999994,None,417.6047579599998,None,417.6047579599998,None,417.6047579599998,None,,,,,,,,,,,215,20,Female,2022-05-11_16h50.32.711,Main,2022.1.1,60.09405922144996,
negative,positive,2,j,l,,,,,,,,,7,15,141,15,,,,,,,,,,,,,,,,,,,,,,,,main,1,1,2,positive,negative,l,l,1,0.7560650000000351,417.63198729999976,418.6380973999999,418.6178735999997,None,417.63198729999976,None,417.63198729999976,None,417.63198729999976,None,419.36068366000006,None,419.36068366000006,None,419.36068366000006,None,,,,,,,,,,,215,20,Female,2022-05-11_16h50.32.711,Main,2022.1.1,60.09405922144996,
negative,positive,1,j,l,,,,,,,,,7,16,142,6,,,,,,,,,,,,,,,,,,,,,,,,main,2,2,1,positive,negative,l,l,1,0.9690686999997524,419.38839469999994,420.40141719999974,420.38326689999985,None,419.38839469999994,None,419.38839469999994,None,419.38839469999994,None,421.33461295999984,None,421.33461295999984,None,421.33461295999984,None,,,,,,,,,,,215,20,Female,2022-05-11_16h50.32.711,Main,2022.1.1,60.09405922144996,
negative,neutral,2,j,l,,,,,,,,,7,17,143,12,,,,,,,,,,,,,,,,,,,,,,,,main,2,2,2,neutral,negative,l,l,1,0.7076675999996951,421.3579759999998,422.3623687999998,422.3412294,None,421.3579759999998,None,421.3579759999998,None,421.3579759999998,None,423.04574825999987,None,423.04574825999987,None,423.04574825999987,None,,,,,,,,,,,215,20,Female,2022-05-11_16h50.32.711,Main,2022.1.1,60.09405922144996,
positive,neutral,1,l,j,,,,,,,,,8,0,144,8,,,,,,,,,,,,,,,,,,,,,,,,main,1,1,1,neutral,positive,j,j,1,0.7142219999996087,423.06654709999975,424.06977959999995,424.0494149000001,None,423.06654709999975,None,423.06654709999975,None,423.06654709999975,None,424.75970535999966,None,424.75970535999966,None,424.75970535999966,None,,,,,,,,,,,215,20,Female,2022-05-11_16h50.32.711,Main,2022.1.1,60.09405922144996,
negative,neutral,2,j,l,,,,,,,,,8,1,145,12,,,,,,,,,,,,,,,,,,,,,,,,main,1,1,2,neutral,negative,l,l,1,0.753766099999666,424.78736200000003,425.8094302999998,425.76671129999977,None,424.78736200000003,None,424.78736200000003,None,424.78736200000003,None,426.51836465999975,None,426.51836465999975,None,426.51836465999975,None,,,,,,,,,,,215,20,Female,2022-05-11_16h50.32.711,Main,2022.1.1,60.09405922144996,
neutral,negative,2,k,k,,,,,,,,,8,2,146,16,,,,,,,,,,,,,,,,,,,,,,,,main,2,2,2,negative,neutral,k,k,1,1.3919709000001603,426.5436943999998,427.55251199999975,427.5318407,None,426.5436943999998,None,426.5436943999998,None,426.5436943999998,None,428.91210425999986,None,428.91210425999986,None,428.91210425999986,None,,,,,,,,,,,215,20,Female,2022-05-11_16h50.32.711,Main,2022.1.1,60.09405922144996,
positive,neutral,2,l,j,,,,,,,,,8,3,147,17,,,,,,,,,,,,,,,,,,,,,,,,main,2,2,2,neutral,positive,j,j,1,0.6701481000000058,428.9377448,429.9547401,429.9333922999999,None,428.9377448,None,428.9377448,None,428.9377448,None,430.58826446,None,430.58826446,None,430.58826446,None,,,,,,,,,,,215,20,Female,2022-05-11_16h50.32.711,Main,2022.1.1,60.09405922144996,
positive,positive,1,l,j,,,,,,,,,8,4,148,2,,,,,,,,,,,,,,,,,,,,,,,,main,2,2,1,positive,positive,j,j,1,0.7887313000001086,430.6132090000001,431.62515029999986,431.6037210999998,None,430.6132090000001,None,430.6132090000001,None,430.6132090000001,None,432.38009636000004,None,432.38009636000004,None,432.38009636000004,None,,,,,,,,,,,215,20,Female,2022-05-11_16h50.32.711,Main,2022.1.1,60.09405922144996,
negative,negative,1,j,l,,,,,,,,,8,5,149,0,,,,,,,,,,,,,,,,,,,,,,,,main,2,2,1,negative,negative,l,l,1,0.7917449000001398,432.40558379999993,433.4120423999998,433.3922041999999,None,432.40558379999993,None,432.40558379999993,None,432.40558379999993,None,434.17509045999975,None,434.17509045999975,None,434.17509045999975,None,,,,,,,,,,,215,20,Female,2022-05-11_16h50.32.711,Main,2022.1.1,60.09405922144996,
positive,negative,1,l,j,,,,,,,,,8,6,150,5,,,,,,,,,,,,,,,,,,,,,,,,main,2,2,1,negative,positive,j,j,1,0.785946899999999,434.2024071000001,435.2125683999998,435.19082309999976,None,434.2024071000001,None,434.2024071000001,None,434.2024071000001,None,435.96702515999993,None,435.96702515999993,None,435.96702515999993,None,,,,,,,,,,,215,20,Female,2022-05-11_16h50.32.711,Main,2022.1.1,60.09405922144996,
neutral,neutral,1,k,k,,,,,,,,,8,7,151,1,,,,,,,,,,,,,,,,,,,,,,,,main,1,1,1,neutral,neutral,k,k,1,0.7557207999998354,435.9952860999997,437.0039509999997,436.98531649999995,None,435.9952860999997,None,435.9952860999997,None,435.9952860999997,None,437.7255644599999,None,437.7255644599999,None,437.7255644599999,None,,,,,,,,,,,215,20,Female,2022-05-11_16h50.32.711,Main,2022.1.1,60.09405922144996,
negative,neutral,1,j,l,,,,,,,,,8,8,152,3,,,,,,,,,,,,,,,,,,,,,,,,main,2,2,1,neutral,negative,l,l,1,0.7368959000000359,437.7507820000001,438.7576537,438.7367731999998,None,437.7507820000001,None,437.7507820000001,None,437.7507820000001,None,439.46802646000003,None,439.46802646000003,None,439.46802646000003,None,,,,,,,,,,,215,20,Female,2022-05-11_16h50.32.711,Main,2022.1.1,60.09405922144996,
negative,negative,2,j,l,,,,,,,,,8,9,153,9,,,,,,,,,,,,,,,,,,,,,,,,main,2,2,2,negative,negative,l,l,1,0.8004100000002836,439.49370980000003,440.5055047999999,440.48410190000004,None,439.49370980000003,None,439.49370980000003,None,439.49370980000003,None,441.27204475999986,None,441.27204475999986,None,441.27204475999986,None,,,,,,,,,,,215,20,Female,2022-05-11_16h50.32.711,Main,2022.1.1,60.09405922144996,
neutral,negative,1,k,k,,,,,,,,,8,10,154,7,,,,,,,,,,,,,,,,,,,,,,,,main,1,1,1,negative,neutral,k,k,1,0.7322275999999874,441.298542,442.3131390999997,442.2931316999998,None,441.298542,None,441.298542,None,441.298542,None,443.00770065999984,None,443.00770065999984,None,443.00770065999984,None,,,,,,,,,,,215,20,Female,2022-05-11_16h50.32.711,Main,2022.1.1,60.09405922144996,
positive,positive,2,l,j,,,,,,,,,8,11,155,11,,,,,,,,,,,,,,,,,,,,,,,,main,2,2,2,positive,positive,j,j,1,0.7206271999998535,443.03233520000003,444.0540275999997,444.0123273999998,None,443.03233520000003,None,443.03233520000003,None,443.03233520000003,None,444.73223505999965,None,444.73223505999965,None,444.73223505999965,None,,,,,,,,,,,215,20,Female,2022-05-11_16h50.32.711,Main,2022.1.1,60.09405922144996,
positive,negative,2,l,j,,,,,,,,,8,12,156,14,,,,,,,,,,,,,,,,,,,,,,,,main,1,1,2,negative,positive,j,j,1,0.6940823999998429,444.7580591000001,445.7650983999997,445.7422667000001,None,444.7580591000001,None,444.7580591000001,None,444.7580591000001,None,446.4282994599997,None,446.4282994599997,None,446.4282994599997,None,,,,,,,,,,,215,20,Female,2022-05-11_16h50.32.711,Main,2022.1.1,60.09405922144996,
negative,positive,2,j,l,,,,,,,,,8,13,157,15,,,,,,,,,,,,,,,,,,,,,,,,main,1,1,2,positive,negative,l,l,1,0.7634189000000333,446.4533698,447.46875120000004,447.4482995999997,None,446.4533698,None,446.4533698,None,446.4533698,None,448.19493785999964,None,448.19493785999964,None,448.19493785999964,None,,,,,,,,,,,215,20,Female,2022-05-11_16h50.32.711,Main,2022.1.1,60.09405922144996,
neutral,positive,1,k,k,,,,,,,,,8,14,158,4,,,,,,,,,,,,,,,,,,,,,,,,main,1,1,1,positive,neutral,k,k,1,0.7642746000001353,448.2196288,449.2278263999997,449.2058063999998,None,448.2196288,None,448.2196288,None,448.2196288,None,449.9611095599997,None,449.9611095599997,None,449.9611095599997,None,,,,,,,,,,,215,20,Female,2022-05-11_16h50.32.711,Main,2022.1.1,60.09405922144996,
neutral,positive,2,k,k,,,,,,,,,8,15,159,13,,,,,,,,,,,,,,,,,,,,,,,,main,2,2,2,positive,neutral,k,k,1,0.9179958000004262,449.9892136999997,451.0040006999998,450.98545839999997,None,449.9892136999997,None,449.9892136999997,None,449.9892136999997,None,451.88492385999996,None,451.88492385999996,None,451.88492385999996,None,,,,,,,,,,,215,20,Female,2022-05-11_16h50.32.711,Main,2022.1.1,60.09405922144996,
neutral,neutral,2,k,k,,,,,,,,,8,16,160,10,,,,,,,,,,,,,,,,,,,,,,,,main,1,1,2,neutral,neutral,k,k,1,0.9238844999999856,451.9103154999998,452.9314694999998,452.8891103000001,None,451.9103154999998,None,451.9103154999998,None,451.9103154999998,None,453.8143983599997,None,453.8143983599997,None,453.8143983599997,None,,,,,,,,,,,215,20,Female,2022-05-11_16h50.32.711,Main,2022.1.1,60.09405922144996,
negative,positive,1,j,l,,,,,,,,,8,17,161,6,,,,,,,,,,,,,,,,,,,,,,,,main,2,2,1,positive,negative,l,l,1,0.8969317000000956,453.83835659999977,454.8478795000001,454.8270147999997,None,453.83835659999977,None,453.83835659999977,None,453.83835659999977,None,455.7149158599999,None,455.7149158599999,None,455.7149158599999,None,,,,,,,,,,,215,20,Female,2022-05-11_16h50.32.711,Main,2022.1.1,60.09405922144996,
negative,positive,2,j,l,,,,,,,,,9,0,162,15,,,,,,,,,,,,,,,,,,,,,,,,main,1,1,2,positive,negative,l,l,1,0.7417132999999012,455.7365473,456.76154829999996,456.71826839999994,None,455.7365473,None,455.7365473,None,455.7365473,None,457.45633375999967,None,457.45633375999967,None,457.45633375999967,None,,,,,,,,,,,215,20,Female,2022-05-11_16h50.32.711,Main,2022.1.1,60.09405922144996,
negative,neutral,2,j,l,,,,,,,,,9,1,163,12,,,,,,,,,,,,,,,,,,,,,,,,main,1,1,2,neutral,negative,l,l,1,0.5832153999999719,457.4814084999998,458.50063539999974,458.4606289999997,None,457.4814084999998,None,457.4814084999998,None,457.4814084999998,None,459.0417745599997,None,459.0417745599997,None,459.0417745599997,None,,,,,,,,,,,215,20,Female,2022-05-11_16h50.32.711,Main,2022.1.1,60.09405922144996,
negative,neutral,1,j,l,,,,,,,,,9,2,164,3,,,,,,,,,,,,,,,,,,,,,,,,main,1,1,1,neutral,negative,l,l,1,0.838274900000215,459.06824770000003,460.09062670000003,460.04761519999965,None,459.06824770000003,None,459.06824770000003,None,459.06824770000003,None,460.88418816,None,460.88418816,None,460.88418816,None,,,,,,,,,,,215,20,Female,2022-05-11_16h50.32.711,Main,2022.1.1,60.09405922144996,
negative,negative,2,j,l,,,,,,,,,9,3,165,9,,,,,,,,,,,,,,,,,,,,,,,,main,2,2,2,negative,negative,l,l,1,0.8065858999998454,460.91016809999974,461.9251866999998,461.9017441000001,None,460.91016809999974,None,460.91016809999974,None,460.91016809999974,None,462.69349425999997,None,462.69349425999997,None,462.69349425999997,None,,,,,,,,,,,215,20,Female,2022-05-11_16h50.32.711,Main,2022.1.1,60.09405922144996,
neutral,neutral,1,k,k,,,,,,,,,9,4,166,1,,,,,,,,,,,,,,,,,,,,,,,,main,2,2,1,neutral,neutral,k,k,1,0.9431798000000526,462.72286269999995,463.7411027999997,463.7195724999997,None,462.72286269999995,None,462.72286269999995,None,462.72286269999995,None,464.64005355999996,None,464.64005355999996,None,464.64005355999996,None,,,,,,,,,,,215,20,Female,2022-05-11_16h50.32.711,Main,2022.1.1,60.09405922144996,
negative,negative,1,j,l,,,,,,,,,9,5,167,0,,,,,,,,,,,,,,,,,,,,,,,,main,2,2,1,negative,negative,l,l,1,1.0191334000001007,464.6691621,465.6778991000001,465.6596774999998,None,464.6691621,None,464.6691621,None,464.6691621,None,466.66240935999974,None,466.66240935999974,None,466.66240935999974,None,,,,,,,,,,,215,20,Female,2022-05-11_16h50.32.711,Main,2022.1.1,60.09405922144996,
neutral,positive,2,k,k,,,,,,,,,9,6,168,13,,,,,,,,,,,,,,,,,,,,,,,,main,2,2,2,positive,neutral,k,k,1,0.8508247999998275,466.6893325000001,467.70214339999984,467.6784146,None,466.6893325000001,None,466.6893325000001,None,466.6893325000001,None,468.5187486599997,None,468.5187486599997,None,468.5187486599997,None,,,,,,,,,,,215,20,Female,2022-05-11_16h50.32.711,Main,2022.1.1,60.09405922144996,
neutral,neutral,2,k,k,,,,,,,,,9,7,169,10,,,,,,,,,,,,,,,,,,,,,,,,main,1,1,2,neutral,neutral,k,k,1,0.6925402000001668,468.5438832,469.55031119999967,469.5279867999998,None,468.5438832,None,468.5438832,None,468.5438832,None,470.21523825999964,None,470.21523825999964,None,470.21523825999964,None,,,,,,,,,,,215,20,Female,2022-05-11_16h50.32.711,Main,2022.1.1,60.09405922144996,
positive,positive,2,l,j,,,,,,,,,9,8,170,11,,,,,,,,,,,,,,,,,,,,,,,,main,1,1,2,positive,positive,j,j,1,0.8568936000001486,470.2424708999997,471.2627434000001,471.22457589999976,None,470.2424708999997,None,470.2424708999997,None,470.2424708999997,None,472.07534275999967,None,472.07534275999967,None,472.07534275999967,None,,,,,,,,,,,215,20,Female,2022-05-11_16h50.32.711,Main,2022.1.1,60.09405922144996,
positive,negative,1,l,j,,,,,,,,,9,9,171,5,,,,,,,,,,,,,,,,,,,,,,,,main,2,2,1,negative,positive,j,j,1,0.8347773000000416,472.105959,473.11663009999984,473.09634909999977,None,472.105959,None,472.105959,None,472.105959,None,473.9154272599998,None,473.9154272599998,None,473.9154272599998,None,,,,,,,,,,,215,20,Female,2022-05-11_16h50.32.711,Main,2022.1.1,60.09405922144996,
positive,neutral,2,l,j,,,,,,,,,9,10,172,17,,,,,,,,,,,,,,,,,,,,,,,,main,2,2,2,neutral,positive,j,j,1,0.8637713999996777,473.940419,474.95175389999986,474.9311957,None,473.940419,None,473.940419,None,473.940419,None,475.7828651599997,None,475.7828651599997,None,475.7828651599997,None,,,,,,,,,,,215,20,Female,2022-05-11_16h50.32.711,Main,2022.1.1,60.09405922144996,
neutral,positive,1,k,k,,,,,,,,,9,11,173,4,,,,,,,,,,,,,,,,,,,,,,,,main,2,2,1,positive,neutral,k,k,1,0.7994665000001078,475.81120699999974,476.8175053,476.79426839999996,None,475.81120699999974,None,475.81120699999974,None,475.81120699999974,None,477.58459966,None,477.58459966,None,477.58459966,None,,,,,,,,,,,215,20,Female,2022-05-11_16h50.32.711,Main,2022.1.1,60.09405922144996,
neutral,negative,1,k,k,,,,,,,,,9,12,174,7,,,,,,,,,,,,,,,,,,,,,,,,main,1,1,1,negative,neutral,k,k,1,0.687040799999977,477.6077986999999,478.6322433999999,478.59005769999976,None,477.6077986999999,None,477.6077986999999,None,477.6077986999999,None,479.2737983599999,None,479.2737983599999,None,479.2737983599999,None,,,,,,,,,,,215,20,Female,2022-05-11_16h50.32.711,Main,2022.1.1,60.09405922144996,
positive,negative,2,l,j,,,,,,,,,9,13,175,14,,,,,,,,,,,,,,,,,,,,,,,,main,2,2,2,negative,positive,j,j,1,0.8463446000000658,479.3004083999999,480.3247140999997,480.2819039000001,None,479.3004083999999,None,479.3004083999999,None,479.3004083999999,None,481.12424285999975,None,481.12424285999975,None,481.12424285999975,None,,,,,,,,,,,215,20,Female,2022-05-11_16h50.32.711,Main,2022.1.1,60.09405922144996,
positive,neutral,1,l,j,,,,,,,,,9,14,176,8,,,,,,,,,,,,,,,,,,,,,,,,main,2,2,1,neutral,positive,j,j,1,1.0270803999997042,481.1498256,482.16956489999984,482.1281974999997,None,481.1498256,None,481.1498256,None,481.1498256,None,483.1547657599998,None,483.1547657599998,None,483.1547657599998,None,,,,,,,,,,,215,20,Female,2022-05-11_16h50.32.711,Main,2022.1.1,60.09405922144996,
negative,positive,1,j,l,,,,,,,,,9,15,177,6,,,,,,,,,,,,,,,,,,,,,,,,main,1,1,1,positive,negative,l,l,1,1.0501122999999097,483.18270140000004,484.19220889999997,484.17155379999986,None,483.18270140000004,None,483.18270140000004,None,483.18270140000004,None,485.2100550599997,None,485.2100550599997,None,485.2100550599997,None,,,,,,,,,,,215,20,Female,2022-05-11_16h50.32.711,Main,2022.1.1,60.09405922144996,
neutral,negative,2,k,k,,,,,,,,,9,16,178,16,,,,,,,,,,,,,,,,,,,,,,,,main,1,1,2,negative,neutral,k,k,1,0.7226304999999229,485.2335336000001,486.2511214000001,486.2302946,None,485.2335336000001,None,485.2335336000001,None,485.2335336000001,None,486.9351038599997,None,486.9351038599997,None,486.9351038599997,None,,,,,,,,,,,215,20,Female,2022-05-11_16h50.32.711,Main,2022.1.1,60.09405922144996,
positive,positive,1,l,j,,,,,,,,,9,17,179,2,,,,,,,,,,,,,,,,,,,,,,,,main,1,1,1,positive,positive,j,j,1,0.7763296000002811,486.95898050000005,487.9809068999998,487.9389484999997,None,486.95898050000005,None,486.95898050000005,None,486.95898050000005,None,488.71694586,None,488.71694586,None,488.71694586,None,,,,,,,,,,,215,20,Female,2022-05-11_16h50.32.711,Main,2022.1.1,60.09405922144996,
negative,neutral,1,j,l,,,,,,,,,10,0,180,3,,,,,,,,,,,,,,,,,,,,,,,,main,2,2,1,neutral,negative,l,l,1,1.277937700000166,488.7413492999999,489.76593839999987,489.72213039999997,None,488.7413492999999,None,488.7413492999999,None,488.7413492999999,None,491.0003461599998,None,491.0003461599998,None,491.0003461599998,None,,,,,,,,,,,215,20,Female,2022-05-11_16h50.32.711,Main,2022.1.1,60.09405922144996,
neutral,positive,1,k,k,,,,,,,,,10,1,181,4,,,,,,,,,,,,,,,,,,,,,,,,main,2,2,1,positive,neutral,k,k,1,1.6783586999999898,491.0235299000001,492.0356204999998,492.01485189999994,None,491.0235299000001,None,491.0235299000001,None,491.0235299000001,None,493.6916406999999,None,493.6916406999999,None,493.6916406999999,None,,,,,,,,,,,215,20,Female,2022-05-11_16h50.32.711,Main,2022.1.1,60.09405922144996,
neutral,neutral,1,k,k,,,,,,,,,10,2,182,1,,,,,,,,,,,,,,,,,,,,,,,,main,2,2,1,neutral,neutral,k,k,1,0.7469423999996252,494.7115955999998,495.7322887,495.6930241,None,494.7115955999998,None,494.7115955999998,None,494.7115955999998,None,496.43356905999997,None,496.43356905999997,None,496.43356905999997,None,,,,,,,,,,,215,20,Female,2022-05-11_16h50.32.711,Main,2022.1.1,60.09405922144996,
negative,negative,2,j,l,,,,,,,,,10,3,183,9,,,,,,,,,,,,,,,,,,,,,,,,main,1,1,2,negative,negative,l,l,1,0.899865200000022,496.4685172999998,497.47902129999966,497.44195549999995,None,496.4685172999998,None,496.4685172999998,None,496.4685172999998,None,498.33822726000005,None,498.33822726000005,None,498.33822726000005,None,,,,,,,,,,,215,20,Female,2022-05-11_16h50.32.711,Main,2022.1.1,60.09405922144996,
positive,neutral,2,l,j,,,,,,,,,10,4,184,17,,,,,,,,,,,,,,,,,,,,,,,,main,1,1,2,neutral,positive,j,j,1,0.8167757999999594,498.36231469999984,499.37019089999967,499.3493327000001,None,498.36231469999984,None,498.36231469999984,None,498.36231469999984,None,500.1608903599998,None,500.1608903599998,None,500.1608903599998,None,,,,,,,,,,,215,20,Female,2022-05-11_16h50.32.711,Main,2022.1.1,60.09405922144996,
neutral,negative,2,k,k,,,,,,,,,10,5,185,16,,,,,,,,,,,,,,,,,,,,,,,,main,1,1,2,negative,neutral,k,k,1,0.726267800000187,500.1805909999998,501.18662909999966,501.1638310999997,None,500.1805909999998,None,500.1805909999998,None,500.1805909999998,None,501.88482276,None,501.88482276,None,501.88482276,None,,,,,,,,,,,215,20,Female,2022-05-11_16h50.32.711,Main,2022.1.1,60.09405922144996,
negative,positive,1,j,l,,,,,,,,,10,6,186,6,,,,,,,,,,,,,,,,,,,,,,,,main,2,2,1,positive,negative,l,l,1,0.8767655000001469,501.91722819999995,502.9337679999999,502.91538790000004,None,501.91722819999995,None,501.91722819999995,None,501.91722819999995,None,503.7663941599998,None,503.7663941599998,None,503.7663941599998,None,,,,,,,,,,,215,20,Female,2022-05-11_16h50.32.711,Main,2022.1.1,60.09405922144996,
positive,negative,2,l,j,,,,,,,,,10,7,187,14,,,,,,,,,,,,,,,,,,,,,,,,main,1,1,2,negative,positive,j,j,1,0.7746669999996811,503.79314999999997,504.809808,504.7888800999999,None,503.79314999999997,None,503.79314999999997,None,503.79314999999997,None,505.54505045999974,None,505.54505045999974,None,505.54505045999974,None,,,,,,,,,,,215,20,Female,2022-05-11_16h50.32.711,Main,2022.1.1,60.09405922144996,
positive,positive,1,l,j,,,,,,,,,10,8,188,2,,,,,,,,,,,,,,,,,,,,,,,,main,2,2,1,positive,positive,j,j,1,0.6940067999998973,505.57552510000005,506.5941161999999,506.57294439999987,None,505.57552510000005,None,505.57552510000005,None,505.57552510000005,None,507.2455765599997,None,507.2455765599997,None,507.2455765599997,None,,,,,,,,,,,215,20,Female,2022-05-11_16h50.32.711,Main,2022.1.1,60.09405922144996,
negative,negative,1,j,l,,,,,,,,,10,9,189,0,,,,,,,,,,,,,,,,,,,,,,,,main,1,1,1,negative,negative,l,l,1,0.772831899999801,507.2703446999999,508.2917204999999,508.2502457999999,None,507.2703446999999,None,507.2703446999999,None,507.2703446999999,None,509.02220825999973,None,509.02220825999973,None,509.02220825999973,None,,,,,,,,,,,215,20,Female,2022-05-11_16h50.32.711,Main,2022.1.1,60.09405922144996,
positive,negative,1,l,j,,,,,,,,,10,10,190,5,,,,,,,,,,,,,,,,,,,,,,,,main,1,1,1,negative,positive,j,j,1,0.7613767000002554,509.0502558999997,510.06551039999977,510.0251211,None,509.0502558999997,None,509.0502558999997,None,509.0502558999997,None,510.7843073599996,None,510.7843073599996,None,510.7843073599996,None,,,,,,,,,,,215,20,Female,2022-05-11_16h50.32.711,Main,2022.1.1,60.09405922144996,
neutral,negative,1,k,k,,,,,,,,,10,11,191,7,,,,,,,,,,,,,,,,,,,,,,,,main,2,2,1,negative,neutral,k,k,1,0.7573514000000614,510.8176128,511.8305253999997,511.8105697000001,None,510.8176128,None,510.8176128,None,510.8176128,None,512.5487084599998,None,512.5487084599998,None,512.5487084599998,None,,,,,,,,,,,215,20,Female,2022-05-11_16h50.32.711,Main,2022.1.1,60.09405922144996,
positive,neutral,1,l,j,,,,,,,,,10,12,192,8,,,,,,,,,,,,,,,,,,,,,,,,main,2,2,1,neutral,positive,j,j,1,0.7875011999999515,512.5720701,513.5802374999998,513.5586881999998,None,512.5720701,None,512.5720701,None,512.5720701,None,514.3369821599998,None,514.3369821599998,None,514.3369821599998,None,,,,,,,,,,,215,20,Female,2022-05-11_16h50.32.711,Main,2022.1.1,60.09405922144996,
negative,neutral,2,j,l,,,,,,,,,10,13,193,12,,,,,,,,,,,,,,,,,,,,,,,,main,2,2,2,neutral,negative,l,l,1,0.7516092000000754,514.3630614999997,515.3728658,515.3521458,None,514.3630614999997,None,514.3630614999997,None,514.3630614999997,None,516.0909133599997,None,516.0909133599997,None,516.0909133599997,None,,,,,,,,,,,215,20,Female,2022-05-11_16h50.32.711,Main,2022.1.1,60.09405922144996,
neutral,neutral,2,k,k,,,,,,,,,10,14,194,10,,,,,,,,,,,,,,,,,,,,,,,,main,2,2,2,neutral,neutral,k,k,1,0.7499250000000757,516.1216381999998,517.1374587,517.1172354999999,None,516.1216381999998,None,516.1216381999998,None,516.1216381999998,None,517.8475724599997,None,517.8475724599997,None,517.8475724599997,None,,,,,,,,,,,215,20,Female,2022-05-11_16h50.32.711,Main,2022.1.1,60.09405922144996,
neutral,positive,2,k,k,,,,,,,,,10,15,195,13,,,,,,,,,,,,,,,,,,,,,,,,main,2,2,2,positive,neutral,k,k,1,0.7400664000001598,517.8732863,518.8819736999999,518.8616219999999,None,517.8732863,None,517.8732863,None,517.8732863,None,519.5924236599998,None,519.5924236599998,None,519.5924236599998,None,,,,,,,,,,,215,20,Female,2022-05-11_16h50.32.711,Main,2022.1.1,60.09405922144996,
negative,positive,2,j,l,,,,,,,,,10,16,196,15,,,,,,,,,,,,,,,,,,,,,,,,main,2,2,2,positive,negative,l,l,1,1.041417299999921,519.6172655,520.6303859999998,520.6079205000001,None,519.6172655,None,519.6172655,None,519.6172655,None,521.63313706,None,521.63313706,None,521.63313706,None,,,,,,,,,,,215,20,Female,2022-05-11_16h50.32.711,Main,2022.1.1,60.09405922144996,
positive,positive,2,l,j,,,,,,,,,10,17,197,11,,,,,,,,,,,,,,,,,,,,,,,,main,1,1,2,positive,positive,j,j,1,0.7162531000003582,521.6633570999998,522.6726362999998,522.6539862999998,None,521.6633570999998,None,521.6633570999998,None,521.6633570999998,None,523.3572230599997,None,523.3572230599997,None,523.3572230599997,None,,,,,,,,,,,215,20,Female,2022-05-11_16h50.32.711,Main,2022.1.1,60.09405922144996,
positive,negative,2,l,j,,,,,,,,,11,0,198,14,,,,,,,,,,,,,,,,,,,,,,,,main,1,1,2,negative,positive,j,j,1,0.6801253000003271,523.3835752,524.3880357999997,524.3660331000001,None,523.3835752,None,523.3835752,None,523.3835752,None,525.0418224599997,None,525.0418224599997,None,525.0418224599997,None,,,,,,,,,,,215,20,Female,2022-05-11_16h50.32.711,Main,2022.1.1,60.09405922144996,
negative,positive,2,j,l,,,,,,,,,11,1,199,15,,,,,,,,,,,,,,,,,,,,,,,,main,1,1,2,positive,negative,l,l,1,0.7481892000000698,525.0656002999999,526.0746363999997,526.0536192999998,None,525.0656002999999,None,525.0656002999999,None,525.0656002999999,None,526.7923913599997,None,526.7923913599997,None,526.7923913599997,None,,,,,,,,,,,215,20,Female,2022-05-11_16h50.32.711,Main,2022.1.1,60.09405922144996,
neutral,positive,1,k,k,,,,,,,,,11,2,200,4,,,,,,,,,,,,,,,,,,,,,,,,main,2,2,1,positive,neutral,k,k,1,0.7752854000000298,526.8216397000001,527.8391269999997,527.8008210999997,None,526.8216397000001,None,526.8216397000001,None,526.8216397000001,None,528.57423276,None,528.57423276,None,528.57423276,None,,,,,,,,,,,215,20,Female,2022-05-11_16h50.32.711,Main,2022.1.1,60.09405922144996,
neutral,neutral,2,k,k,,,,,,,,,11,3,201,10,,,,,,,,,,,,,,,,,,,,,,,,main,2,2,2,neutral,neutral,k,k,1,0.828860000000077,528.5989838999999,529.6051435999998,529.5847882999997,None,528.5989838999999,None,528.5989838999999,None,528.5989838999999,None,530.4053167599999,None,530.4053167599999,None,530.4053167599999,None,,,,,,,,,,,215,20,Female,2022-05-11_16h50.32.711,Main,2022.1.1,60.09405922144996,
neutral,neutral,1,k,k,,,,,,,,,11,4,202,1,,,,,,,,,,,,,,,,,,,,,,,,main,2,2,1,neutral,neutral,k,k,1,0.8105851999998777,530.4298697999998,531.4435927,531.4208565999998,None,530.4298697999998,None,530.4298697999998,None,530.4298697999998,None,532.21706076,None,532.21706076,None,532.21706076,None,,,,,,,,,,,215,20,Female,2022-05-11_16h50.32.711,Main,2022.1.1,60.09405922144996,
negative,negative,1,j,l,,,,,,,,,11,5,203,0,,,,,,,,,,,,,,,,,,,,,,,,main,2,2,1,negative,negative,l,l,1,1.2168092000001707,532.2468918,533.2520171000001,533.2319417999997,None,532.2468918,None,532.2468918,None,532.2468918,None,534.4382052599998,None,534.4382052599998,None,534.4382052599998,None,,,,,,,,,,,215,20,Female,2022-05-11_16h50.32.711,Main,2022.1.1,60.09405922144996,
neutral,positive,2,k,k,,,,,,,,,11,6,204,13,,,,,,,,,,,,,,,,,,,,,,,,main,2,2,2,positive,neutral,k,k,1,0.7589892999999392,534.4673309999998,535.471266,535.4499173999998,None,534.4673309999998,None,534.4673309999998,None,534.4673309999998,None,536.2006492599998,None,536.2006492599998,None,536.2006492599998,None,,,,,,,,,,,215,20,Female,2022-05-11_16h50.32.711,Main,2022.1.1,60.09405922144996,
negative,positive,1,j,l,,,,,,,,,11,7,205,6,,,,,,,,,,,,,,,,,,,,,,,,main,1,1,1,positive,negative,l,l,1,0.7467470999999932,536.2271149999997,537.2326521,537.2109944999997,None,536.2271149999997,None,536.2271149999997,None,536.2271149999997,None,537.9485346599998,None,537.9485346599998,None,537.9485346599998,None,,,,,,,,,,,215,20,Female,2022-05-11_16h50.32.711,Main,2022.1.1,60.09405922144996,
negative,neutral,1,j,l,,,,,,,,,11,8,206,3,,,,,,,,,,,,,,,,,,,,,,,,main,2,2,1,neutral,negative,l,l,1,0.7433702999996967,537.9725721,538.9860912999998,538.9669248999999,None,537.9725721,None,537.9725721,None,537.9725721,None,539.6952431599997,None,539.6952431599997,None,539.6952431599997,None,,,,,,,,,,,215,20,Female,2022-05-11_16h50.32.711,Main,2022.1.1,60.09405922144996,
neutral,negative,2,k,k,,,,,,,,,11,9,207,16,,,,,,,,,,,,,,,,,,,,,,,,main,2,2,2,negative,neutral,k,k,1,0.7245115000000624,539.7200125999998,540.7306282,540.7087609,None,539.7200125999998,None,539.7200125999998,None,539.7200125999998,None,541.4246876599999,None,541.4246876599999,None,541.4246876599999,None,,,,,,,,,,,215,20,Female,2022-05-11_16h50.32.711,Main,2022.1.1,60.09405922144996,
positive,positive,2,l,j,,,,,,,,,11,10,208,11,,,,,,,,,,,,,,,,,,,,,,,,main,2,2,2,positive,positive,j,j,1,0.7858486999998604,541.4506044,542.4655045,542.4452861,None,541.4506044,None,541.4506044,None,541.4506044,None,543.2138212599997,None,543.2138212599997,None,543.2138212599997,None,,,,,,,,,,,215,20,Female,2022-05-11_16h50.32.711,Main,2022.1.1,60.09405922144996,
neutral,negative,1,k,k,,,,,,,,,11,11,209,7,,,,,,,,,,,,,,,,,,,,,,,,main,1,1,1,negative,neutral,k,k,1,0.7818806999998742,543.2416230999997,544.2632610999999,544.2434079999998,None,543.2416230999997,None,543.2416230999997,None,543.2416230999997,None,544.9988441599997,None,544.9988441599997,None,544.9988441599997,None,,,,,,,,,,,215,20,Female,2022-05-11_16h50.32.711,Main,2022.1.1,60.09405922144996,
negative,neutral,2,j,l,,,,,,,,,11,12,210,12,,,,,,,,,,,,,,,,,,,,,,,,main,1,1,2,neutral,negative,l,l,1,0.9764127999997072,545.0251281999999,546.0300779999998,546.0084721999997,None,545.0251281999999,None,545.0251281999999,None,545.0251281999999,None,546.97785926,None,546.97785926,None,546.97785926,None,,,,,,,,,,,215,20,Female,2022-05-11_16h50.32.711,Main,2022.1.1,60.09405922144996,
negative,negative,2,j,l,,,,,,,,,11,13,211,9,,,,,,,,,,,,,,,,,,,,,,,,main,1,1,2,negative,negative,l,l,1,0.6400453999999627,547.011508,548.0321848999997,547.9892096999997,None,547.011508,None,547.011508,None,547.011508,None,548.6230908599999,None,548.6230908599999,None,548.6230908599999,None,,,,,,,,,,,215,20,Female,2022-05-11_16h50.32.711,Main,2022.1.1,60.09405922144996,
