target,distractor,set,ans1,ans2,rep_loop2.thisRepN,rep_loop2.thisTrialN,rep_loop2.thisN,rep_loop2.thisIndex,flanker_prac_loop.thisRepN,flanker_prac_loop.thisTrialN,flanker_prac_loop.thisN,flanker_prac_loop.thisIndex,flanker_main_loop.thisRepN,flanker_main_loop.thisTrialN,flanker_main_loop.thisN,flanker_main_loop.thisIndex,fl_inst_resp.keys,mouse.x,mouse.y,mouse.leftButton,mouse.midButton,mouse.rightButton,mouse.started,mouse.stopped,sound_1.started,sound_1.stopped,no_text.started,no_text.stopped,yes_text.started,yes_text.stopped,mouse_2.x,mouse_2.y,mouse_2.leftButton,mouse_2.midButton,mouse_2.rightButton,mouse_2.started,mouse_2.stopped,back_2.started,back_2.stopped,main_prac,fl_cold,fl_colt,fl_set,fl_dcond,fl_tcond,fl_ans,fl_res,fl_corr,fl_rt,fix_fl.started,fix_fl.stopped,targ.started,targ.stopped,j_button.started,j_button.stopped,k_button.started,k_button.stopped,l_button.started,l_button.stopped,j_button2.started,j_button2.stopped,k_button2.started,k_button2.stopped,l_button2.started,l_button2.stopped,mainback.started,mainback.stopped,key_resp.keys,mouse_6.x,mouse_6.y,mouse_6.leftButton,mouse_6.midButton,mouse_6.rightButton,mouse_6.started,mouse_6.stopped,id*,age*,gender*,date,expName,psychopyVersion,frameRate,
,,,,,0,0,0,0,,,,,,,,,None,0.16296296,-0.39166668,0,0,0,1.0058657999979914,None,24.104834749999963,None,73.23435839999956,None,73.23435839999956,None,-0.083333336,-0.058333334,0,0,0,0.012209350000375707,None,,,,,,,,,,,,,,,,,,,,,,,,,,,,,,,,,,,,,,,216,25,Male,2022-05-13_14h10.31.161,Main,2022.1.1,60.016552565255324,
negative,positive,1,j,l,,,,,0,0,0,6,,,,,,,,,,,,,,,,,,,,,,,,,,76.93134139999984,None,prac,1,1,1,positive,negative,j,j,1,1.9282698000001801,78.98966419999988,80.00283729999956,79.96326079999972,None,78.98966419999988,None,78.98966419999988,None,78.98966419999988,None,81.9039785,None,81.9039785,None,81.9039785,None,,,,,,,,,,,216,25,Male,2022-05-13_14h10.31.161,Main,2022.1.1,60.016552565255324,
negative,neutral,2,j,l,,,,,0,1,1,12,,,,,,,,,,,,,,,,,,,,,,,,,,,,prac,2,2,2,neutral,negative,j,j,1,1.2217058999999608,82.94783209999969,83.95065059999979,83.93179069999996,None,82.94783209999969,None,82.94783209999969,None,82.94783209999969,None,85.12877854999984,None,85.12877854999984,None,85.12877854999984,None,,,,,,,,,,,216,25,Male,2022-05-13_14h10.31.161,Main,2022.1.1,60.016552565255324,
neutral,positive,2,k,k,,,,,0,2,2,13,,,,,,,,,,,,,,,,,,,,,,,,,,,,prac,2,2,2,positive,neutral,k,k,1,0.8909644000000299,85.16374379999979,86.18275419999964,86.14462429999958,None,85.16374379999979,None,85.16374379999979,None,85.16374379999979,None,87.02032474999983,None,87.02032474999983,None,87.02032474999983,None,,,,,,,,,,,216,25,Male,2022-05-13_14h10.31.161,Main,2022.1.1,60.016552565255324,
positive,positive,2,l,j,,,,,0,3,3,11,,,,,,,,,,,,,,,,,,,,,,,,,,,,prac,2,2,2,positive,positive,l,l,1,0.8651236999999128,87.04229699999996,88.04885619999959,88.0290514999997,None,87.04229699999996,None,87.04229699999996,None,87.04229699999996,None,88.88924825,None,88.88924825,None,88.88924825,None,,,,,,,,,,,216,25,Male,2022-05-13_14h10.31.161,Main,2022.1.1,60.016552565255324,
neutral,positive,1,k,k,,,,,0,4,4,4,,,,,,,,,,,,,,,,,,,,,,,,,,,,prac,2,2,1,positive,neutral,k,k,1,0.9842862000000423,88.9326289999999,89.95174999999972,89.9123927999999,None,88.9326289999999,None,88.9326289999999,None,88.9326289999999,None,90.87508124999972,None,90.87508124999972,None,90.87508124999972,None,,,,,,,,,,,216,25,Male,2022-05-13_14h10.31.161,Main,2022.1.1,60.016552565255324,
positive,neutral,2,l,j,,,,,0,5,5,17,,,,,,,,,,,,,,,,,,,,,,,,,,,,prac,2,2,2,neutral,positive,l,l,1,0.8343758999999409,90.89707599999974,91.91559319999988,91.87623329999997,None,90.89707599999974,None,90.89707599999974,None,90.89707599999974,None,92.71310814999966,None,92.71310814999966,None,92.71310814999966,None,,,,,,,,,,,216,25,Male,2022-05-13_14h10.31.161,Main,2022.1.1,60.016552565255324,
neutral,neutral,1,k,k,,,,,0,6,6,1,,,,,,,,,,,,,,,,,,,,,,,,,,,,prac,2,2,1,neutral,neutral,k,k,1,0.9285260999999991,92.74335679999967,93.75894929999959,93.74210869999979,None,92.74335679999967,None,92.74335679999967,None,92.74335679999967,None,94.64475085,None,94.64475085,None,94.64475085,None,,,,,,,,,,,216,25,Male,2022-05-13_14h10.31.161,Main,2022.1.1,60.016552565255324,
positive,negative,2,l,j,,,,,0,7,7,14,,,,,,,,,,,,,,,,,,,,,,,,,,,,prac,2,2,2,negative,positive,l,l,1,0.8262363000003461,94.67469809999966,95.6844458999999,95.66483069999958,None,94.67469809999966,None,94.67469809999966,None,94.67469809999966,None,96.47120264999963,None,96.47120264999963,None,96.47120264999963,None,,,,,,,,,,,216,25,Male,2022-05-13_14h10.31.161,Main,2022.1.1,60.016552565255324,
negative,neutral,1,j,l,,,,,0,8,8,3,,,,,,,,,,,,,,,,,,,,,,,,,,,,prac,2,2,1,neutral,negative,j,j,1,0.8212820000003376,96.50358759999972,97.5116737999997,97.49220149999974,None,96.50358759999972,None,96.50358759999972,None,96.50358759999972,None,98.29762184999977,None,98.29762184999977,None,98.29762184999977,None,,,,,,,,,,,216,25,Male,2022-05-13_14h10.31.161,Main,2022.1.1,60.016552565255324,
positive,neutral,1,l,j,,,,,0,9,9,8,,,,,,,,,,,,,,,,,,,,,,,,,,,,prac,2,2,1,neutral,positive,l,l,1,0.9195846000002348,98.31740929999978,99.32918389999986,99.29179699999986,None,98.31740929999978,None,98.31740929999978,None,98.31740929999978,None,100.21839664999966,None,100.21839664999966,None,100.21839664999966,None,,,,,,,,,,,216,25,Male,2022-05-13_14h10.31.161,Main,2022.1.1,60.016552565255324,
negative,negative,1,j,l,,,,,0,10,10,0,,,,,,,,,,,,,,,,,,,,,,,,,,,,prac,1,1,1,negative,negative,j,j,1,1.2399129000000357,100.25032249999958,101.25478589999966,101.23578739999994,None,100.25032249999958,None,100.25032249999958,None,100.25032249999958,None,102.46173684999981,None,102.46173684999981,None,102.46173684999981,None,,,,,,,,,,,216,25,Male,2022-05-13_14h10.31.161,Main,2022.1.1,60.016552565255324,
neutral,neutral,2,k,k,,,,,0,11,11,10,,,,,,,,,,,,,,,,,,,,,,,,,,,,prac,2,2,2,neutral,neutral,k,k,1,0.7682660999998916,102.48152249999976,103.4889705999999,103.47049899999956,None,102.48152249999976,None,102.48152249999976,None,102.48152249999976,None,104.23230364999968,None,104.23230364999968,None,104.23230364999968,None,,,,,,,,,,,216,25,Male,2022-05-13_14h10.31.161,Main,2022.1.1,60.016552565255324,
positive,positive,1,l,j,,,,,0,12,12,2,,,,,,,,,,,,,,,,,,,,,,,,,,,,prac,1,1,1,positive,positive,l,l,1,0.9225953000000118,104.25333939999973,105.26811129999987,105.23055509999995,None,104.25333939999973,None,104.25333939999973,None,104.25333939999973,None,106.15914334999975,None,106.15914334999975,None,106.15914334999975,None,,,,,,,,,,,216,25,Male,2022-05-13_14h10.31.161,Main,2022.1.1,60.016552565255324,
negative,positive,2,j,l,,,,,0,13,13,15,,,,,,,,,,,,,,,,,,,,,,,,,,,,prac,1,1,2,positive,negative,j,j,1,0.8654484999997294,106.19941419999986,107.21317069999986,107.17521019999958,None,106.19941419999986,None,106.19941419999986,None,106.19941419999986,None,108.02647054999984,None,108.02647054999984,None,108.02647054999984,None,,,,,,,,,,,216,25,Male,2022-05-13_14h10.31.161,Main,2022.1.1,60.016552565255324,
positive,negative,1,l,j,,,,,0,14,14,5,,,,,,,,,,,,,,,,,,,,,,,,,,,,prac,2,2,1,negative,positive,l,l,1,0.768213299999843,108.05632309999964,109.07403319999958,109.05558579999979,None,108.05632309999964,None,108.05632309999964,None,108.05632309999964,None,109.79759634999978,None,109.79759634999978,None,109.79759634999978,None,,,,,,,,,,,216,25,Male,2022-05-13_14h10.31.161,Main,2022.1.1,60.016552565255324,
neutral,negative,2,k,k,,,,,0,15,15,16,,,,,,,,,,,,,,,,,,,,,,,,,,,,prac,2,2,2,negative,neutral,k,k,1,0.7071964000001572,109.81833669999969,110.83409659999961,110.79559039999958,None,109.81833669999969,None,109.81833669999969,None,109.81833669999969,None,111.5072387499999,None,111.5072387499999,None,111.5072387499999,None,,,,,,,,,,,216,25,Male,2022-05-13_14h10.31.161,Main,2022.1.1,60.016552565255324,
neutral,negative,1,k,k,,,,,0,16,16,7,,,,,,,,,,,,,,,,,,,,,,,,,,,,prac,1,1,1,negative,neutral,k,k,1,0.7013730000003306,111.53952769999978,112.54541199999994,112.52669809999998,None,111.53952769999978,None,111.53952769999978,None,111.53952769999978,None,113.2121636499996,None,113.2121636499996,None,113.2121636499996,None,,,,,,,,,,,216,25,Male,2022-05-13_14h10.31.161,Main,2022.1.1,60.016552565255324,
negative,negative,2,j,l,,,,,0,17,17,9,,,,,,,,,,,,,,,,,,,,,,,,,,,,prac,2,2,2,negative,negative,j,j,1,1.0057682000001478,113.23172269999986,114.23534219999965,114.21735979999994,None,113.23172269999986,None,113.23172269999986,None,113.23172269999986,None,115.21833134999993,None,115.21833134999993,None,115.21833134999993,None,,,,,,,,,,,216,25,Male,2022-05-13_14h10.31.161,Main,2022.1.1,60.016552565255324,
positive,negative,2,l,j,,,,,1,0,18,14,,,,,,,,,,,,,,,,,,,,,,,,,,,,prac,2,2,2,negative,positive,l,l,1,0.7561843999997109,115.23796169999969,116.25557059999983,116.21728319999966,None,115.23796169999969,None,115.23796169999969,None,115.23796169999969,None,116.97841184999966,None,116.97841184999966,None,116.97841184999966,None,,,,,,,,,,,216,25,Male,2022-05-13_14h10.31.161,Main,2022.1.1,60.016552565255324,
positive,neutral,1,l,j,,,,,1,1,19,8,,,,,,,,,,,,,,,,,,,,,,,,,,,,prac,2,2,1,neutral,positive,l,l,1,0.8775550000000294,116.99798339999961,118.00553579999996,117.97016939999958,None,116.99798339999961,None,116.99798339999961,None,116.99798339999961,None,118.85844884999956,None,118.85844884999956,None,118.85844884999956,None,,,,,,,,,,,216,25,Male,2022-05-13_14h10.31.161,Main,2022.1.1,60.016552565255324,
neutral,neutral,2,k,k,,,,,1,2,20,10,,,,,,,,,,,,,,,,,,,,,,,,,,,,prac,2,2,2,neutral,neutral,k,k,1,0.6977342000000135,118.87800169999991,119.89265129999967,119.85522319999973,None,118.87800169999991,None,118.87800169999991,None,118.87800169999991,None,120.55864404999961,None,120.55864404999961,None,120.55864404999961,None,,,,,,,,,,,216,25,Male,2022-05-13_14h10.31.161,Main,2022.1.1,60.016552565255324,
negative,negative,1,j,l,,,,,1,3,21,0,,,,,,,,,,,,,,,,,,,,,,,,,,,,prac,1,1,1,negative,negative,j,j,1,0.8138944000002084,120.58083039999974,121.59253339999987,121.55490499999996,None,120.58083039999974,None,120.58083039999974,None,120.58083039999974,None,122.37393174999984,None,122.37393174999984,None,122.37393174999984,None,,,,,,,,,,,216,25,Male,2022-05-13_14h10.31.161,Main,2022.1.1,60.016552565255324,
positive,negative,1,l,j,,,,,1,4,22,5,,,,,,,,,,,,,,,,,,,,,,,,,,,,prac,2,2,1,negative,positive,l,l,1,0.7669982000002165,122.39376739999989,123.39541109999982,123.37687469999992,None,122.39376739999989,None,122.39376739999989,None,122.39376739999989,None,124.14353344999968,None,124.14353344999968,None,124.14353344999968,None,,,,,,,,,,,216,25,Male,2022-05-13_14h10.31.161,Main,2022.1.1,60.016552565255324,
positive,neutral,2,l,j,,,,,1,5,23,17,,,,,,,,,,,,,,,,,,,,,,,,,,,,prac,1,1,2,neutral,positive,l,l,1,0.67564880000009,124.18085389999987,125.19675519999964,125.15858329999992,None,124.18085389999987,None,124.18085389999987,None,124.18085389999987,None,125.81966174999975,None,125.81966174999975,None,125.81966174999975,None,,,,,,,,,,,216,25,Male,2022-05-13_14h10.31.161,Main,2022.1.1,60.016552565255324,
negative,neutral,1,j,l,,,,,1,6,24,3,,,,,,,,,,,,,,,,,,,,,,,,,,,,prac,1,1,1,neutral,negative,j,j,1,0.8842626000000564,125.85181159999956,126.85850829999981,126.83874999999989,None,125.85181159999956,None,125.85181159999956,None,125.85181159999956,None,127.7080468499998,None,127.7080468499998,None,127.7080468499998,None,,,,,,,,,,,216,25,Male,2022-05-13_14h10.31.161,Main,2022.1.1,60.016552565255324,
negative,negative,2,j,l,,,,,1,7,25,9,,,,,,,,,,,,,,,,,,,,,,,,,,,,prac,1,1,2,negative,negative,j,j,1,0.7573044000000664,127.7381790999998,128.74994679999963,128.73172069999964,None,127.7381790999998,None,127.7381790999998,None,127.7381790999998,None,129.46596104999975,None,129.46596104999975,None,129.46596104999975,None,,,,,,,,,,,216,25,Male,2022-05-13_14h10.31.161,Main,2022.1.1,60.016552565255324,
negative,neutral,2,j,l,,,,,1,8,26,12,,,,,,,,,,,,,,,,,,,,,,,,,,,,prac,1,1,2,neutral,negative,j,j,1,0.6003245000001698,129.48560739999994,130.50478699999985,130.46729579999965,None,129.48560739999994,None,129.48560739999994,None,129.48560739999994,None,131.06881904999995,None,131.06881904999995,None,131.06881904999995,None,,,,,,,,,,,216,25,Male,2022-05-13_14h10.31.161,Main,2022.1.1,60.016552565255324,
positive,positive,2,l,j,,,,,1,9,27,11,,,,,,,,,,,,,,,,,,,,,,,,,,,,prac,2,2,2,positive,positive,l,l,1,0.7823794999999336,131.0886945999996,132.0900690999997,132.071371,None,131.0886945999996,None,131.0886945999996,None,131.0886945999996,None,132.85352804999997,None,132.85352804999997,None,132.85352804999997,None,,,,,,,,,,,216,25,Male,2022-05-13_14h10.31.161,Main,2022.1.1,60.016552565255324,
neutral,positive,1,k,k,,,,,1,10,28,4,,,,,,,,,,,,,,,,,,,,,,,,,,,,prac,1,1,1,positive,neutral,k,k,1,0.856029099999887,132.87455249999994,133.87927009999976,133.8601993999996,None,132.87455249999994,None,132.87455249999994,None,132.87455249999994,None,134.71201534999994,None,134.71201534999994,None,134.71201534999994,None,,,,,,,,,,,216,25,Male,2022-05-13_14h10.31.161,Main,2022.1.1,60.016552565255324,
neutral,negative,2,k,k,,,,,1,11,29,16,,,,,,,,,,,,,,,,,,,,,,,,,,,,prac,2,2,2,negative,neutral,k,l,0,0.5641160000000127,134.73299769999994,135.74862989999974,135.71199669999987,None,134.73299769999994,None,134.73299769999994,None,134.73299769999994,None,136.2874439999996,None,136.2874439999996,None,136.2874439999996,None,,,,,,,,,,,216,25,Male,2022-05-13_14h10.31.161,Main,2022.1.1,60.016552565255324,
neutral,neutral,1,k,k,,,,,1,12,30,1,,,,,,,,,,,,,,,,,,,,,,,,,,,,prac,2,2,1,neutral,neutral,k,k,1,0.6838900000002468,137.30225189999965,138.31879169999957,138.2812683999996,None,137.30225189999965,None,137.30225189999965,None,137.30225189999965,None,138.96531874999977,None,138.96531874999977,None,138.96531874999977,None,,,,,,,,,,,216,25,Male,2022-05-13_14h10.31.161,Main,2022.1.1,60.016552565255324,
positive,positive,1,l,j,,,,,1,13,31,2,,,,,,,,,,,,,,,,,,,,,,,,,,,,prac,2,2,1,positive,positive,l,l,1,0.7075524000001678,138.9861707,139.99131849999958,139.97177659999988,None,138.9861707,None,138.9861707,None,138.9861707,None,140.6774086499999,None,140.6774086499999,None,140.6774086499999,None,,,,,,,,,,,216,25,Male,2022-05-13_14h10.31.161,Main,2022.1.1,60.016552565255324,
negative,positive,2,j,l,,,,,1,14,32,15,,,,,,,,,,,,,,,,,,,,,,,,,,,,prac,2,2,2,positive,negative,j,j,1,0.7983773999999357,140.69904849999966,141.70321169999988,141.68301989999964,None,140.69904849999966,None,140.69904849999966,None,140.69904849999966,None,142.4782392499996,None,142.4782392499996,None,142.4782392499996,None,,,,,,,,,,,216,25,Male,2022-05-13_14h10.31.161,Main,2022.1.1,60.016552565255324,
neutral,negative,1,k,k,,,,,1,15,33,7,,,,,,,,,,,,,,,,,,,,,,,,,,,,prac,1,1,1,negative,neutral,k,k,1,0.7428816999999981,142.49776859999974,143.50310409999975,143.48435519999975,None,142.49776859999974,None,142.49776859999974,None,142.49776859999974,None,144.2251290499998,None,144.2251290499998,None,144.2251290499998,None,,,,,,,,,,,216,25,Male,2022-05-13_14h10.31.161,Main,2022.1.1,60.016552565255324,
negative,positive,1,j,l,,,,,1,16,34,6,,,,,,,,,,,,,,,,,,,,,,,,,,,,prac,1,1,1,positive,negative,j,j,1,1.6885008999997808,144.24483369999962,145.25620629999958,145.21819189999997,None,144.24483369999962,None,144.24483369999962,None,144.24483369999962,None,146.91983549999986,None,146.91983549999986,None,146.91983549999986,None,,,,,,,,,,,216,25,Male,2022-05-13_14h10.31.161,Main,2022.1.1,60.016552565255324,
neutral,positive,2,k,k,,,,,1,17,35,13,,,,,,,,,,,,,,,,,,,,,,,,,,,,prac,1,1,2,positive,neutral,k,k,1,0.9453713000002608,147.93392159999985,148.95365829999992,148.91513189999978,None,147.93392159999985,None,147.93392159999985,None,147.93392159999985,None,149.8600273499996,None,149.8600273499996,None,149.8600273499996,None,,,,,,,,,,,216,25,Male,2022-05-13_14h10.31.161,Main,2022.1.1,60.016552565255324,
,,,,,,,,,,,,,,,,,,,,,,,,,,,,,,,,,,,,,,,,,,,,,,,,,,,,,,,,,,,,,,,,,,149.86680369999976,None,None,,,,,,,,216,25,Male,2022-05-13_14h10.31.161,Main,2022.1.1,60.016552565255324,
,,,,,,,,,,,,,,,,,,,,,,,,,,,,,,,,,,,,,,,,,,,,,,,,,,,,,,,,,,,,,,,,,,,,,-0.0074074073,-0.037962962,1,0,0,0.00394384999981412,None,216,25,Male,2022-05-13_14h10.31.161,Main,2022.1.1,60.016552565255324,
neutral,positive,2,k,k,,,,,,,,,0,0,0,13,,,,,,,,,,,,,,,,,,,,,,162.8703605999999,None,main,2,2,2,positive,neutral,k,k,1,0.6438488000003417,164.89218079999955,165.90425289999985,165.86442949999991,None,164.89218079999955,None,164.89218079999955,None,164.89218079999955,None,166.5138285499997,None,166.5138285499997,None,166.5138285499997,None,,,,,,,,,,,216,25,Male,2022-05-13_14h10.31.161,Main,2022.1.1,60.016552565255324,
negative,negative,1,j,l,,,,,,,,,0,1,1,0,,,,,,,,,,,,,,,,,,,,,,,,main,1,1,1,negative,negative,j,j,1,0.7601620000000366,166.53747449999992,167.54457139999977,167.52401549999968,None,166.53747449999992,None,166.53747449999992,None,166.53747449999992,None,168.27799224999984,None,168.27799224999984,None,168.27799224999984,None,,,,,,,,,,,216,25,Male,2022-05-13_14h10.31.161,Main,2022.1.1,60.016552565255324,
negative,positive,1,j,l,,,,,,,,,0,2,2,6,,,,,,,,,,,,,,,,,,,,,,,,main,2,2,1,positive,negative,j,j,1,0.7348207000000002,168.29864139999972,169.31692989999965,169.2791685999996,None,168.29864139999972,None,168.29864139999972,None,168.29864139999972,None,170.01709524999973,None,170.01709524999973,None,170.01709524999973,None,,,,,,,,,,,216,25,Male,2022-05-13_14h10.31.161,Main,2022.1.1,60.016552565255324,
positive,negative,2,l,j,,,,,,,,,0,3,3,14,,,,,,,,,,,,,,,,,,,,,,,,main,1,1,2,negative,positive,l,l,1,0.6918436999999358,170.0374723,171.04590319999988,171.02728119999983,None,170.0374723,None,170.0374723,None,170.0374723,None,171.70941484999997,None,171.70941484999997,None,171.70941484999997,None,,,,,,,,,,,216,25,Male,2022-05-13_14h10.31.161,Main,2022.1.1,60.016552565255324,
neutral,positive,1,k,k,,,,,,,,,0,4,4,4,,,,,,,,,,,,,,,,,,,,,,,,main,1,1,1,positive,neutral,k,k,1,0.6414010999997117,171.73070119999966,172.74918009999965,172.71216419999973,None,171.73070119999966,None,171.73070119999966,None,171.73070119999966,None,173.3556990499996,None,173.3556990499996,None,173.3556990499996,None,,,,,,,,,,,216,25,Male,2022-05-13_14h10.31.161,Main,2022.1.1,60.016552565255324,
positive,negative,1,l,j,,,,,,,,,0,5,5,5,,,,,,,,,,,,,,,,,,,,,,,,main,2,2,1,negative,positive,l,l,1,0.7327833999997893,173.37983269999995,174.38517839999986,174.36580879999974,None,173.37983269999995,None,173.37983269999995,None,173.37983269999995,None,175.0920742499997,None,175.0920742499997,None,175.0920742499997,None,,,,,,,,,,,216,25,Male,2022-05-13_14h10.31.161,Main,2022.1.1,60.016552565255324,
positive,neutral,1,l,j,,,,,,,,,0,6,6,8,,,,,,,,,,,,,,,,,,,,,,,,main,2,2,1,neutral,positive,l,l,1,0.6835784999998396,175.11350019999963,176.1224970999997,176.1017936999997,None,175.11350019999963,None,175.11350019999963,None,175.11350019999963,None,176.77804354999984,None,176.77804354999984,None,176.77804354999984,None,,,,,,,,,,,216,25,Male,2022-05-13_14h10.31.161,Main,2022.1.1,60.016552565255324,
positive,positive,1,l,j,,,,,,,,,0,7,7,2,,,,,,,,,,,,,,,,,,,,,,,,main,2,2,1,positive,positive,l,l,1,0.6092269999999189,176.80290319999995,177.82146829999965,177.7823881999998,None,176.80290319999995,None,176.80290319999995,None,176.80290319999995,None,178.38989884999995,None,178.38989884999995,None,178.38989884999995,None,,,,,,,,,,,216,25,Male,2022-05-13_14h10.31.161,Main,2022.1.1,60.016552565255324,
negative,neutral,1,j,l,,,,,,,,,0,8,8,3,,,,,,,,,,,,,,,,,,,,,,,,main,2,2,1,neutral,negative,j,j,1,0.782881599999655,178.41010179999967,179.41427749999957,179.39572009999983,None,178.41010179999967,None,178.41010179999967,None,178.41010179999967,None,180.17521134999964,None,180.17521134999964,None,180.17521134999964,None,,,,,,,,,,,216,25,Male,2022-05-13_14h10.31.161,Main,2022.1.1,60.016552565255324,
positive,positive,2,l,j,,,,,,,,,0,9,9,11,,,,,,,,,,,,,,,,,,,,,,,,main,1,1,2,positive,positive,l,l,1,0.7033289999999397,180.19548229999964,181.19788359999984,181.18095369999992,None,180.19548229999964,None,180.19548229999964,None,180.19548229999964,None,181.88331314999954,None,181.88331314999954,None,181.88331314999954,None,,,,,,,,,,,216,25,Male,2022-05-13_14h10.31.161,Main,2022.1.1,60.016552565255324,
neutral,negative,1,k,k,,,,,,,,,0,10,10,7,,,,,,,,,,,,,,,,,,,,,,,,main,2,2,1,negative,neutral,k,k,1,0.793249399999695,181.9025448999996,182.92197559999977,182.88352189999978,None,181.9025448999996,None,181.9025448999996,None,181.9025448999996,None,183.67705904999997,None,183.67705904999997,None,183.67705904999997,None,,,,,,,,,,,216,25,Male,2022-05-13_14h10.31.161,Main,2022.1.1,60.016552565255324,
negative,positive,2,j,l,,,,,,,,,0,11,11,15,,,,,,,,,,,,,,,,,,,,,,,,main,2,2,2,positive,negative,j,j,1,0.9330896999999823,183.70098989999997,184.72096049999982,184.68092849999994,None,183.70098989999997,None,183.70098989999997,None,183.70098989999997,None,185.61414384999983,None,185.61414384999983,None,185.61414384999983,None,,,,,,,,,,,216,25,Male,2022-05-13_14h10.31.161,Main,2022.1.1,60.016552565255324,
negative,negative,2,j,l,,,,,,,,,0,12,12,9,,,,,,,,,,,,,,,,,,,,,,,,main,2,2,2,negative,negative,j,j,1,0.6950432000003275,185.6340393999999,186.64754859999994,186.60942499999965,None,185.6340393999999,None,185.6340393999999,None,185.6340393999999,None,187.31049904999958,None,187.31049904999958,None,187.31049904999958,None,,,,,,,,,,,216,25,Male,2022-05-13_14h10.31.161,Main,2022.1.1,60.016552565255324,
negative,neutral,2,j,l,,,,,,,,,0,13,13,12,,,,,,,,,,,,,,,,,,,,,,,,main,2,2,2,neutral,negative,j,j,1,1.0529366999999183,187.33028909999985,188.33713869999974,188.3171954999998,None,187.33028909999985,None,187.33028909999985,None,187.33028909999985,None,189.36440444999965,None,189.36440444999965,None,189.36440444999965,None,,,,,,,,,,,216,25,Male,2022-05-13_14h10.31.161,Main,2022.1.1,60.016552565255324,
positive,neutral,2,l,j,,,,,,,,,0,14,14,17,,,,,,,,,,,,,,,,,,,,,,,,main,1,1,2,neutral,positive,l,l,1,0.7270542999999634,189.38935299999957,190.3973004999998,190.37951339999972,None,189.38935299999957,None,189.38935299999957,None,189.38935299999957,None,191.0972367499998,None,191.0972367499998,None,191.0972367499998,None,,,,,,,,,,,216,25,Male,2022-05-13_14h10.31.161,Main,2022.1.1,60.016552565255324,
neutral,neutral,1,k,k,,,,,,,,,0,15,15,1,,,,,,,,,,,,,,,,,,,,,,,,main,2,2,1,neutral,neutral,k,k,1,0.730723399999988,191.11828659999992,192.13038119999965,192.0933898999997,None,191.11828659999992,None,191.11828659999992,None,191.11828659999992,None,192.83144674999988,None,192.83144674999988,None,192.83144674999988,None,,,,,,,,,,,216,25,Male,2022-05-13_14h10.31.161,Main,2022.1.1,60.016552565255324,
neutral,negative,2,k,k,,,,,,,,,0,16,16,16,,,,,,,,,,,,,,,,,,,,,,,,main,2,2,2,negative,neutral,k,k,1,0.6633450999997876,192.850868,193.8570497999999,193.83886639999992,None,192.850868,None,192.850868,None,192.850868,None,194.4973471499997,None,194.4973471499997,None,194.4973471499997,None,,,,,,,,,,,216,25,Male,2022-05-13_14h10.31.161,Main,2022.1.1,60.016552565255324,
neutral,neutral,2,k,k,,,,,,,,,0,17,17,10,,,,,,,,,,,,,,,,,,,,,,,,main,2,2,2,neutral,neutral,k,k,1,0.5623626999999942,194.51705859999993,195.5239174999997,195.50495079999973,None,194.51705859999993,None,194.51705859999993,None,194.51705859999993,None,196.0605470499999,None,196.0605470499999,None,196.0605470499999,None,,,,,,,,,,,216,25,Male,2022-05-13_14h10.31.161,Main,2022.1.1,60.016552565255324,
negative,positive,2,j,l,,,,,,,,,1,0,18,15,,,,,,,,,,,,,,,,,,,,,,,,main,1,1,2,positive,negative,j,j,1,0.8786877000002278,196.08210919999965,197.0904856999996,197.07278589999987,None,196.08210919999965,None,196.08210919999965,None,196.08210919999965,None,197.94072514999965,None,197.94072514999965,None,197.94072514999965,None,,,,,,,,,,,216,25,Male,2022-05-13_14h10.31.161,Main,2022.1.1,60.016552565255324,
negative,positive,1,j,l,,,,,,,,,1,1,19,6,,,,,,,,,,,,,,,,,,,,,,,,main,2,2,1,positive,negative,j,j,1,1.0041959000000134,197.9628005999998,198.98249269999997,198.94366679999985,None,197.9628005999998,None,197.9628005999998,None,197.9628005999998,None,199.95004854999974,None,199.95004854999974,None,199.95004854999974,None,,,,,,,,,,,216,25,Male,2022-05-13_14h10.31.161,Main,2022.1.1,60.016552565255324,
negative,negative,1,j,l,,,,,,,,,1,2,20,0,,,,,,,,,,,,,,,,,,,,,,,,main,1,1,1,negative,negative,j,j,1,0.6699533999999403,199.9726765999999,200.97874509999974,200.9623870999999,None,199.9726765999999,None,199.9726765999999,None,199.9726765999999,None,201.62442164999987,None,201.62442164999987,None,201.62442164999987,None,,,,,,,,,,,216,25,Male,2022-05-13_14h10.31.161,Main,2022.1.1,60.016552565255324,
positive,negative,1,l,j,,,,,,,,,1,3,21,5,,,,,,,,,,,,,,,,,,,,,,,,main,1,1,1,negative,positive,l,l,1,0.8529613999999128,201.64462909999975,202.66192939999974,202.62461289999965,None,201.64462909999975,None,201.64462909999975,None,201.64462909999975,None,203.4810386499998,None,203.4810386499998,None,203.4810386499998,None,,,,,,,,,,,216,25,Male,2022-05-13_14h10.31.161,Main,2022.1.1,60.016552565255324,
neutral,negative,2,k,k,,,,,,,,,1,4,22,16,,,,,,,,,,,,,,,,,,,,,,,,main,1,1,2,negative,neutral,k,k,1,0.7101449000001594,203.50105369999983,204.5115778999998,204.4757593999998,None,203.50105369999983,None,203.50105369999983,None,203.50105369999983,None,205.19096594999968,None,205.19096594999968,None,205.19096594999968,None,,,,,,,,,,,216,25,Male,2022-05-13_14h10.31.161,Main,2022.1.1,60.016552565255324,
neutral,neutral,2,k,k,,,,,,,,,1,5,23,10,,,,,,,,,,,,,,,,,,,,,,,,main,2,2,2,neutral,neutral,k,k,1,0.6253771000001507,205.2164673999996,206.23135899999988,206.19437629999993,None,205.2164673999996,None,205.2164673999996,None,205.2164673999996,None,206.82111274999983,None,206.82111274999983,None,206.82111274999983,None,,,,,,,,,,,216,25,Male,2022-05-13_14h10.31.161,Main,2022.1.1,60.016552565255324,
positive,neutral,1,l,j,,,,,,,,,1,6,24,8,,,,,,,,,,,,,,,,,,,,,,,,main,1,1,1,neutral,positive,l,l,1,0.7159226999997372,206.84247149999965,207.85966199999984,207.82234749999998,None,206.84247149999965,None,206.84247149999965,None,206.84247149999965,None,208.5402830499997,None,208.5402830499997,None,208.5402830499997,None,,,,,,,,,,,216,25,Male,2022-05-13_14h10.31.161,Main,2022.1.1,60.016552565255324,
negative,neutral,2,j,l,,,,,,,,,1,7,25,12,,,,,,,,,,,,,,,,,,,,,,,,main,2,2,2,neutral,negative,j,j,1,0.7292045000003782,208.56041669999968,209.56874199999993,209.54951979999987,None,208.56041669999968,None,208.56041669999968,None,208.56041669999968,None,210.2721257499997,None,210.2721257499997,None,210.2721257499997,None,,,,,,,,,,,216,25,Male,2022-05-13_14h10.31.161,Main,2022.1.1,60.016552565255324,
neutral,positive,1,k,k,,,,,,,,,1,8,26,4,,,,,,,,,,,,,,,,,,,,,,,,main,2,2,1,positive,neutral,k,k,1,0.7822685999999521,210.29346659999965,211.3050174,211.2862981999997,None,210.29346659999965,None,210.29346659999965,None,210.29346659999965,None,212.05653744999967,None,212.05653744999967,None,212.05653744999967,None,,,,,,,,,,,216,25,Male,2022-05-13_14h10.31.161,Main,2022.1.1,60.016552565255324,
positive,positive,1,l,j,,,,,,,,,1,9,27,2,,,,,,,,,,,,,,,,,,,,,,,,main,2,2,1,positive,positive,l,l,1,0.5960855999996966,212.0783121999998,213.0908118999996,213.07208509999964,None,212.0783121999998,None,212.0783121999998,None,212.0783121999998,None,213.65586324999998,None,213.65586324999998,None,213.65586324999998,None,,,,,,,,,,,216,25,Male,2022-05-13_14h10.31.161,Main,2022.1.1,60.016552565255324,
neutral,positive,2,k,k,,,,,,,,,1,10,28,13,,,,,,,,,,,,,,,,,,,,,,,,main,2,2,2,positive,neutral,k,k,1,0.6017603999998755,213.67635379999956,214.6899653999999,214.65184649999992,None,213.67635379999956,None,213.67635379999956,None,213.67635379999956,None,215.26210584999984,None,215.26210584999984,None,215.26210584999984,None,,,,,,,,,,,216,25,Male,2022-05-13_14h10.31.161,Main,2022.1.1,60.016552565255324,
neutral,neutral,1,k,k,,,,,,,,,1,11,29,1,,,,,,,,,,,,,,,,,,,,,,,,main,2,2,1,neutral,neutral,k,k,1,0.9260399999998299,215.28142309999976,216.29002489999993,216.26975559999983,None,215.28142309999976,None,215.28142309999976,None,215.28142309999976,None,217.18889324999958,None,217.18889324999958,None,217.18889324999958,None,,,,,,,,,,,216,25,Male,2022-05-13_14h10.31.161,Main,2022.1.1,60.016552565255324,
positive,positive,2,l,j,,,,,,,,,1,12,30,11,,,,,,,,,,,,,,,,,,,,,,,,main,2,2,2,positive,positive,l,l,1,0.8504941000001054,217.20970179999995,218.2208713,218.20237039999984,None,217.20970179999995,None,217.20970179999995,None,217.20970179999995,None,219.04407934999966,None,219.04407934999966,None,219.04407934999966,None,,,,,,,,,,,216,25,Male,2022-05-13_14h10.31.161,Main,2022.1.1,60.016552565255324,
positive,neutral,2,l,j,,,,,,,,,1,13,31,17,,,,,,,,,,,,,,,,,,,,,,,,main,1,1,2,neutral,positive,l,l,1,0.6829361000000063,219.0654126999998,220.07178999999996,220.05368799999997,None,219.0654126999998,None,219.0654126999998,None,219.0654126999998,None,220.73095954999957,None,220.73095954999957,None,220.73095954999957,None,,,,,,,,,,,216,25,Male,2022-05-13_14h10.31.161,Main,2022.1.1,60.016552565255324,
negative,neutral,1,j,l,,,,,,,,,1,14,32,3,,,,,,,,,,,,,,,,,,,,,,,,main,1,1,1,neutral,negative,j,j,1,0.7927689999996801,220.7505441999997,221.7567740999998,221.73745789999975,None,220.7505441999997,None,220.7505441999997,None,220.7505441999997,None,222.52638414999996,None,222.52638414999996,None,222.52638414999996,None,,,,,,,,,,,216,25,Male,2022-05-13_14h10.31.161,Main,2022.1.1,60.016552565255324,
negative,negative,2,j,l,,,,,,,,,1,15,33,9,,,,,,,,,,,,,,,,,,,,,,,,main,2,2,2,negative,negative,j,j,1,0.8383029999999962,222.5457007,223.55579959999977,223.5181220999998,None,222.5457007,None,222.5457007,None,222.5457007,None,224.36703654999968,None,224.36703654999968,None,224.36703654999968,None,,,,,,,,,,,216,25,Male,2022-05-13_14h10.31.161,Main,2022.1.1,60.016552565255324,
neutral,negative,1,k,k,,,,,,,,,1,16,34,7,,,,,,,,,,,,,,,,,,,,,,,,main,1,1,1,negative,neutral,k,k,1,0.7946708999998009,224.38812859999962,225.40793219999978,225.3702303,None,224.38812859999962,None,224.38812859999962,None,224.38812859999962,None,226.16654944999976,None,226.16654944999976,None,226.16654944999976,None,,,,,,,,,,,216,25,Male,2022-05-13_14h10.31.161,Main,2022.1.1,60.016552565255324,
positive,negative,2,l,j,,,,,,,,,1,17,35,14,,,,,,,,,,,,,,,,,,,,,,,,main,2,2,2,negative,positive,l,l,1,0.7349557000002278,226.18834909999987,227.19033339999987,227.17189069999995,None,226.18834909999987,None,226.18834909999987,None,226.18834909999987,None,227.90458704999986,None,227.90458704999986,None,227.90458704999986,None,,,,,,,,,,,216,25,Male,2022-05-13_14h10.31.161,Main,2022.1.1,60.016552565255324,
neutral,neutral,2,k,k,,,,,,,,,2,0,36,10,,,,,,,,,,,,,,,,,,,,,,,,main,1,1,2,neutral,neutral,k,k,1,0.6752092000001539,227.92482859999973,228.94272079999973,228.90488989999994,None,227.92482859999973,None,227.92482859999973,None,227.92482859999973,None,229.58313654999978,None,229.58313654999978,None,229.58313654999978,None,,,,,,,,,,,216,25,Male,2022-05-13_14h10.31.161,Main,2022.1.1,60.016552565255324,
negative,negative,2,j,l,,,,,,,,,2,1,37,9,,,,,,,,,,,,,,,,,,,,,,,,main,2,2,2,negative,negative,j,j,1,0.8902877000000444,229.60392909999973,230.6072079999999,230.58895239999993,None,229.60392909999973,None,229.60392909999973,None,229.60392909999973,None,231.47824724999958,None,231.47824724999958,None,231.47824724999958,None,,,,,,,,,,,216,25,Male,2022-05-13_14h10.31.161,Main,2022.1.1,60.016552565255324,
neutral,negative,1,k,k,,,,,,,,,2,2,38,7,,,,,,,,,,,,,,,,,,,,,,,,main,2,2,1,negative,neutral,k,k,1,0.6609459000001152,231.4977399999998,232.51316659999975,232.4749422,None,231.4977399999998,None,231.4977399999998,None,231.4977399999998,None,233.14159254999998,None,233.14159254999998,None,233.14159254999998,None,,,,,,,,,,,216,25,Male,2022-05-13_14h10.31.161,Main,2022.1.1,60.016552565255324,
neutral,negative,2,k,k,,,,,,,,,2,3,39,16,,,,,,,,,,,,,,,,,,,,,,,,main,2,2,2,negative,neutral,k,k,1,0.6472258999997393,233.1610671999997,234.16615859999956,234.14855499999976,None,233.1610671999997,None,233.1610671999997,None,233.1610671999997,None,234.7912306499997,None,234.7912306499997,None,234.7912306499997,None,,,,,,,,,,,216,25,Male,2022-05-13_14h10.31.161,Main,2022.1.1,60.016552565255324,
negative,positive,2,j,l,,,,,,,,,2,4,40,15,,,,,,,,,,,,,,,,,,,,,,,,main,2,2,2,positive,negative,j,l,0,0.6007407000001876,234.81129509999982,235.82882199999995,235.78975339999988,None,234.81129509999982,None,234.81129509999982,None,234.81129509999982,None,236.40059989999963,None,236.40059989999963,None,236.40059989999963,None,,,,,,,,,,,216,25,Male,2022-05-13_14h10.31.161,Main,2022.1.1,60.016552565255324,
positive,positive,1,l,j,,,,,,,,,2,5,41,2,,,,,,,,,,,,,,,,,,,,,,,,main,1,1,1,positive,positive,l,l,1,0.7197434999998222,237.42218399999956,238.43744959999958,238.40142799999967,None,237.42218399999956,None,237.42218399999956,None,237.42218399999956,None,239.12382314999962,None,239.12382314999962,None,239.12382314999962,None,,,,,,,,,,,216,25,Male,2022-05-13_14h10.31.161,Main,2022.1.1,60.016552565255324,
positive,neutral,2,l,j,,,,,,,,,2,6,42,17,,,,,,,,,,,,,,,,,,,,,,,,main,1,1,2,neutral,positive,l,l,1,0.706839200000104,239.14355859999978,240.15299819999973,240.13425279999956,None,239.14355859999978,None,239.14355859999978,None,239.14355859999978,None,240.83194654999983,None,240.83194654999983,None,240.83194654999983,None,,,,,,,,,,,216,25,Male,2022-05-13_14h10.31.161,Main,2022.1.1,60.016552565255324,
positive,neutral,1,l,j,,,,,,,,,2,7,43,8,,,,,,,,,,,,,,,,,,,,,,,,main,1,1,1,neutral,positive,l,l,1,0.701043000000027,240.85190999999986,241.86028009999973,241.84030719999964,None,240.85190999999986,None,240.85190999999986,None,240.85190999999986,None,242.53546734999958,None,242.53546734999958,None,242.53546734999958,None,,,,,,,,,,,216,25,Male,2022-05-13_14h10.31.161,Main,2022.1.1,60.016552565255324,
negative,positive,1,j,l,,,,,,,,,2,8,44,6,,,,,,,,,,,,,,,,,,,,,,,,main,2,2,1,positive,negative,j,j,1,1.0398568999999043,242.55531399999973,243.5734453,243.53583189999972,None,242.55531399999973,None,242.55531399999973,None,242.55531399999973,None,244.57855384999988,None,244.57855384999988,None,244.57855384999988,None,,,,,,,,,,,216,25,Male,2022-05-13_14h10.31.161,Main,2022.1.1,60.016552565255324,
neutral,positive,1,k,k,,,,,,,,,2,9,45,4,,,,,,,,,,,,,,,,,,,,,,,,main,2,2,1,positive,neutral,k,k,1,0.5777760999999373,244.59998609999957,245.60971299999983,245.59104469999966,None,244.59998609999957,None,244.59998609999957,None,244.59998609999957,None,246.16166194999954,None,246.16166194999954,None,246.16166194999954,None,,,,,,,,,,,216,25,Male,2022-05-13_14h10.31.161,Main,2022.1.1,60.016552565255324,
positive,positive,2,l,j,,,,,,,,,2,10,46,11,,,,,,,,,,,,,,,,,,,,,,,,main,1,1,2,positive,positive,l,l,1,0.8068637999999737,246.1812473,247.1937154999996,247.15562139999975,None,246.1812473,None,246.1812473,None,246.1812473,None,247.97019534999976,None,247.97019534999976,None,247.97019534999976,None,,,,,,,,,,,216,25,Male,2022-05-13_14h10.31.161,Main,2022.1.1,60.016552565255324,
positive,negative,1,l,j,,,,,,,,,2,11,47,5,,,,,,,,,,,,,,,,,,,,,,,,main,2,2,1,negative,positive,l,l,1,0.7442019999998593,247.99106299999994,248.99830429999975,248.9799664999996,None,247.99106299999994,None,247.99106299999994,None,247.99106299999994,None,249.71660574999981,None,249.71660574999981,None,249.71660574999981,None,,,,,,,,,,,216,25,Male,2022-05-13_14h10.31.161,Main,2022.1.1,60.016552565255324,
neutral,neutral,1,k,k,,,,,,,,,2,12,48,1,,,,,,,,,,,,,,,,,,,,,,,,main,1,1,1,neutral,neutral,k,k,1,0.6460792000002584,249.7372645999999,250.7443199999998,250.72549139999956,None,249.7372645999999,None,249.7372645999999,None,249.7372645999999,None,251.3658295499999,None,251.3658295499999,None,251.3658295499999,None,,,,,,,,,,,216,25,Male,2022-05-13_14h10.31.161,Main,2022.1.1,60.016552565255324,
negative,neutral,1,j,l,,,,,,,,,2,13,49,3,,,,,,,,,,,,,,,,,,,,,,,,main,2,2,1,neutral,negative,j,j,1,0.8318404999999984,251.38513369999964,252.40276269999958,252.36509639999986,None,251.38513369999964,None,251.38513369999964,None,251.38513369999964,None,253.19946824999982,None,253.19946824999982,None,253.19946824999982,None,,,,,,,,,,,216,25,Male,2022-05-13_14h10.31.161,Main,2022.1.1,60.016552565255324,
negative,neutral,2,j,l,,,,,,,,,2,14,50,12,,,,,,,,,,,,,,,,,,,,,,,,main,2,2,2,neutral,negative,j,j,1,0.8518974000003254,253.22044759999972,254.23589419999962,254.1965651999999,None,253.22044759999972,None,253.22044759999972,None,253.22044759999972,None,255.05530164999976,None,255.05530164999976,None,255.05530164999976,None,,,,,,,,,,,216,25,Male,2022-05-13_14h10.31.161,Main,2022.1.1,60.016552565255324,
negative,negative,1,j,l,,,,,,,,,2,15,51,0,,,,,,,,,,,,,,,,,,,,,,,,main,2,2,1,negative,negative,j,j,1,0.6124213000002783,255.07750149999993,256.0837211999997,256.0650228999998,None,255.07750149999993,None,255.07750149999993,None,255.07750149999993,None,256.6706717499996,None,256.6706717499996,None,256.6706717499996,None,,,,,,,,,,,216,25,Male,2022-05-13_14h10.31.161,Main,2022.1.1,60.016552565255324,
positive,negative,2,l,j,,,,,,,,,2,16,52,14,,,,,,,,,,,,,,,,,,,,,,,,main,1,1,2,negative,positive,l,l,1,0.8043420000003607,256.6901622999999,257.704072,257.6664321999997,None,256.6901622999999,None,256.6901622999999,None,256.6901622999999,None,258.47861734999964,None,258.47861734999964,None,258.47861734999964,None,,,,,,,,,,,216,25,Male,2022-05-13_14h10.31.161,Main,2022.1.1,60.016552565255324,
neutral,positive,2,k,k,,,,,,,,,2,17,53,13,,,,,,,,,,,,,,,,,,,,,,,,main,1,1,2,positive,neutral,k,k,1,0.6736675000001924,258.49905999999964,259.5127766999999,259.4744080999999,None,258.49905999999964,None,258.49905999999964,None,258.49905999999964,None,260.15688104999975,None,260.15688104999975,None,260.15688104999975,None,,,,,,,,,,,216,25,Male,2022-05-13_14h10.31.161,Main,2022.1.1,60.016552565255324,
positive,negative,1,l,j,,,,,,,,,3,0,54,5,,,,,,,,,,,,,,,,,,,,,,,,main,1,1,1,negative,positive,l,l,1,0.7999105999997482,260.1765922999998,261.1823652999997,261.16336869999986,None,260.1765922999998,None,260.1765922999998,None,260.1765922999998,None,261.95953194999987,None,261.95953194999987,None,261.95953194999987,None,,,,,,,,,,,216,25,Male,2022-05-13_14h10.31.161,Main,2022.1.1,60.016552565255324,
neutral,positive,2,k,k,,,,,,,,,3,1,55,13,,,,,,,,,,,,,,,,,,,,,,,,main,1,1,2,positive,neutral,k,k,1,0.7523933000002216,261.9809902999996,262.99365899999975,262.95516549999957,None,261.9809902999996,None,261.9809902999996,None,261.9809902999996,None,263.71542994999976,None,263.71542994999976,None,263.71542994999976,None,,,,,,,,,,,216,25,Male,2022-05-13_14h10.31.161,Main,2022.1.1,60.016552565255324,
negative,positive,1,j,l,,,,,,,,,3,2,56,6,,,,,,,,,,,,,,,,,,,,,,,,main,1,1,1,positive,negative,j,j,1,0.7158724000000802,263.73523769999974,264.74878869999975,264.7113440999997,None,263.73523769999974,None,263.73523769999974,None,263.73523769999974,None,265.4335274499999,None,265.4335274499999,None,265.4335274499999,None,,,,,,,,,,,216,25,Male,2022-05-13_14h10.31.161,Main,2022.1.1,60.016552565255324,
positive,negative,2,l,j,,,,,,,,,3,3,57,14,,,,,,,,,,,,,,,,,,,,,,,,main,2,2,2,negative,positive,l,l,1,0.6872776999998678,265.4542878999996,266.46515439999985,266.4267616999996,None,265.4542878999996,None,265.4542878999996,None,265.4542878999996,None,267.12555074999995,None,267.12555074999995,None,267.12555074999995,None,,,,,,,,,,,216,25,Male,2022-05-13_14h10.31.161,Main,2022.1.1,60.016552565255324,
positive,positive,2,l,j,,,,,,,,,3,4,58,11,,,,,,,,,,,,,,,,,,,,,,,,main,2,2,2,positive,positive,l,l,1,0.8765691000003244,267.14550489999965,268.15461119999964,268.13545499999964,None,267.14550489999965,None,267.14550489999965,None,267.14550489999965,None,269.0047579499996,None,269.0047579499996,None,269.0047579499996,None,,,,,,,,,,,216,25,Male,2022-05-13_14h10.31.161,Main,2022.1.1,60.016552565255324,
positive,positive,1,l,j,,,,,,,,,3,5,59,2,,,,,,,,,,,,,,,,,,,,,,,,main,2,2,1,positive,positive,l,l,1,0.6417420999996466,269.0249818999996,270.03986369999984,270.0025025,None,269.0249818999996,None,269.0249818999996,None,269.0249818999996,None,270.64735554999965,None,270.64735554999965,None,270.64735554999965,None,,,,,,,,,,,216,25,Male,2022-05-13_14h10.31.161,Main,2022.1.1,60.016552565255324,
negative,negative,2,j,l,,,,,,,,,3,6,60,9,,,,,,,,,,,,,,,,,,,,,,,,main,2,2,2,negative,negative,j,j,1,0.8637298000003284,270.66754479999963,271.6693034,271.65254179999965,None,270.66754479999963,None,270.66754479999963,None,270.66754479999963,None,272.5139277499997,None,272.5139277499997,None,272.5139277499997,None,,,,,,,,,,,216,25,Male,2022-05-13_14h10.31.161,Main,2022.1.1,60.016552565255324,
negative,neutral,1,j,l,,,,,,,,,3,7,61,3,,,,,,,,,,,,,,,,,,,,,,,,main,2,2,1,neutral,negative,j,j,1,0.7284711000002062,272.53496429999996,273.5468274,273.5095014999997,None,272.53496429999996,None,272.53496429999996,None,272.53496429999996,None,274.2461500499998,None,274.2461500499998,None,274.2461500499998,None,,,,,,,,,,,216,25,Male,2022-05-13_14h10.31.161,Main,2022.1.1,60.016552565255324,
neutral,neutral,1,k,k,,,,,,,,,3,8,62,1,,,,,,,,,,,,,,,,,,,,,,,,main,1,1,1,neutral,neutral,k,k,1,1.0981213000000025,274.2665586999997,275.28340599999956,275.2458987,None,274.2665586999997,None,274.2665586999997,None,274.2665586999997,None,276.3467185499998,None,276.3467185499998,None,276.3467185499998,None,,,,,,,,,,,216,25,Male,2022-05-13_14h10.31.161,Main,2022.1.1,60.016552565255324,
negative,positive,2,j,l,,,,,,,,,3,9,63,15,,,,,,,,,,,,,,,,,,,,,,,,main,1,1,2,positive,negative,j,j,1,0.7791422000000239,276.367479,277.38909079999985,277.3421589999998,None,276.367479,None,276.367479,None,276.367479,None,278.1293644499996,None,278.1293644499996,None,278.1293644499996,None,,,,,,,,,,,216,25,Male,2022-05-13_14h10.31.161,Main,2022.1.1,60.016552565255324,
positive,neutral,2,l,j,,,,,,,,,3,10,64,17,,,,,,,,,,,,,,,,,,,,,,,,main,1,1,2,neutral,positive,l,l,1,0.7354927000001226,278.1490921999998,279.1532709999997,279.1347043999999,None,278.1490921999998,None,278.1490921999998,None,278.1490921999998,None,279.86888365,None,279.86888365,None,279.86888365,None,,,,,,,,,,,216,25,Male,2022-05-13_14h10.31.161,Main,2022.1.1,60.016552565255324,
negative,negative,1,j,l,,,,,,,,,3,11,65,0,,,,,,,,,,,,,,,,,,,,,,,,main,1,1,1,negative,negative,j,j,1,0.7137997999998333,279.88849619999974,280.9020390999999,280.86568339999985,None,279.88849619999974,None,279.88849619999974,None,279.88849619999974,None,281.5834058499999,None,281.5834058499999,None,281.5834058499999,None,,,,,,,,,,,216,25,Male,2022-05-13_14h10.31.161,Main,2022.1.1,60.016552565255324,
neutral,negative,2,k,k,,,,,,,,,3,12,66,16,,,,,,,,,,,,,,,,,,,,,,,,main,2,2,2,negative,neutral,k,k,1,0.731193400000393,281.60518349999984,282.6223705999996,282.5855581999999,None,281.60518349999984,None,281.60518349999984,None,281.60518349999984,None,283.3204649499998,None,283.3204649499998,None,283.3204649499998,None,,,,,,,,,,,216,25,Male,2022-05-13_14h10.31.161,Main,2022.1.1,60.016552565255324,
neutral,negative,1,k,k,,,,,,,,,3,13,67,7,,,,,,,,,,,,,,,,,,,,,,,,main,1,1,1,negative,neutral,k,k,1,0.6926871999999094,283.33927179999955,284.3540413999999,284.31554519999963,None,283.33927179999955,None,283.33927179999955,None,283.33927179999955,None,285.0135942499996,None,285.0135942499996,None,285.0135942499996,None,,,,,,,,,,,216,25,Male,2022-05-13_14h10.31.161,Main,2022.1.1,60.016552565255324,
neutral,neutral,2,k,k,,,,,,,,,3,14,68,10,,,,,,,,,,,,,,,,,,,,,,,,main,1,1,2,neutral,neutral,k,k,1,0.6934231000000182,285.0339249999997,286.0442757999999,286.00666209999963,None,285.0339249999997,None,285.0339249999997,None,285.0339249999997,None,286.7096959499999,None,286.7096959499999,None,286.7096959499999,None,,,,,,,,,,,216,25,Male,2022-05-13_14h10.31.161,Main,2022.1.1,60.016552565255324,
neutral,positive,1,k,k,,,,,,,,,3,15,69,4,,,,,,,,,,,,,,,,,,,,,,,,main,2,2,1,positive,neutral,k,k,1,0.7723824999998214,286.7302904999997,287.7450867999996,287.7079214999999,None,286.7302904999997,None,286.7302904999997,None,286.7302904999997,None,288.4830000499996,None,288.4830000499996,None,288.4830000499996,None,,,,,,,,,,,216,25,Male,2022-05-13_14h10.31.161,Main,2022.1.1,60.016552565255324,
negative,neutral,2,j,l,,,,,,,,,3,16,70,12,,,,,,,,,,,,,,,,,,,,,,,,main,2,2,2,neutral,negative,j,j,1,0.9124707999999373,288.5055941999999,289.5168227999998,289.4817304999997,None,288.5055941999999,None,288.5055941999999,None,288.5055941999999,None,290.40172024999987,None,290.40172024999987,None,290.40172024999987,None,,,,,,,,,,,216,25,Male,2022-05-13_14h10.31.161,Main,2022.1.1,60.016552565255324,
positive,neutral,1,l,j,,,,,,,,,3,17,71,8,,,,,,,,,,,,,,,,,,,,,,,,main,2,2,1,neutral,positive,l,l,1,0.7489007999997739,290.4248673999996,291.43181689999983,291.4132913999997,None,290.4248673999996,None,290.4248673999996,None,290.4248673999996,None,292.1521545499999,None,292.1521545499999,None,292.1521545499999,None,,,,,,,,,,,216,25,Male,2022-05-13_14h10.31.161,Main,2022.1.1,60.016552565255324,
negative,neutral,2,j,l,,,,,,,,,4,0,72,12,,,,,,,,,,,,,,,,,,,,,,,,main,1,1,2,neutral,negative,j,j,1,0.7954113000000689,292.17290539999976,293.1776652999997,293.1596363999997,None,292.17290539999976,None,292.17290539999976,None,292.17290539999976,None,293.9496224499998,None,293.9496224499998,None,293.9496224499998,None,,,,,,,,,,,216,25,Male,2022-05-13_14h10.31.161,Main,2022.1.1,60.016552565255324,
neutral,neutral,2,k,k,,,,,,,,,4,1,73,10,,,,,,,,,,,,,,,,,,,,,,,,main,1,1,2,neutral,neutral,k,k,1,0.6689691999999923,293.9701306999996,294.98230269999976,294.9447012999999,None,293.9701306999996,None,293.9701306999996,None,293.9701306999996,None,295.6210587499999,None,295.6210587499999,None,295.6210587499999,None,,,,,,,,,,,216,25,Male,2022-05-13_14h10.31.161,Main,2022.1.1,60.016552565255324,
positive,positive,2,l,j,,,,,,,,,4,2,74,11,,,,,,,,,,,,,,,,,,,,,,,,main,2,2,2,positive,positive,l,l,1,0.7153037000002769,295.64236189999974,296.65548009999975,296.61694139999963,None,295.64236189999974,None,295.64236189999974,None,295.64236189999974,None,297.3407035499999,None,297.3407035499999,None,297.3407035499999,None,,,,,,,,,,,216,25,Male,2022-05-13_14h10.31.161,Main,2022.1.1,60.016552565255324,
neutral,positive,2,k,k,,,,,,,,,4,3,75,13,,,,,,,,,,,,,,,,,,,,,,,,main,2,2,2,positive,neutral,k,k,1,0.701129900000069,297.36077239999986,298.37927509999963,298.34058339999956,None,297.36077239999986,None,297.36077239999986,None,297.36077239999986,None,299.0437490499998,None,299.0437490499998,None,299.0437490499998,None,,,,,,,,,,,216,25,Male,2022-05-13_14h10.31.161,Main,2022.1.1,60.016552565255324,
neutral,negative,1,k,k,,,,,,,,,4,4,76,7,,,,,,,,,,,,,,,,,,,,,,,,main,2,2,1,negative,neutral,k,k,1,0.7462622000002739,299.06523149999975,300.0753841999999,300.0566497,None,299.06523149999975,None,299.06523149999975,None,299.06523149999975,None,300.79353554999983,None,300.79353554999983,None,300.79353554999983,None,,,,,,,,,,,216,25,Male,2022-05-13_14h10.31.161,Main,2022.1.1,60.016552565255324,
negative,positive,1,j,l,,,,,,,,,4,5,77,6,,,,,,,,,,,,,,,,,,,,,,,,main,1,1,1,positive,negative,j,j,1,1.348381100000097,300.81416039999976,301.8274148999999,301.78972829999975,None,300.81416039999976,None,300.81416039999976,None,300.81416039999976,None,303.14470684999964,None,303.14470684999964,None,303.14470684999964,None,,,,,,,,,,,216,25,Male,2022-05-13_14h10.31.161,Main,2022.1.1,60.016552565255324,
negative,negative,1,j,l,,,,,,,,,4,6,78,0,,,,,,,,,,,,,,,,,,,,,,,,main,1,1,1,negative,negative,j,j,1,0.7872314000001097,303.16599529999985,304.1815618999999,304.14408539999977,None,303.16599529999985,None,303.16599529999985,None,303.16599529999985,None,304.93664834999976,None,304.93664834999976,None,304.93664834999976,None,,,,,,,,,,,216,25,Male,2022-05-13_14h10.31.161,Main,2022.1.1,60.016552565255324,
negative,neutral,1,j,l,,,,,,,,,4,7,79,3,,,,,,,,,,,,,,,,,,,,,,,,main,2,2,1,neutral,negative,j,j,1,0.6991914000000179,304.95704039999964,305.95903089999956,305.9408175999997,None,304.95704039999964,None,304.95704039999964,None,304.95704039999964,None,306.64028894999996,None,306.64028894999996,None,306.64028894999996,None,,,,,,,,,,,216,25,Male,2022-05-13_14h10.31.161,Main,2022.1.1,60.016552565255324,
positive,neutral,2,l,j,,,,,,,,,4,8,80,17,,,,,,,,,,,,,,,,,,,,,,,,main,2,2,2,neutral,positive,l,l,1,0.7096992000001592,306.6601595999996,307.6682982999996,307.6488996999997,None,306.6601595999996,None,306.6601595999996,None,306.6601595999996,None,308.35383144999963,None,308.35383144999963,None,308.35383144999963,None,,,,,,,,,,,216,25,Male,2022-05-13_14h10.31.161,Main,2022.1.1,60.016552565255324,
neutral,positive,1,k,k,,,,,,,,,4,9,81,4,,,,,,,,,,,,,,,,,,,,,,,,main,2,2,1,positive,neutral,k,k,1,0.6718184000001202,308.3747407999999,309.37968279999996,309.36113959999966,None,308.3747407999999,None,308.3747407999999,None,308.3747407999999,None,310.0272051499996,None,310.0272051499996,None,310.0272051499996,None,,,,,,,,,,,216,25,Male,2022-05-13_14h10.31.161,Main,2022.1.1,60.016552565255324,
positive,negative,1,l,j,,,,,,,,,4,10,82,5,,,,,,,,,,,,,,,,,,,,,,,,main,1,1,1,negative,positive,l,l,1,0.7027904999999919,310.04925589999993,311.0723756999996,311.031348,None,310.04925589999993,None,310.04925589999993,None,310.04925589999993,None,311.73368984999973,None,311.73368984999973,None,311.73368984999973,None,,,,,,,,,,,216,25,Male,2022-05-13_14h10.31.161,Main,2022.1.1,60.016552565255324,
neutral,neutral,1,k,k,,,,,,,,,4,11,83,1,,,,,,,,,,,,,,,,,,,,,,,,main,2,2,1,neutral,neutral,k,k,1,0.7617897000000085,311.75378859999955,312.7594816999999,312.74112349999996,None,311.75378859999955,None,311.75378859999955,None,311.75378859999955,None,313.4959678499999,None,313.4959678499999,None,313.4959678499999,None,,,,,,,,,,,216,25,Male,2022-05-13_14h10.31.161,Main,2022.1.1,60.016552565255324,
positive,negative,2,l,j,,,,,,,,,4,12,84,14,,,,,,,,,,,,,,,,,,,,,,,,main,1,1,2,negative,positive,l,l,1,0.6848357000003489,313.5158217999997,314.52461989999983,314.5060527999999,None,313.5158217999997,None,313.5158217999997,None,313.5158217999997,None,315.18566074999984,None,315.18566074999984,None,315.18566074999984,None,,,,,,,,,,,216,25,Male,2022-05-13_14h10.31.161,Main,2022.1.1,60.016552565255324,
positive,positive,1,l,j,,,,,,,,,4,13,85,2,,,,,,,,,,,,,,,,,,,,,,,,main,2,2,1,positive,positive,l,l,1,0.7900470999998106,315.2060790999999,316.2128799999996,316.19424849999996,None,315.2060790999999,None,315.2060790999999,None,315.2060790999999,None,316.97582394999966,None,316.97582394999966,None,316.97582394999966,None,,,,,,,,,,,216,25,Male,2022-05-13_14h10.31.161,Main,2022.1.1,60.016552565255324,
negative,negative,2,j,l,,,,,,,,,4,14,86,9,,,,,,,,,,,,,,,,,,,,,,,,main,2,2,2,negative,negative,j,j,1,0.6260934000001726,317.0004021999998,318.0201990999999,317.9808845999996,None,317.0004021999998,None,317.0004021999998,None,317.0004021999998,None,318.6051720499999,None,318.6051720499999,None,318.6051720499999,None,,,,,,,,,,,216,25,Male,2022-05-13_14h10.31.161,Main,2022.1.1,60.016552565255324,
neutral,negative,2,k,k,,,,,,,,,4,15,87,16,,,,,,,,,,,,,,,,,,,,,,,,main,1,1,2,negative,neutral,k,k,1,0.7254817000002731,318.6254064999998,319.63919799999985,319.6026674999998,None,318.6254064999998,None,318.6254064999998,None,318.6254064999998,None,320.33562124999975,None,320.33562124999975,None,320.33562124999975,None,,,,,,,,,,,216,25,Male,2022-05-13_14h10.31.161,Main,2022.1.1,60.016552565255324,
negative,positive,2,j,l,,,,,,,,,4,16,88,15,,,,,,,,,,,,,,,,,,,,,,,,main,2,2,2,positive,negative,j,j,1,0.8647743000001356,320.3557689999998,321.36831779999966,321.3303458999999,None,320.3557689999998,None,320.3557689999998,None,320.3557689999998,None,322.2020977499996,None,322.2020977499996,None,322.2020977499996,None,,,,,,,,,,,216,25,Male,2022-05-13_14h10.31.161,Main,2022.1.1,60.016552565255324,
positive,neutral,1,l,j,,,,,,,,,4,17,89,8,,,,,,,,,,,,,,,,,,,,,,,,main,2,2,1,neutral,positive,l,l,1,0.6920306000001801,322.2240036999997,323.2417327999997,323.20527779999975,None,322.2240036999997,None,322.2240036999997,None,322.2240036999997,None,323.90032594999997,None,323.90032594999997,None,323.90032594999997,None,,,,,,,,,,,216,25,Male,2022-05-13_14h10.31.161,Main,2022.1.1,60.016552565255324,
positive,neutral,1,l,j,,,,,,,,,5,0,90,8,,,,,,,,,,,,,,,,,,,,,,,,main,2,2,1,neutral,positive,l,l,1,0.6899567999998908,323.9205522999996,324.92761949999976,324.9084327999999,None,323.9205522999996,None,323.9205522999996,None,323.9205522999996,None,325.5907967499997,None,325.5907967499997,None,325.5907967499997,None,,,,,,,,,,,216,25,Male,2022-05-13_14h10.31.161,Main,2022.1.1,60.016552565255324,
neutral,neutral,2,k,k,,,,,,,,,5,1,91,10,,,,,,,,,,,,,,,,,,,,,,,,main,2,2,2,neutral,neutral,k,k,1,0.6669181999995999,325.6122978999997,326.61572419999993,326.5963916999999,None,325.6122978999997,None,325.6122978999997,None,325.6122978999997,None,327.2602396499996,None,327.2602396499996,None,327.2602396499996,None,,,,,,,,,,,216,25,Male,2022-05-13_14h10.31.161,Main,2022.1.1,60.016552565255324,
positive,neutral,2,l,j,,,,,,,,,5,2,92,17,,,,,,,,,,,,,,,,,,,,,,,,main,1,1,2,neutral,positive,l,l,1,0.7702798999998777,327.2800860999996,328.28468159999966,328.26535179999973,None,327.2800860999996,None,327.2800860999996,None,327.2800860999996,None,329.03500254999966,None,329.03500254999966,None,329.03500254999966,None,,,,,,,,,,,216,25,Male,2022-05-13_14h10.31.161,Main,2022.1.1,60.016552565255324,
neutral,neutral,1,k,k,,,,,,,,,5,3,93,1,,,,,,,,,,,,,,,,,,,,,,,,main,2,2,1,neutral,neutral,k,k,1,0.6270744999997078,329.05581349999966,330.06006149999985,330.04178239999965,None,329.05581349999966,None,329.05581349999966,None,329.05581349999966,None,330.66697234999987,None,330.66697234999987,None,330.66697234999987,None,,,,,,,,,,,216,25,Male,2022-05-13_14h10.31.161,Main,2022.1.1,60.016552565255324,
neutral,positive,2,k,k,,,,,,,,,5,4,94,13,,,,,,,,,,,,,,,,,,,,,,,,main,1,1,2,positive,neutral,k,k,1,0.6215985999997429,330.68611599999986,331.70396189999974,331.66569649999974,None,330.68611599999986,None,330.68611599999986,None,330.68611599999986,None,332.2893073499999,None,332.2893073499999,None,332.2893073499999,None,,,,,,,,,,,216,25,Male,2022-05-13_14h10.31.161,Main,2022.1.1,60.016552565255324,
negative,neutral,2,j,l,,,,,,,,,5,5,95,12,,,,,,,,,,,,,,,,,,,,,,,,main,1,1,2,neutral,negative,j,j,1,0.755618499999855,332.310301,333.31759669999974,333.29901119999977,None,332.310301,None,332.310301,None,332.310301,None,334.04956574999954,None,334.04956574999954,None,334.04956574999954,None,,,,,,,,,,,216,25,Male,2022-05-13_14h10.31.161,Main,2022.1.1,60.016552565255324,
positive,positive,1,l,j,,,,,,,,,5,6,96,2,,,,,,,,,,,,,,,,,,,,,,,,main,1,1,1,positive,positive,l,l,1,0.784150800000134,334.0699102999997,335.0766633999997,335.05789189999996,None,334.0699102999997,None,334.0699102999997,None,334.0699102999997,None,335.8358774499997,None,335.8358774499997,None,335.8358774499997,None,,,,,,,,,,,216,25,Male,2022-05-13_14h10.31.161,Main,2022.1.1,60.016552565255324,
positive,positive,2,l,j,,,,,,,,,5,7,97,11,,,,,,,,,,,,,,,,,,,,,,,,main,1,1,2,positive,positive,l,l,1,0.7364410000000134,335.8574526999996,336.8587580999997,336.84007749999955,None,335.8574526999996,None,335.8574526999996,None,335.8574526999996,None,337.5758563499998,None,337.5758563499998,None,337.5758563499998,None,,,,,,,,,,,216,25,Male,2022-05-13_14h10.31.161,Main,2022.1.1,60.016552565255324,
neutral,negative,1,k,k,,,,,,,,,5,8,98,7,,,,,,,,,,,,,,,,,,,,,,,,main,1,1,1,negative,neutral,k,k,1,0.6171353999998246,337.59661099999994,338.61163039999974,338.5736763,None,337.59661099999994,None,337.59661099999994,None,337.59661099999994,None,339.1968952499996,None,339.1968952499996,None,339.1968952499996,None,,,,,,,,,,,216,25,Male,2022-05-13_14h10.31.161,Main,2022.1.1,60.016552565255324,
negative,negative,1,j,l,,,,,,,,,5,9,99,0,,,,,,,,,,,,,,,,,,,,,,,,main,1,1,1,negative,negative,j,j,1,0.6900660999999673,339.2153364999999,340.2233269999997,340.20465799999965,None,339.2153364999999,None,339.2153364999999,None,339.2153364999999,None,340.8879742499998,None,340.8879742499998,None,340.8879742499998,None,,,,,,,,,,,216,25,Male,2022-05-13_14h10.31.161,Main,2022.1.1,60.016552565255324,
neutral,positive,1,k,k,,,,,,,,,5,10,100,4,,,,,,,,,,,,,,,,,,,,,,,,main,2,2,1,positive,neutral,k,k,1,0.7700746000000436,340.90953329999957,341.9208700999998,341.88258069999983,None,340.90953329999957,None,340.90953329999957,None,340.90953329999957,None,342.66165044999974,None,342.66165044999974,None,342.66165044999974,None,,,,,,,,,,,216,25,Male,2022-05-13_14h10.31.161,Main,2022.1.1,60.016552565255324,
positive,negative,2,l,j,,,,,,,,,5,11,101,14,,,,,,,,,,,,,,,,,,,,,,,,main,1,1,2,negative,positive,l,l,1,0.6881637999999839,342.68487259999984,343.6878426999997,343.6699696999999,None,342.68487259999984,None,342.68487259999984,None,342.68487259999984,None,344.3519091499997,None,344.3519091499997,None,344.3519091499997,None,,,,,,,,,,,216,25,Male,2022-05-13_14h10.31.161,Main,2022.1.1,60.016552565255324,
positive,negative,1,l,j,,,,,,,,,5,12,102,5,,,,,,,,,,,,,,,,,,,,,,,,main,1,1,1,negative,positive,l,l,1,0.8180771000002096,344.37298729999975,345.3916981999996,345.3549694999997,None,344.37298729999975,None,344.37298729999975,None,344.37298729999975,None,346.17061634999976,None,346.17061634999976,None,346.17061634999976,None,,,,,,,,,,,216,25,Male,2022-05-13_14h10.31.161,Main,2022.1.1,60.016552565255324,
negative,positive,1,j,l,,,,,,,,,5,13,103,6,,,,,,,,,,,,,,,,,,,,,,,,main,2,2,1,positive,negative,j,j,1,0.7380937000002632,346.1934584999999,347.2075292999998,347.17065649999995,None,346.1934584999999,None,346.1934584999999,None,346.1934584999999,None,347.91426774999985,None,347.91426774999985,None,347.91426774999985,None,,,,,,,,,,,216,25,Male,2022-05-13_14h10.31.161,Main,2022.1.1,60.016552565255324,
negative,neutral,1,j,l,,,,,,,,,5,14,104,3,,,,,,,,,,,,,,,,,,,,,,,,main,1,1,1,neutral,negative,j,j,1,1.2167584999997416,347.9343107999998,348.9414869999996,348.92288709999957,None,347.9343107999998,None,347.9343107999998,None,347.9343107999998,None,350.13390104999957,None,350.13390104999957,None,350.13390104999957,None,,,,,,,,,,,216,25,Male,2022-05-13_14h10.31.161,Main,2022.1.1,60.016552565255324,
negative,positive,2,j,l,,,,,,,,,5,15,105,15,,,,,,,,,,,,,,,,,,,,,,,,main,1,1,2,positive,negative,j,j,1,0.7314636999999493,350.1540275999996,351.1737175999997,351.13474899999983,None,350.1540275999996,None,350.1540275999996,None,350.1540275999996,None,351.8680937499998,None,351.8680937499998,None,351.8680937499998,None,,,,,,,,,,,216,25,Male,2022-05-13_14h10.31.161,Main,2022.1.1,60.016552565255324,
negative,negative,2,j,l,,,,,,,,,5,16,106,9,,,,,,,,,,,,,,,,,,,,,,,,main,2,2,2,negative,negative,j,j,1,0.8061159999997471,351.8887725999998,352.90287599999965,352.86450349999996,None,351.8887725999998,None,351.8887725999998,None,351.8887725999998,None,353.6781895499998,None,353.6781895499998,None,353.6781895499998,None,,,,,,,,,,,216,25,Male,2022-05-13_14h10.31.161,Main,2022.1.1,60.016552565255324,
neutral,negative,2,k,k,,,,,,,,,5,17,107,16,,,,,,,,,,,,,,,,,,,,,,,,main,2,2,2,negative,neutral,k,k,1,0.8089251000001241,353.69824709999966,354.7145166999999,354.6935349999999,None,353.69824709999966,None,353.69824709999966,None,353.69824709999966,None,355.48792984999994,None,355.48792984999994,None,355.48792984999994,None,,,,,,,,,,,216,25,Male,2022-05-13_14h10.31.161,Main,2022.1.1,60.016552565255324,
neutral,positive,1,k,k,,,,,,,,,6,0,108,4,,,,,,,,,,,,,,,,,,,,,,,,main,1,1,1,positive,neutral,k,k,1,0.9169366000000991,355.5083384999998,356.5211479999998,356.4838843999996,None,355.5083384999998,None,355.5083384999998,None,355.5083384999998,None,357.40920844999977,None,357.40920844999977,None,357.40920844999977,None,,,,,,,,,,,216,25,Male,2022-05-13_14h10.31.161,Main,2022.1.1,60.016552565255324,
negative,negative,1,j,l,,,,,,,,,6,1,109,0,,,,,,,,,,,,,,,,,,,,,,,,main,2,2,1,negative,negative,j,j,1,0.7143438000002789,357.4290275999997,358.4384866999999,358.40190619999976,None,357.4290275999997,None,357.4290275999997,None,357.4290275999997,None,359.12418054999983,None,359.12418054999983,None,359.12418054999983,None,,,,,,,,,,,216,25,Male,2022-05-13_14h10.31.161,Main,2022.1.1,60.016552565255324,
positive,positive,2,l,j,,,,,,,,,6,2,110,11,,,,,,,,,,,,,,,,,,,,,,,,main,1,1,2,positive,positive,l,l,1,0.7399992999999085,359.14524919999985,360.14911219999976,360.1300462999998,None,359.14524919999985,None,359.14524919999985,None,359.14524919999985,None,360.8666745499999,None,360.8666745499999,None,360.8666745499999,None,,,,,,,,,,,216,25,Male,2022-05-13_14h10.31.161,Main,2022.1.1,60.016552565255324,
negative,negative,2,j,l,,,,,,,,,6,3,111,9,,,,,,,,,,,,,,,,,,,,,,,,main,1,1,2,negative,negative,j,j,1,0.8507893000000877,360.8866386999998,361.90235489999986,361.8631846999997,None,360.8866386999998,None,360.8866386999998,None,360.8866386999998,None,362.7200406499996,None,362.7200406499996,None,362.7200406499996,None,,,,,,,,,,,216,25,Male,2022-05-13_14h10.31.161,Main,2022.1.1,60.016552565255324,
neutral,neutral,2,k,k,,,,,,,,,6,4,112,10,,,,,,,,,,,,,,,,,,,,,,,,main,2,2,2,neutral,neutral,k,k,1,0.6865595999997822,362.7407750999996,363.7508810999998,363.7135562999997,None,362.7407750999996,None,362.7407750999996,None,362.7407750999996,None,364.4110999499998,None,364.4110999499998,None,364.4110999499998,None,,,,,,,,,,,216,25,Male,2022-05-13_14h10.31.161,Main,2022.1.1,60.016552565255324,
neutral,positive,2,k,k,,,,,,,,,6,5,113,13,,,,,,,,,,,,,,,,,,,,,,,,main,1,1,2,positive,neutral,k,k,1,0.6197109999998247,364.43201629999976,365.4440276999999,365.4066323999996,None,364.43201629999976,None,364.43201629999976,None,364.43201629999976,None,366.0326885499998,None,366.0326885499998,None,366.0326885499998,None,,,,,,,,,,,216,25,Male,2022-05-13_14h10.31.161,Main,2022.1.1,60.016552565255324,
neutral,negative,2,k,k,,,,,,,,,6,6,114,16,,,,,,,,,,,,,,,,,,,,,,,,main,1,1,2,negative,neutral,k,k,1,0.5873790999999073,366.05370239999957,367.0567895999998,367.0383195999998,None,366.05370239999957,None,366.05370239999957,None,366.05370239999957,None,367.62211534999955,None,367.62211534999955,None,367.62211534999955,None,,,,,,,,,,,216,25,Male,2022-05-13_14h10.31.161,Main,2022.1.1,60.016552565255324,
positive,neutral,1,l,j,,,,,,,,,6,7,115,8,,,,,,,,,,,,,,,,,,,,,,,,main,1,1,1,neutral,positive,l,l,1,0.8173274999999194,367.6418838999998,368.6540468999997,368.61632899999995,None,367.6418838999998,None,367.6418838999998,None,367.6418838999998,None,369.44423484999965,None,369.44423484999965,None,369.44423484999965,None,,,,,,,,,,,216,25,Male,2022-05-13_14h10.31.161,Main,2022.1.1,60.016552565255324,
negative,positive,1,j,l,,,,,,,,,6,8,116,6,,,,,,,,,,,,,,,,,,,,,,,,main,2,2,1,positive,negative,j,j,1,0.7783143999999993,369.4643272999997,370.4785787999999,370.4392906999997,None,369.4643272999997,None,369.4643272999997,None,369.4643272999997,None,371.2246906499999,None,371.2246906499999,None,371.2246906499999,None,,,,,,,,,,,216,25,Male,2022-05-13_14h10.31.161,Main,2022.1.1,60.016552565255324,
negative,positive,2,j,l,,,,,,,,,6,9,117,15,,,,,,,,,,,,,,,,,,,,,,,,main,2,2,2,positive,negative,j,j,1,0.7287877999997363,371.2443503999998,372.25460939999994,372.2178178999998,None,371.2443503999998,None,371.2443503999998,None,371.2443503999998,None,372.9548603499997,None,372.9548603499997,None,372.9548603499997,None,,,,,,,,,,,216,25,Male,2022-05-13_14h10.31.161,Main,2022.1.1,60.016552565255324,
neutral,negative,1,k,k,,,,,,,,,6,10,118,7,,,,,,,,,,,,,,,,,,,,,,,,main,1,1,1,negative,neutral,k,k,1,0.7087335999999596,372.9769342999998,373.9858384999998,373.9680136999996,None,372.9769342999998,None,372.9769342999998,None,372.9769342999998,None,374.66712134999983,None,374.66712134999983,None,374.66712134999983,None,,,,,,,,,,,216,25,Male,2022-05-13_14h10.31.161,Main,2022.1.1,60.016552565255324,
positive,neutral,2,l,j,,,,,,,,,6,11,119,17,,,,,,,,,,,,,,,,,,,,,,,,main,1,1,2,neutral,positive,l,l,1,0.828615400000217,374.68681879999986,375.7038298999996,375.6650577999999,None,374.68681879999986,None,374.68681879999986,None,374.68681879999986,None,376.49841624999993,None,376.49841624999993,None,376.49841624999993,None,,,,,,,,,,,216,25,Male,2022-05-13_14h10.31.161,Main,2022.1.1,60.016552565255324,
negative,neutral,2,j,l,,,,,,,,,6,12,120,12,,,,,,,,,,,,,,,,,,,,,,,,main,2,2,2,neutral,negative,j,j,1,0.7696723000003658,376.5177289999997,377.5335603999997,377.49692189999996,None,376.5177289999997,None,376.5177289999997,None,376.5177289999997,None,378.2697265499996,None,378.2697265499996,None,378.2697265499996,None,,,,,,,,,,,216,25,Male,2022-05-13_14h10.31.161,Main,2022.1.1,60.016552565255324,
negative,neutral,1,j,l,,,,,,,,,6,13,121,3,,,,,,,,,,,,,,,,,,,,,,,,main,1,1,1,neutral,negative,j,j,1,0.9618537999999717,378.29373099999975,379.3125425999997,379.27487379999957,None,378.29373099999975,None,378.29373099999975,None,378.29373099999975,None,380.2341247499998,None,380.2341247499998,None,380.2341247499998,None,,,,,,,,,,,216,25,Male,2022-05-13_14h10.31.161,Main,2022.1.1,60.016552565255324,
positive,negative,2,l,j,,,,,,,,,6,14,122,14,,,,,,,,,,,,,,,,,,,,,,,,main,2,2,2,negative,positive,l,l,1,0.7270174000000225,380.2545140999996,381.26312469999993,381.2440730999997,None,380.2545140999996,None,380.2545140999996,None,380.2545140999996,None,381.9638527499996,None,381.9638527499996,None,381.9638527499996,None,,,,,,,,,,,216,25,Male,2022-05-13_14h10.31.161,Main,2022.1.1,60.016552565255324,
positive,positive,1,l,j,,,,,,,,,6,15,123,2,,,,,,,,,,,,,,,,,,,,,,,,main,1,1,1,positive,positive,l,l,1,0.8507638999999472,381.9846828999998,383.00137259999974,382.9641837999998,None,381.9846828999998,None,381.9846828999998,None,381.9846828999998,None,383.8172209499998,None,383.8172209499998,None,383.8172209499998,None,,,,,,,,,,,216,25,Male,2022-05-13_14h10.31.161,Main,2022.1.1,60.016552565255324,
positive,negative,1,l,j,,,,,,,,,6,16,124,5,,,,,,,,,,,,,,,,,,,,,,,,main,2,2,1,negative,positive,l,l,1,0.6456515000004401,383.8373373999998,384.85549869999977,384.8180238,None,383.8373373999998,None,383.8373373999998,None,383.8373373999998,None,385.46511164999987,None,385.46511164999987,None,385.46511164999987,None,,,,,,,,,,,216,25,Male,2022-05-13_14h10.31.161,Main,2022.1.1,60.016552565255324,
neutral,neutral,1,k,k,,,,,,,,,6,17,125,1,,,,,,,,,,,,,,,,,,,,,,,,main,1,1,1,neutral,neutral,k,k,1,0.7521823000001859,385.48546559999977,386.5037513999996,386.4663736999996,None,385.48546559999977,None,385.48546559999977,None,385.48546559999977,None,387.22027934999954,None,387.22027934999954,None,387.22027934999954,None,,,,,,,,,,,216,25,Male,2022-05-13_14h10.31.161,Main,2022.1.1,60.016552565255324,
neutral,negative,2,k,k,,,,,,,,,7,0,126,16,,,,,,,,,,,,,,,,,,,,,,,,main,2,2,2,negative,neutral,k,k,1,0.7302260000001297,387.24019869999984,388.2513620999998,388.2141066999998,None,387.24019869999984,None,387.24019869999984,None,387.24019869999984,None,388.95290654999957,None,388.95290654999957,None,388.95290654999957,None,,,,,,,,,,,216,25,Male,2022-05-13_14h10.31.161,Main,2022.1.1,60.016552565255324,
neutral,negative,1,k,k,,,,,,,,,7,1,127,7,,,,,,,,,,,,,,,,,,,,,,,,main,2,2,1,negative,neutral,k,k,1,0.8102278000001206,388.9750468999996,389.98783579999963,389.95037839999986,None,388.9750468999996,None,388.9750468999996,None,388.9750468999996,None,390.76527324999955,None,390.76527324999955,None,390.76527324999955,None,,,,,,,,,,,216,25,Male,2022-05-13_14h10.31.161,Main,2022.1.1,60.016552565255324,
negative,neutral,1,j,l,,,,,,,,,7,2,128,3,,,,,,,,,,,,,,,,,,,,,,,,main,1,1,1,neutral,negative,j,j,1,0.8052333999999064,390.78621239999984,391.7974409999997,391.75988199999983,None,390.78621239999984,None,390.78621239999984,None,390.78621239999984,None,392.57413564999973,None,392.57413564999973,None,392.57413564999973,None,,,,,,,,,,,216,25,Male,2022-05-13_14h10.31.161,Main,2022.1.1,60.016552565255324,
negative,positive,2,j,l,,,,,,,,,7,3,129,15,,,,,,,,,,,,,,,,,,,,,,,,main,1,1,2,positive,negative,j,j,1,0.8067909000001237,392.5952063999998,393.6075087999998,393.57036409999955,None,392.5952063999998,None,392.5952063999998,None,392.5952063999998,None,394.3832427499996,None,394.3832427499996,None,394.3832427499996,None,,,,,,,,,,,216,25,Male,2022-05-13_14h10.31.161,Main,2022.1.1,60.016552565255324,
neutral,neutral,2,k,k,,,,,,,,,7,4,130,10,,,,,,,,,,,,,,,,,,,,,,,,main,1,1,2,neutral,neutral,k,k,1,0.668481900000188,394.40342139999984,395.40822979999984,395.3895427999996,None,394.40342139999984,None,394.40342139999984,None,394.40342139999984,None,396.0548750499997,None,396.0548750499997,None,396.0548750499997,None,,,,,,,,,,,216,25,Male,2022-05-13_14h10.31.161,Main,2022.1.1,60.016552565255324,
positive,negative,2,l,j,,,,,,,,,7,5,131,14,,,,,,,,,,,,,,,,,,,,,,,,main,2,2,2,negative,positive,l,l,1,0.7322656999999708,396.07616759999974,397.0897740999999,397.05247649999956,None,396.07616759999974,None,396.07616759999974,None,396.07616759999974,None,397.7898267499999,None,397.7898267499999,None,397.7898267499999,None,,,,,,,,,,,216,25,Male,2022-05-13_14h10.31.161,Main,2022.1.1,60.016552565255324,
negative,positive,1,j,l,,,,,,,,,7,6,132,6,,,,,,,,,,,,,,,,,,,,,,,,main,2,2,1,positive,negative,j,j,1,0.734144500000184,397.81167639999967,398.82453259999966,398.78648889999977,None,397.81167639999967,None,397.81167639999967,None,397.81167639999967,None,399.5279475499996,None,399.5279475499996,None,399.5279475499996,None,,,,,,,,,,,216,25,Male,2022-05-13_14h10.31.161,Main,2022.1.1,60.016552565255324,
negative,negative,1,j,l,,,,,,,,,7,7,133,0,,,,,,,,,,,,,,,,,,,,,,,,main,1,1,1,negative,negative,j,j,1,0.751854000000094,399.5493970999996,400.5664907999999,400.5273438999998,None,399.5493970999996,None,399.5493970999996,None,399.5493970999996,None,401.2822131499997,None,401.2822131499997,None,401.2822131499997,None,,,,,,,,,,,216,25,Male,2022-05-13_14h10.31.161,Main,2022.1.1,60.016552565255324,
negative,neutral,2,j,l,,,,,,,,,7,8,134,12,,,,,,,,,,,,,,,,,,,,,,,,main,2,2,2,neutral,negative,j,j,1,0.8482768000003489,401.3041132999997,402.31977309999957,402.28018829999974,None,401.3041132999997,None,401.3041132999997,None,401.3041132999997,None,403.1327207499998,None,403.1327207499998,None,403.1327207499998,None,,,,,,,,,,,216,25,Male,2022-05-13_14h10.31.161,Main,2022.1.1,60.016552565255324,
positive,neutral,2,l,j,,,,,,,,,7,9,135,17,,,,,,,,,,,,,,,,,,,,,,,,main,1,1,2,neutral,positive,l,l,1,0.8490351999998893,403.15331049999986,404.1572001999998,404.1380516999998,None,403.15331049999986,None,403.15331049999986,None,403.15331049999986,None,404.98513974999963,None,404.98513974999963,None,404.98513974999963,None,,,,,,,,,,,216,25,Male,2022-05-13_14h10.31.161,Main,2022.1.1,60.016552565255324,
positive,neutral,1,l,j,,,,,,,,,7,10,136,8,,,,,,,,,,,,,,,,,,,,,,,,main,2,2,1,neutral,positive,l,l,1,0.8328075000003992,405.0064008999998,406.0109659999998,405.9923239,None,405.0064008999998,None,405.0064008999998,None,405.0064008999998,None,406.82257444999954,None,406.82257444999954,None,406.82257444999954,None,,,,,,,,,,,216,25,Male,2022-05-13_14h10.31.161,Main,2022.1.1,60.016552565255324,
negative,negative,2,j,l,,,,,,,,,7,11,137,9,,,,,,,,,,,,,,,,,,,,,,,,main,1,1,2,negative,negative,j,l,0,0.6891918999999689,406.8418654999996,407.85515199999963,407.81746369999973,None,406.8418654999996,None,406.8418654999996,None,406.8418654999996,None,408.5180091999996,None,408.5180091999996,None,408.5180091999996,None,,,,,,,,,,,216,25,Male,2022-05-13_14h10.31.161,Main,2022.1.1,60.016552565255324,
positive,negative,1,l,j,,,,,,,,,7,12,138,5,,,,,,,,,,,,,,,,,,,,,,,,main,2,2,1,negative,positive,l,l,1,0.8776290000000699,409.5342284999997,410.54822639999975,410.52965059999997,None,409.5342284999997,None,409.5342284999997,None,409.5342284999997,None,411.39227934999957,None,411.39227934999957,None,411.39227934999957,None,,,,,,,,,,,216,25,Male,2022-05-13_14h10.31.161,Main,2022.1.1,60.016552565255324,
neutral,positive,2,k,k,,,,,,,,,7,13,139,13,,,,,,,,,,,,,,,,,,,,,,,,main,2,2,2,positive,neutral,k,k,1,0.7348274999999376,411.4139932999997,412.4305672999999,412.3930828999996,None,411.4139932999997,None,411.4139932999997,None,411.4139932999997,None,413.13015594999973,None,413.13015594999973,None,413.13015594999973,None,,,,,,,,,,,216,25,Male,2022-05-13_14h10.31.161,Main,2022.1.1,60.016552565255324,
neutral,positive,1,k,k,,,,,,,,,7,14,140,4,,,,,,,,,,,,,,,,,,,,,,,,main,2,2,1,positive,neutral,k,k,1,0.7603888999997253,413.1522716999998,414.17151839999997,414.1338575,None,413.1522716999998,None,413.1522716999998,None,413.1522716999998,None,414.89334494999997,None,414.89334494999997,None,414.89334494999997,None,,,,,,,,,,,216,25,Male,2022-05-13_14h10.31.161,Main,2022.1.1,60.016552565255324,
neutral,neutral,1,k,k,,,,,,,,,7,15,141,1,,,,,,,,,,,,,,,,,,,,,,,,main,2,2,1,neutral,neutral,k,k,1,0.5890908000001218,414.91430379999974,415.91821709999977,415.89917529999957,None,414.91430379999974,None,414.91430379999974,None,414.91430379999974,None,416.4853116499998,None,416.4853116499998,None,416.4853116499998,None,,,,,,,,,,,216,25,Male,2022-05-13_14h10.31.161,Main,2022.1.1,60.016552565255324,
positive,positive,1,l,j,,,,,,,,,7,16,142,2,,,,,,,,,,,,,,,,,,,,,,,,main,2,2,1,positive,positive,l,l,1,0.7360866999997597,416.5074877999996,417.5211022999997,417.4837462999999,None,416.5074877999996,None,416.5074877999996,None,416.5074877999996,None,418.2254132499997,None,418.2254132499997,None,418.2254132499997,None,,,,,,,,,,,216,25,Male,2022-05-13_14h10.31.161,Main,2022.1.1,60.016552565255324,
positive,positive,2,l,j,,,,,,,,,7,17,143,11,,,,,,,,,,,,,,,,,,,,,,,,main,2,2,2,positive,positive,l,l,1,0.7866629000000103,418.24574479999956,419.2556142999997,419.23599559999957,None,418.24574479999956,None,418.24574479999956,None,418.24574479999956,None,420.01482114999993,None,420.01482114999993,None,420.01482114999993,None,,,,,,,,,,,216,25,Male,2022-05-13_14h10.31.161,Main,2022.1.1,60.016552565255324,
negative,negative,1,j,l,,,,,,,,,8,0,144,0,,,,,,,,,,,,,,,,,,,,,,,,main,1,1,1,negative,negative,j,j,1,0.9662865999998758,420.0346330999996,421.04539829999976,421.0078209999997,None,420.0346330999996,None,420.0346330999996,None,420.0346330999996,None,421.9857255499996,None,421.9857255499996,None,421.9857255499996,None,,,,,,,,,,,216,25,Male,2022-05-13_14h10.31.161,Main,2022.1.1,60.016552565255324,
neutral,neutral,2,k,k,,,,,,,,,8,1,145,10,,,,,,,,,,,,,,,,,,,,,,,,main,1,1,2,neutral,neutral,k,k,1,0.7736518000001524,422.00657889999957,423.0220801999999,422.9840104,None,422.00657889999957,None,422.00657889999957,None,422.00657889999957,None,423.7608637499997,None,423.7608637499997,None,423.7608637499997,None,,,,,,,,,,,216,25,Male,2022-05-13_14h10.31.161,Main,2022.1.1,60.016552565255324,
positive,neutral,2,l,j,,,,,,,,,8,2,146,17,,,,,,,,,,,,,,,,,,,,,,,,main,2,2,2,neutral,positive,l,l,1,0.7884954999999536,423.7812154999997,424.7899256999999,424.76781789999995,None,423.7812154999997,None,423.7812154999997,None,423.7812154999997,None,425.5536339499999,None,425.5536339499999,None,425.5536339499999,None,,,,,,,,,,,216,25,Male,2022-05-13_14h10.31.161,Main,2022.1.1,60.016552565255324,
neutral,neutral,1,k,k,,,,,,,,,8,3,147,1,,,,,,,,,,,,,,,,,,,,,,,,main,2,2,1,neutral,neutral,k,k,1,0.6890804999998181,425.57276139999976,426.5844168999997,426.54710229999955,None,425.57276139999976,None,425.57276139999976,None,425.57276139999976,None,427.24377714999986,None,427.24377714999986,None,427.24377714999986,None,,,,,,,,,,,216,25,Male,2022-05-13_14h10.31.161,Main,2022.1.1,60.016552565255324,
positive,negative,2,l,j,,,,,,,,,8,4,148,14,,,,,,,,,,,,,,,,,,,,,,,,main,1,1,2,negative,positive,l,l,1,0.7037522999999055,427.2643558,428.27065519999996,428.24973739999996,None,427.2643558,None,427.2643558,None,427.2643558,None,428.9484825499998,None,428.9484825499998,None,428.9484825499998,None,,,,,,,,,,,216,25,Male,2022-05-13_14h10.31.161,Main,2022.1.1,60.016552565255324,
negative,positive,1,j,l,,,,,,,,,8,5,149,6,,,,,,,,,,,,,,,,,,,,,,,,main,2,2,1,positive,negative,j,j,1,0.7912027000002126,428.9702815999999,429.9777522999998,429.9590131,None,428.9702815999999,None,428.9702815999999,None,428.9702815999999,None,430.7431824499999,None,430.7431824499999,None,430.7431824499999,None,,,,,,,,,,,216,25,Male,2022-05-13_14h10.31.161,Main,2022.1.1,60.016552565255324,
positive,negative,1,l,j,,,,,,,,,8,6,150,5,,,,,,,,,,,,,,,,,,,,,,,,main,1,1,1,negative,positive,l,l,1,0.9454470000000583,430.76449209999964,431.7829012999996,431.74553469999955,None,430.76449209999964,None,430.76449209999964,None,430.76449209999964,None,432.6911833499998,None,432.6911833499998,None,432.6911833499998,None,,,,,,,,,,,216,25,Male,2022-05-13_14h10.31.161,Main,2022.1.1,60.016552565255324,
neutral,positive,2,k,k,,,,,,,,,8,7,151,13,,,,,,,,,,,,,,,,,,,,,,,,main,2,2,2,positive,neutral,k,k,1,0.650374699999702,432.7120609999997,433.71342219999997,433.69449769999983,None,432.7120609999997,None,432.7120609999997,None,432.7120609999997,None,434.3444126499998,None,434.3444126499998,None,434.3444126499998,None,,,,,,,,,,,216,25,Male,2022-05-13_14h10.31.161,Main,2022.1.1,60.016552565255324,
negative,neutral,1,j,l,,,,,,,,,8,8,152,3,,,,,,,,,,,,,,,,,,,,,,,,main,1,1,1,neutral,negative,j,j,1,0.7046473000000333,434.3646653999999,435.37520059999997,435.3376651999997,None,434.3646653999999,None,434.3646653999999,None,434.3646653999999,None,436.0536176499999,None,436.0536176499999,None,436.0536176499999,None,,,,,,,,,,,216,25,Male,2022-05-13_14h10.31.161,Main,2022.1.1,60.016552565255324,
negative,positive,2,j,l,,,,,,,,,8,9,153,15,,,,,,,,,,,,,,,,,,,,,,,,main,2,2,2,positive,negative,j,j,1,1.0616418999998132,436.0729779999997,437.0878051999998,437.0488356999999,None,436.0729779999997,None,436.0729779999997,None,436.0729779999997,None,438.1157143499999,None,438.1157143499999,None,438.1157143499999,None,,,,,,,,,,,216,25,Male,2022-05-13_14h10.31.161,Main,2022.1.1,60.016552565255324,
neutral,positive,1,k,k,,,,,,,,,8,10,154,4,,,,,,,,,,,,,,,,,,,,,,,,main,1,1,1,positive,neutral,k,k,1,0.7111238000002231,438.1375410999999,439.14400239999986,439.12531539999964,None,438.1375410999999,None,438.1375410999999,None,438.1375410999999,None,439.83107324999986,None,439.83107324999986,None,439.83107324999986,None,,,,,,,,,,,216,25,Male,2022-05-13_14h10.31.161,Main,2022.1.1,60.016552565255324,
neutral,negative,2,k,k,,,,,,,,,8,11,155,16,,,,,,,,,,,,,,,,,,,,,,,,main,2,2,2,negative,neutral,k,k,1,0.8441889000000629,439.85050869999986,440.8704358,440.8319644999997,None,439.85050869999986,None,439.85050869999986,None,439.85050869999986,None,441.67594484999967,None,441.67594484999967,None,441.67594484999967,None,,,,,,,,,,,216,25,Male,2022-05-13_14h10.31.161,Main,2022.1.1,60.016552565255324,
negative,neutral,2,j,l,,,,,,,,,8,12,156,12,,,,,,,,,,,,,,,,,,,,,,,,main,1,1,2,neutral,negative,j,j,1,0.7542794000000868,441.6970745999997,442.7031422,442.6843491999998,None,441.6970745999997,None,441.6970745999997,None,441.6970745999997,None,443.43579434999987,None,443.43579434999987,None,443.43579434999987,None,,,,,,,,,,,216,25,Male,2022-05-13_14h10.31.161,Main,2022.1.1,60.016552565255324,
neutral,negative,1,k,k,,,,,,,,,8,13,157,7,,,,,,,,,,,,,,,,,,,,,,,,main,2,2,1,negative,neutral,k,k,1,0.960748799999692,443.45546969999987,444.47343429999955,444.43490299999985,None,443.45546969999987,None,443.45546969999987,None,443.45546969999987,None,445.39918074999963,None,445.39918074999963,None,445.39918074999963,None,,,,,,,,,,,216,25,Male,2022-05-13_14h10.31.161,Main,2022.1.1,60.016552565255324,
positive,neutral,1,l,j,,,,,,,,,8,14,158,8,,,,,,,,,,,,,,,,,,,,,,,,main,1,1,1,neutral,positive,l,l,1,0.7104042999999365,445.42108899999994,446.43872589999955,446.40200019999975,None,445.42108899999994,None,445.42108899999994,None,445.42108899999994,None,447.10989374999957,None,447.10989374999957,None,447.10989374999957,None,,,,,,,,,,,216,25,Male,2022-05-13_14h10.31.161,Main,2022.1.1,60.016552565255324,
positive,positive,2,l,j,,,,,,,,,8,15,159,11,,,,,,,,,,,,,,,,,,,,,,,,main,1,1,2,positive,positive,l,l,1,0.7377124999998159,447.1295111999998,448.13626769999973,448.1167916999998,None,447.1295111999998,None,447.1295111999998,None,447.1295111999998,None,448.85236464999974,None,448.85236464999974,None,448.85236464999974,None,,,,,,,,,,,216,25,Male,2022-05-13_14h10.31.161,Main,2022.1.1,60.016552565255324,
negative,negative,2,j,l,,,,,,,,,8,16,160,9,,,,,,,,,,,,,,,,,,,,,,,,main,1,1,2,negative,negative,j,j,1,0.7867085999996561,448.87347889999955,449.88922809999985,449.85222929999964,None,448.87347889999955,None,448.87347889999955,None,448.87347889999955,None,450.64274414999994,None,450.64274414999994,None,450.64274414999994,None,,,,,,,,,,,216,25,Male,2022-05-13_14h10.31.161,Main,2022.1.1,60.016552565255324,
positive,positive,1,l,j,,,,,,,,,8,17,161,2,,,,,,,,,,,,,,,,,,,,,,,,main,1,1,1,positive,positive,l,l,1,0.6896716000001106,450.66291239999964,451.67402679999987,451.63568389999955,None,450.66291239999964,None,450.66291239999964,None,450.66291239999964,None,452.3364566499999,None,452.3364566499999,None,452.3364566499999,None,,,,,,,,,,,216,25,Male,2022-05-13_14h10.31.161,Main,2022.1.1,60.016552565255324,
neutral,neutral,1,k,k,,,,,,,,,9,0,162,1,,,,,,,,,,,,,,,,,,,,,,,,main,1,1,1,neutral,neutral,k,k,1,0.6394659999996293,452.3563291999999,453.37366969999994,453.33687619999955,None,452.3563291999999,None,452.3563291999999,None,452.3563291999999,None,453.97783964999957,None,453.97783964999957,None,453.97783964999957,None,,,,,,,,,,,216,25,Male,2022-05-13_14h10.31.161,Main,2022.1.1,60.016552565255324,
negative,negative,2,j,l,,,,,,,,,9,1,163,9,,,,,,,,,,,,,,,,,,,,,,,,main,1,1,2,negative,negative,j,j,1,0.8202721000002384,453.9986074999997,455.01661769999964,454.97904709999966,None,453.9986074999997,None,453.9986074999997,None,453.9986074999997,None,455.8033464499999,None,455.8033464499999,None,455.8033464499999,None,,,,,,,,,,,216,25,Male,2022-05-13_14h10.31.161,Main,2022.1.1,60.016552565255324,
neutral,negative,1,k,k,,,,,,,,,9,2,164,7,,,,,,,,,,,,,,,,,,,,,,,,main,1,1,1,negative,neutral,k,k,1,0.8025910999999724,455.8236227999996,456.83437369999956,456.7952487999996,None,455.8236227999996,None,455.8236227999996,None,455.8236227999996,None,457.6083217499999,None,457.6083217499999,None,457.6083217499999,None,,,,,,,,,,,216,25,Male,2022-05-13_14h10.31.161,Main,2022.1.1,60.016552565255324,
negative,neutral,1,j,l,,,,,,,,,9,3,165,3,,,,,,,,,,,,,,,,,,,,,,,,main,1,1,1,neutral,negative,j,j,1,0.7164527999998427,457.62869269999965,458.6285581999996,458.6118598999997,None,457.62869269999965,None,457.62869269999965,None,457.62869269999965,None,459.3274899499997,None,459.3274899499997,None,459.3274899499997,None,,,,,,,,,,,216,25,Male,2022-05-13_14h10.31.161,Main,2022.1.1,60.016552565255324,
negative,neutral,2,j,l,,,,,,,,,9,4,166,12,,,,,,,,,,,,,,,,,,,,,,,,main,2,2,2,neutral,negative,j,j,1,0.7763127000002896,459.34759699999995,460.35207279999986,460.3321077999999,None,459.34759699999995,None,459.34759699999995,None,459.34759699999995,None,461.1057751499997,None,461.1057751499997,None,461.1057751499997,None,,,,,,,,,,,216,25,Male,2022-05-13_14h10.31.161,Main,2022.1.1,60.016552565255324,
positive,positive,1,l,j,,,,,,,,,9,5,167,2,,,,,,,,,,,,,,,,,,,,,,,,main,1,1,1,positive,positive,l,l,1,0.7536682999998447,461.1263012999998,462.1319688999997,462.11218759999974,None,461.1263012999998,None,461.1263012999998,None,461.1263012999998,None,462.8646422499996,None,462.8646422499996,None,462.8646422499996,None,,,,,,,,,,,216,25,Male,2022-05-13_14h10.31.161,Main,2022.1.1,60.016552565255324,
positive,positive,2,l,j,,,,,,,,,9,6,168,11,,,,,,,,,,,,,,,,,,,,,,,,main,2,2,2,positive,positive,l,l,1,0.7962717999998858,462.8857966999999,463.9032556999996,463.86539089999997,None,462.8857966999999,None,462.8857966999999,None,462.8857966999999,None,464.6643713499997,None,464.6643713499997,None,464.6643713499997,None,,,,,,,,,,,216,25,Male,2022-05-13_14h10.31.161,Main,2022.1.1,60.016552565255324,
negative,negative,1,j,l,,,,,,,,,9,7,169,0,,,,,,,,,,,,,,,,,,,,,,,,main,2,2,1,negative,negative,j,j,1,0.8279148999999961,464.6842574999996,465.6981131999996,465.6603363999998,None,464.6842574999996,None,464.6842574999996,None,464.6842574999996,None,466.4932307499998,None,466.4932307499998,None,466.4932307499998,None,,,,,,,,,,,216,25,Male,2022-05-13_14h10.31.161,Main,2022.1.1,60.016552565255324,
neutral,negative,2,k,k,,,,,,,,,9,8,170,16,,,,,,,,,,,,,,,,,,,,,,,,main,1,1,2,negative,neutral,k,k,1,0.7183950999997251,466.5147731999996,467.52140439999994,467.5030265999999,None,466.5147731999996,None,466.5147731999996,None,466.5147731999996,None,468.21736404999996,None,468.21736404999996,None,468.21736404999996,None,,,,,,,,,,,216,25,Male,2022-05-13_14h10.31.161,Main,2022.1.1,60.016552565255324,
positive,negative,2,l,j,,,,,,,,,9,9,171,14,,,,,,,,,,,,,,,,,,,,,,,,main,2,2,2,negative,positive,l,l,1,0.765266899999915,468.23747589999994,469.2516948999996,469.23279189999994,None,468.23747589999994,None,468.23747589999994,None,468.23747589999994,None,469.98569754999966,None,469.98569754999966,None,469.98569754999966,None,,,,,,,,,,,216,25,Male,2022-05-13_14h10.31.161,Main,2022.1.1,60.016552565255324,
negative,positive,2,j,l,,,,,,,,,9,10,172,15,,,,,,,,,,,,,,,,,,,,,,,,main,1,1,2,positive,negative,j,j,1,0.6844627000000401,470.00554169999987,471.01394349999964,470.99450209999986,None,470.00554169999987,None,470.00554169999987,None,470.00554169999987,None,471.6728357499996,None,471.6728357499996,None,471.6728357499996,None,,,,,,,,,,,216,25,Male,2022-05-13_14h10.31.161,Main,2022.1.1,60.016552565255324,
neutral,positive,1,k,k,,,,,,,,,9,11,173,4,,,,,,,,,,,,,,,,,,,,,,,,main,2,2,1,positive,neutral,k,k,1,0.8130109000003358,471.69417129999965,472.7099896,472.67330079999965,None,471.69417129999965,None,471.69417129999965,None,471.69417129999965,None,473.4889182499996,None,473.4889182499996,None,473.4889182499996,None,,,,,,,,,,,216,25,Male,2022-05-13_14h10.31.161,Main,2022.1.1,60.016552565255324,
positive,negative,1,l,j,,,,,,,,,9,12,174,5,,,,,,,,,,,,,,,,,,,,,,,,main,1,1,1,negative,positive,l,l,1,0.7282215000000178,473.5089208999998,474.52007349999985,474.4827356999999,None,473.5089208999998,None,473.5089208999998,None,473.5089208999998,None,475.2194703499999,None,475.2194703499999,None,475.2194703499999,None,,,,,,,,,,,216,25,Male,2022-05-13_14h10.31.161,Main,2022.1.1,60.016552565255324,
positive,neutral,2,l,j,,,,,,,,,9,13,175,17,,,,,,,,,,,,,,,,,,,,,,,,main,2,2,2,neutral,positive,l,l,1,0.6420974000002388,475.2392415999998,476.25740499999984,476.2196635999999,None,475.2392415999998,None,475.2392415999998,None,475.2392415999998,None,476.8657105499996,None,476.8657105499996,None,476.8657105499996,None,,,,,,,,,,,216,25,Male,2022-05-13_14h10.31.161,Main,2022.1.1,60.016552565255324,
positive,neutral,1,l,j,,,,,,,,,9,14,176,8,,,,,,,,,,,,,,,,,,,,,,,,main,1,1,1,neutral,positive,l,l,1,0.806481299999632,476.8858846999997,477.88762129999986,477.8696864999997,None,476.8858846999997,None,476.8858846999997,None,476.8858846999997,None,478.6768726499999,None,478.6768726499999,None,478.6768726499999,None,,,,,,,,,,,216,25,Male,2022-05-13_14h10.31.161,Main,2022.1.1,60.016552565255324,
neutral,neutral,2,k,k,,,,,,,,,9,15,177,10,,,,,,,,,,,,,,,,,,,,,,,,main,2,2,2,neutral,neutral,k,k,1,0.7240224000001945,478.6962348999996,479.71012519999977,479.67199949999986,None,478.6962348999996,None,478.6962348999996,None,478.6962348999996,None,480.4011883499997,None,480.4011883499997,None,480.4011883499997,None,,,,,,,,,,,216,25,Male,2022-05-13_14h10.31.161,Main,2022.1.1,60.016552565255324,
negative,positive,1,j,l,,,,,,,,,9,16,178,6,,,,,,,,,,,,,,,,,,,,,,,,main,1,1,1,positive,negative,j,j,1,1.1845373000001018,480.4217414999998,481.4238000999999,481.4052099999999,None,480.4217414999998,None,480.4217414999998,None,480.4217414999998,None,482.58794274999985,None,482.58794274999985,None,482.58794274999985,None,,,,,,,,,,,216,25,Male,2022-05-13_14h10.31.161,Main,2022.1.1,60.016552565255324,
neutral,positive,2,k,k,,,,,,,,,9,17,179,13,,,,,,,,,,,,,,,,,,,,,,,,main,1,1,2,positive,neutral,k,k,1,0.719172399999934,482.6090964,483.62660479999977,483.5901875999998,None,482.6090964,None,482.6090964,None,482.6090964,None,484.3119300499997,None,484.3119300499997,None,484.3119300499997,None,,,,,,,,,,,216,25,Male,2022-05-13_14h10.31.161,Main,2022.1.1,60.016552565255324,
positive,neutral,2,l,j,,,,,,,,,10,0,180,17,,,,,,,,,,,,,,,,,,,,,,,,main,1,1,2,neutral,positive,l,l,1,0.6269376000000193,484.3315166999996,485.3431581,485.3221093999996,None,484.3315166999996,None,484.3315166999996,None,484.3315166999996,None,485.9393016499998,None,485.9393016499998,None,485.9393016499998,None,,,,,,,,,,,216,25,Male,2022-05-13_14h10.31.161,Main,2022.1.1,60.016552565255324,
positive,negative,2,l,j,,,,,,,,,10,1,181,14,,,,,,,,,,,,,,,,,,,,,,,,main,1,1,2,negative,positive,l,l,1,0.7792547999997623,485.9596916999999,486.9671936,486.9468591,None,485.9596916999999,None,485.9596916999999,None,485.9596916999999,None,487.7211887499997,None,487.7211887499997,None,487.7211887499997,None,,,,,,,,,,,216,25,Male,2022-05-13_14h10.31.161,Main,2022.1.1,60.016552565255324,
negative,positive,1,j,l,,,,,,,,,10,2,182,6,,,,,,,,,,,,,,,,,,,,,,,,main,1,1,1,positive,negative,j,j,1,1.1919730999998137,487.74139209999976,488.7478609,488.7287329999999,None,487.74139209999976,None,487.74139209999976,None,487.74139209999976,None,489.91673284999973,None,489.91673284999973,None,489.91673284999973,None,,,,,,,,,,,216,25,Male,2022-05-13_14h10.31.161,Main,2022.1.1,60.016552565255324,
negative,neutral,1,j,l,,,,,,,,,10,3,183,3,,,,,,,,,,,,,,,,,,,,,,,,main,2,2,1,neutral,negative,j,j,1,1.3411387000001014,489.9375921999999,490.9406919999997,490.92190109999956,None,489.9375921999999,None,489.9375921999999,None,489.9375921999999,None,492.2617769499997,None,492.2617769499997,None,492.2617769499997,None,,,,,,,,,,,216,25,Male,2022-05-13_14h10.31.161,Main,2022.1.1,60.016552565255324,
positive,neutral,1,l,j,,,,,,,,,10,4,184,8,,,,,,,,,,,,,,,,,,,,,,,,main,1,1,1,neutral,positive,l,l,1,0.6159108999995624,492.28177119999964,493.29174129999956,493.25396939999973,None,492.28177119999964,None,492.28177119999964,None,492.28177119999964,None,493.88028725,None,493.88028725,None,493.88028725,None,,,,,,,,,,,216,25,Male,2022-05-13_14h10.31.161,Main,2022.1.1,60.016552565255324,
positive,positive,2,l,j,,,,,,,,,10,5,185,11,,,,,,,,,,,,,,,,,,,,,,,,main,1,1,2,positive,positive,l,l,1,0.7834379000000808,493.900126,494.90574909999987,494.88677689999986,None,493.900126,None,493.900126,None,493.900126,None,495.6657992499999,None,495.6657992499999,None,495.6657992499999,None,,,,,,,,,,,216,25,Male,2022-05-13_14h10.31.161,Main,2022.1.1,60.016552565255324,
negative,negative,2,j,l,,,,,,,,,10,6,186,9,,,,,,,,,,,,,,,,,,,,,,,,main,1,1,2,negative,negative,j,j,1,0.7434336999999687,495.6863083999997,496.6965849999997,496.67813469999965,None,495.6863083999997,None,495.6863083999997,None,495.6863083999997,None,497.4139283499998,None,497.4139283499998,None,497.4139283499998,None,,,,,,,,,,,216,25,Male,2022-05-13_14h10.31.161,Main,2022.1.1,60.016552565255324,
positive,negative,1,l,j,,,,,,,,,10,7,187,5,,,,,,,,,,,,,,,,,,,,,,,,main,2,2,1,negative,positive,l,l,1,0.8724962999999661,497.43556579999995,498.4534914999999,498.41526299999987,None,497.43556579999995,None,497.43556579999995,None,497.43556579999995,None,499.2910302499999,None,499.2910302499999,None,499.2910302499999,None,,,,,,,,,,,216,25,Male,2022-05-13_14h10.31.161,Main,2022.1.1,60.016552565255324,
neutral,negative,1,k,k,,,,,,,,,10,8,188,7,,,,,,,,,,,,,,,,,,,,,,,,main,2,2,1,negative,neutral,k,k,1,0.6427833999996437,499.3111024,500.3268960999999,500.28756139999996,None,499.3111024,None,499.3111024,None,499.3111024,None,500.93476534999985,None,500.93476534999985,None,500.93476534999985,None,,,,,,,,,,,216,25,Male,2022-05-13_14h10.31.161,Main,2022.1.1,60.016552565255324,
negative,neutral,2,j,l,,,,,,,,,10,9,189,12,,,,,,,,,,,,,,,,,,,,,,,,main,1,1,2,neutral,negative,j,j,1,0.8057598000000326,500.9549781999999,501.97472659999994,501.94521449999957,None,500.9549781999999,None,500.9549781999999,None,500.9549781999999,None,502.7451699499997,None,502.7451699499997,None,502.7451699499997,None,,,,,,,,,,,216,25,Male,2022-05-13_14h10.31.161,Main,2022.1.1,60.016552565255324,
neutral,neutral,2,k,k,,,,,,,,,10,10,190,10,,,,,,,,,,,,,,,,,,,,,,,,main,2,2,2,neutral,neutral,k,k,1,0.7319855999999163,502.76427369999965,503.7777613999997,503.7400782999998,None,502.76427369999965,None,502.76427369999965,None,502.76427369999965,None,504.47943604999995,None,504.47943604999995,None,504.47943604999995,None,,,,,,,,,,,216,25,Male,2022-05-13_14h10.31.161,Main,2022.1.1,60.016552565255324,
neutral,neutral,1,k,k,,,,,,,,,10,11,191,1,,,,,,,,,,,,,,,,,,,,,,,,main,1,1,1,neutral,neutral,k,k,1,0.640654099999665,504.50086399999964,505.51757119999957,505.48198139999977,None,504.50086399999964,None,504.50086399999964,None,504.50086399999964,None,506.12326284999966,None,506.12326284999966,None,506.12326284999966,None,,,,,,,,,,,216,25,Male,2022-05-13_14h10.31.161,Main,2022.1.1,60.016552565255324,
negative,positive,2,j,l,,,,,,,,,10,12,192,15,,,,,,,,,,,,,,,,,,,,,,,,main,1,1,2,positive,negative,j,j,1,0.9626140999998825,506.1451957999998,507.1646903999999,507.1274271999996,None,506.1451957999998,None,506.1451957999998,None,506.1451957999998,None,508.08986674999954,None,508.08986674999954,None,508.08986674999954,None,,,,,,,,,,,216,25,Male,2022-05-13_14h10.31.161,Main,2022.1.1,60.016552565255324,
negative,negative,1,j,l,,,,,,,,,10,13,193,0,,,,,,,,,,,,,,,,,,,,,,,,main,1,1,1,negative,negative,j,j,1,0.6776043999998365,508.1101566999996,509.12292309999975,509.08662189999995,None,508.1101566999996,None,508.1101566999996,None,508.1101566999996,None,509.7686055499998,None,509.7686055499998,None,509.7686055499998,None,,,,,,,,,,,216,25,Male,2022-05-13_14h10.31.161,Main,2022.1.1,60.016552565255324,
neutral,positive,2,k,k,,,,,,,,,10,14,194,13,,,,,,,,,,,,,,,,,,,,,,,,main,1,1,2,positive,neutral,k,k,1,0.802795099999912,509.78855969999995,510.8022778999998,510.7638377999997,None,509.78855969999995,None,509.78855969999995,None,509.78855969999995,None,511.57482444999954,None,511.57482444999954,None,511.57482444999954,None,,,,,,,,,,,216,25,Male,2022-05-13_14h10.31.161,Main,2022.1.1,60.016552565255324,
neutral,negative,2,k,k,,,,,,,,,10,15,195,16,,,,,,,,,,,,,,,,,,,,,,,,main,1,1,2,negative,neutral,k,k,1,0.7178100999999515,511.59401379999963,512.5984973999998,512.5795427999997,None,511.59401379999963,None,511.59401379999963,None,511.59401379999963,None,513.2960151499997,None,513.2960151499997,None,513.2960151499997,None,,,,,,,,,,,216,25,Male,2022-05-13_14h10.31.161,Main,2022.1.1,60.016552565255324,
positive,positive,1,l,j,,,,,,,,,10,16,196,2,,,,,,,,,,,,,,,,,,,,,,,,main,1,1,1,positive,positive,l,l,1,0.6794164000002638,513.3158921999998,514.3300591999996,514.2945013999997,None,513.3158921999998,None,513.3158921999998,None,513.3158921999998,None,514.9793824499998,None,514.9793824499998,None,514.9793824499998,None,,,,,,,,,,,216,25,Male,2022-05-13_14h10.31.161,Main,2022.1.1,60.016552565255324,
neutral,positive,1,k,k,,,,,,,,,10,17,197,4,,,,,,,,,,,,,,,,,,,,,,,,main,2,2,1,positive,neutral,k,k,1,0.7051268999998683,514.9993205999999,516.0025704,515.9825476999999,None,514.9993205999999,None,514.9993205999999,None,514.9993205999999,None,516.68859165,None,516.68859165,None,516.68859165,None,,,,,,,,,,,216,25,Male,2022-05-13_14h10.31.161,Main,2022.1.1,60.016552565255324,
positive,neutral,1,l,j,,,,,,,,,11,0,198,8,,,,,,,,,,,,,,,,,,,,,,,,main,2,2,1,neutral,positive,l,l,1,0.6518485999999939,516.7081364999999,517.7220125999997,517.6852145999997,None,516.7081364999999,None,516.7081364999999,None,516.7081364999999,None,518.34262425,None,518.34262425,None,518.34262425,None,,,,,,,,,,,216,25,Male,2022-05-13_14h10.31.161,Main,2022.1.1,60.016552565255324,
neutral,positive,1,k,k,,,,,,,,,11,1,199,4,,,,,,,,,,,,,,,,,,,,,,,,main,2,2,1,positive,neutral,k,k,1,0.6259222999997291,518.3635222999997,519.3818800999998,519.3440071999999,None,518.3635222999997,None,518.3635222999997,None,518.3635222999997,None,519.9713832499997,None,519.9713832499997,None,519.9713832499997,None,,,,,,,,,,,216,25,Male,2022-05-13_14h10.31.161,Main,2022.1.1,60.016552565255324,
negative,neutral,1,j,l,,,,,,,,,11,2,200,3,,,,,,,,,,,,,,,,,,,,,,,,main,2,2,1,neutral,negative,j,j,1,0.8527415000003202,519.9910751999996,520.9938597999999,520.9749144999996,None,519.9910751999996,None,519.9910751999996,None,519.9910751999996,None,521.8252464499997,None,521.8252464499997,None,521.8252464499997,None,,,,,,,,,,,216,25,Male,2022-05-13_14h10.31.161,Main,2022.1.1,60.016552565255324,
neutral,neutral,2,k,k,,,,,,,,,11,3,201,10,,,,,,,,,,,,,,,,,,,,,,,,main,1,1,2,neutral,neutral,k,k,1,0.6525079999996706,521.8464786,522.8644559999998,522.8256557999998,None,521.8464786,None,521.8464786,None,521.8464786,None,523.4791278499997,None,523.4791278499997,None,523.4791278499997,None,,,,,,,,,,,216,25,Male,2022-05-13_14h10.31.161,Main,2022.1.1,60.016552565255324,
negative,negative,1,j,l,,,,,,,,,11,4,202,0,,,,,,,,,,,,,,,,,,,,,,,,main,1,1,1,negative,negative,j,j,1,0.8444052999998348,523.5039752999996,524.5205558999996,524.4853662999999,None,523.5039752999996,None,523.5039752999996,None,523.5039752999996,None,525.3301726499999,None,525.3301726499999,None,525.3301726499999,None,,,,,,,,,,,216,25,Male,2022-05-13_14h10.31.161,Main,2022.1.1,60.016552565255324,
negative,neutral,2,j,l,,,,,,,,,11,5,203,12,,,,,,,,,,,,,,,,,,,,,,,,main,1,1,2,neutral,negative,j,j,1,0.8304290000000947,525.3495003999997,526.3566640999998,526.3369200999996,None,525.3495003999997,None,525.3495003999997,None,525.3495003999997,None,527.1630459499997,None,527.1630459499997,None,527.1630459499997,None,,,,,,,,,,,216,25,Male,2022-05-13_14h10.31.161,Main,2022.1.1,60.016552565255324,
negative,positive,2,j,l,,,,,,,,,11,6,204,15,,,,,,,,,,,,,,,,,,,,,,,,main,2,2,2,positive,negative,j,j,1,0.6461100999999871,527.1844413999997,528.2027426999998,528.1649278,None,527.1844413999997,None,527.1844413999997,None,527.1844413999997,None,528.8117548499999,None,528.8117548499999,None,528.8117548499999,None,,,,,,,,,,,216,25,Male,2022-05-13_14h10.31.161,Main,2022.1.1,60.016552565255324,
positive,neutral,2,l,j,,,,,,,,,11,7,205,17,,,,,,,,,,,,,,,,,,,,,,,,main,1,1,2,neutral,positive,l,l,1,0.7180263999998715,528.8308032,529.8357550999999,529.8171576,None,528.8308032,None,528.8308032,None,528.8308032,None,530.53153785,None,530.53153785,None,530.53153785,None,,,,,,,,,,,216,25,Male,2022-05-13_14h10.31.161,Main,2022.1.1,60.016552565255324,
positive,negative,2,l,j,,,,,,,,,11,8,206,14,,,,,,,,,,,,,,,,,,,,,,,,main,1,1,2,negative,positive,l,l,1,0.7487208000002283,530.5521563999996,531.5656142999997,531.5286324999997,None,530.5521563999996,None,530.5521563999996,None,530.5521563999996,None,532.2831447499998,None,532.2831447499998,None,532.2831447499998,None,,,,,,,,,,,216,25,Male,2022-05-13_14h10.31.161,Main,2022.1.1,60.016552565255324,
neutral,neutral,1,k,k,,,,,,,,,11,9,207,1,,,,,,,,,,,,,,,,,,,,,,,,main,2,2,1,neutral,neutral,k,k,1,0.6871799000000465,532.3035731999998,533.3165594999996,533.2792230999999,None,532.3035731999998,None,532.3035731999998,None,532.3035731999998,None,533.9742755499997,None,533.9742755499997,None,533.9742755499997,None,,,,,,,,,,,216,25,Male,2022-05-13_14h10.31.161,Main,2022.1.1,60.016552565255324,
neutral,negative,1,k,k,,,,,,,,,11,10,208,7,,,,,,,,,,,,,,,,,,,,,,,,main,1,1,1,negative,neutral,k,k,1,0.7223844000000099,533.9937242999999,534.9989526999998,534.9802771,None,533.9937242999999,None,533.9937242999999,None,533.9937242999999,None,535.6977289499996,None,535.6977289499996,None,535.6977289499996,None,,,,,,,,,,,216,25,Male,2022-05-13_14h10.31.161,Main,2022.1.1,60.016552565255324,
positive,positive,1,l,j,,,,,,,,,11,11,209,2,,,,,,,,,,,,,,,,,,,,,,,,main,2,2,1,positive,positive,l,l,1,0.7221724999999424,535.7192948999996,536.7223621999997,536.7032155999996,None,535.7192948999996,None,535.7192948999996,None,535.7192948999996,None,537.4235021499999,None,537.4235021499999,None,537.4235021499999,None,,,,,,,,,,,216,25,Male,2022-05-13_14h10.31.161,Main,2022.1.1,60.016552565255324,
neutral,negative,2,k,k,,,,,,,,,11,12,210,16,,,,,,,,,,,,,,,,,,,,,,,,main,2,2,2,negative,neutral,k,k,1,0.8113330999999562,537.4433826,538.4493713999996,538.4298541999997,None,537.4433826,None,537.4433826,None,537.4433826,None,539.2380267499998,None,539.2380267499998,None,539.2380267499998,None,,,,,,,,,,,216,25,Male,2022-05-13_14h10.31.161,Main,2022.1.1,60.016552565255324,
