target,distractor,set,ans1,ans2,rep_loop2.thisRepN,rep_loop2.thisTrialN,rep_loop2.thisN,rep_loop2.thisIndex,flanker_prac_loop.thisRepN,flanker_prac_loop.thisTrialN,flanker_prac_loop.thisN,flanker_prac_loop.thisIndex,flanker_main_loop.thisRepN,flanker_main_loop.thisTrialN,flanker_main_loop.thisN,flanker_main_loop.thisIndex,fl_inst_resp.keys,mouse.x,mouse.y,mouse.leftButton,mouse.midButton,mouse.rightButton,mouse.started,mouse.stopped,sound_1.started,sound_1.stopped,no_text.started,no_text.stopped,yes_text.started,yes_text.stopped,mouse_2.x,mouse_2.y,mouse_2.leftButton,mouse_2.midButton,mouse_2.rightButton,mouse_2.started,mouse_2.stopped,back_2.started,back_2.stopped,main_prac,fl_cold,fl_colt,fl_set,fl_dcond,fl_tcond,fl_ans,fl_res,fl_corr,fl_rt,fix_fl.started,fix_fl.stopped,targ.started,targ.stopped,j_button.started,j_button.stopped,k_button.started,k_button.stopped,l_button.started,l_button.stopped,j_button2.started,j_button2.stopped,k_button2.started,k_button2.stopped,l_button2.started,l_button2.stopped,mainback.started,mainback.stopped,key_resp.keys,mouse_6.x,mouse_6.y,mouse_6.leftButton,mouse_6.midButton,mouse_6.rightButton,mouse_6.started,mouse_6.stopped,id*,age*,gender*,date,expName,psychopyVersion,frameRate,
,,,,,0,0,0,0,,,,,,,,,None,0.26666668,-0.13611111,0,0,0,1.0065603000211922,None,20.36536334999955,None,71.36041879999993,None,71.36041879999993,None,-0.07777778,-0.07777778,0,0,0,0.012529149999863876,None,,,,,,,,,,,,,,,,,,,,,,,,,,,,,,,,,,,,,,,217,24,Male,2022-05-17_14h14.25.046,Main,2022.1.1,59.97972685255231,
neutral,neutral,1,k,k,,,,,0,0,0,1,,,,,,,,,,,,,,,,,,,,,,,,,,74.59151479999946,None,prac,2,2,1,neutral,neutral,k,k,1,1.3252184000002671,76.64218679999976,77.66385739999987,77.62294719999954,None,76.64218679999976,None,76.64218679999976,None,76.64218679999976,None,78.93192545000029,None,78.93192545000029,None,78.93192545000029,None,,,,,,,,,,,217,24,Male,2022-05-17_14h14.25.046,Main,2022.1.1,59.97972685255231,
negative,positive,2,j,l,,,,,0,1,1,15,,,,,,,,,,,,,,,,,,,,,,,,,,,,prac,2,2,2,positive,negative,l,l,1,1.5517196000000695,78.98089499999969,79.98480999999992,79.96419030000015,None,78.98089499999969,None,78.98089499999969,None,78.98089499999969,None,81.51485159999993,None,81.51485159999993,None,81.51485159999993,None,,,,,,,,,,,217,24,Male,2022-05-17_14h14.25.046,Main,2022.1.1,59.97972685255231,
negative,positive,1,j,l,,,,,0,2,2,6,,,,,,,,,,,,,,,,,,,,,,,,,,,,prac,1,1,1,positive,negative,l,l,1,1.1367791000002399,82.5508162999995,83.55711599999995,83.53683639999963,None,82.5508162999995,None,82.5508162999995,None,82.5508162999995,None,84.65405815000004,None,84.65405815000004,None,84.65405815000004,None,,,,,,,,,,,217,24,Male,2022-05-17_14h14.25.046,Main,2022.1.1,59.97972685255231,
neutral,positive,1,k,k,,,,,0,3,3,4,,,,,,,,,,,,,,,,,,,,,,,,,,,,prac,2,2,1,positive,neutral,k,k,1,0.9455048999998326,84.69071410000015,85.70744579999973,85.68629919999967,None,84.69071410000015,None,84.69071410000015,None,84.69071410000015,None,86.60347005000013,None,86.60347005000013,None,86.60347005000013,None,,,,,,,,,,,217,24,Male,2022-05-17_14h14.25.046,Main,2022.1.1,59.97972685255231,
negative,neutral,2,j,l,,,,,0,4,4,12,,,,,,,,,,,,,,,,,,,,,,,,,,,,prac,2,2,2,neutral,negative,l,l,1,0.9621754000008877,86.64129520000006,87.6455391999998,87.62385579999955,None,86.64129520000006,None,86.64129520000006,None,86.64129520000006,None,88.56556644999974,None,88.56556644999974,None,88.56556644999974,None,,,,,,,,,,,217,24,Male,2022-05-17_14h14.25.046,Main,2022.1.1,59.97972685255231,
neutral,positive,2,k,k,,,,,0,5,5,13,,,,,,,,,,,,,,,,,,,,,,,,,,,,prac,1,1,2,positive,neutral,k,k,1,1.0138716000001295,88.60883529999955,89.61870540000018,89.5814221999999,None,88.60883529999955,None,88.60883529999955,None,88.60883529999955,None,90.58086805000012,None,90.58086805000012,None,90.58086805000012,None,,,,,,,,,,,217,24,Male,2022-05-17_14h14.25.046,Main,2022.1.1,59.97972685255231,
neutral,negative,2,k,k,,,,,0,6,6,16,,,,,,,,,,,,,,,,,,,,,,,,,,,,prac,1,1,2,negative,neutral,k,k,1,0.9033982999999353,90.61308289999943,91.63305539999965,91.59389529999953,None,90.61308289999943,None,90.61308289999943,None,90.61308289999943,None,92.49028564999999,None,92.49028564999999,None,92.49028564999999,None,,,,,,,,,,,217,24,Male,2022-05-17_14h14.25.046,Main,2022.1.1,59.97972685255231,
positive,positive,2,l,j,,,,,0,7,7,11,,,,,,,,,,,,,,,,,,,,,,,,,,,,prac,1,1,2,positive,positive,j,j,1,0.7719791999998051,92.51069759999973,93.52855459999955,93.48754159999953,None,92.51069759999973,None,92.51069759999973,None,92.51069759999973,None,94.26347274999962,None,94.26347274999962,None,94.26347274999962,None,,,,,,,,,,,217,24,Male,2022-05-17_14h14.25.046,Main,2022.1.1,59.97972685255231,
positive,neutral,1,l,j,,,,,0,8,8,8,,,,,,,,,,,,,,,,,,,,,,,,,,,,prac,1,1,1,neutral,positive,j,j,1,0.9527262000001429,94.29885360000026,95.31720959999984,95.29787909999959,None,94.29885360000026,None,94.29885360000026,None,94.29885360000026,None,96.22095925000004,None,96.22095925000004,None,96.22095925000004,None,,,,,,,,,,,217,24,Male,2022-05-17_14h14.25.046,Main,2022.1.1,59.97972685255231,
positive,neutral,2,l,j,,,,,0,9,9,17,,,,,,,,,,,,,,,,,,,,,,,,,,,,prac,2,2,2,neutral,positive,j,j,1,1.045973100000083,96.2415949999995,97.24638200000027,97.22666750000008,None,96.2415949999995,None,96.2415949999995,None,96.2415949999995,None,98.26903205000026,None,98.26903205000026,None,98.26903205000026,None,,,,,,,,,,,217,24,Male,2022-05-17_14h14.25.046,Main,2022.1.1,59.97972685255231,
negative,negative,1,j,l,,,,,0,10,10,0,,,,,,,,,,,,,,,,,,,,,,,,,,,,prac,1,1,1,negative,negative,l,l,1,0.9102318000004743,98.29926539999997,99.30644179999945,99.28553699999975,None,98.29926539999997,None,98.29926539999997,None,98.29926539999997,None,100.17913134999954,None,100.17913134999954,None,100.17913134999954,None,,,,,,,,,,,217,24,Male,2022-05-17_14h14.25.046,Main,2022.1.1,59.97972685255231,
negative,neutral,1,j,l,,,,,0,11,11,3,,,,,,,,,,,,,,,,,,,,,,,,,,,,prac,1,1,1,neutral,negative,l,l,1,0.7612429000000702,100.20453480000015,101.21376940000027,101.19441420000021,None,100.20453480000015,None,100.20453480000015,None,100.20453480000015,None,101.94353965,None,101.94353965,None,101.94353965,None,,,,,,,,,,,217,24,Male,2022-05-17_14h14.25.046,Main,2022.1.1,59.97972685255231,
neutral,neutral,2,k,k,,,,,0,12,12,10,,,,,,,,,,,,,,,,,,,,,,,,,,,,prac,1,1,2,neutral,neutral,k,k,1,0.8606656000001749,101.97636009999951,102.98997289999988,102.96906870000021,None,101.97636009999951,None,101.97636009999951,None,101.97636009999951,None,103.8081028499998,None,103.8081028499998,None,103.8081028499998,None,,,,,,,,,,,217,24,Male,2022-05-17_14h14.25.046,Main,2022.1.1,59.97972685255231,
neutral,negative,1,k,k,,,,,0,13,13,7,,,,,,,,,,,,,,,,,,,,,,,,,,,,prac,1,1,1,negative,neutral,k,k,1,0.884470699999838,103.82908080000016,104.83249559999967,104.8124858000001,None,103.82908080000016,None,103.82908080000016,None,103.82908080000016,None,105.69509755000009,None,105.69509755000009,None,105.69509755000009,None,,,,,,,,,,,217,24,Male,2022-05-17_14h14.25.046,Main,2022.1.1,59.97972685255231,
positive,negative,1,l,j,,,,,0,14,14,5,,,,,,,,,,,,,,,,,,,,,,,,,,,,prac,1,1,1,negative,positive,j,j,1,0.9185774000006859,105.72037120000005,106.74260340000001,106.69911270000011,None,105.72037120000005,None,105.72037120000005,None,105.72037120000005,None,107.61858674999958,None,107.61858674999958,None,107.61858674999958,None,,,,,,,,,,,217,24,Male,2022-05-17_14h14.25.046,Main,2022.1.1,59.97972685255231,
negative,negative,2,j,l,,,,,0,15,15,9,,,,,,,,,,,,,,,,,,,,,,,,,,,,prac,1,1,2,negative,negative,l,l,1,0.8942016999999396,107.64075890000004,108.66003029999956,108.61748499999976,None,107.64075890000004,None,107.64075890000004,None,107.64075890000004,None,109.51273714999998,None,109.51273714999998,None,109.51273714999998,None,,,,,,,,,,,217,24,Male,2022-05-17_14h14.25.046,Main,2022.1.1,59.97972685255231,
positive,negative,2,l,j,,,,,0,16,16,14,,,,,,,,,,,,,,,,,,,,,,,,,,,,prac,2,2,2,negative,positive,j,j,1,0.9475578000001406,109.54432319999978,110.56312239999988,110.54355750000013,None,109.54432319999978,None,109.54432319999978,None,109.54432319999978,None,111.46503494999952,None,111.46503494999952,None,111.46503494999952,None,,,,,,,,,,,217,24,Male,2022-05-17_14h14.25.046,Main,2022.1.1,59.97972685255231,
positive,positive,1,l,j,,,,,0,17,17,2,,,,,,,,,,,,,,,,,,,,,,,,,,,,prac,2,2,1,positive,positive,j,j,1,0.7960272999998779,111.48804349999955,112.49725899999976,112.47751119999975,None,111.48804349999955,None,111.48804349999955,None,111.48804349999955,None,113.26065244999945,None,113.26065244999945,None,113.26065244999945,None,,,,,,,,,,,217,24,Male,2022-05-17_14h14.25.046,Main,2022.1.1,59.97972685255231,
positive,negative,1,l,j,,,,,1,0,18,5,,,,,,,,,,,,,,,,,,,,,,,,,,,,prac,2,2,1,negative,positive,j,j,1,0.6882373999997071,113.29975019999983,114.32049629999983,114.27979570000025,None,113.29975019999983,None,113.29975019999983,None,113.29975019999983,None,114.95364874999969,None,114.95364874999969,None,114.95364874999969,None,,,,,,,,,,,217,24,Male,2022-05-17_14h14.25.046,Main,2022.1.1,59.97972685255231,
neutral,positive,2,k,k,,,,,1,1,19,13,,,,,,,,,,,,,,,,,,,,,,,,,,,,prac,1,1,2,positive,neutral,k,k,1,0.9979399000003468,114.97442320000027,115.99484829999983,115.9525948999999,None,114.97442320000027,None,114.97442320000027,None,114.97442320000027,None,116.95389374999986,None,116.95389374999986,None,116.95389374999986,None,,,,,,,,,,,217,24,Male,2022-05-17_14h14.25.046,Main,2022.1.1,59.97972685255231,
negative,positive,2,j,l,,,,,1,2,20,15,,,,,,,,,,,,,,,,,,,,,,,,,,,,prac,2,2,2,positive,negative,l,l,1,0.9260840999995708,116.97570420000011,117.99674080000023,117.95713169999999,None,116.97570420000011,None,116.97570420000011,None,116.97570420000011,None,118.88360015000008,None,118.88360015000008,None,118.88360015000008,None,,,,,,,,,,,217,24,Male,2022-05-17_14h14.25.046,Main,2022.1.1,59.97972685255231,
neutral,positive,1,k,k,,,,,1,3,21,4,,,,,,,,,,,,,,,,,,,,,,,,,,,,prac,1,1,1,positive,neutral,k,k,1,0.7575305999998818,118.90656899999976,119.92748389999997,119.8856396000001,None,118.90656899999976,None,118.90656899999976,None,118.90656899999976,None,120.64101294999973,None,120.64101294999973,None,120.64101294999973,None,,,,,,,,,,,217,24,Male,2022-05-17_14h14.25.046,Main,2022.1.1,59.97972685255231,
positive,positive,1,l,j,,,,,1,4,22,2,,,,,,,,,,,,,,,,,,,,,,,,,,,,prac,2,2,1,positive,positive,j,j,1,0.7669417999995858,120.66346379999959,121.67038030000003,121.64925679999942,None,120.66346379999959,None,120.66346379999959,None,120.66346379999959,None,122.4103808500001,None,122.4103808500001,None,122.4103808500001,None,,,,,,,,,,,217,24,Male,2022-05-17_14h14.25.046,Main,2022.1.1,59.97972685255231,
positive,negative,2,l,j,,,,,1,5,23,14,,,,,,,,,,,,,,,,,,,,,,,,,,,,prac,1,1,2,negative,positive,j,j,1,0.7701759000001402,122.43084840000029,123.45149029999993,123.4106154000001,None,122.43084840000029,None,122.43084840000029,None,122.43084840000029,None,124.18394954999958,None,124.18394954999958,None,124.18394954999958,None,,,,,,,,,,,217,24,Male,2022-05-17_14h14.25.046,Main,2022.1.1,59.97972685255231,
positive,neutral,2,l,j,,,,,1,6,24,17,,,,,,,,,,,,,,,,,,,,,,,,,,,,prac,2,2,2,neutral,positive,j,j,1,0.7119129000002431,124.20965739999974,125.22611119999965,125.20631080000021,None,124.20965739999974,None,124.20965739999974,None,124.20965739999974,None,125.90002104999958,None,125.90002104999958,None,125.90002104999958,None,,,,,,,,,,,217,24,Male,2022-05-17_14h14.25.046,Main,2022.1.1,59.97972685255231,
neutral,negative,1,k,k,,,,,1,7,25,7,,,,,,,,,,,,,,,,,,,,,,,,,,,,prac,1,1,1,negative,neutral,k,k,1,0.8372123999997712,125.92214710000007,126.93505759999971,126.91376109999965,None,125.92214710000007,None,125.92214710000007,None,125.92214710000007,None,127.7376234499995,None,127.7376234499995,None,127.7376234499995,None,,,,,,,,,,,217,24,Male,2022-05-17_14h14.25.046,Main,2022.1.1,59.97972685255231,
negative,negative,2,j,l,,,,,1,8,26,9,,,,,,,,,,,,,,,,,,,,,,,,,,,,prac,1,1,2,negative,negative,l,l,1,1.1347583000006125,127.76054920000024,128.7753192,128.75560979999955,None,127.76054920000024,None,127.76054920000024,None,127.76054920000024,None,129.87527825000024,None,129.87527825000024,None,129.87527825000024,None,,,,,,,,,,,217,24,Male,2022-05-17_14h14.25.046,Main,2022.1.1,59.97972685255231,
positive,neutral,1,l,j,,,,,1,9,27,8,,,,,,,,,,,,,,,,,,,,,,,,,,,,prac,1,1,1,neutral,positive,j,j,1,0.771444099999826,129.89965229999962,130.91771150000022,130.87629529999958,None,129.89965229999962,None,129.89965229999962,None,129.89965229999962,None,131.65193055000026,None,131.65193055000026,None,131.65193055000026,None,,,,,,,,,,,217,24,Male,2022-05-17_14h14.25.046,Main,2022.1.1,59.97972685255231,
neutral,neutral,1,k,k,,,,,1,10,28,1,,,,,,,,,,,,,,,,,,,,,,,,,,,,prac,2,2,1,neutral,neutral,k,k,1,0.7553444999994099,131.67201279999972,132.69149310000012,132.65067259999978,None,131.67201279999972,None,131.67201279999972,None,131.67201279999972,None,133.40655384999963,None,133.40655384999963,None,133.40655384999963,None,,,,,,,,,,,217,24,Male,2022-05-17_14h14.25.046,Main,2022.1.1,59.97972685255231,
negative,positive,1,j,l,,,,,1,11,29,6,,,,,,,,,,,,,,,,,,,,,,,,,,,,prac,1,1,1,positive,negative,l,l,1,0.901221600000099,133.42834010000024,134.4513907999999,134.40973219999978,None,133.42834010000024,None,133.42834010000024,None,133.42834010000024,None,135.31253224999972,None,135.31253224999972,None,135.31253224999972,None,,,,,,,,,,,217,24,Male,2022-05-17_14h14.25.046,Main,2022.1.1,59.97972685255231,
negative,neutral,2,j,l,,,,,1,12,30,12,,,,,,,,,,,,,,,,,,,,,,,,,,,,prac,2,2,2,neutral,negative,l,l,1,0.6846181999999317,135.33298699999978,136.3411355999997,136.32157389999975,None,135.33298699999978,None,135.33298699999978,None,135.33298699999978,None,136.9990574499995,None,136.9990574499995,None,136.9990574499995,None,,,,,,,,,,,217,24,Male,2022-05-17_14h14.25.046,Main,2022.1.1,59.97972685255231,
neutral,negative,2,k,k,,,,,1,13,31,16,,,,,,,,,,,,,,,,,,,,,,,,,,,,prac,2,2,2,negative,neutral,k,k,1,0.7779513000004954,137.01998139999978,138.04096570000002,137.9996401999997,None,137.01998139999978,None,137.01998139999978,None,137.01998139999978,None,138.7751863499995,None,138.7751863499995,None,138.7751863499995,None,,,,,,,,,,,217,24,Male,2022-05-17_14h14.25.046,Main,2022.1.1,59.97972685255231,
positive,positive,2,l,j,,,,,1,14,32,11,,,,,,,,,,,,,,,,,,,,,,,,,,,,prac,2,2,2,positive,positive,j,j,1,1.2661512000004223,138.80223130000013,139.80780359999972,139.78809809999984,None,138.80223130000013,None,138.80223130000013,None,138.80223130000013,None,141.04758775,None,141.04758775,None,141.04758775,None,,,,,,,,,,,217,24,Male,2022-05-17_14h14.25.046,Main,2022.1.1,59.97972685255231,
negative,neutral,1,j,l,,,,,1,15,33,3,,,,,,,,,,,,,,,,,,,,,,,,,,,,prac,2,2,1,neutral,negative,l,l,1,0.9990890000008221,141.06872070000009,142.0918832999996,142.0496033999998,None,141.06872070000009,None,141.06872070000009,None,141.06872070000009,None,143.0489576500001,None,143.0489576500001,None,143.0489576500001,None,,,,,,,,,,,217,24,Male,2022-05-17_14h14.25.046,Main,2022.1.1,59.97972685255231,
neutral,neutral,2,k,k,,,,,1,16,34,10,,,,,,,,,,,,,,,,,,,,,,,,,,,,prac,2,2,2,neutral,neutral,k,k,1,0.7594473999997717,143.06934339999952,144.0902132000001,144.0497467999994,None,143.06934339999952,None,143.06934339999952,None,143.06934339999952,None,144.80797574999968,None,144.80797574999968,None,144.80797574999968,None,,,,,,,,,,,217,24,Male,2022-05-17_14h14.25.046,Main,2022.1.1,59.97972685255231,
negative,negative,1,j,l,,,,,1,17,35,0,,,,,,,,,,,,,,,,,,,,,,,,,,,,prac,2,2,1,negative,negative,l,l,1,0.9447092999998858,144.82902790000026,145.8536420999999,145.81116289999954,None,144.82902790000026,None,144.82902790000026,None,144.82902790000026,None,146.7542910500003,None,146.7542910500003,None,146.7542910500003,None,,,,,,,,,,,217,24,Male,2022-05-17_14h14.25.046,Main,2022.1.1,59.97972685255231,
,,,,,,,,,,,,,,,,,,,,,,,,,,,,,,,,,,,,,,,,,,,,,,,,,,,,,,,,,,,,,,,,,,146.76443879999988,None,None,,,,,,,,217,24,Male,2022-05-17_14h14.25.046,Main,2022.1.1,59.97972685255231,
,,,,,,,,,,,,,,,,,,,,,,,,,,,,,,,,,,,,,,,,,,,,,,,,,,,,,,,,,,,,,,,,,,,,,0.07962963,0.019444445,1,0,0,0.003301050001027761,None,217,24,Male,2022-05-17_14h14.25.046,Main,2022.1.1,59.97972685255231,
positive,negative,1,l,j,,,,,,,,,0,0,0,5,,,,,,,,,,,,,,,,,,,,,,149.39869129999988,None,main,2,2,1,negative,positive,j,j,1,0.9602802999997948,151.41981359999954,152.4326142,152.41182500000014,None,151.41981359999954,None,151.41981359999954,None,151.41981359999954,None,153.35842694999945,None,153.35842694999945,None,153.35842694999945,None,,,,,,,,,,,217,24,Male,2022-05-17_14h14.25.046,Main,2022.1.1,59.97972685255231,
negative,negative,2,j,l,,,,,,,,,0,1,1,9,,,,,,,,,,,,,,,,,,,,,,,,main,1,1,2,negative,negative,l,l,1,0.8261829000002763,153.38061180000022,154.39088129999982,154.37125240000023,None,153.38061180000022,None,153.38061180000022,None,153.38061180000022,None,155.18863804999972,None,155.18863804999972,None,155.18863804999972,None,,,,,,,,,,,217,24,Male,2022-05-17_14h14.25.046,Main,2022.1.1,59.97972685255231,
positive,neutral,1,l,j,,,,,,,,,0,2,2,8,,,,,,,,,,,,,,,,,,,,,,,,main,1,1,1,neutral,positive,j,j,1,0.8183681000000433,155.2098715000002,156.21404189999976,156.19264449999991,None,155.2098715000002,None,155.2098715000002,None,155.2098715000002,None,157.01223354999973,None,157.01223354999973,None,157.01223354999973,None,,,,,,,,,,,217,24,Male,2022-05-17_14h14.25.046,Main,2022.1.1,59.97972685255231,
neutral,negative,1,k,k,,,,,,,,,0,3,3,7,,,,,,,,,,,,,,,,,,,,,,,,main,1,1,1,negative,neutral,k,k,1,0.6787414999998873,157.03244230000018,158.0395453000001,158.01977389999956,None,157.03244230000018,None,157.03244230000018,None,157.03244230000018,None,158.6903202499995,None,158.6903202499995,None,158.6903202499995,None,,,,,,,,,,,217,24,Male,2022-05-17_14h14.25.046,Main,2022.1.1,59.97972685255231,
negative,neutral,1,j,l,,,,,,,,,0,4,4,3,,,,,,,,,,,,,,,,,,,,,,,,main,1,1,1,neutral,negative,l,l,1,0.9677424999999857,158.71200659999977,159.72617029999947,159.68721730000016,None,158.71200659999977,None,158.71200659999977,None,158.71200659999977,None,160.66341615000027,None,160.66341615000027,None,160.66341615000027,None,,,,,,,,,,,217,24,Male,2022-05-17_14h14.25.046,Main,2022.1.1,59.97972685255231,
positive,positive,2,l,j,,,,,,,,,0,5,5,11,,,,,,,,,,,,,,,,,,,,,,,,main,2,2,2,positive,positive,j,j,1,0.7608456999996633,160.68444790000012,161.70289129999946,161.6599028999999,None,160.68444790000012,None,160.68444790000012,None,160.68444790000012,None,162.4269053499999,None,162.4269053499999,None,162.4269053499999,None,,,,,,,,,,,217,24,Male,2022-05-17_14h14.25.046,Main,2022.1.1,59.97972685255231,
negative,neutral,2,j,l,,,,,,,,,0,6,6,12,,,,,,,,,,,,,,,,,,,,,,,,main,1,1,2,neutral,negative,l,l,1,0.6641937000003963,162.4482438999994,163.4680484999999,163.42541290000008,None,162.4482438999994,None,162.4482438999994,None,162.4482438999994,None,164.09350564999994,None,164.09350564999994,None,164.09350564999994,None,,,,,,,,,,,217,24,Male,2022-05-17_14h14.25.046,Main,2022.1.1,59.97972685255231,
neutral,neutral,1,k,k,,,,,,,,,0,7,7,1,,,,,,,,,,,,,,,,,,,,,,,,main,1,1,1,neutral,neutral,k,k,1,0.6933874999995169,164.1140636,165.1369353,165.09375269999964,None,164.1140636,None,164.1140636,None,164.1140636,None,165.78731794999993,None,165.78731794999993,None,165.78731794999993,None,,,,,,,,,,,217,24,Male,2022-05-17_14h14.25.046,Main,2022.1.1,59.97972685255231,
positive,positive,1,l,j,,,,,,,,,0,8,8,2,,,,,,,,,,,,,,,,,,,,,,,,main,2,2,1,positive,positive,j,j,1,0.786634299999605,165.81117199999971,166.81737879999946,166.79644499999995,None,165.81117199999971,None,165.81117199999971,None,165.81117199999971,None,167.57852514999985,None,167.57852514999985,None,167.57852514999985,None,,,,,,,,,,,217,24,Male,2022-05-17_14h14.25.046,Main,2022.1.1,59.97972685255231,
neutral,negative,2,k,k,,,,,,,,,0,9,9,16,,,,,,,,,,,,,,,,,,,,,,,,main,1,1,2,negative,neutral,k,k,1,0.7258978999998362,167.60077569999976,168.61865469999975,168.57654290000028,None,167.60077569999976,None,167.60077569999976,None,167.60077569999976,None,169.30513274999947,None,169.30513274999947,None,169.30513274999947,None,,,,,,,,,,,217,24,Male,2022-05-17_14h14.25.046,Main,2022.1.1,59.97972685255231,
negative,positive,1,j,l,,,,,,,,,0,10,10,6,,,,,,,,,,,,,,,,,,,,,,,,main,2,2,1,positive,negative,l,l,1,0.6662631999997757,169.3279395999998,170.33958410000014,170.31995319999987,None,169.3279395999998,None,169.3279395999998,None,169.3279395999998,None,170.97600204999952,None,170.97600204999952,None,170.97600204999952,None,,,,,,,,,,,217,24,Male,2022-05-17_14h14.25.046,Main,2022.1.1,59.97972685255231,
neutral,positive,2,k,k,,,,,,,,,0,11,11,13,,,,,,,,,,,,,,,,,,,,,,,,main,1,1,2,positive,neutral,k,k,1,0.6542214999999487,170.9964769999997,172.01806229999966,171.97514169999977,None,170.9964769999997,None,170.9964769999997,None,170.9964769999997,None,172.6321897499999,None,172.6321897499999,None,172.6321897499999,None,,,,,,,,,,,217,24,Male,2022-05-17_14h14.25.046,Main,2022.1.1,59.97972685255231,
positive,negative,2,l,j,,,,,,,,,0,12,12,14,,,,,,,,,,,,,,,,,,,,,,,,main,1,1,2,negative,positive,j,j,1,0.7051526000004742,172.65319869999985,173.67381569999998,173.6338507999999,None,172.65319869999985,None,172.65319869999985,None,172.65319869999985,None,174.34243504999966,None,174.34243504999966,None,174.34243504999966,None,,,,,,,,,,,217,24,Male,2022-05-17_14h14.25.046,Main,2022.1.1,59.97972685255231,
positive,neutral,2,l,j,,,,,,,,,0,13,13,17,,,,,,,,,,,,,,,,,,,,,,,,main,1,1,2,neutral,positive,j,j,1,0.8653896000005261,174.36481749999984,175.37383020000016,175.35401589999947,None,174.36481749999984,None,174.36481749999984,None,174.36481749999984,None,176.21020684999957,None,176.21020684999957,None,176.21020684999957,None,,,,,,,,,,,217,24,Male,2022-05-17_14h14.25.046,Main,2022.1.1,59.97972685255231,
neutral,positive,1,k,k,,,,,,,,,0,14,14,4,,,,,,,,,,,,,,,,,,,,,,,,main,1,1,1,positive,neutral,k,k,1,0.7284371999994619,176.2311282999999,177.25042779999967,177.20873500000016,None,176.2311282999999,None,176.2311282999999,None,176.2311282999999,None,177.9408800500002,None,177.9408800500002,None,177.9408800500002,None,,,,,,,,,,,217,24,Male,2022-05-17_14h14.25.046,Main,2022.1.1,59.97972685255231,
negative,negative,1,j,l,,,,,,,,,0,15,15,0,,,,,,,,,,,,,,,,,,,,,,,,main,1,1,1,negative,negative,l,l,1,0.7817155000002458,177.96312190000026,178.9684714999994,178.94922810000025,None,177.96312190000026,None,177.96312190000026,None,177.96312190000026,None,179.7260683499996,None,179.7260683499996,None,179.7260683499996,None,,,,,,,,,,,217,24,Male,2022-05-17_14h14.25.046,Main,2022.1.1,59.97972685255231,
neutral,neutral,2,k,k,,,,,,,,,0,16,16,10,,,,,,,,,,,,,,,,,,,,,,,,main,2,2,2,neutral,neutral,k,k,1,0.724119200000132,179.74922090000018,180.75587970000015,180.73485379999966,None,179.74922090000018,None,179.74922090000018,None,179.74922090000018,None,181.4504768499998,None,181.4504768499998,None,181.4504768499998,None,,,,,,,,,,,217,24,Male,2022-05-17_14h14.25.046,Main,2022.1.1,59.97972685255231,
negative,positive,2,j,l,,,,,,,,,0,17,17,15,,,,,,,,,,,,,,,,,,,,,,,,main,2,2,2,positive,negative,l,l,1,0.8528394000004482,181.4715828999997,182.48786810000001,182.44795169999998,None,181.4715828999997,None,181.4715828999997,None,181.4715828999997,None,183.3084802499995,None,183.3084802499995,None,183.3084802499995,None,,,,,,,,,,,217,24,Male,2022-05-17_14h14.25.046,Main,2022.1.1,59.97972685255231,
negative,positive,1,j,l,,,,,,,,,1,0,18,6,,,,,,,,,,,,,,,,,,,,,,,,main,2,2,1,positive,negative,l,l,1,0.9309509999993679,183.3314389999996,184.3354178999998,184.3155316000002,None,183.3314389999996,None,183.3314389999996,None,183.3314389999996,None,185.24165044999944,None,185.24165044999944,None,185.24165044999944,None,,,,,,,,,,,217,24,Male,2022-05-17_14h14.25.046,Main,2022.1.1,59.97972685255231,
neutral,positive,1,k,k,,,,,,,,,1,1,19,4,,,,,,,,,,,,,,,,,,,,,,,,main,1,1,1,positive,neutral,k,k,1,0.6765947999992932,185.26261479999994,186.2844709000001,186.24337620000006,None,185.26261479999994,None,185.26261479999994,None,185.26261479999994,None,186.9181612500003,None,186.9181612500003,None,186.9181612500003,None,,,,,,,,,,,217,24,Male,2022-05-17_14h14.25.046,Main,2022.1.1,59.97972685255231,
positive,negative,2,l,j,,,,,,,,,1,2,20,14,,,,,,,,,,,,,,,,,,,,,,,,main,1,1,2,negative,positive,j,j,1,0.6458781000001181,186.94076549999954,187.95734989999983,187.91860180000003,None,186.94076549999954,None,186.94076549999954,None,186.94076549999954,None,188.56808634999987,None,188.56808634999987,None,188.56808634999987,None,,,,,,,,,,,217,24,Male,2022-05-17_14h14.25.046,Main,2022.1.1,59.97972685255231,
positive,neutral,1,l,j,,,,,,,,,1,3,21,8,,,,,,,,,,,,,,,,,,,,,,,,main,2,2,1,neutral,positive,j,j,1,0.6832697999998345,188.58961180000006,189.59909779999998,189.57801259999997,None,188.58961180000006,None,188.58961180000006,None,188.58961180000006,None,190.25503584999996,None,190.25503584999996,None,190.25503584999996,None,,,,,,,,,,,217,24,Male,2022-05-17_14h14.25.046,Main,2022.1.1,59.97972685255231,
negative,neutral,1,j,l,,,,,,,,,1,4,22,3,,,,,,,,,,,,,,,,,,,,,,,,main,2,2,1,neutral,negative,l,l,1,0.7520321000001786,190.27690639999946,191.29261659999975,191.25188369999978,None,190.27690639999946,None,190.27690639999946,None,190.27690639999946,None,192.00956474999992,None,192.00956474999992,None,192.00956474999992,None,,,,,,,,,,,217,24,Male,2022-05-17_14h14.25.046,Main,2022.1.1,59.97972685255231,
neutral,neutral,1,k,k,,,,,,,,,1,5,23,1,,,,,,,,,,,,,,,,,,,,,,,,main,2,2,1,neutral,neutral,k,k,1,0.608257599999888,192.03262379999978,193.0494104999998,193.0094296999996,None,192.03262379999978,None,192.03262379999978,None,192.03262379999978,None,193.62335984999999,None,193.62335984999999,None,193.62335984999999,None,,,,,,,,,,,217,24,Male,2022-05-17_14h14.25.046,Main,2022.1.1,59.97972685255231,
negative,positive,2,j,l,,,,,,,,,1,6,24,15,,,,,,,,,,,,,,,,,,,,,,,,main,2,2,2,positive,negative,l,l,1,0.7935846000000311,193.64395569999942,194.66108789999998,194.61922210000012,None,193.64395569999942,None,193.64395569999942,None,193.64395569999942,None,195.41672764999993,None,195.41672764999993,None,195.41672764999993,None,,,,,,,,,,,217,24,Male,2022-05-17_14h14.25.046,Main,2022.1.1,59.97972685255231,
negative,negative,2,j,l,,,,,,,,,1,7,25,9,,,,,,,,,,,,,,,,,,,,,,,,main,2,2,2,negative,negative,l,l,1,0.753675299999486,195.43776179999986,196.44274119999955,196.42198300000018,None,195.43776179999986,None,195.43776179999986,None,195.43776179999986,None,197.17579124999946,None,197.17579124999946,None,197.17579124999946,None,,,,,,,,,,,217,24,Male,2022-05-17_14h14.25.046,Main,2022.1.1,59.97972685255231,
positive,negative,1,l,j,,,,,,,,,1,8,26,5,,,,,,,,,,,,,,,,,,,,,,,,main,1,1,1,negative,positive,j,j,1,0.8046340999999302,197.1980026000001,198.20252979999987,198.18253790000017,None,197.1980026000001,None,197.1980026000001,None,197.1980026000001,None,198.98085594999947,None,198.98085594999947,None,198.98085594999947,None,,,,,,,,,,,217,24,Male,2022-05-17_14h14.25.046,Main,2022.1.1,59.97972685255231,
neutral,positive,2,k,k,,,,,,,,,1,9,27,13,,,,,,,,,,,,,,,,,,,,,,,,main,1,1,2,positive,neutral,k,k,1,0.7581083000004583,199.0020112000002,200.02469180000026,199.98383209999974,None,199.0020112000002,None,199.0020112000002,None,199.0020112000002,None,200.74337844999962,None,200.74337844999962,None,200.74337844999962,None,,,,,,,,,,,217,24,Male,2022-05-17_14h14.25.046,Main,2022.1.1,59.97972685255231,
negative,neutral,2,j,l,,,,,,,,,1,10,28,12,,,,,,,,,,,,,,,,,,,,,,,,main,1,1,2,neutral,negative,l,l,1,0.8260488999994777,200.76498549999997,201.78110839999954,201.73915339999985,None,200.76498549999997,None,200.76498549999997,None,200.76498549999997,None,202.57375395000025,None,202.57375395000025,None,202.57375395000025,None,,,,,,,,,,,217,24,Male,2022-05-17_14h14.25.046,Main,2022.1.1,59.97972685255231,
positive,positive,2,l,j,,,,,,,,,1,11,29,11,,,,,,,,,,,,,,,,,,,,,,,,main,2,2,2,positive,positive,j,j,1,0.7749395000000732,202.59505939999963,203.67399920000025,203.57542000000012,None,202.59505939999963,None,202.59505939999963,None,202.59505939999963,None,204.3486053499998,None,204.3486053499998,None,204.3486053499998,None,,,,,,,,,,,217,24,Male,2022-05-17_14h14.25.046,Main,2022.1.1,59.97972685255231,
neutral,neutral,2,k,k,,,,,,,,,1,12,30,10,,,,,,,,,,,,,,,,,,,,,,,,main,2,2,2,neutral,neutral,k,k,1,0.6815560000004552,204.3759517999997,205.3989858999994,205.35789990000012,None,204.3759517999997,None,204.3759517999997,None,204.3759517999997,None,206.0327160499998,None,206.0327160499998,None,206.0327160499998,None,,,,,,,,,,,217,24,Male,2022-05-17_14h14.25.046,Main,2022.1.1,59.97972685255231,
positive,positive,1,l,j,,,,,,,,,1,13,31,2,,,,,,,,,,,,,,,,,,,,,,,,main,1,1,1,positive,positive,j,j,1,0.6962216000001717,206.05433859999994,207.08008139999947,207.03624599999966,None,206.05433859999994,None,206.05433859999994,None,206.05433859999994,None,207.73173754999942,None,207.73173754999942,None,207.73173754999942,None,,,,,,,,,,,217,24,Male,2022-05-17_14h14.25.046,Main,2022.1.1,59.97972685255231,
neutral,negative,2,k,k,,,,,,,,,1,14,32,16,,,,,,,,,,,,,,,,,,,,,,,,main,2,2,2,negative,neutral,k,k,1,0.6972906000000876,207.75324180000007,208.75790529999995,208.7366747999995,None,207.75324180000007,None,207.75324180000007,None,207.75324180000007,None,209.43183844999993,None,209.43183844999993,None,209.43183844999993,None,,,,,,,,,,,217,24,Male,2022-05-17_14h14.25.046,Main,2022.1.1,59.97972685255231,
neutral,negative,1,k,k,,,,,,,,,1,15,33,7,,,,,,,,,,,,,,,,,,,,,,,,main,1,1,1,negative,neutral,k,k,1,0.6038939000000028,209.45327369999995,210.47513319999962,210.43422800000008,None,209.45327369999995,None,209.45327369999995,None,209.45327369999995,None,211.04074244999964,None,211.04074244999964,None,211.04074244999964,None,,,,,,,,,,,217,24,Male,2022-05-17_14h14.25.046,Main,2022.1.1,59.97972685255231,
positive,neutral,2,l,j,,,,,,,,,1,16,34,17,,,,,,,,,,,,,,,,,,,,,,,,main,1,1,2,neutral,positive,j,j,1,0.7133480000002237,211.0624831999994,212.08076290000008,212.04079029999957,None,211.0624831999994,None,211.0624831999994,None,211.0624831999994,None,212.75794294999986,None,212.75794294999986,None,212.75794294999986,None,,,,,,,,,,,217,24,Male,2022-05-17_14h14.25.046,Main,2022.1.1,59.97972685255231,
negative,negative,1,j,l,,,,,,,,,1,17,35,0,,,,,,,,,,,,,,,,,,,,,,,,main,1,1,1,negative,negative,l,l,1,1.1614748000001782,212.7787542999995,213.79070669999965,213.76985849999983,None,212.7787542999995,None,212.7787542999995,None,212.7787542999995,None,214.92257554999986,None,214.92257554999986,None,214.92257554999986,None,,,,,,,,,,,217,24,Male,2022-05-17_14h14.25.046,Main,2022.1.1,59.97972685255231,
positive,negative,2,l,j,,,,,,,,,2,0,36,14,,,,,,,,,,,,,,,,,,,,,,,,main,1,1,2,negative,positive,j,j,1,0.7344975000005434,214.9458469000001,215.9504195999998,215.9300505000001,None,214.9458469000001,None,214.9458469000001,None,214.9458469000001,None,216.65946864999995,None,216.65946864999995,None,216.65946864999995,None,,,,,,,,,,,217,24,Male,2022-05-17_14h14.25.046,Main,2022.1.1,59.97972685255231,
negative,neutral,1,j,l,,,,,,,,,2,1,37,3,,,,,,,,,,,,,,,,,,,,,,,,main,2,2,1,neutral,negative,l,l,1,0.7383969000002253,216.68021510000017,217.6903523000001,217.66944569999941,None,216.68021510000017,None,216.68021510000017,None,216.68021510000017,None,218.40288254999967,None,218.40288254999967,None,218.40288254999967,None,,,,,,,,,,,217,24,Male,2022-05-17_14h14.25.046,Main,2022.1.1,59.97972685255231,
neutral,neutral,1,k,k,,,,,,,,,2,2,38,1,,,,,,,,,,,,,,,,,,,,,,,,main,2,2,1,neutral,neutral,k,k,1,0.7271715999995649,218.42646249999962,219.43374779999976,219.4138727999998,None,218.42646249999962,None,218.42646249999962,None,218.42646249999962,None,220.12990574999975,None,220.12990574999975,None,220.12990574999975,None,,,,,,,,,,,217,24,Male,2022-05-17_14h14.25.046,Main,2022.1.1,59.97972685255231,
positive,positive,2,l,j,,,,,,,,,2,3,39,11,,,,,,,,,,,,,,,,,,,,,,,,main,2,2,2,positive,positive,j,j,1,0.8123920999996699,220.15169939999942,221.1618125999994,221.14134169999943,None,220.15169939999942,None,220.15169939999942,None,220.15169939999942,None,221.94494034999997,None,221.94494034999997,None,221.94494034999997,None,,,,,,,,,,,217,24,Male,2022-05-17_14h14.25.046,Main,2022.1.1,59.97972685255231,
negative,positive,2,j,l,,,,,,,,,2,4,40,15,,,,,,,,,,,,,,,,,,,,,,,,main,1,1,2,positive,negative,l,l,1,0.9623721999996633,221.96737849999954,222.9847781999997,222.94553889999952,None,221.96737849999954,None,221.96737849999954,None,221.96737849999954,None,223.91054774999947,None,223.91054774999947,None,223.91054774999947,None,,,,,,,,,,,217,24,Male,2022-05-17_14h14.25.046,Main,2022.1.1,59.97972685255231,
positive,neutral,1,l,j,,,,,,,,,2,5,41,8,,,,,,,,,,,,,,,,,,,,,,,,main,1,1,1,neutral,positive,j,j,1,0.8123026000002938,223.93383360000007,224.9355117999994,224.91656289999992,None,223.93383360000007,None,223.93383360000007,None,223.93383360000007,None,225.7264367499999,None,225.7264367499999,None,225.7264367499999,None,,,,,,,,,,,217,24,Male,2022-05-17_14h14.25.046,Main,2022.1.1,59.97972685255231,
positive,neutral,2,l,j,,,,,,,,,2,6,42,17,,,,,,,,,,,,,,,,,,,,,,,,main,1,1,2,neutral,positive,j,j,1,0.6561312999992879,225.7486356999998,226.75974299999962,226.73869620000005,None,225.7486356999998,None,225.7486356999998,None,225.7486356999998,None,227.3882968499999,None,227.3882968499999,None,227.3882968499999,None,,,,,,,,,,,217,24,Male,2022-05-17_14h14.25.046,Main,2022.1.1,59.97972685255231,
negative,negative,2,j,l,,,,,,,,,2,7,43,9,,,,,,,,,,,,,,,,,,,,,,,,main,2,2,2,negative,negative,l,l,1,0.7267185000000609,227.40876409999964,228.42648589999953,228.3842383000001,None,227.40876409999964,None,227.40876409999964,None,227.40876409999964,None,229.11743964999977,None,229.11743964999977,None,229.11743964999977,None,,,,,,,,,,,217,24,Male,2022-05-17_14h14.25.046,Main,2022.1.1,59.97972685255231,
negative,positive,1,j,l,,,,,,,,,2,8,44,6,,,,,,,,,,,,,,,,,,,,,,,,main,2,2,1,positive,negative,l,l,1,0.7666864000002533,229.13846639999974,230.14376459999949,230.12119559999974,None,229.13846639999974,None,229.13846639999974,None,229.13846639999974,None,230.88616534999954,None,230.88616534999954,None,230.88616534999954,None,,,,,,,,,,,217,24,Male,2022-05-17_14h14.25.046,Main,2022.1.1,59.97972685255231,
positive,negative,1,l,j,,,,,,,,,2,9,45,5,,,,,,,,,,,,,,,,,,,,,,,,main,1,1,1,negative,positive,j,j,1,0.7919697000006636,230.90756969999984,231.92617439999958,231.88255179999942,None,230.90756969999984,None,230.90756969999984,None,230.90756969999984,None,232.6781221500002,None,232.6781221500002,None,232.6781221500002,None,,,,,,,,,,,217,24,Male,2022-05-17_14h14.25.046,Main,2022.1.1,59.97972685255231,
negative,negative,1,j,l,,,,,,,,,2,10,46,0,,,,,,,,,,,,,,,,,,,,,,,,main,1,1,1,negative,negative,l,l,1,0.7355818999994881,232.70325890000004,233.71870649999983,233.67798810000022,None,232.70325890000004,None,232.70325890000004,None,232.70325890000004,None,234.4187128499995,None,234.4187128499995,None,234.4187128499995,None,,,,,,,,,,,217,24,Male,2022-05-17_14h14.25.046,Main,2022.1.1,59.97972685255231,
neutral,negative,2,k,k,,,,,,,,,2,11,47,16,,,,,,,,,,,,,,,,,,,,,,,,main,2,2,2,negative,neutral,k,k,1,0.6962675999993735,234.4402798000001,235.44521429999986,235.42497879999974,None,234.4402798000001,None,234.4402798000001,None,234.4402798000001,None,236.11783534999967,None,236.11783534999967,None,236.11783534999967,None,,,,,,,,,,,217,24,Male,2022-05-17_14h14.25.046,Main,2022.1.1,59.97972685255231,
neutral,positive,1,k,k,,,,,,,,,2,12,48,4,,,,,,,,,,,,,,,,,,,,,,,,main,1,1,1,positive,neutral,k,k,1,0.6728517999999895,236.14040769999974,237.1553955999998,237.13408119999986,None,236.14040769999974,None,236.14040769999974,None,236.14040769999974,None,237.79207254999955,None,237.79207254999955,None,237.79207254999955,None,,,,,,,,,,,217,24,Male,2022-05-17_14h14.25.046,Main,2022.1.1,59.97972685255231,
negative,neutral,2,j,l,,,,,,,,,2,13,49,12,,,,,,,,,,,,,,,,,,,,,,,,main,2,2,2,neutral,negative,l,l,1,0.9478224000004047,237.8136797999996,238.82115239999985,238.7989338999996,None,237.8136797999996,None,237.8136797999996,None,237.8136797999996,None,239.7400090500002,None,239.7400090500002,None,239.7400090500002,None,,,,,,,,,,,217,24,Male,2022-05-17_14h14.25.046,Main,2022.1.1,59.97972685255231,
positive,positive,1,l,j,,,,,,,,,2,14,50,2,,,,,,,,,,,,,,,,,,,,,,,,main,1,1,1,positive,positive,j,j,1,0.7703470000005836,239.76515629999994,240.78088800000023,240.74151379999967,None,239.76515629999994,None,239.76515629999994,None,239.76515629999994,None,241.51817685000032,None,241.51817685000032,None,241.51817685000032,None,,,,,,,,,,,217,24,Male,2022-05-17_14h14.25.046,Main,2022.1.1,59.97972685255231,
neutral,neutral,2,k,k,,,,,,,,,2,15,51,10,,,,,,,,,,,,,,,,,,,,,,,,main,1,1,2,neutral,neutral,k,k,1,0.7424763999997595,241.54085159999977,242.55364180000015,242.5329738999999,None,241.54085159999977,None,241.54085159999977,None,241.54085159999977,None,243.26126834999985,None,243.26126834999985,None,243.26126834999985,None,,,,,,,,,,,217,24,Male,2022-05-17_14h14.25.046,Main,2022.1.1,59.97972685255231,
neutral,positive,2,k,k,,,,,,,,,2,16,52,13,,,,,,,,,,,,,,,,,,,,,,,,main,2,2,2,positive,neutral,k,k,1,0.7660878999995475,243.28470310000012,244.29446039999948,244.27423850000014,None,243.28470310000012,None,243.28470310000012,None,243.28470310000012,None,245.03196924999946,None,245.03196924999946,None,245.03196924999946,None,,,,,,,,,,,217,24,Male,2022-05-17_14h14.25.046,Main,2022.1.1,59.97972685255231,
neutral,negative,1,k,k,,,,,,,,,2,17,53,7,,,,,,,,,,,,,,,,,,,,,,,,main,1,1,1,negative,neutral,k,k,1,0.8431424000000334,245.05281229999946,246.06460819999938,246.04510800000025,None,245.05281229999946,None,245.05281229999946,None,245.05281229999946,None,246.87600644999992,None,246.87600644999992,None,246.87600644999992,None,,,,,,,,,,,217,24,Male,2022-05-17_14h14.25.046,Main,2022.1.1,59.97972685255231,
neutral,negative,2,k,k,,,,,,,,,3,0,54,16,,,,,,,,,,,,,,,,,,,,,,,,main,2,2,2,negative,neutral,k,k,1,0.7351542000005793,246.8985329999996,247.92001439999967,247.8789587000001,None,246.8985329999996,None,246.8985329999996,None,246.8985329999996,None,248.61761625000025,None,248.61761625000025,None,248.61761625000025,None,,,,,,,,,,,217,24,Male,2022-05-17_14h14.25.046,Main,2022.1.1,59.97972685255231,
negative,neutral,1,j,l,,,,,,,,,3,1,55,3,,,,,,,,,,,,,,,,,,,,,,,,main,1,1,1,neutral,negative,l,l,1,0.9569532000004983,248.64010859999962,249.65795499999967,249.6159773999998,None,248.64010859999962,None,248.64010859999962,None,248.64010859999962,None,250.57424574999976,None,250.57424574999976,None,250.57424574999976,None,,,,,,,,,,,217,24,Male,2022-05-17_14h14.25.046,Main,2022.1.1,59.97972685255231,
neutral,positive,2,k,k,,,,,,,,,3,2,56,13,,,,,,,,,,,,,,,,,,,,,,,,main,1,1,2,positive,neutral,k,k,1,0.7833581000004415,250.59553510000023,251.61893259999943,251.57784509999965,None,250.59553510000023,None,250.59553510000023,None,250.59553510000023,None,252.35976224999985,None,252.35976224999985,None,252.35976224999985,None,,,,,,,,,,,217,24,Male,2022-05-17_14h14.25.046,Main,2022.1.1,59.97972685255231,
positive,neutral,1,l,j,,,,,,,,,3,3,57,8,,,,,,,,,,,,,,,,,,,,,,,,main,2,2,1,neutral,positive,j,j,1,0.8677517000005537,252.38547539999945,253.3970786,253.36059719999957,None,252.38547539999945,None,252.38547539999945,None,252.38547539999945,None,254.23278524999995,None,254.23278524999995,None,254.23278524999995,None,,,,,,,,,,,217,24,Male,2022-05-17_14h14.25.046,Main,2022.1.1,59.97972685255231,
neutral,neutral,2,k,k,,,,,,,,,3,4,58,10,,,,,,,,,,,,,,,,,,,,,,,,main,2,2,2,neutral,neutral,k,k,1,0.7599731000000247,254.25367079999978,255.25827649999974,255.23814539999967,None,254.25367079999978,None,254.25367079999978,None,254.25367079999978,None,255.99307974999982,None,255.99307974999982,None,255.99307974999982,None,,,,,,,,,,,217,24,Male,2022-05-17_14h14.25.046,Main,2022.1.1,59.97972685255231,
positive,negative,1,l,j,,,,,,,,,3,5,59,5,,,,,,,,,,,,,,,,,,,,,,,,main,2,2,1,negative,positive,j,j,1,0.7663443999999799,256.0151181000001,257.02107849999993,256.9999299000001,None,256.0151181000001,None,256.0151181000001,None,256.0151181000001,None,257.76495804999985,None,257.76495804999985,None,257.76495804999985,None,,,,,,,,,,,217,24,Male,2022-05-17_14h14.25.046,Main,2022.1.1,59.97972685255231,
positive,negative,2,l,j,,,,,,,,,3,6,60,14,,,,,,,,,,,,,,,,,,,,,,,,main,1,1,2,negative,positive,j,j,1,0.7941983000000619,257.7854705,258.8056899000003,258.76349329999994,None,257.7854705,None,257.7854705,None,257.7854705,None,259.55904524999977,None,259.55904524999977,None,259.55904524999977,None,,,,,,,,,,,217,24,Male,2022-05-17_14h14.25.046,Main,2022.1.1,59.97972685255231,
negative,neutral,2,j,l,,,,,,,,,3,7,61,12,,,,,,,,,,,,,,,,,,,,,,,,main,1,1,2,neutral,negative,l,l,1,0.8941010999997161,259.58048189999954,260.6017192999998,260.55967919999966,None,259.58048189999954,None,259.58048189999954,None,259.58048189999954,None,261.4557504499996,None,261.4557504499996,None,261.4557504499996,None,,,,,,,,,,,217,24,Male,2022-05-17_14h14.25.046,Main,2022.1.1,59.97972685255231,
neutral,negative,1,k,k,,,,,,,,,3,8,62,7,,,,,,,,,,,,,,,,,,,,,,,,main,2,2,1,negative,neutral,k,k,1,0.7368925999999192,261.47712839999986,262.4790843999999,262.4595062999997,None,261.47712839999986,None,261.47712839999986,None,261.47712839999986,None,263.19745415000006,None,263.19745415000006,None,263.19745415000006,None,,,,,,,,,,,217,24,Male,2022-05-17_14h14.25.046,Main,2022.1.1,59.97972685255231,
negative,positive,1,j,l,,,,,,,,,3,9,63,6,,,,,,,,,,,,,,,,,,,,,,,,main,1,1,1,positive,negative,l,l,1,0.9613758000004964,263.21914860000015,264.2386139,264.1960412999997,None,263.21914860000015,None,263.21914860000015,None,263.21914860000015,None,265.1588130500001,None,265.1588130500001,None,265.1588130500001,None,,,,,,,,,,,217,24,Male,2022-05-17_14h14.25.046,Main,2022.1.1,59.97972685255231,
positive,neutral,2,l,j,,,,,,,,,3,10,64,17,,,,,,,,,,,,,,,,,,,,,,,,main,1,1,2,neutral,positive,j,j,1,0.8443594000000303,265.1805040999998,266.1876946000002,266.1667966999994,None,265.1805040999998,None,265.1805040999998,None,265.1805040999998,None,267.0059226499995,None,267.0059226499995,None,267.0059226499995,None,,,,,,,,,,,217,24,Male,2022-05-17_14h14.25.046,Main,2022.1.1,59.97972685255231,
positive,positive,2,l,j,,,,,,,,,3,11,65,11,,,,,,,,,,,,,,,,,,,,,,,,main,1,1,2,positive,positive,j,j,1,0.8656136999998125,267.0268006999995,268.03478319999977,268.0132867000002,None,267.0268006999995,None,267.0268006999995,None,267.0268006999995,None,268.87366124999943,None,268.87366124999943,None,268.87366124999943,None,,,,,,,,,,,217,24,Male,2022-05-17_14h14.25.046,Main,2022.1.1,59.97972685255231,
neutral,neutral,1,k,k,,,,,,,,,3,12,66,1,,,,,,,,,,,,,,,,,,,,,,,,main,2,2,1,neutral,neutral,k,k,1,0.7792614999998477,268.8952749,269.9004178999994,269.8797156999999,None,268.8952749,None,268.8952749,None,268.8952749,None,270.6554900500002,None,270.6554900500002,None,270.6554900500002,None,,,,,,,,,,,217,24,Male,2022-05-17_14h14.25.046,Main,2022.1.1,59.97972685255231,
negative,positive,2,j,l,,,,,,,,,3,13,67,15,,,,,,,,,,,,,,,,,,,,,,,,main,2,2,2,positive,negative,l,l,1,1.0876195000000735,270.6781062,271.68662119999954,271.6650017000002,None,270.6781062,None,270.6781062,None,270.6781062,None,272.74840224999997,None,272.74840224999997,None,272.74840224999997,None,,,,,,,,,,,217,24,Male,2022-05-17_14h14.25.046,Main,2022.1.1,59.97972685255231,
neutral,positive,1,k,k,,,,,,,,,3,14,68,4,,,,,,,,,,,,,,,,,,,,,,,,main,1,1,1,positive,neutral,k,k,1,0.7609100999998191,272.7690813999998,273.77514150000025,273.7538224,None,272.7690813999998,None,272.7690813999998,None,272.7690813999998,None,274.5120830499997,None,274.5120830499997,None,274.5120830499997,None,,,,,,,,,,,217,24,Male,2022-05-17_14h14.25.046,Main,2022.1.1,59.97972685255231,
negative,negative,1,j,l,,,,,,,,,3,15,69,0,,,,,,,,,,,,,,,,,,,,,,,,main,2,2,1,negative,negative,l,l,1,0.7636008999998012,274.5326162000001,275.5558756999999,275.51309260000016,None,274.5326162000001,None,274.5326162000001,None,274.5326162000001,None,276.27759054999996,None,276.27759054999996,None,276.27759054999996,None,,,,,,,,,,,217,24,Male,2022-05-17_14h14.25.046,Main,2022.1.1,59.97972685255231,
negative,negative,2,j,l,,,,,,,,,3,16,70,9,,,,,,,,,,,,,,,,,,,,,,,,main,2,2,2,negative,negative,l,l,1,0.8307791000006546,276.2989373999999,277.31519109999954,277.27423439999984,None,276.2989373999999,None,276.2989373999999,None,276.2989373999999,None,278.1092771499995,None,278.1092771499995,None,278.1092771499995,None,,,,,,,,,,,217,24,Male,2022-05-17_14h14.25.046,Main,2022.1.1,59.97972685255231,
positive,positive,1,l,j,,,,,,,,,3,17,71,2,,,,,,,,,,,,,,,,,,,,,,,,main,2,2,1,positive,positive,j,j,1,0.8514628999992055,278.13021899999967,279.14595670000017,279.1050243999998,None,278.13021899999967,None,278.13021899999967,None,278.13021899999967,None,279.9650164499996,None,279.9650164499996,None,279.9650164499996,None,,,,,,,,,,,217,24,Male,2022-05-17_14h14.25.046,Main,2022.1.1,59.97972685255231,
positive,neutral,1,l,j,,,,,,,,,4,0,72,8,,,,,,,,,,,,,,,,,,,,,,,,main,2,2,1,neutral,positive,j,j,1,0.8151517000005697,279.98599209999975,281.0061847999996,280.96508040000026,None,279.98599209999975,None,279.98599209999975,None,279.98599209999975,None,281.7831670499997,None,281.7831670499997,None,281.7831670499997,None,,,,,,,,,,,217,24,Male,2022-05-17_14h14.25.046,Main,2022.1.1,59.97972685255231,
negative,neutral,2,j,l,,,,,,,,,4,1,73,12,,,,,,,,,,,,,,,,,,,,,,,,main,1,1,2,neutral,negative,l,l,1,0.9579474000001937,281.8069789000001,282.82476039999983,282.78576669999984,None,281.8069789000001,None,281.8069789000001,None,281.8069789000001,None,283.74606314999954,None,283.74606314999954,None,283.74606314999954,None,,,,,,,,,,,217,24,Male,2022-05-17_14h14.25.046,Main,2022.1.1,59.97972685255231,
positive,positive,2,l,j,,,,,,,,,4,2,74,11,,,,,,,,,,,,,,,,,,,,,,,,main,1,1,2,positive,positive,j,j,1,0.7407772000005934,283.7665959999995,284.78744730000017,284.7449864,None,283.7665959999995,None,283.7665959999995,None,283.7665959999995,None,285.48668915000025,None,285.48668915000025,None,285.48668915000025,None,,,,,,,,,,,217,24,Male,2022-05-17_14h14.25.046,Main,2022.1.1,59.97972685255231,
positive,neutral,2,l,j,,,,,,,,,4,3,75,17,,,,,,,,,,,,,,,,,,,,,,,,main,2,2,2,neutral,positive,j,j,1,0.688026799999534,285.50842829999965,286.5227868000002,286.5033542000001,None,285.50842829999965,None,285.50842829999965,None,285.50842829999965,None,287.17959434999983,None,287.17959434999983,None,287.17959434999983,None,,,,,,,,,,,217,24,Male,2022-05-17_14h14.25.046,Main,2022.1.1,59.97972685255231,
positive,negative,2,l,j,,,,,,,,,4,4,76,14,,,,,,,,,,,,,,,,,,,,,,,,main,1,1,2,negative,positive,j,j,1,0.8091292999997677,287.2018367999999,288.21049140000014,288.19087109999964,None,287.2018367999999,None,287.2018367999999,None,287.2018367999999,None,288.9880247500002,None,288.9880247500002,None,288.9880247500002,None,,,,,,,,,,,217,24,Male,2022-05-17_14h14.25.046,Main,2022.1.1,59.97972685255231,
positive,positive,1,l,j,,,,,,,,,4,5,77,2,,,,,,,,,,,,,,,,,,,,,,,,main,2,2,1,positive,positive,j,j,1,0.7660648000000947,289.0106760999997,290.02146639999955,290.00151409999944,None,289.0106760999997,None,289.0106760999997,None,289.0106760999997,None,290.75946015000017,None,290.75946015000017,None,290.75946015000017,None,,,,,,,,,,,217,24,Male,2022-05-17_14h14.25.046,Main,2022.1.1,59.97972685255231,
neutral,negative,1,k,k,,,,,,,,,4,6,78,7,,,,,,,,,,,,,,,,,,,,,,,,main,1,1,1,negative,neutral,k,k,1,0.7454448000007687,290.78204430000005,291.7902554000002,291.7709321000002,None,290.78204430000005,None,290.78204430000005,None,290.78204430000005,None,292.50515774999957,None,292.50515774999957,None,292.50515774999957,None,,,,,,,,,,,217,24,Male,2022-05-17_14h14.25.046,Main,2022.1.1,59.97972685255231,
neutral,neutral,1,k,k,,,,,,,,,4,7,79,1,,,,,,,,,,,,,,,,,,,,,,,,main,1,1,1,neutral,neutral,k,k,1,0.6867162999997163,292.52721029999975,293.5462144000003,293.50519970000005,None,292.52721029999975,None,292.52721029999975,None,292.52721029999975,None,294.19703354999973,None,294.19703354999973,None,294.19703354999973,None,,,,,,,,,,,217,24,Male,2022-05-17_14h14.25.046,Main,2022.1.1,59.97972685255231,
positive,negative,1,l,j,,,,,,,,,4,8,80,5,,,,,,,,,,,,,,,,,,,,,,,,main,1,1,1,negative,positive,j,j,1,0.6745029000003342,294.2191665999999,295.2218931999996,295.2019894999994,None,294.2191665999999,None,294.2191665999999,None,294.2191665999999,None,295.87169925000006,None,295.87169925000006,None,295.87169925000006,None,,,,,,,,,,,217,24,Male,2022-05-17_14h14.25.046,Main,2022.1.1,59.97972685255231,
neutral,positive,1,k,k,,,,,,,,,4,9,81,4,,,,,,,,,,,,,,,,,,,,,,,,main,2,2,1,positive,neutral,k,k,1,0.6169167999996716,295.8934703999994,296.8972340999999,296.87609019999945,None,295.8934703999994,None,295.8934703999994,None,295.8934703999994,None,297.49359344999965,None,297.49359344999965,None,297.49359344999965,None,,,,,,,,,,,217,24,Male,2022-05-17_14h14.25.046,Main,2022.1.1,59.97972685255231,
negative,neutral,1,j,l,,,,,,,,,4,10,82,3,,,,,,,,,,,,,,,,,,,,,,,,main,2,2,1,neutral,negative,l,l,1,0.7773091000008208,297.5141486000002,298.51800600000024,298.4966485999994,None,297.5141486000002,None,297.5141486000002,None,297.5141486000002,None,299.2715127500002,None,299.2715127500002,None,299.2715127500002,None,,,,,,,,,,,217,24,Male,2022-05-17_14h14.25.046,Main,2022.1.1,59.97972685255231,
negative,positive,2,j,l,,,,,,,,,4,11,83,15,,,,,,,,,,,,,,,,,,,,,,,,main,1,1,2,positive,negative,l,l,1,0.9644882000002326,299.29303619999973,300.30151639999985,300.28175459999966,None,299.29303619999973,None,299.29303619999973,None,299.29303619999973,None,301.2409744499998,None,301.2409744499998,None,301.2409744499998,None,,,,,,,,,,,217,24,Male,2022-05-17_14h14.25.046,Main,2022.1.1,59.97972685255231,
neutral,positive,2,k,k,,,,,,,,,4,12,84,13,,,,,,,,,,,,,,,,,,,,,,,,main,2,2,2,positive,neutral,k,k,1,0.6766263999998046,301.2621782999995,302.2843303999998,302.2416992999997,None,301.2621782999995,None,301.2621782999995,None,301.2621782999995,None,302.91745745,None,302.91745745,None,302.91745745,None,,,,,,,,,,,217,24,Male,2022-05-17_14h14.25.046,Main,2022.1.1,59.97972685255231,
neutral,neutral,2,k,k,,,,,,,,,4,13,85,10,,,,,,,,,,,,,,,,,,,,,,,,main,2,2,2,neutral,neutral,k,k,1,0.6575148000001718,302.9392179999995,303.94320830000015,303.9224439999998,None,302.9392179999995,None,302.9392179999995,None,302.9392179999995,None,304.58009504999944,None,304.58009504999944,None,304.58009504999944,None,,,,,,,,,,,217,24,Male,2022-05-17_14h14.25.046,Main,2022.1.1,59.97972685255231,
negative,positive,1,j,l,,,,,,,,,4,14,86,6,,,,,,,,,,,,,,,,,,,,,,,,main,2,2,1,positive,negative,l,l,1,0.8453471000002537,304.6015642000002,305.60774479999964,305.5881867999997,None,304.6015642000002,None,304.6015642000002,None,304.6015642000002,None,306.4303617499997,None,306.4303617499997,None,306.4303617499997,None,,,,,,,,,,,217,24,Male,2022-05-17_14h14.25.046,Main,2022.1.1,59.97972685255231,
neutral,negative,2,k,k,,,,,,,,,4,15,87,16,,,,,,,,,,,,,,,,,,,,,,,,main,2,2,2,negative,neutral,k,k,1,0.6453719000001001,306.4516126999997,307.4708912999995,307.429752,None,306.4516126999997,None,306.4516126999997,None,306.4516126999997,None,308.08075524999975,None,308.08075524999975,None,308.08075524999975,None,,,,,,,,,,,217,24,Male,2022-05-17_14h14.25.046,Main,2022.1.1,59.97972685255231,
negative,negative,2,j,l,,,,,,,,,4,16,88,9,,,,,,,,,,,,,,,,,,,,,,,,main,1,1,2,negative,negative,l,l,1,0.9504884999996648,308.10186280000016,309.1157427999997,309.09493740000016,None,308.10186280000016,None,308.10186280000016,None,308.10186280000016,None,310.0336093499997,None,310.0336093499997,None,310.0336093499997,None,,,,,,,,,,,217,24,Male,2022-05-17_14h14.25.046,Main,2022.1.1,59.97972685255231,
negative,negative,1,j,l,,,,,,,,,4,17,89,0,,,,,,,,,,,,,,,,,,,,,,,,main,2,2,1,negative,negative,l,l,1,0.8668045000003985,310.05499839999993,311.06037449999985,311.0389656999996,None,310.05499839999993,None,310.05499839999993,None,310.05499839999993,None,311.9024134500002,None,311.9024134500002,None,311.9024134500002,None,,,,,,,,,,,217,24,Male,2022-05-17_14h14.25.046,Main,2022.1.1,59.97972685255231,
negative,neutral,1,j,l,,,,,,,,,5,0,90,3,,,,,,,,,,,,,,,,,,,,,,,,main,2,2,1,neutral,negative,l,l,1,0.7151281999995263,311.9304780000002,312.94628699999976,312.9049382000003,None,311.9304780000002,None,311.9304780000002,None,311.9304780000002,None,313.6242838499999,None,313.6242838499999,None,313.6242838499999,None,,,,,,,,,,,217,24,Male,2022-05-17_14h14.25.046,Main,2022.1.1,59.97972685255231,
neutral,positive,1,k,k,,,,,,,,,5,1,91,4,,,,,,,,,,,,,,,,,,,,,,,,main,1,1,1,positive,neutral,k,k,1,0.7859787999996115,313.6444454000002,314.6519533999999,314.6320410999997,None,313.6444454000002,None,313.6444454000002,None,313.6444454000002,None,315.41258635,None,315.41258635,None,315.41258635,None,,,,,,,,,,,217,24,Male,2022-05-17_14h14.25.046,Main,2022.1.1,59.97972685255231,
neutral,negative,1,k,k,,,,,,,,,5,2,92,7,,,,,,,,,,,,,,,,,,,,,,,,main,2,2,1,negative,neutral,k,k,1,0.6871096999993824,315.4339519999994,316.4454840999997,316.4220723999997,None,315.4339519999994,None,315.4339519999994,None,315.4339519999994,None,317.10256374999943,None,317.10256374999943,None,317.10256374999943,None,,,,,,,,,,,217,24,Male,2022-05-17_14h14.25.046,Main,2022.1.1,59.97972685255231,
positive,neutral,2,l,j,,,,,,,,,5,3,93,17,,,,,,,,,,,,,,,,,,,,,,,,main,1,1,2,neutral,positive,j,j,1,0.8136694999993779,317.1238300999994,318.14277630000015,318.10205640000004,None,317.1238300999994,None,317.1238300999994,None,317.1238300999994,None,318.92132504999944,None,318.92132504999944,None,318.92132504999944,None,,,,,,,,,,,217,24,Male,2022-05-17_14h14.25.046,Main,2022.1.1,59.97972685255231,
positive,negative,2,l,j,,,,,,,,,5,4,94,14,,,,,,,,,,,,,,,,,,,,,,,,main,1,1,2,negative,positive,j,l,0,1.519028800000342,318.94291299999986,319.9662776999994,319.9229220999996,None,318.94291299999986,None,318.94291299999986,None,318.94291299999986,None,321.46029009999984,None,321.46029009999984,None,321.46029009999984,None,,,,,,,,,,,217,24,Male,2022-05-17_14h14.25.046,Main,2022.1.1,59.97972685255231,
neutral,neutral,1,k,k,,,,,,,,,5,5,95,1,,,,,,,,,,,,,,,,,,,,,,,,main,1,1,1,neutral,neutral,k,k,1,0.853613199999927,322.47144169999956,323.4837665999994,323.4632504000001,None,322.47144169999956,None,322.47144169999956,None,322.47144169999956,None,324.3061978499997,None,324.3061978499997,None,324.3061978499997,None,,,,,,,,,,,217,24,Male,2022-05-17_14h14.25.046,Main,2022.1.1,59.97972685255231,
neutral,negative,2,k,k,,,,,,,,,5,6,96,16,,,,,,,,,,,,,,,,,,,,,,,,main,1,1,2,negative,neutral,k,k,1,0.8348456000003353,324.3271030999995,325.34521179999956,325.30348760000015,None,324.3271030999995,None,324.3271030999995,None,324.3271030999995,None,326.1444764499999,None,326.1444764499999,None,326.1444764499999,None,,,,,,,,,,,217,24,Male,2022-05-17_14h14.25.046,Main,2022.1.1,59.97972685255231,
negative,negative,2,j,l,,,,,,,,,5,7,97,9,,,,,,,,,,,,,,,,,,,,,,,,main,2,2,2,negative,negative,l,l,1,0.972121500000867,326.16499120000026,327.1814115999996,327.1385015999995,None,326.16499120000026,None,326.16499120000026,None,326.16499120000026,None,328.12088095000007,None,328.12088095000007,None,328.12088095000007,None,,,,,,,,,,,217,24,Male,2022-05-17_14h14.25.046,Main,2022.1.1,59.97972685255231,
positive,neutral,1,l,j,,,,,,,,,5,8,98,8,,,,,,,,,,,,,,,,,,,,,,,,main,1,1,1,neutral,positive,j,j,1,0.8762802999999622,328.1431195999994,329.15992559999995,329.11883359999956,None,328.1431195999994,None,328.1431195999994,None,328.1431195999994,None,329.9976897499998,None,329.9976897499998,None,329.9976897499998,None,,,,,,,,,,,217,24,Male,2022-05-17_14h14.25.046,Main,2022.1.1,59.97972685255231,
negative,positive,1,j,l,,,,,,,,,5,9,99,6,,,,,,,,,,,,,,,,,,,,,,,,main,1,1,1,positive,negative,l,l,1,0.8410837000001266,330.0191847999995,331.04228259999945,331.00144399999954,None,330.0191847999995,None,330.0191847999995,None,330.0191847999995,None,331.84335164999965,None,331.84335164999965,None,331.84335164999965,None,,,,,,,,,,,217,24,Male,2022-05-17_14h14.25.046,Main,2022.1.1,59.97972685255231,
neutral,positive,2,k,k,,,,,,,,,5,10,100,13,,,,,,,,,,,,,,,,,,,,,,,,main,2,2,2,positive,neutral,k,k,1,0.7510910000000877,331.86482069999965,332.87108549999994,332.8512271999998,None,331.86482069999965,None,331.86482069999965,None,331.86482069999965,None,333.5970663499999,None,333.5970663499999,None,333.5970663499999,None,,,,,,,,,,,217,24,Male,2022-05-17_14h14.25.046,Main,2022.1.1,59.97972685255231,
negative,neutral,2,j,l,,,,,,,,,5,11,101,12,,,,,,,,,,,,,,,,,,,,,,,,main,1,1,2,neutral,negative,l,l,1,0.8172678999999334,333.6190861999994,334.62389729999995,334.6026946000002,None,333.6190861999994,None,333.6190861999994,None,333.6190861999994,None,335.41717535000015,None,335.41717535000015,None,335.41717535000015,None,,,,,,,,,,,217,24,Male,2022-05-17_14h14.25.046,Main,2022.1.1,59.97972685255231,
neutral,neutral,2,k,k,,,,,,,,,5,12,102,10,,,,,,,,,,,,,,,,,,,,,,,,main,1,1,2,neutral,neutral,k,k,1,0.701893000000382,335.43822869999985,336.450116,336.4302883999999,None,335.43822869999985,None,335.43822869999985,None,335.43822869999985,None,337.1227615499999,None,337.1227615499999,None,337.1227615499999,None,,,,,,,,,,,217,24,Male,2022-05-17_14h14.25.046,Main,2022.1.1,59.97972685255231,
positive,positive,1,l,j,,,,,,,,,5,13,103,2,,,,,,,,,,,,,,,,,,,,,,,,main,2,2,1,positive,positive,j,j,1,0.7610003999998298,337.1446893000002,338.16600930000004,338.1243666999999,None,337.1446893000002,None,337.1446893000002,None,337.1446893000002,None,338.88736684999975,None,338.88736684999975,None,338.88736684999975,None,,,,,,,,,,,217,24,Male,2022-05-17_14h14.25.046,Main,2022.1.1,59.97972685255231,
positive,positive,2,l,j,,,,,,,,,5,14,104,11,,,,,,,,,,,,,,,,,,,,,,,,main,1,1,2,positive,positive,j,j,1,0.7631019999998898,338.91049329999987,339.91682649999984,339.8974653999994,None,338.91049329999987,None,338.91049329999987,None,338.91049329999987,None,340.65459755,None,340.65459755,None,340.65459755,None,,,,,,,,,,,217,24,Male,2022-05-17_14h14.25.046,Main,2022.1.1,59.97972685255231,
negative,positive,2,j,l,,,,,,,,,5,15,105,15,,,,,,,,,,,,,,,,,,,,,,,,main,1,1,2,positive,negative,l,l,1,0.7596651000003476,340.6774442999995,341.69667669999944,341.65374359999987,None,340.6774442999995,None,340.6774442999995,None,340.6774442999995,None,342.41450864999996,None,342.41450864999996,None,342.41450864999996,None,,,,,,,,,,,217,24,Male,2022-05-17_14h14.25.046,Main,2022.1.1,59.97972685255231,
negative,negative,1,j,l,,,,,,,,,5,16,106,0,,,,,,,,,,,,,,,,,,,,,,,,main,2,2,1,negative,negative,l,l,1,0.7384303999997428,342.43885239999963,343.4625226999997,343.4198545999998,None,342.43885239999963,None,342.43885239999963,None,342.43885239999963,None,344.15800714999995,None,344.15800714999995,None,344.15800714999995,None,,,,,,,,,,,217,24,Male,2022-05-17_14h14.25.046,Main,2022.1.1,59.97972685255231,
positive,negative,1,l,j,,,,,,,,,5,17,107,5,,,,,,,,,,,,,,,,,,,,,,,,main,1,1,1,negative,positive,j,j,1,0.7421596000003774,344.1789726999996,345.1840001999999,345.16447960000005,None,344.1789726999996,None,344.1789726999996,None,344.1789726999996,None,345.9037489500003,None,345.9037489500003,None,345.9037489500003,None,,,,,,,,,,,217,24,Male,2022-05-17_14h14.25.046,Main,2022.1.1,59.97972685255231,
negative,negative,1,j,l,,,,,,,,,6,0,108,0,,,,,,,,,,,,,,,,,,,,,,,,main,2,2,1,negative,negative,l,l,1,0.7456132999996044,345.92554670000027,346.9341380999995,346.9136321999995,None,345.92554670000027,None,345.92554670000027,None,345.92554670000027,None,347.6491899499994,None,347.6491899499994,None,347.6491899499994,None,,,,,,,,,,,217,24,Male,2022-05-17_14h14.25.046,Main,2022.1.1,59.97972685255231,
positive,negative,1,l,j,,,,,,,,,6,1,109,5,,,,,,,,,,,,,,,,,,,,,,,,main,2,2,1,negative,positive,j,j,1,0.79261680000036,347.6711951999996,348.6831591,348.66310220000014,None,347.6711951999996,None,347.6711951999996,None,347.6711951999996,None,349.44475324999956,None,349.44475324999956,None,349.44475324999956,None,,,,,,,,,,,217,24,Male,2022-05-17_14h14.25.046,Main,2022.1.1,59.97972685255231,
neutral,neutral,1,k,k,,,,,,,,,6,2,110,1,,,,,,,,,,,,,,,,,,,,,,,,main,2,2,1,neutral,neutral,k,k,1,0.6896817999995619,349.4659818,350.4805147999996,350.4608333999995,None,349.4659818,None,349.4659818,None,349.4659818,None,351.1393168499996,None,351.1393168499996,None,351.1393168499996,None,,,,,,,,,,,217,24,Male,2022-05-17_14h14.25.046,Main,2022.1.1,59.97972685255231,
positive,negative,2,l,j,,,,,,,,,6,3,111,14,,,,,,,,,,,,,,,,,,,,,,,,main,2,2,2,negative,positive,j,j,1,0.7278433999999834,351.1619568999995,352.1766582,352.1344130999996,None,351.1619568999995,None,351.1619568999995,None,351.1619568999995,None,352.8693099500003,None,352.8693099500003,None,352.8693099500003,None,,,,,,,,,,,217,24,Male,2022-05-17_14h14.25.046,Main,2022.1.1,59.97972685255231,
negative,positive,1,j,l,,,,,,,,,6,4,112,6,,,,,,,,,,,,,,,,,,,,,,,,main,1,1,1,positive,negative,l,l,1,0.7672522000002573,352.89113869999983,353.8964976999996,353.8764795999996,None,352.89113869999983,None,352.89113869999983,None,352.89113869999983,None,354.6391588499998,None,354.6391588499998,None,354.6391588499998,None,,,,,,,,,,,217,24,Male,2022-05-17_14h14.25.046,Main,2022.1.1,59.97972685255231,
neutral,negative,2,k,k,,,,,,,,,6,5,113,16,,,,,,,,,,,,,,,,,,,,,,,,main,1,1,2,negative,neutral,k,k,1,0.6797261000001527,354.6611683000001,355.66544150000027,355.6463826999998,None,354.6611683000001,None,354.6611683000001,None,354.6611683000001,None,356.32142315000027,None,356.32142315000027,None,356.32142315000027,None,,,,,,,,,,,217,24,Male,2022-05-17_14h14.25.046,Main,2022.1.1,59.97972685255231,
positive,neutral,2,l,j,,,,,,,,,6,6,114,17,,,,,,,,,,,,,,,,,,,,,,,,main,1,1,2,neutral,positive,j,j,1,0.9146620999999868,356.3440026999997,357.36027399999966,357.3189505999999,None,356.3440026999997,None,356.3440026999997,None,356.3440026999997,None,358.23949944999976,None,358.23949944999976,None,358.23949944999976,None,,,,,,,,,,,217,24,Male,2022-05-17_14h14.25.046,Main,2022.1.1,59.97972685255231,
negative,negative,2,j,l,,,,,,,,,6,7,115,9,,,,,,,,,,,,,,,,,,,,,,,,main,2,2,2,negative,negative,l,l,1,0.7384803999993892,358.26085820000026,359.2656683999994,359.24630460000026,None,358.26085820000026,None,358.26085820000026,None,358.26085820000026,None,359.97936714999986,None,359.97936714999986,None,359.97936714999986,None,,,,,,,,,,,217,24,Male,2022-05-17_14h14.25.046,Main,2022.1.1,59.97972685255231,
positive,positive,2,l,j,,,,,,,,,6,8,116,11,,,,,,,,,,,,,,,,,,,,,,,,main,2,2,2,positive,positive,j,j,1,0.7810263999999734,360.00095650000003,361.0240179000002,360.9815641999994,None,360.00095650000003,None,360.00095650000003,None,360.00095650000003,None,361.76278274999976,None,361.76278274999976,None,361.76278274999976,None,,,,,,,,,,,217,24,Male,2022-05-17_14h14.25.046,Main,2022.1.1,59.97972685255231,
negative,neutral,1,j,l,,,,,,,,,6,9,117,3,,,,,,,,,,,,,,,,,,,,,,,,main,1,1,1,neutral,negative,l,l,1,0.71505309999975,361.7843422999995,362.8105489999998,362.7664913999997,None,361.7843422999995,None,361.7843422999995,None,361.7843422999995,None,363.48298204999963,None,363.48298204999963,None,363.48298204999963,None,,,,,,,,,,,217,24,Male,2022-05-17_14h14.25.046,Main,2022.1.1,59.97972685255231,
negative,neutral,2,j,l,,,,,,,,,6,10,118,12,,,,,,,,,,,,,,,,,,,,,,,,main,2,2,2,neutral,negative,l,l,1,0.6975253000000521,363.50376679999954,364.50914939999984,364.48796390000007,None,363.50376679999954,None,363.50376679999954,None,363.50376679999954,None,365.18280674999977,None,365.18280674999977,None,365.18280674999977,None,,,,,,,,,,,217,24,Male,2022-05-17_14h14.25.046,Main,2022.1.1,59.97972685255231,
positive,positive,1,l,j,,,,,,,,,6,11,119,2,,,,,,,,,,,,,,,,,,,,,,,,main,1,1,1,positive,positive,j,j,1,0.8156763999995746,365.20533780000005,366.2274324,366.1867522000002,None,365.20533780000005,None,365.20533780000005,None,365.20533780000005,None,367.0002320499995,None,367.0002320499995,None,367.0002320499995,None,,,,,,,,,,,217,24,Male,2022-05-17_14h14.25.046,Main,2022.1.1,59.97972685255231,
neutral,positive,1,k,k,,,,,,,,,6,12,120,4,,,,,,,,,,,,,,,,,,,,,,,,main,2,2,1,positive,neutral,k,k,1,0.7439309000001231,367.02334580000024,368.0276480000002,368.0082788999998,None,367.02334580000024,None,367.02334580000024,None,367.02334580000024,None,368.74511665000017,None,368.74511665000017,None,368.74511665000017,None,,,,,,,,,,,217,24,Male,2022-05-17_14h14.25.046,Main,2022.1.1,59.97972685255231,
neutral,negative,1,k,k,,,,,,,,,6,13,121,7,,,,,,,,,,,,,,,,,,,,,,,,main,1,1,1,negative,neutral,k,k,1,0.6526131000000532,368.7724532000002,369.78619609999987,369.7450772000002,None,368.7724532000002,None,368.7724532000002,None,368.7724532000002,None,370.40313165000015,None,370.40313165000015,None,370.40313165000015,None,,,,,,,,,,,217,24,Male,2022-05-17_14h14.25.046,Main,2022.1.1,59.97972685255231,
positive,neutral,1,l,j,,,,,,,,,6,14,122,8,,,,,,,,,,,,,,,,,,,,,,,,main,2,2,1,neutral,positive,j,j,1,0.8878665000002002,370.4246370999999,371.42850629999975,371.4087684999995,None,370.4246370999999,None,370.4246370999999,None,370.4246370999999,None,372.29125085000004,None,372.29125085000004,None,372.29125085000004,None,,,,,,,,,,,217,24,Male,2022-05-17_14h14.25.046,Main,2022.1.1,59.97972685255231,
negative,positive,2,j,l,,,,,,,,,6,15,123,15,,,,,,,,,,,,,,,,,,,,,,,,main,2,2,2,positive,negative,l,l,1,0.9376574999996592,372.3127131000001,373.3308385999999,373.2913983999997,None,372.3127131000001,None,372.3127131000001,None,372.3127131000001,None,374.2342431499998,None,374.2342431499998,None,374.2342431499998,None,,,,,,,,,,,217,24,Male,2022-05-17_14h14.25.046,Main,2022.1.1,59.97972685255231,
neutral,neutral,2,k,k,,,,,,,,,6,16,124,10,,,,,,,,,,,,,,,,,,,,,,,,main,1,1,2,neutral,neutral,k,k,1,0.7111533999996027,374.25509749999947,375.2696516999995,375.22966389999965,None,374.25509749999947,None,374.25509749999947,None,374.25509749999947,None,375.9445998500002,None,375.9445998500002,None,375.9445998500002,None,,,,,,,,,,,217,24,Male,2022-05-17_14h14.25.046,Main,2022.1.1,59.97972685255231,
neutral,positive,2,k,k,,,,,,,,,6,17,125,13,,,,,,,,,,,,,,,,,,,,,,,,main,2,2,2,positive,neutral,k,k,1,0.6812545000002501,375.96839999999975,376.9746344999994,376.9530391999997,None,375.96839999999975,None,375.96839999999975,None,375.96839999999975,None,377.63191815,None,377.63191815,None,377.63191815,None,,,,,,,,,,,217,24,Male,2022-05-17_14h14.25.046,Main,2022.1.1,59.97972685255231,
positive,neutral,1,l,j,,,,,,,,,7,0,126,8,,,,,,,,,,,,,,,,,,,,,,,,main,1,1,1,neutral,positive,j,j,1,0.9431794000001901,377.65239909999946,378.67495189999954,378.6335945999999,None,377.65239909999946,None,377.65239909999946,None,377.65239909999946,None,379.57366065000014,None,379.57366065000014,None,379.57366065000014,None,,,,,,,,,,,217,24,Male,2022-05-17_14h14.25.046,Main,2022.1.1,59.97972685255231,
negative,neutral,1,j,l,,,,,,,,,7,1,127,3,,,,,,,,,,,,,,,,,,,,,,,,main,1,1,1,neutral,negative,l,l,1,0.9376466999992772,379.5957029000001,380.6205533000002,380.57722139999987,None,379.5957029000001,None,379.5957029000001,None,379.5957029000001,None,381.51744725,None,381.51744725,None,381.51744725,None,,,,,,,,,,,217,24,Male,2022-05-17_14h14.25.046,Main,2022.1.1,59.97972685255231,
positive,neutral,2,l,j,,,,,,,,,7,2,128,17,,,,,,,,,,,,,,,,,,,,,,,,main,2,2,2,neutral,positive,j,j,1,0.7590087999997195,381.53876299999956,382.5603074999999,382.5187060999997,None,381.53876299999956,None,381.53876299999956,None,381.53876299999956,None,383.27654365000006,None,383.27654365000006,None,383.27654365000006,None,,,,,,,,,,,217,24,Male,2022-05-17_14h14.25.046,Main,2022.1.1,59.97972685255231,
positive,negative,1,l,j,,,,,,,,,7,3,129,5,,,,,,,,,,,,,,,,,,,,,,,,main,2,2,1,negative,positive,j,j,1,0.8481747999994695,383.2978201999995,384.30161919999955,384.28020620000007,None,383.2978201999995,None,383.2978201999995,None,383.2978201999995,None,385.12733335,None,385.12733335,None,385.12733335,None,,,,,,,,,,,217,24,Male,2022-05-17_14h14.25.046,Main,2022.1.1,59.97972685255231,
negative,positive,1,j,l,,,,,,,,,7,4,130,6,,,,,,,,,,,,,,,,,,,,,,,,main,2,2,1,positive,negative,l,l,1,0.7319226000008712,385.14811800000007,386.1598501999997,386.1403412999998,None,385.14811800000007,None,385.14811800000007,None,385.14811800000007,None,386.86096245000016,None,386.86096245000016,None,386.86096245000016,None,,,,,,,,,,,217,24,Male,2022-05-17_14h14.25.046,Main,2022.1.1,59.97972685255231,
positive,negative,2,l,j,,,,,,,,,7,5,131,14,,,,,,,,,,,,,,,,,,,,,,,,main,2,2,2,negative,positive,j,j,1,0.8591008000003058,386.8828588999995,387.90685849999954,387.86442650000026,None,386.8828588999995,None,386.8828588999995,None,386.8828588999995,None,388.72333965000024,None,388.72333965000024,None,388.72333965000024,None,,,,,,,,,,,217,24,Male,2022-05-17_14h14.25.046,Main,2022.1.1,59.97972685255231,
negative,negative,2,j,l,,,,,,,,,7,6,132,9,,,,,,,,,,,,,,,,,,,,,,,,main,2,2,2,negative,negative,l,l,1,0.9346181000000797,388.74462419999963,389.76673109999956,389.72615270000006,None,388.74462419999963,None,388.74462419999963,None,388.74462419999963,None,390.65832455000026,None,390.65832455000026,None,390.65832455000026,None,,,,,,,,,,,217,24,Male,2022-05-17_14h14.25.046,Main,2022.1.1,59.97972685255231,
positive,positive,2,l,j,,,,,,,,,7,7,133,11,,,,,,,,,,,,,,,,,,,,,,,,main,2,2,2,positive,positive,j,j,1,0.746396100000311,390.6821795999995,391.6923015000002,391.6721751999994,None,390.6821795999995,None,390.6821795999995,None,390.6821795999995,None,392.40828114999994,None,392.40828114999994,None,392.40828114999994,None,,,,,,,,,,,217,24,Male,2022-05-17_14h14.25.046,Main,2022.1.1,59.97972685255231,
neutral,positive,2,k,k,,,,,,,,,7,8,134,13,,,,,,,,,,,,,,,,,,,,,,,,main,1,1,2,positive,neutral,k,k,1,0.7807819999998173,392.43444980000004,393.4547984999999,393.41258279999965,None,392.43444980000004,None,392.43444980000004,None,392.43444980000004,None,394.1923566499997,None,394.1923566499997,None,394.1923566499997,None,,,,,,,,,,,217,24,Male,2022-05-17_14h14.25.046,Main,2022.1.1,59.97972685255231,
neutral,neutral,2,k,k,,,,,,,,,7,9,135,10,,,,,,,,,,,,,,,,,,,,,,,,main,1,1,2,neutral,neutral,k,k,1,0.659528300000602,394.21496690000004,395.22096729999976,395.1998494999998,None,394.21496690000004,None,394.21496690000004,None,394.21496690000004,None,395.8543524499998,None,395.8543524499998,None,395.8543524499998,None,,,,,,,,,,,217,24,Male,2022-05-17_14h14.25.046,Main,2022.1.1,59.97972685255231,
positive,positive,1,l,j,,,,,,,,,7,10,136,2,,,,,,,,,,,,,,,,,,,,,,,,main,2,2,1,positive,positive,j,j,1,0.7222754000003988,395.87787219999973,396.9012748999994,396.8582030999996,None,395.87787219999973,None,395.87787219999973,None,395.87787219999973,None,397.58186815000016,None,397.58186815000016,None,397.58186815000016,None,,,,,,,,,,,217,24,Male,2022-05-17_14h14.25.046,Main,2022.1.1,59.97972685255231,
negative,neutral,2,j,l,,,,,,,,,7,11,137,12,,,,,,,,,,,,,,,,,,,,,,,,main,2,2,2,neutral,negative,l,l,1,0.8644303000000946,397.6023132,398.6220803999995,398.58008079999945,None,397.6023132,None,397.6023132,None,397.6023132,None,399.44843114999975,None,399.44843114999975,None,399.44843114999975,None,,,,,,,,,,,217,24,Male,2022-05-17_14h14.25.046,Main,2022.1.1,59.97972685255231,
negative,positive,2,j,l,,,,,,,,,7,12,138,15,,,,,,,,,,,,,,,,,,,,,,,,main,1,1,2,positive,negative,l,l,1,0.7826599999998507,399.4697636000001,400.4734548999995,400.4539789999999,None,399.4697636000001,None,399.4697636000001,None,399.4697636000001,None,401.23388134999976,None,401.23388134999976,None,401.23388134999976,None,,,,,,,,,,,217,24,Male,2022-05-17_14h14.25.046,Main,2022.1.1,59.97972685255231,
neutral,positive,1,k,k,,,,,,,,,7,13,139,4,,,,,,,,,,,,,,,,,,,,,,,,main,1,1,1,positive,neutral,k,k,1,0.739588499999627,401.25659369999994,402.2591898999999,402.2396239999998,None,401.25659369999994,None,401.25659369999994,None,401.25659369999994,None,402.97459795000003,None,402.97459795000003,None,402.97459795000003,None,,,,,,,,,,,217,24,Male,2022-05-17_14h14.25.046,Main,2022.1.1,59.97972685255231,
neutral,negative,2,k,k,,,,,,,,,7,14,140,16,,,,,,,,,,,,,,,,,,,,,,,,main,2,2,2,negative,neutral,k,k,1,0.6786022999995112,402.99668419999944,404.0006698999996,403.9796295999995,None,402.99668419999944,None,402.99668419999944,None,402.99668419999944,None,404.6563106499995,None,404.6563106499995,None,404.6563106499995,None,,,,,,,,,,,217,24,Male,2022-05-17_14h14.25.046,Main,2022.1.1,59.97972685255231,
negative,negative,1,j,l,,,,,,,,,7,15,141,0,,,,,,,,,,,,,,,,,,,,,,,,main,2,2,1,negative,negative,l,l,1,0.8548816000002262,404.68187709999984,405.69196490000013,405.67179979999946,None,404.68187709999984,None,404.68187709999984,None,404.68187709999984,None,406.51605805000025,None,406.51605805000025,None,406.51605805000025,None,,,,,,,,,,,217,24,Male,2022-05-17_14h14.25.046,Main,2022.1.1,59.97972685255231,
neutral,neutral,1,k,k,,,,,,,,,7,16,142,1,,,,,,,,,,,,,,,,,,,,,,,,main,1,1,1,neutral,neutral,k,k,1,0.7773895000000266,406.53939809999974,407.5421091999997,407.5223073999996,None,406.53939809999974,None,406.53939809999974,None,406.53939809999974,None,408.2980473499999,None,408.2980473499999,None,408.2980473499999,None,,,,,,,,,,,217,24,Male,2022-05-17_14h14.25.046,Main,2022.1.1,59.97972685255231,
neutral,negative,1,k,k,,,,,,,,,7,17,143,7,,,,,,,,,,,,,,,,,,,,,,,,main,1,1,1,negative,neutral,k,k,1,0.7904348000001846,408.31895319999967,409.3266845999997,409.3067949999995,None,408.31895319999967,None,408.31895319999967,None,408.31895319999967,None,410.0873502499996,None,410.0873502499996,None,410.0873502499996,None,,,,,,,,,,,217,24,Male,2022-05-17_14h14.25.046,Main,2022.1.1,59.97972685255231,
positive,neutral,1,l,j,,,,,,,,,8,0,144,8,,,,,,,,,,,,,,,,,,,,,,,,main,2,2,1,neutral,positive,j,j,1,0.9402790000003733,410.11048089999986,411.13129729999946,411.09037999999964,None,410.11048089999986,None,410.11048089999986,None,410.11048089999986,None,412.03390714999995,None,412.03390714999995,None,412.03390714999995,None,,,,,,,,,,,217,24,Male,2022-05-17_14h14.25.046,Main,2022.1.1,59.97972685255231,
positive,negative,2,l,j,,,,,,,,,8,1,145,14,,,,,,,,,,,,,,,,,,,,,,,,main,1,1,2,negative,positive,j,j,1,0.820696400000088,412.0563228000001,413.07099819999985,413.0477718000002,None,412.0563228000001,None,412.0563228000001,None,412.0563228000001,None,413.85742275,None,413.85742275,None,413.85742275,None,,,,,,,,,,,217,24,Male,2022-05-17_14h14.25.046,Main,2022.1.1,59.97972685255231,
negative,positive,2,j,l,,,,,,,,,8,2,146,15,,,,,,,,,,,,,,,,,,,,,,,,main,2,2,2,positive,negative,l,l,1,0.9853925999996136,413.8792905999999,414.90308110000024,414.86095659999955,None,413.8792905999999,None,413.8792905999999,None,413.8792905999999,None,415.84787905,None,415.84787905,None,415.84787905,None,,,,,,,,,,,217,24,Male,2022-05-17_14h14.25.046,Main,2022.1.1,59.97972685255231,
positive,negative,1,l,j,,,,,,,,,8,3,147,5,,,,,,,,,,,,,,,,,,,,,,,,main,1,1,1,negative,positive,j,j,1,1.1556347999994614,415.87129509999977,416.8826386999999,416.8615553999998,None,415.87129509999977,None,415.87129509999977,None,415.87129509999977,None,418.00701604999966,None,418.00701604999966,None,418.00701604999966,None,,,,,,,,,,,217,24,Male,2022-05-17_14h14.25.046,Main,2022.1.1,59.97972685255231,
neutral,neutral,2,k,k,,,,,,,,,8,4,148,10,,,,,,,,,,,,,,,,,,,,,,,,main,1,1,2,neutral,neutral,k,k,1,0.813034400000106,418.02857349999977,419.0510521999995,419.0088974,None,418.02857349999977,None,418.02857349999977,None,418.02857349999977,None,419.82319114999945,None,419.82319114999945,None,419.82319114999945,None,,,,,,,,,,,217,24,Male,2022-05-17_14h14.25.046,Main,2022.1.1,59.97972685255231,
positive,positive,2,l,j,,,,,,,,,8,5,149,11,,,,,,,,,,,,,,,,,,,,,,,,main,2,2,2,positive,positive,j,j,1,0.8929361999998946,419.84912859999986,420.85765530000026,420.8374355999995,None,419.84912859999986,None,419.84912859999986,None,419.84912859999986,None,421.7180224499995,None,421.7180224499995,None,421.7180224499995,None,,,,,,,,,,,217,24,Male,2022-05-17_14h14.25.046,Main,2022.1.1,59.97972685255231,
positive,positive,1,l,j,,,,,,,,,8,6,150,2,,,,,,,,,,,,,,,,,,,,,,,,main,1,1,1,positive,positive,j,j,1,1.5398973000001206,421.74010569999973,422.75199819999943,422.7297413999995,None,421.74010569999973,None,421.74010569999973,None,421.74010569999973,None,424.2711322999994,None,424.2711322999994,None,424.2711322999994,None,,,,,,,,,,,217,24,Male,2022-05-17_14h14.25.046,Main,2022.1.1,59.97972685255231,
negative,negative,2,j,l,,,,,,,,,8,7,151,9,,,,,,,,,,,,,,,,,,,,,,,,main,2,2,2,negative,negative,l,l,1,0.8739388000003601,425.29185640000014,426.309526,426.2695899,None,425.29185640000014,None,425.29185640000014,None,425.29185640000014,None,427.1465566499998,None,427.1465566499998,None,427.1465566499998,None,,,,,,,,,,,217,24,Male,2022-05-17_14h14.25.046,Main,2022.1.1,59.97972685255231,
neutral,positive,2,k,k,,,,,,,,,8,8,152,13,,,,,,,,,,,,,,,,,,,,,,,,main,1,1,2,positive,neutral,k,k,1,0.8529367000001002,427.1684633999994,428.1798345999996,428.1593032999999,None,427.1684633999994,None,427.1684633999994,None,427.1684633999994,None,429.0007757499995,None,429.0007757499995,None,429.0007757499995,None,,,,,,,,,,,217,24,Male,2022-05-17_14h14.25.046,Main,2022.1.1,59.97972685255231,
negative,positive,1,j,l,,,,,,,,,8,9,153,6,,,,,,,,,,,,,,,,,,,,,,,,main,2,2,1,positive,negative,l,l,1,1.0339310999997906,429.02748840000004,430.0360208000002,430.0145222000001,None,429.02748840000004,None,429.02748840000004,None,429.02748840000004,None,431.04095794999984,None,431.04095794999984,None,431.04095794999984,None,,,,,,,,,,,217,24,Male,2022-05-17_14h14.25.046,Main,2022.1.1,59.97972685255231,
positive,neutral,2,l,j,,,,,,,,,8,10,154,17,,,,,,,,,,,,,,,,,,,,,,,,main,1,1,2,neutral,positive,j,j,1,0.7518394999997327,431.06087729999945,432.07996469999944,432.0390803,None,431.06087729999945,None,431.06087729999945,None,431.06087729999945,None,432.7956272500002,None,432.7956272500002,None,432.7956272500002,None,,,,,,,,,,,217,24,Male,2022-05-17_14h14.25.046,Main,2022.1.1,59.97972685255231,
negative,negative,1,j,l,,,,,,,,,8,11,155,0,,,,,,,,,,,,,,,,,,,,,,,,main,2,2,1,negative,negative,l,l,1,0.8882346999998845,432.81663239999943,433.82346679999955,433.8037554000002,None,432.81663239999943,None,432.81663239999943,None,432.81663239999943,None,434.6838114500003,None,434.6838114500003,None,434.6838114500003,None,,,,,,,,,,,217,24,Male,2022-05-17_14h14.25.046,Main,2022.1.1,59.97972685255231,
neutral,negative,1,k,k,,,,,,,,,8,12,156,7,,,,,,,,,,,,,,,,,,,,,,,,main,1,1,1,negative,neutral,k,k,1,0.7852743999992526,434.70510019999983,435.7118295999999,435.6896574000002,None,434.70510019999983,None,434.70510019999983,None,434.70510019999983,None,436.47328174999956,None,436.47328174999956,None,436.47328174999956,None,,,,,,,,,,,217,24,Male,2022-05-17_14h14.25.046,Main,2022.1.1,59.97972685255231,
neutral,negative,2,k,k,,,,,,,,,8,13,157,16,,,,,,,,,,,,,,,,,,,,,,,,main,1,1,2,negative,neutral,k,k,1,0.7604713000000629,436.4983631999994,437.52148450000004,437.47866019999947,None,436.4983631999994,None,436.4983631999994,None,436.4983631999994,None,438.23479124999966,None,438.23479124999966,None,438.23479124999966,None,,,,,,,,,,,217,24,Male,2022-05-17_14h14.25.046,Main,2022.1.1,59.97972685255231,
neutral,neutral,1,k,k,,,,,,,,,8,14,158,1,,,,,,,,,,,,,,,,,,,,,,,,main,2,2,1,neutral,neutral,k,k,1,0.7716698999993241,438.2558987000002,439.2734497000001,439.2337235999994,None,438.2558987000002,None,438.2558987000002,None,438.2558987000002,None,440.01127934999994,None,440.01127934999994,None,440.01127934999994,None,,,,,,,,,,,217,24,Male,2022-05-17_14h14.25.046,Main,2022.1.1,59.97972685255231,
neutral,positive,1,k,k,,,,,,,,,8,15,159,4,,,,,,,,,,,,,,,,,,,,,,,,main,2,2,1,positive,neutral,k,k,1,0.6265794999999343,440.0326888999998,441.0408091999998,441.0212894999995,None,440.0326888999998,None,440.0326888999998,None,440.0326888999998,None,441.6406573499996,None,441.6406573499996,None,441.6406573499996,None,,,,,,,,,,,217,24,Male,2022-05-17_14h14.25.046,Main,2022.1.1,59.97972685255231,
negative,neutral,1,j,l,,,,,,,,,8,16,160,3,,,,,,,,,,,,,,,,,,,,,,,,main,2,2,1,neutral,negative,l,l,1,0.8518651000003956,441.6617844000002,442.67689429999973,442.6362290999996,None,441.6617844000002,None,441.6617844000002,None,441.6617844000002,None,443.49347265000023,None,443.49347265000023,None,443.49347265000023,None,,,,,,,,,,,217,24,Male,2022-05-17_14h14.25.046,Main,2022.1.1,59.97972685255231,
negative,neutral,2,j,l,,,,,,,,,8,17,161,12,,,,,,,,,,,,,,,,,,,,,,,,main,1,1,2,neutral,negative,l,l,1,0.8382441000003382,443.5165793999995,444.53818020000017,444.49886739999965,None,443.5165793999995,None,443.5165793999995,None,443.5165793999995,None,445.3357192499995,None,445.3357192499995,None,445.3357192499995,None,,,,,,,,,,,217,24,Male,2022-05-17_14h14.25.046,Main,2022.1.1,59.97972685255231,
neutral,negative,2,k,k,,,,,,,,,9,0,162,16,,,,,,,,,,,,,,,,,,,,,,,,main,2,2,2,negative,neutral,k,k,1,0.7525811000004978,445.35783269999956,446.37467000000015,446.33448099999987,None,445.35783269999956,None,445.35783269999956,None,445.35783269999956,None,447.0938302499996,None,447.0938302499996,None,447.0938302499996,None,,,,,,,,,,,217,24,Male,2022-05-17_14h14.25.046,Main,2022.1.1,59.97972685255231,
positive,positive,2,l,j,,,,,,,,,9,1,163,11,,,,,,,,,,,,,,,,,,,,,,,,main,1,1,2,positive,positive,j,j,1,0.7802992999995695,447.11605749999944,448.1368066999994,448.0978434999997,None,447.11605749999944,None,447.11605749999944,None,447.11605749999944,None,448.8766839500001,None,448.8766839500001,None,448.8766839500001,None,,,,,,,,,,,217,24,Male,2022-05-17_14h14.25.046,Main,2022.1.1,59.97972685255231,
negative,negative,2,j,l,,,,,,,,,9,2,164,9,,,,,,,,,,,,,,,,,,,,,,,,main,2,2,2,negative,negative,l,l,1,1.1255214000002525,448.8989569999994,449.91694779999943,449.8758319999997,None,448.8989569999994,None,448.8989569999994,None,448.8989569999994,None,451.0015363500003,None,451.0015363500003,None,451.0015363500003,None,,,,,,,,,,,217,24,Male,2022-05-17_14h14.25.046,Main,2022.1.1,59.97972685255231,
neutral,negative,1,k,k,,,,,,,,,9,3,165,7,,,,,,,,,,,,,,,,,,,,,,,,main,2,2,1,negative,neutral,k,k,1,0.7841038999995362,451.02839219999987,452.03346749999946,452.01367930000015,None,451.02839219999987,None,451.02839219999987,None,451.02839219999987,None,452.7907404499999,None,452.7907404499999,None,452.7907404499999,None,,,,,,,,,,,217,24,Male,2022-05-17_14h14.25.046,Main,2022.1.1,59.97972685255231,
negative,positive,2,j,l,,,,,,,,,9,4,166,15,,,,,,,,,,,,,,,,,,,,,,,,main,1,1,2,positive,negative,l,l,1,0.9778100000003178,452.81289730000026,453.8336515000001,453.79251120000026,None,452.81289730000026,None,452.81289730000026,None,452.81289730000026,None,454.7720261499996,None,454.7720261499996,None,454.7720261499996,None,,,,,,,,,,,217,24,Male,2022-05-17_14h14.25.046,Main,2022.1.1,59.97972685255231,
negative,negative,1,j,l,,,,,,,,,9,5,167,0,,,,,,,,,,,,,,,,,,,,,,,,main,2,2,1,negative,negative,l,l,1,0.7420555999997305,454.7929503999994,455.81595560000005,455.77511630000026,None,454.7929503999994,None,454.7929503999994,None,454.7929503999994,None,456.51346774999973,None,456.51346774999973,None,456.51346774999973,None,,,,,,,,,,,217,24,Male,2022-05-17_14h14.25.046,Main,2022.1.1,59.97972685255231,
neutral,neutral,2,k,k,,,,,,,,,9,6,168,10,,,,,,,,,,,,,,,,,,,,,,,,main,2,2,2,neutral,neutral,k,k,1,0.7377040999999736,456.5354486999995,457.5540504999999,457.51661629999944,None,456.5354486999995,None,456.5354486999995,None,456.5354486999995,None,458.2565407500003,None,458.2565407500003,None,458.2565407500003,None,,,,,,,,,,,217,24,Male,2022-05-17_14h14.25.046,Main,2022.1.1,59.97972685255231,
positive,positive,1,l,j,,,,,,,,,9,7,169,2,,,,,,,,,,,,,,,,,,,,,,,,main,2,2,1,positive,positive,j,j,1,0.7927441000001636,458.2775950999994,459.2827305999999,459.2627825999998,None,458.2775950999994,None,458.2775950999994,None,458.2775950999994,None,460.0488909499997,None,460.0488909499997,None,460.0488909499997,None,,,,,,,,,,,217,24,Male,2022-05-17_14h14.25.046,Main,2022.1.1,59.97972685255231,
positive,negative,2,l,j,,,,,,,,,9,8,170,14,,,,,,,,,,,,,,,,,,,,,,,,main,2,2,2,negative,positive,j,j,1,1.318640499999674,460.07016339999973,461.0878012000003,461.0481345999997,None,460.07016339999973,None,460.07016339999973,None,460.07016339999973,None,462.3722538500003,None,462.3722538500003,None,462.3722538500003,None,,,,,,,,,,,217,24,Male,2022-05-17_14h14.25.046,Main,2022.1.1,59.97972685255231,
negative,positive,1,j,l,,,,,,,,,9,9,171,6,,,,,,,,,,,,,,,,,,,,,,,,main,2,2,1,positive,negative,l,l,1,0.7959510999999111,462.3948677999997,463.4025419999998,463.3823440999995,None,462.3948677999997,None,462.3948677999997,None,462.3948677999997,None,464.16723505,None,464.16723505,None,464.16723505,None,,,,,,,,,,,217,24,Male,2022-05-17_14h14.25.046,Main,2022.1.1,59.97972685255231,
positive,neutral,2,l,j,,,,,,,,,9,10,172,17,,,,,,,,,,,,,,,,,,,,,,,,main,2,2,2,neutral,positive,j,j,1,0.7418418999995993,464.1905485999996,465.19567000000006,465.1745721999996,None,464.1905485999996,None,464.1905485999996,None,464.1905485999996,None,465.91319614999946,None,465.91319614999946,None,465.91319614999946,None,,,,,,,,,,,217,24,Male,2022-05-17_14h14.25.046,Main,2022.1.1,59.97972685255231,
positive,neutral,1,l,j,,,,,,,,,9,11,173,8,,,,,,,,,,,,,,,,,,,,,,,,main,2,2,1,neutral,positive,j,j,1,0.7560946000003241,465.93612979999943,466.9567925000001,466.91598629999953,None,465.93612979999943,None,465.93612979999943,None,465.93612979999943,None,467.6746750500003,None,467.6746750500003,None,467.6746750500003,None,,,,,,,,,,,217,24,Male,2022-05-17_14h14.25.046,Main,2022.1.1,59.97972685255231,
neutral,positive,2,k,k,,,,,,,,,9,12,174,13,,,,,,,,,,,,,,,,,,,,,,,,main,1,1,2,positive,neutral,k,k,1,0.7921642999999676,467.6954224000001,468.71551550000004,468.67477679999956,None,467.6954224000001,None,467.6954224000001,None,467.6954224000001,None,469.47020994999974,None,469.47020994999974,None,469.47020994999974,None,,,,,,,,,,,217,24,Male,2022-05-17_14h14.25.046,Main,2022.1.1,59.97972685255231,
negative,neutral,2,j,l,,,,,,,,,9,13,175,12,,,,,,,,,,,,,,,,,,,,,,,,main,2,2,2,neutral,negative,l,l,1,0.8631298000000243,469.4920626000003,470.5118926999994,470.46893889999956,None,469.4920626000003,None,469.4920626000003,None,469.4920626000003,None,471.3329258499995,None,471.3329258499995,None,471.3329258499995,None,,,,,,,,,,,217,24,Male,2022-05-17_14h14.25.046,Main,2022.1.1,59.97972685255231,
neutral,neutral,1,k,k,,,,,,,,,9,14,176,1,,,,,,,,,,,,,,,,,,,,,,,,main,2,2,1,neutral,neutral,k,k,1,0.8978320000005624,471.35853119999956,472.37770249999994,472.33490470000015,None,471.35853119999956,None,471.35853119999956,None,471.35853119999956,None,473.23394154999977,None,473.23394154999977,None,473.23394154999977,None,,,,,,,,,,,217,24,Male,2022-05-17_14h14.25.046,Main,2022.1.1,59.97972685255231,
positive,negative,1,l,j,,,,,,,,,9,15,177,5,,,,,,,,,,,,,,,,,,,,,,,,main,2,2,1,negative,positive,j,j,1,0.7635532000003877,473.2577215000001,474.2622348999994,474.2435674999997,None,473.2577215000001,None,473.2577215000001,None,473.2577215000001,None,474.9979320500003,None,474.9979320500003,None,474.9979320500003,None,,,,,,,,,,,217,24,Male,2022-05-17_14h14.25.046,Main,2022.1.1,59.97972685255231,
neutral,positive,1,k,k,,,,,,,,,9,16,178,4,,,,,,,,,,,,,,,,,,,,,,,,main,1,1,1,positive,neutral,k,k,1,0.7961161000002903,475.02524619999986,476.0436187999994,476.0010592999997,None,475.02524619999986,None,475.02524619999986,None,475.02524619999986,None,476.79809644999995,None,476.79809644999995,None,476.79809644999995,None,,,,,,,,,,,217,24,Male,2022-05-17_14h14.25.046,Main,2022.1.1,59.97972685255231,
negative,neutral,1,j,l,,,,,,,,,9,17,179,3,,,,,,,,,,,,,,,,,,,,,,,,main,2,2,1,neutral,negative,l,l,1,0.8641832000002978,476.82397479999963,477.84507909999957,477.8027941999999,None,476.82397479999963,None,476.82397479999963,None,476.82397479999963,None,478.66754504999943,None,478.66754504999943,None,478.66754504999943,None,,,,,,,,,,,217,24,Male,2022-05-17_14h14.25.046,Main,2022.1.1,59.97972685255231,
positive,positive,2,l,j,,,,,,,,,10,0,180,11,,,,,,,,,,,,,,,,,,,,,,,,main,1,1,2,positive,positive,j,j,1,0.743791500000043,478.6883898999995,479.69192380000004,479.67074520000006,None,478.6883898999995,None,478.6883898999995,None,478.6883898999995,None,480.4113253499997,None,480.4113253499997,None,480.4113253499997,None,,,,,,,,,,,217,24,Male,2022-05-17_14h14.25.046,Main,2022.1.1,59.97972685255231,
negative,positive,2,j,l,,,,,,,,,10,1,181,15,,,,,,,,,,,,,,,,,,,,,,,,main,1,1,2,positive,negative,l,l,1,0.8559976999995342,480.4328052000001,481.4360926999998,481.41676069999994,None,480.4328052000001,None,480.4328052000001,None,480.4328052000001,None,482.27226684999977,None,482.27226684999977,None,482.27226684999977,None,,,,,,,,,,,217,24,Male,2022-05-17_14h14.25.046,Main,2022.1.1,59.97972685255231,
negative,negative,1,j,l,,,,,,,,,10,2,182,0,,,,,,,,,,,,,,,,,,,,,,,,main,2,2,1,negative,negative,l,l,1,0.7648813999994672,482.2937652999999,483.30009960000007,483.27989660000003,None,482.2937652999999,None,482.2937652999999,None,482.2937652999999,None,484.03993964999944,None,484.03993964999944,None,484.03993964999944,None,,,,,,,,,,,217,24,Male,2022-05-17_14h14.25.046,Main,2022.1.1,59.97972685255231,
positive,negative,1,l,j,,,,,,,,,10,3,183,5,,,,,,,,,,,,,,,,,,,,,,,,main,1,1,1,negative,positive,j,j,1,0.7386046000001443,484.0614459999997,485.0635851999996,485.04419099999996,None,484.0614459999997,None,484.0614459999997,None,484.0614459999997,None,485.78043785000017,None,485.78043785000017,None,485.78043785000017,None,,,,,,,,,,,217,24,Male,2022-05-17_14h14.25.046,Main,2022.1.1,59.97972685255231,
negative,neutral,2,j,l,,,,,,,,,10,4,184,12,,,,,,,,,,,,,,,,,,,,,,,,main,1,1,2,neutral,negative,l,l,1,1.248530999999275,485.8023720000001,486.8095438999999,486.7884865999995,None,485.8023720000001,None,485.8023720000001,None,485.8023720000001,None,488.0344014500003,None,488.0344014500003,None,488.0344014500003,None,,,,,,,,,,,217,24,Male,2022-05-17_14h14.25.046,Main,2022.1.1,59.97972685255231,
neutral,negative,2,k,k,,,,,,,,,10,5,185,16,,,,,,,,,,,,,,,,,,,,,,,,main,1,1,2,negative,neutral,k,k,1,0.747809800000141,488.05621640000027,489.07573709999997,489.03347909999957,None,488.05621640000027,None,488.05621640000027,None,488.05621640000027,None,489.78579254999994,None,489.78579254999994,None,489.78579254999994,None,,,,,,,,,,,217,24,Male,2022-05-17_14h14.25.046,Main,2022.1.1,59.97972685255231,
positive,negative,2,l,j,,,,,,,,,10,6,186,14,,,,,,,,,,,,,,,,,,,,,,,,main,2,2,2,negative,positive,j,j,1,0.7586116000002221,489.80908009999985,490.8278688999999,490.78734369999984,None,489.80908009999985,None,489.80908009999985,None,489.80908009999985,None,491.5451653500001,None,491.5451653500001,None,491.5451653500001,None,,,,,,,,,,,217,24,Male,2022-05-17_14h14.25.046,Main,2022.1.1,59.97972685255231,
negative,positive,1,j,l,,,,,,,,,10,7,187,6,,,,,,,,,,,,,,,,,,,,,,,,main,2,2,1,positive,negative,l,l,1,1.0085897999997542,491.56629749999956,492.5719876000003,492.5510615000003,None,491.56629749999956,None,491.56629749999956,None,491.56629749999956,None,493.5572645500003,None,493.5572645500003,None,493.5572645500003,None,,,,,,,,,,,217,24,Male,2022-05-17_14h14.25.046,Main,2022.1.1,59.97972685255231,
neutral,positive,2,k,k,,,,,,,,,10,8,188,13,,,,,,,,,,,,,,,,,,,,,,,,main,2,2,2,positive,neutral,k,k,1,0.9327624000006836,493.5800761999999,494.5904436999999,494.5680462999999,None,493.5800761999999,None,493.5800761999999,None,493.5800761999999,None,495.4930505500003,None,495.4930505500003,None,495.4930505500003,None,,,,,,,,,,,217,24,Male,2022-05-17_14h14.25.046,Main,2022.1.1,59.97972685255231,
negative,neutral,1,j,l,,,,,,,,,10,9,189,3,,,,,,,,,,,,,,,,,,,,,,,,main,1,1,1,neutral,negative,l,l,1,1.3041213000005882,495.51539609999963,496.52443779999976,496.5032302999998,None,495.51539609999963,None,495.51539609999963,None,495.51539609999963,None,497.80119944999996,None,497.80119944999996,None,497.80119944999996,None,,,,,,,,,,,217,24,Male,2022-05-17_14h14.25.046,Main,2022.1.1,59.97972685255231,
neutral,neutral,2,k,k,,,,,,,,,10,10,190,10,,,,,,,,,,,,,,,,,,,,,,,,main,2,2,2,neutral,neutral,k,k,1,0.780874600000061,497.8225010999995,498.82832549999966,498.80770570000004,None,497.8225010999995,None,497.8225010999995,None,497.8225010999995,None,499.58512235000006,None,499.58512235000006,None,499.58512235000006,None,,,,,,,,,,,217,24,Male,2022-05-17_14h14.25.046,Main,2022.1.1,59.97972685255231,
neutral,negative,1,k,k,,,,,,,,,10,11,191,7,,,,,,,,,,,,,,,,,,,,,,,,main,2,2,1,negative,neutral,k,k,1,0.7621719999997367,499.6062489999995,500.6142410000002,500.5975116999998,None,499.6062489999995,None,499.6062489999995,None,499.6062489999995,None,501.3495307499995,None,501.3495307499995,None,501.3495307499995,None,,,,,,,,,,,217,24,Male,2022-05-17_14h14.25.046,Main,2022.1.1,59.97972685255231,
positive,neutral,2,l,j,,,,,,,,,10,12,192,17,,,,,,,,,,,,,,,,,,,,,,,,main,2,2,2,neutral,positive,j,j,1,0.7853491000005306,501.37097300000005,502.3923356999994,502.34998449999966,None,501.37097300000005,None,501.37097300000005,None,501.37097300000005,None,503.13731584999977,None,503.13731584999977,None,503.13731584999977,None,,,,,,,,,,,217,24,Male,2022-05-17_14h14.25.046,Main,2022.1.1,59.97972685255231,
negative,negative,2,j,l,,,,,,,,,10,13,193,9,,,,,,,,,,,,,,,,,,,,,,,,main,1,1,2,negative,negative,l,l,1,1.332408100000066,503.16051460000017,504.18210439999984,504.14228209999965,None,503.16051460000017,None,503.16051460000017,None,503.16051460000017,None,505.4720143499996,None,505.4720143499996,None,505.4720143499996,None,,,,,,,,,,,217,24,Male,2022-05-17_14h14.25.046,Main,2022.1.1,59.97972685255231,
neutral,neutral,1,k,k,,,,,,,,,10,14,194,1,,,,,,,,,,,,,,,,,,,,,,,,main,1,1,1,neutral,neutral,k,k,1,0.7085681999997178,505.49461900000006,506.5092063000002,506.48921960000007,None,505.49461900000006,None,505.49461900000006,None,505.49461900000006,None,507.1862815499996,None,507.1862815499996,None,507.1862815499996,None,,,,,,,,,,,217,24,Male,2022-05-17_14h14.25.046,Main,2022.1.1,59.97972685255231,
neutral,positive,1,k,k,,,,,,,,,10,15,195,4,,,,,,,,,,,,,,,,,,,,,,,,main,2,2,1,positive,neutral,k,k,1,0.9238926999996693,507.2077515000001,508.21012729999984,508.19032439999955,None,507.2077515000001,None,507.2077515000001,None,507.2077515000001,None,509.11036394999945,None,509.11036394999945,None,509.11036394999945,None,,,,,,,,,,,217,24,Male,2022-05-17_14h14.25.046,Main,2022.1.1,59.97972685255231,
positive,positive,1,l,j,,,,,,,,,10,16,196,2,,,,,,,,,,,,,,,,,,,,,,,,main,1,1,1,positive,positive,j,j,1,1.0345655000000988,509.1364649999996,510.14658359999976,510.1274002,None,509.1364649999996,None,509.1364649999996,None,509.1364649999996,None,511.1504607499998,None,511.1504607499998,None,511.1504607499998,None,,,,,,,,,,,217,24,Male,2022-05-17_14h14.25.046,Main,2022.1.1,59.97972685255231,
positive,neutral,1,l,j,,,,,,,,,10,17,197,8,,,,,,,,,,,,,,,,,,,,,,,,main,2,2,1,neutral,positive,j,j,1,1.843158399999993,511.1728992999997,512.1779168000003,512.1586496,None,511.1728992999997,None,511.1728992999997,None,511.1728992999997,None,514.0017842999996,None,514.0017842999996,None,514.0017842999996,None,,,,,,,,,,,217,24,Male,2022-05-17_14h14.25.046,Main,2022.1.1,59.97972685255231,
negative,positive,2,j,l,,,,,,,,,11,0,198,15,,,,,,,,,,,,,,,,,,,,,,,,main,2,2,2,positive,negative,l,l,1,0.9006910999996762,515.0137342999997,516.0315560999998,516.0103828000001,None,515.0137342999997,None,515.0137342999997,None,515.0137342999997,None,516.89189315,None,516.89189315,None,516.89189315,None,,,,,,,,,,,217,24,Male,2022-05-17_14h14.25.046,Main,2022.1.1,59.97972685255231,
positive,positive,1,l,j,,,,,,,,,11,1,199,2,,,,,,,,,,,,,,,,,,,,,,,,main,1,1,1,positive,positive,j,j,1,0.9910907000003135,516.9179225999997,517.9247754999997,517.9051176000003,None,516.9179225999997,None,516.9179225999997,None,516.9179225999997,None,518.88771815,None,518.88771815,None,518.88771815,None,,,,,,,,,,,217,24,Male,2022-05-17_14h14.25.046,Main,2022.1.1,59.97972685255231,
neutral,negative,1,k,k,,,,,,,,,11,2,200,7,,,,,,,,,,,,,,,,,,,,,,,,main,1,1,1,negative,neutral,k,k,1,0.7858415000000605,518.9088655999994,519.9135948000003,519.8940328999997,None,518.9088655999994,None,518.9088655999994,None,518.9088655999994,None,520.6757790500003,None,520.6757790500003,None,520.6757790500003,None,,,,,,,,,,,217,24,Male,2022-05-17_14h14.25.046,Main,2022.1.1,59.97972685255231,
negative,neutral,2,j,l,,,,,,,,,11,3,201,12,,,,,,,,,,,,,,,,,,,,,,,,main,2,2,2,neutral,negative,l,l,1,0.8162525999996433,520.6971595999994,521.7185629999994,521.6767226000002,None,520.6971595999994,None,520.6971595999994,None,520.6971595999994,None,522.4970736499997,None,522.4970736499997,None,522.4970736499997,None,,,,,,,,,,,217,24,Male,2022-05-17_14h14.25.046,Main,2022.1.1,59.97972685255231,
neutral,positive,2,k,k,,,,,,,,,11,4,202,13,,,,,,,,,,,,,,,,,,,,,,,,main,2,2,2,positive,neutral,k,k,1,0.8465970000006564,522.5182027000001,523.5427295999998,523.5004871000001,None,522.5182027000001,None,522.5182027000001,None,522.5182027000001,None,524.3460994499999,None,524.3460994499999,None,524.3460994499999,None,,,,,,,,,,,217,24,Male,2022-05-17_14h14.25.046,Main,2022.1.1,59.97972685255231,
neutral,neutral,1,k,k,,,,,,,,,11,5,203,1,,,,,,,,,,,,,,,,,,,,,,,,main,2,2,1,neutral,neutral,k,k,1,0.7460424999999304,524.3678017000002,525.3775993999998,525.3580807999997,None,524.3678017000002,None,524.3678017000002,None,524.3678017000002,None,526.0945095499999,None,526.0945095499999,None,526.0945095499999,None,,,,,,,,,,,217,24,Male,2022-05-17_14h14.25.046,Main,2022.1.1,59.97972685255231,
negative,negative,2,j,l,,,,,,,,,11,6,204,9,,,,,,,,,,,,,,,,,,,,,,,,main,1,1,2,negative,negative,l,l,1,1.1956780000000435,526.1151585999996,527.1352117999995,527.0933974999998,None,526.1151585999996,None,526.1151585999996,None,526.1151585999996,None,528.2901882499998,None,528.2901882499998,None,528.2901882499998,None,,,,,,,,,,,217,24,Male,2022-05-17_14h14.25.046,Main,2022.1.1,59.97972685255231,
neutral,negative,2,k,k,,,,,,,,,11,7,205,16,,,,,,,,,,,,,,,,,,,,,,,,main,1,1,2,negative,neutral,k,k,1,0.8110677000004216,528.3124836999996,529.3284266000001,529.2907183999996,None,528.3124836999996,None,528.3124836999996,None,528.3124836999996,None,530.1042167499998,None,530.1042167499998,None,530.1042167499998,None,,,,,,,,,,,217,24,Male,2022-05-17_14h14.25.046,Main,2022.1.1,59.97972685255231,
positive,neutral,2,l,j,,,,,,,,,11,8,206,17,,,,,,,,,,,,,,,,,,,,,,,,main,2,2,2,neutral,positive,j,j,1,0.7564886000000115,530.1280047,531.1438466,531.1037901,None,530.1280047,None,530.1280047,None,530.1280047,None,531.8664780500001,None,531.8664780500001,None,531.8664780500001,None,,,,,,,,,,,217,24,Male,2022-05-17_14h14.25.046,Main,2022.1.1,59.97972685255231,
positive,neutral,1,l,j,,,,,,,,,11,9,207,8,,,,,,,,,,,,,,,,,,,,,,,,main,2,2,1,neutral,positive,j,j,1,1.0921042999998463,531.8917731000001,532.9147772999995,532.8735695999994,None,531.8917731000001,None,531.8917731000001,None,531.8917731000001,None,533.9636617499998,None,533.9636617499998,None,533.9636617499998,None,,,,,,,,,,,217,24,Male,2022-05-17_14h14.25.046,Main,2022.1.1,59.97972685255231,
negative,negative,1,j,l,,,,,,,,,11,10,208,0,,,,,,,,,,,,,,,,,,,,,,,,main,2,2,1,negative,negative,l,l,1,1.89516999999978,533.9850498999995,534.9948173000002,534.9749542999998,None,533.9850498999995,None,533.9850498999995,None,533.9850498999995,None,536.8657787000002,None,536.8657787000002,None,536.8657787000002,None,,,,,,,,,,,217,24,Male,2022-05-17_14h14.25.046,Main,2022.1.1,59.97972685255231,
positive,negative,2,l,j,,,,,,,,,11,11,209,14,,,,,,,,,,,,,,,,,,,,,,,,main,2,2,2,negative,positive,j,j,1,1.032630199999403,537.8942258999996,538.9094143000002,538.8893888000002,None,537.8942258999996,None,537.8942258999996,None,537.8942258999996,None,539.9048029499997,None,539.9048029499997,None,539.9048029499997,None,,,,,,,,,,,217,24,Male,2022-05-17_14h14.25.046,Main,2022.1.1,59.97972685255231,
negative,neutral,1,j,l,,,,,,,,,11,12,210,3,,,,,,,,,,,,,,,,,,,,,,,,main,1,1,1,neutral,negative,l,l,1,0.8310060000003432,539.9268240000001,540.9487899999995,540.9078496000002,None,539.9268240000001,None,539.9268240000001,None,539.9268240000001,None,541.7389877499998,None,541.7389877499998,None,541.7389877499998,None,,,,,,,,,,,217,24,Male,2022-05-17_14h14.25.046,Main,2022.1.1,59.97972685255231,
