target,distractor,set,ans1,ans2,rep_loop2.thisRepN,rep_loop2.thisTrialN,rep_loop2.thisN,rep_loop2.thisIndex,flanker_prac_loop.thisRepN,flanker_prac_loop.thisTrialN,flanker_prac_loop.thisN,flanker_prac_loop.thisIndex,flanker_main_loop.thisRepN,flanker_main_loop.thisTrialN,flanker_main_loop.thisN,flanker_main_loop.thisIndex,fl_inst_resp.keys,mouse.x,mouse.y,mouse.leftButton,mouse.midButton,mouse.rightButton,mouse.started,mouse.stopped,sound_1.started,sound_1.stopped,no_text.started,no_text.stopped,yes_text.started,yes_text.stopped,mouse_2.x,mouse_2.y,mouse_2.leftButton,mouse_2.midButton,mouse_2.rightButton,mouse_2.started,mouse_2.stopped,back_2.started,back_2.stopped,main_prac,fl_cold,fl_colt,fl_set,fl_dcond,fl_tcond,fl_ans,fl_res,fl_corr,fl_rt,fix_fl.started,fix_fl.stopped,targ.started,targ.stopped,j_button.started,j_button.stopped,k_button.started,k_button.stopped,l_button.started,l_button.stopped,j_button2.started,j_button2.stopped,k_button2.started,k_button2.stopped,l_button2.started,l_button2.stopped,mainback.started,mainback.stopped,key_resp.keys,mouse_6.x,mouse_6.y,mouse_6.leftButton,mouse_6.midButton,mouse_6.rightButton,mouse_6.started,mouse_6.stopped,id*,age*,gender*,date,expName,psychopyVersion,frameRate,
,,,,,0,0,0,0,,,,,,,,,None,0.041666668,-0.37222221,0,0,0,1.0150046000071598,None,27.438826440000593,None,48.288009500000044,None,48.288009500000044,None,0.075,-0.08055556,0,0,0,0.01183723999929498,None,,,,,,,,,,,,,,,,,,,,,,,,,,,,,,,,,,,,,,,218,25,Male,2022-05-17_15h48.55.413,Main,2022.1.1,59.97159745095168,
,,,,,1,0,1,0,,,,,,,,,None,0.05277778,-0.35277778,0,0,0,0.9997030400008953,None,51.38566994000048,None,51.88586730000134,None,51.88586730000134,None,-0.083333336,-0.06944445,0,0,0,0.013270439998450456,None,,,,,,,,,,,,,,,,,,,,,,,,,,,,,,,,,,,,,,,218,25,Male,2022-05-17_15h48.55.413,Main,2022.1.1,59.97159745095168,
neutral,neutral,1,k,k,,,,,0,0,0,1,,,,,,,,,,,,,,,,,,,,,,,,,,54.41872090000106,None,prac,2,2,1,neutral,neutral,k,k,1,2.270986500001527,56.45745760000136,57.4622758000005,57.442496100000426,None,56.45745760000136,None,56.45745760000136,None,56.45745760000136,None,59.7385301000013,None,59.7385301000013,None,59.7385301000013,None,,,,,,,,,,,218,25,Male,2022-05-17_15h48.55.413,Main,2022.1.1,59.97159745095168,
positive,neutral,1,l,j,,,,,0,1,1,8,,,,,,,,,,,,,,,,,,,,,,,,,,,,prac,2,2,1,neutral,positive,l,l,1,1.1685907999999472,60.7688487000014,61.7888307000012,61.745868600000904,None,60.7688487000014,None,60.7688487000014,None,60.7688487000014,None,62.91018984000057,None,62.91018984000057,None,62.91018984000057,None,,,,,,,,,,,218,25,Male,2022-05-17_15h48.55.413,Main,2022.1.1,59.97159745095168,
neutral,positive,2,k,k,,,,,0,2,2,13,,,,,,,,,,,,,,,,,,,,,,,,,,,,prac,1,1,2,positive,neutral,k,k,1,0.828860600000553,62.94100830000025,63.96252090000053,63.94121540000015,None,62.94100830000025,None,62.94100830000025,None,62.94100830000025,None,64.74209234000064,None,64.74209234000064,None,64.74209234000064,None,,,,,,,,,,,218,25,Male,2022-05-17_15h48.55.413,Main,2022.1.1,59.97159745095168,
positive,positive,1,l,j,,,,,0,3,3,2,,,,,,,,,,,,,,,,,,,,,,,,,,,,prac,2,2,1,positive,positive,l,l,1,0.9415604999994684,64.77194899999995,65.77722520000134,65.7574106000011,None,64.77194899999995,None,64.77194899999995,None,64.77194899999995,None,66.68705934000009,None,66.68705934000009,None,66.68705934000009,None,,,,,,,,,,,218,25,Male,2022-05-17_15h48.55.413,Main,2022.1.1,59.97159745095168,
negative,positive,1,j,l,,,,,0,4,4,6,,,,,,,,,,,,,,,,,,,,,,,,,,,,prac,2,2,1,positive,negative,j,j,1,1.0742079999999987,66.71936600000117,67.72553630000039,67.70570530000077,None,66.71936600000117,None,66.71936600000117,None,66.71936600000117,None,68.7667574400004,None,68.7667574400004,None,68.7667574400004,None,,,,,,,,,,,218,25,Male,2022-05-17_15h48.55.413,Main,2022.1.1,59.97159745095168,
negative,negative,1,j,l,,,,,0,5,5,0,,,,,,,,,,,,,,,,,,,,,,,,,,,,prac,2,2,1,negative,negative,j,l,0,0.6094072999985656,68.7929675000014,69.80118220000077,69.78019529999983,None,68.7929675000014,None,68.7929675000014,None,68.7929675000014,None,70.3887805000013,None,70.3887805000013,None,70.3887805000013,None,,,,,,,,,,,218,25,Male,2022-05-17_15h48.55.413,Main,2022.1.1,59.97159745095168,
positive,neutral,2,l,j,,,,,0,6,6,17,,,,,,,,,,,,,,,,,,,,,,,,,,,,prac,2,2,2,neutral,positive,l,l,1,1.0363206999991235,71.42099870000129,72.42519880000145,72.40525359999992,None,71.42099870000129,None,71.42099870000129,None,71.42099870000129,None,73.42764654000003,None,73.42764654000003,None,73.42764654000003,None,,,,,,,,,,,218,25,Male,2022-05-17_15h48.55.413,Main,2022.1.1,59.97159745095168,
negative,positive,2,j,l,,,,,0,7,7,15,,,,,,,,,,,,,,,,,,,,,,,,,,,,prac,2,2,2,positive,negative,j,j,1,1.2649311999994097,73.45798780000041,74.46705120000115,74.44582400000036,None,73.45798780000041,None,73.45798780000041,None,73.45798780000041,None,75.69287764000019,None,75.69287764000019,None,75.69287764000019,None,,,,,,,,,,,218,25,Male,2022-05-17_15h48.55.413,Main,2022.1.1,59.97159745095168,
positive,negative,2,l,j,,,,,0,8,8,14,,,,,,,,,,,,,,,,,,,,,,,,,,,,prac,2,2,2,negative,positive,l,l,1,0.843420100000003,75.72238110000035,76.74033659999986,76.72084630000063,None,75.72238110000035,None,75.72238110000035,None,75.72238110000035,None,77.53989074000147,None,77.53989074000147,None,77.53989074000147,None,,,,,,,,,,,218,25,Male,2022-05-17_15h48.55.413,Main,2022.1.1,59.97159745095168,
positive,positive,2,l,j,,,,,0,9,9,11,,,,,,,,,,,,,,,,,,,,,,,,,,,,prac,1,1,2,positive,positive,l,l,1,0.8957590999998502,77.56169100000079,78.57660820000092,78.53745549999985,None,77.56169100000079,None,77.56169100000079,None,77.56169100000079,None,79.43737324000013,None,79.43737324000013,None,79.43737324000013,None,,,,,,,,,,,218,25,Male,2022-05-17_15h48.55.413,Main,2022.1.1,59.97159745095168,
neutral,negative,1,k,k,,,,,0,10,10,7,,,,,,,,,,,,,,,,,,,,,,,,,,,,prac,2,2,1,negative,neutral,k,j,0,0.9315059000000474,79.45893969999997,80.46522030000051,80.44507900000099,None,79.45893969999997,None,79.45893969999997,None,79.45893969999997,None,81.38147500000014,None,81.38147500000014,None,81.38147500000014,None,,,,,,,,,,,218,25,Male,2022-05-17_15h48.55.413,Main,2022.1.1,59.97159745095168,
negative,negative,2,j,l,,,,,0,11,11,9,,,,,,,,,,,,,,,,,,,,,,,,,,,,prac,2,2,2,negative,negative,j,l,0,0.8859480999999505,82.39971700000024,83.41586600000119,83.39184690000002,None,82.39971700000024,None,82.39971700000024,None,82.39971700000024,None,84.26424120000047,None,84.26424120000047,None,84.26424120000047,None,,,,,,,,,,,218,25,Male,2022-05-17_15h48.55.413,Main,2022.1.1,59.97159745095168,
neutral,positive,1,k,k,,,,,0,12,12,4,,,,,,,,,,,,,,,,,,,,,,,,,,,,prac,2,2,1,positive,neutral,k,l,0,1.1298525000001973,85.2774524000015,86.28368070000033,86.2598151000002,None,85.2774524000015,None,85.2774524000015,None,85.2774524000015,None,87.3896550999998,None,87.3896550999998,None,87.3896550999998,None,,,,,,,,,,,218,25,Male,2022-05-17_15h48.55.413,Main,2022.1.1,59.97159745095168,
neutral,negative,2,k,k,,,,,0,13,13,16,,,,,,,,,,,,,,,,,,,,,,,,,,,,prac,2,2,2,negative,neutral,k,k,1,0.9543477000006533,88.4088197000001,89.42425280000134,89.40504510000028,None,88.4088197000001,None,88.4088197000001,None,88.4088197000001,None,90.3453349400008,None,90.3453349400008,None,90.3453349400008,None,,,,,,,,,,,218,25,Male,2022-05-17_15h48.55.413,Main,2022.1.1,59.97159745095168,
positive,negative,1,l,j,,,,,0,14,14,5,,,,,,,,,,,,,,,,,,,,,,,,,,,,prac,1,1,1,negative,positive,l,l,1,0.8885852000003069,90.37454870000147,91.39348940000127,91.35449300000073,None,90.37454870000147,None,90.37454870000147,None,90.37454870000147,None,92.2344960400007,None,92.2344960400007,None,92.2344960400007,None,,,,,,,,,,,218,25,Male,2022-05-17_15h48.55.413,Main,2022.1.1,59.97159745095168,
negative,neutral,1,j,l,,,,,0,15,15,3,,,,,,,,,,,,,,,,,,,,,,,,,,,,prac,2,2,1,neutral,negative,j,j,1,1.101222000001144,92.25597320000088,93.27138210000157,93.25158320000082,None,92.25597320000088,None,92.25597320000088,None,92.25597320000088,None,94.35481238000139,None,94.35481238000139,None,94.35481238000139,None,,,,,,,,,,,218,25,Male,2022-05-17_15h48.55.413,Main,2022.1.1,59.97159745095168,
negative,neutral,2,j,l,,,,,0,16,16,12,,,,,,,,,,,,,,,,,,,,,,,,,,,,prac,1,1,2,neutral,negative,j,j,1,0.9912473000003956,94.36769780000031,95.38212630000089,95.35864480000055,None,94.36769780000031,None,94.36769780000031,None,94.36769780000031,None,96.33777754000057,None,96.33777754000057,None,96.33777754000057,None,,,,,,,,,,,218,25,Male,2022-05-17_15h48.55.413,Main,2022.1.1,59.97159745095168,
neutral,neutral,2,k,k,,,,,0,17,17,10,,,,,,,,,,,,,,,,,,,,,,,,,,,,prac,1,1,2,neutral,neutral,k,k,1,0.7622747999994317,96.36431660000017,97.37489780000033,97.3553324000004,None,96.36431660000017,None,96.36431660000017,None,96.36431660000017,None,98.1037803400015,None,98.1037803400015,None,98.1037803400015,None,,,,,,,,,,,218,25,Male,2022-05-17_15h48.55.413,Main,2022.1.1,59.97159745095168,
neutral,neutral,1,k,k,,,,,1,0,18,1,,,,,,,,,,,,,,,,,,,,,,,,,,,,prac,2,2,1,neutral,neutral,k,j,0,0.831144800000402,98.1268713999998,99.14646350000112,99.10612930000025,None,98.1268713999998,None,98.1268713999998,None,98.1268713999998,None,99.9487721000005,None,99.9487721000005,None,99.9487721000005,None,,,,,,,,,,,218,25,Male,2022-05-17_15h48.55.413,Main,2022.1.1,59.97159745095168,
negative,positive,1,j,l,,,,,1,1,19,6,,,,,,,,,,,,,,,,,,,,,,,,,,,,prac,2,2,1,positive,negative,j,j,1,0.8696596999998292,100.97488669999984,101.98103220000121,101.95968750000065,None,100.97488669999984,None,100.97488669999984,None,100.97488669999984,None,102.8253955400016,None,102.8253955400016,None,102.8253955400016,None,,,,,,,,,,,218,25,Male,2022-05-17_15h48.55.413,Main,2022.1.1,59.97159745095168,
positive,negative,1,l,j,,,,,1,2,20,5,,,,,,,,,,,,,,,,,,,,,,,,,,,,prac,2,2,1,negative,positive,l,l,1,0.942162900000767,102.8460638000015,103.8497554000005,103.82888840000123,None,102.8460638000015,None,102.8460638000015,None,102.8460638000015,None,104.76730764000077,None,104.76730764000077,None,104.76730764000077,None,,,,,,,,,,,218,25,Male,2022-05-17_15h48.55.413,Main,2022.1.1,59.97159745095168,
positive,positive,1,l,j,,,,,1,3,21,2,,,,,,,,,,,,,,,,,,,,,,,,,,,,prac,1,1,1,positive,positive,l,l,1,1.0141243999987637,104.79983560000073,105.8033034,105.7833853000011,None,104.79983560000073,None,104.79983560000073,None,104.79983560000073,None,106.78378014000027,None,106.78378014000027,None,106.78378014000027,None,,,,,,,,,,,218,25,Male,2022-05-17_15h48.55.413,Main,2022.1.1,59.97159745095168,
neutral,neutral,2,k,k,,,,,1,4,22,10,,,,,,,,,,,,,,,,,,,,,,,,,,,,prac,2,2,2,neutral,neutral,k,k,1,0.7477550000003248,106.80638950000139,107.81382410000151,107.79276610000124,None,106.80638950000139,None,106.80638950000139,None,106.80638950000139,None,108.53370694000132,None,108.53370694000132,None,108.53370694000132,None,,,,,,,,,,,218,25,Male,2022-05-17_15h48.55.413,Main,2022.1.1,59.97159745095168,
negative,positive,2,j,l,,,,,1,5,23,15,,,,,,,,,,,,,,,,,,,,,,,,,,,,prac,2,2,2,positive,negative,j,j,1,0.8034802000001946,108.55612090000068,109.55834030000005,109.53879000000052,None,108.55612090000068,None,108.55612090000068,None,108.55612090000068,None,110.34208874000088,None,110.34208874000088,None,110.34208874000088,None,,,,,,,,,,,218,25,Male,2022-05-17_15h48.55.413,Main,2022.1.1,59.97159745095168,
positive,neutral,2,l,j,,,,,1,6,24,17,,,,,,,,,,,,,,,,,,,,,,,,,,,,prac,1,1,2,neutral,positive,l,l,1,1.4597968999987643,110.36605460000101,111.3737340000007,111.35387129999981,None,110.36605460000101,None,110.36605460000101,None,110.36605460000101,None,112.8014956400004,None,112.8014956400004,None,112.8014956400004,None,,,,,,,,,,,218,25,Male,2022-05-17_15h48.55.413,Main,2022.1.1,59.97159745095168,
neutral,negative,1,k,k,,,,,1,7,25,7,,,,,,,,,,,,,,,,,,,,,,,,,,,,prac,2,2,1,negative,neutral,k,k,1,0.895427400000699,112.82613769999989,113.83704690000013,113.81672419999995,None,112.82613769999989,None,112.82613769999989,None,112.82613769999989,None,114.69897234000037,None,114.69897234000037,None,114.69897234000037,None,,,,,,,,,,,218,25,Male,2022-05-17_15h48.55.413,Main,2022.1.1,59.97159745095168,
negative,neutral,1,j,l,,,,,1,8,26,3,,,,,,,,,,,,,,,,,,,,,,,,,,,,prac,2,2,1,neutral,negative,j,j,1,1.0006742999994458,114.72190279999995,115.73306220000086,115.7117417999998,None,114.72190279999995,None,114.72190279999995,None,114.72190279999995,None,116.70180194000041,None,116.70180194000041,None,116.70180194000041,None,,,,,,,,,,,218,25,Male,2022-05-17_15h48.55.413,Main,2022.1.1,59.97159745095168,
neutral,positive,2,k,k,,,,,1,9,27,13,,,,,,,,,,,,,,,,,,,,,,,,,,,,prac,2,2,2,positive,neutral,k,k,1,0.8039450999986002,116.72365720000016,117.72888890000104,117.7063648000003,None,116.72365720000016,None,116.72365720000016,None,116.72365720000016,None,118.5104944400011,None,118.5104944400011,None,118.5104944400011,None,,,,,,,,,,,218,25,Male,2022-05-17_15h48.55.413,Main,2022.1.1,59.97159745095168,
negative,negative,2,j,l,,,,,1,10,28,9,,,,,,,,,,,,,,,,,,,,,,,,,,,,prac,2,2,2,negative,negative,j,j,1,1.341806299999007,118.53108539999994,119.54948909999985,119.5061284000003,None,118.53108539999994,None,118.53108539999994,None,118.53108539999994,None,120.85224664000107,None,120.85224664000107,None,120.85224664000107,None,,,,,,,,,,,218,25,Male,2022-05-17_15h48.55.413,Main,2022.1.1,59.97159745095168,
negative,neutral,2,j,l,,,,,1,11,29,12,,,,,,,,,,,,,,,,,,,,,,,,,,,,prac,2,2,2,neutral,negative,j,j,1,1.3492009000001417,120.87326500000017,121.8940762000002,121.85346500000014,None,120.87326500000017,None,120.87326500000017,None,120.87326500000017,None,123.20315544000023,None,123.20315544000023,None,123.20315544000023,None,,,,,,,,,,,218,25,Male,2022-05-17_15h48.55.413,Main,2022.1.1,59.97159745095168,
neutral,positive,1,k,k,,,,,1,12,30,4,,,,,,,,,,,,,,,,,,,,,,,,,,,,prac,1,1,1,positive,neutral,k,k,1,1.3992493999994622,123.23419410000133,124.2378392999999,124.2183780000014,None,123.23419410000133,None,123.23419410000133,None,123.23419410000133,None,125.6067470400014,None,125.6067470400014,None,125.6067470400014,None,,,,,,,,,,,218,25,Male,2022-05-17_15h48.55.413,Main,2022.1.1,59.97159745095168,
negative,negative,1,j,l,,,,,1,13,31,0,,,,,,,,,,,,,,,,,,,,,,,,,,,,prac,1,1,1,negative,negative,j,j,1,1.3616283999999723,125.6278755000003,126.63565480000034,126.61583080000128,None,125.6278755000003,None,125.6278755000003,None,125.6278755000003,None,127.96879564000137,None,127.96879564000137,None,127.96879564000137,None,,,,,,,,,,,218,25,Male,2022-05-17_15h48.55.413,Main,2022.1.1,59.97159745095168,
positive,negative,2,l,j,,,,,1,14,32,14,,,,,,,,,,,,,,,,,,,,,,,,,,,,prac,1,1,2,negative,positive,l,l,1,1.4006010000011884,127.99588220000078,129.01802450000105,128.97683280000092,None,127.99588220000078,None,127.99588220000078,None,127.99588220000078,None,130.3740472400006,None,130.3740472400006,None,130.3740472400006,None,,,,,,,,,,,218,25,Male,2022-05-17_15h48.55.413,Main,2022.1.1,59.97159745095168,
neutral,negative,2,k,k,,,,,1,15,33,16,,,,,,,,,,,,,,,,,,,,,,,,,,,,prac,2,2,2,negative,neutral,k,k,1,1.1478367999989132,130.39713389999997,131.41738110000006,131.37730470000133,None,130.39713389999997,None,130.39713389999997,None,130.39713389999997,None,132.52406544000058,None,132.52406544000058,None,132.52406544000058,None,,,,,,,,,,,218,25,Male,2022-05-17_15h48.55.413,Main,2022.1.1,59.97159745095168,
positive,neutral,1,l,j,,,,,1,16,34,8,,,,,,,,,,,,,,,,,,,,,,,,,,,,prac,1,1,1,neutral,positive,l,l,1,1.9384762999998202,132.55318890000126,133.57116940000014,133.55178570000135,None,132.55318890000126,None,132.55318890000126,None,132.55318890000126,None,135.47023919999992,None,135.47023919999992,None,135.47023919999992,None,,,,,,,,,,,218,25,Male,2022-05-17_15h48.55.413,Main,2022.1.1,59.97159745095168,
positive,positive,2,l,j,,,,,1,17,35,11,,,,,,,,,,,,,,,,,,,,,,,,,,,,prac,2,2,2,positive,positive,l,l,1,1.057306200000312,136.48821450000105,137.4968837000015,137.47568120000142,None,136.48821450000105,None,136.48821450000105,None,136.48821450000105,None,138.52465434000095,None,138.52465434000095,None,138.52465434000095,None,,,,,,,,,,,218,25,Male,2022-05-17_15h48.55.413,Main,2022.1.1,59.97159745095168,
,,,,,,,,,,,,,,,,,,,,,,,,,,,,,,,,,,,,,,,,,,,,,,,,,,,,,,,,,,,,,,,,,,138.53255080000054,None,None,,,,,,,,218,25,Male,2022-05-17_15h48.55.413,Main,2022.1.1,59.97159745095168,
,,,,,,,,,,,,,,,,,,,,,,,,,,,,,,,,,,,,,,,,,,,,,,,,,,,,,,,,,,,,,,,,,,,,,-0.05740741,0.027777778,1,0,0,0.005645740000545629,None,218,25,Male,2022-05-17_15h48.55.413,Main,2022.1.1,59.97159745095168,
neutral,neutral,1,k,k,,,,,,,,,0,0,0,1,,,,,,,,,,,,,,,,,,,,,,150.4232576000013,None,main,1,1,1,neutral,neutral,k,k,1,0.9592344999982743,152.44729189999998,153.46632290000161,153.4269000000004,None,152.44729189999998,None,152.44729189999998,None,152.44729189999998,None,154.38397134000132,None,154.38397134000132,None,154.38397134000132,None,,,,,,,,,,,218,25,Male,2022-05-17_15h48.55.413,Main,2022.1.1,59.97159745095168,
negative,neutral,1,j,l,,,,,,,,,0,1,1,3,,,,,,,,,,,,,,,,,,,,,,,,main,2,2,1,neutral,negative,j,j,1,0.8781878999998298,154.41008060000058,155.42830540000068,155.38552049999998,None,154.41008060000058,None,154.41008060000058,None,154.41008060000058,None,156.26451534000097,None,156.26451534000097,None,156.26451534000097,None,,,,,,,,,,,218,25,Male,2022-05-17_15h48.55.413,Main,2022.1.1,59.97159745095168,
neutral,positive,1,k,k,,,,,,,,,0,2,2,4,,,,,,,,,,,,,,,,,,,,,,,,main,1,1,1,positive,neutral,k,k,1,0.8149114000007103,156.29013900000064,157.307780000001,157.2666588000011,None,156.29013900000064,None,156.29013900000064,None,156.29013900000064,None,158.08380464000055,None,158.08380464000055,None,158.08380464000055,None,,,,,,,,,,,218,25,Male,2022-05-17_15h48.55.413,Main,2022.1.1,59.97159745095168,
neutral,negative,1,k,k,,,,,,,,,0,3,3,7,,,,,,,,,,,,,,,,,,,,,,,,main,2,2,1,negative,neutral,k,k,1,0.8208043999984511,158.1058989000012,159.12683470000047,159.0840420000004,None,158.1058989000012,None,158.1058989000012,None,158.1058989000012,None,159.90649184000011,None,159.90649184000011,None,159.90649184000011,None,,,,,,,,,,,218,25,Male,2022-05-17_15h48.55.413,Main,2022.1.1,59.97159745095168,
neutral,positive,2,k,k,,,,,,,,,0,4,4,13,,,,,,,,,,,,,,,,,,,,,,,,main,2,2,2,positive,neutral,k,k,1,0.9080424999992829,159.93009370000073,160.93873359999998,160.91763230000106,None,159.93009370000073,None,159.93009370000073,None,159.93009370000073,None,161.8214406400004,None,161.8214406400004,None,161.8214406400004,None,,,,,,,,,,,218,25,Male,2022-05-17_15h48.55.413,Main,2022.1.1,59.97159745095168,
positive,positive,2,l,j,,,,,,,,,0,5,5,11,,,,,,,,,,,,,,,,,,,,,,,,main,1,1,2,positive,positive,l,l,1,0.8453833000003215,161.84312769999997,162.8492427000001,162.8295962000011,None,161.84312769999997,None,161.84312769999997,None,161.84312769999997,None,163.66929704000012,None,163.66929704000012,None,163.66929704000012,None,,,,,,,,,,,218,25,Male,2022-05-17_15h48.55.413,Main,2022.1.1,59.97159745095168,
negative,negative,2,j,l,,,,,,,,,0,6,6,9,,,,,,,,,,,,,,,,,,,,,,,,main,1,1,2,negative,negative,j,j,1,0.9102182999995421,163.69076550000136,164.71055970000089,164.66820000000007,None,163.69076550000136,None,163.69076550000136,None,163.69076550000136,None,165.5796473400007,None,165.5796473400007,None,165.5796473400007,None,,,,,,,,,,,218,25,Male,2022-05-17_15h48.55.413,Main,2022.1.1,59.97159745095168,
positive,negative,1,l,j,,,,,,,,,0,7,7,5,,,,,,,,,,,,,,,,,,,,,,,,main,2,2,1,negative,positive,l,l,1,0.887261200001376,165.6060148000015,166.62684770000124,166.58396520000133,None,165.6060148000015,None,165.6060148000015,None,165.6060148000015,None,167.47298404000156,None,167.47298404000156,None,167.47298404000156,None,,,,,,,,,,,218,25,Male,2022-05-17_15h48.55.413,Main,2022.1.1,59.97159745095168,
negative,positive,1,j,l,,,,,,,,,0,8,8,6,,,,,,,,,,,,,,,,,,,,,,,,main,2,2,1,positive,negative,j,j,1,0.8065192999983992,167.49525540000104,168.50015410000015,168.48063290000027,None,167.49525540000104,None,167.49525540000104,None,167.49525540000104,None,169.2847473399999,None,169.2847473399999,None,169.2847473399999,None,,,,,,,,,,,218,25,Male,2022-05-17_15h48.55.413,Main,2022.1.1,59.97159745095168,
positive,negative,2,l,j,,,,,,,,,0,9,9,14,,,,,,,,,,,,,,,,,,,,,,,,main,2,2,2,negative,positive,l,l,1,0.7804255000010016,169.3056591000004,170.30956490000062,170.2886133000011,None,169.3056591000004,None,169.3056591000004,None,169.3056591000004,None,171.06767314000007,None,171.06767314000007,None,171.06767314000007,None,,,,,,,,,,,218,25,Male,2022-05-17_15h48.55.413,Main,2022.1.1,59.97159745095168,
positive,neutral,1,l,j,,,,,,,,,0,10,10,8,,,,,,,,,,,,,,,,,,,,,,,,main,1,1,1,neutral,positive,l,l,1,0.8775787000013224,171.08958880000137,172.09473380000054,172.0753519000009,None,171.08958880000137,None,171.08958880000137,None,171.08958880000137,None,172.94564774000008,None,172.94564774000008,None,172.94564774000008,None,,,,,,,,,,,218,25,Male,2022-05-17_15h48.55.413,Main,2022.1.1,59.97159745095168,
positive,neutral,2,l,j,,,,,,,,,0,11,11,17,,,,,,,,,,,,,,,,,,,,,,,,main,1,1,2,neutral,positive,l,l,1,0.847005600000557,172.9670968999999,173.97869340000034,173.95773440000085,None,172.9670968999999,None,172.9670968999999,None,172.9670968999999,None,174.79481264000077,None,174.79481264000077,None,174.79481264000077,None,,,,,,,,,,,218,25,Male,2022-05-17_15h48.55.413,Main,2022.1.1,59.97159745095168,
neutral,neutral,2,k,k,,,,,,,,,0,12,12,10,,,,,,,,,,,,,,,,,,,,,,,,main,1,1,2,neutral,neutral,k,k,1,0.6973531999992701,174.81645650000064,175.84106580000116,175.79832990000068,None,174.81645650000064,None,174.81645650000064,None,174.81645650000064,None,176.49468054000153,None,176.49468054000153,None,176.49468054000153,None,,,,,,,,,,,218,25,Male,2022-05-17_15h48.55.413,Main,2022.1.1,59.97159745095168,
negative,neutral,2,j,l,,,,,,,,,0,13,13,12,,,,,,,,,,,,,,,,,,,,,,,,main,1,1,2,neutral,negative,j,j,1,0.8892685000009806,176.51643460000014,177.5363647000013,177.4961542000001,None,176.51643460000014,None,176.51643460000014,None,176.51643460000014,None,178.38918334000135,None,178.38918334000135,None,178.38918334000135,None,,,,,,,,,,,218,25,Male,2022-05-17_15h48.55.413,Main,2022.1.1,59.97159745095168,
positive,positive,1,l,j,,,,,,,,,0,14,14,2,,,,,,,,,,,,,,,,,,,,,,,,main,2,2,1,positive,positive,l,l,1,0.8770666000000347,178.41142610000134,179.4301262000008,179.3903175000014,None,178.41142610000134,None,178.41142610000134,None,178.41142610000134,None,180.27027524000022,None,180.27027524000022,None,180.27027524000022,None,,,,,,,,,,,218,25,Male,2022-05-17_15h48.55.413,Main,2022.1.1,59.97159745095168,
negative,positive,2,j,l,,,,,,,,,0,15,15,15,,,,,,,,,,,,,,,,,,,,,,,,main,2,2,2,positive,negative,j,j,1,0.9245001999988745,180.29306330000145,181.29560630000014,181.27563569999984,None,180.29306330000145,None,180.29306330000145,None,180.29306330000145,None,182.2003036400003,None,182.2003036400003,None,182.2003036400003,None,,,,,,,,,,,218,25,Male,2022-05-17_15h48.55.413,Main,2022.1.1,59.97159745095168,
neutral,negative,2,k,k,,,,,,,,,0,16,16,16,,,,,,,,,,,,,,,,,,,,,,,,main,1,1,2,negative,neutral,k,k,1,1.0279471000012563,182.2211657000007,183.2288607999999,183.20947160000105,None,182.2211657000007,None,182.2211657000007,None,182.2211657000007,None,184.2280998400003,None,184.2280998400003,None,184.2280998400003,None,,,,,,,,,,,218,25,Male,2022-05-17_15h48.55.413,Main,2022.1.1,59.97159745095168,
negative,negative,1,j,l,,,,,,,,,0,17,17,0,,,,,,,,,,,,,,,,,,,,,,,,main,2,2,1,negative,negative,j,j,1,0.874128199999177,184.25394870000127,185.2611947000005,185.24213650000092,None,184.25394870000127,None,184.25394870000127,None,184.25394870000127,None,186.10556964000006,None,186.10556964000006,None,186.10556964000006,None,,,,,,,,,,,218,25,Male,2022-05-17_15h48.55.413,Main,2022.1.1,59.97159745095168,
negative,negative,2,j,l,,,,,,,,,1,0,18,9,,,,,,,,,,,,,,,,,,,,,,,,main,1,1,2,negative,negative,j,j,1,0.9691416999994544,186.1292994000014,187.1404051999998,187.1175770000009,None,186.1292994000014,None,186.1292994000014,None,186.1292994000014,None,188.0759043400014,None,188.0759043400014,None,188.0759043400014,None,,,,,,,,,,,218,25,Male,2022-05-17_15h48.55.413,Main,2022.1.1,59.97159745095168,
neutral,positive,2,k,k,,,,,,,,,1,1,19,13,,,,,,,,,,,,,,,,,,,,,,,,main,1,1,2,positive,neutral,k,k,1,0.8826581000012084,188.09965310000007,189.12393430000157,189.08103720000145,None,188.09965310000007,None,188.09965310000007,None,188.09965310000007,None,189.96526894000107,None,189.96526894000107,None,189.96526894000107,None,,,,,,,,,,,218,25,Male,2022-05-17_15h48.55.413,Main,2022.1.1,59.97159745095168,
negative,positive,2,j,l,,,,,,,,,1,2,20,15,,,,,,,,,,,,,,,,,,,,,,,,main,2,2,2,positive,negative,j,j,1,0.80275679999977,189.98679190000075,190.9952624000016,190.97479960000055,None,189.98679190000075,None,189.98679190000075,None,189.98679190000075,None,191.77088424000084,None,191.77088424000084,None,191.77088424000084,None,,,,,,,,,,,218,25,Male,2022-05-17_15h48.55.413,Main,2022.1.1,59.97159745095168,
positive,neutral,1,l,j,,,,,,,,,1,3,21,8,,,,,,,,,,,,,,,,,,,,,,,,main,1,1,1,neutral,positive,l,l,1,0.770228399998814,191.79224140000042,192.80776640000113,192.76756470000146,None,191.79224140000042,None,191.79224140000042,None,191.79224140000042,None,193.5428138400004,None,193.5428138400004,None,193.5428138400004,None,,,,,,,,,,,218,25,Male,2022-05-17_15h48.55.413,Main,2022.1.1,59.97159745095168,
negative,neutral,2,j,l,,,,,,,,,1,4,22,12,,,,,,,,,,,,,,,,,,,,,,,,main,1,1,2,neutral,negative,j,j,1,0.799306400000205,193.56476770000154,194.57427690000077,194.5547630000001,None,193.56476770000154,None,193.56476770000154,None,193.56476770000154,None,195.3477080400009,None,195.3477080400009,None,195.3477080400009,None,,,,,,,,,,,218,25,Male,2022-05-17_15h48.55.413,Main,2022.1.1,59.97159745095168,
neutral,negative,1,k,k,,,,,,,,,1,5,23,7,,,,,,,,,,,,,,,,,,,,,,,,main,1,1,1,negative,neutral,k,k,1,0.7874603000000207,195.36834670000098,196.37750039999992,196.3576109000005,None,195.36834670000098,None,195.36834670000098,None,195.36834670000098,None,197.13678174000069,None,197.13678174000069,None,197.13678174000069,None,,,,,,,,,,,218,25,Male,2022-05-17_15h48.55.413,Main,2022.1.1,59.97159745095168,
neutral,negative,2,k,k,,,,,,,,,1,6,24,16,,,,,,,,,,,,,,,,,,,,,,,,main,2,2,2,negative,neutral,k,k,1,0.9003480999999738,197.15816710000036,198.162753300001,198.1423143000011,None,197.15816710000036,None,197.15816710000036,None,197.15816710000036,None,199.03993264000036,None,199.03993264000036,None,199.03993264000036,None,,,,,,,,,,,218,25,Male,2022-05-17_15h48.55.413,Main,2022.1.1,59.97159745095168,
negative,negative,1,j,l,,,,,,,,,1,7,25,0,,,,,,,,,,,,,,,,,,,,,,,,main,1,1,1,negative,negative,j,j,1,0.619661200000337,199.06195819999994,200.0855027000016,200.04318349999994,None,199.06195819999994,None,199.06195819999994,None,199.06195819999994,None,200.6632179400005,None,200.6632179400005,None,200.6632179400005,None,,,,,,,,,,,218,25,Male,2022-05-17_15h48.55.413,Main,2022.1.1,59.97159745095168,
negative,positive,1,j,l,,,,,,,,,1,8,26,6,,,,,,,,,,,,,,,,,,,,,,,,main,2,2,1,positive,negative,j,j,1,0.7438833000014711,200.68679190000148,201.69416980000096,201.67390610000075,None,200.68679190000148,None,200.68679190000148,None,200.68679190000148,None,202.41092534000035,None,202.41092534000035,None,202.41092534000035,None,,,,,,,,,,,218,25,Male,2022-05-17_15h48.55.413,Main,2022.1.1,59.97159745095168,
positive,negative,2,l,j,,,,,,,,,1,9,27,14,,,,,,,,,,,,,,,,,,,,,,,,main,1,1,2,negative,positive,l,l,1,0.844735299999229,202.43233540000074,203.4409187000001,203.42097650000142,None,202.43233540000074,None,202.43233540000074,None,202.43233540000074,None,204.25493514000135,None,204.25493514000135,None,204.25493514000135,None,,,,,,,,,,,218,25,Male,2022-05-17_15h48.55.413,Main,2022.1.1,59.97159745095168,
neutral,neutral,1,k,k,,,,,,,,,1,10,28,1,,,,,,,,,,,,,,,,,,,,,,,,main,2,2,1,neutral,neutral,k,k,1,0.6366823999996996,204.2826126,205.30482530000154,205.26254770000014,None,204.2826126,None,204.2826126,None,204.2826126,None,205.89807104000118,None,205.89807104000118,None,205.89807104000118,None,,,,,,,,,,,218,25,Male,2022-05-17_15h48.55.413,Main,2022.1.1,59.97159745095168,
neutral,positive,1,k,k,,,,,,,,,1,11,29,4,,,,,,,,,,,,,,,,,,,,,,,,main,2,2,1,positive,neutral,k,k,1,0.6157156000008399,205.91943410000022,206.94065220000084,206.89947390000088,None,205.91943410000022,None,205.91943410000022,None,205.91943410000022,None,207.51595884000034,None,207.51595884000034,None,207.51595884000034,None,,,,,,,,,,,218,25,Male,2022-05-17_15h48.55.413,Main,2022.1.1,59.97159745095168,
negative,neutral,1,j,l,,,,,,,,,1,12,30,3,,,,,,,,,,,,,,,,,,,,,,,,main,2,2,1,neutral,negative,j,j,1,0.770792999999685,207.53925230000095,208.55757840000115,208.51659740000105,None,207.53925230000095,None,207.53925230000095,None,207.53925230000095,None,209.29094174000073,None,209.29094174000073,None,209.29094174000073,None,,,,,,,,,,,218,25,Male,2022-05-17_15h48.55.413,Main,2022.1.1,59.97159745095168,
positive,negative,1,l,j,,,,,,,,,1,13,31,5,,,,,,,,,,,,,,,,,,,,,,,,main,2,2,1,negative,positive,l,l,1,0.7068085999999312,209.31411939999998,210.32068010000148,210.29904820000047,None,209.31411939999998,None,209.31411939999998,None,209.31411939999998,None,211.00192264000015,None,211.00192264000015,None,211.00192264000015,None,,,,,,,,,,,218,25,Male,2022-05-17_15h48.55.413,Main,2022.1.1,59.97159745095168,
positive,positive,1,l,j,,,,,,,,,1,14,32,2,,,,,,,,,,,,,,,,,,,,,,,,main,2,2,1,positive,positive,l,l,1,0.8075952999988658,211.02472040000066,212.0367137000012,212.0152022000002,None,211.02472040000066,None,211.02472040000066,None,211.02472040000066,None,212.81501914000017,None,212.81501914000017,None,212.81501914000017,None,,,,,,,,,,,218,25,Male,2022-05-17_15h48.55.413,Main,2022.1.1,59.97159745095168,
positive,neutral,2,l,j,,,,,,,,,1,15,33,17,,,,,,,,,,,,,,,,,,,,,,,,main,2,2,2,neutral,positive,l,l,1,0.8869969000006677,212.83452630000102,213.84213830000044,213.82250320000094,None,212.83452630000102,None,212.83452630000102,None,212.83452630000102,None,214.70065064000136,None,214.70065064000136,None,214.70065064000136,None,,,,,,,,,,,218,25,Male,2022-05-17_15h48.55.413,Main,2022.1.1,59.97159745095168,
positive,positive,2,l,j,,,,,,,,,1,16,34,11,,,,,,,,,,,,,,,,,,,,,,,,main,1,1,2,positive,positive,l,l,1,0.7570018999995227,214.72406880000017,215.74748080000063,215.7062265000004,None,214.72406880000017,None,214.72406880000017,None,214.72406880000017,None,216.4647469400008,None,216.4647469400008,None,216.4647469400008,None,,,,,,,,,,,218,25,Male,2022-05-17_15h48.55.413,Main,2022.1.1,59.97159745095168,
neutral,neutral,2,k,k,,,,,,,,,1,17,35,10,,,,,,,,,,,,,,,,,,,,,,,,main,2,2,2,neutral,neutral,k,k,1,0.8649048000006587,216.48748239999986,217.49015540000073,217.47035330000108,None,216.48748239999986,None,216.48748239999986,None,216.48748239999986,None,218.3339501400007,None,218.3339501400007,None,218.3339501400007,None,,,,,,,,,,,218,25,Male,2022-05-17_15h48.55.413,Main,2022.1.1,59.97159745095168,
neutral,positive,2,k,k,,,,,,,,,2,0,36,13,,,,,,,,,,,,,,,,,,,,,,,,main,2,2,2,positive,neutral,k,k,1,0.7445941000005405,218.35680350000075,219.36367210000026,219.34277389999988,None,218.35680350000075,None,218.35680350000075,None,218.35680350000075,None,220.082214440001,None,220.082214440001,None,220.082214440001,None,,,,,,,,,,,218,25,Male,2022-05-17_15h48.55.413,Main,2022.1.1,59.97159745095168,
positive,positive,1,l,j,,,,,,,,,2,1,37,2,,,,,,,,,,,,,,,,,,,,,,,,main,1,1,1,positive,positive,l,j,0,1.474725000000035,220.10535300000083,221.11433980000038,221.0929754000008,None,220.10535300000083,None,220.10535300000083,None,220.10535300000083,None,222.5697041000003,None,222.5697041000003,None,222.5697041000003,None,,,,,,,,,,,218,25,Male,2022-05-17_15h48.55.413,Main,2022.1.1,59.97159745095168,
neutral,negative,2,k,k,,,,,,,,,2,2,38,16,,,,,,,,,,,,,,,,,,,,,,,,main,1,1,2,negative,neutral,k,k,1,0.8688325000002806,223.5920616000003,224.6109406000014,224.57161690000066,None,223.5920616000003,None,223.5920616000003,None,223.5920616000003,None,225.4422769400009,None,225.4422769400009,None,225.4422769400009,None,,,,,,,,,,,218,25,Male,2022-05-17_15h48.55.413,Main,2022.1.1,59.97159745095168,
positive,neutral,1,l,j,,,,,,,,,2,3,39,8,,,,,,,,,,,,,,,,,,,,,,,,main,1,1,1,neutral,positive,l,l,1,1.085041700000147,225.4641188000005,226.48633700000028,226.44207129999995,None,225.4641188000005,None,225.4641188000005,None,225.4641188000005,None,227.5300241400002,None,227.5300241400002,None,227.5300241400002,None,,,,,,,,,,,218,25,Male,2022-05-17_15h48.55.413,Main,2022.1.1,59.97159745095168,
neutral,neutral,1,k,k,,,,,,,,,2,4,40,1,,,,,,,,,,,,,,,,,,,,,,,,main,2,2,1,neutral,neutral,k,k,1,0.7481360000001587,227.55114610000055,228.55823640000017,228.53824500000155,None,227.55114610000055,None,227.55114610000055,None,227.55114610000055,None,229.28101134000116,None,229.28101134000116,None,229.28101134000116,None,,,,,,,,,,,218,25,Male,2022-05-17_15h48.55.413,Main,2022.1.1,59.97159745095168,
negative,positive,2,j,l,,,,,,,,,2,5,41,15,,,,,,,,,,,,,,,,,,,,,,,,main,2,2,2,positive,negative,j,j,1,0.7027656000009301,229.30279130000054,230.30923210000037,230.28924460000053,None,229.30279130000054,None,229.30279130000054,None,229.30279130000054,None,230.9864558400006,None,230.9864558400006,None,230.9864558400006,None,,,,,,,,,,,218,25,Male,2022-05-17_15h48.55.413,Main,2022.1.1,59.97159745095168,
negative,negative,1,j,l,,,,,,,,,2,6,42,0,,,,,,,,,,,,,,,,,,,,,,,,main,2,2,1,negative,negative,j,j,1,0.9006246999997529,231.00971800000116,232.02888210000128,231.98807250000027,None,231.00971800000116,None,231.00971800000116,None,231.00971800000116,None,232.89346944000152,None,232.89346944000152,None,232.89346944000152,None,,,,,,,,,,,218,25,Male,2022-05-17_15h48.55.413,Main,2022.1.1,59.97159745095168,
neutral,negative,1,k,k,,,,,,,,,2,7,43,7,,,,,,,,,,,,,,,,,,,,,,,,main,1,1,1,negative,neutral,k,k,1,0.8277281999999104,232.91681299999982,233.92117570000119,233.90037910000137,None,232.91681299999982,None,232.91681299999982,None,232.91681299999982,None,234.7210381400002,None,234.7210381400002,None,234.7210381400002,None,,,,,,,,,,,218,25,Male,2022-05-17_15h48.55.413,Main,2022.1.1,59.97159745095168,
negative,positive,1,j,l,,,,,,,,,2,8,44,6,,,,,,,,,,,,,,,,,,,,,,,,main,2,2,1,positive,negative,j,j,1,1.1324356000004627,234.74275950000083,235.7494340000012,235.72866760000034,None,234.74275950000083,None,234.74275950000083,None,234.74275950000083,None,236.8587975400007,None,236.8587975400007,None,236.8587975400007,None,,,,,,,,,,,218,25,Male,2022-05-17_15h48.55.413,Main,2022.1.1,59.97159745095168,
positive,neutral,2,l,j,,,,,,,,,2,9,45,17,,,,,,,,,,,,,,,,,,,,,,,,main,2,2,2,neutral,positive,l,l,1,0.8837574999997742,236.8795996000008,237.90097920000153,237.85773320000044,None,236.8795996000008,None,236.8795996000008,None,236.8795996000008,None,238.7451283400007,None,238.7451283400007,None,238.7451283400007,None,,,,,,,,,,,218,25,Male,2022-05-17_15h48.55.413,Main,2022.1.1,59.97159745095168,
positive,negative,1,l,j,,,,,,,,,2,10,46,5,,,,,,,,,,,,,,,,,,,,,,,,main,2,2,1,negative,positive,l,l,1,0.888175099998989,238.7678334000011,239.77150419999998,239.7523383000007,None,238.7678334000011,None,238.7678334000011,None,238.7678334000011,None,240.63289233999984,None,240.63289233999984,None,240.63289233999984,None,,,,,,,,,,,218,25,Male,2022-05-17_15h48.55.413,Main,2022.1.1,59.97159745095168,
negative,neutral,1,j,l,,,,,,,,,2,11,47,3,,,,,,,,,,,,,,,,,,,,,,,,main,1,1,1,neutral,negative,j,j,1,1.1713349999990896,240.6536988000007,241.67300609999984,241.63375590000032,None,240.6536988000007,None,240.6536988000007,None,240.6536988000007,None,242.80973624000052,None,242.80973624000052,None,242.80973624000052,None,,,,,,,,,,,218,25,Male,2022-05-17_15h48.55.413,Main,2022.1.1,59.97159745095168,
positive,positive,2,l,j,,,,,,,,,2,12,48,11,,,,,,,,,,,,,,,,,,,,,,,,main,1,1,2,positive,positive,l,l,1,1.0326531000009709,242.83053970000037,243.83906510000088,243.8227678000003,None,242.83053970000037,None,242.83053970000037,None,242.83053970000037,None,244.84465764000032,None,244.84465764000032,None,244.84465764000032,None,,,,,,,,,,,218,25,Male,2022-05-17_15h48.55.413,Main,2022.1.1,59.97159745095168,
negative,negative,2,j,l,,,,,,,,,2,13,49,9,,,,,,,,,,,,,,,,,,,,,,,,main,1,1,2,negative,negative,j,k,0,0.7704197999992175,244.86635430000024,245.88450060000105,245.84370600000148,None,244.86635430000024,None,244.86635430000024,None,244.86635430000024,None,246.6231800000005,None,246.6231800000005,None,246.6231800000005,None,,,,,,,,,,,218,25,Male,2022-05-17_15h48.55.413,Main,2022.1.1,59.97159745095168,
positive,negative,2,l,j,,,,,,,,,2,14,50,14,,,,,,,,,,,,,,,,,,,,,,,,main,1,1,2,negative,positive,l,l,1,0.5894380999998248,247.63902060000146,248.6561451000016,248.61720890000106,None,247.63902060000146,None,247.63902060000146,None,247.63902060000146,None,249.20956594000035,None,249.20956594000035,None,249.20956594000035,None,,,,,,,,,,,218,25,Male,2022-05-17_15h48.55.413,Main,2022.1.1,59.97159745095168,
negative,neutral,2,j,l,,,,,,,,,2,15,51,12,,,,,,,,,,,,,,,,,,,,,,,,main,2,2,2,neutral,negative,j,j,1,0.9215635000000475,249.23217149999982,250.23890420000134,250.2178700000004,None,249.23217149999982,None,249.23217149999982,None,249.23217149999982,None,251.1320449400011,None,251.1320449400011,None,251.1320449400011,None,,,,,,,,,,,218,25,Male,2022-05-17_15h48.55.413,Main,2022.1.1,59.97159745095168,
neutral,neutral,2,k,k,,,,,,,,,2,16,52,10,,,,,,,,,,,,,,,,,,,,,,,,main,2,2,2,neutral,neutral,k,k,1,0.8494408999995358,251.15852090000044,252.16846040000019,252.1482031000014,None,251.15852090000044,None,251.15852090000044,None,251.15852090000044,None,252.9851691400001,None,252.9851691400001,None,252.9851691400001,None,,,,,,,,,,,218,25,Male,2022-05-17_15h48.55.413,Main,2022.1.1,59.97159745095168,
neutral,positive,1,k,k,,,,,,,,,2,17,53,4,,,,,,,,,,,,,,,,,,,,,,,,main,1,1,1,positive,neutral,k,k,1,0.9630722000001697,253.0065013000003,254.0135078000003,253.99273150000045,None,253.0065013000003,None,253.0065013000003,None,253.0065013000003,None,254.95036264000026,None,254.95036264000026,None,254.95036264000026,None,,,,,,,,,,,218,25,Male,2022-05-17_15h48.55.413,Main,2022.1.1,59.97159745095168,
negative,negative,2,j,l,,,,,,,,,3,0,54,9,,,,,,,,,,,,,,,,,,,,,,,,main,1,1,2,negative,negative,j,j,1,0.9717880999996851,254.97544689999995,255.9872929000012,255.96735790000093,None,254.97544689999995,None,254.97544689999995,None,254.97544689999995,None,256.92749404000114,None,256.92749404000114,None,256.92749404000114,None,,,,,,,,,,,218,25,Male,2022-05-17_15h48.55.413,Main,2022.1.1,59.97159745095168,
positive,negative,1,l,j,,,,,,,,,3,1,55,5,,,,,,,,,,,,,,,,,,,,,,,,main,1,1,1,negative,positive,l,l,1,0.9421296000000439,256.94885330000034,257.9515811000001,257.9325327000006,None,256.94885330000034,None,256.94885330000034,None,256.94885330000034,None,258.87441484000027,None,258.87441484000027,None,258.87441484000027,None,,,,,,,,,,,218,25,Male,2022-05-17_15h48.55.413,Main,2022.1.1,59.97159745095168,
positive,positive,1,l,j,,,,,,,,,3,2,56,2,,,,,,,,,,,,,,,,,,,,,,,,main,2,2,1,positive,positive,l,l,1,0.611111099999107,258.89523760000156,259.8993093000008,259.8794017,None,258.89523760000156,None,258.89523760000156,None,258.89523760000156,None,260.4852609400006,None,260.4852609400006,None,260.4852609400006,None,,,,,,,,,,,218,25,Male,2022-05-17_15h48.55.413,Main,2022.1.1,59.97159745095168,
positive,positive,2,l,j,,,,,,,,,3,3,57,11,,,,,,,,,,,,,,,,,,,,,,,,main,1,1,2,positive,positive,l,l,1,0.7313682999993034,260.5072713999998,261.5266872000011,261.48620780000056,None,260.5072713999998,None,260.5072713999998,None,260.5072713999998,None,262.22175283999985,None,262.22175283999985,None,262.22175283999985,None,,,,,,,,,,,218,25,Male,2022-05-17_15h48.55.413,Main,2022.1.1,59.97159745095168,
negative,positive,1,j,l,,,,,,,,,3,4,58,6,,,,,,,,,,,,,,,,,,,,,,,,main,1,1,1,positive,negative,j,j,1,0.9904802000000927,262.2436731000016,263.249313100001,263.2293829000009,None,262.2436731000016,None,262.2436731000016,None,262.2436731000016,None,264.2120815400014,None,264.2120815400014,None,264.2120815400014,None,,,,,,,,,,,218,25,Male,2022-05-17_15h48.55.413,Main,2022.1.1,59.97159745095168,
negative,negative,1,j,l,,,,,,,,,3,5,59,0,,,,,,,,,,,,,,,,,,,,,,,,main,2,2,1,negative,negative,j,j,1,0.7153994999989663,264.23427020000054,265.2501161,265.23045470000034,None,264.23427020000054,None,264.23427020000054,None,264.23427020000054,None,265.9303952400007,None,265.9303952400007,None,265.9303952400007,None,,,,,,,,,,,218,25,Male,2022-05-17_15h48.55.413,Main,2022.1.1,59.97159745095168,
neutral,negative,1,k,k,,,,,,,,,3,6,60,7,,,,,,,,,,,,,,,,,,,,,,,,main,2,2,1,negative,neutral,k,k,1,0.8826518000005308,265.95161689999986,266.9749167000009,266.9331723000014,None,265.95161689999986,None,265.95161689999986,None,265.95161689999986,None,267.81516794,None,267.81516794,None,267.81516794,None,,,,,,,,,,,218,25,Male,2022-05-17_15h48.55.413,Main,2022.1.1,59.97159745095168,
negative,neutral,2,j,l,,,,,,,,,3,7,61,12,,,,,,,,,,,,,,,,,,,,,,,,main,2,2,2,neutral,negative,j,j,1,0.8163870999997016,267.8367613999999,268.85919730000023,268.8179282000001,None,267.8367613999999,None,267.8367613999999,None,267.8367613999999,None,269.6367804399999,None,269.6367804399999,None,269.6367804399999,None,,,,,,,,,,,218,25,Male,2022-05-17_15h48.55.413,Main,2022.1.1,59.97159745095168,
positive,neutral,2,l,j,,,,,,,,,3,8,62,17,,,,,,,,,,,,,,,,,,,,,,,,main,2,2,2,neutral,positive,l,l,1,0.7792080999988684,269.65898350000134,270.66735810000137,270.64716860000044,None,269.65898350000134,None,269.65898350000134,None,269.65898350000134,None,271.4159515400008,None,271.4159515400008,None,271.4159515400008,None,,,,,,,,,,,218,25,Male,2022-05-17_15h48.55.413,Main,2022.1.1,59.97159745095168,
neutral,negative,2,k,k,,,,,,,,,3,9,63,16,,,,,,,,,,,,,,,,,,,,,,,,main,2,2,2,negative,neutral,k,k,1,0.7298867999998038,271.4372884000004,272.4567885000015,272.415702100001,None,271.4372884000004,None,271.4372884000004,None,271.4372884000004,None,273.14861193999985,None,273.14861193999985,None,273.14861193999985,None,,,,,,,,,,,218,25,Male,2022-05-17_15h48.55.413,Main,2022.1.1,59.97159745095168,
neutral,neutral,1,k,k,,,,,,,,,3,10,64,1,,,,,,,,,,,,,,,,,,,,,,,,main,1,1,1,neutral,neutral,k,k,1,1.3309232000010525,273.1703627000006,274.17939620000107,274.15869980000025,None,273.1703627000006,None,273.1703627000006,None,273.1703627000006,None,275.48188214000055,None,275.48188214000055,None,275.48188214000055,None,,,,,,,,,,,218,25,Male,2022-05-17_15h48.55.413,Main,2022.1.1,59.97159745095168,
neutral,neutral,2,k,k,,,,,,,,,3,11,65,10,,,,,,,,,,,,,,,,,,,,,,,,main,1,1,2,neutral,neutral,k,k,1,0.8204452000009042,275.50706720000017,276.5102155000004,276.48947110000154,None,275.50706720000017,None,275.50706720000017,None,275.50706720000017,None,277.3075330400008,None,277.3075330400008,None,277.3075330400008,None,,,,,,,,,,,218,25,Male,2022-05-17_15h48.55.413,Main,2022.1.1,59.97159745095168,
neutral,positive,2,k,k,,,,,,,,,3,12,66,13,,,,,,,,,,,,,,,,,,,,,,,,main,1,1,2,positive,neutral,k,k,1,0.7399383000010857,277.32938170000125,278.35145420000117,278.3103424000001,None,277.32938170000125,None,277.32938170000125,None,277.32938170000125,None,279.04840474000065,None,279.04840474000065,None,279.04840474000065,None,,,,,,,,,,,218,25,Male,2022-05-17_15h48.55.413,Main,2022.1.1,59.97159745095168,
negative,neutral,1,j,l,,,,,,,,,3,13,67,3,,,,,,,,,,,,,,,,,,,,,,,,main,1,1,1,neutral,negative,j,j,1,0.9092147999999725,279.0692943000013,280.0845057000006,280.0475374000016,None,279.0692943000013,None,279.0692943000013,None,279.0692943000013,None,280.9605135399999,None,280.9605135399999,None,280.9605135399999,None,,,,,,,,,,,218,25,Male,2022-05-17_15h48.55.413,Main,2022.1.1,59.97159745095168,
negative,positive,2,j,l,,,,,,,,,3,14,68,15,,,,,,,,,,,,,,,,,,,,,,,,main,2,2,2,positive,negative,j,j,1,0.8200479999995878,280.98299620000034,281.98531660000117,281.96578220000083,None,280.98299620000034,None,280.98299620000034,None,280.98299620000034,None,282.78603544000015,None,282.78603544000015,None,282.78603544000015,None,,,,,,,,,,,218,25,Male,2022-05-17_15h48.55.413,Main,2022.1.1,59.97159745095168,
neutral,positive,1,k,k,,,,,,,,,3,15,69,4,,,,,,,,,,,,,,,,,,,,,,,,main,2,2,1,positive,neutral,k,k,1,1.5658622999999352,282.80850439999995,283.82999759999984,283.78858820000096,None,282.80850439999995,None,282.80850439999995,None,282.80850439999995,None,285.3614032000005,None,285.3614032000005,None,285.3614032000005,None,,,,,,,,,,,218,25,Male,2022-05-17_15h48.55.413,Main,2022.1.1,59.97159745095168,
positive,neutral,1,l,j,,,,,,,,,3,16,70,8,,,,,,,,,,,,,,,,,,,,,,,,main,2,2,1,neutral,positive,l,l,1,0.7479975999995077,286.3842431000012,287.3958225000006,287.3762665000013,None,286.3842431000012,None,286.3842431000012,None,286.3842431000012,None,288.1108218400006,None,288.1108218400006,None,288.1108218400006,None,,,,,,,,,,,218,25,Male,2022-05-17_15h48.55.413,Main,2022.1.1,59.97159745095168,
positive,negative,2,l,j,,,,,,,,,3,17,71,14,,,,,,,,,,,,,,,,,,,,,,,,main,2,2,2,negative,positive,l,l,1,0.8401088999999047,288.13242790000004,289.13854300000094,289.1176720000003,None,288.13242790000004,None,288.13242790000004,None,288.13242790000004,None,289.95619164,None,289.95619164,None,289.95619164,None,,,,,,,,,,,218,25,Male,2022-05-17_15h48.55.413,Main,2022.1.1,59.97159745095168,
positive,negative,2,l,j,,,,,,,,,4,0,72,14,,,,,,,,,,,,,,,,,,,,,,,,main,1,1,2,negative,positive,l,l,1,0.8176650000004884,289.97805359999984,290.9818673000009,290.96250470000086,None,289.97805359999984,None,289.97805359999984,None,289.97805359999984,None,291.7766127400011,None,291.7766127400011,None,291.7766127400011,None,,,,,,,,,,,218,25,Male,2022-05-17_15h48.55.413,Main,2022.1.1,59.97159745095168,
neutral,negative,1,k,k,,,,,,,,,4,1,73,7,,,,,,,,,,,,,,,,,,,,,,,,main,1,1,1,negative,neutral,k,k,1,1.2553945999989082,291.7980942000013,292.82254100000137,292.7797533000012,None,291.7980942000013,None,291.7980942000013,None,291.7980942000013,None,294.03787844000016,None,294.03787844000016,None,294.03787844000016,None,,,,,,,,,,,218,25,Male,2022-05-17_15h48.55.413,Main,2022.1.1,59.97159745095168,
neutral,negative,2,k,k,,,,,,,,,4,2,74,16,,,,,,,,,,,,,,,,,,,,,,,,main,1,1,2,negative,neutral,k,k,1,0.9195887000005314,294.0595277000011,295.07816150000144,295.03767719999996,None,294.0595277000011,None,294.0595277000011,None,294.0595277000011,None,295.9596353400013,None,295.9596353400013,None,295.9596353400013,None,,,,,,,,,,,218,25,Male,2022-05-17_15h48.55.413,Main,2022.1.1,59.97159745095168,
neutral,positive,2,k,k,,,,,,,,,4,3,75,13,,,,,,,,,,,,,,,,,,,,,,,,main,2,2,2,positive,neutral,k,k,1,0.7382021000012173,295.98214670000016,297.0034764000011,296.96266580000156,None,295.98214670000016,None,295.98214670000016,None,295.98214670000016,None,297.70288714,None,297.70288714,None,297.70288714,None,,,,,,,,,,,218,25,Male,2022-05-17_15h48.55.413,Main,2022.1.1,59.97159745095168,
negative,negative,2,j,l,,,,,,,,,4,4,76,9,,,,,,,,,,,,,,,,,,,,,,,,main,2,2,2,negative,negative,j,j,1,0.710478900000453,297.72442349999983,298.74181750000025,298.6993887000008,None,297.72442349999983,None,297.72442349999983,None,297.72442349999983,None,299.41309094000115,None,299.41309094000115,None,299.41309094000115,None,,,,,,,,,,,218,25,Male,2022-05-17_15h48.55.413,Main,2022.1.1,59.97159745095168,
positive,positive,1,l,j,,,,,,,,,4,5,77,2,,,,,,,,,,,,,,,,,,,,,,,,main,2,2,1,positive,positive,l,l,1,0.9850673999990249,299.43957520000004,300.45567350000056,300.4135094000012,None,299.43957520000004,None,299.43957520000004,None,299.43957520000004,None,301.40410214000093,None,301.40410214000093,None,301.40410214000093,None,,,,,,,,,,,218,25,Male,2022-05-17_15h48.55.413,Main,2022.1.1,59.97159745095168,
negative,positive,2,j,l,,,,,,,,,4,6,78,15,,,,,,,,,,,,,,,,,,,,,,,,main,2,2,2,positive,negative,j,l,0,-0.6590161000003718,301.4281262000004,None,None,None,301.4281262000004,None,301.4281262000004,None,301.4281262000004,None,301.76338399999986,None,301.76338399999986,None,301.76338399999986,None,,,,,,,,,,,218,25,Male,2022-05-17_15h48.55.413,Main,2022.1.1,59.97159745095168,
negative,negative,1,j,l,,,,,,,,,4,7,79,0,,,,,,,,,,,,,,,,,,,,,,,,main,2,2,1,negative,negative,j,j,1,1.6022880000000441,304.7818678000003,305.8037860000004,305.7633080000014,None,304.7818678000003,None,304.7818678000003,None,304.7818678000003,None,307.36964310000076,None,307.36964310000076,None,307.36964310000076,None,,,,,,,,,,,218,25,Male,2022-05-17_15h48.55.413,Main,2022.1.1,59.97159745095168,
negative,positive,1,j,l,,,,,,,,,4,8,80,6,,,,,,,,,,,,,,,,,,,,,,,,main,2,2,1,positive,negative,j,j,1,0.7351347999992868,308.3815800000011,309.40195180000046,309.36103510000066,None,308.3815800000011,None,308.3815800000011,None,308.3815800000011,None,310.09480404000004,None,310.09480404000004,None,310.09480404000004,None,,,,,,,,,,,218,25,Male,2022-05-17_15h48.55.413,Main,2022.1.1,59.97159745095168,
neutral,neutral,2,k,k,,,,,,,,,4,9,81,10,,,,,,,,,,,,,,,,,,,,,,,,main,2,2,2,neutral,neutral,k,k,1,0.6869163000010303,310.1209228000007,311.1275108000009,311.1068634000003,None,310.1209228000007,None,310.1209228000007,None,310.1209228000007,None,311.78695564000026,None,311.78695564000026,None,311.78695564000026,None,,,,,,,,,,,218,25,Male,2022-05-17_15h48.55.413,Main,2022.1.1,59.97159745095168,
positive,neutral,2,l,j,,,,,,,,,4,10,82,17,,,,,,,,,,,,,,,,,,,,,,,,main,2,2,2,neutral,positive,l,l,1,1.2507736999996268,311.80918460000066,312.81280870000046,312.7924027000008,None,311.80918460000066,None,311.80918460000066,None,311.80918460000066,None,314.04041334000084,None,314.04041334000084,None,314.04041334000084,None,,,,,,,,,,,218,25,Male,2022-05-17_15h48.55.413,Main,2022.1.1,59.97159745095168,
neutral,positive,1,k,k,,,,,,,,,4,11,83,4,,,,,,,,,,,,,,,,,,,,,,,,main,2,2,1,positive,neutral,k,k,1,0.8084799000007479,314.0621723000004,315.0653544000015,315.04512260000047,None,314.0621723000004,None,314.0621723000004,None,314.0621723000004,None,315.8539515400009,None,315.8539515400009,None,315.8539515400009,None,,,,,,,,,,,218,25,Male,2022-05-17_15h48.55.413,Main,2022.1.1,59.97159745095168,
neutral,neutral,1,k,k,,,,,,,,,4,12,84,1,,,,,,,,,,,,,,,,,,,,,,,,main,2,2,1,neutral,neutral,k,k,1,0.7370924999995623,315.8774731000012,316.8965050000006,316.85939599999983,None,315.8774731000012,None,315.8774731000012,None,315.8774731000012,None,317.59720084000054,None,317.59720084000054,None,317.59720084000054,None,,,,,,,,,,,218,25,Male,2022-05-17_15h48.55.413,Main,2022.1.1,59.97159745095168,
negative,neutral,2,j,l,,,,,,,,,4,13,85,12,,,,,,,,,,,,,,,,,,,,,,,,main,2,2,2,neutral,negative,j,j,1,0.8027375000001484,317.61816739999995,318.62194460000137,318.6005275000007,None,317.61816739999995,None,317.61816739999995,None,317.61816739999995,None,319.40222224000007,None,319.40222224000007,None,319.40222224000007,None,,,,,,,,,,,218,25,Male,2022-05-17_15h48.55.413,Main,2022.1.1,59.97159745095168,
positive,positive,2,l,j,,,,,,,,,4,14,86,11,,,,,,,,,,,,,,,,,,,,,,,,main,2,2,2,positive,positive,l,l,1,0.8057585999995354,319.4235770000014,320.4290054000012,320.40923010000006,None,319.4235770000014,None,319.4235770000014,None,319.4235770000014,None,321.20913414000114,None,321.20913414000114,None,321.20913414000114,None,,,,,,,,,,,218,25,Male,2022-05-17_15h48.55.413,Main,2022.1.1,59.97159745095168,
negative,neutral,1,j,l,,,,,,,,,4,15,87,3,,,,,,,,,,,,,,,,,,,,,,,,main,2,2,1,neutral,negative,j,j,1,0.9636455999989266,321.2315193000013,322.2371748000005,322.2142391000016,None,321.2315193000013,None,321.2315193000013,None,321.2315193000013,None,323.17425724000003,None,323.17425724000003,None,323.17425724000003,None,,,,,,,,,,,218,25,Male,2022-05-17_15h48.55.413,Main,2022.1.1,59.97159745095168,
positive,neutral,1,l,j,,,,,,,,,4,16,88,8,,,,,,,,,,,,,,,,,,,,,,,,main,1,1,1,neutral,positive,l,l,1,0.8509314999992057,323.20213220000005,324.2175326000015,324.1764733,None,323.20213220000005,None,323.20213220000005,None,323.20213220000005,None,325.03176644000104,None,325.03176644000104,None,325.03176644000104,None,,,,,,,,,,,218,25,Male,2022-05-17_15h48.55.413,Main,2022.1.1,59.97159745095168,
positive,negative,1,l,j,,,,,,,,,4,17,89,5,,,,,,,,,,,,,,,,,,,,,,,,main,2,2,1,negative,positive,l,l,1,0.672754299999724,325.05260310000085,326.07171070000004,326.029176,None,325.05260310000085,None,325.05260310000085,None,325.05260310000085,None,326.70435724,None,326.70435724,None,326.70435724,None,,,,,,,,,,,218,25,Male,2022-05-17_15h48.55.413,Main,2022.1.1,59.97159745095168,
positive,negative,2,l,j,,,,,,,,,5,0,90,14,,,,,,,,,,,,,,,,,,,,,,,,main,1,1,2,negative,positive,l,l,1,0.7219282000005478,326.7291320000004,327.7384708999998,327.7170051000012,None,326.7291320000004,None,326.7291320000004,None,326.7291320000004,None,328.43144693999983,None,328.43144693999983,None,328.43144693999983,None,,,,,,,,,,,218,25,Male,2022-05-17_15h48.55.413,Main,2022.1.1,59.97159745095168,
neutral,negative,1,k,k,,,,,,,,,5,1,91,7,,,,,,,,,,,,,,,,,,,,,,,,main,1,1,1,negative,neutral,k,k,1,0.8460720000002766,328.45411240000067,329.45996860000014,329.4402719000009,None,328.45411240000067,None,328.45411240000067,None,328.45411240000067,None,330.28017673999983,None,330.28017673999983,None,330.28017673999983,None,,,,,,,,,,,218,25,Male,2022-05-17_15h48.55.413,Main,2022.1.1,59.97159745095168,
positive,positive,1,l,j,,,,,,,,,5,2,92,2,,,,,,,,,,,,,,,,,,,,,,,,main,1,1,1,positive,positive,l,l,1,0.7645959000001312,330.30254109999987,331.3100133000007,331.2892655000014,None,330.30254109999987,None,330.30254109999987,None,330.30254109999987,None,332.0467566400004,None,332.0467566400004,None,332.0467566400004,None,,,,,,,,,,,218,25,Male,2022-05-17_15h48.55.413,Main,2022.1.1,59.97159745095168,
neutral,positive,1,k,k,,,,,,,,,5,3,93,4,,,,,,,,,,,,,,,,,,,,,,,,main,2,2,1,positive,neutral,k,k,1,0.8017270000000281,332.06910250000146,333.07399820000137,333.05406680000124,None,332.06910250000146,None,332.06910250000146,None,332.06910250000146,None,333.8511265400013,None,333.8511265400013,None,333.8511265400013,None,,,,,,,,,,,218,25,Male,2022-05-17_15h48.55.413,Main,2022.1.1,59.97159745095168,
positive,negative,1,l,j,,,,,,,,,5,4,94,5,,,,,,,,,,,,,,,,,,,,,,,,main,2,2,1,negative,positive,l,l,1,0.7882671000006667,333.8742589000012,334.88215390000005,334.8610744000016,None,333.8742589000012,None,333.8742589000012,None,333.8742589000012,None,335.64143273999997,None,335.64143273999997,None,335.64143273999997,None,,,,,,,,,,,218,25,Male,2022-05-17_15h48.55.413,Main,2022.1.1,59.97159745095168,
negative,neutral,2,j,l,,,,,,,,,5,5,95,12,,,,,,,,,,,,,,,,,,,,,,,,main,2,2,2,neutral,negative,j,j,1,0.7778725000007398,335.6650219000003,336.67364030000135,336.6534975000013,None,335.6650219000003,None,335.6650219000003,None,335.6650219000003,None,337.42242924000146,None,337.42242924000146,None,337.42242924000146,None,,,,,,,,,,,218,25,Male,2022-05-17_15h48.55.413,Main,2022.1.1,59.97159745095168,
negative,positive,1,j,l,,,,,,,,,5,6,96,6,,,,,,,,,,,,,,,,,,,,,,,,main,1,1,1,positive,negative,j,j,1,1.0178667000000132,337.44529990000046,338.46619590000046,338.42597430000023,None,337.44529990000046,None,337.44529990000046,None,337.44529990000046,None,339.44556374000075,None,339.44556374000075,None,339.44556374000075,None,,,,,,,,,,,218,25,Male,2022-05-17_15h48.55.413,Main,2022.1.1,59.97159745095168,
negative,positive,2,j,l,,,,,,,,,5,7,97,15,,,,,,,,,,,,,,,,,,,,,,,,main,2,2,2,positive,negative,j,j,1,0.7966472999996768,339.46628990000136,340.48806400000103,340.4468942000003,None,339.46628990000136,None,339.46628990000136,None,339.46628990000136,None,341.24160234000027,None,341.24160234000027,None,341.24160234000027,None,,,,,,,,,,,218,25,Male,2022-05-17_15h48.55.413,Main,2022.1.1,59.97159745095168,
positive,neutral,2,l,j,,,,,,,,,5,8,98,17,,,,,,,,,,,,,,,,,,,,,,,,main,2,2,2,neutral,positive,l,l,1,1.0088396999999532,341.2635007000008,342.2706195999999,342.25039370000013,None,341.2635007000008,None,341.2635007000008,None,341.2635007000008,None,343.2533666400015,None,343.2533666400015,None,343.2533666400015,None,,,,,,,,,,,218,25,Male,2022-05-17_15h48.55.413,Main,2022.1.1,59.97159745095168,
negative,negative,1,j,l,,,,,,,,,5,9,99,0,,,,,,,,,,,,,,,,,,,,,,,,main,2,2,1,negative,negative,j,j,1,1.030660500000522,343.2753364,344.28220370000054,344.2614080000003,None,343.2753364,None,343.2753364,None,343.2753364,None,345.28649504000003,None,345.28649504000003,None,345.28649504000003,None,,,,,,,,,,,218,25,Male,2022-05-17_15h48.55.413,Main,2022.1.1,59.97159745095168,
neutral,neutral,1,k,k,,,,,,,,,5,10,100,1,,,,,,,,,,,,,,,,,,,,,,,,main,1,1,1,neutral,neutral,k,k,1,1.0317905000010796,345.30945470000006,346.32716360000086,346.28756500000054,None,345.30945470000006,None,345.30945470000006,None,345.30945470000006,None,347.32171704000046,None,347.32171704000046,None,347.32171704000046,None,,,,,,,,,,,218,25,Male,2022-05-17_15h48.55.413,Main,2022.1.1,59.97159745095168,
positive,positive,2,l,j,,,,,,,,,5,11,101,11,,,,,,,,,,,,,,,,,,,,,,,,main,1,1,2,positive,positive,l,l,1,1.1111190999999963,347.3474618,348.3529327000015,348.33265440000105,None,347.3474618,None,347.3474618,None,347.3474618,None,349.43606504000144,None,349.43606504000144,None,349.43606504000144,None,,,,,,,,,,,218,25,Male,2022-05-17_15h48.55.413,Main,2022.1.1,59.97159745095168,
positive,neutral,1,l,j,,,,,,,,,5,12,102,8,,,,,,,,,,,,,,,,,,,,,,,,main,2,2,1,neutral,positive,l,l,1,0.9737086000004638,349.4587339000009,350.476059300001,350.43662460000087,None,349.4587339000009,None,349.4587339000009,None,349.4587339000009,None,351.4148269400013,None,351.4148269400013,None,351.4148269400013,None,,,,,,,,,,,218,25,Male,2022-05-17_15h48.55.413,Main,2022.1.1,59.97159745095168,
neutral,positive,2,k,k,,,,,,,,,5,13,103,13,,,,,,,,,,,,,,,,,,,,,,,,main,2,2,2,positive,neutral,k,k,1,1.243715599999632,351.4365109999999,352.4591696000007,352.41762220000055,None,351.4365109999999,None,351.4365109999999,None,351.4365109999999,None,353.6627794400012,None,353.6627794400012,None,353.6627794400012,None,,,,,,,,,,,218,25,Male,2022-05-17_15h48.55.413,Main,2022.1.1,59.97159745095168,
neutral,neutral,2,k,k,,,,,,,,,5,14,104,10,,,,,,,,,,,,,,,,,,,,,,,,main,2,2,2,neutral,neutral,k,k,1,0.7766869999995833,353.6875731,354.7075186000002,354.6680264000006,None,353.6875731,None,353.6875731,None,353.6875731,None,355.44210694000157,None,355.44210694000157,None,355.44210694000157,None,,,,,,,,,,,218,25,Male,2022-05-17_15h48.55.413,Main,2022.1.1,59.97159745095168,
negative,negative,2,j,l,,,,,,,,,5,15,105,9,,,,,,,,,,,,,,,,,,,,,,,,main,1,1,2,negative,negative,j,j,1,0.7531908999990264,355.4641750999999,356.48197430000073,356.4411641000006,None,355.4641750999999,None,355.4641750999999,None,355.4641750999999,None,357.1980978400008,None,357.1980978400008,None,357.1980978400008,None,,,,,,,,,,,218,25,Male,2022-05-17_15h48.55.413,Main,2022.1.1,59.97159745095168,
neutral,negative,2,k,k,,,,,,,,,5,16,106,16,,,,,,,,,,,,,,,,,,,,,,,,main,1,1,2,negative,neutral,k,k,1,0.9190943000012339,357.2189804999998,358.2225732000006,358.20303090000016,None,357.2189804999998,None,357.2189804999998,None,357.2189804999998,None,359.118233540001,None,359.118233540001,None,359.118233540001,None,,,,,,,,,,,218,25,Male,2022-05-17_15h48.55.413,Main,2022.1.1,59.97159745095168,
negative,neutral,1,j,l,,,,,,,,,5,17,107,3,,,,,,,,,,,,,,,,,,,,,,,,main,2,2,1,neutral,negative,j,j,1,0.989295299999867,359.13937700000133,360.14261500000066,360.12337389999993,None,359.13937700000133,None,359.13937700000133,None,359.13937700000133,None,361.11252774000076,None,361.11252774000076,None,361.11252774000076,None,,,,,,,,,,,218,25,Male,2022-05-17_15h48.55.413,Main,2022.1.1,59.97159745095168,
neutral,positive,1,k,k,,,,,,,,,6,0,108,4,,,,,,,,,,,,,,,,,,,,,,,,main,1,1,1,positive,neutral,k,k,1,0.9249256000002788,361.13614960000086,362.13875870000084,362.11926290000156,None,361.13614960000086,None,361.13614960000086,None,361.13614960000086,None,363.0374525400004,None,363.0374525400004,None,363.0374525400004,None,,,,,,,,,,,218,25,Male,2022-05-17_15h48.55.413,Main,2022.1.1,59.97159745095168,
neutral,positive,2,k,k,,,,,,,,,6,1,109,13,,,,,,,,,,,,,,,,,,,,,,,,main,1,1,2,positive,neutral,k,k,1,0.8848266999993939,363.0629251999999,364.0834597000012,364.04106740000134,None,363.0629251999999,None,363.0629251999999,None,363.0629251999999,None,364.9271737400015,None,364.9271737400015,None,364.9271737400015,None,,,,,,,,,,,218,25,Male,2022-05-17_15h48.55.413,Main,2022.1.1,59.97159745095168,
negative,neutral,2,j,l,,,,,,,,,6,2,110,12,,,,,,,,,,,,,,,,,,,,,,,,main,2,2,2,neutral,negative,j,j,1,0.7768636000000697,364.9495612999999,365.97031310000057,365.9295267000016,None,364.9495612999999,None,364.9495612999999,None,364.9495612999999,None,366.7043653399998,None,366.7043653399998,None,366.7043653399998,None,,,,,,,,,,,218,25,Male,2022-05-17_15h48.55.413,Main,2022.1.1,59.97159745095168,
neutral,neutral,1,k,k,,,,,,,,,6,3,111,1,,,,,,,,,,,,,,,,,,,,,,,,main,2,2,1,neutral,neutral,k,k,1,0.9281102000004466,366.7257827000012,367.7338641000006,367.71242359999997,None,366.7257827000012,None,366.7257827000012,None,366.7257827000012,None,368.6346468400008,None,368.6346468400008,None,368.6346468400008,None,,,,,,,,,,,218,25,Male,2022-05-17_15h48.55.413,Main,2022.1.1,59.97159745095168,
negative,positive,1,j,l,,,,,,,,,6,4,112,6,,,,,,,,,,,,,,,,,,,,,,,,main,1,1,1,positive,negative,j,j,1,1.901002199998402,368.6619025,369.6824901,369.6401493000012,None,368.6619025,None,368.6619025,None,368.6619025,None,371.54959730000155,None,371.54959730000155,None,371.54959730000155,None,,,,,,,,,,,218,25,Male,2022-05-17_15h48.55.413,Main,2022.1.1,59.97159745095168,
positive,negative,1,l,j,,,,,,,,,6,5,113,5,,,,,,,,,,,,,,,,,,,,,,,,main,2,2,1,negative,positive,l,l,1,0.8682401000005484,372.5730521000005,373.5777564,373.5566159000009,None,372.5730521000005,None,372.5730521000005,None,372.5730521000005,None,374.41958884000104,None,374.41958884000104,None,374.41958884000104,None,,,,,,,,,,,218,25,Male,2022-05-17_15h48.55.413,Main,2022.1.1,59.97159745095168,
neutral,negative,2,k,k,,,,,,,,,6,6,114,16,,,,,,,,,,,,,,,,,,,,,,,,main,2,2,2,negative,neutral,k,k,1,0.6812750000008236,374.44654510000146,375.45104900000115,375.43195280000145,None,374.44654510000146,None,374.44654510000146,None,374.44654510000146,None,376.1063708399999,None,376.1063708399999,None,376.1063708399999,None,,,,,,,,,,,218,25,Male,2022-05-17_15h48.55.413,Main,2022.1.1,59.97159745095168,
positive,positive,1,l,j,,,,,,,,,6,7,115,2,,,,,,,,,,,,,,,,,,,,,,,,main,2,2,1,positive,positive,l,l,1,0.8684714999999414,376.12763670000095,377.1358928999998,377.1140976000006,None,376.12763670000095,None,376.12763670000095,None,376.12763670000095,None,377.9769046399999,None,377.9769046399999,None,377.9769046399999,None,,,,,,,,,,,218,25,Male,2022-05-17_15h48.55.413,Main,2022.1.1,59.97159745095168,
positive,positive,2,l,j,,,,,,,,,6,8,116,11,,,,,,,,,,,,,,,,,,,,,,,,main,2,2,2,positive,positive,l,l,1,1.0130078000001959,377.9988008,379.00704770000084,378.9871346,None,377.9988008,None,377.9988008,None,377.9988008,None,379.9928928400006,None,379.9928928400006,None,379.9928928400006,None,,,,,,,,,,,218,25,Male,2022-05-17_15h48.55.413,Main,2022.1.1,59.97159745095168,
negative,neutral,1,j,l,,,,,,,,,6,9,117,3,,,,,,,,,,,,,,,,,,,,,,,,main,1,1,1,neutral,negative,j,j,1,0.9256996999993135,380.01462189999984,381.0187418000005,380.99908120000146,None,380.01462189999984,None,380.01462189999984,None,380.01462189999984,None,381.91903234,None,381.91903234,None,381.91903234,None,,,,,,,,,,,218,25,Male,2022-05-17_15h48.55.413,Main,2022.1.1,59.97159745095168,
negative,negative,1,j,l,,,,,,,,,6,10,118,0,,,,,,,,,,,,,,,,,,,,,,,,main,2,2,1,negative,negative,j,j,1,1.0433166999991954,381.94018700000015,382.955793000001,382.91623230000005,None,381.94018700000015,None,381.94018700000015,None,381.94018700000015,None,383.9626953400004,None,383.9626953400004,None,383.9626953400004,None,,,,,,,,,,,218,25,Male,2022-05-17_15h48.55.413,Main,2022.1.1,59.97159745095168,
negative,negative,2,j,l,,,,,,,,,6,11,119,9,,,,,,,,,,,,,,,,,,,,,,,,main,2,2,2,negative,negative,j,j,1,0.7649989000001369,383.9852681000011,384.9968230000013,384.9727875000008,None,383.9852681000011,None,383.9852681000011,None,383.9852681000011,None,385.7311957399999,None,385.7311957399999,None,385.7311957399999,None,,,,,,,,,,,218,25,Male,2022-05-17_15h48.55.413,Main,2022.1.1,59.97159745095168,
neutral,negative,1,k,k,,,,,,,,,6,12,120,7,,,,,,,,,,,,,,,,,,,,,,,,main,2,2,1,negative,neutral,k,k,1,0.7610127999996621,385.75348570000097,386.7756388000016,386.7352254000016,None,385.75348570000097,None,385.75348570000097,None,385.75348570000097,None,387.49661534000023,None,387.49661534000023,None,387.49661534000023,None,,,,,,,,,,,218,25,Male,2022-05-17_15h48.55.413,Main,2022.1.1,59.97159745095168,
positive,negative,2,l,j,,,,,,,,,6,13,121,14,,,,,,,,,,,,,,,,,,,,,,,,main,1,1,2,negative,positive,l,l,1,0.8350432999995974,387.51890319999984,388.5361057000009,388.4964248000015,None,387.51890319999984,None,387.51890319999984,None,387.51890319999984,None,389.33242074000026,None,389.33242074000026,None,389.33242074000026,None,,,,,,,,,,,218,25,Male,2022-05-17_15h48.55.413,Main,2022.1.1,59.97159745095168,
neutral,neutral,2,k,k,,,,,,,,,6,14,122,10,,,,,,,,,,,,,,,,,,,,,,,,main,1,1,2,neutral,neutral,k,k,1,0.8940837000009196,389.3561000000009,390.359762600001,390.33847270000115,None,389.3561000000009,None,389.3561000000009,None,389.3561000000009,None,391.2306063400012,None,391.2306063400012,None,391.2306063400012,None,,,,,,,,,,,218,25,Male,2022-05-17_15h48.55.413,Main,2022.1.1,59.97159745095168,
positive,neutral,2,l,j,,,,,,,,,6,15,123,17,,,,,,,,,,,,,,,,,,,,,,,,main,1,1,2,neutral,positive,l,l,1,0.7084925999988627,391.2540028000003,392.26593649999995,392.24638030000096,None,391.2540028000003,None,391.2540028000003,None,391.2540028000003,None,392.9438330400009,None,392.9438330400009,None,392.9438330400009,None,,,,,,,,,,,218,25,Male,2022-05-17_15h48.55.413,Main,2022.1.1,59.97159745095168,
positive,neutral,1,l,j,,,,,,,,,6,16,124,8,,,,,,,,,,,,,,,,,,,,,,,,main,1,1,1,neutral,positive,l,l,1,0.8541236000000936,392.96590900000047,393.98579920000157,393.94591630000104,None,392.96590900000047,None,392.96590900000047,None,392.96590900000047,None,394.80319294000054,None,394.80319294000054,None,394.80319294000054,None,,,,,,,,,,,218,25,Male,2022-05-17_15h48.55.413,Main,2022.1.1,59.97159745095168,
negative,positive,2,j,l,,,,,,,,,6,17,125,15,,,,,,,,,,,,,,,,,,,,,,,,main,2,2,2,positive,negative,j,j,1,0.9480446000015945,394.8270325000012,395.832134100001,395.81247070000063,None,394.8270325000012,None,394.8270325000012,None,394.8270325000012,None,396.7511939400012,None,396.7511939400012,None,396.7511939400012,None,,,,,,,,,,,218,25,Male,2022-05-17_15h48.55.413,Main,2022.1.1,59.97159745095168,
negative,neutral,2,j,l,,,,,,,,,7,0,126,12,,,,,,,,,,,,,,,,,,,,,,,,main,2,2,2,neutral,negative,j,j,1,0.7579872000005707,396.7717389999998,397.7947011000015,397.75292940000145,None,396.7717389999998,None,396.7717389999998,None,396.7717389999998,None,398.51151904000125,None,398.51151904000125,None,398.51151904000125,None,,,,,,,,,,,218,25,Male,2022-05-17_15h48.55.413,Main,2022.1.1,59.97159745095168,
neutral,neutral,2,k,k,,,,,,,,,7,1,127,10,,,,,,,,,,,,,,,,,,,,,,,,main,2,2,2,neutral,neutral,k,k,1,0.6918107000001328,398.5341986000003,399.5365834000004,399.51693350000096,None,398.5341986000003,None,398.5341986000003,None,398.5341986000003,None,400.20765734000105,None,400.20765734000105,None,400.20765734000105,None,,,,,,,,,,,218,25,Male,2022-05-17_15h48.55.413,Main,2022.1.1,59.97159745095168,
negative,positive,1,j,l,,,,,,,,,7,2,128,6,,,,,,,,,,,,,,,,,,,,,,,,main,2,2,1,positive,negative,j,j,1,1.1514165000007779,400.22989229999985,401.2370617000015,401.2166862000013,None,400.22989229999985,None,400.22989229999985,None,400.22989229999985,None,402.36179444000135,None,402.36179444000135,None,402.36179444000135,None,,,,,,,,,,,218,25,Male,2022-05-17_15h48.55.413,Main,2022.1.1,59.97159745095168,
negative,negative,1,j,l,,,,,,,,,7,3,129,0,,,,,,,,,,,,,,,,,,,,,,,,main,2,2,1,negative,negative,j,j,1,0.773926500000016,402.3827441000012,403.4023098000016,403.3618873000014,None,402.3827441000012,None,402.3827441000012,None,402.3827441000012,None,404.1409643400004,None,404.1409643400004,None,404.1409643400004,None,,,,,,,,,,,218,25,Male,2022-05-17_15h48.55.413,Main,2022.1.1,59.97159745095168,
positive,negative,1,l,j,,,,,,,,,7,4,130,5,,,,,,,,,,,,,,,,,,,,,,,,main,2,2,1,negative,positive,l,l,1,0.925921300000482,404.16396180000083,405.16807830000107,405.1481479000013,None,404.16396180000083,None,404.16396180000083,None,404.16396180000083,None,406.0702700399999,None,406.0702700399999,None,406.0702700399999,None,,,,,,,,,,,218,25,Male,2022-05-17_15h48.55.413,Main,2022.1.1,59.97159745095168,
positive,negative,2,l,j,,,,,,,,,7,5,131,14,,,,,,,,,,,,,,,,,,,,,,,,main,1,1,2,negative,positive,l,l,1,0.8569561000003887,406.093110400001,407.1115619000011,407.0696624000011,None,406.093110400001,None,406.093110400001,None,406.093110400001,None,407.92840194000036,None,407.92840194000036,None,407.92840194000036,None,,,,,,,,,,,218,25,Male,2022-05-17_15h48.55.413,Main,2022.1.1,59.97159745095168,
neutral,neutral,1,k,k,,,,,,,,,7,6,132,1,,,,,,,,,,,,,,,,,,,,,,,,main,2,2,1,neutral,neutral,k,k,1,0.757766000000629,407.9510177000011,408.953895300001,408.9339822000002,None,407.9510177000011,None,407.9510177000011,None,407.9510177000011,None,409.68991314000067,None,409.68991314000067,None,409.68991314000067,None,,,,,,,,,,,218,25,Male,2022-05-17_15h48.55.413,Main,2022.1.1,59.97159745095168,
negative,positive,2,j,l,,,,,,,,,7,7,133,15,,,,,,,,,,,,,,,,,,,,,,,,main,1,1,2,positive,negative,j,j,1,0.8381239999998797,409.7132606000014,410.7330703000007,410.69382060000135,None,409.7132606000014,None,409.7132606000014,None,409.7132606000014,None,411.5321017400003,None,411.5321017400003,None,411.5321017400003,None,,,,,,,,,,,218,25,Male,2022-05-17_15h48.55.413,Main,2022.1.1,59.97159745095168,
neutral,negative,2,k,k,,,,,,,,,7,8,134,16,,,,,,,,,,,,,,,,,,,,,,,,main,2,2,2,negative,neutral,k,k,1,0.9993161000002146,411.5574422999998,412.57935720000023,412.5385836000005,None,411.5574422999998,None,411.5574422999998,None,411.5574422999998,None,413.5369407400014,None,413.5369407400014,None,413.5369407400014,None,,,,,,,,,,,218,25,Male,2022-05-17_15h48.55.413,Main,2022.1.1,59.97159745095168,
neutral,negative,1,k,k,,,,,,,,,7,9,135,7,,,,,,,,,,,,,,,,,,,,,,,,main,1,1,1,negative,neutral,k,k,1,0.7680015000005369,413.55882010000096,414.5740289000005,414.5335087000003,None,413.55882010000096,None,413.55882010000096,None,413.55882010000096,None,415.30650713999984,None,415.30650713999984,None,415.30650713999984,None,,,,,,,,,,,218,25,Male,2022-05-17_15h48.55.413,Main,2022.1.1,59.97159745095168,
negative,negative,2,j,l,,,,,,,,,7,10,136,9,,,,,,,,,,,,,,,,,,,,,,,,main,1,1,2,negative,negative,j,j,1,1.0377499000005628,415.32963870000094,416.3334326000004,416.3134768,None,415.32963870000094,None,415.32963870000094,None,415.32963870000094,None,417.3476377400004,None,417.3476377400004,None,417.3476377400004,None,,,,,,,,,,,218,25,Male,2022-05-17_15h48.55.413,Main,2022.1.1,59.97159745095168,
positive,positive,1,l,j,,,,,,,,,7,11,137,2,,,,,,,,,,,,,,,,,,,,,,,,main,2,2,1,positive,positive,l,l,1,0.9268630999995366,417.36913450000065,418.3734847000014,418.3522520000006,None,417.36913450000065,None,417.36913450000065,None,417.36913450000065,None,419.27687583999995,None,419.27687583999995,None,419.27687583999995,None,,,,,,,,,,,218,25,Male,2022-05-17_15h48.55.413,Main,2022.1.1,59.97159745095168,
neutral,positive,2,k,k,,,,,,,,,7,12,138,13,,,,,,,,,,,,,,,,,,,,,,,,main,1,1,2,positive,neutral,k,k,1,0.8606484000010823,419.29907860000094,420.301707300001,420.2823311000011,None,419.29907860000094,None,419.29907860000094,None,419.29907860000094,None,421.1420139399999,None,421.1420139399999,None,421.1420139399999,None,,,,,,,,,,,218,25,Male,2022-05-17_15h48.55.413,Main,2022.1.1,59.97159745095168,
negative,neutral,1,j,l,,,,,,,,,7,13,139,3,,,,,,,,,,,,,,,,,,,,,,,,main,1,1,1,neutral,negative,j,j,1,0.994380899999669,421.1630810000006,422.18068980000135,422.1419177000007,None,421.1630810000006,None,421.1630810000006,None,421.1630810000006,None,423.1407387400015,None,423.1407387400015,None,423.1407387400015,None,,,,,,,,,,,218,25,Male,2022-05-17_15h48.55.413,Main,2022.1.1,59.97159745095168,
positive,positive,2,l,j,,,,,,,,,7,14,140,11,,,,,,,,,,,,,,,,,,,,,,,,main,2,2,2,positive,positive,l,l,1,0.6593138999996881,423.1631029,424.17260070000157,424.15121010000075,None,423.1631029,None,423.1631029,None,423.1631029,None,424.8052932400007,None,424.8052932400007,None,424.8052932400007,None,,,,,,,,,,,218,25,Male,2022-05-17_15h48.55.413,Main,2022.1.1,59.97159745095168,
neutral,positive,1,k,k,,,,,,,,,7,15,141,4,,,,,,,,,,,,,,,,,,,,,,,,main,1,1,1,positive,neutral,k,k,1,0.6379082999992534,424.82723700000133,425.8492597000004,425.80933430000005,None,424.82723700000133,None,424.82723700000133,None,424.82723700000133,None,426.4440260400008,None,426.4440260400008,None,426.4440260400008,None,,,,,,,,,,,218,25,Male,2022-05-17_15h48.55.413,Main,2022.1.1,59.97159745095168,
positive,neutral,2,l,j,,,,,,,,,7,16,142,17,,,,,,,,,,,,,,,,,,,,,,,,main,2,2,2,neutral,positive,l,l,1,0.7602812000004633,426.4716541000016,427.4930153000005,427.45039429999997,None,426.4716541000016,None,426.4716541000016,None,426.4716541000016,None,428.2085933400014,None,428.2085933400014,None,428.2085933400014,None,,,,,,,,,,,218,25,Male,2022-05-17_15h48.55.413,Main,2022.1.1,59.97159745095168,
positive,neutral,1,l,j,,,,,,,,,7,17,143,8,,,,,,,,,,,,,,,,,,,,,,,,main,2,2,1,neutral,positive,l,l,1,0.788649300000543,428.23128540000107,429.2478211000016,429.20826690000104,None,428.23128540000107,None,428.23128540000107,None,428.23128540000107,None,430.00236504000003,None,430.00236504000003,None,430.00236504000003,None,,,,,,,,,,,218,25,Male,2022-05-17_15h48.55.413,Main,2022.1.1,59.97159745095168,
positive,positive,1,l,j,,,,,,,,,8,0,144,2,,,,,,,,,,,,,,,,,,,,,,,,main,1,1,1,positive,positive,l,l,1,0.781639400000131,430.0256117000008,431.0324933000011,431.01294920000146,None,430.0256117000008,None,430.0256117000008,None,430.0256117000008,None,431.7877953400004,None,431.7877953400004,None,431.7877953400004,None,,,,,,,,,,,218,25,Male,2022-05-17_15h48.55.413,Main,2022.1.1,59.97159745095168,
positive,positive,2,l,j,,,,,,,,,8,1,145,11,,,,,,,,,,,,,,,,,,,,,,,,main,2,2,2,positive,positive,l,l,1,0.9099592999991728,431.8106779000009,432.81628009999986,432.7965380000005,None,431.8106779000009,None,431.8106779000009,None,431.8106779000009,None,433.7019808400002,None,433.7019808400002,None,433.7019808400002,None,,,,,,,,,,,218,25,Male,2022-05-17_15h48.55.413,Main,2022.1.1,59.97159745095168,
neutral,positive,1,k,k,,,,,,,,,8,2,146,4,,,,,,,,,,,,,,,,,,,,,,,,main,1,1,1,positive,neutral,k,k,1,1.1437443000013445,433.723261000001,434.7446291000015,434.7030521000015,None,433.723261000001,None,433.723261000001,None,433.723261000001,None,435.8451553400011,None,435.8451553400011,None,435.8451553400011,None,,,,,,,,,,,218,25,Male,2022-05-17_15h48.55.413,Main,2022.1.1,59.97159745095168,
neutral,negative,1,k,k,,,,,,,,,8,3,147,7,,,,,,,,,,,,,,,,,,,,,,,,main,1,1,1,negative,neutral,k,k,1,0.8422976000001654,435.8711865000005,436.89144920000035,436.8495672000008,None,435.8711865000005,None,435.8711865000005,None,435.8711865000005,None,437.69100674000055,None,437.69100674000055,None,437.69100674000055,None,,,,,,,,,,,218,25,Male,2022-05-17_15h48.55.413,Main,2022.1.1,59.97159745095168,
negative,negative,1,j,l,,,,,,,,,8,4,148,0,,,,,,,,,,,,,,,,,,,,,,,,main,1,1,1,negative,negative,j,j,1,1.2052072000005865,437.71330149999994,438.73078330000135,438.6914465000009,None,437.71330149999994,None,437.71330149999994,None,437.71330149999994,None,439.90103134000145,None,439.90103134000145,None,439.90103134000145,None,,,,,,,,,,,218,25,Male,2022-05-17_15h48.55.413,Main,2022.1.1,59.97159745095168,
negative,negative,2,j,l,,,,,,,,,8,5,149,9,,,,,,,,,,,,,,,,,,,,,,,,main,2,2,2,negative,negative,j,k,0,0.7773819999983971,439.9241984,440.9462856000009,440.90630090000013,None,439.9241984,None,439.9241984,None,439.9241984,None,441.6886871000006,None,441.6886871000006,None,441.6886871000006,None,,,,,,,,,,,218,25,Male,2022-05-17_15h48.55.413,Main,2022.1.1,59.97159745095168,
positive,negative,2,l,j,,,,,,,,,8,6,150,14,,,,,,,,,,,,,,,,,,,,,,,,main,1,1,2,negative,positive,l,l,1,0.9158906000011484,442.7136556000005,443.7276907000014,443.7083352000009,None,442.7136556000005,None,442.7136556000005,None,442.7136556000005,None,444.6081741400014,None,444.6081741400014,None,444.6081741400014,None,,,,,,,,,,,218,25,Male,2022-05-17_15h48.55.413,Main,2022.1.1,59.97159745095168,
negative,neutral,2,j,l,,,,,,,,,8,7,151,12,,,,,,,,,,,,,,,,,,,,,,,,main,1,1,2,neutral,negative,j,j,1,0.9216770000002725,444.63318320000144,445.64579500000036,445.60598670000036,None,444.63318320000144,None,444.63318320000144,None,444.63318320000144,None,446.53535544000096,None,446.53535544000096,None,446.53535544000096,None,,,,,,,,,,,218,25,Male,2022-05-17_15h48.55.413,Main,2022.1.1,59.97159745095168,
neutral,neutral,1,k,k,,,,,,,,,8,8,152,1,,,,,,,,,,,,,,,,,,,,,,,,main,2,2,1,neutral,neutral,k,k,1,0.7992290999991383,446.55755300000055,447.5610325000016,447.5412765000001,None,446.55755300000055,None,446.55755300000055,None,446.55755300000055,None,448.33742704000014,None,448.33742704000014,None,448.33742704000014,None,,,,,,,,,,,218,25,Male,2022-05-17_15h48.55.413,Main,2022.1.1,59.97159745095168,
negative,positive,1,j,l,,,,,,,,,8,9,153,6,,,,,,,,,,,,,,,,,,,,,,,,main,2,2,1,positive,negative,j,j,1,0.942757700000584,448.3603669000004,449.3811311999998,449.34131440000056,None,448.3603669000004,None,448.3603669000004,None,448.3603669000004,None,450.2846749400016,None,450.2846749400016,None,450.2846749400016,None,,,,,,,,,,,218,25,Male,2022-05-17_15h48.55.413,Main,2022.1.1,59.97159745095168,
positive,neutral,2,l,j,,,,,,,,,8,10,154,17,,,,,,,,,,,,,,,,,,,,,,,,main,1,1,2,neutral,positive,l,l,1,1.2716885000008915,450.30676140000105,451.3145619000006,451.294498700001,None,450.30676140000105,None,450.30676140000105,None,450.30676140000105,None,452.5559623400006,None,452.5559623400006,None,452.5559623400006,None,,,,,,,,,,,218,25,Male,2022-05-17_15h48.55.413,Main,2022.1.1,59.97159745095168,
positive,neutral,1,l,j,,,,,,,,,8,11,155,8,,,,,,,,,,,,,,,,,,,,,,,,main,1,1,1,neutral,positive,l,l,1,0.7802935999989131,452.57789030000094,453.58452020000004,453.56366420000086,None,452.57789030000094,None,452.57789030000094,None,452.57789030000094,None,454.33858394,None,454.33858394,None,454.33858394,None,,,,,,,,,,,218,25,Male,2022-05-17_15h48.55.413,Main,2022.1.1,59.97159745095168,
neutral,negative,2,k,k,,,,,,,,,8,12,156,16,,,,,,,,,,,,,,,,,,,,,,,,main,1,1,2,negative,neutral,k,k,1,0.8340059999991354,454.36127320000014,455.38303200000155,455.342089400001,None,454.36127320000014,None,454.36127320000014,None,454.36127320000014,None,456.1764205400015,None,456.1764205400015,None,456.1764205400015,None,,,,,,,,,,,218,25,Male,2022-05-17_15h48.55.413,Main,2022.1.1,59.97159745095168,
negative,neutral,1,j,l,,,,,,,,,8,13,157,3,,,,,,,,,,,,,,,,,,,,,,,,main,2,2,1,neutral,negative,j,j,1,0.6636640000015177,456.2022347000002,457.2077459000011,457.18808920000083,None,456.2022347000002,None,456.2022347000002,None,456.2022347000002,None,457.84211454000086,None,457.84211454000086,None,457.84211454000086,None,,,,,,,,,,,218,25,Male,2022-05-17_15h48.55.413,Main,2022.1.1,59.97159745095168,
neutral,neutral,2,k,k,,,,,,,,,8,14,158,10,,,,,,,,,,,,,,,,,,,,,,,,main,2,2,2,neutral,neutral,k,k,1,0.6807728999992833,457.8636634000013,458.87107000000105,458.84984930000064,None,457.8636634000013,None,457.8636634000013,None,457.8636634000013,None,459.5251881400001,None,459.5251881400001,None,459.5251881400001,None,,,,,,,,,,,218,25,Male,2022-05-17_15h48.55.413,Main,2022.1.1,59.97159745095168,
positive,negative,1,l,j,,,,,,,,,8,15,159,5,,,,,,,,,,,,,,,,,,,,,,,,main,2,2,1,negative,positive,l,l,1,1.4944485000014538,459.54751829999987,460.5528021000009,460.53002300000117,None,459.54751829999987,None,459.54751829999987,None,459.54751829999987,None,462.0231010400004,None,462.0231010400004,None,462.0231010400004,None,,,,,,,,,,,218,25,Male,2022-05-17_15h48.55.413,Main,2022.1.1,59.97159745095168,
negative,positive,2,j,l,,,,,,,,,8,16,160,15,,,,,,,,,,,,,,,,,,,,,,,,main,2,2,2,positive,negative,j,j,1,1.012330599998677,462.0460907000015,463.0516982000008,463.02998410000146,None,462.0460907000015,None,462.0460907000015,None,462.0460907000015,None,464.03784984000066,None,464.03784984000066,None,464.03784984000066,None,,,,,,,,,,,218,25,Male,2022-05-17_15h48.55.413,Main,2022.1.1,59.97159745095168,
neutral,positive,2,k,k,,,,,,,,,8,17,161,13,,,,,,,,,,,,,,,,,,,,,,,,main,1,1,2,positive,neutral,k,k,1,0.7802195999993273,464.05893300000025,465.06563240000105,465.0446738999999,None,464.05893300000025,None,464.05893300000025,None,464.05893300000025,None,465.8208401400008,None,465.8208401400008,None,465.8208401400008,None,,,,,,,,,,,218,25,Male,2022-05-17_15h48.55.413,Main,2022.1.1,59.97159745095168,
neutral,positive,2,k,k,,,,,,,,,9,0,162,13,,,,,,,,,,,,,,,,,,,,,,,,main,1,1,2,positive,neutral,k,k,1,0.6990349999996397,465.8427573000008,466.8508871000013,466.82927400000153,None,465.8427573000008,None,465.8427573000008,None,465.8427573000008,None,467.52188124,None,467.52188124,None,467.52188124,None,,,,,,,,,,,218,25,Male,2022-05-17_15h48.55.413,Main,2022.1.1,59.97159745095168,
neutral,negative,1,k,k,,,,,,,,,9,1,163,7,,,,,,,,,,,,,,,,,,,,,,,,main,2,2,1,negative,neutral,k,k,1,0.9488529999998718,467.5477856000016,468.57053950000045,468.5291493000004,None,467.5477856000016,None,467.5477856000016,None,467.5477856000016,None,469.4736176400003,None,469.4736176400003,None,469.4736176400003,None,,,,,,,,,,,218,25,Male,2022-05-17_15h48.55.413,Main,2022.1.1,59.97159745095168,
negative,negative,1,j,l,,,,,,,,,9,2,164,0,,,,,,,,,,,,,,,,,,,,,,,,main,1,1,1,negative,negative,j,j,1,0.8982359999990877,469.49830420000035,470.5189310000005,470.47752709999986,None,469.49830420000035,None,469.49830420000035,None,469.49830420000035,None,471.3738427400005,None,471.3738427400005,None,471.3738427400005,None,,,,,,,,,,,218,25,Male,2022-05-17_15h48.55.413,Main,2022.1.1,59.97159745095168,
positive,positive,2,l,j,,,,,,,,,9,3,165,11,,,,,,,,,,,,,,,,,,,,,,,,main,2,2,2,positive,positive,l,l,1,0.7627869999996619,471.39593419999983,472.40221400000155,472.3807777000002,None,471.39593419999983,None,471.39593419999983,None,471.39593419999983,None,473.1382253400008,None,473.1382253400008,None,473.1382253400008,None,,,,,,,,,,,218,25,Male,2022-05-17_15h48.55.413,Main,2022.1.1,59.97159745095168,
neutral,positive,1,k,k,,,,,,,,,9,4,166,4,,,,,,,,,,,,,,,,,,,,,,,,main,2,2,1,positive,neutral,k,k,1,0.83061699999962,473.1617952000015,474.17762740000035,474.13805180000054,None,473.1617952000015,None,473.1617952000015,None,473.1617952000015,None,474.97211713999985,None,474.97211713999985,None,474.97211713999985,None,,,,,,,,,,,218,25,Male,2022-05-17_15h48.55.413,Main,2022.1.1,59.97159745095168,
negative,neutral,1,j,l,,,,,,,,,9,5,167,3,,,,,,,,,,,,,,,,,,,,,,,,main,2,2,1,neutral,negative,j,j,1,0.7649774000001344,474.99423790000037,476.00755800000115,475.9875339000009,None,474.99423790000037,None,474.99423790000037,None,474.99423790000037,None,476.7389093399999,None,476.7389093399999,None,476.7389093399999,None,,,,,,,,,,,218,25,Male,2022-05-17_15h48.55.413,Main,2022.1.1,59.97159745095168,
negative,positive,2,j,l,,,,,,,,,9,6,168,15,,,,,,,,,,,,,,,,,,,,,,,,main,1,1,2,positive,negative,j,j,1,1.0185157000014442,476.76205160000063,477.7842954000007,477.74202570000125,None,476.76205160000063,None,476.76205160000063,None,476.76205160000063,None,478.7636862400015,None,478.7636862400015,None,478.7636862400015,None,,,,,,,,,,,218,25,Male,2022-05-17_15h48.55.413,Main,2022.1.1,59.97159745095168,
negative,neutral,2,j,l,,,,,,,,,9,7,169,12,,,,,,,,,,,,,,,,,,,,,,,,main,1,1,2,neutral,negative,j,j,1,0.6608366999989812,478.7838429000003,479.7965210000002,479.7756711000002,None,478.7838429000003,None,478.7838429000003,None,478.7838429000003,None,480.42688474000005,None,480.42688474000005,None,480.42688474000005,None,,,,,,,,,,,218,25,Male,2022-05-17_15h48.55.413,Main,2022.1.1,59.97159745095168,
positive,positive,1,l,j,,,,,,,,,9,8,170,2,,,,,,,,,,,,,,,,,,,,,,,,main,2,2,1,positive,positive,l,l,1,0.7021463999990374,480.4482871,481.4536220000009,481.4318079000004,None,480.4482871,None,480.4482871,None,480.4482871,None,482.1313529400015,None,482.1313529400015,None,482.1313529400015,None,,,,,,,,,,,218,25,Male,2022-05-17_15h48.55.413,Main,2022.1.1,59.97159745095168,
positive,neutral,2,l,j,,,,,,,,,9,9,171,17,,,,,,,,,,,,,,,,,,,,,,,,main,2,2,2,neutral,positive,l,l,1,0.6212281999996776,482.1525459000004,483.1566997000009,483.1372353000006,None,482.1525459000004,None,482.1525459000004,None,482.1525459000004,None,483.7551814400014,None,483.7551814400014,None,483.7551814400014,None,,,,,,,,,,,218,25,Male,2022-05-17_15h48.55.413,Main,2022.1.1,59.97159745095168,
neutral,negative,2,k,k,,,,,,,,,9,10,172,16,,,,,,,,,,,,,,,,,,,,,,,,main,1,1,2,negative,neutral,k,k,1,0.7491024999999354,483.7765227,484.79385790000015,484.7542983000003,None,483.7765227,None,483.7765227,None,483.7765227,None,485.50967534000137,None,485.50967534000137,None,485.50967534000137,None,,,,,,,,,,,218,25,Male,2022-05-17_15h48.55.413,Main,2022.1.1,59.97159745095168,
positive,neutral,1,l,j,,,,,,,,,9,11,173,8,,,,,,,,,,,,,,,,,,,,,,,,main,1,1,1,neutral,positive,l,l,1,0.7949645999997301,485.53369400000156,486.5556050000014,486.51370680000036,None,485.53369400000156,None,485.53369400000156,None,485.53369400000156,None,487.3044547400006,None,487.3044547400006,None,487.3044547400006,None,,,,,,,,,,,218,25,Male,2022-05-17_15h48.55.413,Main,2022.1.1,59.97159745095168,
negative,positive,1,j,l,,,,,,,,,9,12,174,6,,,,,,,,,,,,,,,,,,,,,,,,main,1,1,1,positive,negative,j,j,1,1.287110400000529,487.32653160000154,488.3321218000001,488.30934630000047,None,487.32653160000154,None,487.32653160000154,None,487.32653160000154,None,489.5966592400002,None,489.5966592400002,None,489.5966592400002,None,,,,,,,,,,,218,25,Male,2022-05-17_15h48.55.413,Main,2022.1.1,59.97159745095168,
neutral,neutral,1,k,k,,,,,,,,,9,13,175,1,,,,,,,,,,,,,,,,,,,,,,,,main,2,2,1,neutral,neutral,k,k,1,0.8481823000001896,489.61835770000107,490.63262340000074,490.61172570000053,None,489.61835770000107,None,489.61835770000107,None,489.61835770000107,None,491.44902294,None,491.44902294,None,491.44902294,None,,,,,,,,,,,218,25,Male,2022-05-17_15h48.55.413,Main,2022.1.1,59.97159745095168,
positive,negative,2,l,j,,,,,,,,,9,14,176,14,,,,,,,,,,,,,,,,,,,,,,,,main,2,2,2,negative,positive,l,l,1,2.3256929999988643,491.46964430000116,492.47181230000024,492.4521865000006,None,491.46964430000116,None,491.46964430000116,None,491.46964430000116,None,494.7859602000008,None,494.7859602000008,None,494.7859602000008,None,,,,,,,,,,,218,25,Male,2022-05-17_15h48.55.413,Main,2022.1.1,59.97159745095168,
positive,negative,1,l,j,,,,,,,,,9,15,177,5,,,,,,,,,,,,,,,,,,,,,,,,main,2,2,1,negative,positive,l,l,1,0.7536655999992945,495.8068965000002,496.8249659000012,496.78563320000103,None,495.8068965000002,None,495.8068965000002,None,495.8068965000002,None,497.54168284000133,None,497.54168284000133,None,497.54168284000133,None,,,,,,,,,,,218,25,Male,2022-05-17_15h48.55.413,Main,2022.1.1,59.97159745095168,
negative,negative,2,j,l,,,,,,,,,9,16,178,9,,,,,,,,,,,,,,,,,,,,,,,,main,2,2,2,negative,negative,j,j,1,0.8757988999986992,497.5631506000009,498.5668375000005,498.54642260000037,None,497.5631506000009,None,497.5631506000009,None,497.5631506000009,None,499.41815034000155,None,499.41815034000155,None,499.41815034000155,None,,,,,,,,,,,218,25,Male,2022-05-17_15h48.55.413,Main,2022.1.1,59.97159745095168,
neutral,neutral,2,k,k,,,,,,,,,9,17,179,10,,,,,,,,,,,,,,,,,,,,,,,,main,1,1,2,neutral,neutral,k,k,1,0.6991607999989355,499.4408736000005,500.4513901999999,500.43132270000024,None,499.4408736000005,None,499.4408736000005,None,499.4408736000005,None,501.12302654000104,None,501.12302654000104,None,501.12302654000104,None,,,,,,,,,,,218,25,Male,2022-05-17_15h48.55.413,Main,2022.1.1,59.97159745095168,
negative,positive,2,j,l,,,,,,,,,10,0,180,15,,,,,,,,,,,,,,,,,,,,,,,,main,1,1,2,positive,negative,j,j,1,0.9677054000003409,501.14640990000044,502.1557743000012,502.13592920000156,None,501.14640990000044,None,501.14640990000044,None,501.14640990000044,None,503.0933817400002,None,503.0933817400002,None,503.0933817400002,None,,,,,,,,,,,218,25,Male,2022-05-17_15h48.55.413,Main,2022.1.1,59.97159745095168,
neutral,negative,1,k,k,,,,,,,,,10,1,181,7,,,,,,,,,,,,,,,,,,,,,,,,main,1,1,1,negative,neutral,k,k,1,0.8228070000004664,503.1150567000004,504.1344603000016,504.09427400000095,None,503.1150567000004,None,503.1150567000004,None,503.1150567000004,None,504.91575364,None,504.91575364,None,504.91575364,None,,,,,,,,,,,218,25,Male,2022-05-17_15h48.55.413,Main,2022.1.1,59.97159745095168,
negative,positive,1,j,l,,,,,,,,,10,2,182,6,,,,,,,,,,,,,,,,,,,,,,,,main,2,2,1,positive,negative,j,j,1,0.9502303000008396,504.93754330000047,505.9399661000007,505.9206640000011,None,504.93754330000047,None,504.93754330000047,None,504.93754330000047,None,506.86869144000065,None,506.86869144000065,None,506.86869144000065,None,,,,,,,,,,,218,25,Male,2022-05-17_15h48.55.413,Main,2022.1.1,59.97159745095168,
positive,neutral,2,l,j,,,,,,,,,10,3,183,17,,,,,,,,,,,,,,,,,,,,,,,,main,1,1,2,neutral,positive,l,j,0,1.1437511000003724,506.8907725000008,507.9109066000001,507.8694765,None,506.8907725000008,None,506.8907725000008,None,506.8907725000008,None,509.02333929999986,None,509.02333929999986,None,509.02333929999986,None,,,,,,,,,,,218,25,Male,2022-05-17_15h48.55.413,Main,2022.1.1,59.97159745095168,
positive,negative,1,l,j,,,,,,,,,10,4,184,5,,,,,,,,,,,,,,,,,,,,,,,,main,2,2,1,negative,positive,l,l,1,0.9098782999990362,510.0395019000007,511.0451238000005,511.02384359999996,None,510.0395019000007,None,510.0395019000007,None,510.0395019000007,None,511.9284117400004,None,511.9284117400004,None,511.9284117400004,None,,,,,,,,,,,218,25,Male,2022-05-17_15h48.55.413,Main,2022.1.1,59.97159745095168,
neutral,positive,1,k,k,,,,,,,,,10,5,185,4,,,,,,,,,,,,,,,,,,,,,,,,main,2,2,1,positive,neutral,k,k,1,0.871154899999965,511.95088170000054,512.9613345000016,512.9395949000009,None,511.95088170000054,None,511.95088170000054,None,511.95088170000054,None,513.8056228400003,None,513.8056228400003,None,513.8056228400003,None,,,,,,,,,,,218,25,Male,2022-05-17_15h48.55.413,Main,2022.1.1,59.97159745095168,
negative,negative,1,j,l,,,,,,,,,10,6,186,0,,,,,,,,,,,,,,,,,,,,,,,,main,2,2,1,negative,negative,j,j,1,0.8897199999992154,513.8263207,514.8354446000012,514.8150248000002,None,513.8263207,None,513.8263207,None,513.8263207,None,515.6962119400016,None,515.6962119400016,None,515.6962119400016,None,,,,,,,,,,,218,25,Male,2022-05-17_15h48.55.413,Main,2022.1.1,59.97159745095168,
positive,positive,1,l,j,,,,,,,,,10,7,187,2,,,,,,,,,,,,,,,,,,,,,,,,main,1,1,1,positive,positive,l,l,1,1.0004052000003867,515.7189530000014,516.7225307000008,516.7030529000003,None,515.7189530000014,None,515.7189530000014,None,515.7189530000014,None,517.69886144,None,517.69886144,None,517.69886144,None,,,,,,,,,,,218,25,Male,2022-05-17_15h48.55.413,Main,2022.1.1,59.97159745095168,
negative,neutral,1,j,l,,,,,,,,,10,8,188,3,,,,,,,,,,,,,,,,,,,,,,,,main,2,2,1,neutral,negative,j,j,1,0.8988716999992903,517.7199762,518.7415243000014,518.6997976000002,None,517.7199762,None,517.7199762,None,517.7199762,None,519.6003718400009,None,519.6003718400009,None,519.6003718400009,None,,,,,,,,,,,218,25,Male,2022-05-17_15h48.55.413,Main,2022.1.1,59.97159745095168,
positive,neutral,1,l,j,,,,,,,,,10,9,189,8,,,,,,,,,,,,,,,,,,,,,,,,main,2,2,1,neutral,positive,l,l,1,0.9779851000002964,519.6263771000013,520.641715400001,520.6004277000011,None,519.6263771000013,None,519.6263771000013,None,519.6263771000013,None,521.5805212400012,None,521.5805212400012,None,521.5805212400012,None,,,,,,,,,,,218,25,Male,2022-05-17_15h48.55.413,Main,2022.1.1,59.97159745095168,
neutral,neutral,2,k,k,,,,,,,,,10,10,190,10,,,,,,,,,,,,,,,,,,,,,,,,main,1,1,2,neutral,neutral,k,k,1,0.6063404000014998,521.6023841000006,522.6193789000008,522.5790560000005,None,521.6023841000006,None,521.6023841000006,None,521.6023841000006,None,523.1917526400014,None,523.1917526400014,None,523.1917526400014,None,,,,,,,,,,,218,25,Male,2022-05-17_15h48.55.413,Main,2022.1.1,59.97159745095168,
neutral,neutral,1,k,k,,,,,,,,,10,11,191,1,,,,,,,,,,,,,,,,,,,,,,,,main,1,1,1,neutral,neutral,k,k,1,1.5044268000001466,523.2142610999999,524.2290232000014,524.2077791000011,None,523.2142610999999,None,523.2142610999999,None,523.2142610999999,None,525.703459100001,None,525.703459100001,None,525.703459100001,None,,,,,,,,,,,218,25,Male,2022-05-17_15h48.55.413,Main,2022.1.1,59.97159745095168,
positive,negative,2,l,j,,,,,,,,,10,12,192,14,,,,,,,,,,,,,,,,,,,,,,,,main,1,1,2,negative,positive,l,j,0,1.0704236000001401,526.719345200001,527.7336510000005,527.7142116000014,None,526.719345200001,None,526.719345200001,None,526.719345200001,None,528.7787402000013,None,528.7787402000013,None,528.7787402000013,None,,,,,,,,,,,218,25,Male,2022-05-17_15h48.55.413,Main,2022.1.1,59.97159745095168,
positive,positive,2,l,j,,,,,,,,,10,13,193,11,,,,,,,,,,,,,,,,,,,,,,,,main,1,1,2,positive,positive,l,j,0,1.2208219000003737,529.8028158000016,530.8169728000012,530.7972930000014,None,529.8028158000016,None,529.8028158000016,None,529.8028158000016,None,532.0103685000013,None,532.0103685000013,None,532.0103685000013,None,,,,,,,,,,,218,25,Male,2022-05-17_15h48.55.413,Main,2022.1.1,59.97159745095168,
negative,negative,2,j,l,,,,,,,,,10,14,194,9,,,,,,,,,,,,,,,,,,,,,,,,main,2,2,2,negative,negative,j,k,0,1.4493044999999256,533.0388085000013,534.0581115000005,534.0165691000002,None,533.0388085000013,None,533.0388085000013,None,533.0388085000013,None,535.4681080000009,None,535.4681080000009,None,535.4681080000009,None,,,,,,,,,,,218,25,Male,2022-05-17_15h48.55.413,Main,2022.1.1,59.97159745095168,
neutral,positive,2,k,k,,,,,,,,,10,15,195,13,,,,,,,,,,,,,,,,,,,,,,,,main,2,2,2,positive,neutral,k,k,1,1.5695066999996925,536.4857614000011,537.4979142000011,537.4775538000013,None,536.4857614000011,None,536.4857614000011,None,536.4857614000011,None,539.0440320000016,None,539.0440320000016,None,539.0440320000016,None,,,,,,,,,,,218,25,Male,2022-05-17_15h48.55.413,Main,2022.1.1,59.97159745095168,
negative,neutral,2,j,l,,,,,,,,,10,16,196,12,,,,,,,,,,,,,,,,,,,,,,,,main,1,1,2,neutral,negative,j,j,1,1.8277808000002551,540.0675657000011,541.0884297000011,541.0468295999999,None,540.0675657000011,None,540.0675657000011,None,540.0675657000011,None,542.8797823000004,None,542.8797823000004,None,542.8797823000004,None,,,,,,,,,,,218,25,Male,2022-05-17_15h48.55.413,Main,2022.1.1,59.97159745095168,
neutral,negative,2,k,k,,,,,,,,,10,17,197,16,,,,,,,,,,,,,,,,,,,,,,,,main,1,1,2,negative,neutral,k,k,1,0.8902964999997494,543.9009043000005,544.9150404000011,544.8949604999998,None,543.9009043000005,None,543.9009043000005,None,543.9009043000005,None,545.7719950400008,None,545.7719950400008,None,545.7719950400008,None,,,,,,,,,,,218,25,Male,2022-05-17_15h48.55.413,Main,2022.1.1,59.97159745095168,
negative,negative,2,j,l,,,,,,,,,11,0,198,9,,,,,,,,,,,,,,,,,,,,,,,,main,2,2,2,negative,negative,j,j,1,0.9900465999999142,545.7932150000015,546.8093637000002,546.7672555000008,None,545.7932150000015,None,545.7932150000015,None,545.7932150000015,None,547.7637165400013,None,547.7637165400013,None,547.7637165400013,None,,,,,,,,,,,218,25,Male,2022-05-17_15h48.55.413,Main,2022.1.1,59.97159745095168,
neutral,positive,2,k,k,,,,,,,,,11,1,199,13,,,,,,,,,,,,,,,,,,,,,,,,main,1,1,2,positive,neutral,k,k,1,0.7930989999986195,547.7846797000002,548.8011715000011,548.7617739000016,None,547.7846797000002,None,547.7846797000002,None,547.7846797000002,None,549.5594350400008,None,549.5594350400008,None,549.5594350400008,None,,,,,,,,,,,218,25,Male,2022-05-17_15h48.55.413,Main,2022.1.1,59.97159745095168,
negative,neutral,1,j,l,,,,,,,,,11,2,200,3,,,,,,,,,,,,,,,,,,,,,,,,main,1,1,1,neutral,negative,j,j,1,0.8375971000004938,549.5814307,550.6006044000005,550.5611208000009,None,549.5814307,None,549.5814307,None,549.5814307,None,551.3978451400001,None,551.3978451400001,None,551.3978451400001,None,,,,,,,,,,,218,25,Male,2022-05-17_15h48.55.413,Main,2022.1.1,59.97159745095168,
positive,neutral,1,l,j,,,,,,,,,11,3,201,8,,,,,,,,,,,,,,,,,,,,,,,,main,2,2,1,neutral,positive,l,l,1,0.8578480000014679,551.4255264000003,552.4284595000008,552.4087060000002,None,551.4255264000003,None,551.4255264000003,None,551.4255264000003,None,553.2597968400007,None,553.2597968400007,None,553.2597968400007,None,,,,,,,,,,,218,25,Male,2022-05-17_15h48.55.413,Main,2022.1.1,59.97159745095168,
negative,negative,1,j,l,,,,,,,,,11,4,202,0,,,,,,,,,,,,,,,,,,,,,,,,main,1,1,1,negative,negative,j,j,1,0.8850918000007368,553.2814405000008,554.2884346999999,554.2674662000009,None,553.2814405000008,None,553.2814405000008,None,553.2814405000008,None,555.1472552400012,None,555.1472552400012,None,555.1472552400012,None,,,,,,,,,,,218,25,Male,2022-05-17_15h48.55.413,Main,2022.1.1,59.97159745095168,
positive,neutral,2,l,j,,,,,,,,,11,5,203,17,,,,,,,,,,,,,,,,,,,,,,,,main,2,2,2,neutral,positive,l,l,1,1.4781617999997252,555.1733209000013,556.1883501000011,556.1471348000014,None,555.1733209000013,None,555.1733209000013,None,555.1733209000013,None,557.6276450400003,None,557.6276450400003,None,557.6276450400003,None,,,,,,,,,,,218,25,Male,2022-05-17_15h48.55.413,Main,2022.1.1,59.97159745095168,
negative,positive,2,j,l,,,,,,,,,11,6,204,15,,,,,,,,,,,,,,,,,,,,,,,,main,2,2,2,positive,negative,j,j,1,0.8778658999999607,557.6535062000003,558.6673467,558.6280947000014,None,557.6535062000003,None,557.6535062000003,None,557.6535062000003,None,559.5078251400012,None,559.5078251400012,None,559.5078251400012,None,,,,,,,,,,,218,25,Male,2022-05-17_15h48.55.413,Main,2022.1.1,59.97159745095168,
positive,negative,2,l,j,,,,,,,,,11,7,205,14,,,,,,,,,,,,,,,,,,,,,,,,main,1,1,2,negative,positive,l,l,1,1.0957244000001083,559.5312649000007,560.5493165000007,560.5100047000014,None,559.5312649000007,None,559.5312649000007,None,559.5312649000007,None,561.6079106400014,None,561.6079106400014,None,561.6079106400014,None,,,,,,,,,,,218,25,Male,2022-05-17_15h48.55.413,Main,2022.1.1,59.97159745095168,
neutral,negative,2,k,k,,,,,,,,,11,8,206,16,,,,,,,,,,,,,,,,,,,,,,,,main,1,1,2,negative,neutral,k,k,1,0.7750214999996388,561.6315822000015,562.6535681000005,562.6131959000013,None,561.6315822000015,None,561.6315822000015,None,561.6315822000015,None,563.3885043400007,None,563.3885043400007,None,563.3885043400007,None,,,,,,,,,,,218,25,Male,2022-05-17_15h48.55.413,Main,2022.1.1,59.97159745095168,
negative,positive,1,j,l,,,,,,,,,11,9,207,6,,,,,,,,,,,,,,,,,,,,,,,,main,1,1,1,positive,negative,j,j,1,0.9878060999999434,563.4121100000011,564.4191339000008,564.3975595000011,None,563.4121100000011,None,563.4121100000011,None,563.4121100000011,None,565.3786286400011,None,565.3786286400011,None,565.3786286400011,None,,,,,,,,,,,218,25,Male,2022-05-17_15h48.55.413,Main,2022.1.1,59.97159745095168,
neutral,positive,1,k,k,,,,,,,,,11,10,208,4,,,,,,,,,,,,,,,,,,,,,,,,main,2,2,1,positive,neutral,k,k,1,1.0294465000006312,565.4049501999998,566.4271681999999,566.3852943000002,None,565.4049501999998,None,565.4049501999998,None,565.4049501999998,None,567.41054044,None,567.41054044,None,567.41054044,None,,,,,,,,,,,218,25,Male,2022-05-17_15h48.55.413,Main,2022.1.1,59.97159745095168,
positive,positive,2,l,j,,,,,,,,,11,11,209,11,,,,,,,,,,,,,,,,,,,,,,,,main,2,2,2,positive,positive,l,l,1,0.6872690000000148,567.4375008000006,568.4431698000008,568.4237582000005,None,567.4375008000006,None,567.4375008000006,None,567.4375008000006,None,569.1033849400012,None,569.1033849400012,None,569.1033849400012,None,,,,,,,,,,,218,25,Male,2022-05-17_15h48.55.413,Main,2022.1.1,59.97159745095168,
neutral,neutral,2,k,k,,,,,,,,,11,12,210,10,,,,,,,,,,,,,,,,,,,,,,,,main,2,2,2,neutral,neutral,k,k,1,1.0935596999988775,569.127000800001,570.1350124,570.1139555000009,None,569.127000800001,None,569.127000800001,None,569.127000800001,None,571.2012267400007,None,571.2012267400007,None,571.2012267400007,None,,,,,,,,,,,218,25,Male,2022-05-17_15h48.55.413,Main,2022.1.1,59.97159745095168,
