target,distractor,set,ans1,ans2,rep_loop2.thisRepN,rep_loop2.thisTrialN,rep_loop2.thisN,rep_loop2.thisIndex,flanker_prac_loop.thisRepN,flanker_prac_loop.thisTrialN,flanker_prac_loop.thisN,flanker_prac_loop.thisIndex,flanker_main_loop.thisRepN,flanker_main_loop.thisTrialN,flanker_main_loop.thisN,flanker_main_loop.thisIndex,fl_inst_resp.keys,mouse.x,mouse.y,mouse.leftButton,mouse.midButton,mouse.rightButton,mouse.started,mouse.stopped,sound_1.started,sound_1.stopped,no_text.started,no_text.stopped,yes_text.started,yes_text.stopped,mouse_2.x,mouse_2.y,mouse_2.leftButton,mouse_2.midButton,mouse_2.rightButton,mouse_2.started,mouse_2.stopped,back_2.started,back_2.stopped,main_prac,fl_cold,fl_colt,fl_set,fl_dcond,fl_tcond,fl_ans,fl_res,fl_corr,fl_rt,fix_fl.started,fix_fl.stopped,targ.started,targ.stopped,j_button.started,j_button.stopped,k_button.started,k_button.stopped,l_button.started,l_button.stopped,j_button2.started,j_button2.stopped,k_button2.started,k_button2.stopped,l_button2.started,l_button2.stopped,mainback.started,mainback.stopped,key_resp.keys,mouse_6.x,mouse_6.y,mouse_6.leftButton,mouse_6.midButton,mouse_6.rightButton,mouse_6.started,mouse_6.stopped,id*,age*,gender*,date,expName,psychopyVersion,frameRate,
,,,,,0,0,0,0,,,,,,,,,None,0.03888889,-0.39814815,0,0,0,1.0061900600135232,None,23.34154998999975,None,73.13775110000006,None,73.13775110000006,None,-0.08425926,-0.032407407,0,0,0,0.01263829000026817,None,,,,,,,,,,,,,,,,,,,,,,,,,,,,,,,,,,,,,,,219,21,Female,2022-05-18_16h32.51.466,Main,2022.1.1,60.00056400528521,
negative,neutral,2,j,l,,,,,0,0,0,12,,,,,,,,,,,,,,,,,,,,,,,,,,76.1182933,None,prac,2,2,2,neutral,negative,l,l,1,1.5175818999996409,78.1761535999999,79.17731559999993,79.15861180000002,None,78.1761535999999,None,78.1761535999999,None,78.1761535999999,None,80.67825420000008,None,80.67825420000008,None,80.67825420000008,None,,,,,,,,,,,219,21,Female,2022-05-18_16h32.51.466,Main,2022.1.1,60.00056400528521,
neutral,negative,2,k,k,,,,,0,1,1,16,,,,,,,,,,,,,,,,,,,,,,,,,,,,prac,1,1,2,negative,neutral,k,k,1,1.2252496999999494,81.71933910000007,82.72576729999992,82.7065349999998,None,81.71933910000007,None,81.71933910000007,None,81.71933910000007,None,83.90301658999988,None,83.90301658999988,None,83.90301658999988,None,,,,,,,,,,,219,21,Female,2022-05-18_16h32.51.466,Main,2022.1.1,60.00056400528521,
positive,neutral,2,l,j,,,,,0,2,2,17,,,,,,,,,,,,,,,,,,,,,,,,,,,,prac,1,1,2,neutral,positive,j,j,1,0.9563796000002185,83.93990739999981,84.94779769999968,84.92898849999983,None,83.93990739999981,None,83.93990739999981,None,83.93990739999981,None,85.86420508999981,None,85.86420508999981,None,85.86420508999981,None,,,,,,,,,,,219,21,Female,2022-05-18_16h32.51.466,Main,2022.1.1,60.00056400528521,
negative,positive,1,j,l,,,,,0,3,3,6,,,,,,,,,,,,,,,,,,,,,,,,,,,,prac,1,1,1,positive,negative,l,l,1,0.7844261000000188,85.9058543000001,86.92279999999982,86.88301629999978,None,85.9058543000001,None,85.9058543000001,None,85.9058543000001,None,87.6502572899999,None,87.6502572899999,None,87.6502572899999,None,,,,,,,,,,,219,21,Female,2022-05-18_16h32.51.466,Main,2022.1.1,60.00056400528521,
positive,positive,1,l,j,,,,,0,4,4,2,,,,,,,,,,,,,,,,,,,,,,,,,,,,prac,2,2,1,positive,positive,j,j,1,0.826944999999796,87.68841679999969,88.69918929999994,88.66051209999978,None,87.68841679999969,None,87.68841679999969,None,87.68841679999969,None,89.47637699000006,None,89.47637699000006,None,89.47637699000006,None,,,,,,,,,,,219,21,Female,2022-05-18_16h32.51.466,Main,2022.1.1,60.00056400528521,
negative,negative,1,j,l,,,,,0,5,5,0,,,,,,,,,,,,,,,,,,,,,,,,,,,,prac,2,2,1,negative,negative,l,l,1,0.775699700000132,89.51534700000002,90.53098219999993,90.49164530000007,None,89.51534700000002,None,89.51534700000002,None,89.51534700000002,None,91.25549898999998,None,91.25549898999998,None,91.25549898999998,None,,,,,,,,,,,219,21,Female,2022-05-18_16h32.51.466,Main,2022.1.1,60.00056400528521,
neutral,negative,1,k,k,,,,,0,6,6,7,,,,,,,,,,,,,,,,,,,,,,,,,,,,prac,1,1,1,negative,neutral,k,k,1,0.7906018999997286,91.29468739999993,92.31234429999995,92.27483419999999,None,91.29468739999993,None,91.29468739999993,None,91.29468739999993,None,93.05037788999971,None,93.05037788999971,None,93.05037788999971,None,,,,,,,,,,,219,21,Female,2022-05-18_16h32.51.466,Main,2022.1.1,60.00056400528521,
negative,negative,2,j,l,,,,,0,7,7,9,,,,,,,,,,,,,,,,,,,,,,,,,,,,prac,2,2,2,negative,negative,l,l,1,0.7645255999996152,93.08273569999983,94.0998184,94.08073599999989,None,93.08273569999983,None,93.08273569999983,None,93.08273569999983,None,94.81555819000005,None,94.81555819000005,None,94.81555819000005,None,,,,,,,,,,,219,21,Female,2022-05-18_16h32.51.466,Main,2022.1.1,60.00056400528521,
neutral,neutral,2,k,k,,,,,0,8,8,10,,,,,,,,,,,,,,,,,,,,,,,,,,,,prac,1,1,2,neutral,neutral,k,k,1,0.7426878000001125,94.83723139999984,95.84230829999979,95.82306870000002,None,94.83723139999984,None,94.83723139999984,None,94.83723139999984,None,96.55962709000005,None,96.55962709000005,None,96.55962709000005,None,,,,,,,,,,,219,21,Female,2022-05-18_16h32.51.466,Main,2022.1.1,60.00056400528521,
negative,positive,2,j,l,,,,,0,9,9,15,,,,,,,,,,,,,,,,,,,,,,,,,,,,prac,2,2,2,positive,negative,l,l,1,0.8275478999998995,96.59516299999996,97.60681509999995,97.58772169999975,None,96.59516299999996,None,96.59516299999996,None,96.59516299999996,None,98.38959498999975,None,98.38959498999975,None,98.38959498999975,None,,,,,,,,,,,219,21,Female,2022-05-18_16h32.51.466,Main,2022.1.1,60.00056400528521,
neutral,positive,1,k,k,,,,,0,10,10,4,,,,,,,,,,,,,,,,,,,,,,,,,,,,prac,2,2,1,positive,neutral,k,k,1,0.7077057999999852,98.42178759999979,99.43846069999972,99.41826649999985,None,98.42178759999979,None,98.42178759999979,None,98.42178759999979,None,100.1012878900001,None,100.1012878900001,None,100.1012878900001,None,,,,,,,,,,,219,21,Female,2022-05-18_16h32.51.466,Main,2022.1.1,60.00056400528521,
positive,negative,1,l,j,,,,,0,11,11,5,,,,,,,,,,,,,,,,,,,,,,,,,,,,prac,2,2,1,negative,positive,j,j,1,0.7284819999999854,100.12212199999976,101.12879429999975,101.11186899999984,None,100.12212199999976,None,100.12212199999976,None,100.12212199999976,None,101.83456308999985,None,101.83456308999985,None,101.83456308999985,None,,,,,,,,,,,219,21,Female,2022-05-18_16h32.51.466,Main,2022.1.1,60.00056400528521,
neutral,positive,2,k,k,,,,,0,12,12,13,,,,,,,,,,,,,,,,,,,,,,,,,,,,prac,2,2,2,positive,neutral,k,k,1,0.7104700999998386,101.85571350000009,102.86212660000001,102.84321099999988,None,101.85571350000009,None,101.85571350000009,None,101.85571350000009,None,103.54858689000002,None,103.54858689000002,None,103.54858689000002,None,,,,,,,,,,,219,21,Female,2022-05-18_16h32.51.466,Main,2022.1.1,60.00056400528521,
neutral,neutral,1,k,k,,,,,0,13,13,1,,,,,,,,,,,,,,,,,,,,,,,,,,,,prac,2,2,1,neutral,neutral,k,k,1,0.8881476000001385,103.58261529999982,104.5965143999997,104.57604709999987,None,103.58261529999982,None,103.58261529999982,None,103.58261529999982,None,105.4372814899998,None,105.4372814899998,None,105.4372814899998,None,,,,,,,,,,,219,21,Female,2022-05-18_16h32.51.466,Main,2022.1.1,60.00056400528521,
positive,neutral,1,l,j,,,,,0,14,14,8,,,,,,,,,,,,,,,,,,,,,,,,,,,,prac,2,2,1,neutral,positive,j,j,1,0.7342025999996622,105.4593789999999,106.47277399999984,106.43352049999976,None,105.4593789999999,None,105.4593789999999,None,105.4593789999999,None,107.17406948999997,None,107.17406948999997,None,107.17406948999997,None,,,,,,,,,,,219,21,Female,2022-05-18_16h32.51.466,Main,2022.1.1,60.00056400528521,
positive,negative,2,l,j,,,,,0,15,15,14,,,,,,,,,,,,,,,,,,,,,,,,,,,,prac,1,1,2,negative,positive,j,j,1,0.8840630999998211,107.19861889999993,108.21077100000002,108.1727179999998,None,107.19861889999993,None,107.19861889999993,None,107.19861889999993,None,109.06062569000005,None,109.06062569000005,None,109.06062569000005,None,,,,,,,,,,,219,21,Female,2022-05-18_16h32.51.466,Main,2022.1.1,60.00056400528521,
negative,neutral,1,j,l,,,,,0,16,16,3,,,,,,,,,,,,,,,,,,,,,,,,,,,,prac,2,2,1,neutral,negative,l,l,1,0.7912867000000006,109.08426079999981,110.08846719999974,110.06895129999975,None,109.08426079999981,None,109.08426079999981,None,109.08426079999981,None,110.8531606900001,None,110.8531606900001,None,110.8531606900001,None,,,,,,,,,,,219,21,Female,2022-05-18_16h32.51.466,Main,2022.1.1,60.00056400528521,
positive,positive,2,l,j,,,,,0,17,17,11,,,,,,,,,,,,,,,,,,,,,,,,,,,,prac,2,2,2,positive,positive,j,j,1,0.7911907000002429,110.87443399999984,111.89117820000001,111.8535254999997,None,110.87443399999984,None,110.87443399999984,None,110.87443399999984,None,112.6490574899999,None,112.6490574899999,None,112.6490574899999,None,,,,,,,,,,,219,21,Female,2022-05-18_16h32.51.466,Main,2022.1.1,60.00056400528521,
positive,negative,1,l,j,,,,,1,0,18,5,,,,,,,,,,,,,,,,,,,,,,,,,,,,prac,2,2,1,negative,positive,j,j,1,0.8626275999999962,112.6685239999997,113.67481980000002,113.65621049999982,None,112.6685239999997,None,112.6685239999997,None,112.6685239999997,None,114.51384398999971,None,114.51384398999971,None,114.51384398999971,None,,,,,,,,,,,219,21,Female,2022-05-18_16h32.51.466,Main,2022.1.1,60.00056400528521,
neutral,neutral,1,k,k,,,,,1,1,19,1,,,,,,,,,,,,,,,,,,,,,,,,,,,,prac,1,1,1,neutral,neutral,k,k,1,0.6545990999998139,114.54771359999995,115.56822310000007,115.52796510000007,None,114.54771359999995,None,114.54771359999995,None,114.54771359999995,None,116.16862508999975,None,116.16862508999975,None,116.16862508999975,None,,,,,,,,,,,219,21,Female,2022-05-18_16h32.51.466,Main,2022.1.1,60.00056400528521,
negative,negative,2,j,l,,,,,1,2,20,9,,,,,,,,,,,,,,,,,,,,,,,,,,,,prac,1,1,2,negative,negative,l,l,1,0.6972083999999086,116.18878969999969,117.19074309999996,117.17195300000003,None,116.18878969999969,None,116.18878969999969,None,116.18878969999969,None,117.86839478999991,None,117.86839478999991,None,117.86839478999991,None,,,,,,,,,,,219,21,Female,2022-05-18_16h32.51.466,Main,2022.1.1,60.00056400528521,
negative,positive,2,j,l,,,,,1,3,21,15,,,,,,,,,,,,,,,,,,,,,,,,,,,,prac,2,2,2,positive,negative,l,l,1,0.7215534000001753,117.88901080000005,118.90687219999973,118.86845229999972,None,117.88901080000005,None,117.88901080000005,None,117.88901080000005,None,119.59253639000008,None,119.59253639000008,None,119.59253639000008,None,,,,,,,,,,,219,21,Female,2022-05-18_16h32.51.466,Main,2022.1.1,60.00056400528521,
neutral,neutral,2,k,k,,,,,1,4,22,10,,,,,,,,,,,,,,,,,,,,,,,,,,,,prac,2,2,2,neutral,neutral,k,k,1,0.6303195000000414,119.61722579999969,120.62400399999979,120.60500449999972,None,119.61722579999969,None,119.61722579999969,None,119.61722579999969,None,121.22498958999995,None,121.22498958999995,None,121.22498958999995,None,,,,,,,,,,,219,21,Female,2022-05-18_16h32.51.466,Main,2022.1.1,60.00056400528521,
positive,positive,1,l,j,,,,,1,5,23,2,,,,,,,,,,,,,,,,,,,,,,,,,,,,prac,2,2,1,positive,positive,j,j,1,0.6435143999997308,121.24491050000006,122.26554639999995,122.22643870000002,None,121.24491050000006,None,121.24491050000006,None,121.24491050000006,None,122.86979188999976,None,122.86979188999976,None,122.86979188999976,None,,,,,,,,,,,219,21,Female,2022-05-18_16h32.51.466,Main,2022.1.1,60.00056400528521,
negative,neutral,2,j,l,,,,,1,6,24,12,,,,,,,,,,,,,,,,,,,,,,,,,,,,prac,2,2,2,neutral,negative,l,l,1,0.7968433000000914,122.89534490000005,123.89868859999979,123.87920369999983,None,122.89534490000005,None,122.89534490000005,None,122.89534490000005,None,124.66986608999969,None,124.66986608999969,None,124.66986608999969,None,,,,,,,,,,,219,21,Female,2022-05-18_16h32.51.466,Main,2022.1.1,60.00056400528521,
positive,neutral,1,l,j,,,,,1,7,25,8,,,,,,,,,,,,,,,,,,,,,,,,,,,,prac,2,2,1,neutral,positive,j,j,1,0.7338549000000967,124.6917284000001,125.70761450000009,125.6684421,None,124.6917284000001,None,124.6917284000001,None,124.6917284000001,None,126.40626849,None,126.40626849,None,126.40626849,None,,,,,,,,,,,219,21,Female,2022-05-18_16h32.51.466,Main,2022.1.1,60.00056400528521,
neutral,positive,2,k,k,,,,,1,8,26,13,,,,,,,,,,,,,,,,,,,,,,,,,,,,prac,1,1,2,positive,neutral,k,k,1,0.8278853000001618,126.43670320000001,127.4406312000001,127.42125179999994,None,126.43670320000001,None,126.43670320000001,None,126.43670320000001,None,128.23638438999978,None,128.23638438999978,None,128.23638438999978,None,,,,,,,,,,,219,21,Female,2022-05-18_16h32.51.466,Main,2022.1.1,60.00056400528521,
neutral,negative,1,k,k,,,,,1,9,27,7,,,,,,,,,,,,,,,,,,,,,,,,,,,,prac,2,2,1,negative,neutral,k,k,1,0.7304714000001695,128.2571926999999,129.26715280000008,129.2482342999997,None,128.2571926999999,None,128.2571926999999,None,128.2571926999999,None,129.96889138999995,None,129.96889138999995,None,129.96889138999995,None,,,,,,,,,,,219,21,Female,2022-05-18_16h32.51.466,Main,2022.1.1,60.00056400528521,
positive,negative,2,l,j,,,,,1,10,28,14,,,,,,,,,,,,,,,,,,,,,,,,,,,,prac,2,2,2,negative,positive,j,j,1,0.6447481000000153,129.9902321999998,130.99378979999983,130.97403889999987,None,129.9902321999998,None,129.9902321999998,None,129.9902321999998,None,131.61621129000014,None,131.61621129000014,None,131.61621129000014,None,,,,,,,,,,,219,21,Female,2022-05-18_16h32.51.466,Main,2022.1.1,60.00056400528521,
positive,positive,2,l,j,,,,,1,11,29,11,,,,,,,,,,,,,,,,,,,,,,,,,,,,prac,1,1,2,positive,positive,j,j,1,0.7619022000003497,131.6362577,132.6437794999997,132.6240386999998,None,131.6362577,None,131.6362577,None,131.6362577,None,133.38191959000005,None,133.38191959000005,None,133.38191959000005,None,,,,,,,,,,,219,21,Female,2022-05-18_16h32.51.466,Main,2022.1.1,60.00056400528521,
negative,positive,1,j,l,,,,,1,12,30,6,,,,,,,,,,,,,,,,,,,,,,,,,,,,prac,2,2,1,positive,negative,l,l,1,0.6806203999999525,133.40378710000005,134.41956059999984,134.3802224000001,None,133.40378710000005,None,133.40378710000005,None,133.40378710000005,None,135.06586418999996,None,135.06586418999996,None,135.06586418999996,None,,,,,,,,,,,219,21,Female,2022-05-18_16h32.51.466,Main,2022.1.1,60.00056400528521,
negative,neutral,1,j,l,,,,,1,13,31,3,,,,,,,,,,,,,,,,,,,,,,,,,,,,prac,2,2,1,neutral,negative,l,l,1,0.6233987000000525,135.08865359999982,136.09047729999975,136.07155729999977,None,135.08865359999982,None,135.08865359999982,None,135.08865359999982,None,136.69300158999977,None,136.69300158999977,None,136.69300158999977,None,,,,,,,,,,,219,21,Female,2022-05-18_16h32.51.466,Main,2022.1.1,60.00056400528521,
negative,negative,1,j,l,,,,,1,14,32,0,,,,,,,,,,,,,,,,,,,,,,,,,,,,prac,1,1,1,negative,negative,l,l,1,0.5825813999999809,136.71324969999978,137.72498599999972,137.6976824999997,None,136.71324969999978,None,136.71324969999978,None,136.71324969999978,None,138.27809079000008,None,138.27809079000008,None,138.27809079000008,None,,,,,,,,,,,219,21,Female,2022-05-18_16h32.51.466,Main,2022.1.1,60.00056400528521,
positive,neutral,2,l,j,,,,,1,15,33,17,,,,,,,,,,,,,,,,,,,,,,,,,,,,prac,1,1,2,neutral,positive,j,j,1,0.7119720999999117,138.29830319999974,139.30977069999972,139.2715301999997,None,138.29830319999974,None,138.29830319999974,None,138.29830319999974,None,139.99250318999975,None,139.99250318999975,None,139.99250318999975,None,,,,,,,,,,,219,21,Female,2022-05-18_16h32.51.466,Main,2022.1.1,60.00056400528521,
neutral,positive,1,k,k,,,,,1,16,34,4,,,,,,,,,,,,,,,,,,,,,,,,,,,,prac,2,2,1,positive,neutral,k,k,1,0.5959508000000824,140.01187750000008,141.02039190000005,141.00117039999986,None,140.01187750000008,None,140.01187750000008,None,140.01187750000008,None,141.59074198999997,None,141.59074198999997,None,141.59074198999997,None,,,,,,,,,,,219,21,Female,2022-05-18_16h32.51.466,Main,2022.1.1,60.00056400528521,
neutral,negative,2,k,k,,,,,1,17,35,16,,,,,,,,,,,,,,,,,,,,,,,,,,,,prac,2,2,2,negative,neutral,k,k,1,0.7783908999999767,141.61178429999973,142.6322307999999,142.59271089999993,None,141.61178429999973,None,141.61178429999973,None,141.61178429999973,None,143.36924508999982,None,143.36924508999982,None,143.36924508999982,None,,,,,,,,,,,219,21,Female,2022-05-18_16h32.51.466,Main,2022.1.1,60.00056400528521,
,,,,,,,,,,,,,,,,,,,,,,,,,,,,,,,,,,,,,,,,,,,,,,,,,,,,,,,,,,,,,,,,,,143.37827900000002,None,None,,,,,,,,219,21,Female,2022-05-18_16h32.51.466,Main,2022.1.1,60.00056400528521,
,,,,,,,,,,,,,,,,,,,,,,,,,,,,,,,,,,,,,,,,,,,,,,,,,,,,,,,,,,,,,,,,,,,,,0.587963,-0.21296297,1,0,0,0.004610290000073292,None,219,21,Female,2022-05-18_16h32.51.466,Main,2022.1.1,60.00056400528521,
negative,negative,1,j,l,,,,,,,,,0,0,0,0,,,,,,,,,,,,,,,,,,,,,,149.32563009999967,None,main,2,2,1,negative,negative,l,l,1,1.3005599000002803,151.3445128999997,152.34859039999992,152.32982820000007,None,151.3445128999997,None,151.3445128999997,None,151.3445128999997,None,153.62690819,None,153.62690819,None,153.62690819,None,,,,,,,,,,,219,21,Female,2022-05-18_16h32.51.466,Main,2022.1.1,60.00056400528521,
neutral,neutral,2,k,k,,,,,,,,,0,1,1,10,,,,,,,,,,,,,,,,,,,,,,,,main,2,2,2,neutral,neutral,k,k,1,0.7533696000000418,153.65178509999987,154.6586457999997,154.63903200000004,None,153.65178509999987,None,153.65178509999987,None,153.65178509999987,None,155.38461878999988,None,155.38461878999988,None,155.38461878999988,None,,,,,,,,,,,219,21,Female,2022-05-18_16h32.51.466,Main,2022.1.1,60.00056400528521,
positive,positive,2,l,j,,,,,,,,,0,2,2,11,,,,,,,,,,,,,,,,,,,,,,,,main,2,2,2,positive,positive,j,j,1,0.7548701999999139,155.40958180000007,156.4167339999999,156.39646109999967,None,155.40958180000007,None,155.40958180000007,None,155.40958180000007,None,157.14388959000007,None,157.14388959000007,None,157.14388959000007,None,,,,,,,,,,,219,21,Female,2022-05-18_16h32.51.466,Main,2022.1.1,60.00056400528521,
negative,neutral,1,j,l,,,,,,,,,0,3,3,3,,,,,,,,,,,,,,,,,,,,,,,,main,2,2,1,neutral,negative,l,l,1,0.7663487999998324,157.16474049999988,158.17425679999997,158.15437819999988,None,157.16474049999988,None,157.16474049999988,None,157.16474049999988,None,158.91290438999977,None,158.91290438999977,None,158.91290438999977,None,,,,,,,,,,,219,21,Female,2022-05-18_16h32.51.466,Main,2022.1.1,60.00056400528521,
positive,negative,2,l,j,,,,,,,,,0,4,4,14,,,,,,,,,,,,,,,,,,,,,,,,main,1,1,2,negative,positive,j,j,1,0.7696694999999636,158.93365779999976,159.9353612,159.91621880000002,None,158.93365779999976,None,158.93365779999976,None,158.93365779999976,None,160.6876513899997,None,160.6876513899997,None,160.6876513899997,None,,,,,,,,,,,219,21,Female,2022-05-18_16h32.51.466,Main,2022.1.1,60.00056400528521,
negative,negative,2,j,l,,,,,,,,,0,5,5,9,,,,,,,,,,,,,,,,,,,,,,,,main,2,2,2,negative,negative,l,l,1,0.8294421999999031,160.7088564999999,161.72342789999993,161.6844117999999,None,160.7088564999999,None,160.7088564999999,None,160.7088564999999,None,162.52046049,None,162.52046049,None,162.52046049,None,,,,,,,,,,,219,21,Female,2022-05-18_16h32.51.466,Main,2022.1.1,60.00056400528521,
positive,positive,1,l,j,,,,,,,,,0,6,6,2,,,,,,,,,,,,,,,,,,,,,,,,main,2,2,1,positive,positive,j,j,1,0.6384063999998943,162.54103429999986,163.55160269999988,163.53111769999987,None,162.54103429999986,None,162.54103429999986,None,162.54103429999986,None,164.1609726900001,None,164.1609726900001,None,164.1609726900001,None,,,,,,,,,,,219,21,Female,2022-05-18_16h32.51.466,Main,2022.1.1,60.00056400528521,
neutral,negative,2,k,k,,,,,,,,,0,7,7,16,,,,,,,,,,,,,,,,,,,,,,,,main,2,2,2,negative,neutral,k,k,1,0.6581828000003043,164.18205480000006,165.18594570000005,165.16659359999994,None,164.18205480000006,None,164.18205480000006,None,164.18205480000006,None,165.82420698999977,None,165.82420698999977,None,165.82420698999977,None,,,,,,,,,,,219,21,Female,2022-05-18_16h32.51.466,Main,2022.1.1,60.00056400528521,
negative,neutral,2,j,l,,,,,,,,,0,8,8,12,,,,,,,,,,,,,,,,,,,,,,,,main,2,2,2,neutral,negative,l,l,1,0.7752346000002035,165.8457860999997,166.86372709999978,166.82574619999968,None,165.8457860999997,None,165.8457860999997,None,165.8457860999997,None,167.60191618999988,None,167.60191618999988,None,167.60191618999988,None,,,,,,,,,,,219,21,Female,2022-05-18_16h32.51.466,Main,2022.1.1,60.00056400528521,
neutral,positive,2,k,k,,,,,,,,,0,9,9,13,,,,,,,,,,,,,,,,,,,,,,,,main,1,1,2,positive,neutral,k,k,1,0.697283100000277,167.62338920000002,168.6424520999999,168.60198069999979,None,167.62338920000002,None,167.62338920000002,None,167.62338920000002,None,169.30178729,None,169.30178729,None,169.30178729,None,,,,,,,,,,,219,21,Female,2022-05-18_16h32.51.466,Main,2022.1.1,60.00056400528521,
neutral,negative,1,k,k,,,,,,,,,0,10,10,7,,,,,,,,,,,,,,,,,,,,,,,,main,1,1,1,negative,neutral,k,k,1,0.7877597000001515,169.32259539999995,170.33686129999978,170.29715699999997,None,169.32259539999995,None,169.32259539999995,None,169.32259539999995,None,171.0941181899998,None,171.0941181899998,None,171.0941181899998,None,,,,,,,,,,,219,21,Female,2022-05-18_16h32.51.466,Main,2022.1.1,60.00056400528521,
positive,neutral,2,l,j,,,,,,,,,0,11,11,17,,,,,,,,,,,,,,,,,,,,,,,,main,1,1,2,neutral,positive,j,j,1,0.666675099999793,171.1157307999997,172.12492900000007,172.10477020000008,None,171.1157307999997,None,171.1157307999997,None,171.1157307999997,None,172.76310568999997,None,172.76310568999997,None,172.76310568999997,None,,,,,,,,,,,219,21,Female,2022-05-18_16h32.51.466,Main,2022.1.1,60.00056400528521,
neutral,positive,1,k,k,,,,,,,,,0,12,12,4,,,,,,,,,,,,,,,,,,,,,,,,main,2,2,1,positive,neutral,k,k,1,0.9102008999998361,172.78398100000004,173.79974719999973,173.76012319999973,None,172.78398100000004,None,172.78398100000004,None,172.78398100000004,None,174.6768890899998,None,174.6768890899998,None,174.6768890899998,None,,,,,,,,,,,219,21,Female,2022-05-18_16h32.51.466,Main,2022.1.1,60.00056400528521,
neutral,neutral,1,k,k,,,,,,,,,0,13,13,1,,,,,,,,,,,,,,,,,,,,,,,,main,2,2,1,neutral,neutral,k,k,1,0.7815264000000752,174.69890459999988,175.7175628,175.67987489999996,None,174.69890459999988,None,174.69890459999988,None,174.69890459999988,None,176.4614174899998,None,176.4614174899998,None,176.4614174899998,None,,,,,,,,,,,219,21,Female,2022-05-18_16h32.51.466,Main,2022.1.1,60.00056400528521,
negative,positive,2,j,l,,,,,,,,,0,14,14,15,,,,,,,,,,,,,,,,,,,,,,,,main,2,2,2,positive,negative,l,l,1,0.6235320000000684,176.48280969999996,177.48436009999978,177.4651758,None,176.48280969999996,None,176.48280969999996,None,176.48280969999996,None,178.08897359000002,None,178.08897359000002,None,178.08897359000002,None,,,,,,,,,,,219,21,Female,2022-05-18_16h32.51.466,Main,2022.1.1,60.00056400528521,
negative,positive,1,j,l,,,,,,,,,0,15,15,6,,,,,,,,,,,,,,,,,,,,,,,,main,1,1,1,positive,negative,l,l,1,0.6919724000003953,178.10938669999996,179.1164246999997,179.0967184000001,None,178.10938669999996,None,178.10938669999996,None,178.10938669999996,None,179.7807439899998,None,179.7807439899998,None,179.7807439899998,None,,,,,,,,,,,219,21,Female,2022-05-18_16h32.51.466,Main,2022.1.1,60.00056400528521,
positive,neutral,1,l,j,,,,,,,,,0,16,16,8,,,,,,,,,,,,,,,,,,,,,,,,main,1,1,1,neutral,positive,j,j,1,0.8324446000001444,179.8065332000001,180.81081079999967,180.79103080000004,None,179.8065332000001,None,179.8065332000001,None,179.8065332000001,None,181.6176886899998,None,181.6176886899998,None,181.6176886899998,None,,,,,,,,,,,219,21,Female,2022-05-18_16h32.51.466,Main,2022.1.1,60.00056400528521,
positive,negative,1,l,j,,,,,,,,,0,17,17,5,,,,,,,,,,,,,,,,,,,,,,,,main,1,1,1,negative,positive,j,j,1,0.889010800000051,181.64240089999976,182.65019059999986,182.63094069999988,None,181.64240089999976,None,181.64240089999976,None,181.64240089999976,None,183.50931399,None,183.50931399,None,183.50931399,None,,,,,,,,,,,219,21,Female,2022-05-18_16h32.51.466,Main,2022.1.1,60.00056400528521,
neutral,positive,1,k,k,,,,,,,,,1,0,18,4,,,,,,,,,,,,,,,,,,,,,,,,main,2,2,1,positive,neutral,k,k,1,0.6099821999996493,183.53040509999983,184.5349080000001,184.51602890000004,None,183.53040509999983,None,183.53040509999983,None,183.53040509999983,None,185.12373118999994,None,185.12373118999994,None,185.12373118999994,None,,,,,,,,,,,219,21,Female,2022-05-18_16h32.51.466,Main,2022.1.1,60.00056400528521,
negative,neutral,1,j,l,,,,,,,,,1,1,19,3,,,,,,,,,,,,,,,,,,,,,,,,main,1,1,1,neutral,negative,l,l,1,0.6467736999998124,185.1465033999998,186.15042779999976,186.1312871,None,185.1465033999998,None,185.1465033999998,None,185.1465033999998,None,186.77507738999975,None,186.77507738999975,None,186.77507738999975,None,,,,,,,,,,,219,21,Female,2022-05-18_16h32.51.466,Main,2022.1.1,60.00056400528521,
positive,negative,1,l,j,,,,,,,,,1,2,20,5,,,,,,,,,,,,,,,,,,,,,,,,main,2,2,1,negative,positive,j,j,1,0.8148418999999194,186.7986738999998,187.81673499999988,187.77823379999973,None,186.7986738999998,None,186.7986738999998,None,186.7986738999998,None,188.59372179000002,None,188.59372179000002,None,188.59372179000002,None,,,,,,,,,,,219,21,Female,2022-05-18_16h32.51.466,Main,2022.1.1,60.00056400528521,
positive,positive,1,l,j,,,,,,,,,1,3,21,2,,,,,,,,,,,,,,,,,,,,,,,,main,2,2,1,positive,positive,j,j,1,0.6159778999999617,188.61582399999998,189.62991499999998,189.59035689999973,None,188.61582399999998,None,188.61582399999998,None,188.61582399999998,None,190.21302648999972,None,190.21302648999972,None,190.21302648999972,None,,,,,,,,,,,219,21,Female,2022-05-18_16h32.51.466,Main,2022.1.1,60.00056400528521,
neutral,negative,1,k,k,,,,,,,,,1,4,22,7,,,,,,,,,,,,,,,,,,,,,,,,main,2,2,1,negative,neutral,k,k,1,0.6364446999996289,190.23413089999985,191.2469799999999,191.2086350999998,None,190.23413089999985,None,190.23413089999985,None,190.23413089999985,None,191.85396378999985,None,191.85396378999985,None,191.85396378999985,None,,,,,,,,,,,219,21,Female,2022-05-18_16h32.51.466,Main,2022.1.1,60.00056400528521,
positive,neutral,2,l,j,,,,,,,,,1,5,23,17,,,,,,,,,,,,,,,,,,,,,,,,main,2,2,2,neutral,positive,j,j,1,0.6899833000002218,191.87428649999993,192.8783284000001,192.8584563999998,None,191.87428649999993,None,191.87428649999993,None,191.87428649999993,None,193.5446278899999,None,193.5446278899999,None,193.5446278899999,None,,,,,,,,,,,219,21,Female,2022-05-18_16h32.51.466,Main,2022.1.1,60.00056400528521,
positive,negative,2,l,j,,,,,,,,,1,6,24,14,,,,,,,,,,,,,,,,,,,,,,,,main,2,2,2,negative,positive,j,j,1,0.694638599999962,193.5660809000001,194.58619109999972,194.5468719999999,None,193.5660809000001,None,193.5660809000001,None,193.5660809000001,None,195.24213548999978,None,195.24213548999978,None,195.24213548999978,None,,,,,,,,,,,219,21,Female,2022-05-18_16h32.51.466,Main,2022.1.1,60.00056400528521,
neutral,positive,2,k,k,,,,,,,,,1,7,25,13,,,,,,,,,,,,,,,,,,,,,,,,main,1,1,2,positive,neutral,k,k,1,0.6566186000000016,195.26244039999983,196.2798528999997,196.24176869999974,None,195.26244039999983,None,195.26244039999983,None,195.26244039999983,None,196.90303628999982,None,196.90303628999982,None,196.90303628999982,None,,,,,,,,,,,219,21,Female,2022-05-18_16h32.51.466,Main,2022.1.1,60.00056400528521,
negative,negative,1,j,l,,,,,,,,,1,8,26,0,,,,,,,,,,,,,,,,,,,,,,,,main,2,2,1,negative,negative,l,l,1,0.6415595999997095,196.9248779999998,197.9419958999997,197.90203350000002,None,196.9248779999998,None,196.9248779999998,None,196.9248779999998,None,198.54451738999978,None,198.54451738999978,None,198.54451738999978,None,,,,,,,,,,,219,21,Female,2022-05-18_16h32.51.466,Main,2022.1.1,60.00056400528521,
neutral,negative,2,k,k,,,,,,,,,1,9,27,16,,,,,,,,,,,,,,,,,,,,,,,,main,2,2,2,negative,neutral,k,k,1,0.6397406000000956,198.5694964999998,199.58934969999973,199.55071199999975,None,198.5694964999998,None,198.5694964999998,None,198.5694964999998,None,200.18972049000013,None,200.18972049000013,None,200.18972049000013,None,,,,,,,,,,,219,21,Female,2022-05-18_16h32.51.466,Main,2022.1.1,60.00056400528521,
negative,positive,1,j,l,,,,,,,,,1,10,28,6,,,,,,,,,,,,,,,,,,,,,,,,main,1,1,1,positive,negative,l,l,1,0.7194131000001107,200.21185509999987,201.22879859999966,201.19034899999997,None,200.21185509999987,None,200.21185509999987,None,200.21185509999987,None,201.91125908999993,None,201.91125908999993,None,201.91125908999993,None,,,,,,,,,,,219,21,Female,2022-05-18_16h32.51.466,Main,2022.1.1,60.00056400528521,
negative,positive,2,j,l,,,,,,,,,1,11,29,15,,,,,,,,,,,,,,,,,,,,,,,,main,2,2,2,positive,negative,l,l,1,0.8407255000001896,201.9375169,202.9558308999999,202.9151692999999,None,201.9375169,None,201.9375169,None,201.9375169,None,203.75505798999984,None,203.75505798999984,None,203.75505798999984,None,,,,,,,,,,,219,21,Female,2022-05-18_16h32.51.466,Main,2022.1.1,60.00056400528521,
positive,neutral,1,l,j,,,,,,,,,1,12,30,8,,,,,,,,,,,,,,,,,,,,,,,,main,1,1,1,neutral,positive,j,j,1,0.8584363999998459,203.77706119999993,204.78120609999996,204.76250649999974,None,203.77706119999993,None,203.77706119999993,None,203.77706119999993,None,205.61914868999975,None,205.61914868999975,None,205.61914868999975,None,,,,,,,,,,,219,21,Female,2022-05-18_16h32.51.466,Main,2022.1.1,60.00056400528521,
neutral,neutral,1,k,k,,,,,,,,,1,13,31,1,,,,,,,,,,,,,,,,,,,,,,,,main,2,2,1,neutral,neutral,k,k,1,0.6627384999997048,205.6410950999998,206.6612737999999,206.62275090000003,None,205.6410950999998,None,205.6410950999998,None,205.6410950999998,None,207.28464098999984,None,207.28464098999984,None,207.28464098999984,None,,,,,,,,,,,219,21,Female,2022-05-18_16h32.51.466,Main,2022.1.1,60.00056400528521,
positive,positive,2,l,j,,,,,,,,,1,14,32,11,,,,,,,,,,,,,,,,,,,,,,,,main,2,2,2,positive,positive,j,j,1,0.7214411999998447,207.3074747999999,208.3228822000001,208.28507469999977,None,207.3074747999999,None,207.3074747999999,None,207.3074747999999,None,209.00641459000008,None,209.00641459000008,None,209.00641459000008,None,,,,,,,,,,,219,21,Female,2022-05-18_16h32.51.466,Main,2022.1.1,60.00056400528521,
negative,negative,2,j,l,,,,,,,,,1,15,33,9,,,,,,,,,,,,,,,,,,,,,,,,main,2,2,2,negative,negative,l,l,1,0.586020699999608,209.02813100000003,210.03107309999996,210.0139420999999,None,209.02813100000003,None,209.02813100000003,None,209.02813100000003,None,210.5954238899999,None,210.5954238899999,None,210.5954238899999,None,,,,,,,,,,,219,21,Female,2022-05-18_16h32.51.466,Main,2022.1.1,60.00056400528521,
neutral,neutral,2,k,k,,,,,,,,,1,16,34,10,,,,,,,,,,,,,,,,,,,,,,,,main,1,1,2,neutral,neutral,k,k,1,0.5501906999998027,210.6201517999998,211.62489609999966,211.60614540000006,None,210.6201517999998,None,210.6201517999998,None,210.6201517999998,None,212.14818668999987,None,212.14818668999987,None,212.14818668999987,None,,,,,,,,,,,219,21,Female,2022-05-18_16h32.51.466,Main,2022.1.1,60.00056400528521,
negative,neutral,2,j,l,,,,,,,,,1,17,35,12,,,,,,,,,,,,,,,,,,,,,,,,main,1,1,2,neutral,negative,l,l,1,0.7019285000001219,212.17007560000002,213.1890384999997,213.1504577999999,None,212.17007560000002,None,212.17007560000002,None,212.17007560000002,None,213.85267509000005,None,213.85267509000005,None,213.85267509000005,None,,,,,,,,,,,219,21,Female,2022-05-18_16h32.51.466,Main,2022.1.1,60.00056400528521,
positive,neutral,2,l,j,,,,,,,,,2,0,36,17,,,,,,,,,,,,,,,,,,,,,,,,main,1,1,2,neutral,positive,j,j,1,0.8555152999997517,213.87666639999998,214.88326349999988,214.86372129999972,None,213.87666639999998,None,213.87666639999998,None,213.87666639999998,None,215.71480428999985,None,215.71480428999985,None,215.71480428999985,None,,,,,,,,,,,219,21,Female,2022-05-18_16h32.51.466,Main,2022.1.1,60.00056400528521,
positive,negative,2,l,j,,,,,,,,,2,1,37,14,,,,,,,,,,,,,,,,,,,,,,,,main,2,2,2,negative,positive,j,j,1,0.7583212999998068,215.7356139999997,216.74069659999986,216.7219602,None,215.7356139999997,None,215.7356139999997,None,215.7356139999997,None,217.47484119,None,217.47484119,None,217.47484119,None,,,,,,,,,,,219,21,Female,2022-05-18_16h32.51.466,Main,2022.1.1,60.00056400528521,
negative,neutral,1,j,l,,,,,,,,,2,2,38,3,,,,,,,,,,,,,,,,,,,,,,,,main,2,2,1,neutral,negative,l,l,1,0.7156051000001753,217.49595539999973,218.51470679999966,218.4764514999997,None,217.49595539999973,None,217.49595539999973,None,217.49595539999973,None,219.19272529,None,219.19272529,None,219.19272529,None,,,,,,,,,,,219,21,Female,2022-05-18_16h32.51.466,Main,2022.1.1,60.00056400528521,
positive,neutral,1,l,j,,,,,,,,,2,3,39,8,,,,,,,,,,,,,,,,,,,,,,,,main,1,1,1,neutral,positive,j,j,1,0.7974217999999382,219.2169441000001,220.2366652999999,220.1976255999998,None,219.2169441000001,None,219.2169441000001,None,219.2169441000001,None,220.9928684900001,None,220.9928684900001,None,220.9928684900001,None,,,,,,,,,,,219,21,Female,2022-05-18_16h32.51.466,Main,2022.1.1,60.00056400528521,
neutral,negative,1,k,k,,,,,,,,,2,4,40,7,,,,,,,,,,,,,,,,,,,,,,,,main,2,2,1,negative,neutral,k,k,1,0.7101229999998395,221.01396380000006,222.02257759999975,222.00379339999972,None,221.01396380000006,None,221.01396380000006,None,221.01396380000006,None,222.7053144900001,None,222.7053144900001,None,222.7053144900001,None,,,,,,,,,,,219,21,Female,2022-05-18_16h32.51.466,Main,2022.1.1,60.00056400528521,
positive,negative,1,l,j,,,,,,,,,2,5,41,5,,,,,,,,,,,,,,,,,,,,,,,,main,2,2,1,negative,positive,j,j,1,0.6669575000000805,222.72616990000006,223.72826289999966,223.7091101000001,None,222.72616990000006,None,222.72616990000006,None,222.72616990000006,None,224.37336748999996,None,224.37336748999996,None,224.37336748999996,None,,,,,,,,,,,219,21,Female,2022-05-18_16h32.51.466,Main,2022.1.1,60.00056400528521,
neutral,positive,1,k,k,,,,,,,,,2,6,42,4,,,,,,,,,,,,,,,,,,,,,,,,main,2,2,1,positive,neutral,k,k,1,0.7202421000001777,224.39979760000006,225.41885129999991,225.38020179999967,None,224.39979760000006,None,224.39979760000006,None,224.39979760000006,None,226.0995821900001,None,226.0995821900001,None,226.0995821900001,None,,,,,,,,,,,219,21,Female,2022-05-18_16h32.51.466,Main,2022.1.1,60.00056400528521,
negative,neutral,2,j,l,,,,,,,,,2,7,43,12,,,,,,,,,,,,,,,,,,,,,,,,main,1,1,2,neutral,negative,l,l,1,0.8323810000001686,226.11933789999966,227.12262740000006,227.10367399999996,None,226.11933789999966,None,226.11933789999966,None,226.11933789999966,None,227.93458788999988,None,227.93458788999988,None,227.93458788999988,None,,,,,,,,,,,219,21,Female,2022-05-18_16h32.51.466,Main,2022.1.1,60.00056400528521,
negative,positive,2,j,l,,,,,,,,,2,8,44,15,,,,,,,,,,,,,,,,,,,,,,,,main,1,1,2,positive,negative,l,l,1,0.7746365999996669,227.95487619999994,228.95745499999975,228.93852749999996,None,227.95487619999994,None,227.95487619999994,None,227.95487619999994,None,229.71413398999994,None,229.71413398999994,None,229.71413398999994,None,,,,,,,,,,,219,21,Female,2022-05-18_16h32.51.466,Main,2022.1.1,60.00056400528521,
negative,negative,2,j,l,,,,,,,,,2,9,45,9,,,,,,,,,,,,,,,,,,,,,,,,main,1,1,2,negative,negative,l,l,1,0.6060042999997677,229.7357238999998,230.73889849999978,230.72000230000003,None,229.7357238999998,None,229.7357238999998,None,229.7357238999998,None,231.32036428999982,None,231.32036428999982,None,231.32036428999982,None,,,,,,,,,,,219,21,Female,2022-05-18_16h32.51.466,Main,2022.1.1,60.00056400528521,
neutral,negative,2,k,k,,,,,,,,,2,10,46,16,,,,,,,,,,,,,,,,,,,,,,,,main,2,2,2,negative,neutral,k,k,1,0.7771315999998478,231.3424126,232.3448896,232.32597369999985,None,231.3424126,None,231.3424126,None,231.3424126,None,233.10183168999993,None,233.10183168999993,None,233.10183168999993,None,,,,,,,,,,,219,21,Female,2022-05-18_16h32.51.466,Main,2022.1.1,60.00056400528521,
positive,positive,2,l,j,,,,,,,,,2,11,47,11,,,,,,,,,,,,,,,,,,,,,,,,main,2,2,2,positive,positive,j,j,1,0.8159376000003249,233.12413399999969,234.1374037999999,234.1182577999998,None,233.12413399999969,None,233.12413399999969,None,233.12413399999969,None,234.92034689000002,None,234.92034689000002,None,234.92034689000002,None,,,,,,,,,,,219,21,Female,2022-05-18_16h32.51.466,Main,2022.1.1,60.00056400528521,
positive,positive,1,l,j,,,,,,,,,2,12,48,2,,,,,,,,,,,,,,,,,,,,,,,,main,2,2,1,positive,positive,j,j,1,0.6866930999999568,234.94113749999997,235.94273239999984,235.92401040000004,None,234.94113749999997,None,234.94113749999997,None,234.94113749999997,None,236.6097007899998,None,236.6097007899998,None,236.6097007899998,None,,,,,,,,,,,219,21,Female,2022-05-18_16h32.51.466,Main,2022.1.1,60.00056400528521,
negative,negative,1,j,l,,,,,,,,,2,13,49,0,,,,,,,,,,,,,,,,,,,,,,,,main,2,2,1,negative,negative,l,l,1,0.7314360999998826,236.63456559999986,237.64350650000006,237.623959,None,236.63456559999986,None,236.63456559999986,None,236.63456559999986,None,238.34382869,None,238.34382869,None,238.34382869,None,,,,,,,,,,,219,21,Female,2022-05-18_16h32.51.466,Main,2022.1.1,60.00056400528521,
neutral,positive,2,k,k,,,,,,,,,2,14,50,13,,,,,,,,,,,,,,,,,,,,,,,,main,1,1,2,positive,neutral,k,k,1,0.7589825000000019,238.36875119999968,239.37224130000004,239.35291499999994,None,238.36875119999968,None,238.36875119999968,None,238.36875119999968,None,240.10503058999984,None,240.10503058999984,None,240.10503058999984,None,,,,,,,,,,,219,21,Female,2022-05-18_16h32.51.466,Main,2022.1.1,60.00056400528521,
neutral,neutral,1,k,k,,,,,,,,,2,15,51,1,,,,,,,,,,,,,,,,,,,,,,,,main,2,2,1,neutral,neutral,k,k,1,0.698917000000165,240.1252211000001,241.12730909999982,241.10836819999986,None,240.1252211000001,None,240.1252211000001,None,240.1252211000001,None,241.80607058999976,None,241.80607058999976,None,241.80607058999976,None,,,,,,,,,,,219,21,Female,2022-05-18_16h32.51.466,Main,2022.1.1,60.00056400528521,
negative,positive,1,j,l,,,,,,,,,2,16,52,6,,,,,,,,,,,,,,,,,,,,,,,,main,2,2,1,positive,negative,l,l,1,0.7332747999998901,241.8270609000001,242.83508589999974,242.8154144,None,241.8270609000001,None,241.8270609000001,None,241.8270609000001,None,243.54109418999997,None,243.54109418999997,None,243.54109418999997,None,,,,,,,,,,,219,21,Female,2022-05-18_16h32.51.466,Main,2022.1.1,60.00056400528521,
neutral,neutral,2,k,k,,,,,,,,,2,17,53,10,,,,,,,,,,,,,,,,,,,,,,,,main,1,1,2,neutral,neutral,k,k,1,0.948504899999989,243.56643789999998,244.5688854,244.5494736999999,None,243.56643789999998,None,243.56643789999998,None,243.56643789999998,None,245.49225969000008,None,245.49225969000008,None,245.49225969000008,None,,,,,,,,,,,219,21,Female,2022-05-18_16h32.51.466,Main,2022.1.1,60.00056400528521,
positive,positive,2,l,j,,,,,,,,,3,0,54,11,,,,,,,,,,,,,,,,,,,,,,,,main,2,2,2,positive,positive,j,j,1,0.6750686999998834,245.5171666000001,246.52553149999994,246.5061708999997,None,245.5171666000001,None,245.5171666000001,None,245.5171666000001,None,247.17078438999988,None,247.17078438999988,None,247.17078438999988,None,,,,,,,,,,,219,21,Female,2022-05-18_16h32.51.466,Main,2022.1.1,60.00056400528521,
negative,positive,1,j,l,,,,,,,,,3,1,55,6,,,,,,,,,,,,,,,,,,,,,,,,main,1,1,1,positive,negative,l,l,1,0.7613274000000274,247.1912241,248.19493479999983,248.1749949,None,247.1912241,None,247.1912241,None,247.1912241,None,248.9342144899997,None,248.9342144899997,None,248.9342144899997,None,,,,,,,,,,,219,21,Female,2022-05-18_16h32.51.466,Main,2022.1.1,60.00056400528521,
positive,neutral,2,l,j,,,,,,,,,3,2,56,17,,,,,,,,,,,,,,,,,,,,,,,,main,1,1,2,neutral,positive,j,j,1,0.6865606000001208,248.95607759999984,249.96827570000005,249.92920950000007,None,248.95607759999984,None,248.95607759999984,None,248.95607759999984,None,250.6255825899998,None,250.6255825899998,None,250.6255825899998,None,,,,,,,,,,,219,21,Female,2022-05-18_16h32.51.466,Main,2022.1.1,60.00056400528521,
neutral,neutral,2,k,k,,,,,,,,,3,3,57,10,,,,,,,,,,,,,,,,,,,,,,,,main,1,1,2,neutral,neutral,k,k,1,0.7149499000001924,250.64584409999998,251.6643223000001,251.62495709999985,None,250.64584409999998,None,250.64584409999998,None,250.64584409999998,None,252.34137289,None,252.34137289,None,252.34137289,None,,,,,,,,,,,219,21,Female,2022-05-18_16h32.51.466,Main,2022.1.1,60.00056400528521,
positive,negative,1,l,j,,,,,,,,,3,4,58,5,,,,,,,,,,,,,,,,,,,,,,,,main,2,2,1,negative,positive,j,j,1,0.8441750000001775,252.36199259999967,253.37206509999987,253.35273349999989,None,252.36199259999967,None,252.36199259999967,None,252.36199259999967,None,254.18633628999987,None,254.18633628999987,None,254.18633628999987,None,,,,,,,,,,,219,21,Female,2022-05-18_16h32.51.466,Main,2022.1.1,60.00056400528521,
neutral,neutral,1,k,k,,,,,,,,,3,5,59,1,,,,,,,,,,,,,,,,,,,,,,,,main,1,1,1,neutral,neutral,k,k,1,0.9101573999996617,254.2081991,255.2123045999997,255.1928124000001,None,254.2081991,None,254.2081991,None,254.2081991,None,256.1007160899999,None,256.1007160899999,None,256.1007160899999,None,,,,,,,,,,,219,21,Female,2022-05-18_16h32.51.466,Main,2022.1.1,60.00056400528521,
neutral,positive,1,k,k,,,,,,,,,3,6,60,4,,,,,,,,,,,,,,,,,,,,,,,,main,1,1,1,positive,neutral,k,k,1,0.5874800999999934,256.12268259999973,257.12463290000005,257.1058315999999,None,256.12268259999973,None,256.12268259999973,None,256.12268259999973,None,257.6922204899997,None,257.6922204899997,None,257.6922204899997,None,,,,,,,,,,,219,21,Female,2022-05-18_16h32.51.466,Main,2022.1.1,60.00056400528521,
neutral,positive,2,k,k,,,,,,,,,3,7,61,13,,,,,,,,,,,,,,,,,,,,,,,,main,2,2,2,positive,neutral,k,k,1,0.66458590000002,257.71283079999967,258.7315623999998,258.71188699999993,None,257.71283079999967,None,257.71283079999967,None,257.71283079999967,None,259.35824018999983,None,259.35824018999983,None,259.35824018999983,None,,,,,,,,,,,219,21,Female,2022-05-18_16h32.51.466,Main,2022.1.1,60.00056400528521,
negative,neutral,1,j,l,,,,,,,,,3,8,62,3,,,,,,,,,,,,,,,,,,,,,,,,main,2,2,1,neutral,negative,l,l,1,0.7134252000000743,259.3828370000001,260.3963235000001,260.3560182000001,None,259.3828370000001,None,259.3828370000001,None,259.3828370000001,None,261.0753388899998,None,261.0753388899998,None,261.0753388899998,None,,,,,,,,,,,219,21,Female,2022-05-18_16h32.51.466,Main,2022.1.1,60.00056400528521,
negative,positive,2,j,l,,,,,,,,,3,9,63,15,,,,,,,,,,,,,,,,,,,,,,,,main,1,1,2,positive,negative,l,l,1,0.7473920000002181,261.09856899999977,262.1027403999997,262.08398869999974,None,261.09856899999977,None,261.09856899999977,None,261.09856899999977,None,262.8234639899997,None,262.8234639899997,None,262.8234639899997,None,,,,,,,,,,,219,21,Female,2022-05-18_16h32.51.466,Main,2022.1.1,60.00056400528521,
negative,negative,2,j,l,,,,,,,,,3,10,64,9,,,,,,,,,,,,,,,,,,,,,,,,main,2,2,2,negative,negative,l,l,1,0.8311694999997599,262.8500608999998,263.86501899999985,263.82471769999984,None,262.8500608999998,None,262.8500608999998,None,262.8500608999998,None,264.6560765899999,None,264.6560765899999,None,264.6560765899999,None,,,,,,,,,,,219,21,Female,2022-05-18_16h32.51.466,Main,2022.1.1,60.00056400528521,
neutral,negative,2,k,k,,,,,,,,,3,11,65,16,,,,,,,,,,,,,,,,,,,,,,,,main,2,2,2,negative,neutral,k,k,1,0.7234036999998352,264.67892619999975,265.68682709999985,265.6677534999999,None,264.67892619999975,None,264.67892619999975,None,264.67892619999975,None,266.3823739899999,None,266.3823739899999,None,266.3823739899999,None,,,,,,,,,,,219,21,Female,2022-05-18_16h32.51.466,Main,2022.1.1,60.00056400528521,
negative,negative,1,j,l,,,,,,,,,3,12,66,0,,,,,,,,,,,,,,,,,,,,,,,,main,2,2,1,negative,negative,l,l,1,0.7126041000001351,266.40483489999997,267.4135028999999,267.3937341000001,None,266.40483489999997,None,266.40483489999997,None,266.40483489999997,None,268.0978216899998,None,268.0978216899998,None,268.0978216899998,None,,,,,,,,,,,219,21,Female,2022-05-18_16h32.51.466,Main,2022.1.1,60.00056400528521,
positive,negative,2,l,j,,,,,,,,,3,13,67,14,,,,,,,,,,,,,,,,,,,,,,,,main,2,2,2,negative,positive,j,j,1,0.7300903999998809,268.1201387000001,269.13914750000004,269.1006806999999,None,268.1201387000001,None,268.1201387000001,None,268.1201387000001,None,269.8322199899999,None,269.8322199899999,None,269.8322199899999,None,,,,,,,,,,,219,21,Female,2022-05-18_16h32.51.466,Main,2022.1.1,60.00056400528521,
negative,neutral,2,j,l,,,,,,,,,3,14,68,12,,,,,,,,,,,,,,,,,,,,,,,,main,2,2,2,neutral,negative,l,l,1,0.8306136000001061,269.8525540999999,270.87127269999974,270.8324640000001,None,269.8525540999999,None,269.8525540999999,None,269.8525540999999,None,271.6645907899997,None,271.6645907899997,None,271.6645907899997,None,,,,,,,,,,,219,21,Female,2022-05-18_16h32.51.466,Main,2022.1.1,60.00056400528521,
positive,neutral,1,l,j,,,,,,,,,3,15,69,8,,,,,,,,,,,,,,,,,,,,,,,,main,1,1,1,neutral,positive,j,j,1,0.9046026999999413,271.6858834999998,272.70276379999996,272.663986,None,271.6858834999998,None,271.6858834999998,None,271.6858834999998,None,273.57388119000007,None,273.57388119000007,None,273.57388119000007,None,,,,,,,,,,,219,21,Female,2022-05-18_16h32.51.466,Main,2022.1.1,60.00056400528521,
positive,positive,1,l,j,,,,,,,,,3,16,70,2,,,,,,,,,,,,,,,,,,,,,,,,main,2,2,1,positive,positive,j,j,1,0.6501020999999128,273.5938916,274.5997951999998,274.5802426,None,273.5938916,None,273.5938916,None,273.5938916,None,275.2261663899999,None,275.2261663899999,None,275.2261663899999,None,,,,,,,,,,,219,21,Female,2022-05-18_16h32.51.466,Main,2022.1.1,60.00056400528521,
neutral,negative,1,k,k,,,,,,,,,3,17,71,7,,,,,,,,,,,,,,,,,,,,,,,,main,2,2,1,negative,neutral,k,k,1,0.7098823000001175,275.2468650999999,276.2540371,276.2348745999998,None,275.2468650999999,None,275.2468650999999,None,275.2468650999999,None,276.9368225899998,None,276.9368225899998,None,276.9368225899998,None,,,,,,,,,,,219,21,Female,2022-05-18_16h32.51.466,Main,2022.1.1,60.00056400528521,
negative,negative,2,j,l,,,,,,,,,4,0,72,9,,,,,,,,,,,,,,,,,,,,,,,,main,1,1,2,negative,negative,l,l,1,0.6654923000000963,276.9611891999998,277.96839950000003,277.9496663,None,276.9611891999998,None,276.9611891999998,None,276.9611891999998,None,278.6055952900001,None,278.6055952900001,None,278.6055952900001,None,,,,,,,,,,,219,21,Female,2022-05-18_16h32.51.466,Main,2022.1.1,60.00056400528521,
positive,positive,1,l,j,,,,,,,,,4,1,73,2,,,,,,,,,,,,,,,,,,,,,,,,main,2,2,1,positive,positive,j,j,1,0.6759461000001465,278.62968279999996,279.6476454999997,279.6083252999997,None,278.62968279999996,None,278.62968279999996,None,278.62968279999996,None,280.2832562899998,None,280.2832562899998,None,280.2832562899998,None,,,,,,,,,,,219,21,Female,2022-05-18_16h32.51.466,Main,2022.1.1,60.00056400528521,
positive,negative,2,l,j,,,,,,,,,4,2,74,14,,,,,,,,,,,,,,,,,,,,,,,,main,2,2,2,negative,positive,j,j,1,0.8939093000003595,280.3092974000001,281.33059430000003,281.2915684999998,None,280.3092974000001,None,280.3092974000001,None,280.3092974000001,None,282.18079829,None,282.18079829,None,282.18079829,None,,,,,,,,,,,219,21,Female,2022-05-18_16h32.51.466,Main,2022.1.1,60.00056400528521,
neutral,positive,2,k,k,,,,,,,,,4,3,75,13,,,,,,,,,,,,,,,,,,,,,,,,main,2,2,2,positive,neutral,k,k,1,0.6934246000000712,282.20203390000006,283.21403299999974,283.17464659999996,None,282.20203390000006,None,282.20203390000006,None,282.20203390000006,None,283.87776239000004,None,283.87776239000004,None,283.87776239000004,None,,,,,,,,,,,219,21,Female,2022-05-18_16h32.51.466,Main,2022.1.1,60.00056400528521,
neutral,negative,2,k,k,,,,,,,,,4,4,76,16,,,,,,,,,,,,,,,,,,,,,,,,main,2,2,2,negative,neutral,k,k,1,0.66554909999968,283.89901199999986,284.90111179999985,284.88179809999974,None,283.89901199999986,None,283.89901199999986,None,283.89901199999986,None,285.54686748999984,None,285.54686748999984,None,285.54686748999984,None,,,,,,,,,,,219,21,Female,2022-05-18_16h32.51.466,Main,2022.1.1,60.00056400528521,
positive,positive,2,l,j,,,,,,,,,4,5,77,11,,,,,,,,,,,,,,,,,,,,,,,,main,1,1,2,positive,positive,j,j,1,0.853744700000334,285.56834979999985,286.5849525999997,286.54687019999983,None,285.56834979999985,None,285.56834979999985,None,285.56834979999985,None,287.40256168999986,None,287.40256168999986,None,287.40256168999986,None,,,,,,,,,,,219,21,Female,2022-05-18_16h32.51.466,Main,2022.1.1,60.00056400528521,
neutral,positive,1,k,k,,,,,,,,,4,6,78,4,,,,,,,,,,,,,,,,,,,,,,,,main,1,1,1,positive,neutral,k,k,1,0.7186688999995567,287.4250057999998,288.4465055999999,288.40704619999997,None,287.4250057999998,None,287.4250057999998,None,287.4250057999998,None,289.1260245899998,None,289.1260245899998,None,289.1260245899998,None,,,,,,,,,,,219,21,Female,2022-05-18_16h32.51.466,Main,2022.1.1,60.00056400528521,
negative,negative,1,j,l,,,,,,,,,4,7,79,0,,,,,,,,,,,,,,,,,,,,,,,,main,2,2,1,negative,negative,l,l,1,0.6336354999998548,289.1475627,290.15686819999974,290.13731119999966,None,289.1475627,None,289.1475627,None,289.1475627,None,290.76215808999996,None,290.76215808999996,None,290.76215808999996,None,,,,,,,,,,,219,21,Female,2022-05-18_16h32.51.466,Main,2022.1.1,60.00056400528521,
neutral,negative,1,k,k,,,,,,,,,4,8,80,7,,,,,,,,,,,,,,,,,,,,,,,,main,2,2,1,negative,neutral,k,k,1,0.6650618999997278,290.7847063999998,291.80754320000005,291.7600308000001,None,290.7847063999998,None,290.7847063999998,None,290.7847063999998,None,292.43105638999987,None,292.43105638999987,None,292.43105638999987,None,,,,,,,,,,,219,21,Female,2022-05-18_16h32.51.466,Main,2022.1.1,60.00056400528521,
neutral,neutral,2,k,k,,,,,,,,,4,9,81,10,,,,,,,,,,,,,,,,,,,,,,,,main,2,2,2,neutral,neutral,k,k,1,0.6898366999998871,292.4528562999999,293.4652044999998,293.4266874,None,292.4528562999999,None,292.4528562999999,None,292.4528562999999,None,294.12518868999996,None,294.12518868999996,None,294.12518868999996,None,,,,,,,,,,,219,21,Female,2022-05-18_16h32.51.466,Main,2022.1.1,60.00056400528521,
positive,negative,1,l,j,,,,,,,,,4,10,82,5,,,,,,,,,,,,,,,,,,,,,,,,main,1,1,1,negative,positive,j,j,1,0.7226451000001362,294.14630149999994,295.14971979999973,295.13081669999974,None,294.14630149999994,None,294.14630149999994,None,294.14630149999994,None,295.84834138999986,None,295.84834138999986,None,295.84834138999986,None,,,,,,,,,,,219,21,Female,2022-05-18_16h32.51.466,Main,2022.1.1,60.00056400528521,
positive,neutral,1,l,j,,,,,,,,,4,11,83,8,,,,,,,,,,,,,,,,,,,,,,,,main,1,1,1,neutral,positive,j,j,1,0.7664457999999286,295.8686395999998,296.8841308000001,296.84537839999984,None,295.8686395999998,None,295.8686395999998,None,295.8686395999998,None,297.6194838900001,None,297.6194838900001,None,297.6194838900001,None,,,,,,,,,,,219,21,Female,2022-05-18_16h32.51.466,Main,2022.1.1,60.00056400528521,
positive,neutral,2,l,j,,,,,,,,,4,12,84,17,,,,,,,,,,,,,,,,,,,,,,,,main,1,1,2,neutral,positive,j,j,1,0.8321682000000692,297.6411751999999,298.66187279999986,298.6227581999997,None,297.6411751999999,None,297.6411751999999,None,297.6411751999999,None,299.4542677899999,None,299.4542677899999,None,299.4542677899999,None,,,,,,,,,,,219,21,Female,2022-05-18_16h32.51.466,Main,2022.1.1,60.00056400528521,
negative,positive,1,j,l,,,,,,,,,4,13,85,6,,,,,,,,,,,,,,,,,,,,,,,,main,1,1,1,positive,negative,l,l,1,0.8591449000000466,299.4740575000001,300.4797503,300.4605545999998,None,299.4740575000001,None,299.4740575000001,None,299.4740575000001,None,301.31345858999975,None,301.31345858999975,None,301.31345858999975,None,,,,,,,,,,,219,21,Female,2022-05-18_16h32.51.466,Main,2022.1.1,60.00056400528521,
negative,positive,2,j,l,,,,,,,,,4,14,86,15,,,,,,,,,,,,,,,,,,,,,,,,main,2,2,2,positive,negative,l,l,1,0.9469855000002099,301.34036419999984,302.34874709999985,302.33045300000003,None,301.34036419999984,None,301.34036419999984,None,301.34036419999984,None,303.26323108999986,None,303.26323108999986,None,303.26323108999986,None,,,,,,,,,,,219,21,Female,2022-05-18_16h32.51.466,Main,2022.1.1,60.00056400528521,
negative,neutral,2,j,l,,,,,,,,,4,15,87,12,,,,,,,,,,,,,,,,,,,,,,,,main,2,2,2,neutral,negative,l,l,1,0.5917115000002013,303.28488089999973,304.29220339999983,304.27252550000003,None,303.28488089999973,None,303.28488089999973,None,303.28488089999973,None,304.8592674900001,None,304.8592674900001,None,304.8592674900001,None,,,,,,,,,,,219,21,Female,2022-05-18_16h32.51.466,Main,2022.1.1,60.00056400528521,
negative,neutral,1,j,l,,,,,,,,,4,16,88,3,,,,,,,,,,,,,,,,,,,,,,,,main,1,1,1,neutral,negative,l,l,1,0.6225182999996832,304.88097930000004,305.8845174999997,305.86518499999966,None,304.88097930000004,None,304.88097930000004,None,304.88097930000004,None,306.48560279000003,None,306.48560279000003,None,306.48560279000003,None,,,,,,,,,,,219,21,Female,2022-05-18_16h32.51.466,Main,2022.1.1,60.00056400528521,
neutral,neutral,1,k,k,,,,,,,,,4,17,89,1,,,,,,,,,,,,,,,,,,,,,,,,main,1,1,1,neutral,neutral,k,k,1,0.7436939999997776,306.5098241999999,307.5162823999999,307.49716199999966,None,306.5098241999999,None,306.5098241999999,None,306.5098241999999,None,308.2306534899999,None,308.2306534899999,None,308.2306534899999,None,,,,,,,,,,,219,21,Female,2022-05-18_16h32.51.466,Main,2022.1.1,60.00056400528521,
neutral,positive,2,k,k,,,,,,,,,5,0,90,13,,,,,,,,,,,,,,,,,,,,,,,,main,1,1,2,positive,neutral,k,,0,0.7042436000001544,308.25165979999974,309.2566517999999,309.2368965999999,None,308.25165979999974,None,308.25165979999974,None,308.25165979999974,None,309.9489335999997,None,309.9489335999997,None,309.9489335999997,None,,,,,,,,,,,219,21,Female,2022-05-18_16h32.51.466,Main,2022.1.1,60.00056400528521,
positive,positive,1,l,j,,,,,,,,,5,1,91,2,,,,,,,,,,,,,,,,,,,,,,,,main,1,1,1,positive,positive,j,j,1,0.8990466999998716,310.96636910000007,311.9677764999997,311.9511143999998,None,310.96636910000007,None,310.96636910000007,None,310.96636910000007,None,312.8450354900001,None,312.8450354900001,None,312.8450354900001,None,,,,,,,,,,,219,21,Female,2022-05-18_16h32.51.466,Main,2022.1.1,60.00056400528521,
negative,negative,2,j,l,,,,,,,,,5,2,92,9,,,,,,,,,,,,,,,,,,,,,,,,main,2,2,2,negative,negative,l,l,1,0.7519222999999329,312.8661259999999,313.88531409999996,313.84538569999995,None,312.8661259999999,None,312.8661259999999,None,312.8661259999999,None,314.60007958999995,None,314.60007958999995,None,314.60007958999995,None,,,,,,,,,,,219,21,Female,2022-05-18_16h32.51.466,Main,2022.1.1,60.00056400528521,
neutral,neutral,2,k,k,,,,,,,,,5,3,93,10,,,,,,,,,,,,,,,,,,,,,,,,main,2,2,2,neutral,neutral,k,k,1,0.8038483999998789,314.6208947,315.62592589999986,315.6055271,None,314.6208947,None,314.6208947,None,314.6208947,None,316.40770928999973,None,316.40770928999973,None,316.40770928999973,None,,,,,,,,,,,219,21,Female,2022-05-18_16h32.51.466,Main,2022.1.1,60.00056400528521,
neutral,positive,1,k,k,,,,,,,,,5,4,94,4,,,,,,,,,,,,,,,,,,,,,,,,main,1,1,1,positive,neutral,k,k,1,0.7832823999997345,316.4317567999997,317.45065369999975,317.41236709999976,None,316.4317567999997,None,316.4317567999997,None,316.4317567999997,None,318.1941238899999,None,318.1941238899999,None,318.1941238899999,None,,,,,,,,,,,219,21,Female,2022-05-18_16h32.51.466,Main,2022.1.1,60.00056400528521,
positive,neutral,1,l,j,,,,,,,,,5,5,95,8,,,,,,,,,,,,,,,,,,,,,,,,main,1,1,1,neutral,positive,j,j,1,0.8209873000000698,318.21435699999984,319.2231247999998,319.20364729999983,None,318.21435699999984,None,318.21435699999984,None,318.21435699999984,None,320.0195259899997,None,320.0195259899997,None,320.0195259899997,None,,,,,,,,,,,219,21,Female,2022-05-18_16h32.51.466,Main,2022.1.1,60.00056400528521,
negative,neutral,2,j,l,,,,,,,,,5,6,96,12,,,,,,,,,,,,,,,,,,,,,,,,main,1,1,2,neutral,negative,l,l,1,0.884730099999615,320.03968239999995,321.0539310999998,321.01462919999994,None,320.03968239999995,None,320.03968239999995,None,320.03968239999995,None,321.90682388999994,None,321.90682388999994,None,321.90682388999994,None,,,,,,,,,,,219,21,Female,2022-05-18_16h32.51.466,Main,2022.1.1,60.00056400528521,
neutral,negative,1,k,k,,,,,,,,,5,7,97,7,,,,,,,,,,,,,,,,,,,,,,,,main,2,2,1,negative,neutral,k,k,1,0.7220292000001791,321.92891310000005,322.9313281999998,322.91159149999976,None,321.92891310000005,None,321.92891310000005,None,321.92891310000005,None,323.6334092899997,None,323.6334092899997,None,323.6334092899997,None,,,,,,,,,,,219,21,Female,2022-05-18_16h32.51.466,Main,2022.1.1,60.00056400528521,
positive,neutral,2,l,j,,,,,,,,,5,8,98,17,,,,,,,,,,,,,,,,,,,,,,,,main,2,2,2,neutral,positive,j,j,1,0.7112710000001243,323.6535494999998,324.66254469999967,324.6440038999999,None,323.6535494999998,None,323.6535494999998,None,323.6535494999998,None,325.3453794899997,None,325.3453794899997,None,325.3453794899997,None,,,,,,,,,,,219,21,Female,2022-05-18_16h32.51.466,Main,2022.1.1,60.00056400528521,
negative,negative,1,j,l,,,,,,,,,5,9,99,0,,,,,,,,,,,,,,,,,,,,,,,,main,1,1,1,negative,negative,l,l,1,0.779707099999996,325.365863,326.3821164000001,326.3431115999997,None,325.365863,None,325.365863,None,325.365863,None,327.12448829000004,None,327.12448829000004,None,327.12448829000004,None,,,,,,,,,,,219,21,Female,2022-05-18_16h32.51.466,Main,2022.1.1,60.00056400528521,
neutral,neutral,1,k,k,,,,,,,,,5,10,100,1,,,,,,,,,,,,,,,,,,,,,,,,main,1,1,1,neutral,neutral,k,k,1,0.6806738999998743,327.1522319999999,328.1672764,328.1286415999998,None,327.1522319999999,None,327.1522319999999,None,327.1522319999999,None,328.8116332899999,None,328.8116332899999,None,328.8116332899999,None,,,,,,,,,,,219,21,Female,2022-05-18_16h32.51.466,Main,2022.1.1,60.00056400528521,
positive,positive,2,l,j,,,,,,,,,5,11,101,11,,,,,,,,,,,,,,,,,,,,,,,,main,2,2,2,positive,positive,j,j,1,0.6639610000001994,328.83252159999984,329.83634200000006,329.81661239999994,None,328.83252159999984,None,328.83252159999984,None,328.83252159999984,None,330.4772902899999,None,330.4772902899999,None,330.4772902899999,None,,,,,,,,,,,219,21,Female,2022-05-18_16h32.51.466,Main,2022.1.1,60.00056400528521,
negative,neutral,1,j,l,,,,,,,,,5,12,102,3,,,,,,,,,,,,,,,,,,,,,,,,main,2,2,1,neutral,negative,l,l,1,0.7027462999999443,330.50189150000006,331.52189339999995,331.4825323,None,330.50189150000006,None,330.50189150000006,None,330.50189150000006,None,332.18499988999974,None,332.18499988999974,None,332.18499988999974,None,,,,,,,,,,,219,21,Female,2022-05-18_16h32.51.466,Main,2022.1.1,60.00056400528521,
neutral,negative,2,k,k,,,,,,,,,5,13,103,16,,,,,,,,,,,,,,,,,,,,,,,,main,2,2,2,negative,neutral,k,k,1,0.6590261000001192,332.20497769999974,333.22407429999976,333.18504649999977,None,332.20497769999974,None,332.20497769999974,None,332.20497769999974,None,333.8428952899999,None,333.8428952899999,None,333.8428952899999,None,,,,,,,,,,,219,21,Female,2022-05-18_16h32.51.466,Main,2022.1.1,60.00056400528521,
negative,positive,2,j,l,,,,,,,,,5,14,104,15,,,,,,,,,,,,,,,,,,,,,,,,main,2,2,2,positive,negative,l,l,1,0.7845723000000362,333.8652834999998,334.8711257,334.8513281999999,None,333.8652834999998,None,333.8652834999998,None,333.8652834999998,None,335.6337526899997,None,335.6337526899997,None,335.6337526899997,None,,,,,,,,,,,219,21,Female,2022-05-18_16h32.51.466,Main,2022.1.1,60.00056400528521,
negative,positive,1,j,l,,,,,,,,,5,15,105,6,,,,,,,,,,,,,,,,,,,,,,,,main,1,1,1,positive,negative,l,l,1,0.7177566999998817,335.6568825999998,336.67345609999984,336.63456799999994,None,335.6568825999998,None,335.6568825999998,None,335.6568825999998,None,337.3539890899997,None,337.3539890899997,None,337.3539890899997,None,,,,,,,,,,,219,21,Female,2022-05-18_16h32.51.466,Main,2022.1.1,60.00056400528521,
positive,negative,1,l,j,,,,,,,,,5,16,106,5,,,,,,,,,,,,,,,,,,,,,,,,main,1,1,1,negative,positive,j,j,1,0.725009300000238,337.37489800000003,338.39908879999984,338.3515748,None,337.37489800000003,None,337.37489800000003,None,337.37489800000003,None,339.08385068999996,None,339.08385068999996,None,339.08385068999996,None,,,,,,,,,,,219,21,Female,2022-05-18_16h32.51.466,Main,2022.1.1,60.00056400528521,
positive,negative,2,l,j,,,,,,,,,5,17,107,14,,,,,,,,,,,,,,,,,,,,,,,,main,2,2,2,negative,positive,j,l,0,0.6808012999999846,339.1036260000001,340.11987279999994,340.0808466999997,None,339.1036260000001,None,339.1036260000001,None,339.1036260000001,None,340.7720647000001,None,340.7720647000001,None,340.7720647000001,None,,,,,,,,,,,219,21,Female,2022-05-18_16h32.51.466,Main,2022.1.1,60.00056400528521,
positive,positive,2,l,j,,,,,,,,,6,0,108,11,,,,,,,,,,,,,,,,,,,,,,,,main,2,2,2,positive,positive,j,j,1,0.9371946000001117,341.79562069999974,342.8136362,342.77504369999997,None,341.79562069999974,None,341.79562069999974,None,341.79562069999974,None,343.7121206900001,None,343.7121206900001,None,343.7121206900001,None,,,,,,,,,,,219,21,Female,2022-05-18_16h32.51.466,Main,2022.1.1,60.00056400528521,
neutral,positive,2,k,k,,,,,,,,,6,1,109,13,,,,,,,,,,,,,,,,,,,,,,,,main,2,2,2,positive,neutral,k,k,1,0.7797280999998293,343.73566459999984,344.7563113000001,344.71570139999994,None,343.73566459999984,None,343.73566459999984,None,343.73566459999984,None,345.49533449,None,345.49533449,None,345.49533449,None,,,,,,,,,,,219,21,Female,2022-05-18_16h32.51.466,Main,2022.1.1,60.00056400528521,
negative,negative,2,j,l,,,,,,,,,6,2,110,9,,,,,,,,,,,,,,,,,,,,,,,,main,2,2,2,negative,negative,l,l,1,0.6968822000003456,345.51557539999976,346.53394219999973,346.4947963999998,None,345.51557539999976,None,345.51557539999976,None,345.51557539999976,None,347.19634619,None,347.19634619,None,347.19634619,None,,,,,,,,,,,219,21,Female,2022-05-18_16h32.51.466,Main,2022.1.1,60.00056400528521,
neutral,neutral,1,k,k,,,,,,,,,6,3,111,1,,,,,,,,,,,,,,,,,,,,,,,,main,2,2,1,neutral,neutral,k,k,1,0.8606862999999976,347.21666920000007,348.2215573999997,348.2021311999997,None,347.21666920000007,None,347.21666920000007,None,347.21666920000007,None,349.0577470899998,None,349.0577470899998,None,349.0577470899998,None,,,,,,,,,,,219,21,Female,2022-05-18_16h32.51.466,Main,2022.1.1,60.00056400528521,
neutral,neutral,2,k,k,,,,,,,,,6,4,112,10,,,,,,,,,,,,,,,,,,,,,,,,main,2,2,2,neutral,neutral,k,k,1,1.0510948000001008,349.07982679999986,350.0862145000001,350.0662361999998,None,349.07982679999986,None,349.07982679999986,None,349.07982679999986,None,351.11309299000004,None,351.11309299000004,None,351.11309299000004,None,,,,,,,,,,,219,21,Female,2022-05-18_16h32.51.466,Main,2022.1.1,60.00056400528521,
negative,neutral,1,j,l,,,,,,,,,6,5,113,3,,,,,,,,,,,,,,,,,,,,,,,,main,2,2,1,neutral,negative,l,l,1,0.7495412000002943,351.13828639999974,352.1435806999998,352.12437629999977,None,351.13828639999974,None,351.13828639999974,None,351.13828639999974,None,352.8667156900001,None,352.8667156900001,None,352.8667156900001,None,,,,,,,,,,,219,21,Female,2022-05-18_16h32.51.466,Main,2022.1.1,60.00056400528521,
positive,negative,2,l,j,,,,,,,,,6,6,114,14,,,,,,,,,,,,,,,,,,,,,,,,main,1,1,2,negative,positive,j,j,1,0.7660031999998864,352.88858249999976,353.89917849999983,353.88039389999994,None,352.88858249999976,None,352.88858249999976,None,352.88858249999976,None,354.6354052900001,None,354.6354052900001,None,354.6354052900001,None,,,,,,,,,,,219,21,Female,2022-05-18_16h32.51.466,Main,2022.1.1,60.00056400528521,
positive,neutral,2,l,j,,,,,,,,,6,7,115,17,,,,,,,,,,,,,,,,,,,,,,,,main,1,1,2,neutral,positive,j,j,1,0.7282655999997587,354.6557555999998,355.67557880000004,355.6360691,None,354.6557555999998,None,354.6557555999998,None,354.6557555999998,None,356.36778978999973,None,356.36778978999973,None,356.36778978999973,None,,,,,,,,,,,219,21,Female,2022-05-18_16h32.51.466,Main,2022.1.1,60.00056400528521,
positive,negative,1,l,j,,,,,,,,,6,8,116,5,,,,,,,,,,,,,,,,,,,,,,,,main,1,1,1,negative,positive,j,j,1,0.7735210999999254,356.38976749999983,357.4061778999999,357.3669666999999,None,356.38976749999983,None,356.38976749999983,None,356.38976749999983,None,358.14649628999996,None,358.14649628999996,None,358.14649628999996,None,,,,,,,,,,,219,21,Female,2022-05-18_16h32.51.466,Main,2022.1.1,60.00056400528521,
neutral,positive,1,k,k,,,,,,,,,6,9,117,4,,,,,,,,,,,,,,,,,,,,,,,,main,1,1,1,positive,neutral,k,k,1,0.7702423000000636,358.1661033999999,359.17884749999985,359.14155630000005,None,358.1661033999999,None,358.1661033999999,None,358.1661033999999,None,359.91864429,None,359.91864429,None,359.91864429,None,,,,,,,,,,,219,21,Female,2022-05-18_16h32.51.466,Main,2022.1.1,60.00056400528521,
negative,negative,1,j,l,,,,,,,,,6,10,118,0,,,,,,,,,,,,,,,,,,,,,,,,main,1,1,1,negative,negative,l,l,1,0.6786628999998356,359.94308349999983,360.95827229999986,360.9196644999997,None,359.94308349999983,None,359.94308349999983,None,359.94308349999983,None,361.60262398999976,None,361.60262398999976,None,361.60262398999976,None,,,,,,,,,,,219,21,Female,2022-05-18_16h32.51.466,Main,2022.1.1,60.00056400528521,
negative,neutral,2,j,l,,,,,,,,,6,11,119,12,,,,,,,,,,,,,,,,,,,,,,,,main,2,2,2,neutral,negative,l,l,1,0.8586232000002383,361.62330889999976,362.64277809999976,362.6042017,None,361.62330889999976,None,361.62330889999976,None,361.62330889999976,None,363.46585499,None,363.46585499,None,363.46585499,None,,,,,,,,,,,219,21,Female,2022-05-18_16h32.51.466,Main,2022.1.1,60.00056400528521,
negative,positive,1,j,l,,,,,,,,,6,12,120,6,,,,,,,,,,,,,,,,,,,,,,,,main,1,1,1,positive,negative,l,l,1,0.642365300000165,363.4880721999998,364.5074483999997,364.4669144999998,None,363.4880721999998,None,363.4880721999998,None,363.4880721999998,None,365.10841269,None,365.10841269,None,365.10841269,None,,,,,,,,,,,219,21,Female,2022-05-18_16h32.51.466,Main,2022.1.1,60.00056400528521,
neutral,negative,1,k,k,,,,,,,,,6,13,121,7,,,,,,,,,,,,,,,,,,,,,,,,main,1,1,1,negative,neutral,k,k,1,0.810288700000001,365.1337069000001,366.14082770000005,366.1222561999998,None,365.1337069000001,None,365.1337069000001,None,365.1337069000001,None,366.92154999000013,None,366.92154999000013,None,366.92154999000013,None,,,,,,,,,,,219,21,Female,2022-05-18_16h32.51.466,Main,2022.1.1,60.00056400528521,
neutral,negative,2,k,k,,,,,,,,,6,14,122,16,,,,,,,,,,,,,,,,,,,,,,,,main,1,1,2,negative,neutral,k,k,1,0.6808841000001848,366.94166049999967,367.94998510000005,367.93000170000005,None,366.94166049999967,None,366.94166049999967,None,366.94166049999967,None,368.60482108999986,None,368.60482108999986,None,368.60482108999986,None,,,,,,,,,,,219,21,Female,2022-05-18_16h32.51.466,Main,2022.1.1,60.00056400528521,
negative,positive,2,j,l,,,,,,,,,6,15,123,15,,,,,,,,,,,,,,,,,,,,,,,,main,1,1,2,positive,negative,l,l,1,1.0999987000000147,368.6263015999998,369.6404709999997,369.6019779999997,None,368.6263015999998,None,368.6263015999998,None,368.6263015999998,None,370.70749509000007,None,370.70749509000007,None,370.70749509000007,None,,,,,,,,,,,219,21,Female,2022-05-18_16h32.51.466,Main,2022.1.1,60.00056400528521,
positive,positive,1,l,j,,,,,,,,,6,16,124,2,,,,,,,,,,,,,,,,,,,,,,,,main,1,1,1,positive,positive,j,j,1,0.7091356000000815,370.73080119999986,371.7379593999999,371.7185833999997,None,370.73080119999986,None,370.73080119999986,None,370.73080119999986,None,372.4191447899998,None,372.4191447899998,None,372.4191447899998,None,,,,,,,,,,,219,21,Female,2022-05-18_16h32.51.466,Main,2022.1.1,60.00056400528521,
positive,neutral,1,l,j,,,,,,,,,6,17,125,8,,,,,,,,,,,,,,,,,,,,,,,,main,2,2,1,neutral,positive,j,j,1,0.9494218999998338,372.4406586,373.4581043999997,373.42005029999973,None,372.4406586,None,372.4406586,None,372.4406586,None,374.37101488999997,None,374.37101488999997,None,374.37101488999997,None,,,,,,,,,,,219,21,Female,2022-05-18_16h32.51.466,Main,2022.1.1,60.00056400528521,
negative,negative,2,j,l,,,,,,,,,7,0,126,9,,,,,,,,,,,,,,,,,,,,,,,,main,1,1,2,negative,negative,l,l,1,0.78466090000029,374.39221069999985,375.40398609999966,375.3658513999999,None,374.39221069999985,None,374.39221069999985,None,374.39221069999985,None,376.1588257899998,None,376.1588257899998,None,376.1588257899998,None,,,,,,,,,,,219,21,Female,2022-05-18_16h32.51.466,Main,2022.1.1,60.00056400528521,
positive,negative,2,l,j,,,,,,,,,7,1,127,14,,,,,,,,,,,,,,,,,,,,,,,,main,2,2,2,negative,positive,j,j,1,1.0293765999999778,376.1828009000001,377.1850086999998,377.1657919999998,None,376.1828009000001,None,376.1828009000001,None,376.1828009000001,None,378.1924098899999,None,378.1924098899999,None,378.1924098899999,None,,,,,,,,,,,219,21,Female,2022-05-18_16h32.51.466,Main,2022.1.1,60.00056400528521,
neutral,positive,2,k,k,,,,,,,,,7,2,128,13,,,,,,,,,,,,,,,,,,,,,,,,main,2,2,2,positive,neutral,k,k,1,0.7698868999996193,378.2123259,379.2220588,379.2028637999997,None,378.2123259,None,378.2123259,None,378.2123259,None,379.96408158999975,None,379.96408158999975,None,379.96408158999975,None,,,,,,,,,,,219,21,Female,2022-05-18_16h32.51.466,Main,2022.1.1,60.00056400528521,
neutral,negative,2,k,k,,,,,,,,,7,3,129,16,,,,,,,,,,,,,,,,,,,,,,,,main,2,2,2,negative,neutral,k,k,1,0.8242233999999371,379.98456369999985,380.99571749999996,380.9761884999998,None,379.98456369999985,None,379.98456369999985,None,379.98456369999985,None,381.79166958999986,None,381.79166958999986,None,381.79166958999986,None,,,,,,,,,,,219,21,Female,2022-05-18_16h32.51.466,Main,2022.1.1,60.00056400528521,
neutral,negative,1,k,k,,,,,,,,,7,4,130,7,,,,,,,,,,,,,,,,,,,,,,,,main,1,1,1,negative,neutral,k,k,1,0.7477632999998605,381.8173440999999,382.82057499999974,382.80199820000007,None,381.8173440999999,None,381.8173440999999,None,381.8173440999999,None,383.54137829,None,383.54137829,None,383.54137829,None,,,,,,,,,,,219,21,Female,2022-05-18_16h32.51.466,Main,2022.1.1,60.00056400528521,
neutral,neutral,1,k,k,,,,,,,,,7,5,131,1,,,,,,,,,,,,,,,,,,,,,,,,main,1,1,1,neutral,neutral,k,k,1,0.6640956999999617,383.56563099999994,384.56983790000004,384.55088399999977,None,383.56563099999994,None,383.56563099999994,None,383.56563099999994,None,385.20770949000007,None,385.20770949000007,None,385.20770949000007,None,,,,,,,,,,,219,21,Female,2022-05-18_16h32.51.466,Main,2022.1.1,60.00056400528521,
negative,negative,1,j,l,,,,,,,,,7,6,132,0,,,,,,,,,,,,,,,,,,,,,,,,main,2,2,1,negative,negative,l,l,1,0.6617243999999118,385.2291319000001,386.23117479999974,386.2116599000001,None,385.2291319000001,None,385.2291319000001,None,385.2291319000001,None,386.87469009000006,None,386.87469009000006,None,386.87469009000006,None,,,,,,,,,,,219,21,Female,2022-05-18_16h32.51.466,Main,2022.1.1,60.00056400528521,
positive,neutral,1,l,j,,,,,,,,,7,7,133,8,,,,,,,,,,,,,,,,,,,,,,,,main,2,2,1,neutral,positive,j,j,1,0.8949793000001591,386.89471060000005,387.8973151,387.8776281999999,None,386.89471060000005,None,386.89471060000005,None,386.89471060000005,None,388.77082479,None,388.77082479,None,388.77082479,None,,,,,,,,,,,219,21,Female,2022-05-18_16h32.51.466,Main,2022.1.1,60.00056400528521,
positive,negative,1,l,j,,,,,,,,,7,8,134,5,,,,,,,,,,,,,,,,,,,,,,,,main,2,2,1,negative,positive,j,j,1,0.7727282000000741,388.7913629999998,389.80537779999986,389.76779110000007,None,388.7913629999998,None,388.7913629999998,None,388.7913629999998,None,390.5478632899999,None,390.5478632899999,None,390.5478632899999,None,,,,,,,,,,,219,21,Female,2022-05-18_16h32.51.466,Main,2022.1.1,60.00056400528521,
neutral,neutral,2,k,k,,,,,,,,,7,9,135,10,,,,,,,,,,,,,,,,,,,,,,,,main,1,1,2,neutral,neutral,k,k,1,0.8229442000001654,390.56816549999985,391.58332960000007,391.54398489999994,None,390.56816549999985,None,390.56816549999985,None,390.56816549999985,None,392.3751791899999,None,392.3751791899999,None,392.3751791899999,None,,,,,,,,,,,219,21,Female,2022-05-18_16h32.51.466,Main,2022.1.1,60.00056400528521,
negative,positive,1,j,l,,,,,,,,,7,10,136,6,,,,,,,,,,,,,,,,,,,,,,,,main,1,1,1,positive,negative,l,l,1,0.7840483999998469,392.39706479999995,393.39878389999967,393.37991220000004,None,392.39706479999995,None,392.39706479999995,None,392.39706479999995,None,394.16175329,None,394.16175329,None,394.16175329,None,,,,,,,,,,,219,21,Female,2022-05-18_16h32.51.466,Main,2022.1.1,60.00056400528521,
negative,positive,2,j,l,,,,,,,,,7,11,137,15,,,,,,,,,,,,,,,,,,,,,,,,main,2,2,2,positive,negative,l,l,1,0.9531777000001966,394.18340020000005,395.24108739999974,395.2222373999998,None,394.18340020000005,None,394.18340020000005,None,394.18340020000005,None,396.1154585899999,None,396.1154585899999,None,396.1154585899999,None,,,,,,,,,,,219,21,Female,2022-05-18_16h32.51.466,Main,2022.1.1,60.00056400528521,
positive,positive,2,l,j,,,,,,,,,7,12,138,11,,,,,,,,,,,,,,,,,,,,,,,,main,2,2,2,positive,positive,j,j,1,0.8040305999998054,396.13733460000003,397.1409104999998,397.1220411999998,None,396.13733460000003,None,396.13733460000003,None,396.13733460000003,None,397.92414259,None,397.92414259,None,397.92414259,None,,,,,,,,,,,219,21,Female,2022-05-18_16h32.51.466,Main,2022.1.1,60.00056400528521,
positive,positive,1,l,j,,,,,,,,,7,13,139,2,,,,,,,,,,,,,,,,,,,,,,,,main,1,1,1,positive,positive,j,j,1,0.8026092999998582,397.9443739999997,398.94995199999994,398.93092609999985,None,397.9443739999997,None,397.9443739999997,None,397.9443739999997,None,399.72906828999976,None,399.72906828999976,None,399.72906828999976,None,,,,,,,,,,,219,21,Female,2022-05-18_16h32.51.466,Main,2022.1.1,60.00056400528521,
negative,neutral,1,j,l,,,,,,,,,7,14,140,3,,,,,,,,,,,,,,,,,,,,,,,,main,1,1,1,neutral,negative,l,l,1,0.8536433999997826,399.75104889999966,400.7539409000001,400.73465129999977,None,399.75104889999966,None,399.75104889999966,None,399.75104889999966,None,401.5838075900001,None,401.5838075900001,None,401.5838075900001,None,,,,,,,,,,,219,21,Female,2022-05-18_16h32.51.466,Main,2022.1.1,60.00056400528521,
negative,neutral,2,j,l,,,,,,,,,7,15,141,12,,,,,,,,,,,,,,,,,,,,,,,,main,1,1,2,neutral,negative,l,l,1,1.3016791999998532,401.6092613999999,402.62788580000006,402.5899211000001,None,401.6092613999999,None,401.6092613999999,None,401.6092613999999,None,403.8906367899999,None,403.8906367899999,None,403.8906367899999,None,,,,,,,,,,,219,21,Female,2022-05-18_16h32.51.466,Main,2022.1.1,60.00056400528521,
positive,neutral,2,l,j,,,,,,,,,7,16,142,17,,,,,,,,,,,,,,,,,,,,,,,,main,2,2,2,neutral,positive,j,j,1,1.3296454999999696,403.91035220000003,404.91522510000004,404.8954402999998,None,403.91035220000003,None,403.91035220000003,None,403.91035220000003,None,406.2220885900001,None,406.2220885900001,None,406.2220885900001,None,,,,,,,,,,,219,21,Female,2022-05-18_16h32.51.466,Main,2022.1.1,60.00056400528521,
neutral,positive,1,k,k,,,,,,,,,7,17,143,4,,,,,,,,,,,,,,,,,,,,,,,,main,1,1,1,positive,neutral,k,k,1,0.7773462999998628,406.2462826000001,407.26259849999997,407.22306899999967,None,406.2462826000001,None,406.2462826000001,None,406.2462826000001,None,408.00131368999973,None,408.00131368999973,None,408.00131368999973,None,,,,,,,,,,,219,21,Female,2022-05-18_16h32.51.466,Main,2022.1.1,60.00056400528521,
neutral,negative,1,k,k,,,,,,,,,8,0,144,7,,,,,,,,,,,,,,,,,,,,,,,,main,2,2,1,negative,neutral,k,k,1,1.0817621999999574,408.02286079999976,409.0366340999999,408.9987860000001,None,408.02286079999976,None,408.02286079999976,None,408.02286079999976,None,410.08661359000007,None,410.08661359000007,None,410.08661359000007,None,,,,,,,,,,,219,21,Female,2022-05-18_16h32.51.466,Main,2022.1.1,60.00056400528521,
neutral,negative,2,k,k,,,,,,,,,8,1,145,16,,,,,,,,,,,,,,,,,,,,,,,,main,2,2,2,negative,neutral,k,k,1,0.7157087000000502,410.1069309999998,411.12601619999987,411.10564559999966,None,410.1069309999998,None,410.1069309999998,None,410.1069309999998,None,411.80620099,None,411.80620099,None,411.80620099,None,,,,,,,,,,,219,21,Female,2022-05-18_16h32.51.466,Main,2022.1.1,60.00056400528521,
positive,positive,2,l,j,,,,,,,,,8,2,146,11,,,,,,,,,,,,,,,,,,,,,,,,main,1,1,2,positive,positive,j,j,1,0.7659797000001163,411.82832929999995,412.8431112999997,412.8219644999999,None,411.82832929999995,None,411.82832929999995,None,411.82832929999995,None,413.57494739000003,None,413.57494739000003,None,413.57494739000003,None,,,,,,,,,,,219,21,Female,2022-05-18_16h32.51.466,Main,2022.1.1,60.00056400528521,
neutral,positive,1,k,k,,,,,,,,,8,3,147,4,,,,,,,,,,,,,,,,,,,,,,,,main,1,1,1,positive,neutral,k,k,1,0.7099822999998651,413.59919309999987,414.6228369999999,414.5814083999999,None,413.59919309999987,None,413.59919309999987,None,413.59919309999987,None,415.28525579000006,None,415.28525579000006,None,415.28525579000006,None,,,,,,,,,,,219,21,Female,2022-05-18_16h32.51.466,Main,2022.1.1,60.00056400528521,
positive,negative,2,l,j,,,,,,,,,8,4,148,14,,,,,,,,,,,,,,,,,,,,,,,,main,2,2,2,negative,positive,j,j,1,0.7609525000002577,415.31352449999986,416.31863599999997,416.2979676,None,415.31352449999986,None,415.31352449999986,None,415.31352449999986,None,417.0503378899998,None,417.0503378899998,None,417.0503378899998,None,,,,,,,,,,,219,21,Female,2022-05-18_16h32.51.466,Main,2022.1.1,60.00056400528521,
negative,negative,1,j,l,,,,,,,,,8,5,149,0,,,,,,,,,,,,,,,,,,,,,,,,main,1,1,1,negative,negative,l,l,1,0.8585469999998168,417.07501950000005,418.08635779999986,418.0654359,None,417.07501950000005,None,417.07501950000005,None,417.07501950000005,None,418.91126258999975,None,418.91126258999975,None,418.91126258999975,None,,,,,,,,,,,219,21,Female,2022-05-18_16h32.51.466,Main,2022.1.1,60.00056400528521,
negative,neutral,1,j,l,,,,,,,,,8,6,150,3,,,,,,,,,,,,,,,,,,,,,,,,main,2,2,1,neutral,negative,l,l,1,0.69796899999983,418.9405271999999,419.95336989999987,419.93088149999994,None,418.9405271999999,None,418.9405271999999,None,418.9405271999999,None,420.6118402899997,None,420.6118402899997,None,420.6118402899997,None,,,,,,,,,,,219,21,Female,2022-05-18_16h32.51.466,Main,2022.1.1,60.00056400528521,
positive,negative,1,l,j,,,,,,,,,8,7,151,5,,,,,,,,,,,,,,,,,,,,,,,,main,1,1,1,negative,positive,j,j,1,0.8228587999997217,420.64242179999974,421.64825040000005,421.62685919999967,None,420.64242179999974,None,420.64242179999974,None,420.64242179999974,None,422.44075928999973,None,422.44075928999973,None,422.44075928999973,None,,,,,,,,,,,219,21,Female,2022-05-18_16h32.51.466,Main,2022.1.1,60.00056400528521,
negative,positive,2,j,l,,,,,,,,,8,8,152,15,,,,,,,,,,,,,,,,,,,,,,,,main,1,1,2,positive,negative,l,l,1,0.8504520999999841,422.46527609999976,423.4739233999999,423.4522440999999,None,422.46527609999976,None,422.46527609999976,None,422.46527609999976,None,424.2941302899999,None,424.2941302899999,None,424.2941302899999,None,,,,,,,,,,,219,21,Female,2022-05-18_16h32.51.466,Main,2022.1.1,60.00056400528521,
positive,positive,1,l,j,,,,,,,,,8,9,153,2,,,,,,,,,,,,,,,,,,,,,,,,main,1,1,1,positive,positive,j,j,1,0.7705230000001393,424.3228902000001,425.3301710999999,425.3098480999997,None,424.3228902000001,None,424.3228902000001,None,424.3228902000001,None,426.0661323899999,None,426.0661323899999,None,426.0661323899999,None,,,,,,,,,,,219,21,Female,2022-05-18_16h32.51.466,Main,2022.1.1,60.00056400528521,
positive,neutral,1,l,j,,,,,,,,,8,10,154,8,,,,,,,,,,,,,,,,,,,,,,,,main,1,1,1,neutral,positive,j,j,1,0.8301581000000624,426.0941800999999,427.10441979999996,427.0837112999998,None,426.0941800999999,None,426.0941800999999,None,426.0941800999999,None,427.90258908999976,None,427.90258908999976,None,427.90258908999976,None,,,,,,,,,,,219,21,Female,2022-05-18_16h32.51.466,Main,2022.1.1,60.00056400528521,
negative,positive,1,j,l,,,,,,,,,8,11,155,6,,,,,,,,,,,,,,,,,,,,,,,,main,1,1,1,positive,negative,l,l,1,0.772126599999865,427.92767449999974,428.93374360000007,428.9108332999999,None,427.92767449999974,None,427.92767449999974,None,427.92767449999974,None,429.6751757899997,None,429.6751757899997,None,429.6751757899997,None,,,,,,,,,,,219,21,Female,2022-05-18_16h32.51.466,Main,2022.1.1,60.00056400528521,
negative,neutral,2,j,l,,,,,,,,,8,12,156,12,,,,,,,,,,,,,,,,,,,,,,,,main,1,1,2,neutral,negative,l,l,1,0.894481000000269,429.70228659999975,430.7064628999997,430.68617319999976,None,429.70228659999975,None,429.70228659999975,None,429.70228659999975,None,431.5749499899998,None,431.5749499899998,None,431.5749499899998,None,,,,,,,,,,,219,21,Female,2022-05-18_16h32.51.466,Main,2022.1.1,60.00056400528521,
negative,negative,2,j,l,,,,,,,,,8,13,157,9,,,,,,,,,,,,,,,,,,,,,,,,main,2,2,2,negative,negative,l,l,1,0.8540477000001374,431.599283,432.62343299999975,432.58118149999973,None,431.599283,None,431.599283,None,431.599283,None,433.43188488999976,None,433.43188488999976,None,433.43188488999976,None,,,,,,,,,,,219,21,Female,2022-05-18_16h32.51.466,Main,2022.1.1,60.00056400528521,
neutral,positive,2,k,k,,,,,,,,,8,14,158,13,,,,,,,,,,,,,,,,,,,,,,,,main,2,2,2,positive,neutral,k,k,1,0.8247888999999304,433.46120519999977,434.47460599999977,434.45349689999966,None,433.46120519999977,None,433.46120519999977,None,433.46120519999977,None,435.25952658999995,None,435.25952658999995,None,435.25952658999995,None,,,,,,,,,,,219,21,Female,2022-05-18_16h32.51.466,Main,2022.1.1,60.00056400528521,
neutral,neutral,1,k,k,,,,,,,,,8,15,159,1,,,,,,,,,,,,,,,,,,,,,,,,main,1,1,1,neutral,neutral,k,k,1,0.7794455000002927,435.28782139999976,436.2910784999999,436.2701830000001,None,435.28782139999976,None,435.28782139999976,None,435.28782139999976,None,437.04279598999983,None,437.04279598999983,None,437.04279598999983,None,,,,,,,,,,,219,21,Female,2022-05-18_16h32.51.466,Main,2022.1.1,60.00056400528521,
neutral,neutral,2,k,k,,,,,,,,,8,16,160,10,,,,,,,,,,,,,,,,,,,,,,,,main,1,1,2,neutral,neutral,k,k,1,0.7427044999999453,437.0671405999997,438.0790242999997,438.0587148999998,None,437.0671405999997,None,437.0671405999997,None,437.0671405999997,None,438.7885690899998,None,438.7885690899998,None,438.7885690899998,None,,,,,,,,,,,219,21,Female,2022-05-18_16h32.51.466,Main,2022.1.1,60.00056400528521,
positive,neutral,2,l,j,,,,,,,,,8,17,161,17,,,,,,,,,,,,,,,,,,,,,,,,main,1,1,2,neutral,positive,j,j,1,1.0519721999999092,438.8172211000001,439.83075499999995,439.8099606999999,None,438.8172211000001,None,438.8172211000001,None,438.8172211000001,None,440.84490959000004,None,440.84490959000004,None,440.84490959000004,None,,,,,,,,,,,219,21,Female,2022-05-18_16h32.51.466,Main,2022.1.1,60.00056400528521,
negative,neutral,2,j,l,,,,,,,,,9,0,162,12,,,,,,,,,,,,,,,,,,,,,,,,main,2,2,2,neutral,negative,l,l,1,0.7290264000002935,440.8710366,441.8798505999998,441.8585595999998,None,440.8710366,None,440.8710366,None,440.8710366,None,442.5777308900001,None,442.5777308900001,None,442.5777308900001,None,,,,,,,,,,,219,21,Female,2022-05-18_16h32.51.466,Main,2022.1.1,60.00056400528521,
negative,negative,1,j,l,,,,,,,,,9,1,163,0,,,,,,,,,,,,,,,,,,,,,,,,main,2,2,1,negative,negative,l,l,1,0.734930400000394,442.6025845999998,443.6181644999997,443.5976668999997,None,442.6025845999998,None,442.6025845999998,None,442.6025845999998,None,444.31728759,None,444.31728759,None,444.31728759,None,,,,,,,,,,,219,21,Female,2022-05-18_16h32.51.466,Main,2022.1.1,60.00056400528521,
positive,positive,1,l,j,,,,,,,,,9,2,164,2,,,,,,,,,,,,,,,,,,,,,,,,main,2,2,1,positive,positive,j,j,1,0.8096669000001384,444.3443106,445.3494154,445.32915879999973,None,444.3443106,None,444.3443106,None,444.3443106,None,446.12869489000013,None,446.12869489000013,None,446.12869489000013,None,,,,,,,,,,,219,21,Female,2022-05-18_16h32.51.466,Main,2022.1.1,60.00056400528521,
positive,positive,2,l,j,,,,,,,,,9,3,165,11,,,,,,,,,,,,,,,,,,,,,,,,main,2,2,2,positive,positive,j,j,1,0.7024575999998888,446.1543505999998,447.1735914000001,447.13161809999974,None,446.1543505999998,None,446.1543505999998,None,446.1543505999998,None,447.83389568999974,None,447.83389568999974,None,447.83389568999974,None,,,,,,,,,,,219,21,Female,2022-05-18_16h32.51.466,Main,2022.1.1,60.00056400528521,
positive,negative,2,l,j,,,,,,,,,9,4,166,14,,,,,,,,,,,,,,,,,,,,,,,,main,2,2,2,negative,positive,j,j,1,0.598918500000309,447.8605634999999,448.87172199999986,448.85148149999986,None,447.8605634999999,None,447.8605634999999,None,447.8605634999999,None,449.4371230900001,None,449.4371230900001,None,449.4371230900001,None,,,,,,,,,,,219,21,Female,2022-05-18_16h32.51.466,Main,2022.1.1,60.00056400528521,
negative,negative,2,j,l,,,,,,,,,9,5,167,9,,,,,,,,,,,,,,,,,,,,,,,,main,1,1,2,negative,negative,l,l,1,0.8026889999996456,449.4623615999999,450.46965709999995,450.44824689999996,None,449.4623615999999,None,449.4623615999999,None,449.4623615999999,None,451.24378868999975,None,451.24378868999975,None,451.24378868999975,None,,,,,,,,,,,219,21,Female,2022-05-18_16h32.51.466,Main,2022.1.1,60.00056400528521,
neutral,neutral,1,k,k,,,,,,,,,9,6,168,1,,,,,,,,,,,,,,,,,,,,,,,,main,1,1,1,neutral,neutral,k,k,1,0.6888914999999542,451.26781979999987,452.28961819999995,452.24542139999994,None,451.26781979999987,None,451.26781979999987,None,451.26781979999987,None,452.9374790900001,None,452.9374790900001,None,452.9374790900001,None,,,,,,,,,,,219,21,Female,2022-05-18_16h32.51.466,Main,2022.1.1,60.00056400528521,
positive,neutral,2,l,j,,,,,,,,,9,7,169,17,,,,,,,,,,,,,,,,,,,,,,,,main,1,1,2,neutral,positive,j,j,1,0.9778331000002254,452.96183519999977,453.96961139999985,453.9487906999998,None,452.96183519999977,None,452.96183519999977,None,452.96183519999977,None,454.9185790900001,None,454.9185790900001,None,454.9185790900001,None,,,,,,,,,,,219,21,Female,2022-05-18_16h32.51.466,Main,2022.1.1,60.00056400528521,
neutral,positive,1,k,k,,,,,,,,,9,8,170,4,,,,,,,,,,,,,,,,,,,,,,,,main,2,2,1,positive,neutral,k,k,1,0.7701460000002953,454.94554100000005,455.9551612,455.9304973999997,None,454.94554100000005,None,454.94554100000005,None,454.94554100000005,None,456.6929680899998,None,456.6929680899998,None,456.6929680899998,None,,,,,,,,,,,219,21,Female,2022-05-18_16h32.51.466,Main,2022.1.1,60.00056400528521,
neutral,neutral,2,k,k,,,,,,,,,9,9,171,10,,,,,,,,,,,,,,,,,,,,,,,,main,2,2,2,neutral,neutral,k,k,1,0.7274549999997362,456.72225469999967,457.7310690999998,457.7093516,None,456.72225469999967,None,456.72225469999967,None,456.72225469999967,None,458.42407208999975,None,458.42407208999975,None,458.42407208999975,None,,,,,,,,,,,219,21,Female,2022-05-18_16h32.51.466,Main,2022.1.1,60.00056400528521,
negative,positive,1,j,l,,,,,,,,,9,10,172,6,,,,,,,,,,,,,,,,,,,,,,,,main,2,2,1,positive,negative,l,l,1,0.7674870000000737,458.45256689999997,459.4591544,459.43672659999993,None,458.45256689999997,None,458.45256689999997,None,458.45256689999997,None,460.1941445899997,None,460.1941445899997,None,460.1941445899997,None,,,,,,,,,,,219,21,Female,2022-05-18_16h32.51.466,Main,2022.1.1,60.00056400528521,
neutral,negative,1,k,k,,,,,,,,,9,11,173,7,,,,,,,,,,,,,,,,,,,,,,,,main,1,1,1,negative,neutral,k,k,1,0.7119122999997671,460.2224747,461.2416542000001,461.2043528999998,None,460.2224747,None,460.2224747,None,460.2224747,None,461.91025538999975,None,461.91025538999975,None,461.91025538999975,None,,,,,,,,,,,219,21,Female,2022-05-18_16h32.51.466,Main,2022.1.1,60.00056400528521,
positive,negative,1,l,j,,,,,,,,,9,12,174,5,,,,,,,,,,,,,,,,,,,,,,,,main,2,2,1,negative,positive,j,j,1,0.848616100000072,461.9361103000001,462.9628674999999,462.9147647,None,461.9361103000001,None,461.9361103000001,None,461.9361103000001,None,463.76355199,None,463.76355199,None,463.76355199,None,,,,,,,,,,,219,21,Female,2022-05-18_16h32.51.466,Main,2022.1.1,60.00056400528521,
neutral,positive,2,k,k,,,,,,,,,9,13,175,13,,,,,,,,,,,,,,,,,,,,,,,,main,1,1,2,positive,neutral,k,k,1,0.7538897000003999,463.78449729999966,464.8011074000001,464.7786182,None,463.78449729999966,None,463.78449729999966,None,463.78449729999966,None,465.51994539,None,465.51994539,None,465.51994539,None,,,,,,,,,,,219,21,Female,2022-05-18_16h32.51.466,Main,2022.1.1,60.00056400528521,
positive,neutral,1,l,j,,,,,,,,,9,14,176,8,,,,,,,,,,,,,,,,,,,,,,,,main,1,1,1,neutral,positive,j,j,1,1.0105834999999388,465.54470709999987,466.5533628999997,466.5330842999997,None,465.54470709999987,None,465.54470709999987,None,465.54470709999987,None,467.5366278900001,None,467.5366278900001,None,467.5366278900001,None,,,,,,,,,,,219,21,Female,2022-05-18_16h32.51.466,Main,2022.1.1,60.00056400528521,
neutral,negative,2,k,k,,,,,,,,,9,15,177,16,,,,,,,,,,,,,,,,,,,,,,,,main,1,1,2,negative,neutral,k,k,1,0.7180379000001267,467.56358439999985,468.58929880000005,468.5457421000001,None,467.56358439999985,None,467.56358439999985,None,467.56358439999985,None,469.25760838999986,None,469.25760838999986,None,469.25760838999986,None,,,,,,,,,,,219,21,Female,2022-05-18_16h32.51.466,Main,2022.1.1,60.00056400528521,
negative,positive,2,j,l,,,,,,,,,9,16,178,15,,,,,,,,,,,,,,,,,,,,,,,,main,1,1,2,positive,negative,l,l,1,0.7689187000000857,469.28120450000006,470.2896158999997,470.2682563999997,None,469.28120450000006,None,469.28120450000006,None,469.28120450000006,None,471.0300642899997,None,471.0300642899997,None,471.0300642899997,None,,,,,,,,,,,219,21,Female,2022-05-18_16h32.51.466,Main,2022.1.1,60.00056400528521,
negative,neutral,1,j,l,,,,,,,,,9,17,179,3,,,,,,,,,,,,,,,,,,,,,,,,main,2,2,1,neutral,negative,l,l,1,0.8669115000002421,471.0553396,472.06177519999983,472.04110979999996,None,471.0553396,None,471.0553396,None,471.0553396,None,472.9010087900001,None,472.9010087900001,None,472.9010087900001,None,,,,,,,,,,,219,21,Female,2022-05-18_16h32.51.466,Main,2022.1.1,60.00056400528521,
negative,negative,1,j,l,,,,,,,,,10,0,180,0,,,,,,,,,,,,,,,,,,,,,,,,main,1,1,1,negative,negative,l,l,1,0.929147699999703,472.92526369999996,473.9308381000001,473.91100789999973,None,472.92526369999996,None,472.92526369999996,None,472.92526369999996,None,474.83239929,None,474.83239929,None,474.83239929,None,,,,,,,,,,,219,21,Female,2022-05-18_16h32.51.466,Main,2022.1.1,60.00056400528521,
negative,negative,2,j,l,,,,,,,,,10,1,181,9,,,,,,,,,,,,,,,,,,,,,,,,main,2,2,2,negative,negative,l,l,1,0.7232037000003402,474.8629433000001,475.8882638,475.84328659999983,None,474.8629433000001,None,474.8629433000001,None,474.8629433000001,None,476.5647729899997,None,476.5647729899997,None,476.5647729899997,None,,,,,,,,,,,219,21,Female,2022-05-18_16h32.51.466,Main,2022.1.1,60.00056400528521,
positive,neutral,1,l,j,,,,,,,,,10,2,182,8,,,,,,,,,,,,,,,,,,,,,,,,main,1,1,1,neutral,positive,j,j,1,0.8100186000001486,476.58520569999973,477.6070577999999,477.5645420000001,None,476.58520569999973,None,476.58520569999973,None,476.58520569999973,None,478.3746167899999,None,478.3746167899999,None,478.3746167899999,None,,,,,,,,,,,219,21,Female,2022-05-18_16h32.51.466,Main,2022.1.1,60.00056400528521,
positive,neutral,2,l,j,,,,,,,,,10,3,183,17,,,,,,,,,,,,,,,,,,,,,,,,main,2,2,2,neutral,positive,j,j,1,0.6884785000002012,478.39995709999994,479.4048700999997,479.38311399999975,None,478.39995709999994,None,478.39995709999994,None,478.39995709999994,None,480.06671809,None,480.06671809,None,480.06671809,None,,,,,,,,,,,219,21,Female,2022-05-18_16h32.51.466,Main,2022.1.1,60.00056400528521,
neutral,positive,1,k,k,,,,,,,,,10,4,184,4,,,,,,,,,,,,,,,,,,,,,,,,main,1,1,1,positive,neutral,k,k,1,0.7151221999997688,480.0912279999998,481.1084163999999,481.06776119999995,None,480.0912279999998,None,480.0912279999998,None,480.0912279999998,None,481.78551948999984,None,481.78551948999984,None,481.78551948999984,None,,,,,,,,,,,219,21,Female,2022-05-18_16h32.51.466,Main,2022.1.1,60.00056400528521,
neutral,neutral,1,k,k,,,,,,,,,10,5,185,1,,,,,,,,,,,,,,,,,,,,,,,,main,2,2,1,neutral,neutral,k,k,1,0.705551099999866,481.8129441000001,482.8228730000001,482.8005328999998,None,481.8129441000001,None,481.8129441000001,None,481.8129441000001,None,483.49627758999986,None,483.49627758999986,None,483.49627758999986,None,,,,,,,,,,,219,21,Female,2022-05-18_16h32.51.466,Main,2022.1.1,60.00056400528521,
negative,neutral,2,j,l,,,,,,,,,10,6,186,12,,,,,,,,,,,,,,,,,,,,,,,,main,1,1,2,neutral,negative,l,l,1,0.741192399999818,483.5208631999999,484.5376637999998,484.5167495999999,None,483.5208631999999,None,483.5208631999999,None,483.5208631999999,None,485.23878638999986,None,485.23878638999986,None,485.23878638999986,None,,,,,,,,,,,219,21,Female,2022-05-18_16h32.51.466,Main,2022.1.1,60.00056400528521,
positive,negative,1,l,j,,,,,,,,,10,7,187,5,,,,,,,,,,,,,,,,,,,,,,,,main,1,1,1,negative,positive,j,j,1,0.8693309000000227,485.269362,486.2836391000001,486.24189879999994,None,485.269362,None,485.269362,None,485.269362,None,487.10873018999973,None,487.10873018999973,None,487.10873018999973,None,,,,,,,,,,,219,21,Female,2022-05-18_16h32.51.466,Main,2022.1.1,60.00056400528521,
neutral,positive,2,k,k,,,,,,,,,10,8,188,13,,,,,,,,,,,,,,,,,,,,,,,,main,2,2,2,positive,neutral,k,k,1,0.8070548000000599,487.13706619999994,488.1417624999999,488.12036609999996,None,487.13706619999994,None,487.13706619999994,None,487.13706619999994,None,488.91981879000014,None,488.91981879000014,None,488.91981879000014,None,,,,,,,,,,,219,21,Female,2022-05-18_16h32.51.466,Main,2022.1.1,60.00056400528521,
neutral,negative,1,k,k,,,,,,,,,10,9,189,7,,,,,,,,,,,,,,,,,,,,,,,,main,2,2,1,negative,neutral,k,k,1,0.7013142999999218,488.953387,489.95716679999987,489.93605320000006,None,488.953387,None,488.953387,None,488.953387,None,490.62885848999986,None,490.62885848999986,None,490.62885848999986,None,,,,,,,,,,,219,21,Female,2022-05-18_16h32.51.466,Main,2022.1.1,60.00056400528521,
neutral,negative,2,k,k,,,,,,,,,10,10,190,16,,,,,,,,,,,,,,,,,,,,,,,,main,2,2,2,negative,neutral,k,k,1,0.6842898999998397,490.6492886000001,491.6706564000001,491.6265847999998,None,490.6492886000001,None,490.6492886000001,None,490.6492886000001,None,492.31471368999973,None,492.31471368999973,None,492.31471368999973,None,,,,,,,,,,,219,21,Female,2022-05-18_16h32.51.466,Main,2022.1.1,60.00056400528521,
positive,negative,2,l,j,,,,,,,,,10,11,191,14,,,,,,,,,,,,,,,,,,,,,,,,main,1,1,2,negative,positive,j,j,1,0.7340788999999859,492.3382124,493.3633815999997,493.3192915999998,None,492.3382124,None,492.3382124,None,492.3382124,None,494.0492554899997,None,494.0492554899997,None,494.0492554899997,None,,,,,,,,,,,219,21,Female,2022-05-18_16h32.51.466,Main,2022.1.1,60.00056400528521,
positive,positive,2,l,j,,,,,,,,,10,12,192,11,,,,,,,,,,,,,,,,,,,,,,,,main,1,1,2,positive,positive,j,j,1,0.7375136999999086,494.07602399999996,495.07825950000006,495.05999269999984,None,494.07602399999996,None,494.07602399999996,None,494.07602399999996,None,495.7914967900001,None,495.7914967900001,None,495.7914967900001,None,,,,,,,,,,,219,21,Female,2022-05-18_16h32.51.466,Main,2022.1.1,60.00056400528521,
positive,positive,1,l,j,,,,,,,,,10,13,193,2,,,,,,,,,,,,,,,,,,,,,,,,main,1,1,1,positive,positive,j,j,1,0.6673357999998188,495.8197820999999,496.8388064999999,496.79696479999984,None,495.8197820999999,None,495.8197820999999,None,495.8197820999999,None,497.46004739,None,497.46004739,None,497.46004739,None,,,,,,,,,,,219,21,Female,2022-05-18_16h32.51.466,Main,2022.1.1,60.00056400528521,
neutral,neutral,2,k,k,,,,,,,,,10,14,194,10,,,,,,,,,,,,,,,,,,,,,,,,main,1,1,2,neutral,neutral,k,k,1,0.7009701000001769,497.49979829999984,498.5226921999997,498.4793761000001,None,497.49979829999984,None,497.49979829999984,None,497.49979829999984,None,499.16847739000013,None,499.16847739000013,None,499.16847739000013,None,,,,,,,,,,,219,21,Female,2022-05-18_16h32.51.466,Main,2022.1.1,60.00056400528521,
negative,neutral,1,j,l,,,,,,,,,10,15,195,3,,,,,,,,,,,,,,,,,,,,,,,,main,1,1,1,neutral,negative,l,l,1,0.7644709000001058,499.19939780000004,500.21153239999967,500.1904996999997,None,499.19939780000004,None,499.19939780000004,None,499.19939780000004,None,500.9366042900001,None,500.9366042900001,None,500.9366042900001,None,,,,,,,,,,,219,21,Female,2022-05-18_16h32.51.466,Main,2022.1.1,60.00056400528521,
negative,positive,2,j,l,,,,,,,,,10,16,196,15,,,,,,,,,,,,,,,,,,,,,,,,main,1,1,2,positive,negative,l,l,1,0.9493853999997555,500.9637558999998,501.9839468,501.96039859999973,None,500.9637558999998,None,500.9637558999998,None,500.9637558999998,None,502.88970358999995,None,502.88970358999995,None,502.88970358999995,None,,,,,,,,,,,219,21,Female,2022-05-18_16h32.51.466,Main,2022.1.1,60.00056400528521,
negative,positive,1,j,l,,,,,,,,,10,17,197,6,,,,,,,,,,,,,,,,,,,,,,,,main,2,2,1,positive,negative,l,l,1,0.6830242000000908,502.9165014,503.9206304999998,503.899641,None,502.9165014,None,502.9165014,None,502.9165014,None,504.5743206899997,None,504.5743206899997,None,504.5743206899997,None,,,,,,,,,,,219,21,Female,2022-05-18_16h32.51.466,Main,2022.1.1,60.00056400528521,
negative,negative,2,j,l,,,,,,,,,11,0,198,9,,,,,,,,,,,,,,,,,,,,,,,,main,1,1,2,negative,negative,l,l,1,0.6177523999999721,504.6020008999999,505.6138355999997,505.59098509999967,None,504.6020008999999,None,504.6020008999999,None,504.6020008999999,None,506.1959595899998,None,506.1959595899998,None,506.1959595899998,None,,,,,,,,,,,219,21,Female,2022-05-18_16h32.51.466,Main,2022.1.1,60.00056400528521,
neutral,positive,1,k,k,,,,,,,,,11,1,199,4,,,,,,,,,,,,,,,,,,,,,,,,main,2,2,1,positive,neutral,k,k,1,0.7029823999996552,506.2240225999999,507.2344674000001,507.21433769999976,None,506.2240225999999,None,506.2240225999999,None,506.2240225999999,None,507.90423568999995,None,507.90423568999995,None,507.90423568999995,None,,,,,,,,,,,219,21,Female,2022-05-18_16h32.51.466,Main,2022.1.1,60.00056400528521,
positive,negative,1,l,j,,,,,,,,,11,2,200,5,,,,,,,,,,,,,,,,,,,,,,,,main,1,1,1,negative,positive,j,j,1,0.6900141000000986,507.92551539999977,508.9344136999998,508.9131735000001,None,507.92551539999977,None,507.92551539999977,None,507.92551539999977,None,509.59680789000004,None,509.59680789000004,None,509.59680789000004,None,,,,,,,,,,,219,21,Female,2022-05-18_16h32.51.466,Main,2022.1.1,60.00056400528521,
neutral,negative,1,k,k,,,,,,,,,11,3,201,7,,,,,,,,,,,,,,,,,,,,,,,,main,2,2,1,negative,neutral,k,k,1,0.6751808999997593,509.63029989999995,510.6353028999997,510.6138447999997,None,509.63029989999995,None,509.63029989999995,None,509.63029989999995,None,511.2746325899998,None,511.2746325899998,None,511.2746325899998,None,,,,,,,,,,,219,21,Female,2022-05-18_16h32.51.466,Main,2022.1.1,60.00056400528521,
negative,negative,1,j,l,,,,,,,,,11,4,202,0,,,,,,,,,,,,,,,,,,,,,,,,main,1,1,1,negative,negative,l,k,0,0.6302997000002506,511.30337929999996,512.3257718,512.2850945,None,511.30337929999996,None,511.30337929999996,None,511.30337929999996,None,512.9185723999999,None,512.9185723999999,None,512.9185723999999,None,,,,,,,,,,,219,21,Female,2022-05-18_16h32.51.466,Main,2022.1.1,60.00056400528521,
neutral,neutral,1,k,k,,,,,,,,,11,5,203,1,,,,,,,,,,,,,,,,,,,,,,,,main,2,2,1,neutral,neutral,k,k,1,1.0396897999999055,513.942223,514.9654384,514.9428745,None,513.942223,None,513.942223,None,513.942223,None,515.9602865900001,None,515.9602865900001,None,515.9602865900001,None,,,,,,,,,,,219,21,Female,2022-05-18_16h32.51.466,Main,2022.1.1,60.00056400528521,
neutral,neutral,2,k,k,,,,,,,,,11,6,204,10,,,,,,,,,,,,,,,,,,,,,,,,main,2,2,2,neutral,neutral,k,k,1,0.9548011000001679,515.9833960999999,516.9963207999999,516.9765428000001,None,515.9833960999999,None,515.9833960999999,None,515.9833960999999,None,517.9159128900001,None,517.9159128900001,None,517.9159128900001,None,,,,,,,,,,,219,21,Female,2022-05-18_16h32.51.466,Main,2022.1.1,60.00056400528521,
neutral,positive,2,k,k,,,,,,,,,11,7,205,13,,,,,,,,,,,,,,,,,,,,,,,,main,2,2,2,positive,neutral,k,k,1,0.6703904999999395,517.9396776999997,518.9718239999997,518.9218095000001,None,517.9396776999997,None,517.9396776999997,None,517.9396776999997,None,519.6017885799997,None,519.6017885799997,None,519.6017885799997,None,,,,,,,,,,,219,21,Female,2022-05-18_16h32.51.466,Main,2022.1.1,60.00056400528521,
negative,positive,1,j,l,,,,,,,,,11,8,206,6,,,,,,,,,,,,,,,,,,,,,,,,main,2,2,1,positive,negative,l,l,1,0.7972169000004214,519.6276419000001,520.6327136999998,520.6109569,None,519.6276419000001,None,519.6276419000001,None,519.6276419000001,None,521.38956899,None,521.38956899,None,521.38956899,None,,,,,,,,,,,219,21,Female,2022-05-18_16h32.51.466,Main,2022.1.1,60.00056400528521,
neutral,negative,2,k,k,,,,,,,,,11,9,207,16,,,,,,,,,,,,,,,,,,,,,,,,main,1,1,2,negative,neutral,k,k,1,0.7469867999998314,521.4147616,522.4325318000001,522.4119984999998,None,521.4147616,None,521.4147616,None,521.4147616,None,523.1425063900001,None,523.1425063900001,None,523.1425063900001,None,,,,,,,,,,,219,21,Female,2022-05-18_16h32.51.466,Main,2022.1.1,60.00056400528521,
positive,positive,2,l,j,,,,,,,,,11,10,208,11,,,,,,,,,,,,,,,,,,,,,,,,main,1,1,2,positive,positive,j,j,1,0.7768679000000702,523.1678042999997,524.1853348999998,524.1639735999997,None,523.1678042999997,None,523.1678042999997,None,523.1678042999997,None,524.9184494900001,None,524.9184494900001,None,524.9184494900001,None,,,,,,,,,,,219,21,Female,2022-05-18_16h32.51.466,Main,2022.1.1,60.00056400528521,
negative,neutral,2,j,l,,,,,,,,,11,11,209,12,,,,,,,,,,,,,,,,,,,,,,,,main,2,2,2,neutral,negative,l,l,1,0.8555053000000044,524.9543611999998,525.9761636999997,525.9357494000001,None,524.9543611999998,None,524.9543611999998,None,524.9543611999998,None,526.7787006899998,None,526.7787006899998,None,526.7787006899998,None,,,,,,,,,,,219,21,Female,2022-05-18_16h32.51.466,Main,2022.1.1,60.00056400528521,
negative,neutral,1,j,l,,,,,,,,,11,12,210,3,,,,,,,,,,,,,,,,,,,,,,,,main,1,1,1,neutral,negative,l,l,1,0.757587600000079,526.8108828,527.8297379999999,527.7899884999997,None,526.8108828,None,526.8108828,None,526.8108828,None,528.53870959,None,528.53870959,None,528.53870959,None,,,,,,,,,,,219,21,Female,2022-05-18_16h32.51.466,Main,2022.1.1,60.00056400528521,
positive,positive,1,l,j,,,,,,,,,11,13,211,2,,,,,,,,,,,,,,,,,,,,,,,,main,1,1,1,positive,positive,j,j,1,0.8330948000002536,528.5714724,529.5828901,529.5616381,None,528.5714724,None,528.5714724,None,528.5714724,None,530.38004379,None,530.38004379,None,530.38004379,None,,,,,,,,,,,219,21,Female,2022-05-18_16h32.51.466,Main,2022.1.1,60.00056400528521,
