target,distractor,set,ans1,ans2,rep_loop2.thisRepN,rep_loop2.thisTrialN,rep_loop2.thisN,rep_loop2.thisIndex,flanker_prac_loop.thisRepN,flanker_prac_loop.thisTrialN,flanker_prac_loop.thisN,flanker_prac_loop.thisIndex,flanker_main_loop.thisRepN,flanker_main_loop.thisTrialN,flanker_main_loop.thisN,flanker_main_loop.thisIndex,fl_inst_resp.keys,mouse.x,mouse.y,mouse.leftButton,mouse.midButton,mouse.rightButton,mouse.started,mouse.stopped,sound_1.started,sound_1.stopped,no_text.started,no_text.stopped,yes_text.started,yes_text.stopped,mouse_2.x,mouse_2.y,mouse_2.leftButton,mouse_2.midButton,mouse_2.rightButton,mouse_2.started,mouse_2.stopped,back_2.started,back_2.stopped,main_prac,fl_cold,fl_colt,fl_set,fl_dcond,fl_tcond,fl_ans,fl_res,fl_corr,fl_rt,fix_fl.started,fix_fl.stopped,targ.started,targ.stopped,j_button.started,j_button.stopped,k_button.started,k_button.stopped,l_button.started,l_button.stopped,j_button2.started,j_button2.stopped,k_button2.started,k_button2.stopped,l_button2.started,l_button2.stopped,mainback.started,mainback.stopped,key_resp.keys,mouse_6.x,mouse_6.y,mouse_6.leftButton,mouse_6.midButton,mouse_6.rightButton,mouse_6.started,mouse_6.stopped,id*,age*,gender*,date,expName,psychopyVersion,frameRate,
,,,,,0,0,0,0,,,,,,,,,None,0.12592593,-0.40925926,0,0,0,1.0131903300125487,None,24.720323970000074,None,74.89987370000017,None,74.89987370000017,None,-0.075925924,-0.07777778,0,0,0,0.012322170000061305,None,,,,,,,,,,,,,,,,,,,,,,,,,,,,,,,,,,,,,,,220,24,Female,2022-05-20_14h09.58.338,Main,2022.1.1,60.0013560306033,
negative,negative,1,j,l,,,,,0,0,0,0,,,,,,,,,,,,,,,,,,,,,,,,,,78.19686360000014,None,prac,1,1,1,negative,negative,j,j,1,1.5060888000002706,80.24804549999999,81.25496169999997,81.23434120000002,None,80.24804549999999,None,80.24804549999999,None,80.24804549999999,None,82.74814680000009,None,82.74814680000009,None,82.74814680000009,None,,,,,,,,,,,220,24,Female,2022-05-20_14h09.58.338,Main,2022.1.1,60.0013560306033,
neutral,positive,1,k,k,,,,,0,1,1,4,,,,,,,,,,,,,,,,,,,,,,,,,,,,prac,1,1,1,positive,neutral,k,k,1,1.1442981000000145,83.7971692000001,84.80296880000014,84.78433949999999,None,83.7971692000001,None,83.7971692000001,None,83.7971692000001,None,85.90007767000029,None,85.90007767000029,None,85.90007767000029,None,,,,,,,,,,,220,24,Female,2022-05-20_14h09.58.338,Main,2022.1.1,60.0013560306033,
negative,negative,2,j,l,,,,,0,2,2,9,,,,,,,,,,,,,,,,,,,,,,,,,,,,prac,1,1,2,negative,negative,j,j,1,1.1420407999999043,85.9416298000001,86.94296299999996,86.92408870000008,None,85.9416298000001,None,85.9416298000001,None,85.9416298000001,None,88.04809007000026,None,88.04809007000026,None,88.04809007000026,None,,,,,,,,,,,220,24,Female,2022-05-20_14h09.58.338,Main,2022.1.1,60.0013560306033,
neutral,negative,2,k,k,,,,,0,3,3,16,,,,,,,,,,,,,,,,,,,,,,,,,,,,prac,2,2,2,negative,neutral,k,k,1,0.7732568999999785,88.09102830000029,89.1058766000001,89.0678882000002,None,88.09102830000029,None,88.09102830000029,None,88.09102830000029,None,89.82180666999997,None,89.82180666999997,None,89.82180666999997,None,,,,,,,,,,,220,24,Female,2022-05-20_14h09.58.338,Main,2022.1.1,60.0013560306033,
neutral,neutral,1,k,k,,,,,0,4,4,1,,,,,,,,,,,,,,,,,,,,,,,,,,,,prac,1,1,1,neutral,neutral,k,k,1,0.7015195999997559,89.85342780000019,90.86209610000014,90.84257030000026,None,89.85342780000019,None,89.85342780000019,None,89.85342780000019,None,91.52815927000015,None,91.52815927000015,None,91.52815927000015,None,,,,,,,,,,,220,24,Female,2022-05-20_14h09.58.338,Main,2022.1.1,60.0013560306033,
neutral,negative,1,k,k,,,,,0,5,5,7,,,,,,,,,,,,,,,,,,,,,,,,,,,,prac,2,2,1,negative,neutral,k,k,1,0.6322728999998617,91.56735040000012,92.5839420000002,92.54452300000003,None,91.56735040000012,None,91.56735040000012,None,91.56735040000012,None,93.16271947000027,None,93.16271947000027,None,93.16271947000027,None,,,,,,,,,,,220,24,Female,2022-05-20_14h09.58.338,Main,2022.1.1,60.0013560306033,
negative,positive,1,j,l,,,,,0,6,6,6,,,,,,,,,,,,,,,,,,,,,,,,,,,,prac,2,2,1,positive,negative,j,j,1,0.6431142000001273,93.19594320000033,94.21542230000023,94.17568770000025,None,93.19594320000033,None,93.19594320000033,None,93.19594320000033,None,94.80802967000031,None,94.80802967000031,None,94.80802967000031,None,,,,,,,,,,,220,24,Female,2022-05-20_14h09.58.338,Main,2022.1.1,60.0013560306033,
positive,negative,1,l,j,,,,,0,7,7,5,,,,,,,,,,,,,,,,,,,,,,,,,,,,prac,2,2,1,negative,positive,l,l,1,0.9799447000000328,94.82802470000024,95.8352831000002,95.81695260000015,None,94.82802470000024,None,94.82802470000024,None,94.82802470000024,None,96.78757457000015,None,96.78757457000015,None,96.78757457000015,None,,,,,,,,,,,220,24,Female,2022-05-20_14h09.58.338,Main,2022.1.1,60.0013560306033,
negative,positive,2,j,l,,,,,0,8,8,15,,,,,,,,,,,,,,,,,,,,,,,,,,,,prac,1,1,2,positive,negative,j,j,1,0.8346238000003723,96.82374530000016,97.83517250000023,97.81666720000021,None,96.82374530000016,None,96.82374530000016,None,96.82374530000016,None,98.6271277700001,None,98.6271277700001,None,98.6271277700001,None,,,,,,,,,,,220,24,Female,2022-05-20_14h09.58.338,Main,2022.1.1,60.0013560306033,
positive,negative,2,l,j,,,,,0,9,9,14,,,,,,,,,,,,,,,,,,,,,,,,,,,,prac,1,1,2,negative,positive,l,l,1,0.8032800999999381,98.6475031,99.66224510000029,99.62382410000009,None,98.6475031,None,98.6475031,None,98.6475031,None,100.43206737000023,None,100.43206737000023,None,100.43206737000023,None,,,,,,,,,,,220,24,Female,2022-05-20_14h09.58.338,Main,2022.1.1,60.0013560306033,
positive,positive,2,l,j,,,,,0,10,10,11,,,,,,,,,,,,,,,,,,,,,,,,,,,,prac,2,2,2,positive,positive,l,l,1,0.6339179999999942,100.470417,101.48526829999992,101.44685770000024,None,100.470417,None,100.470417,None,100.470417,None,102.06785787000021,None,102.06785787000021,None,102.06785787000021,None,,,,,,,,,,,220,24,Female,2022-05-20_14h09.58.338,Main,2022.1.1,60.0013560306033,
positive,positive,1,l,j,,,,,0,11,11,2,,,,,,,,,,,,,,,,,,,,,,,,,,,,prac,2,2,1,positive,positive,l,l,1,0.76918569999998,102.08860570000024,103.1018968000003,103.06354190000002,None,102.08860570000024,None,102.08860570000024,None,102.08860570000024,None,103.8417920700002,None,103.8417920700002,None,103.8417920700002,None,,,,,,,,,,,220,24,Female,2022-05-20_14h09.58.338,Main,2022.1.1,60.0013560306033,
neutral,positive,2,k,k,,,,,0,12,12,13,,,,,,,,,,,,,,,,,,,,,,,,,,,,prac,2,2,2,positive,neutral,k,k,1,0.5900765999999749,103.86325930000021,104.86823950000007,104.84846430000016,None,103.86325930000021,None,103.86325930000021,None,103.86325930000021,None,105.43099267000011,None,105.43099267000011,None,105.43099267000011,None,,,,,,,,,,,220,24,Female,2022-05-20_14h09.58.338,Main,2022.1.1,60.0013560306033,
positive,neutral,1,l,j,,,,,0,13,13,8,,,,,,,,,,,,,,,,,,,,,,,,,,,,prac,2,2,1,neutral,positive,l,l,1,0.5835379000000103,105.46402110000008,106.47302900000022,106.43519770000012,None,105.46402110000008,None,105.46402110000008,None,105.46402110000008,None,107.01568667000024,None,107.01568667000024,None,107.01568667000024,None,,,,,,,,,,,220,24,Female,2022-05-20_14h09.58.338,Main,2022.1.1,60.0013560306033,
positive,neutral,2,l,j,,,,,0,14,14,17,,,,,,,,,,,,,,,,,,,,,,,,,,,,prac,1,1,2,neutral,positive,l,l,1,0.681315899999845,107.05637770000021,108.06094040000016,108.02251109999997,None,107.05637770000021,None,107.05637770000021,None,107.05637770000021,None,108.7008358700003,None,108.7008358700003,None,108.7008358700003,None,,,,,,,,,,,220,24,Female,2022-05-20_14h09.58.338,Main,2022.1.1,60.0013560306033,
negative,neutral,2,j,l,,,,,0,15,15,12,,,,,,,,,,,,,,,,,,,,,,,,,,,,prac,1,1,2,neutral,negative,j,l,0,0.677432299999964,108.72705010000027,109.7460089000001,109.70735700000023,None,108.72705010000027,None,108.72705010000027,None,108.72705010000027,None,110.39556059999995,None,110.39556059999995,None,110.39556059999995,None,,,,,,,,,,,220,24,Female,2022-05-20_14h09.58.338,Main,2022.1.1,60.0013560306033,
negative,neutral,1,j,l,,,,,0,16,16,3,,,,,,,,,,,,,,,,,,,,,,,,,,,,prac,1,1,1,neutral,negative,j,j,1,1.0383062000000791,111.42053880000003,112.43717250000009,112.39955039999995,None,111.42053880000003,None,111.42053880000003,None,111.42053880000003,None,113.44065097000006,None,113.44065097000006,None,113.44065097000006,None,,,,,,,,,,,220,24,Female,2022-05-20_14h09.58.338,Main,2022.1.1,60.0013560306033,
neutral,neutral,2,k,k,,,,,0,17,17,10,,,,,,,,,,,,,,,,,,,,,,,,,,,,prac,2,2,2,neutral,neutral,k,k,1,0.7415354999998272,113.47154070000033,114.4826852000001,114.46297760000016,None,113.47154070000033,None,113.47154070000033,None,113.47154070000033,None,115.18237397000016,None,115.18237397000016,None,115.18237397000016,None,,,,,,,,,,,220,24,Female,2022-05-20_14h09.58.338,Main,2022.1.1,60.0013560306033,
positive,negative,1,l,j,,,,,1,0,18,5,,,,,,,,,,,,,,,,,,,,,,,,,,,,prac,1,1,1,negative,positive,l,l,1,0.8380192999998144,115.20282170000019,116.21089239999992,116.19145070000013,None,115.20282170000019,None,115.20282170000019,None,115.20282170000019,None,117.0247695700003,None,117.0247695700003,None,117.0247695700003,None,,,,,,,,,,,220,24,Female,2022-05-20_14h09.58.338,Main,2022.1.1,60.0013560306033,
neutral,positive,2,k,k,,,,,1,1,19,13,,,,,,,,,,,,,,,,,,,,,,,,,,,,prac,2,2,2,positive,neutral,k,k,1,0.7665601000003335,117.04714390000026,118.05226560000028,118.03322520000029,None,117.04714390000026,None,117.04714390000026,None,117.04714390000026,None,118.79338287000004,None,118.79338287000004,None,118.79338287000004,None,,,,,,,,,,,220,24,Female,2022-05-20_14h09.58.338,Main,2022.1.1,60.0013560306033,
positive,positive,1,l,j,,,,,1,2,20,2,,,,,,,,,,,,,,,,,,,,,,,,,,,,prac,2,2,1,positive,positive,l,l,1,0.7608639000000039,118.81573400000025,119.81756459999997,119.7982592000003,None,118.81573400000025,None,118.81573400000025,None,118.81573400000025,None,120.55755547000021,None,120.55755547000021,None,120.55755547000021,None,,,,,,,,,,,220,24,Female,2022-05-20_14h09.58.338,Main,2022.1.1,60.0013560306033,
neutral,negative,1,k,k,,,,,1,3,21,7,,,,,,,,,,,,,,,,,,,,,,,,,,,,prac,1,1,1,negative,neutral,k,k,1,0.8406420999999682,120.57752680000021,121.57991560000028,121.56036889999996,None,120.57752680000021,None,120.57752680000021,None,120.57752680000021,None,122.39832627000018,None,122.39832627000018,None,122.39832627000018,None,,,,,,,,,,,220,24,Female,2022-05-20_14h09.58.338,Main,2022.1.1,60.0013560306033,
negative,negative,1,j,l,,,,,1,4,22,0,,,,,,,,,,,,,,,,,,,,,,,,,,,,prac,2,2,1,negative,negative,j,j,1,0.6842277999999169,122.41911630000004,123.42415400000027,123.4046530999999,None,122.41911630000004,None,122.41911630000004,None,122.41911630000004,None,124.08470807000035,None,124.08470807000035,None,124.08470807000035,None,,,,,,,,,,,220,24,Female,2022-05-20_14h09.58.338,Main,2022.1.1,60.0013560306033,
negative,neutral,2,j,l,,,,,1,5,23,12,,,,,,,,,,,,,,,,,,,,,,,,,,,,prac,2,2,2,neutral,negative,j,j,1,0.639049200000045,124.1081936999999,125.12462080000023,125.08514300000024,None,124.1081936999999,None,124.1081936999999,None,124.1081936999999,None,125.72798987000019,None,125.72798987000019,None,125.72798987000019,None,,,,,,,,,,,220,24,Female,2022-05-20_14h09.58.338,Main,2022.1.1,60.0013560306033,
negative,neutral,1,j,l,,,,,1,6,24,3,,,,,,,,,,,,,,,,,,,,,,,,,,,,prac,2,2,1,neutral,negative,j,j,1,0.6584586999997555,125.74854980000009,126.75237020000031,126.73349310000003,None,125.74854980000009,None,125.74854980000009,None,125.74854980000009,None,127.39084596999996,None,127.39084596999996,None,127.39084596999996,None,,,,,,,,,,,220,24,Female,2022-05-20_14h09.58.338,Main,2022.1.1,60.0013560306033,
positive,neutral,2,l,j,,,,,1,7,25,17,,,,,,,,,,,,,,,,,,,,,,,,,,,,prac,1,1,2,neutral,positive,l,l,1,0.5800022999997054,127.41081380000014,128.4279449999999,128.38796630000024,None,127.41081380000014,None,127.41081380000014,None,127.41081380000014,None,128.97315306999994,None,128.97315306999994,None,128.97315306999994,None,,,,,,,,,,,220,24,Female,2022-05-20_14h09.58.338,Main,2022.1.1,60.0013560306033,
neutral,positive,1,k,k,,,,,1,8,26,4,,,,,,,,,,,,,,,,,,,,,,,,,,,,prac,1,1,1,positive,neutral,k,k,1,0.611037000000124,128.99493669999993,130.00101970000014,129.98198610000009,None,128.99493669999993,None,128.99493669999993,None,128.99493669999993,None,130.5854549700001,None,130.5854549700001,None,130.5854549700001,None,,,,,,,,,,,220,24,Female,2022-05-20_14h09.58.338,Main,2022.1.1,60.0013560306033,
positive,neutral,1,l,j,,,,,1,9,27,8,,,,,,,,,,,,,,,,,,,,,,,,,,,,prac,1,1,1,neutral,positive,l,l,1,0.7694306999997025,130.60548890000018,131.62330550000024,131.58516450000025,None,130.60548890000018,None,130.60548890000018,None,130.60548890000018,None,132.3578829700003,None,132.3578829700003,None,132.3578829700003,None,,,,,,,,,,,220,24,Female,2022-05-20_14h09.58.338,Main,2022.1.1,60.0013560306033,
neutral,negative,2,k,k,,,,,1,10,28,16,,,,,,,,,,,,,,,,,,,,,,,,,,,,prac,1,1,2,negative,neutral,k,k,1,0.5585556999999426,132.37934870000026,133.3804339000003,133.36184140000023,None,132.37934870000026,None,132.37934870000026,None,132.37934870000026,None,133.92219537000014,None,133.92219537000014,None,133.92219537000014,None,,,,,,,,,,,220,24,Female,2022-05-20_14h09.58.338,Main,2022.1.1,60.0013560306033,
negative,positive,1,j,l,,,,,1,11,29,6,,,,,,,,,,,,,,,,,,,,,,,,,,,,prac,2,2,1,positive,negative,j,j,1,0.8630427000002783,133.94207860000006,134.94807570000012,134.92928650000022,None,133.94207860000006,None,133.94207860000006,None,133.94207860000006,None,135.78533317000014,None,135.78533317000014,None,135.78533317000014,None,,,,,,,,,,,220,24,Female,2022-05-20_14h09.58.338,Main,2022.1.1,60.0013560306033,
positive,negative,2,l,j,,,,,1,12,30,14,,,,,,,,,,,,,,,,,,,,,,,,,,,,prac,2,2,2,negative,positive,l,l,1,0.700021900000138,135.80586260000018,136.82561410000017,136.80644380000012,None,135.80586260000018,None,135.80586260000018,None,135.80586260000018,None,137.48930877000006,None,137.48930877000006,None,137.48930877000006,None,,,,,,,,,,,220,24,Female,2022-05-20_14h09.58.338,Main,2022.1.1,60.0013560306033,
neutral,neutral,2,k,k,,,,,1,13,31,10,,,,,,,,,,,,,,,,,,,,,,,,,,,,prac,2,2,2,neutral,neutral,k,k,1,0.7072564000000057,137.5092881999999,138.51312740000003,138.49350970000023,None,137.5092881999999,None,137.5092881999999,None,137.5092881999999,None,139.19488226999997,None,139.19488226999997,None,139.19488226999997,None,,,,,,,,,,,220,24,Female,2022-05-20_14h09.58.338,Main,2022.1.1,60.0013560306033,
negative,negative,2,j,l,,,,,1,14,32,9,,,,,,,,,,,,,,,,,,,,,,,,,,,,prac,1,1,2,negative,negative,j,j,1,0.5540929999997388,139.2169157000003,140.23132280000027,140.19345580000027,None,139.2169157000003,None,139.2169157000003,None,139.2169157000003,None,140.7553188700002,None,140.7553188700002,None,140.7553188700002,None,,,,,,,,,,,220,24,Female,2022-05-20_14h09.58.338,Main,2022.1.1,60.0013560306033,
negative,positive,2,j,l,,,,,1,15,33,15,,,,,,,,,,,,,,,,,,,,,,,,,,,,prac,2,2,2,positive,negative,j,j,1,0.6343876999999338,140.77505640000027,141.78887940000004,141.74962360000018,None,140.77505640000027,None,140.77505640000027,None,140.77505640000027,None,142.39167656999993,None,142.39167656999993,None,142.39167656999993,None,,,,,,,,,,,220,24,Female,2022-05-20_14h09.58.338,Main,2022.1.1,60.0013560306033,
positive,positive,2,l,j,,,,,1,16,34,11,,,,,,,,,,,,,,,,,,,,,,,,,,,,prac,1,1,2,positive,positive,l,l,1,0.8875451999997495,142.4118529000002,143.42573140000013,143.38647450000008,None,142.4118529000002,None,142.4118529000002,None,142.4118529000002,None,144.2791077700002,None,144.2791077700002,None,144.2791077700002,None,,,,,,,,,,,220,24,Female,2022-05-20_14h09.58.338,Main,2022.1.1,60.0013560306033,
neutral,neutral,1,k,k,,,,,1,17,35,1,,,,,,,,,,,,,,,,,,,,,,,,,,,,prac,2,2,1,neutral,neutral,k,k,1,0.5119313999998667,144.30572440000014,145.32403019999992,145.28708510000024,None,144.30572440000014,None,144.30572440000014,None,144.30572440000014,None,145.79560657000033,None,145.79560657000033,None,145.79560657000033,None,,,,,,,,,,,220,24,Female,2022-05-20_14h09.58.338,Main,2022.1.1,60.0013560306033,
,,,,,,,,,,,,,,,,,,,,,,,,,,,,,,,,,,,,,,,,,,,,,,,,,,,,,,,,,,,,,,,,,,145.80159649999996,None,None,,,,,,,,220,24,Female,2022-05-20_14h09.58.338,Main,2022.1.1,60.0013560306033,
,,,,,,,,,,,,,,,,,,,,,,,,,,,,,,,,,,,,,,,,,,,,,,,,,,,,,,,,,,,,,,,,,,,,,0.12962963,-0.29259259,1,0,0,0.004463570000552863,None,220,24,Female,2022-05-20_14h09.58.338,Main,2022.1.1,60.0013560306033,
positive,neutral,1,l,j,,,,,,,,,0,0,0,8,,,,,,,,,,,,,,,,,,,,,,156.42037879999998,None,main,2,2,1,neutral,positive,l,l,1,1.0471001000000797,158.4505938000002,159.45858570000019,159.42011790000015,None,158.4505938000002,None,158.4505938000002,None,158.4505938000002,None,160.46876687000017,None,160.46876687000017,None,160.46876687000017,None,,,,,,,,,,,220,24,Female,2022-05-20_14h09.58.338,Main,2022.1.1,60.0013560306033,
positive,neutral,2,l,j,,,,,,,,,0,1,1,17,,,,,,,,,,,,,,,,,,,,,,,,main,2,2,2,neutral,positive,l,l,1,0.6292450999999346,160.4932586,161.49945100000014,161.47971110000026,None,160.4932586,None,160.4932586,None,160.4932586,None,162.10207787000022,None,162.10207787000022,None,162.10207787000022,None,,,,,,,,,,,220,24,Female,2022-05-20_14h09.58.338,Main,2022.1.1,60.0013560306033,
positive,negative,2,l,j,,,,,,,,,0,2,2,14,,,,,,,,,,,,,,,,,,,,,,,,main,1,1,2,negative,positive,l,l,1,0.6714081000000078,162.12217770000007,163.12670230000003,163.1074120000003,None,162.12217770000007,None,162.12217770000007,None,162.12217770000007,None,163.7740581700003,None,163.7740581700003,None,163.7740581700003,None,,,,,,,,,,,220,24,Female,2022-05-20_14h09.58.338,Main,2022.1.1,60.0013560306033,
negative,positive,2,j,l,,,,,,,,,0,3,3,15,,,,,,,,,,,,,,,,,,,,,,,,main,2,2,2,positive,negative,j,j,1,0.8779881000000387,163.79591150000033,164.80483300000014,164.78371229999993,None,163.79591150000033,None,163.79591150000033,None,163.79591150000033,None,165.65664777000015,None,165.65664777000015,None,165.65664777000015,None,,,,,,,,,,,220,24,Female,2022-05-20_14h09.58.338,Main,2022.1.1,60.0013560306033,
negative,negative,1,j,l,,,,,,,,,0,4,4,0,,,,,,,,,,,,,,,,,,,,,,,,main,2,2,1,negative,negative,j,j,1,0.6989223999999012,165.67886510000017,166.6956610000002,166.65678030000026,None,165.67886510000017,None,165.67886510000017,None,165.67886510000017,None,167.35966927000013,None,167.35966927000013,None,167.35966927000013,None,,,,,,,,,,,220,24,Female,2022-05-20_14h09.58.338,Main,2022.1.1,60.0013560306033,
neutral,negative,1,k,k,,,,,,,,,0,5,5,7,,,,,,,,,,,,,,,,,,,,,,,,main,2,2,1,negative,neutral,k,k,1,0.6533846000002086,167.38128920000008,168.39262589999998,168.37370439999995,None,167.38128920000008,None,167.38128920000008,None,167.38128920000008,None,169.01707437000036,None,169.01707437000036,None,169.01707437000036,None,,,,,,,,,,,220,24,Female,2022-05-20_14h09.58.338,Main,2022.1.1,60.0013560306033,
negative,neutral,1,j,l,,,,,,,,,0,6,6,3,,,,,,,,,,,,,,,,,,,,,,,,main,2,2,1,neutral,negative,j,j,1,0.8602157999998781,169.0370280000002,170.04019180000023,170.02156620000005,None,169.0370280000002,None,169.0370280000002,None,169.0370280000002,None,170.87780337000035,None,170.87780337000035,None,170.87780337000035,None,,,,,,,,,,,220,24,Female,2022-05-20_14h09.58.338,Main,2022.1.1,60.0013560306033,
neutral,neutral,2,k,k,,,,,,,,,0,7,7,10,,,,,,,,,,,,,,,,,,,,,,,,main,2,2,2,neutral,neutral,k,k,1,0.6696406000000934,170.89881860000014,171.9135099,171.87509510000018,None,170.89881860000014,None,170.89881860000014,None,170.89881860000014,None,172.55211756999992,None,172.55211756999992,None,172.55211756999992,None,,,,,,,,,,,220,24,Female,2022-05-20_14h09.58.338,Main,2022.1.1,60.0013560306033,
negative,positive,1,j,l,,,,,,,,,0,8,8,6,,,,,,,,,,,,,,,,,,,,,,,,main,1,1,1,positive,negative,j,j,1,0.7969705000000431,172.5725382999999,173.59072760000026,173.55205660000001,None,172.5725382999999,None,172.5725382999999,None,172.5725382999999,None,174.35175217000037,None,174.35175217000037,None,174.35175217000037,None,,,,,,,,,,,220,24,Female,2022-05-20_14h09.58.338,Main,2022.1.1,60.0013560306033,
neutral,positive,2,k,k,,,,,,,,,0,9,9,13,,,,,,,,,,,,,,,,,,,,,,,,main,1,1,2,positive,neutral,k,k,1,0.5299458999998024,174.3715417000003,175.37872480000033,175.35978999999998,None,174.3715417000003,None,174.3715417000003,None,174.3715417000003,None,175.88415197000026,None,175.88415197000026,None,175.88415197000026,None,,,,,,,,,,,220,24,Female,2022-05-20_14h09.58.338,Main,2022.1.1,60.0013560306033,
negative,negative,2,j,l,,,,,,,,,0,10,10,9,,,,,,,,,,,,,,,,,,,,,,,,main,2,2,2,negative,negative,j,j,1,0.7068696000001182,175.90397930000017,176.91532129999996,176.8765628000001,None,175.90397930000017,None,175.90397930000017,None,175.90397930000017,None,177.59143427000012,None,177.59143427000012,None,177.59143427000012,None,,,,,,,,,,,220,24,Female,2022-05-20_14h09.58.338,Main,2022.1.1,60.0013560306033,
positive,positive,2,l,j,,,,,,,,,0,11,11,11,,,,,,,,,,,,,,,,,,,,,,,,main,1,1,2,positive,positive,l,l,1,0.7225072000001092,177.6131706000001,178.62070350000022,178.60032170000022,None,177.6131706000001,None,177.6131706000001,None,177.6131706000001,None,179.31741737000024,None,179.31741737000024,None,179.31741737000024,None,,,,,,,,,,,220,24,Female,2022-05-20_14h09.58.338,Main,2022.1.1,60.0013560306033,
positive,negative,1,l,j,,,,,,,,,0,12,12,5,,,,,,,,,,,,,,,,,,,,,,,,main,1,1,1,negative,positive,l,l,1,0.7477569000002404,179.33858830000008,180.34970019999992,180.33037090000016,None,179.33858830000008,None,179.33858830000008,None,179.33858830000008,None,181.06899967000012,None,181.06899967000012,None,181.06899967000012,None,,,,,,,,,,,220,24,Female,2022-05-20_14h09.58.338,Main,2022.1.1,60.0013560306033,
neutral,neutral,1,k,k,,,,,,,,,0,13,13,1,,,,,,,,,,,,,,,,,,,,,,,,main,2,2,1,neutral,neutral,k,k,1,0.6681161999999858,181.09063790000027,182.0963286000001,182.0770176000001,None,181.09063790000027,None,181.09063790000027,None,181.09063790000027,None,182.73918787000034,None,182.73918787000034,None,182.73918787000034,None,,,,,,,,,,,220,24,Female,2022-05-20_14h09.58.338,Main,2022.1.1,60.0013560306033,
neutral,positive,1,k,k,,,,,,,,,0,14,14,4,,,,,,,,,,,,,,,,,,,,,,,,main,1,1,1,positive,neutral,k,k,1,0.6203392000002168,182.7605883000001,183.7809682000002,183.74229170000035,None,182.7605883000001,None,182.7605883000001,None,182.7605883000001,None,184.36245427000026,None,184.36245427000026,None,184.36245427000026,None,,,,,,,,,,,220,24,Female,2022-05-20_14h09.58.338,Main,2022.1.1,60.0013560306033,
neutral,negative,2,k,k,,,,,,,,,0,15,15,16,,,,,,,,,,,,,,,,,,,,,,,,main,2,2,2,negative,neutral,k,k,1,0.5927480999998807,184.38335880000022,185.39979919999996,185.36071990000028,None,184.38335880000022,None,184.38335880000022,None,184.38335880000022,None,185.95781777000033,None,185.95781777000033,None,185.95781777000033,None,,,,,,,,,,,220,24,Female,2022-05-20_14h09.58.338,Main,2022.1.1,60.0013560306033,
negative,neutral,2,j,l,,,,,,,,,0,16,16,12,,,,,,,,,,,,,,,,,,,,,,,,main,1,1,2,neutral,negative,j,j,1,0.7337934999995923,185.9798396000001,186.99672520000013,186.95811230000027,None,185.9798396000001,None,185.9798396000001,None,185.9798396000001,None,187.6926407700001,None,187.6926407700001,None,187.6926407700001,None,,,,,,,,,,,220,24,Female,2022-05-20_14h09.58.338,Main,2022.1.1,60.0013560306033,
positive,positive,1,l,j,,,,,,,,,0,17,17,2,,,,,,,,,,,,,,,,,,,,,,,,main,2,2,1,positive,positive,l,l,1,0.7936297000001105,187.7153062000002,188.73118740000018,188.69206040000017,None,187.7153062000002,None,187.7153062000002,None,187.7153062000002,None,189.49008297000032,None,189.49008297000032,None,189.49008297000032,None,,,,,,,,,,,220,24,Female,2022-05-20_14h09.58.338,Main,2022.1.1,60.0013560306033,
positive,negative,1,l,j,,,,,,,,,1,0,18,5,,,,,,,,,,,,,,,,,,,,,,,,main,2,2,1,negative,positive,l,l,1,0.6500028000000384,189.5124281000003,190.51812259999997,190.4967959999999,None,189.5124281000003,None,189.5124281000003,None,189.5124281000003,None,191.14198216999998,None,191.14198216999998,None,191.14198216999998,None,,,,,,,,,,,220,24,Female,2022-05-20_14h09.58.338,Main,2022.1.1,60.0013560306033,
positive,negative,2,l,j,,,,,,,,,1,1,19,14,,,,,,,,,,,,,,,,,,,,,,,,main,1,1,2,negative,positive,l,l,1,0.7319075999998859,191.16354720000027,192.17921100000012,192.14191759999994,None,191.16354720000027,None,191.16354720000027,None,191.16354720000027,None,192.8770890700001,None,192.8770890700001,None,192.8770890700001,None,,,,,,,,,,,220,24,Female,2022-05-20_14h09.58.338,Main,2022.1.1,60.0013560306033,
negative,negative,2,j,l,,,,,,,,,1,2,20,9,,,,,,,,,,,,,,,,,,,,,,,,main,2,2,2,negative,negative,j,j,1,0.7636663999996927,192.8976444,193.91155819999994,193.87540330000002,None,192.8976444,None,192.8976444,None,192.8976444,None,194.64562366999994,None,194.64562366999994,None,194.64562366999994,None,,,,,,,,,,,220,24,Female,2022-05-20_14h09.58.338,Main,2022.1.1,60.0013560306033,
neutral,neutral,1,k,k,,,,,,,,,1,3,21,1,,,,,,,,,,,,,,,,,,,,,,,,main,2,2,1,neutral,neutral,k,k,1,0.5416933999999856,194.66543440000032,195.6780202,195.63991880000003,None,194.66543440000032,None,194.66543440000032,None,194.66543440000032,None,196.18735047000004,None,196.18735047000004,None,196.18735047000004,None,,,,,,,,,,,220,24,Female,2022-05-20_14h09.58.338,Main,2022.1.1,60.0013560306033,
negative,neutral,2,j,l,,,,,,,,,1,4,22,12,,,,,,,,,,,,,,,,,,,,,,,,main,1,1,2,neutral,negative,j,j,1,0.6995237999999517,196.2081489000002,197.21030530000007,197.19139889999997,None,196.2081489000002,None,196.2081489000002,None,196.2081489000002,None,197.88993077000018,None,197.88993077000018,None,197.88993077000018,None,,,,,,,,,,,220,24,Female,2022-05-20_14h09.58.338,Main,2022.1.1,60.0013560306033,
neutral,negative,1,k,k,,,,,,,,,1,5,23,7,,,,,,,,,,,,,,,,,,,,,,,,main,2,2,1,negative,neutral,k,k,1,0.6039823999999498,197.91524049999998,198.93131489999996,198.8938301000003,None,197.91524049999998,None,197.91524049999998,None,197.91524049999998,None,199.49860556999997,None,199.49860556999997,None,199.49860556999997,None,,,,,,,,,,,220,24,Female,2022-05-20_14h09.58.338,Main,2022.1.1,60.0013560306033,
neutral,positive,1,k,k,,,,,,,,,1,6,24,4,,,,,,,,,,,,,,,,,,,,,,,,main,1,1,1,positive,neutral,k,k,1,0.6099451999998564,199.51979430000029,200.52563099999998,200.506707,None,199.51979430000029,None,199.51979430000029,None,199.51979430000029,None,201.10888467000026,None,201.10888467000026,None,201.10888467000026,None,,,,,,,,,,,220,24,Female,2022-05-20_14h09.58.338,Main,2022.1.1,60.0013560306033,
negative,positive,2,j,l,,,,,,,,,1,7,25,15,,,,,,,,,,,,,,,,,,,,,,,,main,2,2,2,positive,negative,j,j,1,0.6664580999999998,201.13262669999995,202.1379648000002,202.1189644000001,None,201.13262669999995,None,201.13262669999995,None,201.13262669999995,None,202.78013987000017,None,202.78013987000017,None,202.78013987000017,None,,,,,,,,,,,220,24,Female,2022-05-20_14h09.58.338,Main,2022.1.1,60.0013560306033,
neutral,neutral,2,k,k,,,,,,,,,1,8,26,10,,,,,,,,,,,,,,,,,,,,,,,,main,2,2,2,neutral,neutral,k,k,1,0.6806298999999854,202.80016260000002,203.80520460000025,203.7860565000001,None,202.80016260000002,None,202.80016260000002,None,202.80016260000002,None,204.46326937000035,None,204.46326937000035,None,204.46326937000035,None,,,,,,,,,,,220,24,Female,2022-05-20_14h09.58.338,Main,2022.1.1,60.0013560306033,
negative,neutral,1,j,l,,,,,,,,,1,9,27,3,,,,,,,,,,,,,,,,,,,,,,,,main,1,1,1,neutral,negative,j,j,1,0.7258004999998775,204.48350530000016,205.49438920000011,205.4751857000001,None,204.48350530000016,None,204.48350530000016,None,204.48350530000016,None,206.1893591700003,None,206.1893591700003,None,206.1893591700003,None,,,,,,,,,,,220,24,Female,2022-05-20_14h09.58.338,Main,2022.1.1,60.0013560306033,
positive,positive,2,l,j,,,,,,,,,1,10,28,11,,,,,,,,,,,,,,,,,,,,,,,,main,1,1,2,positive,positive,l,l,1,0.7000519000002896,206.21513929999992,207.23081630000024,207.21142020000025,None,206.21513929999992,None,206.21513929999992,None,206.21513929999992,None,207.8921886700003,None,207.8921886700003,None,207.8921886700003,None,,,,,,,,,,,220,24,Female,2022-05-20_14h09.58.338,Main,2022.1.1,60.0013560306033,
positive,positive,1,l,j,,,,,,,,,1,11,29,2,,,,,,,,,,,,,,,,,,,,,,,,main,2,2,1,positive,positive,l,l,1,0.7295505000001867,207.91310610000028,208.92327060000025,208.90372530000013,None,207.91310610000028,None,207.91310610000028,None,207.91310610000028,None,209.62614586999993,None,209.62614586999993,None,209.62614586999993,None,,,,,,,,,,,220,24,Female,2022-05-20_14h09.58.338,Main,2022.1.1,60.0013560306033,
negative,negative,1,j,l,,,,,,,,,1,12,30,0,,,,,,,,,,,,,,,,,,,,,,,,main,1,1,1,negative,negative,j,j,1,1.3141874999996617,209.64692670000022,210.66396579999991,210.6265043000003,None,209.64692670000022,None,209.64692670000022,None,209.64692670000022,None,211.94285937000026,None,211.94285937000026,None,211.94285937000026,None,,,,,,,,,,,220,24,Female,2022-05-20_14h09.58.338,Main,2022.1.1,60.0013560306033,
neutral,negative,2,k,k,,,,,,,,,1,13,31,16,,,,,,,,,,,,,,,,,,,,,,,,main,2,2,2,negative,neutral,k,k,1,0.6576337999999851,211.96323819999998,212.9823566,212.94380279999996,None,211.96323819999998,None,211.96323819999998,None,211.96323819999998,None,213.60136177000035,None,213.60136177000035,None,213.60136177000035,None,,,,,,,,,,,220,24,Female,2022-05-20_14h09.58.338,Main,2022.1.1,60.0013560306033,
neutral,positive,2,k,k,,,,,,,,,1,14,32,13,,,,,,,,,,,,,,,,,,,,,,,,main,2,2,2,positive,neutral,k,k,1,0.7051394999998593,213.6232703999999,214.64281440000013,214.6049578000002,None,213.6232703999999,None,213.6232703999999,None,213.6232703999999,None,215.3079508700001,None,215.3079508700001,None,215.3079508700001,None,,,,,,,,,,,220,24,Female,2022-05-20_14h09.58.338,Main,2022.1.1,60.0013560306033,
negative,positive,1,j,l,,,,,,,,,1,15,33,6,,,,,,,,,,,,,,,,,,,,,,,,main,1,1,1,positive,negative,j,j,1,0.8097185000001446,215.32916060000025,216.34280979999994,216.3034917,None,215.32916060000025,None,215.32916060000025,None,215.32916060000025,None,217.12121707000037,None,217.12121707000037,None,217.12121707000037,None,,,,,,,,,,,220,24,Female,2022-05-20_14h09.58.338,Main,2022.1.1,60.0013560306033,
positive,neutral,1,l,j,,,,,,,,,1,16,34,8,,,,,,,,,,,,,,,,,,,,,,,,main,2,2,1,neutral,positive,l,l,1,1.0294175000003634,217.14168050000035,218.14922650000017,218.12978569999996,None,217.14168050000035,None,217.14168050000035,None,217.14168050000035,None,219.1529625700003,None,219.1529625700003,None,219.1529625700003,None,,,,,,,,,,,220,24,Female,2022-05-20_14h09.58.338,Main,2022.1.1,60.0013560306033,
positive,neutral,2,l,j,,,,,,,,,1,17,35,17,,,,,,,,,,,,,,,,,,,,,,,,main,1,1,2,neutral,positive,l,l,1,0.7132007000000158,219.17350280000028,220.18190120000008,220.16233230000034,None,219.17350280000028,None,219.17350280000028,None,219.17350280000028,None,220.86885057000003,None,220.86885057000003,None,220.86885057000003,None,,,,,,,,,,,220,24,Female,2022-05-20_14h09.58.338,Main,2022.1.1,60.0013560306033,
positive,neutral,2,l,j,,,,,,,,,2,0,36,17,,,,,,,,,,,,,,,,,,,,,,,,main,1,1,2,neutral,positive,l,l,1,0.6122488000000885,220.89071020000029,221.9023973000003,221.86432990000003,None,220.89071020000029,None,220.89071020000029,None,220.89071020000029,None,222.48417976999994,None,222.48417976999994,None,222.48417976999994,None,,,,,,,,,,,220,24,Female,2022-05-20_14h09.58.338,Main,2022.1.1,60.0013560306033,
neutral,negative,1,k,k,,,,,,,,,2,1,37,7,,,,,,,,,,,,,,,,,,,,,,,,main,2,2,1,negative,neutral,k,k,1,0.6422634999998991,222.50594360000014,223.5094849000002,223.4899519999999,None,222.50594360000014,None,222.50594360000014,None,222.50594360000014,None,224.1306030700001,None,224.1306030700001,None,224.1306030700001,None,,,,,,,,,,,220,24,Female,2022-05-20_14h09.58.338,Main,2022.1.1,60.0013560306033,
positive,negative,1,l,j,,,,,,,,,2,2,38,5,,,,,,,,,,,,,,,,,,,,,,,,main,1,1,1,negative,positive,l,l,1,0.7323578999998972,224.15339220000033,225.16859360000035,225.13038430000006,None,224.15339220000033,None,224.15339220000033,None,224.15339220000033,None,225.86571917000023,None,225.86571917000023,None,225.86571917000023,None,,,,,,,,,,,220,24,Female,2022-05-20_14h09.58.338,Main,2022.1.1,60.0013560306033,
negative,neutral,2,j,l,,,,,,,,,2,3,39,12,,,,,,,,,,,,,,,,,,,,,,,,main,2,2,2,neutral,negative,j,j,1,0.7314575000000332,225.8863526,226.88855630000035,226.86928530000023,None,225.8863526,None,225.8863526,None,225.8863526,None,227.60031027,None,227.60031027,None,227.60031027,None,,,,,,,,,,,220,24,Female,2022-05-20_14h09.58.338,Main,2022.1.1,60.0013560306033,
negative,negative,2,j,l,,,,,,,,,2,4,40,9,,,,,,,,,,,,,,,,,,,,,,,,main,2,2,2,negative,negative,j,j,1,0.7102378999998109,227.6224989000002,228.64416770000025,228.6038805000003,None,227.6224989000002,None,227.6224989000002,None,227.6224989000002,None,229.31516287000008,None,229.31516287000008,None,229.31516287000008,None,,,,,,,,,,,220,24,Female,2022-05-20_14h09.58.338,Main,2022.1.1,60.0013560306033,
neutral,neutral,2,k,k,,,,,,,,,2,5,41,10,,,,,,,,,,,,,,,,,,,,,,,,main,2,2,2,neutral,neutral,k,k,1,0.558044400000199,229.33929160000025,230.35551000000032,230.31605080000008,None,229.33929160000025,None,229.33929160000025,None,229.33929160000025,None,230.8789562700002,None,230.8789562700002,None,230.8789562700002,None,,,,,,,,,,,220,24,Female,2022-05-20_14h09.58.338,Main,2022.1.1,60.0013560306033,
negative,negative,1,j,l,,,,,,,,,2,6,42,0,,,,,,,,,,,,,,,,,,,,,,,,main,2,2,1,negative,negative,j,j,1,1.5983366000000387,230.89915010000004,231.9050596000002,231.88565340000014,None,230.89915010000004,None,230.89915010000004,None,230.89915010000004,None,233.48615130000007,None,233.48615130000007,None,233.48615130000007,None,,,,,,,,,,,220,24,Female,2022-05-20_14h09.58.338,Main,2022.1.1,60.0013560306033,
neutral,positive,1,k,k,,,,,,,,,2,7,43,4,,,,,,,,,,,,,,,,,,,,,,,,main,1,1,1,positive,neutral,k,k,1,0.7675722999997561,234.50547300000017,235.51807720000033,235.49961770000027,None,234.50547300000017,None,234.50547300000017,None,234.50547300000017,None,236.25262327000004,None,236.25262327000004,None,236.25262327000004,None,,,,,,,,,,,220,24,Female,2022-05-20_14h09.58.338,Main,2022.1.1,60.0013560306033,
positive,positive,1,l,j,,,,,,,,,2,8,44,2,,,,,,,,,,,,,,,,,,,,,,,,main,2,2,1,positive,positive,l,l,1,0.716541799999959,236.27530380000007,237.2896267000001,237.25143640000033,None,236.27530380000007,None,236.27530380000007,None,236.27530380000007,None,237.97192297000024,None,237.97192297000024,None,237.97192297000024,None,,,,,,,,,,,220,24,Female,2022-05-20_14h09.58.338,Main,2022.1.1,60.0013560306033,
neutral,neutral,1,k,k,,,,,,,,,2,9,45,1,,,,,,,,,,,,,,,,,,,,,,,,main,2,2,1,neutral,neutral,k,k,1,0.7530723999998372,237.9940145999999,238.99830070000007,238.97890069999994,None,237.9940145999999,None,237.9940145999999,None,237.9940145999999,None,239.72963177000005,None,239.72963177000005,None,239.72963177000005,None,,,,,,,,,,,220,24,Female,2022-05-20_14h09.58.338,Main,2022.1.1,60.0013560306033,
negative,positive,1,j,l,,,,,,,,,2,10,46,6,,,,,,,,,,,,,,,,,,,,,,,,main,1,1,1,positive,negative,j,j,1,0.6813647000003584,239.75072560000035,240.77051520000032,240.73157840000022,None,239.75072560000035,None,239.75072560000035,None,239.75072560000035,None,241.41334797000022,None,241.41334797000022,None,241.41334797000022,None,,,,,,,,,,,220,24,Female,2022-05-20_14h09.58.338,Main,2022.1.1,60.0013560306033,
positive,positive,2,l,j,,,,,,,,,2,11,47,11,,,,,,,,,,,,,,,,,,,,,,,,main,1,1,2,positive,positive,l,l,1,0.6531463000001168,241.43553310000016,242.45341370000006,242.41452610000033,None,241.43553310000016,None,241.43553310000016,None,241.43553310000016,None,243.07194306999995,None,243.07194306999995,None,243.07194306999995,None,,,,,,,,,,,220,24,Female,2022-05-20_14h09.58.338,Main,2022.1.1,60.0013560306033,
positive,negative,2,l,j,,,,,,,,,2,12,48,14,,,,,,,,,,,,,,,,,,,,,,,,main,1,1,2,negative,positive,l,l,1,0.6303557999999612,243.09225300000026,244.10699160000013,244.06892930000004,None,243.09225300000026,None,243.09225300000026,None,243.09225300000026,None,244.7019757700003,None,244.7019757700003,None,244.7019757700003,None,,,,,,,,,,,220,24,Female,2022-05-20_14h09.58.338,Main,2022.1.1,60.0013560306033,
neutral,positive,2,k,k,,,,,,,,,2,13,49,13,,,,,,,,,,,,,,,,,,,,,,,,main,1,1,2,positive,neutral,k,k,1,0.5625896999999895,244.72332989999995,245.72532249999995,245.7062003000001,None,244.72332989999995,None,244.72332989999995,None,244.72332989999995,None,246.26726906999997,None,246.26726906999997,None,246.26726906999997,None,,,,,,,,,,,220,24,Female,2022-05-20_14h09.58.338,Main,2022.1.1,60.0013560306033,
positive,neutral,1,l,j,,,,,,,,,2,14,50,8,,,,,,,,,,,,,,,,,,,,,,,,main,2,2,1,neutral,positive,l,l,1,0.7194641000000956,246.28866130000006,247.3096817999999,247.26967259999992,None,246.28866130000006,None,246.28866130000006,None,246.28866130000006,None,247.9917555700002,None,247.9917555700002,None,247.9917555700002,None,,,,,,,,,,,220,24,Female,2022-05-20_14h09.58.338,Main,2022.1.1,60.0013560306033,
negative,neutral,1,j,l,,,,,,,,,2,15,51,3,,,,,,,,,,,,,,,,,,,,,,,,main,2,2,1,neutral,negative,j,j,1,0.8145202999999128,248.0127339999999,249.01621350000005,248.99683350000032,None,248.0127339999999,None,248.0127339999999,None,248.0127339999999,None,249.80890427000017,None,249.80890427000017,None,249.80890427000017,None,,,,,,,,,,,220,24,Female,2022-05-20_14h09.58.338,Main,2022.1.1,60.0013560306033,
neutral,negative,2,k,k,,,,,,,,,2,16,52,16,,,,,,,,,,,,,,,,,,,,,,,,main,1,1,2,negative,neutral,k,k,1,0.5666886000003615,249.82879660000026,250.844607,250.8058857000001,None,249.82879660000026,None,249.82879660000026,None,249.82879660000026,None,251.37861856999993,None,251.37861856999993,None,251.37861856999993,None,,,,,,,,,,,220,24,Female,2022-05-20_14h09.58.338,Main,2022.1.1,60.0013560306033,
negative,positive,2,j,l,,,,,,,,,2,17,53,15,,,,,,,,,,,,,,,,,,,,,,,,main,1,1,2,positive,negative,j,j,1,0.8381630999997469,251.3993233000001,252.40815250000014,252.38780210000004,None,251.3993233000001,None,251.3993233000001,None,251.3993233000001,None,253.22134677000017,None,253.22134677000017,None,253.22134677000017,None,,,,,,,,,,,220,24,Female,2022-05-20_14h09.58.338,Main,2022.1.1,60.0013560306033,
negative,negative,1,j,l,,,,,,,,,3,0,54,0,,,,,,,,,,,,,,,,,,,,,,,,main,2,2,1,negative,negative,j,j,1,0.7627031000001807,253.24098040000035,254.24717260000034,254.2272522000003,None,253.24098040000035,None,253.24098040000035,None,253.24098040000035,None,254.98341947000003,None,254.98341947000003,None,254.98341947000003,None,,,,,,,,,,,220,24,Female,2022-05-20_14h09.58.338,Main,2022.1.1,60.0013560306033,
neutral,neutral,1,k,k,,,,,,,,,3,1,55,1,,,,,,,,,,,,,,,,,,,,,,,,main,2,2,1,neutral,neutral,k,k,1,0.561185199999727,255.00532410000005,256.00800720000007,255.98863800000026,None,255.00532410000005,None,255.00532410000005,None,255.00532410000005,None,256.5477717700004,None,256.5477717700004,None,256.5477717700004,None,,,,,,,,,,,220,24,Female,2022-05-20_14h09.58.338,Main,2022.1.1,60.0013560306033,
negative,neutral,1,j,l,,,,,,,,,3,2,56,3,,,,,,,,,,,,,,,,,,,,,,,,main,1,1,1,neutral,negative,j,j,1,0.6314682000001994,256.5690273,257.5858095000003,257.54708370000026,None,256.5690273,None,256.5690273,None,256.5690273,None,258.1824524700004,None,258.1824524700004,None,258.1824524700004,None,,,,,,,,,,,220,24,Female,2022-05-20_14h09.58.338,Main,2022.1.1,60.0013560306033,
negative,positive,2,j,l,,,,,,,,,3,3,57,15,,,,,,,,,,,,,,,,,,,,,,,,main,2,2,2,positive,negative,j,j,1,0.7523952000001373,258.2033486,259.2203075000002,259.1818819,None,258.2033486,None,258.2033486,None,258.2033486,None,259.9392003700003,None,259.9392003700003,None,259.9392003700003,None,,,,,,,,,,,220,24,Female,2022-05-20_14h09.58.338,Main,2022.1.1,60.0013560306033,
neutral,positive,2,k,k,,,,,,,,,3,4,58,13,,,,,,,,,,,,,,,,,,,,,,,,main,2,2,2,positive,neutral,k,k,1,0.6831445000002532,259.9592663000003,260.9644687,260.94549000000006,None,259.9592663000003,None,259.9592663000003,None,259.9592663000003,None,261.6248857700001,None,261.6248857700001,None,261.6248857700001,None,,,,,,,,,,,220,24,Female,2022-05-20_14h09.58.338,Main,2022.1.1,60.0013560306033,
positive,negative,2,l,j,,,,,,,,,3,5,59,14,,,,,,,,,,,,,,,,,,,,,,,,main,2,2,2,negative,positive,l,l,1,0.5557275000001027,261.6451151000001,262.6571449000003,262.61824079999997,None,261.6451151000001,None,261.6451151000001,None,261.6451151000001,None,263.1810278700003,None,263.1810278700003,None,263.1810278700003,None,,,,,,,,,,,220,24,Female,2022-05-20_14h09.58.338,Main,2022.1.1,60.0013560306033,
neutral,neutral,2,k,k,,,,,,,,,3,6,60,10,,,,,,,,,,,,,,,,,,,,,,,,main,2,2,2,neutral,neutral,k,k,1,0.6426940999999715,263.20311660000016,264.2206811000001,264.18248570000014,None,263.20311660000016,None,263.20311660000016,None,263.20311660000016,None,264.82702267,None,264.82702267,None,264.82702267,None,,,,,,,,,,,220,24,Female,2022-05-20_14h09.58.338,Main,2022.1.1,60.0013560306033,
positive,positive,1,l,j,,,,,,,,,3,7,61,2,,,,,,,,,,,,,,,,,,,,,,,,main,2,2,1,positive,positive,l,l,1,0.7271535999998378,264.8514461,265.85615039999993,265.83670580000035,None,264.8514461,None,264.8514461,None,264.8514461,None,266.5585862700003,None,266.5585862700003,None,266.5585862700003,None,,,,,,,,,,,220,24,Female,2022-05-20_14h09.58.338,Main,2022.1.1,60.0013560306033,
positive,negative,1,l,j,,,,,,,,,3,8,62,5,,,,,,,,,,,,,,,,,,,,,,,,main,2,2,1,negative,positive,l,l,1,1.2775495999999293,266.5810540000002,267.60012210000014,267.56239370000003,None,266.5810540000002,None,266.5810540000002,None,266.5810540000002,None,268.8424392700002,None,268.8424392700002,None,268.8424392700002,None,,,,,,,,,,,220,24,Female,2022-05-20_14h09.58.338,Main,2022.1.1,60.0013560306033,
negative,neutral,2,j,l,,,,,,,,,3,9,63,12,,,,,,,,,,,,,,,,,,,,,,,,main,1,1,2,neutral,negative,j,j,1,1.1355108000002474,268.8653760000002,269.8819560000002,269.84414460000016,None,268.8653760000002,None,268.8653760000002,None,268.8653760000002,None,270.9820156700001,None,270.9820156700001,None,270.9820156700001,None,,,,,,,,,,,220,24,Female,2022-05-20_14h09.58.338,Main,2022.1.1,60.0013560306033,
positive,neutral,1,l,j,,,,,,,,,3,10,64,8,,,,,,,,,,,,,,,,,,,,,,,,main,1,1,1,neutral,positive,l,l,1,0.7656582000004164,271.0022409000003,272.0195208,271.9817012000003,None,271.0022409000003,None,271.0022409000003,None,271.0022409000003,None,272.75213697000015,None,272.75213697000015,None,272.75213697000015,None,,,,,,,,,,,220,24,Female,2022-05-20_14h09.58.338,Main,2022.1.1,60.0013560306033,
neutral,negative,1,k,k,,,,,,,,,3,11,65,7,,,,,,,,,,,,,,,,,,,,,,,,main,2,2,1,negative,neutral,k,k,1,0.665912699999808,272.77160090000007,273.77735870000015,273.7574436,None,272.77160090000007,None,272.77160090000007,None,272.77160090000007,None,274.42033757000024,None,274.42033757000024,None,274.42033757000024,None,,,,,,,,,,,220,24,Female,2022-05-20_14h09.58.338,Main,2022.1.1,60.0013560306033,
neutral,positive,1,k,k,,,,,,,,,3,12,66,4,,,,,,,,,,,,,,,,,,,,,,,,main,1,1,1,positive,neutral,k,k,1,0.722447000000102,274.44059930000003,275.4492501,275.4302659,None,274.44059930000003,None,274.44059930000003,None,274.44059930000003,None,276.14401837,None,276.14401837,None,276.14401837,None,,,,,,,,,,,220,24,Female,2022-05-20_14h09.58.338,Main,2022.1.1,60.0013560306033,
neutral,negative,2,k,k,,,,,,,,,3,13,67,16,,,,,,,,,,,,,,,,,,,,,,,,main,1,1,2,negative,neutral,k,k,1,0.6031843999999182,276.1652059000003,277.1670509999999,277.14792350000016,None,276.1652059000003,None,276.1652059000003,None,276.1652059000003,None,277.7514304700002,None,277.7514304700002,None,277.7514304700002,None,,,,,,,,,,,220,24,Female,2022-05-20_14h09.58.338,Main,2022.1.1,60.0013560306033,
positive,neutral,2,l,j,,,,,,,,,3,14,68,17,,,,,,,,,,,,,,,,,,,,,,,,main,1,1,2,neutral,positive,l,l,1,0.5415023999998994,277.7711171000001,278.7903844000002,278.75064470000007,None,277.7711171000001,None,277.7711171000001,None,277.7711171000001,None,279.29125747000023,None,279.29125747000023,None,279.29125747000023,None,,,,,,,,,,,220,24,Female,2022-05-20_14h09.58.338,Main,2022.1.1,60.0013560306033,
positive,positive,2,l,j,,,,,,,,,3,15,69,11,,,,,,,,,,,,,,,,,,,,,,,,main,2,2,2,positive,positive,l,l,1,0.5425663000000895,279.3144384000002,280.3333250999999,280.2948796999999,None,279.3144384000002,None,279.3144384000002,None,279.3144384000002,None,280.84011967000004,None,280.84011967000004,None,280.84011967000004,None,,,,,,,,,,,220,24,Female,2022-05-20_14h09.58.338,Main,2022.1.1,60.0013560306033,
negative,positive,1,j,l,,,,,,,,,3,16,70,6,,,,,,,,,,,,,,,,,,,,,,,,main,2,2,1,positive,negative,j,j,1,0.7336461999998392,280.86116010000023,281.87113180000006,281.85141810000005,None,280.86116010000023,None,280.86116010000023,None,280.86116010000023,None,282.5763209700002,None,282.5763209700002,None,282.5763209700002,None,,,,,,,,,,,220,24,Female,2022-05-20_14h09.58.338,Main,2022.1.1,60.0013560306033,
negative,negative,2,j,l,,,,,,,,,3,17,71,9,,,,,,,,,,,,,,,,,,,,,,,,main,2,2,2,negative,negative,j,j,1,0.7113003999998,282.5968828,283.6181471,283.5902337000002,None,282.5968828,None,282.5968828,None,282.5968828,None,284.2912149700004,None,284.2912149700004,None,284.2912149700004,None,,,,,,,,,,,220,24,Female,2022-05-20_14h09.58.338,Main,2022.1.1,60.0013560306033,
positive,negative,2,l,j,,,,,,,,,4,0,72,14,,,,,,,,,,,,,,,,,,,,,,,,main,1,1,2,negative,positive,l,l,1,0.8223769999999604,284.3125700999999,285.3293044000002,285.2926829000003,None,284.3125700999999,None,284.3125700999999,None,284.3125700999999,None,286.1158721700002,None,286.1158721700002,None,286.1158721700002,None,,,,,,,,,,,220,24,Female,2022-05-20_14h09.58.338,Main,2022.1.1,60.0013560306033,
neutral,negative,2,k,k,,,,,,,,,4,1,73,16,,,,,,,,,,,,,,,,,,,,,,,,main,2,2,2,negative,neutral,k,k,1,0.5564518999999564,286.1370737000002,287.14959080000017,287.1113820999999,None,286.1370737000002,None,286.1370737000002,None,286.1370737000002,None,287.67533757000035,None,287.67533757000035,None,287.67533757000035,None,,,,,,,,,,,220,24,Female,2022-05-20_14h09.58.338,Main,2022.1.1,60.0013560306033,
neutral,positive,1,k,k,,,,,,,,,4,2,74,4,,,,,,,,,,,,,,,,,,,,,,,,main,2,2,1,positive,neutral,k,k,1,0.6660385999998653,287.6962036,288.7037169,288.6838786000003,None,287.6962036,None,287.6962036,None,287.6962036,None,289.3441464700003,None,289.3441464700003,None,289.3441464700003,None,,,,,,,,,,,220,24,Female,2022-05-20_14h09.58.338,Main,2022.1.1,60.0013560306033,
negative,positive,1,j,l,,,,,,,,,4,3,75,6,,,,,,,,,,,,,,,,,,,,,,,,main,2,2,1,positive,negative,j,j,1,0.8030163999997058,289.3662881,290.3719804000002,290.3526717,None,289.3662881,None,289.3662881,None,289.3662881,None,291.15150157000005,None,291.15150157000005,None,291.15150157000005,None,,,,,,,,,,,220,24,Female,2022-05-20_14h09.58.338,Main,2022.1.1,60.0013560306033,
positive,neutral,1,l,j,,,,,,,,,4,4,76,8,,,,,,,,,,,,,,,,,,,,,,,,main,1,1,1,neutral,positive,l,l,1,0.7481731000002583,291.17099129999997,292.1891888,292.1504924000001,None,291.17099129999997,None,291.17099129999997,None,291.17099129999997,None,292.9006922700004,None,292.9006922700004,None,292.9006922700004,None,,,,,,,,,,,220,24,Female,2022-05-20_14h09.58.338,Main,2022.1.1,60.0013560306033,
positive,neutral,2,l,j,,,,,,,,,4,5,77,17,,,,,,,,,,,,,,,,,,,,,,,,main,2,2,2,neutral,positive,l,l,1,0.663113400000384,292.9225144000002,293.92639610000015,293.9074920000003,None,292.9225144000002,None,292.9225144000002,None,292.9225144000002,None,294.56798687000025,None,294.56798687000025,None,294.56798687000025,None,,,,,,,,,,,220,24,Female,2022-05-20_14h09.58.338,Main,2022.1.1,60.0013560306033,
positive,positive,1,l,j,,,,,,,,,4,6,78,2,,,,,,,,,,,,,,,,,,,,,,,,main,1,1,1,positive,positive,l,l,1,0.6255277999998725,294.58981700000004,295.59557429999995,295.5768269,None,294.58981700000004,None,294.58981700000004,None,294.58981700000004,None,296.1949376700003,None,296.1949376700003,None,296.1949376700003,None,,,,,,,,,,,220,24,Female,2022-05-20_14h09.58.338,Main,2022.1.1,60.0013560306033,
positive,negative,1,l,j,,,,,,,,,4,7,79,5,,,,,,,,,,,,,,,,,,,,,,,,main,2,2,1,negative,positive,l,l,1,0.6639382999996997,296.2159522000002,297.2243903000003,297.2051642000001,None,296.2159522000002,None,296.2159522000002,None,296.2159522000002,None,297.8613897700001,None,297.8613897700001,None,297.8613897700001,None,,,,,,,,,,,220,24,Female,2022-05-20_14h09.58.338,Main,2022.1.1,60.0013560306033,
negative,negative,1,j,l,,,,,,,,,4,8,80,0,,,,,,,,,,,,,,,,,,,,,,,,main,1,1,1,negative,negative,j,j,1,1.329428900000039,297.88243409999995,298.89367230000016,298.87483520000023,None,297.88243409999995,None,297.88243409999995,None,297.88243409999995,None,300.19314937000024,None,300.19314937000024,None,300.19314937000024,None,,,,,,,,,,,220,24,Female,2022-05-20_14h09.58.338,Main,2022.1.1,60.0013560306033,
neutral,neutral,1,k,k,,,,,,,,,4,9,81,1,,,,,,,,,,,,,,,,,,,,,,,,main,1,1,1,neutral,neutral,k,k,1,0.7157781999999315,300.21780949999993,301.2379152000003,301.19861760000003,None,300.21780949999993,None,300.21780949999993,None,300.21780949999993,None,301.9126168700003,None,301.9126168700003,None,301.9126168700003,None,,,,,,,,,,,220,24,Female,2022-05-20_14h09.58.338,Main,2022.1.1,60.0013560306033,
negative,neutral,2,j,l,,,,,,,,,4,10,82,12,,,,,,,,,,,,,,,,,,,,,,,,main,1,1,2,neutral,negative,j,j,1,0.686928899999657,301.93488300000035,302.9513694000002,302.9128506000002,None,301.93488300000035,None,301.93488300000035,None,301.93488300000035,None,303.6043964700001,None,303.6043964700001,None,303.6043964700001,None,,,,,,,,,,,220,24,Female,2022-05-20_14h09.58.338,Main,2022.1.1,60.0013560306033,
negative,neutral,1,j,l,,,,,,,,,4,11,83,3,,,,,,,,,,,,,,,,,,,,,,,,main,1,1,1,neutral,negative,j,j,1,0.6608676999999261,303.62727270000005,304.6374198000003,304.61757190000026,None,303.62727270000005,None,303.62727270000005,None,303.62727270000005,None,305.2710839700002,None,305.2710839700002,None,305.2710839700002,None,,,,,,,,,,,220,24,Female,2022-05-20_14h09.58.338,Main,2022.1.1,60.0013560306033,
neutral,positive,2,k,k,,,,,,,,,4,12,84,13,,,,,,,,,,,,,,,,,,,,,,,,main,1,1,2,positive,neutral,k,k,1,0.5660219000001234,305.29354820000026,306.2953500000003,306.2759139,None,305.29354820000026,None,305.29354820000026,None,305.29354820000026,None,306.83996736999995,None,306.83996736999995,None,306.83996736999995,None,,,,,,,,,,,220,24,Female,2022-05-20_14h09.58.338,Main,2022.1.1,60.0013560306033,
negative,positive,2,j,l,,,,,,,,,4,13,85,15,,,,,,,,,,,,,,,,,,,,,,,,main,2,2,2,positive,negative,j,j,1,0.7509620000000723,306.86015150000003,307.87563339999997,307.8371655000001,None,306.86015150000003,None,306.86015150000003,None,306.86015150000003,None,308.59328987000015,None,308.59328987000015,None,308.59328987000015,None,,,,,,,,,,,220,24,Female,2022-05-20_14h09.58.338,Main,2022.1.1,60.0013560306033,
positive,positive,2,l,j,,,,,,,,,4,14,86,11,,,,,,,,,,,,,,,,,,,,,,,,main,2,2,2,positive,positive,l,l,1,0.6711615999997775,308.61348990000033,309.6227709,309.6033531000003,None,308.61348990000033,None,308.61348990000033,None,308.61348990000033,None,310.2685853700003,None,310.2685853700003,None,310.2685853700003,None,,,,,,,,,,,220,24,Female,2022-05-20_14h09.58.338,Main,2022.1.1,60.0013560306033,
neutral,negative,1,k,k,,,,,,,,,4,15,87,7,,,,,,,,,,,,,,,,,,,,,,,,main,2,2,1,negative,neutral,k,k,1,0.6919856999998046,310.28963479999993,311.306998,311.26809219999996,None,310.28963479999993,None,310.28963479999993,None,310.28963479999993,None,311.9619221700003,None,311.9619221700003,None,311.9619221700003,None,,,,,,,,,,,220,24,Female,2022-05-20_14h09.58.338,Main,2022.1.1,60.0013560306033,
negative,negative,2,j,l,,,,,,,,,4,16,88,9,,,,,,,,,,,,,,,,,,,,,,,,main,2,2,2,negative,negative,j,j,1,0.7642720999997437,311.9825476000001,312.9998046999999,312.9611423000001,None,311.9825476000001,None,311.9825476000001,None,311.9825476000001,None,313.72905067,None,313.72905067,None,313.72905067,None,,,,,,,,,,,220,24,Female,2022-05-20_14h09.58.338,Main,2022.1.1,60.0013560306033,
neutral,neutral,2,k,k,,,,,,,,,4,17,89,10,,,,,,,,,,,,,,,,,,,,,,,,main,2,2,2,neutral,neutral,k,k,1,0.5815258999996331,313.7490049000003,314.75192300000026,314.73255340000014,None,313.7490049000003,None,313.7490049000003,None,313.7490049000003,None,315.3147419700002,None,315.3147419700002,None,315.3147419700002,None,,,,,,,,,,,220,24,Female,2022-05-20_14h09.58.338,Main,2022.1.1,60.0013560306033,
positive,positive,1,l,j,,,,,,,,,5,0,90,2,,,,,,,,,,,,,,,,,,,,,,,,main,1,1,1,positive,positive,l,l,1,0.6460285999996813,315.3349774000003,316.34102110000003,316.3218388,None,315.3349774000003,None,315.3349774000003,None,315.3349774000003,None,316.9618868700003,None,316.9618868700003,None,316.9618868700003,None,,,,,,,,,,,220,24,Female,2022-05-20_14h09.58.338,Main,2022.1.1,60.0013560306033,
neutral,neutral,2,k,k,,,,,,,,,5,1,91,10,,,,,,,,,,,,,,,,,,,,,,,,main,1,1,2,neutral,neutral,k,k,1,0.7355551999999079,316.9818657999999,318.0120525000002,317.9631867000003,None,316.9818657999999,None,316.9818657999999,None,316.9818657999999,None,318.7016293700002,None,318.7016293700002,None,318.7016293700002,None,,,,,,,,,,,220,24,Female,2022-05-20_14h09.58.338,Main,2022.1.1,60.0013560306033,
negative,neutral,1,j,l,,,,,,,,,5,2,92,3,,,,,,,,,,,,,,,,,,,,,,,,main,1,1,1,neutral,negative,j,j,1,0.7288940999997067,318.72168090000014,319.7227769000001,319.7041896999999,None,318.72168090000014,None,318.72168090000014,None,318.72168090000014,None,320.43460587000015,None,320.43460587000015,None,320.43460587000015,None,,,,,,,,,,,220,24,Female,2022-05-20_14h09.58.338,Main,2022.1.1,60.0013560306033,
positive,positive,2,l,j,,,,,,,,,5,3,93,11,,,,,,,,,,,,,,,,,,,,,,,,main,1,1,2,positive,positive,l,l,1,0.6762324999999691,320.4553747,321.47557080000024,321.4374534000003,None,320.4553747,None,320.4553747,None,320.4553747,None,322.1154215700002,None,322.1154215700002,None,322.1154215700002,None,,,,,,,,,,,220,24,Female,2022-05-20_14h09.58.338,Main,2022.1.1,60.0013560306033,
positive,negative,1,l,j,,,,,,,,,5,4,94,5,,,,,,,,,,,,,,,,,,,,,,,,main,1,1,1,negative,positive,l,l,1,0.9771983000000546,322.1362078000002,323.1412239000001,323.1223170000003,None,322.1362078000002,None,322.1362078000002,None,322.1362078000002,None,324.09319167,None,324.09319167,None,324.09319167,None,,,,,,,,,,,220,24,Female,2022-05-20_14h09.58.338,Main,2022.1.1,60.0013560306033,
neutral,neutral,1,k,k,,,,,,,,,5,5,95,1,,,,,,,,,,,,,,,,,,,,,,,,main,2,2,1,neutral,neutral,k,k,1,0.6612074999998185,324.1134595000003,325.1178911000002,325.09836270000005,None,324.1134595000003,None,324.1134595000003,None,324.1134595000003,None,325.7563030700002,None,325.7563030700002,None,325.7563030700002,None,,,,,,,,,,,220,24,Female,2022-05-20_14h09.58.338,Main,2022.1.1,60.0013560306033,
positive,neutral,2,l,j,,,,,,,,,5,6,96,17,,,,,,,,,,,,,,,,,,,,,,,,main,2,2,2,neutral,positive,l,l,1,0.671192499999961,325.77775120000024,326.7886797000001,326.7688301000003,None,325.77775120000024,None,325.77775120000024,None,325.77775120000024,None,327.4325480700003,None,327.4325480700003,None,327.4325480700003,None,,,,,,,,,,,220,24,Female,2022-05-20_14h09.58.338,Main,2022.1.1,60.0013560306033,
positive,negative,2,l,j,,,,,,,,,5,7,97,14,,,,,,,,,,,,,,,,,,,,,,,,main,1,1,2,negative,positive,l,l,1,0.6399585999997726,327.4532514000002,328.45825289999993,328.4385933000003,None,327.4532514000002,None,327.4532514000002,None,327.4532514000002,None,329.0727700700003,None,329.0727700700003,None,329.0727700700003,None,,,,,,,,,,,220,24,Female,2022-05-20_14h09.58.338,Main,2022.1.1,60.0013560306033,
neutral,positive,2,k,k,,,,,,,,,5,8,98,13,,,,,,,,,,,,,,,,,,,,,,,,main,2,2,2,positive,neutral,k,k,1,0.7121979999997166,329.09388660000013,330.1060037000002,330.0868687000002,None,329.09388660000013,None,329.09388660000013,None,329.09388660000013,None,330.78709306999997,None,330.78709306999997,None,330.78709306999997,None,,,,,,,,,,,220,24,Female,2022-05-20_14h09.58.338,Main,2022.1.1,60.0013560306033,
positive,neutral,1,l,j,,,,,,,,,5,9,99,8,,,,,,,,,,,,,,,,,,,,,,,,main,1,1,1,neutral,positive,l,l,1,0.8107480999997279,330.8082615000003,331.82648800000015,331.78926090000004,None,330.8082615000003,None,330.8082615000003,None,330.8082615000003,None,332.6018609700003,None,332.6018609700003,None,332.6018609700003,None,,,,,,,,,,,220,24,Female,2022-05-20_14h09.58.338,Main,2022.1.1,60.0013560306033,
negative,neutral,2,j,l,,,,,,,,,5,10,100,12,,,,,,,,,,,,,,,,,,,,,,,,main,1,1,2,neutral,negative,j,j,1,0.9065711000002921,332.62352869999995,333.64304530000027,333.6048816000002,None,332.62352869999995,None,332.62352869999995,None,332.62352869999995,None,334.5137575700004,None,334.5137575700004,None,334.5137575700004,None,,,,,,,,,,,220,24,Female,2022-05-20_14h09.58.338,Main,2022.1.1,60.0013560306033,
neutral,positive,1,k,k,,,,,,,,,5,11,101,4,,,,,,,,,,,,,,,,,,,,,,,,main,1,1,1,positive,neutral,k,k,1,0.590875099999721,334.5365154000001,335.5569795000001,335.5188419000001,None,334.5365154000001,None,334.5365154000001,None,334.5365154000001,None,336.10428717,None,336.10428717,None,336.10428717,None,,,,,,,,,,,220,24,Female,2022-05-20_14h09.58.338,Main,2022.1.1,60.0013560306033,
negative,positive,1,j,l,,,,,,,,,5,12,102,6,,,,,,,,,,,,,,,,,,,,,,,,main,2,2,1,positive,negative,j,j,1,0.785421199999746,336.1263146000001,337.1359367,337.11652129999993,None,336.1263146000001,None,336.1263146000001,None,336.1263146000001,None,337.89425737,None,337.89425737,None,337.89425737,None,,,,,,,,,,,220,24,Female,2022-05-20_14h09.58.338,Main,2022.1.1,60.0013560306033,
neutral,negative,2,k,k,,,,,,,,,5,13,103,16,,,,,,,,,,,,,,,,,,,,,,,,main,2,2,2,negative,neutral,k,k,1,0.5788327999998728,337.9154169000003,338.93267160000005,338.8943376000002,None,337.9154169000003,None,337.9154169000003,None,337.9154169000003,None,339.47382857000036,None,339.47382857000036,None,339.47382857000036,None,,,,,,,,,,,220,24,Female,2022-05-20_14h09.58.338,Main,2022.1.1,60.0013560306033,
negative,positive,2,j,l,,,,,,,,,5,14,104,15,,,,,,,,,,,,,,,,,,,,,,,,main,1,1,2,positive,negative,j,j,1,0.9152508000001944,339.49760190000006,340.5016519999999,340.4823699000003,None,339.49760190000006,None,339.49760190000006,None,339.49760190000006,None,341.3915741700001,None,341.3915741700001,None,341.3915741700001,None,,,,,,,,,,,220,24,Female,2022-05-20_14h09.58.338,Main,2022.1.1,60.0013560306033,
negative,negative,1,j,l,,,,,,,,,5,15,105,0,,,,,,,,,,,,,,,,,,,,,,,,main,2,2,1,negative,negative,j,j,1,0.8851015000000189,341.4122199000003,342.4289450000001,342.39086750000024,None,341.4122199000003,None,341.4122199000003,None,341.4122199000003,None,343.28051997,None,343.28051997,None,343.28051997,None,,,,,,,,,,,220,24,Female,2022-05-20_14h09.58.338,Main,2022.1.1,60.0013560306033,
neutral,negative,1,k,k,,,,,,,,,5,16,106,7,,,,,,,,,,,,,,,,,,,,,,,,main,2,2,1,negative,neutral,k,k,1,0.6092919000002439,343.30047390000027,344.30862620000016,344.2890953000001,None,343.30047390000027,None,343.30047390000027,None,343.30047390000027,None,344.8921212700001,None,344.8921212700001,None,344.8921212700001,None,,,,,,,,,,,220,24,Female,2022-05-20_14h09.58.338,Main,2022.1.1,60.0013560306033,
negative,negative,2,j,l,,,,,,,,,5,17,107,9,,,,,,,,,,,,,,,,,,,,,,,,main,2,2,2,negative,negative,j,,0,0.7760026999999354,344.91234510000004,345.91481710000016,345.8949355,None,344.91234510000004,None,344.91234510000004,None,344.91234510000004,None,346.6754232000003,None,346.6754232000003,None,346.6754232000003,None,,,,,,,,,,,220,24,Female,2022-05-20_14h09.58.338,Main,2022.1.1,60.0013560306033,
negative,negative,1,j,l,,,,,,,,,6,0,108,0,,,,,,,,,,,,,,,,,,,,,,,,main,2,2,1,negative,negative,j,j,1,0.8140687000000071,347.6903622,348.6952326999999,348.6757798000003,None,347.6903622,None,347.6903622,None,347.6903622,None,349.48418917000015,None,349.48418917000015,None,349.48418917000015,None,,,,,,,,,,,220,24,Female,2022-05-20_14h09.58.338,Main,2022.1.1,60.0013560306033,
positive,neutral,2,l,j,,,,,,,,,6,1,109,17,,,,,,,,,,,,,,,,,,,,,,,,main,1,1,2,neutral,positive,l,l,1,0.7327452999998059,349.5050908000003,350.5228761000003,350.4823583000002,None,349.5050908000003,None,349.5050908000003,None,349.5050908000003,None,351.21739027,None,351.21739027,None,351.21739027,None,,,,,,,,,,,220,24,Female,2022-05-20_14h09.58.338,Main,2022.1.1,60.0013560306033,
negative,positive,2,j,l,,,,,,,,,6,2,110,15,,,,,,,,,,,,,,,,,,,,,,,,main,1,1,2,positive,negative,j,j,1,0.7377427999999782,351.2432179000002,352.25245829999994,352.23022800000035,None,351.2432179000002,None,351.2432179000002,None,351.2432179000002,None,352.95961317000035,None,352.95961317000035,None,352.95961317000035,None,,,,,,,,,,,220,24,Female,2022-05-20_14h09.58.338,Main,2022.1.1,60.0013560306033,
positive,negative,2,l,j,,,,,,,,,6,3,111,14,,,,,,,,,,,,,,,,,,,,,,,,main,1,1,2,negative,positive,l,l,1,0.7722888000002968,352.9873471000001,354.0038867000003,353.98432010000033,None,352.9873471000001,None,352.9873471000001,None,352.9873471000001,None,354.73416877000034,None,354.73416877000034,None,354.73416877000034,None,,,,,,,,,,,220,24,Female,2022-05-20_14h09.58.338,Main,2022.1.1,60.0013560306033,
positive,negative,1,l,j,,,,,,,,,6,4,112,5,,,,,,,,,,,,,,,,,,,,,,,,main,1,1,1,negative,positive,l,l,1,0.7529274999997142,354.76437110000006,355.78525820000004,355.7433208000002,None,354.76437110000006,None,354.76437110000006,None,354.76437110000006,None,356.49191177,None,356.49191177,None,356.49191177,None,,,,,,,,,,,220,24,Female,2022-05-20_14h09.58.338,Main,2022.1.1,60.0013560306033,
neutral,negative,2,k,k,,,,,,,,,6,5,113,16,,,,,,,,,,,,,,,,,,,,,,,,main,2,2,2,negative,neutral,k,k,1,0.7053086999999323,356.51759870000024,357.5344226000002,357.51333520000026,None,356.51759870000024,None,356.51759870000024,None,356.51759870000024,None,358.19789887000013,None,358.19789887000013,None,358.19789887000013,None,,,,,,,,,,,220,24,Female,2022-05-20_14h09.58.338,Main,2022.1.1,60.0013560306033,
positive,neutral,1,l,j,,,,,,,,,6,6,114,8,,,,,,,,,,,,,,,,,,,,,,,,main,2,2,1,neutral,positive,l,l,1,0.818488900000375,358.2229446000001,359.2421598000001,359.20031599999993,None,358.2229446000001,None,358.2229446000001,None,358.2229446000001,None,360.01988917000006,None,360.01988917000006,None,360.01988917000006,None,,,,,,,,,,,220,24,Female,2022-05-20_14h09.58.338,Main,2022.1.1,60.0013560306033,
positive,positive,1,l,j,,,,,,,,,6,7,115,2,,,,,,,,,,,,,,,,,,,,,,,,main,1,1,1,positive,positive,l,l,1,0.7102679000004173,360.04707540000027,361.06506519999994,361.0426547000002,None,360.04707540000027,None,360.04707540000027,None,360.04707540000027,None,361.73343077000015,None,361.73343077000015,None,361.73343077000015,None,,,,,,,,,,,220,24,Female,2022-05-20_14h09.58.338,Main,2022.1.1,60.0013560306033,
positive,positive,2,l,j,,,,,,,,,6,8,116,11,,,,,,,,,,,,,,,,,,,,,,,,main,2,2,2,positive,positive,l,l,1,0.7873623999998927,361.76027780000004,362.7662921000001,362.7451848999999,None,361.76027780000004,None,361.76027780000004,None,361.76027780000004,None,363.5243044700004,None,363.5243044700004,None,363.5243044700004,None,,,,,,,,,,,220,24,Female,2022-05-20_14h09.58.338,Main,2022.1.1,60.0013560306033,
negative,negative,2,j,l,,,,,,,,,6,9,117,9,,,,,,,,,,,,,,,,,,,,,,,,main,1,1,2,negative,negative,j,j,1,0.7442642000000887,363.55045010000003,364.55611290000024,364.53500239999994,None,363.55045010000003,None,363.55045010000003,None,363.55045010000003,None,365.26995127,None,365.26995127,None,365.26995127,None,,,,,,,,,,,220,24,Female,2022-05-20_14h09.58.338,Main,2022.1.1,60.0013560306033,
negative,neutral,1,j,l,,,,,,,,,6,10,118,3,,,,,,,,,,,,,,,,,,,,,,,,main,2,2,1,neutral,negative,j,j,1,0.8479388000000654,365.2990734,366.30510630000026,366.28494739999996,None,365.2990734,None,365.2990734,None,365.2990734,None,367.1247406700003,None,367.1247406700003,None,367.1247406700003,None,,,,,,,,,,,220,24,Female,2022-05-20_14h09.58.338,Main,2022.1.1,60.0013560306033,
negative,neutral,2,j,l,,,,,,,,,6,11,119,12,,,,,,,,,,,,,,,,,,,,,,,,main,2,2,2,neutral,negative,j,j,1,0.7079465000001619,367.1493938000003,368.15460570000005,368.13300180000033,None,367.1493938000003,None,367.1493938000003,None,367.1493938000003,None,368.83281607000015,None,368.83281607000015,None,368.83281607000015,None,,,,,,,,,,,220,24,Female,2022-05-20_14h09.58.338,Main,2022.1.1,60.0013560306033,
neutral,neutral,1,k,k,,,,,,,,,6,12,120,1,,,,,,,,,,,,,,,,,,,,,,,,main,2,2,1,neutral,neutral,k,k,1,0.5558677999997599,368.8607615000001,369.8675796000002,369.84705669999994,None,368.8607615000001,None,368.8607615000001,None,368.8607615000001,None,370.39381327000035,None,370.39381327000035,None,370.39381327000035,None,,,,,,,,,,,220,24,Female,2022-05-20_14h09.58.338,Main,2022.1.1,60.0013560306033,
negative,positive,1,j,l,,,,,,,,,6,13,121,6,,,,,,,,,,,,,,,,,,,,,,,,main,1,1,1,positive,negative,j,j,1,0.8021631999999954,370.41856069999994,371.4377744000003,371.4168453000002,None,370.41856069999994,None,370.41856069999994,None,370.41856069999994,None,372.1973706700004,None,372.1973706700004,None,372.1973706700004,None,,,,,,,,,,,220,24,Female,2022-05-20_14h09.58.338,Main,2022.1.1,60.0013560306033,
neutral,neutral,2,k,k,,,,,,,,,6,14,122,10,,,,,,,,,,,,,,,,,,,,,,,,main,2,2,2,neutral,neutral,k,k,1,0.7458846999998059,372.2257870000003,373.23283790000005,373.2121763,None,372.2257870000003,None,372.2257870000003,None,372.2257870000003,None,373.94817347000014,None,373.94817347000014,None,373.94817347000014,None,,,,,,,,,,,220,24,Female,2022-05-20_14h09.58.338,Main,2022.1.1,60.0013560306033,
neutral,negative,1,k,k,,,,,,,,,6,15,123,7,,,,,,,,,,,,,,,,,,,,,,,,main,2,2,1,negative,neutral,k,k,1,0.770964400000139,373.9761195000001,374.98666040000035,374.9664782,None,373.9761195000001,None,373.9761195000001,None,373.9761195000001,None,375.72459827,None,375.72459827,None,375.72459827,None,,,,,,,,,,,220,24,Female,2022-05-20_14h09.58.338,Main,2022.1.1,60.0013560306033,
neutral,positive,1,k,k,,,,,,,,,6,16,124,4,,,,,,,,,,,,,,,,,,,,,,,,main,2,2,1,positive,neutral,k,k,1,0.7310775000000831,375.7504256000002,376.7662346000002,376.74412680000023,None,375.7504256000002,None,375.7504256000002,None,375.7504256000002,None,377.4583795700004,None,377.4583795700004,None,377.4583795700004,None,,,,,,,,,,,220,24,Female,2022-05-20_14h09.58.338,Main,2022.1.1,60.0013560306033,
neutral,positive,2,k,k,,,,,,,,,6,17,125,13,,,,,,,,,,,,,,,,,,,,,,,,main,1,1,2,positive,neutral,k,k,1,0.8252259999999296,377.4847539000002,378.4945078999999,378.4734738000002,None,377.4847539000002,None,377.4847539000002,None,377.4847539000002,None,379.2890310700003,None,379.2890310700003,None,379.2890310700003,None,,,,,,,,,,,220,24,Female,2022-05-20_14h09.58.338,Main,2022.1.1,60.0013560306033,
neutral,negative,2,k,k,,,,,,,,,7,0,126,16,,,,,,,,,,,,,,,,,,,,,,,,main,1,1,2,negative,neutral,k,k,1,0.6298950000000332,379.3139433000001,380.3346611000002,380.2936141,None,379.3139433000001,None,379.3139433000001,None,379.3139433000001,None,380.92181687000027,None,380.92181687000027,None,380.92181687000027,None,,,,,,,,,,,220,24,Female,2022-05-20_14h09.58.338,Main,2022.1.1,60.0013560306033,
neutral,negative,1,k,k,,,,,,,,,7,1,127,7,,,,,,,,,,,,,,,,,,,,,,,,main,2,2,1,negative,neutral,k,k,1,0.5568681999998262,380.9466602000002,381.95120880000013,381.92953690000013,None,380.9466602000002,None,380.9466602000002,None,380.9466602000002,None,382.4795930700001,None,382.4795930700001,None,382.4795930700001,None,,,,,,,,,,,220,24,Female,2022-05-20_14h09.58.338,Main,2022.1.1,60.0013560306033,
negative,neutral,1,j,l,,,,,,,,,7,2,128,3,,,,,,,,,,,,,,,,,,,,,,,,main,1,1,1,neutral,negative,j,k,0,0.5024757000001046,382.50375250000025,383.5064832000003,383.48616100000027,None,382.50375250000025,None,382.50375250000025,None,382.50375250000025,None,383.9960285000002,None,383.9960285000002,None,383.9960285000002,None,,,,,,,,,,,220,24,Female,2022-05-20_14h09.58.338,Main,2022.1.1,60.0013560306033,
negative,neutral,2,j,l,,,,,,,,,7,3,129,12,,,,,,,,,,,,,,,,,,,,,,,,main,1,1,2,neutral,negative,j,j,1,0.8214305000001332,385.02323000000024,386.03666250000015,386.01560020000034,None,385.02323000000024,None,385.02323000000024,None,385.02323000000024,None,386.8206734700001,None,386.8206734700001,None,386.8206734700001,None,,,,,,,,,,,220,24,Female,2022-05-20_14h09.58.338,Main,2022.1.1,60.0013560306033,
positive,positive,1,l,j,,,,,,,,,7,4,130,2,,,,,,,,,,,,,,,,,,,,,,,,main,2,2,1,positive,positive,l,l,1,1.101120599999831,386.84696669999994,387.8523974,387.8321834000003,None,386.84696669999994,None,386.84696669999994,None,386.84696669999994,None,388.9234761700003,None,388.9234761700003,None,388.9234761700003,None,,,,,,,,,,,220,24,Female,2022-05-20_14h09.58.338,Main,2022.1.1,60.0013560306033,
neutral,neutral,2,k,k,,,,,,,,,7,5,131,10,,,,,,,,,,,,,,,,,,,,,,,,main,2,2,2,neutral,neutral,k,k,1,0.7227598999998008,388.9531463000003,389.9693506000003,389.9484077000002,None,388.9531463000003,None,388.9531463000003,None,388.9531463000003,None,390.6532058700003,None,390.6532058700003,None,390.6532058700003,None,,,,,,,,,,,220,24,Female,2022-05-20_14h09.58.338,Main,2022.1.1,60.0013560306033,
positive,negative,1,l,j,,,,,,,,,7,6,132,5,,,,,,,,,,,,,,,,,,,,,,,,main,1,1,1,negative,positive,l,l,1,0.7203192999995736,390.6786677,391.6901683000001,391.6698266000003,None,390.6786677,None,390.6786677,None,390.6786677,None,392.37474856999995,None,392.37474856999995,None,392.37474856999995,None,,,,,,,,,,,220,24,Female,2022-05-20_14h09.58.338,Main,2022.1.1,60.0013560306033,
negative,negative,2,j,l,,,,,,,,,7,7,133,9,,,,,,,,,,,,,,,,,,,,,,,,main,2,2,2,negative,negative,j,j,1,0.8056077000001096,392.4031229000002,393.4173205000002,393.39644739999994,None,392.4031229000002,None,392.4031229000002,None,392.4031229000002,None,394.18513247,None,394.18513247,None,394.18513247,None,,,,,,,,,,,220,24,Female,2022-05-20_14h09.58.338,Main,2022.1.1,60.0013560306033,
negative,negative,1,j,l,,,,,,,,,7,8,134,0,,,,,,,,,,,,,,,,,,,,,,,,main,1,1,1,negative,negative,j,j,1,0.9254349999996521,394.21290610000005,395.2319341000002,395.1905784999999,None,394.21290610000005,None,394.21290610000005,None,394.21290610000005,None,396.1146169700004,None,396.1146169700004,None,396.1146169700004,None,,,,,,,,,,,220,24,Female,2022-05-20_14h09.58.338,Main,2022.1.1,60.0013560306033,
neutral,neutral,1,k,k,,,,,,,,,7,9,135,1,,,,,,,,,,,,,,,,,,,,,,,,main,1,1,1,neutral,neutral,k,k,1,0.5973345000002155,396.1413397000001,397.16096560000005,397.1207234000003,None,396.1413397000001,None,396.1413397000001,None,396.1413397000001,None,397.7146473700003,None,397.7146473700003,None,397.7146473700003,None,,,,,,,,,,,220,24,Female,2022-05-20_14h09.58.338,Main,2022.1.1,60.0013560306033,
neutral,positive,1,k,k,,,,,,,,,7,10,136,4,,,,,,,,,,,,,,,,,,,,,,,,main,2,2,1,positive,neutral,k,k,1,0.7750595000002249,397.74018879999994,398.7630452000003,398.7213220000003,None,397.74018879999994,None,397.74018879999994,None,397.74018879999994,None,399.4922317700001,None,399.4922317700001,None,399.4922317700001,None,,,,,,,,,,,220,24,Female,2022-05-20_14h09.58.338,Main,2022.1.1,60.0013560306033,
positive,negative,2,l,j,,,,,,,,,7,11,137,14,,,,,,,,,,,,,,,,,,,,,,,,main,1,1,2,negative,positive,l,l,1,0.8032077000002573,399.5197005,400.53725520000035,400.5161686000001,None,399.5197005,None,399.5197005,None,399.5197005,None,401.3016010700002,None,401.3016010700002,None,401.3016010700002,None,,,,,,,,,,,220,24,Female,2022-05-20_14h09.58.338,Main,2022.1.1,60.0013560306033,
positive,neutral,2,l,j,,,,,,,,,7,12,138,17,,,,,,,,,,,,,,,,,,,,,,,,main,1,1,2,neutral,positive,l,l,1,0.7630745000001298,401.3261815000001,402.3395978000003,402.31886280000026,None,401.3261815000001,None,401.3261815000001,None,401.3261815000001,None,403.0684203700001,None,403.0684203700001,None,403.0684203700001,None,,,,,,,,,,,220,24,Female,2022-05-20_14h09.58.338,Main,2022.1.1,60.0013560306033,
negative,positive,1,j,l,,,,,,,,,7,13,139,6,,,,,,,,,,,,,,,,,,,,,,,,main,2,2,1,positive,negative,j,j,1,0.827181400000427,403.09437690000004,404.10496409999996,404.0844423000003,None,403.09437690000004,None,403.09437690000004,None,403.09437690000004,None,404.89652427,None,404.89652427,None,404.89652427,None,,,,,,,,,,,220,24,Female,2022-05-20_14h09.58.338,Main,2022.1.1,60.0013560306033,
positive,positive,2,l,j,,,,,,,,,7,14,140,11,,,,,,,,,,,,,,,,,,,,,,,,main,1,1,2,positive,positive,l,l,1,0.8095065999996223,404.9213815000003,405.9413576000002,405.9204178,None,404.9213815000003,None,404.9213815000003,None,404.9213815000003,None,406.70898687000033,None,406.70898687000033,None,406.70898687000033,None,,,,,,,,,,,220,24,Female,2022-05-20_14h09.58.338,Main,2022.1.1,60.0013560306033,
positive,neutral,1,l,j,,,,,,,,,7,15,141,8,,,,,,,,,,,,,,,,,,,,,,,,main,1,1,1,neutral,positive,l,l,1,0.7131494000000203,406.73813480000035,407.7560298000003,407.7151409000003,None,406.73813480000035,None,406.73813480000035,None,406.73813480000035,None,408.4253653700001,None,408.4253653700001,None,408.4253653700001,None,,,,,,,,,,,220,24,Female,2022-05-20_14h09.58.338,Main,2022.1.1,60.0013560306033,
negative,positive,2,j,l,,,,,,,,,7,16,142,15,,,,,,,,,,,,,,,,,,,,,,,,main,2,2,2,positive,negative,j,j,1,0.7513328000000001,408.45174410000027,409.4635837000001,409.4424669,None,408.45174410000027,None,408.45174410000027,None,408.45174410000027,None,410.17986147,None,410.17986147,None,410.17986147,None,,,,,,,,,,,220,24,Female,2022-05-20_14h09.58.338,Main,2022.1.1,60.0013560306033,
neutral,positive,2,k,k,,,,,,,,,7,17,143,13,,,,,,,,,,,,,,,,,,,,,,,,main,2,2,2,positive,neutral,k,k,1,0.5459928000000218,410.2064203,411.20988380000017,411.1888874000001,None,410.2064203,None,410.2064203,None,410.2064203,None,411.7296578700001,None,411.7296578700001,None,411.7296578700001,None,,,,,,,,,,,220,24,Female,2022-05-20_14h09.58.338,Main,2022.1.1,60.0013560306033,
positive,neutral,1,l,j,,,,,,,,,8,0,144,8,,,,,,,,,,,,,,,,,,,,,,,,main,1,1,1,neutral,positive,l,l,1,0.6139315000000352,411.7588897999999,412.7618593000002,412.7418796000002,None,411.7588897999999,None,411.7588897999999,None,411.7588897999999,None,413.3474367700004,None,413.3474367700004,None,413.3474367700004,None,,,,,,,,,,,220,24,Female,2022-05-20_14h09.58.338,Main,2022.1.1,60.0013560306033,
neutral,neutral,1,k,k,,,,,,,,,8,1,145,1,,,,,,,,,,,,,,,,,,,,,,,,main,2,2,1,neutral,neutral,k,k,1,0.5984841999998025,413.3730519999999,414.3839410999999,414.3630174,None,413.3730519999999,None,413.3730519999999,None,413.3730519999999,None,414.95130147,None,414.95130147,None,414.95130147,None,,,,,,,,,,,220,24,Female,2022-05-20_14h09.58.338,Main,2022.1.1,60.0013560306033,
negative,negative,1,j,l,,,,,,,,,8,2,146,0,,,,,,,,,,,,,,,,,,,,,,,,main,2,2,1,negative,negative,j,j,1,0.7134141999999883,414.9776059999999,415.9948303000001,415.9748601000001,None,414.9776059999999,None,414.9776059999999,None,414.9776059999999,None,416.6655720700004,None,416.6655720700004,None,416.6655720700004,None,,,,,,,,,,,220,24,Female,2022-05-20_14h09.58.338,Main,2022.1.1,60.0013560306033,
positive,positive,2,l,j,,,,,,,,,8,3,147,11,,,,,,,,,,,,,,,,,,,,,,,,main,2,2,2,positive,positive,l,l,1,0.7008702000002813,416.6900866000001,417.69472050000013,417.67339440000023,None,416.6900866000001,None,416.6900866000001,None,416.6900866000001,None,418.3697488700003,None,418.3697488700003,None,418.3697488700003,None,,,,,,,,,,,220,24,Female,2022-05-20_14h09.58.338,Main,2022.1.1,60.0013560306033,
positive,negative,1,l,j,,,,,,,,,8,4,148,5,,,,,,,,,,,,,,,,,,,,,,,,main,1,1,1,negative,positive,l,l,1,0.6541645000002063,418.3961251999999,419.4045774000001,419.3836501999999,None,418.3961251999999,None,418.3961251999999,None,418.3961251999999,None,420.0300164700001,None,420.0300164700001,None,420.0300164700001,None,,,,,,,,,,,220,24,Female,2022-05-20_14h09.58.338,Main,2022.1.1,60.0013560306033,
negative,neutral,1,j,l,,,,,,,,,8,5,149,3,,,,,,,,,,,,,,,,,,,,,,,,main,2,2,1,neutral,negative,j,j,1,0.9415220999999292,420.0512523000002,421.06408809999994,421.04318360000025,None,420.0512523000002,None,420.0512523000002,None,420.0512523000002,None,421.97359987000016,None,421.97359987000016,None,421.97359987000016,None,,,,,,,,,,,220,24,Female,2022-05-20_14h09.58.338,Main,2022.1.1,60.0013560306033,
positive,negative,2,l,j,,,,,,,,,8,6,150,14,,,,,,,,,,,,,,,,,,,,,,,,main,2,2,2,negative,positive,l,l,1,0.8248376000001372,421.99475550000034,423.0077240999999,422.9850770000003,None,421.99475550000034,None,421.99475550000034,None,421.99475550000034,None,423.8016129700003,None,423.8016129700003,None,423.8016129700003,None,,,,,,,,,,,220,24,Female,2022-05-20_14h09.58.338,Main,2022.1.1,60.0013560306033,
positive,positive,1,l,j,,,,,,,,,8,7,151,2,,,,,,,,,,,,,,,,,,,,,,,,main,2,2,1,positive,positive,l,l,1,0.6782299000001331,423.824396,424.84521940000013,424.8027694000002,None,423.824396,None,423.824396,None,423.824396,None,425.4799279700004,None,425.4799279700004,None,425.4799279700004,None,,,,,,,,,,,220,24,Female,2022-05-20_14h09.58.338,Main,2022.1.1,60.0013560306033,
negative,neutral,2,j,l,,,,,,,,,8,8,152,12,,,,,,,,,,,,,,,,,,,,,,,,main,2,2,2,neutral,negative,j,j,1,0.9762129999999161,425.50804500000004,426.52600269999994,426.4886432000003,None,425.50804500000004,None,425.50804500000004,None,425.50804500000004,None,427.4596451700003,None,427.4596451700003,None,427.4596451700003,None,,,,,,,,,,,220,24,Female,2022-05-20_14h09.58.338,Main,2022.1.1,60.0013560306033,
neutral,negative,1,k,k,,,,,,,,,8,9,153,7,,,,,,,,,,,,,,,,,,,,,,,,main,1,1,1,negative,neutral,k,k,1,0.7154912000000877,427.48917299999994,428.49355860000014,428.47305730000016,None,427.48917299999994,None,427.48917299999994,None,427.48917299999994,None,429.18300737000015,None,429.18300737000015,None,429.18300737000015,None,,,,,,,,,,,220,24,Female,2022-05-20_14h09.58.338,Main,2022.1.1,60.0013560306033,
neutral,positive,1,k,k,,,,,,,,,8,10,154,4,,,,,,,,,,,,,,,,,,,,,,,,main,1,1,1,positive,neutral,k,k,1,0.6646832999999788,429.20699570000033,430.2136680000003,430.1932989000002,None,429.20699570000033,None,429.20699570000033,None,429.20699570000033,None,430.84819607,None,430.84819607,None,430.84819607,None,,,,,,,,,,,220,24,Female,2022-05-20_14h09.58.338,Main,2022.1.1,60.0013560306033,
neutral,positive,2,k,k,,,,,,,,,8,11,155,13,,,,,,,,,,,,,,,,,,,,,,,,main,2,2,2,positive,neutral,k,k,1,0.7458865000003243,430.8761721000001,431.9010280000002,431.8572226000001,None,430.8761721000001,None,430.8761721000001,None,430.8761721000001,None,432.5972077700002,None,432.5972077700002,None,432.5972077700002,None,,,,,,,,,,,220,24,Female,2022-05-20_14h09.58.338,Main,2022.1.1,60.0013560306033,
negative,positive,2,j,l,,,,,,,,,8,12,156,15,,,,,,,,,,,,,,,,,,,,,,,,main,1,1,2,positive,negative,j,j,1,0.7165356999998949,432.6235541000001,433.64561270000013,433.6043695000003,None,432.6235541000001,None,432.6235541000001,None,432.6235541000001,None,434.31733837000036,None,434.31733837000036,None,434.31733837000036,None,,,,,,,,,,,220,24,Female,2022-05-20_14h09.58.338,Main,2022.1.1,60.0013560306033,
negative,positive,1,j,l,,,,,,,,,8,13,157,6,,,,,,,,,,,,,,,,,,,,,,,,main,2,2,1,positive,negative,j,j,1,0.7729139999996733,434.3443162000003,435.35446230000025,435.3329665000001,None,434.3443162000003,None,434.3443162000003,None,434.3443162000003,None,436.0937532700003,None,436.0937532700003,None,436.0937532700003,None,,,,,,,,,,,220,24,Female,2022-05-20_14h09.58.338,Main,2022.1.1,60.0013560306033,
neutral,negative,2,k,k,,,,,,,,,8,14,158,16,,,,,,,,,,,,,,,,,,,,,,,,main,1,1,2,negative,neutral,k,k,1,0.7327205999999933,436.1227563000002,437.14384900000005,437.1031210000001,None,436.1227563000002,None,436.1227563000002,None,436.1227563000002,None,437.83114177000004,None,437.83114177000004,None,437.83114177000004,None,,,,,,,,,,,220,24,Female,2022-05-20_14h09.58.338,Main,2022.1.1,60.0013560306033,
neutral,neutral,2,k,k,,,,,,,,,8,15,159,10,,,,,,,,,,,,,,,,,,,,,,,,main,2,2,2,neutral,neutral,k,k,1,1.826096399999642,437.85970020000013,438.8642579000002,438.84372699999994,None,437.85970020000013,None,437.85970020000013,None,437.85970020000013,None,440.6750397999999,None,440.6750397999999,None,440.6750397999999,None,,,,,,,,,,,220,24,Female,2022-05-20_14h09.58.338,Main,2022.1.1,60.0013560306033,
negative,negative,2,j,l,,,,,,,,,8,16,160,9,,,,,,,,,,,,,,,,,,,,,,,,main,2,2,2,negative,negative,j,j,1,0.7351481000000604,441.7000114000002,442.7214035000002,442.6800128,None,441.7000114000002,None,441.7000114000002,None,441.7000114000002,None,443.40770167000016,None,443.40770167000016,None,443.40770167000016,None,,,,,,,,,,,220,24,Female,2022-05-20_14h09.58.338,Main,2022.1.1,60.0013560306033,
positive,neutral,2,l,j,,,,,,,,,8,17,161,17,,,,,,,,,,,,,,,,,,,,,,,,main,2,2,2,neutral,positive,l,l,1,0.6583665000002838,443.43360040000016,444.4431823,444.4235341000003,None,443.43360040000016,None,443.43360040000016,None,443.43360040000016,None,445.06977016999997,None,445.06977016999997,None,445.06977016999997,None,,,,,,,,,,,220,24,Female,2022-05-20_14h09.58.338,Main,2022.1.1,60.0013560306033,
positive,negative,1,l,j,,,,,,,,,9,0,162,5,,,,,,,,,,,,,,,,,,,,,,,,main,1,1,1,negative,positive,l,l,1,1.0089897000002566,445.0962609000003,446.11319619999995,446.0731962,None,445.0962609000003,None,445.0962609000003,None,445.0962609000003,None,447.08367467000005,None,447.08367467000005,None,447.08367467000005,None,,,,,,,,,,,220,24,Female,2022-05-20_14h09.58.338,Main,2022.1.1,60.0013560306033,
positive,positive,1,l,j,,,,,,,,,9,1,163,2,,,,,,,,,,,,,,,,,,,,,,,,main,2,2,1,positive,positive,l,l,1,0.7031377000002976,447.10976630000005,448.11639760000025,448.0961086000002,None,447.10976630000005,None,447.10976630000005,None,447.10976630000005,None,448.78797567000026,None,448.78797567000026,None,448.78797567000026,None,,,,,,,,,,,220,24,Female,2022-05-20_14h09.58.338,Main,2022.1.1,60.0013560306033,
neutral,positive,2,k,k,,,,,,,,,9,2,164,13,,,,,,,,,,,,,,,,,,,,,,,,main,1,1,2,positive,neutral,k,k,1,0.5480829000002814,448.81494790000033,449.83885580000015,449.7954003,None,448.81494790000033,None,448.81494790000033,None,448.81494790000033,None,450.34130046999996,None,450.34130046999996,None,450.34130046999996,None,,,,,,,,,,,220,24,Female,2022-05-20_14h09.58.338,Main,2022.1.1,60.0013560306033,
negative,positive,2,j,l,,,,,,,,,9,3,165,15,,,,,,,,,,,,,,,,,,,,,,,,main,1,1,2,positive,negative,j,j,1,0.6915404999999737,450.36544200000026,451.38463060000004,451.3435250000002,None,450.36544200000026,None,450.36544200000026,None,450.36544200000026,None,452.0355505700003,None,452.0355505700003,None,452.0355505700003,None,,,,,,,,,,,220,24,Female,2022-05-20_14h09.58.338,Main,2022.1.1,60.0013560306033,
positive,neutral,1,l,j,,,,,,,,,9,4,166,8,,,,,,,,,,,,,,,,,,,,,,,,main,2,2,1,neutral,positive,l,l,1,0.8977689999996983,452.0611352000001,453.0831178000003,453.0430709000002,None,452.0611352000001,None,452.0611352000001,None,452.0611352000001,None,453.9365950700002,None,453.9365950700002,None,453.9365950700002,None,,,,,,,,,,,220,24,Female,2022-05-20_14h09.58.338,Main,2022.1.1,60.0013560306033,
negative,neutral,2,j,l,,,,,,,,,9,5,167,12,,,,,,,,,,,,,,,,,,,,,,,,main,2,2,2,neutral,negative,j,j,1,0.785559199999625,453.9700364,454.97676820000015,454.9566555000001,None,453.9700364,None,453.9700364,None,453.9700364,None,455.7267596700002,None,455.7267596700002,None,455.7267596700002,None,,,,,,,,,,,220,24,Female,2022-05-20_14h09.58.338,Main,2022.1.1,60.0013560306033,
neutral,negative,1,k,k,,,,,,,,,9,6,168,7,,,,,,,,,,,,,,,,,,,,,,,,main,1,1,1,negative,neutral,k,k,1,0.6879309000000831,455.7552022,456.77001100000007,456.74830040000006,None,455.7552022,None,455.7552022,None,455.7552022,None,457.41889957,None,457.41889957,None,457.41889957,None,,,,,,,,,,,220,24,Female,2022-05-20_14h09.58.338,Main,2022.1.1,60.0013560306033,
negative,positive,1,j,l,,,,,,,,,9,7,169,6,,,,,,,,,,,,,,,,,,,,,,,,main,1,1,1,positive,negative,j,j,1,0.7927042000001165,457.4486068000001,458.4646279000003,458.42632619999995,None,457.4486068000001,None,457.4486068000001,None,457.4486068000001,None,459.2164615700002,None,459.2164615700002,None,459.2164615700002,None,,,,,,,,,,,220,24,Female,2022-05-20_14h09.58.338,Main,2022.1.1,60.0013560306033,
negative,negative,2,j,l,,,,,,,,,9,8,170,9,,,,,,,,,,,,,,,,,,,,,,,,main,2,2,2,negative,negative,j,j,1,0.749371500000052,459.2414619000001,460.2518769000003,460.2306527999999,None,459.2414619000001,None,459.2414619000001,None,459.2414619000001,None,460.9819213400003,None,460.9819213400003,None,460.9819213400003,None,,,,,,,,,,,220,24,Female,2022-05-20_14h09.58.338,Main,2022.1.1,60.0013560306033,
neutral,positive,1,k,k,,,,,,,,,9,9,171,4,,,,,,,,,,,,,,,,,,,,,,,,main,1,1,1,positive,neutral,k,k,1,0.7137118999999075,461.00002680000034,462.0066575000001,461.9871244000001,None,461.00002680000034,None,461.00002680000034,None,461.00002680000034,None,462.68629447,None,462.68629447,None,462.68629447,None,,,,,,,,,,,220,24,Female,2022-05-20_14h09.58.338,Main,2022.1.1,60.0013560306033,
positive,neutral,2,l,j,,,,,,,,,9,10,172,17,,,,,,,,,,,,,,,,,,,,,,,,main,1,1,2,neutral,positive,l,l,1,0.622286200000417,462.71282410000003,463.7341437,463.69294530000025,None,462.71282410000003,None,462.71282410000003,None,462.71282410000003,None,464.3125413700003,None,464.3125413700003,None,464.3125413700003,None,,,,,,,,,,,220,24,Female,2022-05-20_14h09.58.338,Main,2022.1.1,60.0013560306033,
negative,neutral,1,j,l,,,,,,,,,9,11,173,3,,,,,,,,,,,,,,,,,,,,,,,,main,1,1,1,neutral,negative,j,j,1,0.8422989000000598,464.3400875000002,465.35901749999994,465.32130780000034,None,464.3400875000002,None,464.3400875000002,None,464.3400875000002,None,466.1594397700004,None,466.1594397700004,None,466.1594397700004,None,,,,,,,,,,,220,24,Female,2022-05-20_14h09.58.338,Main,2022.1.1,60.0013560306033,
neutral,neutral,1,k,k,,,,,,,,,9,12,174,1,,,,,,,,,,,,,,,,,,,,,,,,main,2,2,1,neutral,neutral,k,k,1,0.7291596000000027,466.1837456000003,467.2061695000002,467.1629084000001,None,466.1837456000003,None,466.1837456000003,None,466.1837456000003,None,467.89232346999995,None,467.89232346999995,None,467.89232346999995,None,,,,,,,,,,,220,24,Female,2022-05-20_14h09.58.338,Main,2022.1.1,60.0013560306033,
negative,negative,1,j,l,,,,,,,,,9,13,175,0,,,,,,,,,,,,,,,,,,,,,,,,main,2,2,1,negative,negative,j,j,1,0.769387899999856,467.9179368,468.92776010000034,468.9072368000002,None,467.9179368,None,467.9179368,None,467.9179368,None,469.6652926700002,None,469.6652926700002,None,469.6652926700002,None,,,,,,,,,,,220,24,Female,2022-05-20_14h09.58.338,Main,2022.1.1,60.0013560306033,
positive,negative,2,l,j,,,,,,,,,9,14,176,14,,,,,,,,,,,,,,,,,,,,,,,,main,2,2,2,negative,positive,l,l,1,0.7023371999998744,469.6927449,470.70344969999996,470.68381130000034,None,469.6927449,None,469.6927449,None,469.6927449,None,471.3718492700003,None,471.3718492700003,None,471.3718492700003,None,,,,,,,,,,,220,24,Female,2022-05-20_14h09.58.338,Main,2022.1.1,60.0013560306033,
neutral,negative,2,k,k,,,,,,,,,9,15,177,16,,,,,,,,,,,,,,,,,,,,,,,,main,2,2,2,negative,neutral,k,k,1,0.6674582999999075,471.39783420000003,472.4139817,472.3928166999999,None,471.39783420000003,None,471.39783420000003,None,471.39783420000003,None,473.04059067000014,None,473.04059067000014,None,473.04059067000014,None,,,,,,,,,,,220,24,Female,2022-05-20_14h09.58.338,Main,2022.1.1,60.0013560306033,
positive,positive,2,l,j,,,,,,,,,9,16,178,11,,,,,,,,,,,,,,,,,,,,,,,,main,2,2,2,positive,positive,l,l,1,0.9316045000000486,473.0704592000002,474.0771113999999,474.05783580000025,None,473.0704592000002,None,473.0704592000002,None,473.0704592000002,None,474.9794086700002,None,474.9794086700002,None,474.9794086700002,None,,,,,,,,,,,220,24,Female,2022-05-20_14h09.58.338,Main,2022.1.1,60.0013560306033,
neutral,neutral,2,k,k,,,,,,,,,9,17,179,10,,,,,,,,,,,,,,,,,,,,,,,,main,1,1,2,neutral,neutral,k,k,1,0.7242510999999467,475.0038377999999,476.02125060000026,476.0006648000003,None,475.0038377999999,None,475.0038377999999,None,475.0038377999999,None,476.7089839700001,None,476.7089839700001,None,476.7089839700001,None,,,,,,,,,,,220,24,Female,2022-05-20_14h09.58.338,Main,2022.1.1,60.0013560306033,
neutral,negative,2,k,k,,,,,,,,,10,0,180,16,,,,,,,,,,,,,,,,,,,,,,,,main,2,2,2,negative,neutral,k,k,1,0.6280895000004421,476.73415019999993,477.75258010000016,477.73056650000035,None,476.73415019999993,None,476.73415019999993,None,476.73415019999993,None,478.33769007000035,None,478.33769007000035,None,478.33769007000035,None,,,,,,,,,,,220,24,Female,2022-05-20_14h09.58.338,Main,2022.1.1,60.0013560306033,
positive,neutral,2,l,j,,,,,,,,,10,1,181,17,,,,,,,,,,,,,,,,,,,,,,,,main,1,1,2,neutral,positive,l,l,1,0.749011899999914,478.36282800000026,479.3815179000003,479.36048830000027,None,478.36282800000026,None,478.36282800000026,None,478.36282800000026,None,480.09011847,None,480.09011847,None,480.09011847,None,,,,,,,,,,,220,24,Female,2022-05-20_14h09.58.338,Main,2022.1.1,60.0013560306033,
positive,negative,1,l,j,,,,,,,,,10,2,182,5,,,,,,,,,,,,,,,,,,,,,,,,main,1,1,1,negative,positive,l,l,1,0.756012599999849,480.11901830000033,481.14020329999994,481.10022070000014,None,480.11901830000033,None,480.11901830000033,None,480.11901830000033,None,481.8495818700002,None,481.8495818700002,None,481.8495818700002,None,,,,,,,,,,,220,24,Female,2022-05-20_14h09.58.338,Main,2022.1.1,60.0013560306033,
neutral,neutral,2,k,k,,,,,,,,,10,3,183,10,,,,,,,,,,,,,,,,,,,,,,,,main,2,2,2,neutral,neutral,k,k,1,0.7135837999999239,481.87666320000017,482.88599750000003,482.86430870000004,None,481.87666320000017,None,481.87666320000017,None,481.87666320000017,None,483.5662084700001,None,483.5662084700001,None,483.5662084700001,None,,,,,,,,,,,220,24,Female,2022-05-20_14h09.58.338,Main,2022.1.1,60.0013560306033,
negative,negative,2,j,l,,,,,,,,,10,4,184,9,,,,,,,,,,,,,,,,,,,,,,,,main,2,2,2,negative,negative,j,j,1,0.7694593000001078,483.59783000000016,484.6221902000002,484.58001300000024,None,483.59783000000016,None,483.59783000000016,None,483.59783000000016,None,485.3374650700001,None,485.3374650700001,None,485.3374650700001,None,,,,,,,,,,,220,24,Female,2022-05-20_14h09.58.338,Main,2022.1.1,60.0013560306033,
neutral,negative,1,k,k,,,,,,,,,10,5,185,7,,,,,,,,,,,,,,,,,,,,,,,,main,2,2,1,negative,neutral,k,k,1,0.6416767999999138,485.3621158000001,486.3743664000003,486.3527680000002,None,485.3621158000001,None,485.3621158000001,None,485.3621158000001,None,486.9963955400001,None,486.9963955400001,None,486.9963955400001,None,,,,,,,,,,,220,24,Female,2022-05-20_14h09.58.338,Main,2022.1.1,60.0013560306033,
negative,neutral,2,j,l,,,,,,,,,10,6,186,12,,,,,,,,,,,,,,,,,,,,,,,,main,1,1,2,neutral,negative,j,j,1,0.8195940000000519,487.0080336000001,488.01436760000024,487.9923252000003,None,487.0080336000001,None,487.0080336000001,None,487.0080336000001,None,488.80764227,None,488.80764227,None,488.80764227,None,,,,,,,,,,,220,24,Female,2022-05-20_14h09.58.338,Main,2022.1.1,60.0013560306033,
neutral,positive,2,k,k,,,,,,,,,10,7,187,13,,,,,,,,,,,,,,,,,,,,,,,,main,2,2,2,positive,neutral,k,k,1,0.8272344000001794,488.8343749999999,489.8522478,489.8086476000003,None,488.8343749999999,None,488.8343749999999,None,488.8343749999999,None,490.63510667000025,None,490.63510667000025,None,490.63510667000025,None,,,,,,,,,,,220,24,Female,2022-05-20_14h09.58.338,Main,2022.1.1,60.0013560306033,
neutral,positive,1,k,k,,,,,,,,,10,8,188,4,,,,,,,,,,,,,,,,,,,,,,,,main,2,2,1,positive,neutral,k,k,1,0.9315302999998494,490.66511040000023,491.6844712000002,491.64375689999997,None,490.66511040000023,None,490.66511040000023,None,490.66511040000023,None,492.56920037,None,492.56920037,None,492.56920037,None,,,,,,,,,,,220,24,Female,2022-05-20_14h09.58.338,Main,2022.1.1,60.0013560306033,
positive,positive,2,l,j,,,,,,,,,10,9,189,11,,,,,,,,,,,,,,,,,,,,,,,,main,2,2,2,positive,positive,l,l,1,0.6859650999999758,492.5946131999999,493.60513820000006,493.58384849999993,None,492.5946131999999,None,492.5946131999999,None,492.5946131999999,None,494.2579835700002,None,494.2579835700002,None,494.2579835700002,None,,,,,,,,,,,220,24,Female,2022-05-20_14h09.58.338,Main,2022.1.1,60.0013560306033,
neutral,neutral,1,k,k,,,,,,,,,10,10,190,1,,,,,,,,,,,,,,,,,,,,,,,,main,2,2,1,neutral,neutral,k,k,1,0.6272844000000077,494.28588179999997,495.3081731000002,495.26779380000016,None,494.28588179999997,None,494.28588179999997,None,494.28588179999997,None,495.8933322700003,None,495.8933322700003,None,495.8933322700003,None,,,,,,,,,,,220,24,Female,2022-05-20_14h09.58.338,Main,2022.1.1,60.0013560306033,
positive,negative,2,l,j,,,,,,,,,10,11,191,14,,,,,,,,,,,,,,,,,,,,,,,,main,1,1,2,negative,positive,l,l,1,0.7009094000000005,495.92097300000023,496.9280997000001,496.9055105000002,None,495.92097300000023,None,495.92097300000023,None,495.92097300000023,None,497.5950505700001,None,497.5950505700001,None,497.5950505700001,None,,,,,,,,,,,220,24,Female,2022-05-20_14h09.58.338,Main,2022.1.1,60.0013560306033,
positive,positive,1,l,j,,,,,,,,,10,12,192,2,,,,,,,,,,,,,,,,,,,,,,,,main,1,1,1,positive,positive,l,l,1,0.787447599999723,497.6243158000002,498.63016500000003,498.6109799999999,None,497.6243158000002,None,497.6243158000002,None,497.6243158000002,None,499.38463627,None,499.38463627,None,499.38463627,None,,,,,,,,,,,220,24,Female,2022-05-20_14h09.58.338,Main,2022.1.1,60.0013560306033,
negative,negative,1,j,l,,,,,,,,,10,13,193,0,,,,,,,,,,,,,,,,,,,,,,,,main,2,2,1,negative,negative,j,j,1,0.6979060000003301,499.41319680000015,500.4248548999999,500.4049276999999,None,499.41319680000015,None,499.41319680000015,None,499.41319680000015,None,501.08967837000034,None,501.08967837000034,None,501.08967837000034,None,,,,,,,,,,,220,24,Female,2022-05-20_14h09.58.338,Main,2022.1.1,60.0013560306033,
negative,positive,2,j,l,,,,,,,,,10,14,194,15,,,,,,,,,,,,,,,,,,,,,,,,main,1,1,2,positive,negative,j,j,1,0.7277157999997144,501.11471140000003,502.1330186,502.11278330000005,None,501.11471140000003,None,501.11471140000003,None,501.11471140000003,None,502.8181038700003,None,502.8181038700003,None,502.8181038700003,None,,,,,,,,,,,220,24,Female,2022-05-20_14h09.58.338,Main,2022.1.1,60.0013560306033,
negative,positive,1,j,l,,,,,,,,,10,15,195,6,,,,,,,,,,,,,,,,,,,,,,,,main,1,1,1,positive,negative,j,j,1,0.7058295000001635,502.8437159,503.84984600000007,503.82924920000005,None,502.8437159,None,502.8437159,None,502.8437159,None,504.52690186999996,None,504.52690186999996,None,504.52690186999996,None,,,,,,,,,,,220,24,Female,2022-05-20_14h09.58.338,Main,2022.1.1,60.0013560306033,
positive,neutral,1,l,j,,,,,,,,,10,16,196,8,,,,,,,,,,,,,,,,,,,,,,,,main,1,1,1,neutral,positive,l,l,1,0.7859690000000228,504.5608381000002,505.5828451000002,505.5412553000001,None,504.5608381000002,None,504.5608381000002,None,504.5608381000002,None,506.3177911700003,None,506.3177911700003,None,506.3177911700003,None,,,,,,,,,,,220,24,Female,2022-05-20_14h09.58.338,Main,2022.1.1,60.0013560306033,
negative,neutral,1,j,l,,,,,,,,,10,17,197,3,,,,,,,,,,,,,,,,,,,,,,,,main,1,1,1,neutral,negative,j,j,1,1.3020151000000624,506.3427793999999,507.3623536,507.3201329000003,None,506.3427793999999,None,506.3427793999999,None,506.3427793999999,None,508.6241091700002,None,508.6241091700002,None,508.6241091700002,None,,,,,,,,,,,220,24,Female,2022-05-20_14h09.58.338,Main,2022.1.1,60.0013560306033,
negative,positive,1,j,l,,,,,,,,,11,0,198,6,,,,,,,,,,,,,,,,,,,,,,,,main,1,1,1,positive,negative,j,j,1,0.8466820000003281,508.6512117000002,509.66267289999996,509.6399257000003,None,508.6512117000002,None,508.6512117000002,None,508.6512117000002,None,510.4752618700003,None,510.4752618700003,None,510.4752618700003,None,,,,,,,,,,,220,24,Female,2022-05-20_14h09.58.338,Main,2022.1.1,60.0013560306033,
negative,positive,2,j,l,,,,,,,,,11,1,199,15,,,,,,,,,,,,,,,,,,,,,,,,main,1,1,2,positive,negative,j,j,1,0.765642200000002,510.4996709000002,511.5125928000002,511.49201429999994,None,510.4996709000002,None,510.4996709000002,None,510.4996709000002,None,512.2444582700003,None,512.2444582700003,None,512.2444582700003,None,,,,,,,,,,,220,24,Female,2022-05-20_14h09.58.338,Main,2022.1.1,60.0013560306033,
positive,negative,2,l,j,,,,,,,,,11,2,200,14,,,,,,,,,,,,,,,,,,,,,,,,main,2,2,2,negative,positive,l,l,1,0.7500537999999324,512.2688520000002,513.2810579000002,513.2424197,None,512.2688520000002,None,512.2688520000002,None,512.2688520000002,None,513.9966752700001,None,513.9966752700001,None,513.9966752700001,None,,,,,,,,,,,220,24,Female,2022-05-20_14h09.58.338,Main,2022.1.1,60.0013560306033,
positive,neutral,2,l,j,,,,,,,,,11,3,201,17,,,,,,,,,,,,,,,,,,,,,,,,main,2,2,2,neutral,positive,l,l,1,0.6334053999999014,514.0265069000002,515.0525233000003,515.0080170000001,None,514.0265069000002,None,514.0265069000002,None,514.0265069000002,None,515.6370043700002,None,515.6370043700002,None,515.6370043700002,None,,,,,,,,,,,220,24,Female,2022-05-20_14h09.58.338,Main,2022.1.1,60.0013560306033,
positive,negative,1,l,j,,,,,,,,,11,4,202,5,,,,,,,,,,,,,,,,,,,,,,,,main,2,2,1,negative,positive,l,l,1,0.6773844000003919,515.6580725000003,516.6623101,516.6408209000001,None,515.6580725000003,None,515.6580725000003,None,515.6580725000003,None,517.3125705700003,None,517.3125705700003,None,517.3125705700003,None,,,,,,,,,,,220,24,Female,2022-05-20_14h09.58.338,Main,2022.1.1,60.0013560306033,
positive,neutral,1,l,j,,,,,,,,,11,5,203,8,,,,,,,,,,,,,,,,,,,,,,,,main,1,1,1,neutral,positive,l,l,1,0.6992892000002939,517.3441372000002,518.3650121000001,518.3237246000003,None,517.3441372000002,None,517.3441372000002,None,517.3441372000002,None,519.0159982700001,None,519.0159982700001,None,519.0159982700001,None,,,,,,,,,,,220,24,Female,2022-05-20_14h09.58.338,Main,2022.1.1,60.0013560306033,
neutral,negative,1,k,k,,,,,,,,,11,6,204,7,,,,,,,,,,,,,,,,,,,,,,,,main,2,2,1,negative,neutral,k,k,1,0.5750459000000774,519.0402776000001,520.0649819,520.0201380000003,None,519.0402776000001,None,519.0402776000001,None,519.0402776000001,None,520.59446487,None,520.59446487,None,520.59446487,None,,,,,,,,,,,220,24,Female,2022-05-20_14h09.58.338,Main,2022.1.1,60.0013560306033,
neutral,positive,2,k,k,,,,,,,,,11,7,205,13,,,,,,,,,,,,,,,,,,,,,,,,main,1,1,2,positive,neutral,k,k,1,1.8571379999998499,520.6263458000003,521.6363027000002,521.6145098000002,None,520.6263458000003,None,520.6263458000003,None,520.6263458000003,None,523.4676444000002,None,523.4676444000002,None,523.4676444000002,None,,,,,,,,,,,220,24,Female,2022-05-20_14h09.58.338,Main,2022.1.1,60.0013560306033,
neutral,neutral,1,k,k,,,,,,,,,11,8,206,1,,,,,,,,,,,,,,,,,,,,,,,,main,2,2,1,neutral,neutral,k,k,1,0.6693490999996357,524.4900892999999,525.4965222000001,525.4749716000001,None,524.4900892999999,None,524.4900892999999,None,524.4900892999999,None,526.1332290700001,None,526.1332290700001,None,526.1332290700001,None,,,,,,,,,,,220,24,Female,2022-05-20_14h09.58.338,Main,2022.1.1,60.0013560306033,
positive,positive,2,l,j,,,,,,,,,11,9,207,11,,,,,,,,,,,,,,,,,,,,,,,,main,1,1,2,positive,positive,l,l,1,0.736052600000221,526.1580627000003,527.1754715000002,527.1538025,None,526.1580627000003,None,526.1580627000003,None,526.1580627000003,None,527.8712808700001,None,527.8712808700001,None,527.8712808700001,None,,,,,,,,,,,220,24,Female,2022-05-20_14h09.58.338,Main,2022.1.1,60.0013560306033,
neutral,positive,1,k,k,,,,,,,,,11,10,208,4,,,,,,,,,,,,,,,,,,,,,,,,main,1,1,1,positive,neutral,k,k,1,0.6516145000000506,527.9042704000003,528.9140234000001,528.8915713000001,None,527.9042704000003,None,527.9042704000003,None,527.9042704000003,None,529.5284826700002,None,529.5284826700002,None,529.5284826700002,None,,,,,,,,,,,220,24,Female,2022-05-20_14h09.58.338,Main,2022.1.1,60.0013560306033,
positive,positive,1,l,j,,,,,,,,,11,11,209,2,,,,,,,,,,,,,,,,,,,,,,,,main,2,2,1,positive,positive,l,l,1,0.8715057999997953,529.5532673000002,530.5651772000001,530.5444081,None,529.5532673000002,None,529.5532673000002,None,529.5532673000002,None,531.4050153700003,None,531.4050153700003,None,531.4050153700003,None,,,,,,,,,,,220,24,Female,2022-05-20_14h09.58.338,Main,2022.1.1,60.0013560306033,
neutral,neutral,2,k,k,,,,,,,,,11,12,210,10,,,,,,,,,,,,,,,,,,,,,,,,main,2,2,2,neutral,neutral,k,k,1,0.671498000000156,531.4335248000002,532.4466630000002,532.4264382000001,None,531.4335248000002,None,531.4335248000002,None,531.4335248000002,None,533.07649837,None,533.07649837,None,533.07649837,None,,,,,,,,,,,220,24,Female,2022-05-20_14h09.58.338,Main,2022.1.1,60.0013560306033,
negative,negative,1,j,l,,,,,,,,,11,13,211,0,,,,,,,,,,,,,,,,,,,,,,,,main,1,1,1,negative,negative,j,j,1,0.538263200000074,533.1043356,534.1206136999999,534.0990532000001,None,533.1043356,None,533.1043356,None,533.1043356,None,534.62325017,None,534.62325017,None,534.62325017,None,,,,,,,,,,,220,24,Female,2022-05-20_14h09.58.338,Main,2022.1.1,60.0013560306033,
