target,distractor,set,ans1,ans2,rep_loop2.thisRepN,rep_loop2.thisTrialN,rep_loop2.thisN,rep_loop2.thisIndex,flanker_prac_loop.thisRepN,flanker_prac_loop.thisTrialN,flanker_prac_loop.thisN,flanker_prac_loop.thisIndex,flanker_main_loop.thisRepN,flanker_main_loop.thisTrialN,flanker_main_loop.thisN,flanker_main_loop.thisIndex,fl_inst_resp.keys,mouse.x,mouse.y,mouse.leftButton,mouse.midButton,mouse.rightButton,mouse.started,mouse.stopped,sound_1.started,sound_1.stopped,no_text.started,no_text.stopped,yes_text.started,yes_text.stopped,mouse_2.x,mouse_2.y,mouse_2.leftButton,mouse_2.midButton,mouse_2.rightButton,mouse_2.started,mouse_2.stopped,back_2.started,back_2.stopped,main_prac,fl_cold,fl_colt,fl_set,fl_dcond,fl_tcond,fl_ans,fl_res,fl_corr,fl_rt,fix_fl.started,fix_fl.stopped,targ.started,targ.stopped,j_button.started,j_button.stopped,k_button.started,k_button.stopped,l_button.started,l_button.stopped,j_button2.started,j_button2.stopped,k_button2.started,k_button2.stopped,l_button2.started,l_button2.stopped,mainback.started,mainback.stopped,key_resp.keys,mouse_6.x,mouse_6.y,mouse_6.leftButton,mouse_6.midButton,mouse_6.rightButton,mouse_6.started,mouse_6.stopped,id*,age*,gender*,date,expName,psychopyVersion,frameRate,
,,,,,0,0,0,0,,,,,,,,,None,0.022222223,-0.39814815,0,0,0,1.0082332000438328,None,22.397334350000346,None,78.29283319999922,None,78.29283319999922,None,-0.098148145,-0.09166667,0,0,0,0.0125390499997593,None,,,,,,,,,,,,,,,,,,,,,,,,,,,,,,,,,,,,,,,221,25,Male,2022-05-20_15h54.06.117,Main,2022.1.1,60.03478415387687,
positive,positive,2,l,j,,,,,0,0,0,11,,,,,,,,,,,,,,,,,,,,,,,,,,82.15632600000026,None,prac,2,2,2,positive,positive,j,j,1,3.3026309000015317,84.19101219999902,85.20028499999898,85.18122159999984,None,84.19101219999902,None,84.19101219999902,None,84.19101219999902,None,88.4892689999997,None,88.4892689999997,None,88.4892689999997,None,,,,,,,,,,,221,25,Male,2022-05-20_15h54.06.117,Main,2022.1.1,60.03478415387687,
negative,negative,2,j,l,,,,,0,1,1,9,,,,,,,,,,,,,,,,,,,,,,,,,,,,prac,1,1,2,negative,negative,l,l,1,1.4766989999989164,89.50961970000026,90.52338039999995,90.4836548000003,None,89.50961970000026,None,89.50961970000026,None,89.50961970000026,None,91.95914724999984,None,91.95914724999984,None,91.95914724999984,None,,,,,,,,,,,221,25,Male,2022-05-20_15h54.06.117,Main,2022.1.1,60.03478415387687,
positive,negative,2,l,j,,,,,0,2,2,14,,,,,,,,,,,,,,,,,,,,,,,,,,,,prac,1,1,2,negative,positive,j,j,1,1.1003982000001997,91.9878764999994,92.99567019999995,92.97626729999865,None,91.9878764999994,None,91.9878764999994,None,91.9878764999994,None,94.06233074999928,None,94.06233074999928,None,94.06233074999928,None,,,,,,,,,,,221,25,Male,2022-05-20_15h54.06.117,Main,2022.1.1,60.03478415387687,
neutral,positive,1,k,k,,,,,0,3,3,4,,,,,,,,,,,,,,,,,,,,,,,,,,,,prac,2,2,1,positive,neutral,k,k,1,0.8143718000010267,94.09435809999923,95.10394509999969,95.08469960000002,None,94.09435809999923,None,94.09435809999923,None,94.09435809999923,None,95.87888454999866,None,95.87888454999866,None,95.87888454999866,None,,,,,,,,,,,221,25,Male,2022-05-20_15h54.06.117,Main,2022.1.1,60.03478415387687,
negative,neutral,1,j,l,,,,,0,4,4,3,,,,,,,,,,,,,,,,,,,,,,,,,,,,prac,2,2,1,neutral,negative,l,l,1,0.9875740000006772,95.90566190000027,96.91741369999909,96.89842409999983,None,95.90566190000027,None,95.90566190000027,None,95.90566190000027,None,97.87041605000032,None,97.87041605000032,None,97.87041605000032,None,,,,,,,,,,,221,25,Male,2022-05-20_15h54.06.117,Main,2022.1.1,60.03478415387687,
neutral,neutral,2,k,k,,,,,0,5,5,10,,,,,,,,,,,,,,,,,,,,,,,,,,,,prac,2,2,2,neutral,neutral,k,k,1,0.9139989000013884,97.89793169999939,98.9091472,98.8894810999991,None,97.89793169999939,None,97.89793169999939,None,97.89793169999939,None,99.78324984999945,None,99.78324984999945,None,99.78324984999945,None,,,,,,,,,,,221,25,Male,2022-05-20_15h54.06.117,Main,2022.1.1,60.03478415387687,
neutral,negative,2,k,k,,,,,0,6,6,16,,,,,,,,,,,,,,,,,,,,,,,,,,,,prac,2,2,2,negative,neutral,k,k,1,0.7849351999993814,99.81276889999936,100.8328623999987,100.79480289999992,None,99.81276889999936,None,99.81276889999936,None,99.81276889999936,None,101.57363144999927,None,101.57363144999927,None,101.57363144999927,None,,,,,,,,,,,221,25,Male,2022-05-20_15h54.06.117,Main,2022.1.1,60.03478415387687,
neutral,positive,2,k,k,,,,,0,7,7,13,,,,,,,,,,,,,,,,,,,,,,,,,,,,prac,1,1,2,positive,neutral,k,k,1,0.8232647000004363,101.60201609999967,102.62285909999991,102.60323160000007,None,101.60201609999967,None,101.60201609999967,None,101.60201609999967,None,103.39935844999873,None,103.39935844999873,None,103.39935844999873,None,,,,,,,,,,,221,25,Male,2022-05-20_15h54.06.117,Main,2022.1.1,60.03478415387687,
negative,neutral,2,j,l,,,,,0,8,8,12,,,,,,,,,,,,,,,,,,,,,,,,,,,,prac,2,2,2,neutral,negative,l,l,1,1.6476731000002474,103.41923479999969,104.42845139999918,104.4086084999999,None,103.41923479999969,None,103.41923479999969,None,103.41923479999969,None,106.05493149999893,None,106.05493149999893,None,106.05493149999893,None,,,,,,,,,,,221,25,Male,2022-05-20_15h54.06.117,Main,2022.1.1,60.03478415387687,
negative,positive,1,j,l,,,,,0,9,9,6,,,,,,,,,,,,,,,,,,,,,,,,,,,,prac,2,2,1,positive,negative,l,l,1,0.8648118999990402,107.08116469999914,108.0833918999997,108.06463489999987,None,107.08116469999914,None,107.08116469999914,None,107.08116469999914,None,108.92561154999949,None,108.92561154999949,None,108.92561154999949,None,,,,,,,,,,,221,25,Male,2022-05-20_15h54.06.117,Main,2022.1.1,60.03478415387687,
positive,negative,1,l,j,,,,,0,10,10,5,,,,,,,,,,,,,,,,,,,,,,,,,,,,prac,2,2,1,negative,positive,j,j,1,0.9455070000003616,108.95367710000028,109.95597819999966,109.93639110000004,None,108.95367710000028,None,108.95367710000028,None,108.95367710000028,None,110.87398905000028,None,110.87398905000028,None,110.87398905000028,None,,,,,,,,,,,221,25,Male,2022-05-20_15h54.06.117,Main,2022.1.1,60.03478415387687,
positive,positive,1,l,j,,,,,0,11,11,2,,,,,,,,,,,,,,,,,,,,,,,,,,,,prac,1,1,1,positive,positive,j,j,1,0.934297300000253,110.9029129999999,111.91640019999977,111.89769949999936,None,110.9029129999999,None,110.9029129999999,None,110.9029129999999,None,112.81051674999999,None,112.81051674999999,None,112.81051674999999,None,,,,,,,,,,,221,25,Male,2022-05-20_15h54.06.117,Main,2022.1.1,60.03478415387687,
positive,neutral,1,l,j,,,,,0,12,12,8,,,,,,,,,,,,,,,,,,,,,,,,,,,,prac,1,1,1,neutral,positive,j,j,1,1.2849286000000575,112.84135349999997,113.84387669999887,113.82458909999878,None,112.84135349999997,None,112.84135349999997,None,112.84135349999997,None,115.09999234999869,None,115.09999234999869,None,115.09999234999869,None,,,,,,,,,,,221,25,Male,2022-05-20_15h54.06.117,Main,2022.1.1,60.03478415387687,
neutral,neutral,1,k,k,,,,,0,13,13,1,,,,,,,,,,,,,,,,,,,,,,,,,,,,prac,2,2,1,neutral,neutral,k,k,1,0.6091995000006136,115.12227489999896,116.12522309999986,116.10617529999945,None,115.12227489999896,None,115.12227489999896,None,115.12227489999896,None,116.70915964999968,None,116.70915964999968,None,116.70915964999968,None,,,,,,,,,,,221,25,Male,2022-05-20_15h54.06.117,Main,2022.1.1,60.03478415387687,
negative,positive,2,j,l,,,,,0,14,14,15,,,,,,,,,,,,,,,,,,,,,,,,,,,,prac,2,2,2,positive,negative,l,l,1,0.7918148999997356,116.73043009999856,117.74350839999897,117.72387109999909,None,116.73043009999856,None,116.73043009999856,None,116.73043009999856,None,118.5051599499986,None,118.5051599499986,None,118.5051599499986,None,,,,,,,,,,,221,25,Male,2022-05-20_15h54.06.117,Main,2022.1.1,60.03478415387687,
neutral,negative,1,k,k,,,,,0,15,15,7,,,,,,,,,,,,,,,,,,,,,,,,,,,,prac,2,2,1,negative,neutral,k,k,1,0.8246017000001302,118.52853099999993,119.53131269999903,119.5125666999993,None,118.52853099999993,None,118.52853099999993,None,118.52853099999993,None,120.33501364999957,None,120.33501364999957,None,120.33501364999957,None,,,,,,,,,,,221,25,Male,2022-05-20_15h54.06.117,Main,2022.1.1,60.03478415387687,
negative,negative,1,j,l,,,,,0,16,16,0,,,,,,,,,,,,,,,,,,,,,,,,,,,,prac,1,1,1,negative,negative,l,l,1,1.1508056000002398,120.36227099999996,121.38094269999965,121.34236760000022,None,120.36227099999996,None,120.36227099999996,None,120.36227099999996,None,122.48813894999894,None,122.48813894999894,None,122.48813894999894,None,,,,,,,,,,,221,25,Male,2022-05-20_15h54.06.117,Main,2022.1.1,60.03478415387687,
positive,neutral,2,l,j,,,,,0,17,17,17,,,,,,,,,,,,,,,,,,,,,,,,,,,,prac,1,1,2,neutral,positive,j,j,1,0.8674145000004501,122.5173648,123.51979889999893,123.50061159999859,None,122.5173648,None,122.5173648,None,122.5173648,None,124.35940954999951,None,124.35940954999951,None,124.35940954999951,None,,,,,,,,,,,221,25,Male,2022-05-20_15h54.06.117,Main,2022.1.1,60.03478415387687,
negative,negative,1,j,l,,,,,1,0,18,0,,,,,,,,,,,,,,,,,,,,,,,,,,,,prac,1,1,1,negative,negative,l,l,1,0.855144700000892,124.38001459999941,125.40115839999999,125.36192909999954,None,124.38001459999941,None,124.38001459999941,None,124.38001459999941,None,126.21855114999944,None,126.21855114999944,None,126.21855114999944,None,,,,,,,,,,,221,25,Male,2022-05-20_15h54.06.117,Main,2022.1.1,60.03478415387687,
neutral,neutral,2,k,k,,,,,1,1,19,10,,,,,,,,,,,,,,,,,,,,,,,,,,,,prac,2,2,2,neutral,neutral,k,k,1,0.8003793000007136,126.24127149999913,127.2454930999993,127.22630529999878,None,126.24127149999913,None,126.24127149999913,None,126.24127149999913,None,128.02337085000016,None,128.02337085000016,None,128.02337085000016,None,,,,,,,,,,,221,25,Male,2022-05-20_15h54.06.117,Main,2022.1.1,60.03478415387687,
negative,negative,2,j,l,,,,,1,2,20,9,,,,,,,,,,,,,,,,,,,,,,,,,,,,prac,2,2,2,negative,negative,l,l,1,0.9455847999997786,128.04335749999882,129.0631830000002,129.0225563999993,None,128.04335749999882,None,128.04335749999882,None,128.04335749999882,None,129.97078104999872,None,129.97078104999872,None,129.97078104999872,None,,,,,,,,,,,221,25,Male,2022-05-20_15h54.06.117,Main,2022.1.1,60.03478415387687,
negative,positive,2,j,l,,,,,1,3,21,15,,,,,,,,,,,,,,,,,,,,,,,,,,,,prac,2,2,2,positive,negative,l,l,1,0.7876470999999583,129.99230799999896,131.00036649999856,130.98127169999862,None,129.99230799999896,None,129.99230799999896,None,129.99230799999896,None,131.76073664999984,None,131.76073664999984,None,131.76073664999984,None,,,,,,,,,,,221,25,Male,2022-05-20_15h54.06.117,Main,2022.1.1,60.03478415387687,
neutral,neutral,1,k,k,,,,,1,4,22,1,,,,,,,,,,,,,,,,,,,,,,,,,,,,prac,2,2,1,neutral,neutral,k,k,1,0.780439899999692,131.7816254999998,132.78782479999973,132.76825889999964,None,131.7816254999998,None,131.7816254999998,None,131.7816254999998,None,133.54614324999983,None,133.54614324999983,None,133.54614324999983,None,,,,,,,,,,,221,25,Male,2022-05-20_15h54.06.117,Main,2022.1.1,60.03478415387687,
negative,neutral,2,j,l,,,,,1,5,23,12,,,,,,,,,,,,,,,,,,,,,,,,,,,,prac,2,2,2,neutral,negative,l,l,1,0.8662583000004815,133.56563099999948,134.5773369999988,134.53944729999967,None,133.56563099999948,None,133.56563099999948,None,133.56563099999948,None,135.41400554999944,None,135.41400554999944,None,135.41400554999944,None,,,,,,,,,,,221,25,Male,2022-05-20_15h54.06.117,Main,2022.1.1,60.03478415387687,
neutral,negative,2,k,k,,,,,1,6,24,16,,,,,,,,,,,,,,,,,,,,,,,,,,,,prac,2,2,2,negative,neutral,k,k,1,0.842627199999697,135.43411639999977,136.44486099999995,136.42414859999917,None,135.43411639999977,None,135.43411639999977,None,135.43411639999977,None,137.25678644999988,None,137.25678644999988,None,137.25678644999988,None,,,,,,,,,,,221,25,Male,2022-05-20_15h54.06.117,Main,2022.1.1,60.03478415387687,
neutral,negative,1,k,k,,,,,1,7,25,7,,,,,,,,,,,,,,,,,,,,,,,,,,,,prac,1,1,1,negative,neutral,k,k,1,0.7077260000005481,137.27805420000004,138.28839869999865,138.26866840000002,None,137.27805420000004,None,137.27805420000004,None,137.27805420000004,None,138.96919154999904,None,138.96919154999904,None,138.96919154999904,None,,,,,,,,,,,221,25,Male,2022-05-20_15h54.06.117,Main,2022.1.1,60.03478415387687,
neutral,positive,1,k,k,,,,,1,8,26,4,,,,,,,,,,,,,,,,,,,,,,,,,,,,prac,2,2,1,positive,neutral,k,k,1,0.6391325000004144,138.9929618999995,140.00330269999904,139.96392409999862,None,138.9929618999995,None,138.9929618999995,None,138.9929618999995,None,140.61258395000021,None,140.61258395000021,None,140.61258395000021,None,,,,,,,,,,,221,25,Male,2022-05-20_15h54.06.117,Main,2022.1.1,60.03478415387687,
positive,positive,1,l,j,,,,,1,9,27,2,,,,,,,,,,,,,,,,,,,,,,,,,,,,prac,1,1,1,positive,positive,j,j,1,0.6815373999997973,140.63227799999913,141.63464269999895,141.6152887999997,None,140.63227799999913,None,140.63227799999913,None,140.63227799999913,None,142.2960755499991,None,142.2960755499991,None,142.2960755499991,None,,,,,,,,,,,221,25,Male,2022-05-20_15h54.06.117,Main,2022.1.1,60.03478415387687,
positive,positive,2,l,j,,,,,1,10,28,11,,,,,,,,,,,,,,,,,,,,,,,,,,,,prac,2,2,2,positive,positive,j,j,1,0.9111434999995254,142.31669449999936,143.32929890000014,143.2914454999991,None,142.31669449999936,None,142.31669449999936,None,142.31669449999936,None,144.2074524499987,None,144.2074524499987,None,144.2074524499987,None,,,,,,,,,,,221,25,Male,2022-05-20_15h54.06.117,Main,2022.1.1,60.03478415387687,
positive,neutral,2,l,j,,,,,1,11,29,17,,,,,,,,,,,,,,,,,,,,,,,,,,,,prac,1,1,2,neutral,positive,j,j,1,0.7269307999995362,144.22766499999852,145.23702479999884,145.2182868,None,144.22766499999852,None,144.22766499999852,None,144.22766499999852,None,145.9364631499995,None,145.9364631499995,None,145.9364631499995,None,,,,,,,,,,,221,25,Male,2022-05-20_15h54.06.117,Main,2022.1.1,60.03478415387687,
positive,negative,2,l,j,,,,,1,12,30,14,,,,,,,,,,,,,,,,,,,,,,,,,,,,prac,2,2,2,negative,positive,j,j,1,0.721841200000199,145.95713559999967,146.9667445999985,146.94701689999965,None,145.95713559999967,None,145.95713559999967,None,145.95713559999967,None,147.6627912499991,None,147.6627912499991,None,147.6627912499991,None,,,,,,,,,,,221,25,Male,2022-05-20_15h54.06.117,Main,2022.1.1,60.03478415387687,
positive,neutral,1,l,j,,,,,1,13,31,8,,,,,,,,,,,,,,,,,,,,,,,,,,,,prac,1,1,1,neutral,positive,j,l,0,1.1021996999988914,147.68277219999982,148.686228999999,148.6663267999993,None,147.68277219999982,None,147.68277219999982,None,147.68277219999982,None,149.7817742999996,None,149.7817742999996,None,149.7817742999996,None,,,,,,,,,,,221,25,Male,2022-05-20_15h54.06.117,Main,2022.1.1,60.03478415387687,
negative,positive,1,j,l,,,,,1,14,32,6,,,,,,,,,,,,,,,,,,,,,,,,,,,,prac,1,1,1,positive,negative,l,l,1,0.9905983999997261,150.80934009999874,151.82697609999923,151.78882469999917,None,150.80934009999874,None,150.80934009999874,None,150.80934009999874,None,152.78107444999858,None,152.78107444999858,None,152.78107444999858,None,,,,,,,,,,,221,25,Male,2022-05-20_15h54.06.117,Main,2022.1.1,60.03478415387687,
negative,neutral,1,j,l,,,,,1,15,33,3,,,,,,,,,,,,,,,,,,,,,,,,,,,,prac,2,2,1,neutral,negative,l,l,1,1.0462310999992042,152.8038644999997,153.82033599999886,153.7810671999996,None,152.8038644999997,None,152.8038644999997,None,152.8038644999997,None,154.8311468499998,None,154.8311468499998,None,154.8311468499998,None,,,,,,,,,,,221,25,Male,2022-05-20_15h54.06.117,Main,2022.1.1,60.03478415387687,
positive,negative,1,l,j,,,,,1,16,34,5,,,,,,,,,,,,,,,,,,,,,,,,,,,,prac,2,2,1,negative,positive,j,j,1,0.802113300000201,154.85171489999993,155.87086060000001,155.83353969999916,None,154.85171489999993,None,154.85171489999993,None,154.85171489999993,None,156.63468775000018,None,156.63468775000018,None,156.63468775000018,None,,,,,,,,,,,221,25,Male,2022-05-20_15h54.06.117,Main,2022.1.1,60.03478415387687,
neutral,positive,2,k,k,,,,,1,17,35,13,,,,,,,,,,,,,,,,,,,,,,,,,,,,prac,2,2,2,positive,neutral,k,k,1,0.7026229000002786,156.65627849999873,157.67577399999936,157.63566720000017,None,156.65627849999873,None,156.65627849999873,None,156.65627849999873,None,158.33904914999965,None,158.33904914999965,None,158.33904914999965,None,,,,,,,,,,,221,25,Male,2022-05-20_15h54.06.117,Main,2022.1.1,60.03478415387687,
,,,,,,,,,,,,,,,,,,,,,,,,,,,,,,,,,,,,,,,,,,,,,,,,,,,,,,,,,,,,,,,,,,158.3456755999996,None,None,,,,,,,,221,25,Male,2022-05-20_15h54.06.117,Main,2022.1.1,60.03478415387687,
,,,,,,,,,,,,,,,,,,,,,,,,,,,,,,,,,,,,,,,,,,,,,,,,,,,,,,,,,,,,,,,,,,,,,0.03425926,-0.14166667,1,0,0,0.004134150000027148,None,221,25,Male,2022-05-20_15h54.06.117,Main,2022.1.1,60.03478415387687,
positive,neutral,2,l,j,,,,,,,,,0,0,0,17,,,,,,,,,,,,,,,,,,,,,,162.7629264999996,None,main,1,1,2,neutral,positive,j,j,1,0.9996635999996215,164.781457699999,165.79373419999865,165.7551126999988,None,164.781457699999,None,164.781457699999,None,164.781457699999,None,166.76316194999907,None,166.76316194999907,None,166.76316194999907,None,,,,,,,,,,,221,25,Male,2022-05-20_15h54.06.117,Main,2022.1.1,60.03478415387687,
negative,negative,2,j,l,,,,,,,,,0,1,1,9,,,,,,,,,,,,,,,,,,,,,,,,main,1,1,2,negative,negative,l,l,1,0.8770905999990646,166.78603459999977,167.79480409999996,167.7752146999992,None,166.78603459999977,None,166.78603459999977,None,166.78603459999977,None,168.64553444999927,None,168.64553444999927,None,168.64553444999927,None,,,,,,,,,,,221,25,Male,2022-05-20_15h54.06.117,Main,2022.1.1,60.03478415387687,
neutral,positive,2,k,k,,,,,,,,,0,2,2,13,,,,,,,,,,,,,,,,,,,,,,,,main,1,1,2,positive,neutral,k,k,1,0.8106228000015108,168.66656729999886,169.6784747999991,169.65949790000013,None,168.66656729999886,None,168.66656729999886,None,168.66656729999886,None,170.4587105499997,None,170.4587105499997,None,170.4587105499997,None,,,,,,,,,,,221,25,Male,2022-05-20_15h54.06.117,Main,2022.1.1,60.03478415387687,
positive,neutral,1,l,j,,,,,,,,,0,3,3,8,,,,,,,,,,,,,,,,,,,,,,,,main,2,2,1,neutral,positive,j,j,1,0.8463799000001018,170.4817691999997,171.49507579999954,171.45660719999978,None,170.4817691999997,None,170.4817691999997,None,170.4817691999997,None,172.30815984999953,None,172.30815984999953,None,172.30815984999953,None,,,,,,,,,,,221,25,Male,2022-05-20_15h54.06.117,Main,2022.1.1,60.03478415387687,
negative,positive,1,j,l,,,,,,,,,0,4,4,6,,,,,,,,,,,,,,,,,,,,,,,,main,2,2,1,positive,negative,l,l,1,0.8481021000006876,172.32924149999963,173.33674599999904,173.31770069999948,None,172.32924149999963,None,172.32924149999963,None,172.32924149999963,None,174.15659474999865,None,174.15659474999865,None,174.15659474999865,None,,,,,,,,,,,221,25,Male,2022-05-20_15h54.06.117,Main,2022.1.1,60.03478415387687,
positive,positive,1,l,j,,,,,,,,,0,5,5,2,,,,,,,,,,,,,,,,,,,,,,,,main,1,1,1,positive,positive,j,j,1,0.8632491000007576,174.17974559999857,175.1999825999992,175.1616772999987,None,174.17974559999857,None,174.17974559999857,None,174.17974559999857,None,176.02077124999977,None,176.02077124999977,None,176.02077124999977,None,,,,,,,,,,,221,25,Male,2022-05-20_15h54.06.117,Main,2022.1.1,60.03478415387687,
negative,negative,1,j,l,,,,,,,,,0,6,6,0,,,,,,,,,,,,,,,,,,,,,,,,main,2,2,1,negative,negative,l,l,1,0.7354575999997905,176.04597509999985,177.05634610000016,177.03700039999967,None,176.04597509999985,None,176.04597509999985,None,176.04597509999985,None,177.76232604999876,None,177.76232604999876,None,177.76232604999876,None,,,,,,,,,,,221,25,Male,2022-05-20_15h54.06.117,Main,2022.1.1,60.03478415387687,
positive,negative,2,l,j,,,,,,,,,0,7,7,14,,,,,,,,,,,,,,,,,,,,,,,,main,1,1,2,negative,positive,j,j,1,0.7904651999997441,177.7838525999996,178.79488630000014,178.75679799999853,None,177.7838525999996,None,177.7838525999996,None,177.7838525999996,None,179.55332364999975,None,179.55332364999975,None,179.55332364999975,None,,,,,,,,,,,221,25,Male,2022-05-20_15h54.06.117,Main,2022.1.1,60.03478415387687,
positive,positive,2,l,j,,,,,,,,,0,8,8,11,,,,,,,,,,,,,,,,,,,,,,,,main,1,1,2,positive,positive,j,j,1,0.7281659000000218,179.57431339999857,180.58416889999899,180.5651610999994,None,179.57431339999857,None,179.57431339999857,None,179.57431339999857,None,181.28407174999865,None,181.28407174999865,None,181.28407174999865,None,,,,,,,,,,,221,25,Male,2022-05-20_15h54.06.117,Main,2022.1.1,60.03478415387687,
neutral,negative,2,k,k,,,,,,,,,0,9,9,16,,,,,,,,,,,,,,,,,,,,,,,,main,1,1,2,negative,neutral,k,k,1,0.7583816000005754,181.30680179999945,182.31102349999856,182.2915985999989,None,181.30680179999945,None,181.30680179999945,None,181.30680179999945,None,183.04762295000018,None,183.04762295000018,None,183.04762295000018,None,,,,,,,,,,,221,25,Male,2022-05-20_15h54.06.117,Main,2022.1.1,60.03478415387687,
neutral,positive,1,k,k,,,,,,,,,0,10,10,4,,,,,,,,,,,,,,,,,,,,,,,,main,1,1,1,positive,neutral,k,k,1,1.1641775999996753,183.06938119999904,184.0821505999993,184.04290629999923,None,183.06938119999904,None,183.06938119999904,None,183.06938119999904,None,185.21460334999955,None,185.21460334999955,None,185.21460334999955,None,,,,,,,,,,,221,25,Male,2022-05-20_15h54.06.117,Main,2022.1.1,60.03478415387687,
neutral,negative,1,k,k,,,,,,,,,0,11,11,7,,,,,,,,,,,,,,,,,,,,,,,,main,2,2,1,negative,neutral,k,k,1,0.7810852000002342,185.23560759999964,186.23731829999997,186.21820209999896,None,185.23560759999964,None,185.23560759999964,None,185.23560759999964,None,186.9981545499997,None,186.9981545499997,None,186.9981545499997,None,,,,,,,,,,,221,25,Male,2022-05-20_15h54.06.117,Main,2022.1.1,60.03478415387687,
negative,neutral,2,j,l,,,,,,,,,0,12,12,12,,,,,,,,,,,,,,,,,,,,,,,,main,1,1,2,neutral,negative,l,l,1,0.7989500000003318,187.01958699999886,188.02850719999878,188.00877339999897,None,187.01958699999886,None,187.01958699999886,None,187.01958699999886,None,188.7998646500002,None,188.7998646500002,None,188.7998646500002,None,,,,,,,,,,,221,25,Male,2022-05-20_15h54.06.117,Main,2022.1.1,60.03478415387687,
neutral,neutral,2,k,k,,,,,,,,,0,13,13,10,,,,,,,,,,,,,,,,,,,,,,,,main,2,2,2,neutral,neutral,k,k,1,0.7838073999992048,188.8229623999996,189.84206660000018,189.80306070000006,None,188.8229623999996,None,188.8229623999996,None,188.8229623999996,None,190.58536784999905,None,190.58536784999905,None,190.58536784999905,None,,,,,,,,,,,221,25,Male,2022-05-20_15h54.06.117,Main,2022.1.1,60.03478415387687,
positive,negative,1,l,j,,,,,,,,,0,14,14,5,,,,,,,,,,,,,,,,,,,,,,,,main,1,1,1,negative,positive,j,j,1,0.7581750999997894,190.61052799999925,191.62173129999974,191.58574939999926,None,190.61052799999925,None,190.61052799999925,None,190.61052799999925,None,192.34671815000019,None,192.34671815000019,None,192.34671815000019,None,,,,,,,,,,,221,25,Male,2022-05-20_15h54.06.117,Main,2022.1.1,60.03478415387687,
neutral,neutral,1,k,k,,,,,,,,,0,15,15,1,,,,,,,,,,,,,,,,,,,,,,,,main,1,1,1,neutral,neutral,k,k,1,0.7593300999997155,192.3676147999995,193.37353099999928,193.35362389999864,None,192.3676147999995,None,192.3676147999995,None,192.3676147999995,None,194.11086344999984,None,194.11086344999984,None,194.11086344999984,None,,,,,,,,,,,221,25,Male,2022-05-20_15h54.06.117,Main,2022.1.1,60.03478415387687,
negative,positive,2,j,l,,,,,,,,,0,16,16,15,,,,,,,,,,,,,,,,,,,,,,,,main,1,1,2,positive,negative,l,l,1,0.8630462999990414,194.1314765999996,195.14256260000002,195.12296400000014,None,194.1314765999996,None,194.1314765999996,None,194.1314765999996,None,195.9768284499989,None,195.9768284499989,None,195.9768284499989,None,,,,,,,,,,,221,25,Male,2022-05-20_15h54.06.117,Main,2022.1.1,60.03478415387687,
negative,neutral,1,j,l,,,,,,,,,0,17,17,3,,,,,,,,,,,,,,,,,,,,,,,,main,1,1,1,neutral,negative,l,l,1,0.7551239999993413,195.99900249999882,197.00375069999973,196.9843232000003,None,195.99900249999882,None,195.99900249999882,None,195.99900249999882,None,197.73847704999952,None,197.73847704999952,None,197.73847704999952,None,,,,,,,,,,,221,25,Male,2022-05-20_15h54.06.117,Main,2022.1.1,60.03478415387687,
neutral,neutral,2,k,k,,,,,,,,,1,0,18,10,,,,,,,,,,,,,,,,,,,,,,,,main,1,1,2,neutral,neutral,k,k,1,0.7469328000006499,197.75751169999967,198.7761620000001,198.73692149999988,None,197.75751169999967,None,197.75751169999967,None,197.75751169999967,None,199.4876925499995,None,199.4876925499995,None,199.4876925499995,None,,,,,,,,,,,221,25,Male,2022-05-20_15h54.06.117,Main,2022.1.1,60.03478415387687,
negative,negative,1,j,l,,,,,,,,,1,1,19,0,,,,,,,,,,,,,,,,,,,,,,,,main,1,1,1,negative,negative,l,l,1,0.8132924999990792,199.5084556999991,200.52522449999924,200.48631569999998,None,199.5084556999991,None,199.5084556999991,None,199.5084556999991,None,201.30380294999867,None,201.30380294999867,None,201.30380294999867,None,,,,,,,,,,,221,25,Male,2022-05-20_15h54.06.117,Main,2022.1.1,60.03478415387687,
negative,neutral,1,j,l,,,,,,,,,1,2,20,3,,,,,,,,,,,,,,,,,,,,,,,,main,1,1,1,neutral,negative,l,l,1,0.7987155999999231,201.3247038999998,202.3405931999987,202.30081040000005,None,201.3247038999998,None,201.3247038999998,None,201.3247038999998,None,203.10356795000024,None,203.10356795000024,None,203.10356795000024,None,,,,,,,,,,,221,25,Male,2022-05-20_15h54.06.117,Main,2022.1.1,60.03478415387687,
positive,positive,2,l,j,,,,,,,,,1,3,21,11,,,,,,,,,,,,,,,,,,,,,,,,main,1,1,2,positive,positive,j,j,1,0.7690010999995138,203.12823430000026,204.13353049999932,204.1127306999988,None,203.12823430000026,None,203.12823430000026,None,203.12823430000026,None,204.87632245000003,None,204.87632245000003,None,204.87632245000003,None,,,,,,,,,,,221,25,Male,2022-05-20_15h54.06.117,Main,2022.1.1,60.03478415387687,
positive,neutral,2,l,j,,,,,,,,,1,4,22,17,,,,,,,,,,,,,,,,,,,,,,,,main,2,2,2,neutral,positive,j,j,1,0.971521200001007,204.8970276,205.9144037999995,205.8759659999996,None,204.8970276,None,204.8970276,None,204.8970276,None,206.84982814999984,None,206.84982814999984,None,206.84982814999984,None,,,,,,,,,,,221,25,Male,2022-05-20_15h54.06.117,Main,2022.1.1,60.03478415387687,
positive,negative,2,l,j,,,,,,,,,1,5,23,14,,,,,,,,,,,,,,,,,,,,,,,,main,1,1,2,negative,positive,j,j,1,0.7633218999999372,206.8706932999994,207.8854526999985,207.84556189999967,None,206.8706932999994,None,206.8706932999994,None,206.8706932999994,None,208.61632085000036,None,208.61632085000036,None,208.61632085000036,None,,,,,,,,,,,221,25,Male,2022-05-20_15h54.06.117,Main,2022.1.1,60.03478415387687,
neutral,negative,1,k,k,,,,,,,,,1,6,24,7,,,,,,,,,,,,,,,,,,,,,,,,main,2,2,1,negative,neutral,k,k,1,0.6738147000014578,208.637428,209.6465036999998,209.6267960999994,None,208.637428,None,208.637428,None,208.637428,None,210.29242924999943,None,210.29242924999943,None,210.29242924999943,None,,,,,,,,,,,221,25,Male,2022-05-20_15h54.06.117,Main,2022.1.1,60.03478415387687,
positive,positive,1,l,j,,,,,,,,,1,7,25,2,,,,,,,,,,,,,,,,,,,,,,,,main,2,2,1,positive,positive,j,j,1,0.7754254000010405,210.3149412999992,211.3283792000002,211.30934419999903,None,210.3149412999992,None,210.3149412999992,None,210.3149412999992,None,212.07403354999968,None,212.07403354999968,None,212.07403354999968,None,,,,,,,,,,,221,25,Male,2022-05-20_15h54.06.117,Main,2022.1.1,60.03478415387687,
neutral,negative,2,k,k,,,,,,,,,1,8,26,16,,,,,,,,,,,,,,,,,,,,,,,,main,2,2,2,negative,neutral,k,k,1,0.6883258000016212,212.09632059999967,213.10481280000022,213.0853150999992,None,212.09632059999967,None,212.09632059999967,None,212.09632059999967,None,213.76329155000002,None,213.76329155000002,None,213.76329155000002,None,,,,,,,,,,,221,25,Male,2022-05-20_15h54.06.117,Main,2022.1.1,60.03478415387687,
neutral,positive,2,k,k,,,,,,,,,1,9,27,13,,,,,,,,,,,,,,,,,,,,,,,,main,2,2,2,positive,neutral,k,k,1,0.7011323999995511,213.78916149999895,214.80301729999883,214.76478339999994,None,213.78916149999895,None,213.78916149999895,None,213.78916149999895,None,215.4651866499991,None,215.4651866499991,None,215.4651866499991,None,,,,,,,,,,,221,25,Male,2022-05-20_15h54.06.117,Main,2022.1.1,60.03478415387687,
negative,positive,1,j,l,,,,,,,,,1,10,28,6,,,,,,,,,,,,,,,,,,,,,,,,main,1,1,1,positive,negative,l,l,1,1.0350256000001536,215.49044289999983,216.5110386999986,216.46980970000004,None,215.49044289999983,None,215.49044289999983,None,215.49044289999983,None,217.5062285499991,None,217.5062285499991,None,217.5062285499991,None,,,,,,,,,,,221,25,Male,2022-05-20_15h54.06.117,Main,2022.1.1,60.03478415387687,
neutral,positive,1,k,k,,,,,,,,,1,11,29,4,,,,,,,,,,,,,,,,,,,,,,,,main,2,2,1,positive,neutral,k,k,1,0.7743620999990526,217.52657229999932,218.53847179999866,218.5187692999989,None,217.52657229999932,None,217.52657229999932,None,217.52657229999932,None,219.28149504999982,None,219.28149504999982,None,219.28149504999982,None,,,,,,,,,,,221,25,Male,2022-05-20_15h54.06.117,Main,2022.1.1,60.03478415387687,
positive,neutral,1,l,j,,,,,,,,,1,12,30,8,,,,,,,,,,,,,,,,,,,,,,,,main,1,1,1,neutral,positive,j,j,1,1.4273831999998947,219.3033209999994,220.31088459999955,220.2892372999995,None,219.3033209999994,None,219.3033209999994,None,219.3033209999994,None,221.7102956499986,None,221.7102956499986,None,221.7102956499986,None,,,,,,,,,,,221,25,Male,2022-05-20_15h54.06.117,Main,2022.1.1,60.03478415387687,
positive,negative,1,l,j,,,,,,,,,1,13,31,5,,,,,,,,,,,,,,,,,,,,,,,,main,2,2,1,negative,positive,j,j,1,0.6969798999998602,221.73234619999857,222.74029549999977,222.72130039999865,None,221.73234619999857,None,221.73234619999857,None,221.73234619999857,None,223.4103368500002,None,223.4103368500002,None,223.4103368500002,None,,,,,,,,,,,221,25,Male,2022-05-20_15h54.06.117,Main,2022.1.1,60.03478415387687,
neutral,neutral,1,k,k,,,,,,,,,1,14,32,1,,,,,,,,,,,,,,,,,,,,,,,,main,1,1,1,neutral,neutral,k,k,1,0.6405283999993117,223.43269599999985,224.45222449999892,224.41392599999926,None,223.43269599999985,None,223.43269599999985,None,223.43269599999985,None,225.0553861499995,None,225.0553861499995,None,225.0553861499995,None,,,,,,,,,,,221,25,Male,2022-05-20_15h54.06.117,Main,2022.1.1,60.03478415387687,
negative,neutral,2,j,l,,,,,,,,,1,15,33,12,,,,,,,,,,,,,,,,,,,,,,,,main,1,1,2,neutral,negative,l,l,1,0.8545959000002767,225.07503609999912,226.09353219999866,226.0548366999992,None,225.07503609999912,None,225.07503609999912,None,225.07503609999912,None,226.9102254499996,None,226.9102254499996,None,226.9102254499996,None,,,,,,,,,,,221,25,Male,2022-05-20_15h54.06.117,Main,2022.1.1,60.03478415387687,
negative,negative,2,j,l,,,,,,,,,1,16,34,9,,,,,,,,,,,,,,,,,,,,,,,,main,2,2,2,negative,negative,l,l,1,0.689615599998433,226.93225530000018,227.934467699999,227.91722189999928,None,226.93225530000018,None,226.93225530000018,None,226.93225530000018,None,228.60452054999968,None,228.60452054999968,None,228.60452054999968,None,,,,,,,,,,,221,25,Male,2022-05-20_15h54.06.117,Main,2022.1.1,60.03478415387687,
negative,positive,2,j,l,,,,,,,,,1,17,35,15,,,,,,,,,,,,,,,,,,,,,,,,main,1,1,2,positive,negative,l,l,1,0.7615860000005341,228.62683859999925,229.64216229999874,229.60379639999883,None,228.62683859999925,None,228.62683859999925,None,228.62683859999925,None,230.36676024999923,None,230.36676024999923,None,230.36676024999923,None,,,,,,,,,,,221,25,Male,2022-05-20_15h54.06.117,Main,2022.1.1,60.03478415387687,
neutral,positive,2,k,k,,,,,,,,,2,0,36,13,,,,,,,,,,,,,,,,,,,,,,,,main,2,2,2,positive,neutral,k,k,1,0.59880449999946,230.39233869999953,231.4047929999997,231.36419289999867,None,230.39233869999953,None,230.39233869999953,None,230.39233869999953,None,231.96832294999894,None,231.96832294999894,None,231.96832294999894,None,,,,,,,,,,,221,25,Male,2022-05-20_15h54.06.117,Main,2022.1.1,60.03478415387687,
negative,positive,1,j,l,,,,,,,,,2,1,37,6,,,,,,,,,,,,,,,,,,,,,,,,main,2,2,1,positive,negative,l,l,1,0.7433082000006834,231.9902693999993,233.00891799999954,232.97041629999876,None,231.9902693999993,None,231.9902693999993,None,231.9902693999993,None,233.71306704999932,None,233.71306704999932,None,233.71306704999932,None,,,,,,,,,,,221,25,Male,2022-05-20_15h54.06.117,Main,2022.1.1,60.03478415387687,
neutral,negative,2,k,k,,,,,,,,,2,2,38,16,,,,,,,,,,,,,,,,,,,,,,,,main,2,2,2,negative,neutral,k,k,1,0.6635256999998091,233.73404699999992,234.73694069999874,234.71777789999942,None,233.73404699999992,None,233.73404699999992,None,233.73404699999992,None,235.37817854999975,None,235.37817854999975,None,235.37817854999975,None,,,,,,,,,,,221,25,Male,2022-05-20_15h54.06.117,Main,2022.1.1,60.03478415387687,
neutral,negative,1,k,k,,,,,,,,,2,3,39,7,,,,,,,,,,,,,,,,,,,,,,,,main,2,2,1,negative,neutral,k,k,1,0.5431038999995508,235.40335839999898,236.4171083000001,236.37820509999983,None,235.40335839999898,None,235.40335839999898,None,235.40335839999898,None,236.92511665,None,236.92511665,None,236.92511665,None,,,,,,,,,,,221,25,Male,2022-05-20_15h54.06.117,Main,2022.1.1,60.03478415387687,
negative,neutral,1,j,l,,,,,,,,,2,4,40,3,,,,,,,,,,,,,,,,,,,,,,,,main,1,1,1,neutral,negative,l,l,1,0.7588429999996151,236.94548740000027,237.96496899999875,237.92621009999857,None,236.94548740000027,None,236.94548740000027,None,236.94548740000027,None,238.68817164999945,None,238.68817164999945,None,238.68817164999945,None,,,,,,,,,,,221,25,Male,2022-05-20_15h54.06.117,Main,2022.1.1,60.03478415387687,
neutral,positive,1,k,k,,,,,,,,,2,5,41,4,,,,,,,,,,,,,,,,,,,,,,,,main,1,1,1,positive,neutral,k,k,1,0.7916967999990447,238.71167090000017,239.7250727999999,239.68570639999962,None,238.71167090000017,None,238.71167090000017,None,238.71167090000017,None,240.48538165000008,None,240.48538165000008,None,240.48538165000008,None,,,,,,,,,,,221,25,Male,2022-05-20_15h54.06.117,Main,2022.1.1,60.03478415387687,
positive,positive,2,l,j,,,,,,,,,2,6,42,11,,,,,,,,,,,,,,,,,,,,,,,,main,2,2,2,positive,positive,j,j,1,0.608863499999643,240.5075455999995,241.51117129999875,241.4922219,None,240.5075455999995,None,240.5075455999995,None,240.5075455999995,None,242.0960305499995,None,242.0960305499995,None,242.0960305499995,None,,,,,,,,,,,221,25,Male,2022-05-20_15h54.06.117,Main,2022.1.1,60.03478415387687,
positive,negative,1,l,j,,,,,,,,,2,7,43,5,,,,,,,,,,,,,,,,,,,,,,,,main,1,1,1,negative,positive,j,k,0,0.6534676999999647,242.11661699999968,243.125086,243.10618259999865,None,242.11661699999968,None,242.11661699999968,None,242.11661699999968,None,243.7595865000003,None,243.7595865000003,None,243.7595865000003,None,,,,,,,,,,,221,25,Male,2022-05-20_15h54.06.117,Main,2022.1.1,60.03478415387687,
positive,neutral,2,l,j,,,,,,,,,2,8,44,17,,,,,,,,,,,,,,,,,,,,,,,,main,2,2,2,neutral,positive,j,j,1,0.9849787000002834,244.78714839999884,245.79841619999934,245.76022919999923,None,244.78714839999884,None,244.78714839999884,None,244.78714839999884,None,246.74430804999992,None,246.74430804999992,None,246.74430804999992,None,,,,,,,,,,,221,25,Male,2022-05-20_15h54.06.117,Main,2022.1.1,60.03478415387687,
negative,negative,1,j,l,,,,,,,,,2,9,45,0,,,,,,,,,,,,,,,,,,,,,,,,main,1,1,1,negative,negative,l,l,1,0.785436899999695,246.76601879999907,247.77910509999856,247.74094460000015,None,246.76601879999907,None,246.76601879999907,None,246.76601879999907,None,248.53557814999857,None,248.53557814999857,None,248.53557814999857,None,,,,,,,,,,,221,25,Male,2022-05-20_15h54.06.117,Main,2022.1.1,60.03478415387687,
negative,negative,2,j,l,,,,,,,,,2,10,46,9,,,,,,,,,,,,,,,,,,,,,,,,main,2,2,2,negative,negative,l,l,1,0.8309043999997812,248.55535169999894,249.5575372000003,249.538935999999,None,248.55535169999894,None,248.55535169999894,None,248.55535169999894,None,250.36905004999988,None,250.36905004999988,None,250.36905004999988,None,,,,,,,,,,,221,25,Male,2022-05-20_15h54.06.117,Main,2022.1.1,60.03478415387687,
negative,positive,2,j,l,,,,,,,,,2,11,47,15,,,,,,,,,,,,,,,,,,,,,,,,main,1,1,2,positive,negative,l,l,1,0.6654555999994045,250.38895429999866,251.39801559999978,251.37713669999903,None,250.38895429999866,None,250.38895429999866,None,250.38895429999866,None,252.03662685000035,None,252.03662685000035,None,252.03662685000035,None,,,,,,,,,,,221,25,Male,2022-05-20_15h54.06.117,Main,2022.1.1,60.03478415387687,
neutral,neutral,2,k,k,,,,,,,,,2,12,48,10,,,,,,,,,,,,,,,,,,,,,,,,main,2,2,2,neutral,neutral,k,k,1,0.6743905000002997,252.05872219999947,253.07519279999906,253.03740229999858,None,252.05872219999947,None,252.05872219999947,None,252.05872219999947,None,253.71436394999927,None,253.71436394999927,None,253.71436394999927,None,,,,,,,,,,,221,25,Male,2022-05-20_15h54.06.117,Main,2022.1.1,60.03478415387687,
positive,negative,2,l,j,,,,,,,,,2,13,49,14,,,,,,,,,,,,,,,,,,,,,,,,main,2,2,2,negative,positive,j,j,1,0.7616650999989361,253.73557139999866,254.7437375999998,254.7240012000002,None,253.73557139999866,None,253.73557139999866,None,253.73557139999866,None,255.47788464999957,None,255.47788464999957,None,255.47788464999957,None,,,,,,,,,,,221,25,Male,2022-05-20_15h54.06.117,Main,2022.1.1,60.03478415387687,
negative,neutral,2,j,l,,,,,,,,,2,14,50,12,,,,,,,,,,,,,,,,,,,,,,,,main,2,2,2,neutral,negative,l,l,1,0.9296805000012682,255.50141619999886,256.5185789999996,256.48003099999914,None,255.50141619999886,None,255.50141619999886,None,255.50141619999886,None,257.40991154999955,None,257.40991154999955,None,257.40991154999955,None,,,,,,,,,,,221,25,Male,2022-05-20_15h54.06.117,Main,2022.1.1,60.03478415387687,
neutral,neutral,1,k,k,,,,,,,,,2,15,51,1,,,,,,,,,,,,,,,,,,,,,,,,main,1,1,1,neutral,neutral,k,k,1,0.6944650000004913,257.43294219999916,258.4522541999995,258.41351570000006,None,257.43294219999916,None,257.43294219999916,None,257.43294219999916,None,259.10836144999865,None,259.10836144999865,None,259.10836144999865,None,,,,,,,,,,,221,25,Male,2022-05-20_15h54.06.117,Main,2022.1.1,60.03478415387687,
positive,neutral,1,l,j,,,,,,,,,2,16,52,8,,,,,,,,,,,,,,,,,,,,,,,,main,2,2,1,neutral,positive,j,j,1,0.7461562000007689,259.13090679999914,260.139160499999,260.1195496,None,259.13090679999914,None,259.13090679999914,None,259.13090679999914,None,260.8561103499998,None,260.8561103499998,None,260.8561103499998,None,,,,,,,,,,,221,25,Male,2022-05-20_15h54.06.117,Main,2022.1.1,60.03478415387687,
positive,positive,1,l,j,,,,,,,,,2,17,53,2,,,,,,,,,,,,,,,,,,,,,,,,main,2,2,1,positive,positive,j,j,1,0.6337481000009575,260.87823489999937,261.88630029999877,261.86680460000025,None,260.87823489999937,None,260.87823489999937,None,260.87823489999937,None,262.4931685499998,None,262.4931685499998,None,262.4931685499998,None,,,,,,,,,,,221,25,Male,2022-05-20_15h54.06.117,Main,2022.1.1,60.03478415387687,
negative,neutral,1,j,l,,,,,,,,,3,0,54,3,,,,,,,,,,,,,,,,,,,,,,,,main,1,1,1,neutral,negative,l,l,1,0.8110703000002104,262.51358079999954,263.533587599999,263.4946510999998,None,262.51358079999954,None,262.51358079999954,None,262.51358079999954,None,264.30733164999964,None,264.30733164999964,None,264.30733164999964,None,,,,,,,,,,,221,25,Male,2022-05-20_15h54.06.117,Main,2022.1.1,60.03478415387687,
positive,positive,2,l,j,,,,,,,,,3,1,55,11,,,,,,,,,,,,,,,,,,,,,,,,main,1,1,2,positive,positive,j,j,1,0.7021987999996782,264.32859540000027,265.3469570999987,265.3084459999991,None,264.32859540000027,None,264.32859540000027,None,264.32859540000027,None,266.01121685000015,None,266.01121685000015,None,266.01121685000015,None,,,,,,,,,,,221,25,Male,2022-05-20_15h54.06.117,Main,2022.1.1,60.03478415387687,
negative,negative,2,j,l,,,,,,,,,3,2,56,9,,,,,,,,,,,,,,,,,,,,,,,,main,2,2,2,negative,negative,l,l,1,0.6967951000005996,266.0324193999986,267.0353065999989,267.0158357,None,266.0324193999986,None,266.0324193999986,None,266.0324193999986,None,267.712681449999,None,267.712681449999,None,267.712681449999,None,,,,,,,,,,,221,25,Male,2022-05-20_15h54.06.117,Main,2022.1.1,60.03478415387687,
positive,neutral,2,l,j,,,,,,,,,3,3,57,17,,,,,,,,,,,,,,,,,,,,,,,,main,2,2,2,neutral,positive,j,j,1,0.5810019000000466,267.73320090000016,268.7462508999997,268.70849089999865,None,267.73320090000016,None,267.73320090000016,None,267.73320090000016,None,269.29609784999974,None,269.29609784999974,None,269.29609784999974,None,,,,,,,,,,,221,25,Male,2022-05-20_15h54.06.117,Main,2022.1.1,60.03478415387687,
negative,neutral,2,j,l,,,,,,,,,3,4,58,12,,,,,,,,,,,,,,,,,,,,,,,,main,2,2,2,neutral,negative,l,l,1,0.7282329999998183,269.3161180999996,270.3250358999994,270.3058782999997,None,269.3161180999996,None,269.3161180999996,None,269.3161180999996,None,271.0248034500002,None,271.0248034500002,None,271.0248034500002,None,,,,,,,,,,,221,25,Male,2022-05-20_15h54.06.117,Main,2022.1.1,60.03478415387687,
neutral,negative,1,k,k,,,,,,,,,3,5,59,7,,,,,,,,,,,,,,,,,,,,,,,,main,2,2,1,negative,neutral,k,k,1,0.6897016000002623,271.0465710999997,272.05817690000003,272.0193528,None,271.0465710999997,None,271.0465710999997,None,271.0465710999997,None,272.7195271499988,None,272.7195271499988,None,272.7195271499988,None,,,,,,,,,,,221,25,Male,2022-05-20_15h54.06.117,Main,2022.1.1,60.03478415387687,
neutral,neutral,2,k,k,,,,,,,,,3,6,60,10,,,,,,,,,,,,,,,,,,,,,,,,main,2,2,2,neutral,neutral,k,k,1,0.900972699999329,272.7405801999994,273.74883429999863,273.729281599999,None,272.7405801999994,None,272.7405801999994,None,272.7405801999994,None,274.62250904999945,None,274.62250904999945,None,274.62250904999945,None,,,,,,,,,,,221,25,Male,2022-05-20_15h54.06.117,Main,2022.1.1,60.03478415387687,
neutral,neutral,1,k,k,,,,,,,,,3,7,61,1,,,,,,,,,,,,,,,,,,,,,,,,main,1,1,1,neutral,neutral,k,k,1,0.7596738000011101,274.64292449999994,275.6530841999993,275.6339149999985,None,274.64292449999994,None,274.64292449999994,None,274.64292449999994,None,276.3858720499995,None,276.3858720499995,None,276.3858720499995,None,,,,,,,,,,,221,25,Male,2022-05-20_15h54.06.117,Main,2022.1.1,60.03478415387687,
positive,positive,1,l,j,,,,,,,,,3,8,62,2,,,,,,,,,,,,,,,,,,,,,,,,main,1,1,1,positive,positive,j,l,0,0.9912831000001461,276.40648059999876,277.41087849999894,277.39157559999876,None,276.40648059999876,None,276.40648059999876,None,276.40648059999876,None,278.3885991999996,None,278.3885991999996,None,278.3885991999996,None,,,,,,,,,,,221,25,Male,2022-05-20_15h54.06.117,Main,2022.1.1,60.03478415387687,
positive,negative,1,l,j,,,,,,,,,3,9,63,5,,,,,,,,,,,,,,,,,,,,,,,,main,1,1,1,negative,positive,j,j,1,1.0826130999994348,279.40923920000023,280.4220331999986,280.40321309999854,None,279.40923920000023,None,279.40923920000023,None,279.40923920000023,None,281.47079944999876,None,281.47079944999876,None,281.47079944999876,None,,,,,,,,,,,221,25,Male,2022-05-20_15h54.06.117,Main,2022.1.1,60.03478415387687,
neutral,positive,2,k,k,,,,,,,,,3,10,64,13,,,,,,,,,,,,,,,,,,,,,,,,main,1,1,2,positive,neutral,k,k,1,0.6967951999995421,281.49243659999956,282.50998230000005,282.4723997000001,None,281.49243659999956,None,281.49243659999956,None,281.49243659999956,None,283.17044964999894,None,283.17044964999894,None,283.17044964999894,None,,,,,,,,,,,221,25,Male,2022-05-20_15h54.06.117,Main,2022.1.1,60.03478415387687,
negative,positive,1,j,l,,,,,,,,,3,11,65,6,,,,,,,,,,,,,,,,,,,,,,,,main,2,2,1,positive,negative,l,l,1,0.7968626000001677,283.19191449999926,284.2031286000001,284.1834577999998,None,283.19191449999926,None,283.19191449999926,None,283.19191449999926,None,284.97027195000027,None,284.97027195000027,None,284.97027195000027,None,,,,,,,,,,,221,25,Male,2022-05-20_15h54.06.117,Main,2022.1.1,60.03478415387687,
positive,negative,2,l,j,,,,,,,,,3,12,66,14,,,,,,,,,,,,,,,,,,,,,,,,main,1,1,2,negative,positive,j,j,1,1.3992908999989595,284.9913435999988,285.9996719999999,285.98004239999864,None,284.9913435999988,None,284.9913435999988,None,284.9913435999988,None,287.3722897499994,None,287.3722897499994,None,287.3722897499994,None,,,,,,,,,,,221,25,Male,2022-05-20_15h54.06.117,Main,2022.1.1,60.03478415387687,
positive,neutral,1,l,j,,,,,,,,,3,13,67,8,,,,,,,,,,,,,,,,,,,,,,,,main,2,2,1,neutral,positive,j,j,1,0.7659824000002118,287.39359539999896,288.3990475999999,288.37926739999966,None,287.39359539999896,None,287.39359539999896,None,287.39359539999896,None,289.14051915,None,289.14051915,None,289.14051915,None,,,,,,,,,,,221,25,Male,2022-05-20_15h54.06.117,Main,2022.1.1,60.03478415387687,
negative,negative,1,j,l,,,,,,,,,3,14,68,0,,,,,,,,,,,,,,,,,,,,,,,,main,1,1,1,negative,negative,l,l,1,1.0107712000008178,289.16589459999886,290.18523449999884,290.14658549999876,None,289.16589459999886,None,289.16589459999886,None,289.16589459999886,None,291.15343644999865,None,291.15343644999865,None,291.15343644999865,None,,,,,,,,,,,221,25,Male,2022-05-20_15h54.06.117,Main,2022.1.1,60.03478415387687,
negative,positive,2,j,l,,,,,,,,,3,15,69,15,,,,,,,,,,,,,,,,,,,,,,,,main,1,1,2,positive,negative,l,l,1,0.9701344999994035,291.17572669999936,292.1771551999991,292.15842749999865,None,291.17572669999936,None,291.17572669999936,None,291.17572669999936,None,293.1275224499988,None,293.1275224499988,None,293.1275224499988,None,,,,,,,,,,,221,25,Male,2022-05-20_15h54.06.117,Main,2022.1.1,60.03478415387687,
neutral,negative,2,k,k,,,,,,,,,3,16,70,16,,,,,,,,,,,,,,,,,,,,,,,,main,2,2,2,negative,neutral,k,k,1,0.6570519000015338,293.14875629999915,294.16341739999916,294.1241485999999,None,293.14875629999915,None,293.14875629999915,None,293.14875629999915,None,294.78611494999876,None,294.78611494999876,None,294.78611494999876,None,,,,,,,,,,,221,25,Male,2022-05-20_15h54.06.117,Main,2022.1.1,60.03478415387687,
neutral,positive,1,k,k,,,,,,,,,3,17,71,4,,,,,,,,,,,,,,,,,,,,,,,,main,2,2,1,positive,neutral,k,k,1,0.6290693000009924,294.8081481999998,295.81188199999997,295.7921830999985,None,294.8081481999998,None,294.8081481999998,None,294.8081481999998,None,296.4175790499996,None,296.4175790499996,None,296.4175790499996,None,,,,,,,,,,,221,25,Male,2022-05-20_15h54.06.117,Main,2022.1.1,60.03478415387687,
neutral,negative,2,k,k,,,,,,,,,4,0,72,16,,,,,,,,,,,,,,,,,,,,,,,,main,2,2,2,negative,neutral,k,k,1,0.6843355999990308,296.4384790999993,297.44524719999936,297.42566689999876,None,296.4384790999993,None,296.4384790999993,None,296.4384790999993,None,298.10467474999876,None,298.10467474999876,None,298.10467474999876,None,,,,,,,,,,,221,25,Male,2022-05-20_15h54.06.117,Main,2022.1.1,60.03478415387687,
negative,positive,2,j,l,,,,,,,,,4,1,73,15,,,,,,,,,,,,,,,,,,,,,,,,main,2,2,2,positive,negative,l,l,1,0.7720150999994075,298.1253061999996,299.13968719999866,299.1011228999996,None,298.1253061999996,None,298.1253061999996,None,298.1253061999996,None,299.8810691499986,None,299.8810691499986,None,299.8810691499986,None,,,,,,,,,,,221,25,Male,2022-05-20_15h54.06.117,Main,2022.1.1,60.03478415387687,
positive,negative,2,l,j,,,,,,,,,4,2,74,14,,,,,,,,,,,,,,,,,,,,,,,,main,1,1,2,negative,positive,j,j,1,0.5185661999985314,299.9015615999997,300.91921139999977,300.88123110000015,None,299.9015615999997,None,299.9015615999997,None,299.9015615999997,None,301.4019247500002,None,301.4019247500002,None,301.4019247500002,None,,,,,,,,,,,221,25,Male,2022-05-20_15h54.06.117,Main,2022.1.1,60.03478415387687,
negative,positive,1,j,l,,,,,,,,,4,3,75,6,,,,,,,,,,,,,,,,,,,,,,,,main,2,2,1,positive,negative,l,l,1,0.818338600000061,301.4231942999995,302.43935799999963,302.40118939999957,None,301.4231942999995,None,301.4231942999995,None,301.4231942999995,None,303.22452704999904,None,303.22452704999904,None,303.22452704999904,None,,,,,,,,,,,221,25,Male,2022-05-20_15h54.06.117,Main,2022.1.1,60.03478415387687,
negative,neutral,2,j,l,,,,,,,,,4,4,76,12,,,,,,,,,,,,,,,,,,,,,,,,main,1,1,2,neutral,negative,l,l,1,0.6746404000004986,303.24505489999865,304.2585696999995,304.2210426999991,None,303.24505489999865,None,303.24505489999865,None,303.24505489999865,None,304.90023775000026,None,304.90023775000026,None,304.90023775000026,None,,,,,,,,,,,221,25,Male,2022-05-20_15h54.06.117,Main,2022.1.1,60.03478415387687,
positive,positive,2,l,j,,,,,,,,,4,5,77,11,,,,,,,,,,,,,,,,,,,,,,,,main,1,1,2,positive,positive,j,j,1,0.866604400000142,304.9206835999994,305.9361564999999,305.8966892999997,None,304.9206835999994,None,304.9206835999994,None,304.9206835999994,None,306.7689253499995,None,306.7689253499995,None,306.7689253499995,None,,,,,,,,,,,221,25,Male,2022-05-20_15h54.06.117,Main,2022.1.1,60.03478415387687,
positive,negative,1,l,j,,,,,,,,,4,6,78,5,,,,,,,,,,,,,,,,,,,,,,,,main,1,1,1,negative,positive,j,j,1,0.6571464999997261,306.7920624999988,307.8045003999996,307.76587049999944,None,306.7920624999988,None,306.7920624999988,None,306.7920624999988,None,308.43102604999893,None,308.43102604999893,None,308.43102604999893,None,,,,,,,,,,,221,25,Male,2022-05-20_15h54.06.117,Main,2022.1.1,60.03478415387687,
neutral,positive,2,k,k,,,,,,,,,4,7,79,13,,,,,,,,,,,,,,,,,,,,,,,,main,1,1,2,positive,neutral,k,k,1,0.7934837000011612,308.4504117999986,309.4681490999992,309.42997149999974,None,308.4504117999986,None,308.4504117999986,None,308.4504117999986,None,310.2288174499992,None,310.2288174499992,None,310.2288174499992,None,,,,,,,,,,,221,25,Male,2022-05-20_15h54.06.117,Main,2022.1.1,60.03478415387687,
positive,neutral,2,l,j,,,,,,,,,4,8,80,17,,,,,,,,,,,,,,,,,,,,,,,,main,1,1,2,neutral,positive,j,j,1,1.088218599999891,310.2491209999989,311.25460009999915,311.23548889999984,None,310.2491209999989,None,310.2491209999989,None,310.2491209999989,None,312.3187151499989,None,312.3187151499989,None,312.3187151499989,None,,,,,,,,,,,221,25,Male,2022-05-20_15h54.06.117,Main,2022.1.1,60.03478415387687,
negative,negative,1,j,l,,,,,,,,,4,9,81,0,,,,,,,,,,,,,,,,,,,,,,,,main,1,1,1,negative,negative,l,l,1,0.7855020000006334,312.3386303999996,313.34577139999965,313.3262512000001,None,312.3386303999996,None,312.3386303999996,None,312.3386303999996,None,314.1090400499999,None,314.1090400499999,None,314.1090400499999,None,,,,,,,,,,,221,25,Male,2022-05-20_15h54.06.117,Main,2022.1.1,60.03478415387687,
positive,neutral,1,l,j,,,,,,,,,4,10,82,8,,,,,,,,,,,,,,,,,,,,,,,,main,2,2,1,neutral,positive,j,j,1,0.7957579000012629,314.1278172000002,315.13192739999977,315.1127768999995,None,314.1278172000002,None,314.1278172000002,None,314.1278172000002,None,315.90730534999983,None,315.90730534999983,None,315.90730534999983,None,,,,,,,,,,,221,25,Male,2022-05-20_15h54.06.117,Main,2022.1.1,60.03478415387687,
negative,negative,2,j,l,,,,,,,,,4,11,83,9,,,,,,,,,,,,,,,,,,,,,,,,main,2,2,2,negative,negative,l,l,1,0.9075752000007924,315.92827810000017,316.93979469999977,316.90127779999966,None,315.92827810000017,None,315.92827810000017,None,315.92827810000017,None,317.8150287499995,None,317.8150287499995,None,317.8150287499995,None,,,,,,,,,,,221,25,Male,2022-05-20_15h54.06.117,Main,2022.1.1,60.03478415387687,
neutral,neutral,2,k,k,,,,,,,,,4,12,84,10,,,,,,,,,,,,,,,,,,,,,,,,main,2,2,2,neutral,neutral,k,k,1,0.7027458000011393,317.8367944999991,318.8391107999996,318.8204068999985,None,317.8367944999991,None,317.8367944999991,None,317.8367944999991,None,319.52005884999943,None,319.52005884999943,None,319.52005884999943,None,,,,,,,,,,,221,25,Male,2022-05-20_15h54.06.117,Main,2022.1.1,60.03478415387687,
neutral,positive,1,k,k,,,,,,,,,4,13,85,4,,,,,,,,,,,,,,,,,,,,,,,,main,1,1,1,positive,neutral,k,k,1,0.7961876000008488,319.54105359999994,320.5496798999993,320.5300959999986,None,319.54105359999994,None,319.54105359999994,None,319.54105359999994,None,321.3188403499991,None,321.3188403499991,None,321.3188403499991,None,,,,,,,,,,,221,25,Male,2022-05-20_15h54.06.117,Main,2022.1.1,60.03478415387687,
positive,positive,1,l,j,,,,,,,,,4,14,86,2,,,,,,,,,,,,,,,,,,,,,,,,main,2,2,1,positive,positive,j,j,1,1.1260206000006292,321.3409694000002,322.3496232999987,322.33027109999966,None,321.3409694000002,None,321.3409694000002,None,321.3409694000002,None,323.44728024999876,None,323.44728024999876,None,323.44728024999876,None,,,,,,,,,,,221,25,Male,2022-05-20_15h54.06.117,Main,2022.1.1,60.03478415387687,
neutral,neutral,1,k,k,,,,,,,,,4,15,87,1,,,,,,,,,,,,,,,,,,,,,,,,main,1,1,1,neutral,neutral,k,k,1,0.7892262999994273,323.46767459999865,324.4893973999988,324.4497683999998,None,323.46767459999865,None,323.46767459999865,None,323.46767459999865,None,325.2413323499988,None,325.2413323499988,None,325.2413323499988,None,,,,,,,,,,,221,25,Male,2022-05-20_15h54.06.117,Main,2022.1.1,60.03478415387687,
neutral,negative,1,k,k,,,,,,,,,4,16,88,7,,,,,,,,,,,,,,,,,,,,,,,,main,2,2,1,negative,neutral,k,k,1,0.8223263999989285,325.26128249999965,326.2676838999996,326.24832199999946,None,325.26128249999965,None,325.26128249999965,None,325.26128249999965,None,327.0634083499992,None,327.0634083499992,None,327.0634083499992,None,,,,,,,,,,,221,25,Male,2022-05-20_15h54.06.117,Main,2022.1.1,60.03478415387687,
negative,neutral,1,j,l,,,,,,,,,4,17,89,3,,,,,,,,,,,,,,,,,,,,,,,,main,1,1,1,neutral,negative,l,l,1,0.7828186000006099,327.08538319999934,328.09254489999876,328.0724130999988,None,327.08538319999934,None,327.08538319999934,None,327.08538319999934,None,328.84900405000025,None,328.84900405000025,None,328.84900405000025,None,,,,,,,,,,,221,25,Male,2022-05-20_15h54.06.117,Main,2022.1.1,60.03478415387687,
neutral,neutral,1,k,k,,,,,,,,,5,0,90,1,,,,,,,,,,,,,,,,,,,,,,,,main,2,2,1,neutral,neutral,k,k,1,0.7716426999995747,328.8697068999991,329.8818707999999,329.86260839999886,None,328.8697068999991,None,328.8697068999991,None,328.8697068999991,None,330.6252065499995,None,330.6252065499995,None,330.6252065499995,None,,,,,,,,,,,221,25,Male,2022-05-20_15h54.06.117,Main,2022.1.1,60.03478415387687,
neutral,positive,2,k,k,,,,,,,,,5,1,91,13,,,,,,,,,,,,,,,,,,,,,,,,main,2,2,2,positive,neutral,k,k,1,0.7302467000008619,330.6455331999987,331.64992840000014,331.63082140000006,None,330.6455331999987,None,330.6455331999987,None,330.6455331999987,None,332.3578534499995,None,332.3578534499995,None,332.3578534499995,None,,,,,,,,,,,221,25,Male,2022-05-20_15h54.06.117,Main,2022.1.1,60.03478415387687,
negative,positive,1,j,l,,,,,,,,,5,2,92,6,,,,,,,,,,,,,,,,,,,,,,,,main,2,2,1,positive,negative,l,l,1,0.8800177999983134,332.3801304999997,333.3996473999996,333.3601964999998,None,332.3801304999997,None,332.3801304999997,None,332.3801304999997,None,334.24017825000027,None,334.24017825000027,None,334.24017825000027,None,,,,,,,,,,,221,25,Male,2022-05-20_15h54.06.117,Main,2022.1.1,60.03478415387687,
negative,negative,2,j,l,,,,,,,,,5,3,93,9,,,,,,,,,,,,,,,,,,,,,,,,main,1,1,2,negative,negative,l,l,1,1.0797849999999016,334.2599391999993,335.2614044000002,335.2427356999997,None,334.2599391999993,None,334.2599391999993,None,334.2599391999993,None,336.3228235499993,None,336.3228235499993,None,336.3228235499993,None,,,,,,,,,,,221,25,Male,2022-05-20_15h54.06.117,Main,2022.1.1,60.03478415387687,
neutral,negative,1,k,k,,,,,,,,,5,4,94,7,,,,,,,,,,,,,,,,,,,,,,,,main,2,2,1,negative,neutral,k,k,1,0.7989410000009229,336.34333369999877,337.3623818999986,337.32271969999965,None,336.34333369999877,None,336.34333369999877,None,336.34333369999877,None,338.1241893499993,None,338.1241893499993,None,338.1241893499993,None,,,,,,,,,,,221,25,Male,2022-05-20_15h54.06.117,Main,2022.1.1,60.03478415387687,
positive,negative,2,l,j,,,,,,,,,5,5,95,14,,,,,,,,,,,,,,,,,,,,,,,,main,2,2,2,negative,positive,j,j,1,0.8652842999999848,338.1447509999998,339.15187139999944,339.13264829999935,None,338.1447509999998,None,338.1447509999998,None,338.1447509999998,None,339.99120534999946,None,339.99120534999946,None,339.99120534999946,None,,,,,,,,,,,221,25,Male,2022-05-20_15h54.06.117,Main,2022.1.1,60.03478415387687,
positive,positive,2,l,j,,,,,,,,,5,6,96,11,,,,,,,,,,,,,,,,,,,,,,,,main,1,1,2,positive,positive,j,j,1,0.7733944000010524,340.0115248000002,341.0311313000002,341.0076288,None,340.0115248000002,None,340.0115248000002,None,340.0115248000002,None,341.76433964999904,None,341.76433964999904,None,341.76433964999904,None,,,,,,,,,,,221,25,Male,2022-05-20_15h54.06.117,Main,2022.1.1,60.03478415387687,
negative,neutral,2,j,l,,,,,,,,,5,7,97,12,,,,,,,,,,,,,,,,,,,,,,,,main,1,1,2,neutral,negative,l,l,1,0.7783153000000311,341.79686479999873,342.8110292000001,342.791446199999,None,341.79686479999873,None,341.79686479999873,None,341.79686479999873,None,343.54917004999896,None,343.54917004999896,None,343.54917004999896,None,,,,,,,,,,,221,25,Male,2022-05-20_15h54.06.117,Main,2022.1.1,60.03478415387687,
positive,neutral,1,l,j,,,,,,,,,5,8,98,8,,,,,,,,,,,,,,,,,,,,,,,,main,1,1,1,neutral,positive,j,j,1,0.7627300999993167,343.5744347,344.5808019999986,344.56184239999857,None,343.5744347,None,343.5744347,None,343.5744347,None,345.31509634999946,None,345.31509634999946,None,345.31509634999946,None,,,,,,,,,,,221,25,Male,2022-05-20_15h54.06.117,Main,2022.1.1,60.03478415387687,
negative,neutral,1,j,l,,,,,,,,,5,9,99,3,,,,,,,,,,,,,,,,,,,,,,,,main,1,1,1,neutral,negative,l,l,1,0.7333954000005178,345.3357434999998,346.3514120999989,346.31277169999885,None,345.3357434999998,None,345.3357434999998,None,345.3357434999998,None,347.0527969500001,None,347.0527969500001,None,347.0527969500001,None,,,,,,,,,,,221,25,Male,2022-05-20_15h54.06.117,Main,2022.1.1,60.03478415387687,
positive,negative,1,l,j,,,,,,,,,5,10,100,5,,,,,,,,,,,,,,,,,,,,,,,,main,2,2,1,negative,positive,j,j,1,0.6522504000004119,347.0729720999989,348.08352269999887,348.0638925000003,None,347.0729720999989,None,347.0729720999989,None,347.0729720999989,None,348.70763924999864,None,348.70763924999864,None,348.70763924999864,None,,,,,,,,,,,221,25,Male,2022-05-20_15h54.06.117,Main,2022.1.1,60.03478415387687,
neutral,negative,2,k,k,,,,,,,,,5,11,101,16,,,,,,,,,,,,,,,,,,,,,,,,main,2,2,2,negative,neutral,k,k,1,0.6413429000003816,348.7282551999997,349.73053979999895,349.71180579999964,None,348.7282551999997,None,348.7282551999997,None,348.7282551999997,None,350.35098854999904,None,350.35098854999904,None,350.35098854999904,None,,,,,,,,,,,221,25,Male,2022-05-20_15h54.06.117,Main,2022.1.1,60.03478415387687,
negative,negative,1,j,l,,,,,,,,,5,12,102,0,,,,,,,,,,,,,,,,,,,,,,,,main,2,2,1,negative,negative,l,l,1,0.8074917000012647,350.3787240999991,351.3862016999992,351.36505229999966,None,350.3787240999991,None,350.3787240999991,None,350.3787240999991,None,352.1618800500002,None,352.1618800500002,None,352.1618800500002,None,,,,,,,,,,,221,25,Male,2022-05-20_15h54.06.117,Main,2022.1.1,60.03478415387687,
negative,positive,2,j,l,,,,,,,,,5,13,103,15,,,,,,,,,,,,,,,,,,,,,,,,main,2,2,2,positive,negative,l,l,1,0.8773610000007466,352.19225389999883,353.2158638000001,353.17425449999973,None,352.19225389999883,None,352.19225389999883,None,352.19225389999883,None,354.0430289500002,None,354.0430289500002,None,354.0430289500002,None,,,,,,,,,,,221,25,Male,2022-05-20_15h54.06.117,Main,2022.1.1,60.03478415387687,
positive,neutral,2,l,j,,,,,,,,,5,14,104,17,,,,,,,,,,,,,,,,,,,,,,,,main,1,1,2,neutral,positive,j,j,1,0.8308588999989297,354.06897169999866,355.08432449999964,355.0631599999997,None,354.06897169999866,None,354.06897169999866,None,354.06897169999866,None,355.87769184999905,None,355.87769184999905,None,355.87769184999905,None,,,,,,,,,,,221,25,Male,2022-05-20_15h54.06.117,Main,2022.1.1,60.03478415387687,
neutral,neutral,2,k,k,,,,,,,,,5,15,105,10,,,,,,,,,,,,,,,,,,,,,,,,main,1,1,2,neutral,neutral,k,k,1,0.7466236000000208,355.9024496999991,356.9129303999998,356.8923615999993,None,355.9024496999991,None,355.9024496999991,None,355.9024496999991,None,357.62613744999925,None,357.62613744999925,None,357.62613744999925,None,,,,,,,,,,,221,25,Male,2022-05-20_15h54.06.117,Main,2022.1.1,60.03478415387687,
neutral,positive,1,k,k,,,,,,,,,5,16,106,4,,,,,,,,,,,,,,,,,,,,,,,,main,1,1,1,positive,neutral,k,k,1,0.7623853999994026,357.6516713000001,358.6758783999994,358.6332603999999,None,357.6516713000001,None,357.6516713000001,None,357.6516713000001,None,359.39107125000027,None,359.39107125000027,None,359.39107125000027,None,,,,,,,,,,,221,25,Male,2022-05-20_15h54.06.117,Main,2022.1.1,60.03478415387687,
positive,positive,1,l,j,,,,,,,,,5,17,107,2,,,,,,,,,,,,,,,,,,,,,,,,main,2,2,1,positive,positive,j,j,1,0.9542848000000959,359.4205492000001,360.4437199999993,360.4009447999997,None,359.4205492000001,None,359.4205492000001,None,359.4205492000001,None,361.34975924999907,None,361.34975924999907,None,361.34975924999907,None,,,,,,,,,,,221,25,Male,2022-05-20_15h54.06.117,Main,2022.1.1,60.03478415387687,
negative,neutral,2,j,l,,,,,,,,,6,0,108,12,,,,,,,,,,,,,,,,,,,,,,,,main,2,2,2,neutral,negative,l,l,1,0.8250991999993857,361.3750509999991,362.378969899999,362.3574529999987,None,361.3750509999991,None,361.3750509999991,None,361.3750509999991,None,363.1764601500001,None,363.1764601500001,None,363.1764601500001,None,,,,,,,,,,,221,25,Male,2022-05-20_15h54.06.117,Main,2022.1.1,60.03478415387687,
negative,positive,1,j,l,,,,,,,,,6,1,109,6,,,,,,,,,,,,,,,,,,,,,,,,main,1,1,1,positive,negative,l,l,1,0.9124203999999736,363.2027679999992,364.22563679999985,364.1834882000003,None,363.2027679999992,None,363.2027679999992,None,363.2027679999992,None,365.09097324999874,None,365.09097324999874,None,365.09097324999874,None,,,,,,,,,,,221,25,Male,2022-05-20_15h54.06.117,Main,2022.1.1,60.03478415387687,
positive,negative,2,l,j,,,,,,,,,6,2,110,14,,,,,,,,,,,,,,,,,,,,,,,,main,2,2,2,negative,positive,j,j,1,0.7621558999999252,365.1214425999988,366.14028340000004,366.09753289999935,None,365.1214425999988,None,365.1214425999988,None,365.1214425999988,None,366.85612814999894,None,366.85612814999894,None,366.85612814999894,None,,,,,,,,,,,221,25,Male,2022-05-20_15h54.06.117,Main,2022.1.1,60.03478415387687,
negative,negative,2,j,l,,,,,,,,,6,3,111,9,,,,,,,,,,,,,,,,,,,,,,,,main,2,2,2,negative,negative,l,l,1,0.9553028999998787,366.88119149999875,367.88818569999967,367.8674801999987,None,366.88119149999875,None,366.88119149999875,None,366.88119149999875,None,368.8155265499992,None,368.8155265499992,None,368.8155265499992,None,,,,,,,,,,,221,25,Male,2022-05-20_15h54.06.117,Main,2022.1.1,60.03478415387687,
negative,negative,1,j,l,,,,,,,,,6,4,112,0,,,,,,,,,,,,,,,,,,,,,,,,main,1,1,1,negative,negative,l,l,1,0.768620999999257,368.84387889999925,369.86657279999963,369.82408039999973,None,368.84387889999925,None,368.84387889999925,None,368.84387889999925,None,370.5874088499988,None,370.5874088499988,None,370.5874088499988,None,,,,,,,,,,,221,25,Male,2022-05-20_15h54.06.117,Main,2022.1.1,60.03478415387687,
positive,negative,1,l,j,,,,,,,,,6,5,113,5,,,,,,,,,,,,,,,,,,,,,,,,main,2,2,1,negative,positive,j,j,1,0.8745708000005834,370.61387399999876,371.623528099999,371.6026382,None,370.61387399999876,None,370.61387399999876,None,370.61387399999876,None,372.4676154499995,None,372.4676154499995,None,372.4676154499995,None,,,,,,,,,,,221,25,Male,2022-05-20_15h54.06.117,Main,2022.1.1,60.03478415387687,
negative,neutral,1,j,l,,,,,,,,,6,6,114,3,,,,,,,,,,,,,,,,,,,,,,,,main,2,2,1,neutral,negative,l,l,1,0.8949943000006897,372.4918741999991,373.5046093000001,373.483172799999,None,372.4918741999991,None,372.4918741999991,None,372.4918741999991,None,374.36389755,None,374.36389755,None,374.36389755,None,,,,,,,,,,,221,25,Male,2022-05-20_15h54.06.117,Main,2022.1.1,60.03478415387687,
neutral,positive,2,k,k,,,,,,,,,6,7,115,13,,,,,,,,,,,,,,,,,,,,,,,,main,1,1,2,positive,neutral,k,k,1,0.6951702000005753,374.3907559999989,375.4149603999995,375.3698644999986,None,374.3907559999989,None,374.3907559999989,None,374.3907559999989,None,376.0624706499986,None,376.0624706499986,None,376.0624706499986,None,,,,,,,,,,,221,25,Male,2022-05-20_15h54.06.117,Main,2022.1.1,60.03478415387687,
positive,positive,2,l,j,,,,,,,,,6,8,116,11,,,,,,,,,,,,,,,,,,,,,,,,main,1,1,2,positive,positive,j,j,1,0.883850899999743,376.0866864999989,377.0941834999994,377.07364659999985,None,376.0866864999989,None,376.0866864999989,None,376.0866864999989,None,377.95113684999905,None,377.95113684999905,None,377.95113684999905,None,,,,,,,,,,,221,25,Male,2022-05-20_15h54.06.117,Main,2022.1.1,60.03478415387687,
neutral,negative,1,k,k,,,,,,,,,6,9,117,7,,,,,,,,,,,,,,,,,,,,,,,,main,1,1,1,negative,neutral,k,k,1,0.7230011999999988,377.97625659999903,378.98244779999914,378.9612769999985,None,377.97625659999903,None,377.97625659999903,None,377.97625659999903,None,379.6743372499988,None,379.6743372499988,None,379.6743372499988,None,,,,,,,,,,,221,25,Male,2022-05-20_15h54.06.117,Main,2022.1.1,60.03478415387687,
neutral,positive,1,k,k,,,,,,,,,6,10,118,4,,,,,,,,,,,,,,,,,,,,,,,,main,2,2,1,positive,neutral,k,k,1,0.809292899999491,379.7025154999992,380.7133875999989,380.6922967999999,None,379.7025154999992,None,379.7025154999992,None,379.7025154999992,None,381.48742315,None,381.48742315,None,381.48742315,None,,,,,,,,,,,221,25,Male,2022-05-20_15h54.06.117,Main,2022.1.1,60.03478415387687,
negative,positive,2,j,l,,,,,,,,,6,11,119,15,,,,,,,,,,,,,,,,,,,,,,,,main,2,2,2,positive,negative,l,l,1,0.9179902000014408,381.5143929999995,382.5291961999992,382.50879799999893,None,381.5143929999995,None,381.5143929999995,None,381.5143929999995,None,383.40946144999924,None,383.40946144999924,None,383.40946144999924,None,,,,,,,,,,,221,25,Male,2022-05-20_15h54.06.117,Main,2022.1.1,60.03478415387687,
positive,positive,1,l,j,,,,,,,,,6,12,120,2,,,,,,,,,,,,,,,,,,,,,,,,main,2,2,1,positive,positive,j,j,1,0.7810693999999785,383.4372432,384.44167670000024,384.4201627000002,None,383.4372432,None,383.4372432,None,383.4372432,None,385.1926351499989,None,385.1926351499989,None,385.1926351499989,None,,,,,,,,,,,221,25,Male,2022-05-20_15h54.06.117,Main,2022.1.1,60.03478415387687,
neutral,neutral,2,k,k,,,,,,,,,6,13,121,10,,,,,,,,,,,,,,,,,,,,,,,,main,2,2,2,neutral,neutral,k,k,1,0.7459151999992173,385.2226458999994,386.2306974000003,386.2108423999998,None,385.2226458999994,None,385.2226458999994,None,385.2226458999994,None,386.9420954500003,None,386.9420954500003,None,386.9420954500003,None,,,,,,,,,,,221,25,Male,2022-05-20_15h54.06.117,Main,2022.1.1,60.03478415387687,
positive,neutral,1,l,j,,,,,,,,,6,14,122,8,,,,,,,,,,,,,,,,,,,,,,,,main,2,2,1,neutral,positive,j,j,1,0.7768685000010009,386.96932709999965,387.974854099999,387.9538126999996,None,386.96932709999965,None,386.96932709999965,None,386.96932709999965,None,388.7235669499989,None,388.7235669499989,None,388.7235669499989,None,,,,,,,,,,,221,25,Male,2022-05-20_15h54.06.117,Main,2022.1.1,60.03478415387687,
positive,neutral,2,l,j,,,,,,,,,6,15,123,17,,,,,,,,,,,,,,,,,,,,,,,,main,1,1,2,neutral,positive,j,j,1,1.0141064999988885,388.7493641000001,389.7748432999997,389.730544,None,388.7493641000001,None,388.7493641000001,None,388.7493641000001,None,390.737503049999,None,390.737503049999,None,390.737503049999,None,,,,,,,,,,,221,25,Male,2022-05-20_15h54.06.117,Main,2022.1.1,60.03478415387687,
neutral,negative,2,k,k,,,,,,,,,6,16,124,16,,,,,,,,,,,,,,,,,,,,,,,,main,1,1,2,negative,neutral,k,k,1,0.7066104000004998,390.7642657999986,391.7807565000003,391.7610264999985,None,390.7642657999986,None,390.7642657999986,None,390.7642657999986,None,392.4505161500003,None,392.4505161500003,None,392.4505161500003,None,,,,,,,,,,,221,25,Male,2022-05-20_15h54.06.117,Main,2022.1.1,60.03478415387687,
neutral,neutral,1,k,k,,,,,,,,,6,17,125,1,,,,,,,,,,,,,,,,,,,,,,,,main,2,2,1,neutral,neutral,k,k,1,0.7236459999985527,392.47738539999955,393.4811161999987,393.4600324000003,None,392.47738539999955,None,392.47738539999955,None,392.47738539999955,None,394.17847155,None,394.17847155,None,394.17847155,None,,,,,,,,,,,221,25,Male,2022-05-20_15h54.06.117,Main,2022.1.1,60.03478415387687,
neutral,negative,2,k,k,,,,,,,,,7,0,126,16,,,,,,,,,,,,,,,,,,,,,,,,main,1,1,2,negative,neutral,k,k,1,0.7674506999992445,394.20282469999984,395.217629499999,395.19749129999946,None,394.20282469999984,None,394.20282469999984,None,394.20282469999984,None,395.95052374999995,None,395.95052374999995,None,395.95052374999995,None,,,,,,,,,,,221,25,Male,2022-05-20_15h54.06.117,Main,2022.1.1,60.03478415387687,
negative,neutral,2,j,l,,,,,,,,,7,1,127,12,,,,,,,,,,,,,,,,,,,,,,,,main,2,2,2,neutral,negative,l,l,1,0.8683053000004293,395.9770848999997,397.00112590000026,396.958916399999,None,395.9770848999997,None,395.9770848999997,None,395.9770848999997,None,397.8212517499998,None,397.8212517499998,None,397.8212517499998,None,,,,,,,,,,,221,25,Male,2022-05-20_15h54.06.117,Main,2022.1.1,60.03478415387687,
neutral,positive,1,k,k,,,,,,,,,7,2,128,4,,,,,,,,,,,,,,,,,,,,,,,,main,2,2,1,positive,neutral,k,k,1,0.7349113000000216,397.8469924000001,398.87286459999996,398.8286640999995,None,397.8469924000001,None,397.8469924000001,None,397.8469924000001,None,399.5625924500002,None,399.5625924500002,None,399.5625924500002,None,,,,,,,,,,,221,25,Male,2022-05-20_15h54.06.117,Main,2022.1.1,60.03478415387687,
negative,negative,2,j,l,,,,,,,,,7,3,129,9,,,,,,,,,,,,,,,,,,,,,,,,main,1,1,2,negative,negative,l,l,1,0.9061196000002383,399.5884712999996,400.5943178999987,400.5731141999986,None,399.5884712999996,None,399.5884712999996,None,399.5884712999996,None,401.46896874999965,None,401.46896874999965,None,401.46896874999965,None,,,,,,,,,,,221,25,Male,2022-05-20_15h54.06.117,Main,2022.1.1,60.03478415387687,
negative,positive,1,j,l,,,,,,,,,7,4,130,6,,,,,,,,,,,,,,,,,,,,,,,,main,1,1,1,positive,negative,l,l,1,1.1370526000009704,401.49341379999896,402.5013057999986,402.4808261999988,None,401.49341379999896,None,401.49341379999896,None,401.49341379999896,None,403.60883114999905,None,403.60883114999905,None,403.60883114999905,None,,,,,,,,,,,221,25,Male,2022-05-20_15h54.06.117,Main,2022.1.1,60.03478415387687,
neutral,positive,2,k,k,,,,,,,,,7,5,131,13,,,,,,,,,,,,,,,,,,,,,,,,main,2,2,2,positive,neutral,k,k,1,0.7256653999993432,403.6372105999999,404.64147649999904,404.6217192999993,None,403.6372105999999,None,403.6372105999999,None,403.6372105999999,None,405.3363972499994,None,405.3363972499994,None,405.3363972499994,None,,,,,,,,,,,221,25,Male,2022-05-20_15h54.06.117,Main,2022.1.1,60.03478415387687,
negative,positive,2,j,l,,,,,,,,,7,6,132,15,,,,,,,,,,,,,,,,,,,,,,,,main,2,2,2,positive,negative,l,l,1,0.7680118999996921,405.36203749999913,406.41315829999985,406.41315829999985,None,405.36203749999913,None,405.36203749999913,None,405.36203749999913,None,407.1074785499988,None,407.1074785499988,None,407.1074785499988,None,,,,,,,,,,,221,25,Male,2022-05-20_15h54.06.117,Main,2022.1.1,60.03478415387687,
positive,positive,1,l,j,,,,,,,,,7,7,133,2,,,,,,,,,,,,,,,,,,,,,,,,main,2,2,1,positive,positive,j,j,1,0.6475995000000694,407.13779799999975,408.15077409999867,408.12975539999934,None,407.13779799999975,None,407.13779799999975,None,407.13779799999975,None,408.7599666499993,None,408.7599666499993,None,408.7599666499993,None,,,,,,,,,,,221,25,Male,2022-05-20_15h54.06.117,Main,2022.1.1,60.03478415387687,
positive,neutral,2,l,j,,,,,,,,,7,8,134,17,,,,,,,,,,,,,,,,,,,,,,,,main,2,2,2,neutral,positive,j,j,1,0.7338500000005297,408.78795699999864,409.80013959999997,409.7792866999989,None,408.78795699999864,None,408.78795699999864,None,408.78795699999864,None,410.4980429499994,None,410.4980429499994,None,410.4980429499994,None,,,,,,,,,,,221,25,Male,2022-05-20_15h54.06.117,Main,2022.1.1,60.03478415387687,
negative,negative,1,j,l,,,,,,,,,7,9,135,0,,,,,,,,,,,,,,,,,,,,,,,,main,1,1,1,negative,negative,l,l,1,0.7998762000006536,410.52383480000026,411.54356949999965,411.5031842999997,None,410.52383480000026,None,410.52383480000026,None,410.52383480000026,None,412.3017665499994,None,412.3017665499994,None,412.3017665499994,None,,,,,,,,,,,221,25,Male,2022-05-20_15h54.06.117,Main,2022.1.1,60.03478415387687,
neutral,neutral,1,k,k,,,,,,,,,7,10,136,1,,,,,,,,,,,,,,,,,,,,,,,,main,1,1,1,neutral,neutral,k,k,1,0.7710108999999647,412.32611050000014,413.3295724999989,413.3085210999998,None,412.32611050000014,None,412.32611050000014,None,412.32611050000014,None,414.07781294999967,None,414.07781294999967,None,414.07781294999967,None,,,,,,,,,,,221,25,Male,2022-05-20_15h54.06.117,Main,2022.1.1,60.03478415387687,
negative,neutral,1,j,l,,,,,,,,,7,11,137,3,,,,,,,,,,,,,,,,,,,,,,,,main,2,2,1,neutral,negative,l,l,1,0.8295206000002509,414.1033663999988,415.126728199999,415.10474429999886,None,414.1033663999988,None,414.1033663999988,None,414.1033663999988,None,415.90751134999863,None,415.90751134999863,None,415.90751134999863,None,,,,,,,,,,,221,25,Male,2022-05-20_15h54.06.117,Main,2022.1.1,60.03478415387687,
neutral,neutral,2,k,k,,,,,,,,,7,12,138,10,,,,,,,,,,,,,,,,,,,,,,,,main,1,1,2,neutral,neutral,k,k,1,0.8456358999992517,415.9338656,416.9433054000001,416.9226944999991,None,415.9338656,None,415.9338656,None,415.9338656,None,417.75740454999885,None,417.75740454999885,None,417.75740454999885,None,,,,,,,,,,,221,25,Male,2022-05-20_15h54.06.117,Main,2022.1.1,60.03478415387687,
positive,positive,2,l,j,,,,,,,,,7,13,139,11,,,,,,,,,,,,,,,,,,,,,,,,main,1,1,2,positive,positive,j,j,1,0.9500838000003569,417.78031329999976,418.7933142999991,418.7731040999988,None,417.78031329999976,None,417.78031329999976,None,417.78031329999976,None,419.71367834999927,None,419.71367834999927,None,419.71367834999927,None,,,,,,,,,,,221,25,Male,2022-05-20_15h54.06.117,Main,2022.1.1,60.03478415387687,
positive,neutral,1,l,j,,,,,,,,,7,14,140,8,,,,,,,,,,,,,,,,,,,,,,,,main,1,1,1,neutral,positive,j,j,1,0.7506684999989375,419.73587309999857,420.7443790999987,420.7239738999997,None,419.73587309999857,None,419.73587309999857,None,419.73587309999857,None,421.46511024999944,None,421.46511024999944,None,421.46511024999944,None,,,,,,,,,,,221,25,Male,2022-05-20_15h54.06.117,Main,2022.1.1,60.03478415387687,
positive,negative,2,l,j,,,,,,,,,7,15,141,14,,,,,,,,,,,,,,,,,,,,,,,,main,1,1,2,negative,positive,j,j,1,0.6357883000000584,421.4970830000002,422.5075675999997,422.4881207999988,None,421.4970830000002,None,421.4970830000002,None,421.4970830000002,None,423.1043979499993,None,423.1043979499993,None,423.1043979499993,None,,,,,,,,,,,221,25,Male,2022-05-20_15h54.06.117,Main,2022.1.1,60.03478415387687,
neutral,negative,1,k,k,,,,,,,,,7,16,142,7,,,,,,,,,,,,,,,,,,,,,,,,main,2,2,1,negative,neutral,k,k,1,0.7608417999999801,423.1313773999991,424.14597630000026,424.12529489999906,None,423.1313773999991,None,423.1313773999991,None,423.1313773999991,None,424.8688280499993,None,424.8688280499993,None,424.8688280499993,None,,,,,,,,,,,221,25,Male,2022-05-20_15h54.06.117,Main,2022.1.1,60.03478415387687,
positive,negative,1,l,j,,,,,,,,,7,17,143,5,,,,,,,,,,,,,,,,,,,,,,,,main,2,2,1,negative,positive,j,j,1,0.907051500000307,424.8938204999995,425.9102325999993,425.886970399999,None,424.8938204999995,None,424.8938204999995,None,424.8938204999995,None,426.77849584999984,None,426.77849584999984,None,426.77849584999984,None,,,,,,,,,,,221,25,Male,2022-05-20_15h54.06.117,Main,2022.1.1,60.03478415387687,
positive,neutral,2,l,j,,,,,,,,,8,0,144,17,,,,,,,,,,,,,,,,,,,,,,,,main,1,1,2,neutral,positive,j,j,1,0.7896447999992233,426.80581859999984,427.8218763999994,427.8011073999987,None,426.80581859999984,None,426.80581859999984,None,426.80581859999984,None,428.57289005,None,428.57289005,None,428.57289005,None,,,,,,,,,,,221,25,Male,2022-05-20_15h54.06.117,Main,2022.1.1,60.03478415387687,
negative,negative,1,j,l,,,,,,,,,8,1,145,0,,,,,,,,,,,,,,,,,,,,,,,,main,1,1,1,negative,negative,l,l,1,0.7906449000001885,428.5971019999997,429.61860720000004,429.57431779999933,None,428.5971019999997,None,428.5971019999997,None,428.5971019999997,None,430.36643784999995,None,430.36643784999995,None,430.36643784999995,None,,,,,,,,,,,221,25,Male,2022-05-20_15h54.06.117,Main,2022.1.1,60.03478415387687,
positive,negative,1,l,j,,,,,,,,,8,2,146,5,,,,,,,,,,,,,,,,,,,,,,,,main,1,1,1,negative,positive,j,j,1,0.6950675999996747,430.39880129999983,431.40407369999957,431.38323949999904,None,430.39880129999983,None,430.39880129999983,None,430.39880129999983,None,432.0651124500002,None,432.0651124500002,None,432.0651124500002,None,,,,,,,,,,,221,25,Male,2022-05-20_15h54.06.117,Main,2022.1.1,60.03478415387687,
positive,negative,2,l,j,,,,,,,,,8,3,147,14,,,,,,,,,,,,,,,,,,,,,,,,main,2,2,2,negative,positive,j,j,1,0.7040913000000728,432.09520469999916,433.10140630000024,433.08015199999863,None,432.09520469999916,None,432.09520469999916,None,432.09520469999916,None,433.7735027499986,None,433.7735027499986,None,433.7735027499986,None,,,,,,,,,,,221,25,Male,2022-05-20_15h54.06.117,Main,2022.1.1,60.03478415387687,
negative,positive,1,j,l,,,,,,,,,8,4,148,6,,,,,,,,,,,,,,,,,,,,,,,,main,1,1,1,positive,negative,l,l,1,0.6657998000009684,433.8000009999996,434.8193749000002,434.77877929999886,None,433.8000009999996,None,433.8000009999996,None,433.8000009999996,None,435.4418009499988,None,435.4418009499988,None,435.4418009499988,None,,,,,,,,,,,221,25,Male,2022-05-20_15h54.06.117,Main,2022.1.1,60.03478415387687,
neutral,positive,2,k,k,,,,,,,,,8,5,149,13,,,,,,,,,,,,,,,,,,,,,,,,main,2,2,2,positive,neutral,k,k,1,0.7381547999993927,435.4717664,436.48993189999965,436.4521287999996,None,435.4717664,None,435.4717664,None,435.4717664,None,437.18609144999954,None,437.18609144999954,None,437.18609144999954,None,,,,,,,,,,,221,25,Male,2022-05-20_15h54.06.117,Main,2022.1.1,60.03478415387687,
neutral,negative,2,k,k,,,,,,,,,8,6,150,16,,,,,,,,,,,,,,,,,,,,,,,,main,2,2,2,negative,neutral,k,k,1,0.6276439000012033,437.2097546999994,438.22568069999943,438.20548619999863,None,437.2097546999994,None,437.2097546999994,None,437.2097546999994,None,438.8158665499997,None,438.8158665499997,None,438.8158665499997,None,,,,,,,,,,,221,25,Male,2022-05-20_15h54.06.117,Main,2022.1.1,60.03478415387687,
neutral,neutral,1,k,k,,,,,,,,,8,7,151,1,,,,,,,,,,,,,,,,,,,,,,,,main,2,2,1,neutral,neutral,k,k,1,0.6238778999995702,438.8416774999987,439.86311249999926,439.8203754999995,None,438.8416774999987,None,438.8416774999987,None,438.8416774999987,None,440.4451509499997,None,440.4451509499997,None,440.4451509499997,None,,,,,,,,,,,221,25,Male,2022-05-20_15h54.06.117,Main,2022.1.1,60.03478415387687,
neutral,neutral,2,k,k,,,,,,,,,8,8,152,10,,,,,,,,,,,,,,,,,,,,,,,,main,2,2,2,neutral,neutral,k,k,1,0.6533699999999953,440.46982409999873,441.4876183999986,441.4659795999996,None,440.46982409999873,None,440.46982409999873,None,440.46982409999873,None,442.10141605000007,None,442.10141605000007,None,442.10141605000007,None,,,,,,,,,,,221,25,Male,2022-05-20_15h54.06.117,Main,2022.1.1,60.03478415387687,
negative,neutral,2,j,l,,,,,,,,,8,9,153,12,,,,,,,,,,,,,,,,,,,,,,,,main,1,1,2,neutral,negative,l,l,1,0.8582238000017242,442.12899539999853,443.15188820000003,443.1111903000001,None,442.12899539999853,None,442.12899539999853,None,442.12899539999853,None,443.9648223499991,None,443.9648223499991,None,443.9648223499991,None,,,,,,,,,,,221,25,Male,2022-05-20_15h54.06.117,Main,2022.1.1,60.03478415387687,
negative,negative,2,j,l,,,,,,,,,8,10,154,9,,,,,,,,,,,,,,,,,,,,,,,,main,1,1,2,negative,negative,l,l,1,0.8250960999994277,443.99805259999994,445.02018549999957,444.9799484999985,None,443.99805259999994,None,443.99805259999994,None,443.99805259999994,None,445.7949635499992,None,445.7949635499992,None,445.7949635499992,None,,,,,,,,,,,221,25,Male,2022-05-20_15h54.06.117,Main,2022.1.1,60.03478415387687,
positive,positive,2,l,j,,,,,,,,,8,11,155,11,,,,,,,,,,,,,,,,,,,,,,,,main,1,1,2,positive,positive,j,j,1,0.5932068000001891,445.8221943999997,446.8442552999986,446.8018651000002,None,445.8221943999997,None,445.8221943999997,None,445.8221943999997,None,447.39282004999967,None,447.39282004999967,None,447.39282004999967,None,,,,,,,,,,,221,25,Male,2022-05-20_15h54.06.117,Main,2022.1.1,60.03478415387687,
neutral,positive,1,k,k,,,,,,,,,8,12,156,4,,,,,,,,,,,,,,,,,,,,,,,,main,2,2,1,positive,neutral,k,k,1,0.7523402999995596,447.42092559999946,448.4322954999989,448.41193289999865,None,447.42092559999946,None,447.42092559999946,None,447.42092559999946,None,449.1486458499987,None,449.1486458499987,None,449.1486458499987,None,,,,,,,,,,,221,25,Male,2022-05-20_15h54.06.117,Main,2022.1.1,60.03478415387687,
negative,neutral,1,j,l,,,,,,,,,8,13,157,3,,,,,,,,,,,,,,,,,,,,,,,,main,2,2,1,neutral,negative,l,l,1,0.7478126000005432,449.17601829999876,450.18039879999924,450.159255999999,None,449.17601829999876,None,449.17601829999876,None,449.17601829999876,None,450.90063124999887,None,450.90063124999887,None,450.90063124999887,None,,,,,,,,,,,221,25,Male,2022-05-20_15h54.06.117,Main,2022.1.1,60.03478415387687,
neutral,negative,1,k,k,,,,,,,,,8,14,158,7,,,,,,,,,,,,,,,,,,,,,,,,main,2,2,1,negative,neutral,k,k,1,0.6513347999989492,450.92806029999883,451.93298309999955,451.9133925999995,None,450.92806029999883,None,450.92806029999883,None,450.92806029999883,None,452.5546712500001,None,452.5546712500001,None,452.5546712500001,None,,,,,,,,,,,221,25,Male,2022-05-20_15h54.06.117,Main,2022.1.1,60.03478415387687,
positive,neutral,1,l,j,,,,,,,,,8,15,159,8,,,,,,,,,,,,,,,,,,,,,,,,main,1,1,1,neutral,positive,j,j,1,0.6639828000006673,452.58319370000027,453.58817259999887,453.56941019999977,None,452.58319370000027,None,452.58319370000027,None,452.58319370000027,None,454.2222334500004,None,454.2222334500004,None,454.2222334500004,None,,,,,,,,,,,221,25,Male,2022-05-20_15h54.06.117,Main,2022.1.1,60.03478415387687,
positive,positive,1,l,j,,,,,,,,,8,16,160,2,,,,,,,,,,,,,,,,,,,,,,,,main,1,1,1,positive,positive,j,j,1,0.7475344000013138,454.2514644999992,455.2580675999998,455.2382705,None,454.2514644999992,None,454.2514644999992,None,454.2514644999992,None,455.96924704999964,None,455.96924704999964,None,455.96924704999964,None,,,,,,,,,,,221,25,Male,2022-05-20_15h54.06.117,Main,2022.1.1,60.03478415387687,
negative,positive,2,j,l,,,,,,,,,8,17,161,15,,,,,,,,,,,,,,,,,,,,,,,,main,2,2,2,positive,negative,l,l,1,0.8977794000002177,456.00141189999886,457.01527199999873,456.9931906999991,None,456.00141189999886,None,456.00141189999886,None,456.00141189999886,None,457.87476394999993,None,457.87476394999993,None,457.87476394999993,None,,,,,,,,,,,221,25,Male,2022-05-20_15h54.06.117,Main,2022.1.1,60.03478415387687,
negative,negative,2,j,l,,,,,,,,,9,0,162,9,,,,,,,,,,,,,,,,,,,,,,,,main,2,2,2,negative,negative,l,l,1,0.7284249999993335,457.90777890000027,458.9159017000002,458.8958853999993,None,457.90777890000027,None,457.90777890000027,None,457.90777890000027,None,459.6088796499991,None,459.6088796499991,None,459.6088796499991,None,,,,,,,,,,,221,25,Male,2022-05-20_15h54.06.117,Main,2022.1.1,60.03478415387687,
positive,neutral,1,l,j,,,,,,,,,9,1,163,8,,,,,,,,,,,,,,,,,,,,,,,,main,1,1,1,neutral,positive,j,j,1,0.6544733000009728,459.6354166000001,460.64106679999895,460.61868969999887,None,459.6354166000001,None,459.6354166000001,None,459.6354166000001,None,461.26618004999926,None,461.26618004999926,None,461.26618004999926,None,,,,,,,,,,,221,25,Male,2022-05-20_15h54.06.117,Main,2022.1.1,60.03478415387687,
positive,positive,1,l,j,,,,,,,,,9,2,164,2,,,,,,,,,,,,,,,,,,,,,,,,main,2,2,1,positive,positive,j,j,1,0.6484218999994482,461.29337750000013,462.30443529999866,462.2842915000001,None,461.29337750000013,None,461.29337750000013,None,461.29337750000013,None,462.9186714499994,None,462.9186714499994,None,462.9186714499994,None,,,,,,,,,,,221,25,Male,2022-05-20_15h54.06.117,Main,2022.1.1,60.03478415387687,
neutral,positive,2,k,k,,,,,,,,,9,3,165,13,,,,,,,,,,,,,,,,,,,,,,,,main,1,1,2,positive,neutral,k,k,1,0.743619500000932,462.9440434999997,463.96281799999997,463.9402304999985,None,462.9440434999997,None,462.9440434999997,None,462.9440434999997,None,464.6789123000002,None,464.6789123000002,None,464.6789123000002,None,,,,,,,,,,,221,25,Male,2022-05-20_15h54.06.117,Main,2022.1.1,60.03478415387687,
neutral,positive,1,k,k,,,,,,,,,9,4,166,4,,,,,,,,,,,,,,,,,,,,,,,,main,1,1,1,positive,neutral,k,k,1,0.7803981999986718,464.6977201999998,465.7124229000001,465.68997259999924,None,464.6977201999998,None,464.6977201999998,None,464.6977201999998,None,466.4498986499986,None,466.4498986499986,None,466.4498986499986,None,,,,,,,,,,,221,25,Male,2022-05-20_15h54.06.117,Main,2022.1.1,60.03478415387687,
positive,neutral,2,l,j,,,,,,,,,9,5,167,17,,,,,,,,,,,,,,,,,,,,,,,,main,1,1,2,neutral,positive,j,j,1,0.8473312000005535,466.4765592999993,467.4837467999987,467.4637411999993,None,466.4765592999993,None,466.4765592999993,None,466.4765592999993,None,468.2988402499997,None,468.2988402499997,None,468.2988402499997,None,,,,,,,,,,,221,25,Male,2022-05-20_15h54.06.117,Main,2022.1.1,60.03478415387687,
positive,negative,1,l,j,,,,,,,,,9,6,168,5,,,,,,,,,,,,,,,,,,,,,,,,main,2,2,1,negative,positive,j,l,0,0.9781241000000591,468.33127929999864,469.33853369999997,469.3184442999991,None,468.33127929999864,None,468.33127929999864,None,468.33127929999864,None,470.2890976999988,None,470.2890976999988,None,470.2890976999988,None,,,,,,,,,,,221,25,Male,2022-05-20_15h54.06.117,Main,2022.1.1,60.03478415387687,
positive,positive,2,l,j,,,,,,,,,9,7,169,11,,,,,,,,,,,,,,,,,,,,,,,,main,2,2,2,positive,positive,j,j,1,0.7781236000009812,471.30607469999995,472.3230203999992,472.30183899999975,None,471.30607469999995,None,471.30607469999995,None,471.30607469999995,None,473.0567241499995,None,473.0567241499995,None,473.0567241499995,None,,,,,,,,,,,221,25,Male,2022-05-20_15h54.06.117,Main,2022.1.1,60.03478415387687,
neutral,negative,1,k,k,,,,,,,,,9,8,170,7,,,,,,,,,,,,,,,,,,,,,,,,main,1,1,1,negative,neutral,k,k,1,0.7220134999988659,473.0881911999986,474.11342179999883,474.0687098999988,None,473.0881911999986,None,473.0881911999986,None,473.0881911999986,None,474.7838251499999,None,474.7838251499999,None,474.7838251499999,None,,,,,,,,,,,221,25,Male,2022-05-20_15h54.06.117,Main,2022.1.1,60.03478415387687,
positive,negative,2,l,j,,,,,,,,,9,9,171,14,,,,,,,,,,,,,,,,,,,,,,,,main,2,2,2,negative,positive,j,j,1,0.9193875000000844,474.81259169999976,475.81719389999853,475.7978812000001,None,474.81259169999976,None,474.81259169999976,None,474.81259169999976,None,476.70839364999864,None,476.70839364999864,None,476.70839364999864,None,,,,,,,,,,,221,25,Male,2022-05-20_15h54.06.117,Main,2022.1.1,60.03478415387687,
negative,positive,2,j,l,,,,,,,,,9,10,172,15,,,,,,,,,,,,,,,,,,,,,,,,main,2,2,2,positive,negative,l,l,1,0.8207392000003892,476.7413641000003,477.74836419999883,477.7283830999986,None,476.7413641000003,None,476.7413641000003,None,476.7413641000003,None,478.5348481499988,None,478.5348481499988,None,478.5348481499988,None,,,,,,,,,,,221,25,Male,2022-05-20_15h54.06.117,Main,2022.1.1,60.03478415387687,
neutral,negative,2,k,k,,,,,,,,,9,11,173,16,,,,,,,,,,,,,,,,,,,,,,,,main,2,2,2,negative,neutral,k,k,1,0.7732778999998118,478.56169149999914,479.5829469,479.54261959999894,None,478.56169149999914,None,478.56169149999914,None,478.56169149999914,None,480.30754364999865,None,480.30754364999865,None,480.30754364999865,None,,,,,,,,,,,221,25,Male,2022-05-20_15h54.06.117,Main,2022.1.1,60.03478415387687,
negative,positive,1,j,l,,,,,,,,,9,12,174,6,,,,,,,,,,,,,,,,,,,,,,,,main,2,2,1,positive,negative,l,l,1,0.8717114999999467,480.3404129999999,481.3571476999987,481.33542829999897,None,480.3404129999999,None,480.3404129999999,None,480.3404129999999,None,482.1866674499999,None,482.1866674499999,None,482.1866674499999,None,,,,,,,,,,,221,25,Male,2022-05-20_15h54.06.117,Main,2022.1.1,60.03478415387687,
negative,neutral,1,j,l,,,,,,,,,9,13,175,3,,,,,,,,,,,,,,,,,,,,,,,,main,2,2,1,neutral,negative,l,l,1,0.7500979999986157,482.2112854999996,483.2154879999998,483.19528639999953,None,482.2112854999996,None,482.2112854999996,None,482.2112854999996,None,483.9386162499997,None,483.9386162499997,None,483.9386162499997,None,,,,,,,,,,,221,25,Male,2022-05-20_15h54.06.117,Main,2022.1.1,60.03478415387687,
negative,neutral,2,j,l,,,,,,,,,9,14,176,12,,,,,,,,,,,,,,,,,,,,,,,,main,1,1,2,neutral,negative,l,l,1,1.025021999999808,483.96705029999976,484.9784516999989,484.95598249999966,None,483.96705029999976,None,483.96705029999976,None,483.96705029999976,None,485.9662471499998,None,485.9662471499998,None,485.9662471499998,None,,,,,,,,,,,221,25,Male,2022-05-20_15h54.06.117,Main,2022.1.1,60.03478415387687,
neutral,neutral,1,k,k,,,,,,,,,9,15,177,1,,,,,,,,,,,,,,,,,,,,,,,,main,2,2,1,neutral,neutral,k,k,1,0.8114148999993631,485.99457489999986,487.01210399999945,486.9923203999988,None,485.99457489999986,None,485.99457489999986,None,485.99457489999986,None,487.78354665000023,None,487.78354665000023,None,487.78354665000023,None,,,,,,,,,,,221,25,Male,2022-05-20_15h54.06.117,Main,2022.1.1,60.03478415387687,
negative,negative,1,j,l,,,,,,,,,9,16,178,0,,,,,,,,,,,,,,,,,,,,,,,,main,1,1,1,negative,negative,l,l,1,0.7054946000007476,487.8091196999994,488.81502550000005,488.7950581999994,None,487.8091196999994,None,487.8091196999994,None,487.8091196999994,None,489.48776744999867,None,489.48776744999867,None,489.48776744999867,None,,,,,,,,,,,221,25,Male,2022-05-20_15h54.06.117,Main,2022.1.1,60.03478415387687,
neutral,neutral,2,k,k,,,,,,,,,9,17,179,10,,,,,,,,,,,,,,,,,,,,,,,,main,2,2,2,neutral,neutral,k,k,1,0.7486827000011544,489.52054849999877,490.54524729999866,490.50274629999876,None,489.52054849999877,None,489.52054849999877,None,489.52054849999877,None,491.24150734999984,None,491.24150734999984,None,491.24150734999984,None,,,,,,,,,,,221,25,Male,2022-05-20_15h54.06.117,Main,2022.1.1,60.03478415387687,
negative,negative,2,j,l,,,,,,,,,10,0,180,9,,,,,,,,,,,,,,,,,,,,,,,,main,2,2,2,negative,negative,l,l,1,0.775667699999758,491.2682731999994,492.2778696999994,492.257856799999,None,491.2682731999994,None,491.2682731999994,None,491.2682731999994,None,493.0219894499989,None,493.0219894499989,None,493.0219894499989,None,,,,,,,,,,,221,25,Male,2022-05-20_15h54.06.117,Main,2022.1.1,60.03478415387687,
positive,positive,2,l,j,,,,,,,,,10,1,181,11,,,,,,,,,,,,,,,,,,,,,,,,main,2,2,2,positive,positive,j,j,1,0.8209483999999065,493.0561480999986,494.06234829999994,494.0413558,None,493.0561480999986,None,493.0561480999986,None,493.0561480999986,None,494.84510914999936,None,494.84510914999936,None,494.84510914999936,None,,,,,,,,,,,221,25,Male,2022-05-20_15h54.06.117,Main,2022.1.1,60.03478415387687,
negative,positive,2,j,l,,,,,,,,,10,2,182,15,,,,,,,,,,,,,,,,,,,,,,,,main,2,2,2,positive,negative,l,l,1,0.8168330999997124,494.873905299999,495.8850076999988,495.86388869999973,None,494.873905299999,None,494.873905299999,None,494.873905299999,None,496.66649245000025,None,496.66649245000025,None,496.66649245000025,None,,,,,,,,,,,221,25,Male,2022-05-20_15h54.06.117,Main,2022.1.1,60.03478415387687,
neutral,positive,1,k,k,,,,,,,,,10,3,183,4,,,,,,,,,,,,,,,,,,,,,,,,main,1,1,1,positive,neutral,k,k,1,0.7566934000005858,496.69507410000006,497.71095499999865,497.69074009999895,None,496.69507410000006,None,496.69507410000006,None,496.69507410000006,None,498.4256644500003,None,498.4256644500003,None,498.4256644500003,None,,,,,,,,,,,221,25,Male,2022-05-20_15h54.06.117,Main,2022.1.1,60.03478415387687,
positive,negative,1,l,j,,,,,,,,,10,4,184,5,,,,,,,,,,,,,,,,,,,,,,,,main,2,2,1,negative,positive,j,j,1,0.5166303000005428,498.4581982999989,499.4803338999991,499.44055539999863,None,498.4581982999989,None,498.4581982999989,None,498.4581982999989,None,499.94641274999975,None,499.94641274999975,None,499.94641274999975,None,,,,,,,,,,,221,25,Male,2022-05-20_15h54.06.117,Main,2022.1.1,60.03478415387687,
neutral,negative,1,k,k,,,,,,,,,10,5,185,7,,,,,,,,,,,,,,,,,,,,,,,,main,1,1,1,negative,neutral,k,k,1,0.8579177000010532,499.9729462999985,500.98324069999944,500.9615801,None,499.9729462999985,None,499.9729462999985,None,499.9729462999985,None,501.8077018499991,None,501.8077018499991,None,501.8077018499991,None,,,,,,,,,,,221,25,Male,2022-05-20_15h54.06.117,Main,2022.1.1,60.03478415387687,
positive,positive,1,l,j,,,,,,,,,10,6,186,2,,,,,,,,,,,,,,,,,,,,,,,,main,2,2,1,positive,positive,j,j,1,0.5394974999999249,501.8317367999989,502.8481894999986,502.8250272999994,None,501.8317367999989,None,501.8317367999989,None,501.8317367999989,None,503.35053774999886,None,503.35053774999886,None,503.35053774999886,None,,,,,,,,,,,221,25,Male,2022-05-20_15h54.06.117,Main,2022.1.1,60.03478415387687,
positive,neutral,1,l,j,,,,,,,,,10,7,187,8,,,,,,,,,,,,,,,,,,,,,,,,main,1,1,1,neutral,positive,j,j,1,0.6717669000008755,503.3850748999994,504.3867731999999,504.36821210000016,None,503.3850748999994,None,503.3850748999994,None,503.3850748999994,None,505.0248069499996,None,505.0248069499996,None,505.0248069499996,None,,,,,,,,,,,221,25,Male,2022-05-20_15h54.06.117,Main,2022.1.1,60.03478415387687,
neutral,neutral,2,k,k,,,,,,,,,10,8,188,10,,,,,,,,,,,,,,,,,,,,,,,,main,2,2,2,neutral,neutral,k,k,1,0.777570399999604,505.0497599999999,506.0633702999985,506.04339549999895,None,505.0497599999999,None,505.0497599999999,None,505.0497599999999,None,506.80331055000005,None,506.80331055000005,None,506.80331055000005,None,,,,,,,,,,,221,25,Male,2022-05-20_15h54.06.117,Main,2022.1.1,60.03478415387687,
negative,neutral,1,j,l,,,,,,,,,10,9,189,3,,,,,,,,,,,,,,,,,,,,,,,,main,2,2,1,neutral,negative,l,l,1,0.6331771999994089,506.8283972999998,507.8519557999989,507.80975319999925,None,506.8283972999998,None,506.8283972999998,None,506.8283972999998,None,508.4393633499987,None,508.4393633499987,None,508.4393633499987,None,,,,,,,,,,,221,25,Male,2022-05-20_15h54.06.117,Main,2022.1.1,60.03478415387687,
positive,negative,2,l,j,,,,,,,,,10,10,190,14,,,,,,,,,,,,,,,,,,,,,,,,main,1,1,2,negative,positive,j,j,1,0.9127940999987914,508.4733938999998,509.4812471999994,509.461363299999,None,508.4733938999998,None,508.4733938999998,None,508.4733938999998,None,510.35796345000034,None,510.35796345000034,None,510.35796345000034,None,,,,,,,,,,,221,25,Male,2022-05-20_15h54.06.117,Main,2022.1.1,60.03478415387687,
neutral,neutral,1,k,k,,,,,,,,,10,11,191,1,,,,,,,,,,,,,,,,,,,,,,,,main,1,1,1,neutral,neutral,k,k,1,0.7041456999995717,510.38026979999995,511.3979557999992,511.3773876999985,None,510.38026979999995,None,510.38026979999995,None,510.38026979999995,None,512.0656958499987,None,512.0656958499987,None,512.0656958499987,None,,,,,,,,,,,221,25,Male,2022-05-20_15h54.06.117,Main,2022.1.1,60.03478415387687,
negative,negative,1,j,l,,,,,,,,,10,12,192,0,,,,,,,,,,,,,,,,,,,,,,,,main,1,1,1,negative,negative,l,l,1,0.8371769999994285,512.0930048999999,513.1131612999998,513.0752721999997,None,512.0930048999999,None,512.0930048999999,None,512.0930048999999,None,513.9056425499987,None,513.9056425499987,None,513.9056425499987,None,,,,,,,,,,,221,25,Male,2022-05-20_15h54.06.117,Main,2022.1.1,60.03478415387687,
neutral,negative,2,k,k,,,,,,,,,10,13,193,16,,,,,,,,,,,,,,,,,,,,,,,,main,1,1,2,negative,neutral,k,k,1,0.836532299999817,513.9357393999999,514.9536270999997,514.9318563999987,None,513.9357393999999,None,513.9357393999999,None,513.9357393999999,None,515.7500254499994,None,515.7500254499994,None,515.7500254499994,None,,,,,,,,,,,221,25,Male,2022-05-20_15h54.06.117,Main,2022.1.1,60.03478415387687,
positive,neutral,2,l,j,,,,,,,,,10,14,194,17,,,,,,,,,,,,,,,,,,,,,,,,main,2,2,2,neutral,positive,j,j,1,0.6152301000001899,515.7749683999991,516.7962979999993,516.7544710999991,None,515.7749683999991,None,515.7749683999991,None,515.7749683999991,None,517.3663081500001,None,517.3663081500001,None,517.3663081500001,None,,,,,,,,,,,221,25,Male,2022-05-20_15h54.06.117,Main,2022.1.1,60.03478415387687,
neutral,positive,2,k,k,,,,,,,,,10,15,195,13,,,,,,,,,,,,,,,,,,,,,,,,main,2,2,2,positive,neutral,k,k,1,0.7192611000009492,517.392414599999,518.4049501999998,518.3837284000001,None,517.392414599999,None,517.392414599999,None,517.392414599999,None,519.0883351499999,None,519.0883351499999,None,519.0883351499999,None,,,,,,,,,,,221,25,Male,2022-05-20_15h54.06.117,Main,2022.1.1,60.03478415387687,
negative,positive,1,j,l,,,,,,,,,10,16,196,6,,,,,,,,,,,,,,,,,,,,,,,,main,2,2,1,positive,negative,l,l,1,0.8147587999992538,519.1237906999995,520.1458277999991,520.1236682999988,None,519.1237906999995,None,519.1237906999995,None,519.1237906999995,None,520.9082339500003,None,520.9082339500003,None,520.9082339500003,None,,,,,,,,,,,221,25,Male,2022-05-20_15h54.06.117,Main,2022.1.1,60.03478415387687,
negative,neutral,2,j,l,,,,,,,,,10,17,197,12,,,,,,,,,,,,,,,,,,,,,,,,main,2,2,2,neutral,negative,l,l,1,0.8417095999993762,520.9330531999985,521.958536099999,521.9150279999994,None,520.9330531999985,None,520.9330531999985,None,520.9330531999985,None,522.7539354499988,None,522.7539354499988,None,522.7539354499988,None,,,,,,,,,,,221,25,Male,2022-05-20_15h54.06.117,Main,2022.1.1,60.03478415387687,
positive,negative,2,l,j,,,,,,,,,11,0,198,14,,,,,,,,,,,,,,,,,,,,,,,,main,1,1,2,negative,positive,j,j,1,0.7155280999995739,522.7781159999995,523.8028164999996,523.7586226999993,None,522.7781159999995,None,522.7781159999995,None,522.7781159999995,None,524.4716209499986,None,524.4716209499986,None,524.4716209499986,None,,,,,,,,,,,221,25,Male,2022-05-20_15h54.06.117,Main,2022.1.1,60.03478415387687,
positive,negative,1,l,j,,,,,,,,,11,1,199,5,,,,,,,,,,,,,,,,,,,,,,,,main,2,2,1,negative,positive,j,j,1,0.7175604999993084,524.5039233999996,525.5220226000001,525.5010143,None,524.5039233999996,None,524.5039233999996,None,524.5039233999996,None,526.1922119499998,None,526.1922119499998,None,526.1922119499998,None,,,,,,,,,,,221,25,Male,2022-05-20_15h54.06.117,Main,2022.1.1,60.03478415387687,
neutral,neutral,1,k,k,,,,,,,,,11,2,200,1,,,,,,,,,,,,,,,,,,,,,,,,main,2,2,1,neutral,neutral,k,k,1,0.6119032999995397,526.2196168999999,527.2357698999986,527.2115032999991,None,526.2196168999999,None,526.2196168999999,None,526.2196168999999,None,527.80572495,None,527.80572495,None,527.80572495,None,,,,,,,,,,,221,25,Male,2022-05-20_15h54.06.117,Main,2022.1.1,60.03478415387687,
neutral,negative,1,k,k,,,,,,,,,11,3,201,7,,,,,,,,,,,,,,,,,,,,,,,,main,1,1,1,negative,neutral,k,k,1,0.9472492000004422,527.8364716999986,528.8443867999995,528.8239651999993,None,527.8364716999986,None,527.8364716999986,None,527.8364716999986,None,529.7570514499987,None,529.7570514499987,None,529.7570514499987,None,,,,,,,,,,,221,25,Male,2022-05-20_15h54.06.117,Main,2022.1.1,60.03478415387687,
negative,positive,2,j,l,,,,,,,,,11,4,202,15,,,,,,,,,,,,,,,,,,,,,,,,main,2,2,2,positive,negative,l,l,1,0.804432100001577,529.7881769999985,530.8086528999993,530.7864841999999,None,529.7881769999985,None,529.7881769999985,None,529.7881769999985,None,531.5674358500003,None,531.5674358500003,None,531.5674358500003,None,,,,,,,,,,,221,25,Male,2022-05-20_15h54.06.117,Main,2022.1.1,60.03478415387687,
neutral,neutral,2,k,k,,,,,,,,,11,5,203,10,,,,,,,,,,,,,,,,,,,,,,,,main,1,1,2,neutral,neutral,k,k,1,0.687901299999794,531.6003201999993,532.6144139999997,532.5766606999987,None,531.6003201999993,None,531.6003201999993,None,531.6003201999993,None,533.2609777500004,None,533.2609777500004,None,533.2609777500004,None,,,,,,,,,,,221,25,Male,2022-05-20_15h54.06.117,Main,2022.1.1,60.03478415387687,
positive,neutral,2,l,j,,,,,,,,,11,6,204,17,,,,,,,,,,,,,,,,,,,,,,,,main,2,2,2,neutral,positive,j,j,1,0.6294754000009561,533.2904002999985,534.3000111999991,534.2783447000002,None,533.2904002999985,None,533.2904002999985,None,533.2904002999985,None,534.8908610499986,None,534.8908610499986,None,534.8908610499986,None,,,,,,,,,,,221,25,Male,2022-05-20_15h54.06.117,Main,2022.1.1,60.03478415387687,
negative,neutral,1,j,l,,,,,,,,,11,7,205,3,,,,,,,,,,,,,,,,,,,,,,,,main,2,2,1,neutral,negative,l,l,1,0.8142769000005501,534.9148889999997,535.9250909000002,535.9043090999985,None,534.9148889999997,None,534.9148889999997,None,534.9148889999997,None,536.7051407499987,None,536.7051407499987,None,536.7051407499987,None,,,,,,,,,,,221,25,Male,2022-05-20_15h54.06.117,Main,2022.1.1,60.03478415387687,
positive,neutral,1,l,j,,,,,,,,,11,8,206,8,,,,,,,,,,,,,,,,,,,,,,,,main,1,1,1,neutral,positive,j,j,1,0.8810982999984844,536.7363550999999,537.7382046999992,537.7191355999985,None,536.7363550999999,None,536.7363550999999,None,536.7363550999999,None,538.5962472499998,None,538.5962472499998,None,538.5962472499998,None,,,,,,,,,,,221,25,Male,2022-05-20_15h54.06.117,Main,2022.1.1,60.03478415387687,
neutral,negative,2,k,k,,,,,,,,,11,9,207,16,,,,,,,,,,,,,,,,,,,,,,,,main,2,2,2,negative,neutral,k,k,1,0.7298200000004726,538.6188055000002,539.6384961999993,539.6174511999998,None,538.6188055000002,None,538.6188055000002,None,538.6188055000002,None,540.3262474499991,None,540.3262474499991,None,540.3262474499991,None,,,,,,,,,,,221,25,Male,2022-05-20_15h54.06.117,Main,2022.1.1,60.03478415387687,
neutral,positive,1,k,k,,,,,,,,,11,10,208,4,,,,,,,,,,,,,,,,,,,,,,,,main,1,1,1,positive,neutral,k,k,1,0.7202937000001839,540.3548245999991,541.3700019999997,541.3488261000002,None,540.3548245999991,None,540.3548245999991,None,540.3548245999991,None,542.0508015500002,None,542.0508015500002,None,542.0508015500002,None,,,,,,,,,,,221,25,Male,2022-05-20_15h54.06.117,Main,2022.1.1,60.03478415387687,
negative,neutral,2,j,l,,,,,,,,,11,11,209,12,,,,,,,,,,,,,,,,,,,,,,,,main,1,1,2,neutral,negative,l,l,1,0.9153167000004032,542.0806279999997,543.1048957000003,543.0611240999988,None,542.0806279999997,None,542.0806279999997,None,542.0806279999997,None,543.9713315499996,None,543.9713315499996,None,543.9713315499996,None,,,,,,,,,,,221,25,Male,2022-05-20_15h54.06.117,Main,2022.1.1,60.03478415387687,
positive,positive,2,l,j,,,,,,,,,11,12,210,11,,,,,,,,,,,,,,,,,,,,,,,,main,1,1,2,positive,positive,j,j,1,0.7846766999991814,543.9973389999996,545.0019271000001,544.9816147000001,None,543.9973389999996,None,543.9973389999996,None,543.9973389999996,None,545.7612678499993,None,545.7612678499993,None,545.7612678499993,None,,,,,,,,,,,221,25,Male,2022-05-20_15h54.06.117,Main,2022.1.1,60.03478415387687,
