target,distractor,set,ans1,ans2,rep_loop2.thisRepN,rep_loop2.thisTrialN,rep_loop2.thisN,rep_loop2.thisIndex,flanker_prac_loop.thisRepN,flanker_prac_loop.thisTrialN,flanker_prac_loop.thisN,flanker_prac_loop.thisIndex,flanker_main_loop.thisRepN,flanker_main_loop.thisTrialN,flanker_main_loop.thisN,flanker_main_loop.thisIndex,fl_inst_resp.keys,mouse.x,mouse.y,mouse.leftButton,mouse.midButton,mouse.rightButton,mouse.started,mouse.stopped,sound_1.started,sound_1.stopped,no_text.started,no_text.stopped,yes_text.started,yes_text.stopped,mouse_2.x,mouse_2.y,mouse_2.leftButton,mouse_2.midButton,mouse_2.rightButton,mouse_2.started,mouse_2.stopped,back_2.started,back_2.stopped,main_prac,fl_cold,fl_colt,fl_set,fl_dcond,fl_tcond,fl_ans,fl_res,fl_corr,fl_rt,fix_fl.started,fix_fl.stopped,targ.started,targ.stopped,j_button.started,j_button.stopped,k_button.started,k_button.stopped,l_button.started,l_button.stopped,j_button2.started,j_button2.stopped,k_button2.started,k_button2.stopped,l_button2.started,l_button2.stopped,mainback.started,mainback.stopped,key_resp.keys,mouse_6.x,mouse_6.y,mouse_6.leftButton,mouse_6.midButton,mouse_6.rightButton,mouse_6.started,mouse_6.stopped,id*,age*,gender*,date,expName,psychopyVersion,frameRate,
,,,,,0,0,0,0,,,,,,,,,None,0.375,-0.40648147,0,0,0,1.0004693400082942,None,24.660785939999776,None,76.62314819999983,None,76.62314819999983,None,-0.08425926,-0.098148145,0,0,0,0.012194739999813464,None,,,,,,,,,,,,,,,,,,,,,,,,,,,,,,,,,,,,,,,222,21,Male,2022-05-23_14h33.26.862,Main,2022.1.1,60.00582056465512,
positive,negative,2,l,j,,,,,0,0,0,14,,,,,,,,,,,,,,,,,,,,,,,,,,79.85374179999963,None,prac,1,1,2,negative,positive,l,l,1,2.6236682000003384,81.90936089999968,82.9101369,82.89198339999984,None,81.90936089999968,None,81.90936089999968,None,81.90936089999968,None,85.52088370000001,None,85.52088370000001,None,85.52088370000001,None,,,,,,,,,,,222,21,Male,2022-05-23_14h33.26.862,Main,2022.1.1,60.00582056465512,
neutral,negative,2,k,k,,,,,0,1,1,16,,,,,,,,,,,,,,,,,,,,,,,,,,,,prac,2,2,2,negative,neutral,k,k,1,1.2362295000002632,86.56852879999997,87.58114679999971,87.54469479999989,None,86.56852879999997,None,86.56852879999997,None,86.56852879999997,None,88.76462063999966,None,88.76462063999966,None,88.76462063999966,None,,,,,,,,,,,222,21,Male,2022-05-23_14h33.26.862,Main,2022.1.1,60.00582056465512,
negative,neutral,2,j,l,,,,,0,2,2,12,,,,,,,,,,,,,,,,,,,,,,,,,,,,prac,2,2,2,neutral,negative,j,j,1,0.8655177999999069,88.79734419999977,89.8113102999996,89.77439909999975,None,88.79734419999977,None,88.79734419999977,None,88.79734419999977,None,90.63541774000001,None,90.63541774000001,None,90.63541774000001,None,,,,,,,,,,,222,21,Male,2022-05-23_14h33.26.862,Main,2022.1.1,60.00582056465512,
positive,negative,1,l,j,,,,,0,3,3,5,,,,,,,,,,,,,,,,,,,,,,,,,,,,prac,2,2,1,negative,positive,l,l,1,0.9682466000003842,90.67005159999962,91.67973619999975,91.66168289999996,None,90.67005159999962,None,90.67005159999962,None,90.67005159999962,None,92.60546663999972,None,92.60546663999972,None,92.60546663999972,None,,,,,,,,,,,222,21,Male,2022-05-23_14h33.26.862,Main,2022.1.1,60.00582056465512,
positive,positive,1,l,j,,,,,0,4,4,2,,,,,,,,,,,,,,,,,,,,,,,,,,,,prac,1,1,1,positive,positive,l,l,1,0.8770559000004141,92.64416649999976,93.66135889999987,93.62500169999976,None,92.64416649999976,None,92.64416649999976,None,92.64416649999976,None,94.48576953999978,None,94.48576953999978,None,94.48576953999978,None,,,,,,,,,,,222,21,Male,2022-05-23_14h33.26.862,Main,2022.1.1,60.00582056465512,
positive,neutral,1,l,j,,,,,0,5,5,8,,,,,,,,,,,,,,,,,,,,,,,,,,,,prac,2,2,1,neutral,positive,l,l,1,0.7928970999996636,94.5146179999997,95.5321001999996,95.49540079999997,None,94.5146179999997,None,94.5146179999997,None,94.5146179999997,None,96.28202923999984,None,96.28202923999984,None,96.28202923999984,None,,,,,,,,,,,222,21,Male,2022-05-23_14h33.26.862,Main,2022.1.1,60.00582056465512,
negative,positive,2,j,l,,,,,0,6,6,15,,,,,,,,,,,,,,,,,,,,,,,,,,,,prac,1,1,2,positive,negative,j,j,1,0.9373660999999629,96.31004219999977,97.31190499999957,97.29363339999964,None,96.31004219999977,None,96.31004219999977,None,96.31004219999977,None,98.22138994000002,None,98.22138994000002,None,98.22138994000002,None,,,,,,,,,,,222,21,Male,2022-05-23_14h33.26.862,Main,2022.1.1,60.00582056465512,
neutral,neutral,1,k,k,,,,,0,7,7,1,,,,,,,,,,,,,,,,,,,,,,,,,,,,prac,1,1,1,neutral,neutral,k,k,1,0.7786884000001919,98.25954739999997,99.27717159999975,99.24091099999987,None,98.25954739999997,None,98.25954739999997,None,98.25954739999997,None,100.00407553999972,None,100.00407553999972,None,100.00407553999972,None,,,,,,,,,,,222,21,Male,2022-05-23_14h33.26.862,Main,2022.1.1,60.00582056465512,
neutral,negative,1,k,k,,,,,0,8,8,7,,,,,,,,,,,,,,,,,,,,,,,,,,,,prac,2,2,1,negative,neutral,k,k,1,0.9079911000003449,100.02377939999997,101.02481439999974,101.00704429999996,None,100.02377939999997,None,100.02377939999997,None,100.02377939999997,None,101.91590994000003,None,101.91590994000003,None,101.91590994000003,None,,,,,,,,,,,222,21,Male,2022-05-23_14h33.26.862,Main,2022.1.1,60.00582056465512,
neutral,positive,1,k,k,,,,,0,9,9,4,,,,,,,,,,,,,,,,,,,,,,,,,,,,prac,2,2,1,positive,neutral,k,k,1,0.8623943000002328,101.94496359999994,102.9506478999997,102.93136279999999,None,101.94496359999994,None,101.94496359999994,None,101.94496359999994,None,103.78077483999974,None,103.78077483999974,None,103.78077483999974,None,,,,,,,,,,,222,21,Male,2022-05-23_14h33.26.862,Main,2022.1.1,60.00582056465512,
negative,neutral,1,j,l,,,,,0,10,10,3,,,,,,,,,,,,,,,,,,,,,,,,,,,,prac,1,1,1,neutral,negative,j,j,1,0.8936276999997972,103.80546989999993,104.82428329999993,104.78590859999986,None,103.80546989999993,None,103.80546989999993,None,103.80546989999993,None,105.67465333999976,None,105.67465333999976,None,105.67465333999976,None,,,,,,,,,,,222,21,Male,2022-05-23_14h33.26.862,Main,2022.1.1,60.00582056465512,
positive,positive,2,l,j,,,,,0,11,11,11,,,,,,,,,,,,,,,,,,,,,,,,,,,,prac,2,2,2,positive,positive,l,l,1,0.8084770999998909,105.71022019999964,106.72280629999977,106.68494649999957,None,105.71022019999964,None,105.71022019999964,None,105.71022019999964,None,107.48728673999963,None,107.48728673999963,None,107.48728673999963,None,,,,,,,,,,,222,21,Male,2022-05-23_14h33.26.862,Main,2022.1.1,60.00582056465512,
neutral,neutral,2,k,k,,,,,0,12,12,10,,,,,,,,,,,,,,,,,,,,,,,,,,,,prac,2,2,2,neutral,neutral,k,k,1,0.8231528999999682,107.50703499999963,108.5192420999997,108.47986589999982,None,107.50703499999963,None,107.50703499999963,None,107.50703499999963,None,109.3147252399996,None,109.3147252399996,None,109.3147252399996,None,,,,,,,,,,,222,21,Male,2022-05-23_14h33.26.862,Main,2022.1.1,60.00582056465512,
negative,positive,1,j,l,,,,,0,13,13,6,,,,,,,,,,,,,,,,,,,,,,,,,,,,prac,2,2,1,positive,negative,j,j,1,0.8911945999998352,109.33673259999978,110.34404779999977,110.30692619999991,None,109.33673259999978,None,109.33673259999978,None,109.33673259999978,None,111.20650043999981,None,111.20650043999981,None,111.20650043999981,None,,,,,,,,,,,222,21,Male,2022-05-23_14h33.26.862,Main,2022.1.1,60.00582056465512,
negative,negative,2,j,l,,,,,0,14,14,9,,,,,,,,,,,,,,,,,,,,,,,,,,,,prac,1,1,2,negative,negative,j,j,1,0.8647014999996827,111.22581629999968,112.23551659999976,112.19704349999984,None,111.22581629999968,None,111.22581629999968,None,111.22581629999968,None,113.07312123999978,None,113.07312123999978,None,113.07312123999978,None,,,,,,,,,,,222,21,Male,2022-05-23_14h33.26.862,Main,2022.1.1,60.00582056465512,
negative,negative,1,j,l,,,,,0,15,15,0,,,,,,,,,,,,,,,,,,,,,,,,,,,,prac,1,1,1,negative,negative,j,j,1,0.8245068000001083,113.10335789999999,114.10869199999979,114.09064849999959,None,113.10335789999999,None,113.10335789999999,None,113.10335789999999,None,114.90169563999976,None,114.90169563999976,None,114.90169563999976,None,,,,,,,,,,,222,21,Male,2022-05-23_14h33.26.862,Main,2022.1.1,60.00582056465512,
neutral,positive,2,k,k,,,,,0,16,16,13,,,,,,,,,,,,,,,,,,,,,,,,,,,,prac,1,1,2,positive,neutral,k,k,1,0.86181519999991,114.9365902999998,115.94893349999984,115.92989779999971,None,114.9365902999998,None,114.9365902999998,None,114.9365902999998,None,116.76863163999965,None,116.76863163999965,None,116.76863163999965,None,,,,,,,,,,,222,21,Male,2022-05-23_14h33.26.862,Main,2022.1.1,60.00582056465512,
positive,neutral,2,l,j,,,,,0,17,17,17,,,,,,,,,,,,,,,,,,,,,,,,,,,,prac,1,1,2,neutral,positive,l,l,1,0.7221546999999191,116.80259529999967,117.80828389999988,117.79021809999995,None,116.80259529999967,None,116.80259529999967,None,116.80259529999967,None,118.49228994,None,118.49228994,None,118.49228994,None,,,,,,,,,,,222,21,Male,2022-05-23_14h33.26.862,Main,2022.1.1,60.00582056465512,
neutral,negative,2,k,k,,,,,1,0,18,16,,,,,,,,,,,,,,,,,,,,,,,,,,,,prac,1,1,2,negative,neutral,k,k,1,0.8138622999999825,118.5131065999999,119.53206049999972,119.49396819999993,None,118.5131065999999,None,118.5131065999999,None,118.5131065999999,None,120.30979954,None,120.30979954,None,120.30979954,None,,,,,,,,,,,222,21,Male,2022-05-23_14h33.26.862,Main,2022.1.1,60.00582056465512,
positive,negative,2,l,j,,,,,1,1,19,14,,,,,,,,,,,,,,,,,,,,,,,,,,,,prac,2,2,2,negative,positive,l,l,1,1.2183264999998755,120.33215279999968,121.34844529999964,121.32972959999961,None,120.33215279999968,None,120.33215279999968,None,120.33215279999968,None,122.53233753999999,None,122.53233753999999,None,122.53233753999999,None,,,,,,,,,,,222,21,Male,2022-05-23_14h33.26.862,Main,2022.1.1,60.00582056465512,
positive,neutral,1,l,j,,,,,1,2,20,8,,,,,,,,,,,,,,,,,,,,,,,,,,,,prac,2,2,1,neutral,positive,l,l,1,0.9127698000002056,122.55233429999998,123.5663255999998,123.52853289999985,None,122.55233429999998,None,122.55233429999998,None,122.55233429999998,None,124.44724293999994,None,124.44724293999994,None,124.44724293999994,None,,,,,,,,,,,222,21,Male,2022-05-23_14h33.26.862,Main,2022.1.1,60.00582056465512,
neutral,neutral,1,k,k,,,,,1,3,21,1,,,,,,,,,,,,,,,,,,,,,,,,,,,,prac,2,2,1,neutral,neutral,k,k,1,0.8012089999997443,124.46693099999993,125.47935779999989,125.45147329999963,None,124.46693099999993,None,124.46693099999993,None,124.46693099999993,None,126.24988493999959,None,126.24988493999959,None,126.24988493999959,None,,,,,,,,,,,222,21,Male,2022-05-23_14h33.26.862,Main,2022.1.1,60.00582056465512,
negative,neutral,2,j,l,,,,,1,4,22,12,,,,,,,,,,,,,,,,,,,,,,,,,,,,prac,2,2,2,neutral,negative,j,j,1,0.8571450999997978,126.27054039999985,127.28902309999967,127.25266009999996,None,126.27054039999985,None,126.27054039999985,None,126.27054039999985,None,128.10812503999992,None,128.10812503999992,None,128.10812503999992,None,,,,,,,,,,,222,21,Male,2022-05-23_14h33.26.862,Main,2022.1.1,60.00582056465512,
neutral,neutral,2,k,k,,,,,1,5,23,10,,,,,,,,,,,,,,,,,,,,,,,,,,,,prac,2,2,2,neutral,neutral,k,k,1,0.7720394999996643,128.1311765999999,129.14209359999995,129.10423649999984,None,128.1311765999999,None,128.1311765999999,None,128.1311765999999,None,129.88472754,None,129.88472754,None,129.88472754,None,,,,,,,,,,,222,21,Male,2022-05-23_14h33.26.862,Main,2022.1.1,60.00582056465512,
neutral,negative,1,k,k,,,,,1,6,24,7,,,,,,,,,,,,,,,,,,,,,,,,,,,,prac,2,2,1,negative,neutral,k,k,1,0.8731872000003023,129.90434649999997,130.90708429999995,130.8888294999997,None,129.90434649999997,None,129.90434649999997,None,129.90434649999997,None,131.76194103999993,None,131.76194103999993,None,131.76194103999993,None,,,,,,,,,,,222,21,Male,2022-05-23_14h33.26.862,Main,2022.1.1,60.00582056465512,
negative,positive,2,j,l,,,,,1,7,25,15,,,,,,,,,,,,,,,,,,,,,,,,,,,,prac,2,2,2,positive,negative,j,j,1,0.9019423999998253,131.78124909999997,132.79124589999992,132.75481319999972,None,131.78124909999997,None,131.78124909999997,None,131.78124909999997,None,133.66597143999994,None,133.66597143999994,None,133.66597143999994,None,,,,,,,,,,,222,21,Male,2022-05-23_14h33.26.862,Main,2022.1.1,60.00582056465512,
neutral,positive,1,k,k,,,,,1,8,26,4,,,,,,,,,,,,,,,,,,,,,,,,,,,,prac,1,1,1,positive,neutral,k,k,1,0.7719008999997641,133.6851001,134.6937355,134.6570517,None,133.6851001,None,133.6851001,None,133.6851001,None,135.44008543999976,None,135.44008543999976,None,135.44008543999976,None,,,,,,,,,,,222,21,Male,2022-05-23_14h33.26.862,Main,2022.1.1,60.00582056465512,
negative,positive,1,j,l,,,,,1,9,27,6,,,,,,,,,,,,,,,,,,,,,,,,,,,,prac,1,1,1,positive,negative,j,j,1,2.7759476999999606,135.4597644999999,136.4666929,136.44647829999985,None,135.4597644999999,None,135.4597644999999,None,135.4597644999999,None,139.22374619999982,None,139.22374619999982,None,139.22374619999982,None,,,,,,,,,,,222,21,Male,2022-05-23_14h33.26.862,Main,2022.1.1,60.00582056465512,
positive,negative,1,l,j,,,,,1,10,28,5,,,,,,,,,,,,,,,,,,,,,,,,,,,,prac,2,2,1,negative,positive,l,l,1,0.9863305000003493,140.23931829999992,141.24776929999962,141.22904259999996,None,140.23931829999992,None,140.23931829999992,None,140.23931829999992,None,142.20692153999985,None,142.20692153999985,None,142.20692153999985,None,,,,,,,,,,,222,21,Male,2022-05-23_14h33.26.862,Main,2022.1.1,60.00582056465512,
negative,neutral,1,j,l,,,,,1,11,29,3,,,,,,,,,,,,,,,,,,,,,,,,,,,,prac,2,2,1,neutral,negative,j,j,1,0.796570100000281,142.22794629999999,143.24558949999982,143.20848689999957,None,142.22794629999999,None,142.22794629999999,None,142.22794629999999,None,144.00730493999995,None,144.00730493999995,None,144.00730493999995,None,,,,,,,,,,,222,21,Male,2022-05-23_14h33.26.862,Main,2022.1.1,60.00582056465512,
positive,positive,1,l,j,,,,,1,12,30,2,,,,,,,,,,,,,,,,,,,,,,,,,,,,prac,2,2,1,positive,positive,l,l,1,0.9271411999998236,144.02700149999964,145.04259869999987,145.00609499999973,None,144.02700149999964,None,144.02700149999964,None,144.02700149999964,None,145.93663593999977,None,145.93663593999977,None,145.93663593999977,None,,,,,,,,,,,222,21,Male,2022-05-23_14h33.26.862,Main,2022.1.1,60.00582056465512,
positive,neutral,2,l,j,,,,,1,13,31,17,,,,,,,,,,,,,,,,,,,,,,,,,,,,prac,2,2,2,neutral,positive,l,l,1,1.177425299999868,145.9561220999999,146.96184989999983,146.9417467999997,None,145.9561220999999,None,145.9561220999999,None,145.9561220999999,None,148.11694333999972,None,148.11694333999972,None,148.11694333999972,None,,,,,,,,,,,222,21,Male,2022-05-23_14h33.26.862,Main,2022.1.1,60.00582056465512,
neutral,positive,2,k,k,,,,,1,14,32,13,,,,,,,,,,,,,,,,,,,,,,,,,,,,prac,1,1,2,positive,neutral,k,k,1,0.898160000000189,148.1370165999997,149.15963569999985,149.1130363999996,None,148.1370165999997,None,148.1370165999997,None,148.1370165999997,None,150.0170929399998,None,150.0170929399998,None,150.0170929399998,None,,,,,,,,,,,222,21,Male,2022-05-23_14h33.26.862,Main,2022.1.1,60.00582056465512,
negative,negative,2,j,l,,,,,1,15,33,9,,,,,,,,,,,,,,,,,,,,,,,,,,,,prac,1,1,2,negative,negative,j,j,1,0.8479397000000972,150.0361911,151.05410219999976,151.01771149999968,None,150.0361911,None,150.0361911,None,150.0361911,None,151.8674324399996,None,151.8674324399996,None,151.8674324399996,None,,,,,,,,,,,222,21,Male,2022-05-23_14h33.26.862,Main,2022.1.1,60.00582056465512,
negative,negative,1,j,l,,,,,1,16,34,0,,,,,,,,,,,,,,,,,,,,,,,,,,,,prac,1,1,1,negative,negative,j,j,1,1.4557549999999537,151.8879348999999,152.90139809999982,152.86476819999962,None,151.8879348999999,None,151.8879348999999,None,151.8879348999999,None,154.3270455399999,None,154.3270455399999,None,154.3270455399999,None,,,,,,,,,,,222,21,Male,2022-05-23_14h33.26.862,Main,2022.1.1,60.00582056465512,
positive,positive,2,l,j,,,,,1,17,35,11,,,,,,,,,,,,,,,,,,,,,,,,,,,,prac,2,2,2,positive,positive,l,l,1,1.1430586999999832,154.34641659999988,155.35655789999964,155.3205114999996,None,154.34641659999988,None,154.34641659999988,None,154.34641659999988,None,156.47023293999987,None,156.47023293999987,None,156.47023293999987,None,,,,,,,,,,,222,21,Male,2022-05-23_14h33.26.862,Main,2022.1.1,60.00582056465512,
,,,,,,,,,,,,,,,,,,,,,,,,,,,,,,,,,,,,,,,,,,,,,,,,,,,,,,,,,,,,,,,,,,156.47579129999986,None,None,,,,,,,,222,21,Male,2022-05-23_14h33.26.862,Main,2022.1.1,60.00582056465512,
,,,,,,,,,,,,,,,,,,,,,,,,,,,,,,,,,,,,,,,,,,,,,,,,,,,,,,,,,,,,,,,,,,,,,0.2074074,-0.2685185,1,0,0,0.004528339999978925,None,222,21,Male,2022-05-23_14h33.26.862,Main,2022.1.1,60.00582056465512,
neutral,neutral,2,k,k,,,,,,,,,0,0,0,10,,,,,,,,,,,,,,,,,,,,,,165.97644059999993,None,main,1,1,2,neutral,neutral,k,k,1,0.9367143999998007,167.9946571999999,169.01003509999964,168.9726771999999,None,167.9946571999999,None,167.9946571999999,None,167.9946571999999,None,169.91317984000003,None,169.91317984000003,None,169.91317984000003,None,,,,,,,,,,,222,21,Male,2022-05-23_14h33.26.862,Main,2022.1.1,60.00582056465512,
negative,positive,2,j,l,,,,,,,,,0,1,1,15,,,,,,,,,,,,,,,,,,,,,,,,main,2,2,2,positive,negative,j,j,1,0.7737719000001562,169.93753259999994,170.95018429999982,170.91290649999974,None,169.93753259999994,None,169.93753259999994,None,169.93753259999994,None,171.6929480399996,None,171.6929480399996,None,171.6929480399996,None,,,,,,,,,,,222,21,Male,2022-05-23_14h33.26.862,Main,2022.1.1,60.00582056465512,
negative,negative,2,j,l,,,,,,,,,0,2,2,9,,,,,,,,,,,,,,,,,,,,,,,,main,2,2,2,negative,negative,j,j,1,0.7289473000000726,171.71238589999984,172.71404839999968,172.69483879999962,None,171.71238589999984,None,171.71238589999984,None,171.71238589999984,None,173.42488533999963,None,173.42488533999963,None,173.42488533999963,None,,,,,,,,,,,222,21,Male,2022-05-23_14h33.26.862,Main,2022.1.1,60.00582056465512,
positive,positive,1,l,j,,,,,,,,,0,3,3,2,,,,,,,,,,,,,,,,,,,,,,,,main,2,2,1,positive,positive,l,l,1,0.7754476000000068,173.44421019999982,174.45443979999982,174.41811159999997,None,173.44421019999982,None,173.44421019999982,None,173.44421019999982,None,175.20059994,None,175.20059994,None,175.20059994,None,,,,,,,,,,,222,21,Male,2022-05-23_14h33.26.862,Main,2022.1.1,60.00582056465512,
positive,neutral,1,l,j,,,,,,,,,0,4,4,8,,,,,,,,,,,,,,,,,,,,,,,,main,1,1,1,neutral,positive,l,l,1,0.8645234999999047,175.22057319999976,176.22784309999997,176.20815079999966,None,175.22057319999976,None,175.22057319999976,None,175.22057319999976,None,177.0668882399997,None,177.0668882399997,None,177.0668882399997,None,,,,,,,,,,,222,21,Male,2022-05-23_14h33.26.862,Main,2022.1.1,60.00582056465512,
positive,positive,2,l,j,,,,,,,,,0,5,5,11,,,,,,,,,,,,,,,,,,,,,,,,main,2,2,2,positive,positive,l,l,1,0.8156342000002041,177.09205499999962,178.10348699999986,178.06734879999976,None,177.09205499999962,None,177.09205499999962,None,177.09205499999962,None,178.88798183999975,None,178.88798183999975,None,178.88798183999975,None,,,,,,,,,,,222,21,Male,2022-05-23_14h33.26.862,Main,2022.1.1,60.00582056465512,
negative,neutral,1,j,l,,,,,,,,,0,6,6,3,,,,,,,,,,,,,,,,,,,,,,,,main,2,2,1,neutral,negative,j,j,1,0.8186524999996436,178.90715819999969,179.91247699999985,179.8937351999998,None,178.90715819999969,None,178.90715819999969,None,178.90715819999969,None,180.70930223999963,None,180.70930223999963,None,180.70930223999963,None,,,,,,,,,,,222,21,Male,2022-05-23_14h33.26.862,Main,2022.1.1,60.00582056465512,
positive,negative,1,l,j,,,,,,,,,0,7,7,5,,,,,,,,,,,,,,,,,,,,,,,,main,1,1,1,negative,positive,l,l,1,0.8373271000000386,180.72847459999957,181.73649129999967,181.6999277,None,180.72847459999957,None,180.72847459999957,None,180.72847459999957,None,182.5473217399996,None,182.5473217399996,None,182.5473217399996,None,,,,,,,,,,,222,21,Male,2022-05-23_14h33.26.862,Main,2022.1.1,60.00582056465512,
neutral,positive,2,k,k,,,,,,,,,0,8,8,13,,,,,,,,,,,,,,,,,,,,,,,,main,2,2,2,positive,neutral,k,k,1,0.7707971999998335,182.5673827999999,183.58032129999992,183.54358779999984,None,182.5673827999999,None,182.5673827999999,None,182.5673827999999,None,184.32232993999983,None,184.32232993999983,None,184.32232993999983,None,,,,,,,,,,,222,21,Male,2022-05-23_14h33.26.862,Main,2022.1.1,60.00582056465512,
negative,positive,1,j,l,,,,,,,,,0,9,9,6,,,,,,,,,,,,,,,,,,,,,,,,main,1,1,1,positive,negative,j,j,1,0.8104529000002003,184.3425040999996,185.35271889999967,185.3159045999996,None,184.3425040999996,None,184.3425040999996,None,184.3425040999996,None,186.1333294399998,None,186.1333294399998,None,186.1333294399998,None,,,,,,,,,,,222,21,Male,2022-05-23_14h33.26.862,Main,2022.1.1,60.00582056465512,
positive,neutral,2,l,j,,,,,,,,,0,10,10,17,,,,,,,,,,,,,,,,,,,,,,,,main,2,2,2,neutral,positive,l,l,1,0.8213229999996656,186.1537731999997,187.16752459999998,187.1314124999999,None,186.1537731999997,None,186.1537731999997,None,186.1537731999997,None,187.9594000399999,None,187.9594000399999,None,187.9594000399999,None,,,,,,,,,,,222,21,Male,2022-05-23_14h33.26.862,Main,2022.1.1,60.00582056465512,
positive,negative,2,l,j,,,,,,,,,0,11,11,14,,,,,,,,,,,,,,,,,,,,,,,,main,2,2,2,negative,positive,l,l,1,0.7066393999998581,187.98075619999963,188.99485949999962,188.95648579999988,None,187.98075619999963,None,187.98075619999963,None,187.98075619999963,None,189.6691247399996,None,189.6691247399996,None,189.6691247399996,None,,,,,,,,,,,222,21,Male,2022-05-23_14h33.26.862,Main,2022.1.1,60.00582056465512,
negative,negative,1,j,l,,,,,,,,,0,12,12,0,,,,,,,,,,,,,,,,,,,,,,,,main,1,1,1,negative,negative,j,j,1,0.7990583000000697,189.6886999999997,190.69195919999993,190.6731410999996,None,189.6886999999997,None,189.6886999999997,None,189.6886999999997,None,191.47180393999966,None,191.47180393999966,None,191.47180393999966,None,,,,,,,,,,,222,21,Male,2022-05-23_14h33.26.862,Main,2022.1.1,60.00582056465512,
neutral,negative,1,k,k,,,,,,,,,0,13,13,7,,,,,,,,,,,,,,,,,,,,,,,,main,2,2,1,negative,neutral,k,k,1,0.7502100000001519,191.4918416999999,192.49966629999972,192.4801779999998,None,191.4918416999999,None,191.4918416999999,None,191.4918416999999,None,193.22497853999963,None,193.22497853999963,None,193.22497853999963,None,,,,,,,,,,,222,21,Male,2022-05-23_14h33.26.862,Main,2022.1.1,60.00582056465512,
neutral,positive,1,k,k,,,,,,,,,0,14,14,4,,,,,,,,,,,,,,,,,,,,,,,,main,2,2,1,positive,neutral,k,k,1,1.1575582999998915,193.24505899999986,194.25268369999958,194.23398709999992,None,193.24505899999986,None,193.24505899999986,None,193.24505899999986,None,195.38705173999975,None,195.38705173999975,None,195.38705173999975,None,,,,,,,,,,,222,21,Male,2022-05-23_14h33.26.862,Main,2022.1.1,60.00582056465512,
neutral,neutral,1,k,k,,,,,,,,,0,15,15,1,,,,,,,,,,,,,,,,,,,,,,,,main,1,1,1,neutral,neutral,k,k,1,1.058954800000265,195.40641799999958,196.41175599999997,196.39329839999982,None,195.40641799999958,None,195.40641799999958,None,195.40641799999958,None,197.4471949399996,None,197.4471949399996,None,197.4471949399996,None,,,,,,,,,,,222,21,Male,2022-05-23_14h33.26.862,Main,2022.1.1,60.00582056465512,
neutral,negative,2,k,k,,,,,,,,,0,16,16,16,,,,,,,,,,,,,,,,,,,,,,,,main,2,2,2,negative,neutral,k,k,1,1.6036963999999898,197.46882519999963,198.48665869999968,198.4592405999997,None,197.46882519999963,None,197.46882519999963,None,197.46882519999963,None,200.06127819999983,None,200.06127819999983,None,200.06127819999983,None,,,,,,,,,,,222,21,Male,2022-05-23_14h33.26.862,Main,2022.1.1,60.00582056465512,
negative,neutral,2,j,l,,,,,,,,,0,17,17,12,,,,,,,,,,,,,,,,,,,,,,,,main,1,1,2,neutral,negative,j,j,1,0.8110330999998041,201.0814547,202.09616019999976,202.06044489999977,None,201.0814547,None,201.0814547,None,201.0814547,None,202.87480643999984,None,202.87480643999984,None,202.87480643999984,None,,,,,,,,,,,222,21,Male,2022-05-23_14h33.26.862,Main,2022.1.1,60.00582056465512,
negative,negative,1,j,l,,,,,,,,,1,0,18,0,,,,,,,,,,,,,,,,,,,,,,,,main,2,2,1,negative,negative,j,j,1,0.8005891000002521,202.896796,203.8986402999999,203.88061329999982,None,202.896796,None,202.896796,None,202.896796,None,204.67949504000003,None,204.67949504000003,None,204.67949504000003,None,,,,,,,,,,,222,21,Male,2022-05-23_14h33.26.862,Main,2022.1.1,60.00582056465512,
positive,neutral,2,l,j,,,,,,,,,1,1,19,17,,,,,,,,,,,,,,,,,,,,,,,,main,2,2,2,neutral,positive,l,l,1,1.0493671000003815,204.69952889999968,205.70848429999978,205.68975359999968,None,204.69952889999968,None,204.69952889999968,None,204.69952889999968,None,206.73144793999987,None,206.73144793999987,None,206.73144793999987,None,,,,,,,,,,,222,21,Male,2022-05-23_14h33.26.862,Main,2022.1.1,60.00582056465512,
positive,negative,1,l,j,,,,,,,,,1,2,20,5,,,,,,,,,,,,,,,,,,,,,,,,main,1,1,1,negative,positive,l,l,1,0.8823590000001786,206.75171619999992,207.7677937999997,207.73164749999978,None,206.75171619999992,None,206.75171619999992,None,206.75171619999992,None,208.61839903999967,None,208.61839903999967,None,208.61839903999967,None,,,,,,,,,,,222,21,Male,2022-05-23_14h33.26.862,Main,2022.1.1,60.00582056465512,
positive,negative,2,l,j,,,,,,,,,1,3,21,14,,,,,,,,,,,,,,,,,,,,,,,,main,2,2,2,negative,positive,l,l,1,0.9131900000002133,208.63801799999965,209.6436678,209.6251672999997,None,208.63801799999965,None,208.63801799999965,None,208.63801799999965,None,210.53298313999963,None,210.53298313999963,None,210.53298313999963,None,,,,,,,,,,,222,21,Male,2022-05-23_14h33.26.862,Main,2022.1.1,60.00582056465512,
negative,neutral,2,j,l,,,,,,,,,1,4,22,12,,,,,,,,,,,,,,,,,,,,,,,,main,1,1,2,neutral,negative,j,j,1,0.8299736999997549,210.55280689999972,211.56672769999977,211.52984239999978,None,210.55280689999972,None,210.55280689999972,None,210.55280689999972,None,212.36745304000002,None,212.36745304000002,None,212.36745304000002,None,,,,,,,,,,,222,21,Male,2022-05-23_14h33.26.862,Main,2022.1.1,60.00582056465512,
negative,neutral,1,j,l,,,,,,,,,1,5,23,3,,,,,,,,,,,,,,,,,,,,,,,,main,1,1,1,neutral,negative,j,j,1,0.776457400000254,212.39048299999968,213.39169159999983,213.37313959999983,None,212.39048299999968,None,212.39048299999968,None,212.39048299999968,None,214.14549133999995,None,214.14549133999995,None,214.14549133999995,None,,,,,,,,,,,222,21,Male,2022-05-23_14h33.26.862,Main,2022.1.1,60.00582056465512,
negative,positive,1,j,l,,,,,,,,,1,6,24,6,,,,,,,,,,,,,,,,,,,,,,,,main,2,2,1,positive,negative,j,j,1,0.8166504000000714,214.16491349999978,215.18222579999974,215.14536599999974,None,214.16491349999978,None,214.16491349999978,None,214.16491349999978,None,215.96622593999987,None,215.96622593999987,None,215.96622593999987,None,,,,,,,,,,,222,21,Male,2022-05-23_14h33.26.862,Main,2022.1.1,60.00582056465512,
neutral,positive,2,k,k,,,,,,,,,1,7,25,13,,,,,,,,,,,,,,,,,,,,,,,,main,1,1,2,positive,neutral,k,k,1,0.932858799999849,215.98688029999994,216.99153209999986,216.97254349999957,None,215.98688029999994,None,215.98688029999994,None,215.98688029999994,None,217.90187454000002,None,217.90187454000002,None,217.90187454000002,None,,,,,,,,,,,222,21,Male,2022-05-23_14h33.26.862,Main,2022.1.1,60.00582056465512,
neutral,negative,1,k,k,,,,,,,,,1,8,26,7,,,,,,,,,,,,,,,,,,,,,,,,main,2,2,1,negative,neutral,k,k,1,0.8241901000001235,217.92157389999966,218.92715289999978,218.90900669999974,None,217.92157389999966,None,217.92157389999966,None,217.92157389999966,None,219.7264931399997,None,219.7264931399997,None,219.7264931399997,None,,,,,,,,,,,222,21,Male,2022-05-23_14h33.26.862,Main,2022.1.1,60.00582056465512,
positive,positive,2,l,j,,,,,,,,,1,9,27,11,,,,,,,,,,,,,,,,,,,,,,,,main,2,2,2,positive,positive,l,l,1,0.8501666999995905,219.74652739999965,220.76005399999985,220.7233594999998,None,219.74652739999965,None,219.74652739999965,None,219.74652739999965,None,221.57762513999992,None,221.57762513999992,None,221.57762513999992,None,,,,,,,,,,,222,21,Male,2022-05-23_14h33.26.862,Main,2022.1.1,60.00582056465512,
negative,positive,2,j,l,,,,,,,,,1,10,28,15,,,,,,,,,,,,,,,,,,,,,,,,main,2,2,2,positive,negative,j,j,1,0.7992039999999179,221.60250329999963,222.6154862999997,222.5793953999996,None,221.60250329999963,None,221.60250329999963,None,221.60250329999963,None,223.38282543999972,None,223.38282543999972,None,223.38282543999972,None,,,,,,,,,,,222,21,Male,2022-05-23_14h33.26.862,Main,2022.1.1,60.00582056465512,
positive,positive,1,l,j,,,,,,,,,1,11,29,2,,,,,,,,,,,,,,,,,,,,,,,,main,2,2,1,positive,positive,l,l,1,0.8138241999999991,223.40264639999987,224.41439299999956,224.37764779999998,None,223.40264639999987,None,223.40264639999987,None,223.40264639999987,None,225.19812493999976,None,225.19812493999976,None,225.19812493999976,None,,,,,,,,,,,222,21,Male,2022-05-23_14h33.26.862,Main,2022.1.1,60.00582056465512,
neutral,neutral,2,k,k,,,,,,,,,1,12,30,10,,,,,,,,,,,,,,,,,,,,,,,,main,2,2,2,neutral,neutral,k,k,1,1.469025700000202,225.21914779999997,226.2277941999996,226.21018549999962,None,225.21914779999997,None,225.21914779999997,None,225.21914779999997,None,227.67062723999985,None,227.67062723999985,None,227.67062723999985,None,,,,,,,,,,,222,21,Male,2022-05-23_14h33.26.862,Main,2022.1.1,60.00582056465512,
neutral,negative,2,k,k,,,,,,,,,1,13,31,16,,,,,,,,,,,,,,,,,,,,,,,,main,2,2,2,negative,neutral,k,k,1,0.9201675000003888,227.69011329999967,228.6944394999996,228.6762491999998,None,227.69011329999967,None,227.69011329999967,None,227.69011329999967,None,229.5933464399997,None,229.5933464399997,None,229.5933464399997,None,,,,,,,,,,,222,21,Male,2022-05-23_14h33.26.862,Main,2022.1.1,60.00582056465512,
neutral,neutral,1,k,k,,,,,,,,,1,14,32,1,,,,,,,,,,,,,,,,,,,,,,,,main,2,2,1,neutral,neutral,k,k,1,1.0153285000001233,229.61464559999968,230.62712649999958,230.59095669999988,None,229.61464559999968,None,229.61464559999968,None,229.61464559999968,None,231.61176663999973,None,231.61176663999973,None,231.61176663999973,None,,,,,,,,,,,222,21,Male,2022-05-23_14h33.26.862,Main,2022.1.1,60.00582056465512,
neutral,positive,1,k,k,,,,,,,,,1,15,33,4,,,,,,,,,,,,,,,,,,,,,,,,main,1,1,1,positive,neutral,k,k,1,1.3988095999998222,231.6314693999998,232.6418988999999,232.60663419999992,None,231.6314693999998,None,231.6314693999998,None,231.6314693999998,None,234.01302193999996,None,234.01302193999996,None,234.01302193999996,None,,,,,,,,,,,222,21,Male,2022-05-23_14h33.26.862,Main,2022.1.1,60.00582056465512,
negative,negative,2,j,l,,,,,,,,,1,16,34,9,,,,,,,,,,,,,,,,,,,,,,,,main,2,2,2,negative,negative,j,j,1,1.1417637999998078,234.03639269999985,235.04024279999976,235.02216119999957,None,234.03639269999985,None,234.03639269999985,None,234.03639269999985,None,236.1580034399996,None,236.1580034399996,None,236.1580034399996,None,,,,,,,,,,,222,21,Male,2022-05-23_14h33.26.862,Main,2022.1.1,60.00582056465512,
positive,neutral,1,l,j,,,,,,,,,1,17,35,8,,,,,,,,,,,,,,,,,,,,,,,,main,1,1,1,neutral,positive,l,l,1,2.336447700000008,236.17850229999976,237.19073779999962,237.15416919999961,None,236.17850229999976,None,236.17850229999976,None,236.17850229999976,None,239.50424969999995,None,239.50424969999995,None,239.50424969999995,None,,,,,,,,,,,222,21,Male,2022-05-23_14h33.26.862,Main,2022.1.1,60.00582056465512,
neutral,negative,1,k,k,,,,,,,,,2,0,36,7,,,,,,,,,,,,,,,,,,,,,,,,main,1,1,1,negative,neutral,k,k,1,0.9540007999999034,240.52680919999966,241.54421969999976,241.50738379999984,None,240.52680919999966,None,240.52680919999966,None,240.52680919999966,None,242.4634179399997,None,242.4634179399997,None,242.4634179399997,None,,,,,,,,,,,222,21,Male,2022-05-23_14h33.26.862,Main,2022.1.1,60.00582056465512,
neutral,negative,2,k,k,,,,,,,,,2,1,37,16,,,,,,,,,,,,,,,,,,,,,,,,main,1,1,2,negative,neutral,k,k,1,0.9137038999997458,242.4839253,243.49032429999988,243.4722730999997,None,242.4839253,None,242.4839253,None,242.4839253,None,244.38095184,None,244.38095184,None,244.38095184,None,,,,,,,,,,,222,21,Male,2022-05-23_14h33.26.862,Main,2022.1.1,60.00582056465512,
negative,negative,1,j,l,,,,,,,,,2,2,38,0,,,,,,,,,,,,,,,,,,,,,,,,main,2,2,1,negative,negative,j,j,1,0.8120128000000477,244.4004514999997,245.4028605999997,245.3839893999998,None,244.4004514999997,None,244.4004514999997,None,244.4004514999997,None,246.19551724,None,246.19551724,None,246.19551724,None,,,,,,,,,,,222,21,Male,2022-05-23_14h33.26.862,Main,2022.1.1,60.00582056465512,
negative,negative,2,j,l,,,,,,,,,2,3,39,9,,,,,,,,,,,,,,,,,,,,,,,,main,2,2,2,negative,negative,j,j,1,0.8952871000001323,246.21593659999962,247.22369879999997,247.18757289999985,None,246.21593659999962,None,246.21593659999962,None,246.21593659999962,None,248.09215443999997,None,248.09215443999997,None,248.09215443999997,None,,,,,,,,,,,222,21,Male,2022-05-23_14h33.26.862,Main,2022.1.1,60.00582056465512,
negative,neutral,2,j,l,,,,,,,,,2,4,40,12,,,,,,,,,,,,,,,,,,,,,,,,main,2,2,2,neutral,negative,j,j,1,0.7700824999997167,248.11066679999976,249.1206500999997,249.0840030999998,None,248.11066679999976,None,248.11066679999976,None,248.11066679999976,None,249.86566463999966,None,249.86566463999966,None,249.86566463999966,None,,,,,,,,,,,222,21,Male,2022-05-23_14h33.26.862,Main,2022.1.1,60.00582056465512,
neutral,positive,1,k,k,,,,,,,,,2,5,41,4,,,,,,,,,,,,,,,,,,,,,,,,main,2,2,1,positive,neutral,k,k,1,0.8679207000000133,249.88758049999979,250.8885266999996,250.87057399999958,None,249.88758049999979,None,249.88758049999979,None,249.88758049999979,None,251.73612953999978,None,251.73612953999978,None,251.73612953999978,None,,,,,,,,,,,222,21,Male,2022-05-23_14h33.26.862,Main,2022.1.1,60.00582056465512,
negative,positive,1,j,l,,,,,,,,,2,6,42,6,,,,,,,,,,,,,,,,,,,,,,,,main,2,2,1,positive,negative,j,j,1,1.9230995000002622,251.75571329999957,252.7743443999998,252.7362065999996,None,251.75571329999957,None,251.75571329999957,None,251.75571329999957,None,254.6695107999999,None,254.6695107999999,None,254.6695107999999,None,,,,,,,,,,,222,21,Male,2022-05-23_14h33.26.862,Main,2022.1.1,60.00582056465512,
positive,neutral,2,l,j,,,,,,,,,2,7,43,17,,,,,,,,,,,,,,,,,,,,,,,,main,1,1,2,neutral,positive,l,l,1,1.6114314999999806,255.6912487999998,256.7007814999997,256.68252729999995,None,255.6912487999998,None,255.6912487999998,None,255.6912487999998,None,258.2882400999997,None,258.2882400999997,None,258.2882400999997,None,,,,,,,,,,,222,21,Male,2022-05-23_14h33.26.862,Main,2022.1.1,60.00582056465512,
neutral,neutral,1,k,k,,,,,,,,,2,8,44,1,,,,,,,,,,,,,,,,,,,,,,,,main,2,2,1,neutral,neutral,k,k,1,0.8420719000000645,259.30760839999994,260.3138577999998,260.2942673999996,None,259.30760839999994,None,259.30760839999994,None,259.30760839999994,None,261.13253173999976,None,261.13253173999976,None,261.13253173999976,None,,,,,,,,,,,222,21,Male,2022-05-23_14h33.26.862,Main,2022.1.1,60.00582056465512,
positive,neutral,1,l,j,,,,,,,,,2,9,45,8,,,,,,,,,,,,,,,,,,,,,,,,main,2,2,1,neutral,positive,l,l,1,0.7708145999999942,261.15294059999997,262.15626729999985,262.1378625999996,None,261.15294059999997,None,261.15294059999997,None,261.15294059999997,None,262.9066933399996,None,262.9066933399996,None,262.9066933399996,None,,,,,,,,,,,222,21,Male,2022-05-23_14h33.26.862,Main,2022.1.1,60.00582056465512,
negative,positive,2,j,l,,,,,,,,,2,10,46,15,,,,,,,,,,,,,,,,,,,,,,,,main,2,2,2,positive,negative,j,j,1,1.0019925999999941,262.9266091999998,263.9347005999998,263.9157785999996,None,262.9266091999998,None,262.9266091999998,None,262.9266091999998,None,264.9133547399998,None,264.9133547399998,None,264.9133547399998,None,,,,,,,,,,,222,21,Male,2022-05-23_14h33.26.862,Main,2022.1.1,60.00582056465512,
positive,positive,2,l,j,,,,,,,,,2,11,47,11,,,,,,,,,,,,,,,,,,,,,,,,main,2,2,2,positive,positive,l,l,1,0.8943785000001299,264.9356009999997,265.93798979999974,265.9199171999999,None,264.9356009999997,None,264.9356009999997,None,264.9356009999997,None,266.8111258399996,None,266.8111258399996,None,266.8111258399996,None,,,,,,,,,,,222,21,Male,2022-05-23_14h33.26.862,Main,2022.1.1,60.00582056465512,
positive,negative,2,l,j,,,,,,,,,2,12,48,14,,,,,,,,,,,,,,,,,,,,,,,,main,2,2,2,negative,positive,l,l,1,0.8022464000000582,266.8312807999996,267.8370668999996,267.81864399999995,None,266.8312807999996,None,266.8312807999996,None,266.8312807999996,None,268.61557633999985,None,268.61557633999985,None,268.61557633999985,None,,,,,,,,,,,222,21,Male,2022-05-23_14h33.26.862,Main,2022.1.1,60.00582056465512,
positive,negative,1,l,j,,,,,,,,,2,13,49,5,,,,,,,,,,,,,,,,,,,,,,,,main,2,2,1,negative,positive,l,l,1,2.2570730000002186,268.6362644999999,269.6539753999996,269.61574759999985,None,268.6362644999999,None,268.6362644999999,None,268.6362644999999,None,271.8810073999998,None,271.8810073999998,None,271.8810073999998,None,,,,,,,,,,,222,21,Male,2022-05-23_14h33.26.862,Main,2022.1.1,60.00582056465512,
positive,positive,1,l,j,,,,,,,,,2,14,50,2,,,,,,,,,,,,,,,,,,,,,,,,main,2,2,1,positive,positive,l,l,1,0.8116335999998228,272.90640749999966,273.9181344999997,273.89956159999974,None,272.90640749999966,None,272.90640749999966,None,272.90640749999966,None,274.70040863999986,None,274.70040863999986,None,274.70040863999986,None,,,,,,,,,,,222,21,Male,2022-05-23_14h33.26.862,Main,2022.1.1,60.00582056465512,
neutral,positive,2,k,k,,,,,,,,,2,15,51,13,,,,,,,,,,,,,,,,,,,,,,,,main,1,1,2,positive,neutral,k,k,1,0.8679617000002509,274.72062259999984,275.7213545999998,275.7033637999998,None,274.72062259999984,None,274.72062259999984,None,274.72062259999984,None,276.5712638399997,None,276.5712638399997,None,276.5712638399997,None,,,,,,,,,,,222,21,Male,2022-05-23_14h33.26.862,Main,2022.1.1,60.00582056465512,
neutral,neutral,2,k,k,,,,,,,,,2,16,52,10,,,,,,,,,,,,,,,,,,,,,,,,main,1,1,2,neutral,neutral,k,k,1,0.6768117999999959,276.59035939999967,277.6028836999999,277.5667693999999,None,276.59035939999967,None,276.59035939999967,None,276.59035939999967,None,278.2510180399996,None,278.2510180399996,None,278.2510180399996,None,,,,,,,,,,,222,21,Male,2022-05-23_14h33.26.862,Main,2022.1.1,60.00582056465512,
negative,neutral,1,j,l,,,,,,,,,2,17,53,3,,,,,,,,,,,,,,,,,,,,,,,,main,2,2,1,neutral,negative,j,j,1,0.8490655999999035,278.2720764999999,279.2846333999996,279.2482484999996,None,278.2720764999999,None,278.2720764999999,None,278.2720764999999,None,280.10407313999997,None,280.10407313999997,None,280.10407313999997,None,,,,,,,,,,,222,21,Male,2022-05-23_14h33.26.862,Main,2022.1.1,60.00582056465512,
positive,neutral,1,l,j,,,,,,,,,3,0,54,8,,,,,,,,,,,,,,,,,,,,,,,,main,1,1,1,neutral,positive,l,l,1,0.9225612999998702,280.1230636999999,281.14028959999996,281.10324109999965,None,280.1230636999999,None,280.1230636999999,None,280.1230636999999,None,282.0310241399999,None,282.0310241399999,None,282.0310241399999,None,,,,,,,,,,,222,21,Male,2022-05-23_14h33.26.862,Main,2022.1.1,60.00582056465512,
neutral,negative,1,k,k,,,,,,,,,3,1,55,7,,,,,,,,,,,,,,,,,,,,,,,,main,1,1,1,negative,neutral,k,k,1,0.8507442999998602,282.0523742999999,283.06937649999963,283.0323258999997,None,282.0523742999999,None,282.0523742999999,None,282.0523742999999,None,283.8843584399998,None,283.8843584399998,None,283.8843584399998,None,,,,,,,,,,,222,21,Male,2022-05-23_14h33.26.862,Main,2022.1.1,60.00582056465512,
negative,positive,2,j,l,,,,,,,,,3,2,56,15,,,,,,,,,,,,,,,,,,,,,,,,main,2,2,2,positive,negative,j,j,1,0.7921350999999959,283.9051930999999,284.9176686999999,284.8812651999997,None,283.9051930999999,None,283.9051930999999,None,283.9051930999999,None,285.68105353999965,None,285.68105353999965,None,285.68105353999965,None,,,,,,,,,,,222,21,Male,2022-05-23_14h33.26.862,Main,2022.1.1,60.00582056465512,
neutral,negative,2,k,k,,,,,,,,,3,3,57,16,,,,,,,,,,,,,,,,,,,,,,,,main,2,2,2,negative,neutral,k,k,1,0.8216912000002594,285.7006266999997,286.7181301999999,286.6811588999999,None,285.7006266999997,None,285.7006266999997,None,285.7006266999997,None,287.5050889399996,None,287.5050889399996,None,287.5050889399996,None,,,,,,,,,,,222,21,Male,2022-05-23_14h33.26.862,Main,2022.1.1,60.00582056465512,
positive,negative,1,l,j,,,,,,,,,3,4,58,5,,,,,,,,,,,,,,,,,,,,,,,,main,1,1,1,negative,positive,l,l,1,0.9617760999999518,287.5303676999997,288.5405205999996,288.5040945999999,None,287.5303676999997,None,287.5303676999997,None,287.5303676999997,None,289.46931733999975,None,289.46931733999975,None,289.46931733999975,None,,,,,,,,,,,222,21,Male,2022-05-23_14h33.26.862,Main,2022.1.1,60.00582056465512,
positive,positive,1,l,j,,,,,,,,,3,5,59,2,,,,,,,,,,,,,,,,,,,,,,,,main,1,1,1,positive,positive,l,l,1,1.022480600000108,289.490225,290.4986426999999,290.4798327999997,None,289.490225,None,289.490225,None,289.490225,None,291.4963695399998,None,291.4963695399998,None,291.4963695399998,None,,,,,,,,,,,222,21,Male,2022-05-23_14h33.26.862,Main,2022.1.1,60.00582056465512,
neutral,positive,1,k,k,,,,,,,,,3,6,60,4,,,,,,,,,,,,,,,,,,,,,,,,main,2,2,1,positive,neutral,k,k,1,0.7516848999998729,291.5181401,292.5265121999996,292.5067046999998,None,291.5181401,None,291.5181401,None,291.5181401,None,293.25158743999975,None,293.25158743999975,None,293.25158743999975,None,,,,,,,,,,,222,21,Male,2022-05-23_14h33.26.862,Main,2022.1.1,60.00582056465512,
negative,negative,1,j,l,,,,,,,,,3,7,61,0,,,,,,,,,,,,,,,,,,,,,,,,main,1,1,1,negative,negative,j,j,1,0.867751099999623,293.27080529999967,294.28688299999976,294.2501368999997,None,293.27080529999967,None,293.27080529999967,None,293.27080529999967,None,295.1219970399999,None,295.1219970399999,None,295.1219970399999,None,,,,,,,,,,,222,21,Male,2022-05-23_14h33.26.862,Main,2022.1.1,60.00582056465512,
negative,neutral,2,j,l,,,,,,,,,3,8,62,12,,,,,,,,,,,,,,,,,,,,,,,,main,2,2,2,neutral,negative,j,j,1,1.741369300000315,295.1412750999998,296.15617729999985,296.1207698999997,None,295.1412750999998,None,295.1412750999998,None,295.1412750999998,None,297.8709822999999,None,297.8709822999999,None,297.8709822999999,None,,,,,,,,,,,222,21,Male,2022-05-23_14h33.26.862,Main,2022.1.1,60.00582056465512,
negative,positive,1,j,l,,,,,,,,,3,9,63,6,,,,,,,,,,,,,,,,,,,,,,,,main,2,2,1,positive,negative,j,j,1,0.8785993999999846,298.88622039999973,299.9008414,299.86401069999965,None,298.88622039999973,None,298.88622039999973,None,298.88622039999973,None,300.74701663999997,None,300.74701663999997,None,300.74701663999997,None,,,,,,,,,,,222,21,Male,2022-05-23_14h33.26.862,Main,2022.1.1,60.00582056465512,
positive,negative,2,l,j,,,,,,,,,3,10,64,14,,,,,,,,,,,,,,,,,,,,,,,,main,1,1,2,negative,positive,l,l,1,0.9051662999995642,300.7671596,301.7818112,301.7452149999999,None,300.7671596,None,300.7671596,None,300.7671596,None,302.6561554399997,None,302.6561554399997,None,302.6561554399997,None,,,,,,,,,,,222,21,Male,2022-05-23_14h33.26.862,Main,2022.1.1,60.00582056465512,
neutral,positive,2,k,k,,,,,,,,,3,11,65,13,,,,,,,,,,,,,,,,,,,,,,,,main,2,2,2,positive,neutral,k,k,1,0.8446006999997735,302.6763434999998,303.68439279999984,303.6661270999998,None,302.6763434999998,None,302.6763434999998,None,302.6763434999998,None,304.5016511399996,None,304.5016511399996,None,304.5016511399996,None,,,,,,,,,,,222,21,Male,2022-05-23_14h33.26.862,Main,2022.1.1,60.00582056465512,
neutral,neutral,1,k,k,,,,,,,,,3,12,66,1,,,,,,,,,,,,,,,,,,,,,,,,main,1,1,1,neutral,neutral,k,k,1,0.989164300000084,304.52549069999986,305.5354149,305.4988288999998,None,304.52549069999986,None,304.52549069999986,None,304.52549069999986,None,306.4960768399998,None,306.4960768399998,None,306.4960768399998,None,,,,,,,,,,,222,21,Male,2022-05-23_14h33.26.862,Main,2022.1.1,60.00582056465512,
neutral,neutral,2,k,k,,,,,,,,,3,13,67,10,,,,,,,,,,,,,,,,,,,,,,,,main,2,2,2,neutral,neutral,k,k,1,2.856270300000233,306.51668549999977,307.53140859999985,307.4937918999999,None,306.51668549999977,None,306.51668549999977,None,306.51668549999977,None,310.3621055999997,None,310.3621055999997,None,310.3621055999997,None,,,,,,,,,,,222,21,Male,2022-05-23_14h33.26.862,Main,2022.1.1,60.00582056465512,
positive,positive,2,l,j,,,,,,,,,3,14,68,11,,,,,,,,,,,,,,,,,,,,,,,,main,2,2,2,positive,positive,l,l,1,0.8676394999997683,311.3843386999997,312.39671929999986,312.37818259999995,None,311.3843386999997,None,311.3843386999997,None,311.3843386999997,None,313.2329831399999,None,313.2329831399999,None,313.2329831399999,None,,,,,,,,,,,222,21,Male,2022-05-23_14h33.26.862,Main,2022.1.1,60.00582056465512,
negative,neutral,1,j,l,,,,,,,,,3,15,69,3,,,,,,,,,,,,,,,,,,,,,,,,main,1,1,1,neutral,negative,j,j,1,1.1928219999999783,313.25413439999966,314.26979719999963,314.2335281999999,None,313.25413439999966,None,313.25413439999966,None,313.25413439999966,None,315.42917593999994,None,315.42917593999994,None,315.42917593999994,None,,,,,,,,,,,222,21,Male,2022-05-23_14h33.26.862,Main,2022.1.1,60.00582056465512,
negative,negative,2,j,l,,,,,,,,,3,16,70,9,,,,,,,,,,,,,,,,,,,,,,,,main,2,2,2,negative,negative,j,j,1,0.8762596999999914,315.4487039999999,316.4654816999996,316.4292363999998,None,315.4487039999999,None,315.4487039999999,None,315.4487039999999,None,317.3097200399999,None,317.3097200399999,None,317.3097200399999,None,,,,,,,,,,,222,21,Male,2022-05-23_14h33.26.862,Main,2022.1.1,60.00582056465512,
positive,neutral,2,l,j,,,,,,,,,3,17,71,17,,,,,,,,,,,,,,,,,,,,,,,,main,1,1,2,neutral,positive,l,l,1,0.7942524999998568,317.3290204,318.3397646999997,318.30208879999964,None,317.3290204,None,317.3290204,None,317.3290204,None,319.10824713999966,None,319.10824713999966,None,319.10824713999966,None,,,,,,,,,,,222,21,Male,2022-05-23_14h33.26.862,Main,2022.1.1,60.00582056465512,
negative,neutral,1,j,l,,,,,,,,,4,0,72,3,,,,,,,,,,,,,,,,,,,,,,,,main,1,1,1,neutral,negative,j,j,1,0.8534847000000809,319.12869079999973,320.1305121999999,320.11259199999995,None,319.12869079999973,None,319.12869079999973,None,319.12869079999973,None,320.96293623999975,None,320.96293623999975,None,320.96293623999975,None,,,,,,,,,,,222,21,Male,2022-05-23_14h33.26.862,Main,2022.1.1,60.00582056465512,
positive,negative,1,l,j,,,,,,,,,4,1,73,5,,,,,,,,,,,,,,,,,,,,,,,,main,1,1,1,negative,positive,l,l,1,0.901378399999885,320.98181239999985,321.992389,321.97322529999974,None,320.98181239999985,None,320.98181239999985,None,320.98181239999985,None,322.8660317399996,None,322.8660317399996,None,322.8660317399996,None,,,,,,,,,,,222,21,Male,2022-05-23_14h33.26.862,Main,2022.1.1,60.00582056465512,
positive,neutral,2,l,j,,,,,,,,,4,2,74,17,,,,,,,,,,,,,,,,,,,,,,,,main,1,1,2,neutral,positive,l,l,1,0.8330200999998851,322.8858003999999,323.8943021,323.8754236,None,322.8858003999999,None,322.8858003999999,None,322.8858003999999,None,324.70396003999997,None,324.70396003999997,None,324.70396003999997,None,,,,,,,,,,,222,21,Male,2022-05-23_14h33.26.862,Main,2022.1.1,60.00582056465512,
neutral,negative,2,k,k,,,,,,,,,4,3,75,16,,,,,,,,,,,,,,,,,,,,,,,,main,2,2,2,negative,neutral,k,k,1,0.7787498000002415,324.72290459999977,325.73475419999977,325.69891549999966,None,324.72290459999977,None,324.72290459999977,None,324.72290459999977,None,326.4854735399996,None,326.4854735399996,None,326.4854735399996,None,,,,,,,,,,,222,21,Male,2022-05-23_14h33.26.862,Main,2022.1.1,60.00582056465512,
neutral,negative,1,k,k,,,,,,,,,4,4,76,7,,,,,,,,,,,,,,,,,,,,,,,,main,2,2,1,negative,neutral,k,k,1,0.7648939999999129,326.5048050999999,327.5091722999996,327.4887627999997,None,326.5048050999999,None,326.5048050999999,None,326.5048050999999,None,328.25286533999963,None,328.25286533999963,None,328.25286533999963,None,,,,,,,,,,,222,21,Male,2022-05-23_14h33.26.862,Main,2022.1.1,60.00582056465512,
negative,neutral,2,j,l,,,,,,,,,4,5,77,12,,,,,,,,,,,,,,,,,,,,,,,,main,2,2,2,neutral,negative,j,j,1,0.879452499999843,328.2723183999997,329.28463429999965,329.24794139999995,None,328.2723183999997,None,328.2723183999997,None,328.2723183999997,None,330.1328687399997,None,330.1328687399997,None,330.1328687399997,None,,,,,,,,,,,222,21,Male,2022-05-23_14h33.26.862,Main,2022.1.1,60.00582056465512,
neutral,positive,1,k,k,,,,,,,,,4,6,78,4,,,,,,,,,,,,,,,,,,,,,,,,main,2,2,1,positive,neutral,k,l,0,0.8086158999999498,330.15324729999975,331.1628128999996,331.14489829999957,None,330.15324729999975,None,330.15324729999975,None,330.15324729999975,None,331.9539950999997,None,331.9539950999997,None,331.9539950999997,None,,,,,,,,,,,222,21,Male,2022-05-23_14h33.26.862,Main,2022.1.1,60.00582056465512,
negative,positive,2,j,l,,,,,,,,,4,7,79,15,,,,,,,,,,,,,,,,,,,,,,,,main,2,2,2,positive,negative,j,j,1,0.9377563000002738,332.96502789999977,333.9821726,333.9452709999996,None,332.96502789999977,None,332.96502789999977,None,332.96502789999977,None,334.88560083999994,None,334.88560083999994,None,334.88560083999994,None,,,,,,,,,,,222,21,Male,2022-05-23_14h33.26.862,Main,2022.1.1,60.00582056465512,
neutral,positive,2,k,k,,,,,,,,,4,8,80,13,,,,,,,,,,,,,,,,,,,,,,,,main,1,1,2,positive,neutral,k,k,1,0.7832164000001285,334.9053764999999,335.91297959999974,335.8941914999996,None,334.9053764999999,None,334.9053764999999,None,334.9053764999999,None,336.67117963999965,None,336.67117963999965,None,336.67117963999965,None,,,,,,,,,,,222,21,Male,2022-05-23_14h33.26.862,Main,2022.1.1,60.00582056465512,
neutral,neutral,2,k,k,,,,,,,,,4,9,81,10,,,,,,,,,,,,,,,,,,,,,,,,main,2,2,2,neutral,neutral,k,k,1,0.789234999999735,336.69268009999996,337.6982589999998,337.68011799999977,None,336.69268009999996,None,336.69268009999996,None,336.69268009999996,None,338.4624586399997,None,338.4624586399997,None,338.4624586399997,None,,,,,,,,,,,222,21,Male,2022-05-23_14h33.26.862,Main,2022.1.1,60.00582056465512,
positive,positive,1,l,j,,,,,,,,,4,10,82,2,,,,,,,,,,,,,,,,,,,,,,,,main,2,2,1,positive,positive,l,l,1,1.036004000000048,338.48120889999973,339.49648899999966,339.4603232999998,None,338.48120889999973,None,338.48120889999973,None,338.48120889999973,None,340.50164603999986,None,340.50164603999986,None,340.50164603999986,None,,,,,,,,,,,222,21,Male,2022-05-23_14h33.26.862,Main,2022.1.1,60.00582056465512,
positive,negative,2,l,j,,,,,,,,,4,11,83,14,,,,,,,,,,,,,,,,,,,,,,,,main,1,1,2,negative,positive,l,l,1,0.8485200000000077,340.52094639999996,341.5380075999997,341.51843259999987,None,340.52094639999996,None,340.52094639999996,None,340.52094639999996,None,342.35335783999983,None,342.35335783999983,None,342.35335783999983,None,,,,,,,,,,,222,21,Male,2022-05-23_14h33.26.862,Main,2022.1.1,60.00582056465512,
negative,negative,1,j,l,,,,,,,,,4,12,84,0,,,,,,,,,,,,,,,,,,,,,,,,main,2,2,1,negative,negative,j,j,1,1.141364600000088,342.37419,343.38079309999966,343.3622913999998,None,342.37419,None,342.37419,None,342.37419,None,344.49511013999984,None,344.49511013999984,None,344.49511013999984,None,,,,,,,,,,,222,21,Male,2022-05-23_14h33.26.862,Main,2022.1.1,60.00582056465512,
negative,negative,2,j,l,,,,,,,,,4,13,85,9,,,,,,,,,,,,,,,,,,,,,,,,main,1,1,2,negative,negative,j,j,1,1.4550097999999707,344.5144409999998,345.5195085999999,345.50039849999985,None,344.5144409999998,None,344.5144409999998,None,344.5144409999998,None,346.9548364399999,None,346.9548364399999,None,346.9548364399999,None,,,,,,,,,,,222,21,Male,2022-05-23_14h33.26.862,Main,2022.1.1,60.00582056465512,
negative,positive,1,j,l,,,,,,,,,4,14,86,6,,,,,,,,,,,,,,,,,,,,,,,,main,2,2,1,positive,negative,j,j,1,1.0041566999998395,346.9734254,347.97618809999994,347.9577986999998,None,346.9734254,None,346.9734254,None,346.9734254,None,348.9599541399999,None,348.9599541399999,None,348.9599541399999,None,,,,,,,,,,,222,21,Male,2022-05-23_14h33.26.862,Main,2022.1.1,60.00582056465512,
neutral,neutral,1,k,k,,,,,,,,,4,15,87,1,,,,,,,,,,,,,,,,,,,,,,,,main,2,2,1,neutral,neutral,k,k,1,0.8300167000002148,348.9809181999999,349.99536359999956,349.95936189999975,None,348.9809181999999,None,348.9809181999999,None,348.9809181999999,None,350.7926446399998,None,350.7926446399998,None,350.7926446399998,None,,,,,,,,,,,222,21,Male,2022-05-23_14h33.26.862,Main,2022.1.1,60.00582056465512,
positive,neutral,1,l,j,,,,,,,,,4,16,88,8,,,,,,,,,,,,,,,,,,,,,,,,main,2,2,1,neutral,positive,l,l,1,0.8313054999998712,350.8116061999999,351.8125581999998,351.7941257999996,None,350.8116061999999,None,350.8116061999999,None,350.8116061999999,None,352.62588163999965,None,352.62588163999965,None,352.62588163999965,None,,,,,,,,,,,222,21,Male,2022-05-23_14h33.26.862,Main,2022.1.1,60.00582056465512,
positive,positive,2,l,j,,,,,,,,,4,17,89,11,,,,,,,,,,,,,,,,,,,,,,,,main,1,1,2,positive,positive,l,l,1,0.7832353999997395,352.6465390999997,353.66051789999983,353.6237971999999,None,352.6465390999997,None,352.6465390999997,None,352.6465390999997,None,354.4120363399999,None,354.4120363399999,None,354.4120363399999,None,,,,,,,,,,,222,21,Male,2022-05-23_14h33.26.862,Main,2022.1.1,60.00582056465512,
neutral,positive,1,k,k,,,,,,,,,5,0,90,4,,,,,,,,,,,,,,,,,,,,,,,,main,2,2,1,positive,neutral,k,k,1,2.20639170000004,354.4352087999996,355.4414122999997,355.4234710999999,None,354.4352087999996,None,354.4352087999996,None,354.4352087999996,None,357.62846899999977,None,357.62846899999977,None,357.62846899999977,None,,,,,,,,,,,222,21,Male,2022-05-23_14h33.26.862,Main,2022.1.1,60.00582056465512,
neutral,positive,2,k,k,,,,,,,,,5,1,91,13,,,,,,,,,,,,,,,,,,,,,,,,main,2,2,2,positive,neutral,k,k,1,0.8245033000002877,358.6449333999999,359.6560098,359.6371752,None,358.6449333999999,None,358.6449333999999,None,358.6449333999999,None,360.45242403999976,None,360.45242403999976,None,360.45242403999976,None,,,,,,,,,,,222,21,Male,2022-05-23_14h33.26.862,Main,2022.1.1,60.00582056465512,
neutral,negative,2,k,k,,,,,,,,,5,2,92,16,,,,,,,,,,,,,,,,,,,,,,,,main,2,2,2,negative,neutral,k,k,1,0.8065160000001015,360.47203009999976,361.49086069999976,361.4530117999998,None,360.47203009999976,None,360.47203009999976,None,360.47203009999976,None,362.26046113999985,None,362.26046113999985,None,362.26046113999985,None,,,,,,,,,,,222,21,Male,2022-05-23_14h33.26.862,Main,2022.1.1,60.00582056465512,
positive,negative,2,l,j,,,,,,,,,5,3,93,14,,,,,,,,,,,,,,,,,,,,,,,,main,2,2,2,negative,positive,l,l,1,0.885088099999848,362.2840710999999,363.29460279999967,363.2585028999997,None,362.2840710999999,None,362.2840710999999,None,362.2840710999999,None,364.14923543999987,None,364.14923543999987,None,364.14923543999987,None,,,,,,,,,,,222,21,Male,2022-05-23_14h33.26.862,Main,2022.1.1,60.00582056465512,
neutral,neutral,2,k,k,,,,,,,,,5,4,94,10,,,,,,,,,,,,,,,,,,,,,,,,main,2,2,2,neutral,neutral,k,k,1,0.8018470000001798,364.1682572999998,365.18099059999986,365.14408909999975,None,364.1682572999998,None,364.1682572999998,None,364.1682572999998,None,365.9540473399999,None,365.9540473399999,None,365.9540473399999,None,,,,,,,,,,,222,21,Male,2022-05-23_14h33.26.862,Main,2022.1.1,60.00582056465512,
positive,positive,1,l,j,,,,,,,,,5,5,95,2,,,,,,,,,,,,,,,,,,,,,,,,main,2,2,1,positive,positive,l,l,1,0.8104244999999537,365.9742133,366.9783116999997,366.9601126999996,None,365.9742133,None,365.9742133,None,365.9742133,None,367.7627248399996,None,367.7627248399996,None,367.7627248399996,None,,,,,,,,,,,222,21,Male,2022-05-23_14h33.26.862,Main,2022.1.1,60.00582056465512,
neutral,neutral,1,k,k,,,,,,,,,5,6,96,1,,,,,,,,,,,,,,,,,,,,,,,,main,1,1,1,neutral,neutral,k,k,1,0.797574899999745,367.7912835999996,368.79487029999973,368.77704349999976,None,367.7912835999996,None,367.7912835999996,None,367.7912835999996,None,369.56978803999993,None,369.56978803999993,None,369.56978803999993,None,,,,,,,,,,,222,21,Male,2022-05-23_14h33.26.862,Main,2022.1.1,60.00582056465512,
positive,negative,1,l,j,,,,,,,,,5,7,97,5,,,,,,,,,,,,,,,,,,,,,,,,main,2,2,1,negative,positive,l,l,1,0.7818584999999985,369.5908062999997,370.5928770999999,370.5746885999997,None,369.5908062999997,None,369.5908062999997,None,369.5908062999997,None,371.3547807399997,None,371.3547807399997,None,371.3547807399997,None,,,,,,,,,,,222,21,Male,2022-05-23_14h33.26.862,Main,2022.1.1,60.00582056465512,
positive,positive,2,l,j,,,,,,,,,5,8,98,11,,,,,,,,,,,,,,,,,,,,,,,,main,2,2,2,positive,positive,l,l,1,0.724209399999836,371.3756229999999,372.39232489999995,372.35485719999997,None,371.3756229999999,None,371.3756229999999,None,371.3756229999999,None,373.0831932399998,None,373.0831932399998,None,373.0831932399998,None,,,,,,,,,,,222,21,Male,2022-05-23_14h33.26.862,Main,2022.1.1,60.00582056465512,
negative,positive,1,j,l,,,,,,,,,5,9,99,6,,,,,,,,,,,,,,,,,,,,,,,,main,2,2,1,positive,negative,j,j,1,0.8815602000004219,373.1029785999999,374.1135035999996,374.07649999999967,None,373.1029785999999,None,373.1029785999999,None,373.1029785999999,None,374.9668729399997,None,374.9668729399997,None,374.9668729399997,None,,,,,,,,,,,222,21,Male,2022-05-23_14h33.26.862,Main,2022.1.1,60.00582056465512,
negative,neutral,2,j,l,,,,,,,,,5,10,100,12,,,,,,,,,,,,,,,,,,,,,,,,main,2,2,2,neutral,negative,j,j,1,0.8037094999999681,374.9867492999997,375.99917349999987,375.9610727999998,None,374.9867492999997,None,374.9867492999997,None,374.9867492999997,None,376.77240933999985,None,376.77240933999985,None,376.77240933999985,None,,,,,,,,,,,222,21,Male,2022-05-23_14h33.26.862,Main,2022.1.1,60.00582056465512,
negative,neutral,1,j,l,,,,,,,,,5,11,101,3,,,,,,,,,,,,,,,,,,,,,,,,main,1,1,1,neutral,negative,j,j,1,0.9686271000000488,376.79278699999986,377.80887729999995,377.77319639999996,None,376.79278699999986,None,376.79278699999986,None,376.79278699999986,None,378.7453676399997,None,378.7453676399997,None,378.7453676399997,None,,,,,,,,,,,222,21,Male,2022-05-23_14h33.26.862,Main,2022.1.1,60.00582056465512,
negative,negative,1,j,l,,,,,,,,,5,12,102,0,,,,,,,,,,,,,,,,,,,,,,,,main,1,1,1,negative,negative,j,j,1,0.9111587000002146,378.7679863999997,379.77898099999993,379.7408389999996,None,378.7679863999997,None,378.7679863999997,None,378.7679863999997,None,380.6582663399996,None,380.6582663399996,None,380.6582663399996,None,,,,,,,,,,,222,21,Male,2022-05-23_14h33.26.862,Main,2022.1.1,60.00582056465512,
positive,neutral,2,l,j,,,,,,,,,5,13,103,17,,,,,,,,,,,,,,,,,,,,,,,,main,2,2,2,neutral,positive,l,l,1,1.0202162999999018,380.6778290999996,381.68491099999983,381.66515439999966,None,380.6778290999996,None,380.6778290999996,None,380.6778290999996,None,382.68230173999984,None,382.68230173999984,None,382.68230173999984,None,,,,,,,,,,,222,21,Male,2022-05-23_14h33.26.862,Main,2022.1.1,60.00582056465512,
negative,negative,2,j,l,,,,,,,,,5,14,104,9,,,,,,,,,,,,,,,,,,,,,,,,main,2,2,2,negative,negative,j,j,1,0.9058201000002555,382.7017191,383.7122652999997,383.67555449999963,None,382.7017191,None,382.7017191,None,382.7017191,None,384.5890637399999,None,384.5890637399999,None,384.5890637399999,None,,,,,,,,,,,222,21,Male,2022-05-23_14h33.26.862,Main,2022.1.1,60.00582056465512,
negative,positive,2,j,l,,,,,,,,,5,15,105,15,,,,,,,,,,,,,,,,,,,,,,,,main,2,2,2,positive,negative,j,j,1,0.6807054999999309,384.6092738999996,385.61033559999987,385.59248839999964,None,384.6092738999996,None,384.6092738999996,None,384.6092738999996,None,386.2725756399997,None,386.2725756399997,None,386.2725756399997,None,,,,,,,,,,,222,21,Male,2022-05-23_14h33.26.862,Main,2022.1.1,60.00582056465512,
neutral,negative,1,k,k,,,,,,,,,5,16,106,7,,,,,,,,,,,,,,,,,,,,,,,,main,2,2,1,negative,neutral,k,k,1,1.1182921000004171,386.2928844999997,387.31009189999986,387.2737794999998,None,386.2928844999997,None,386.2928844999997,None,386.2928844999997,None,388.39307453999993,None,388.39307453999993,None,388.39307453999993,None,,,,,,,,,,,222,21,Male,2022-05-23_14h33.26.862,Main,2022.1.1,60.00582056465512,
positive,neutral,1,l,j,,,,,,,,,5,17,107,8,,,,,,,,,,,,,,,,,,,,,,,,main,2,2,1,neutral,positive,l,l,1,0.9098531999998158,388.41302399999995,389.42069999999967,389.4024867999997,None,388.41302399999995,None,388.41302399999995,None,388.41302399999995,None,390.3057288399997,None,390.3057288399997,None,390.3057288399997,None,,,,,,,,,,,222,21,Male,2022-05-23_14h33.26.862,Main,2022.1.1,60.00582056465512,
positive,neutral,1,l,j,,,,,,,,,6,0,108,8,,,,,,,,,,,,,,,,,,,,,,,,main,2,2,1,neutral,positive,l,l,1,0.7212193000000298,390.32557289999977,391.3441527,391.3075821999996,None,390.32557289999977,None,390.32557289999977,None,390.32557289999977,None,392.03112544,None,392.03112544,None,392.03112544,None,,,,,,,,,,,222,21,Male,2022-05-23_14h33.26.862,Main,2022.1.1,60.00582056465512,
neutral,negative,1,k,k,,,,,,,,,6,1,109,7,,,,,,,,,,,,,,,,,,,,,,,,main,1,1,1,negative,neutral,k,k,1,1.0797578000001522,392.0492743,393.0551432999996,393.03669119999995,None,392.0492743,None,392.0492743,None,392.0492743,None,394.1133635399998,None,394.1133635399998,None,394.1133635399998,None,,,,,,,,,,,222,21,Male,2022-05-23_14h33.26.862,Main,2022.1.1,60.00582056465512,
positive,positive,2,l,j,,,,,,,,,6,2,110,11,,,,,,,,,,,,,,,,,,,,,,,,main,1,1,2,positive,positive,l,l,1,2.649244799999906,394.1357059999996,395.13840999999957,395.12044509999987,None,394.1357059999996,None,394.1357059999996,None,394.1357059999996,None,397.7706306,None,397.7706306,None,397.7706306,None,,,,,,,,,,,222,21,Male,2022-05-23_14h33.26.862,Main,2022.1.1,60.00582056465512,
positive,neutral,2,l,j,,,,,,,,,6,3,111,17,,,,,,,,,,,,,,,,,,,,,,,,main,1,1,2,neutral,positive,l,l,1,0.9979088000000047,398.7899392999998,399.80424559999983,399.7676442999996,None,398.7899392999998,None,398.7899392999998,None,398.7899392999998,None,400.7692011399996,None,400.7692011399996,None,400.7692011399996,None,,,,,,,,,,,222,21,Male,2022-05-23_14h33.26.862,Main,2022.1.1,60.00582056465512,
negative,positive,1,j,l,,,,,,,,,6,4,112,6,,,,,,,,,,,,,,,,,,,,,,,,main,2,2,1,positive,negative,j,j,1,0.9875231999999414,400.7902074999997,401.79095449999977,401.77302199999986,None,400.7902074999997,None,400.7902074999997,None,400.7902074999997,None,402.76148793999994,None,402.76148793999994,None,402.76148793999994,None,,,,,,,,,,,222,21,Male,2022-05-23_14h33.26.862,Main,2022.1.1,60.00582056465512,
negative,negative,2,j,l,,,,,,,,,6,5,113,9,,,,,,,,,,,,,,,,,,,,,,,,main,2,2,2,negative,negative,j,j,1,0.8809346000002733,402.7806059999998,403.7924516999997,403.7555602999996,None,402.7806059999998,None,402.7806059999998,None,402.7806059999998,None,404.6448857399997,None,404.6448857399997,None,404.6448857399997,None,,,,,,,,,,,222,21,Male,2022-05-23_14h33.26.862,Main,2022.1.1,60.00582056465512,
negative,neutral,2,j,l,,,,,,,,,6,6,114,12,,,,,,,,,,,,,,,,,,,,,,,,main,1,1,2,neutral,negative,j,j,1,0.6835007999998197,404.66478259999985,405.66968959999986,405.6518653999997,None,404.66478259999985,None,404.66478259999985,None,404.66478259999985,None,406.3318570399998,None,406.3318570399998,None,406.3318570399998,None,,,,,,,,,,,222,21,Male,2022-05-23_14h33.26.862,Main,2022.1.1,60.00582056465512,
neutral,neutral,1,k,k,,,,,,,,,6,7,115,1,,,,,,,,,,,,,,,,,,,,,,,,main,2,2,1,neutral,neutral,k,k,1,0.8555292999999438,406.3522776,407.3651838999999,407.34651619999977,None,406.3522776,None,406.3522776,None,406.3522776,None,408.1923536399996,None,408.1923536399996,None,408.1923536399996,None,,,,,,,,,,,222,21,Male,2022-05-23_14h33.26.862,Main,2022.1.1,60.00582056465512,
neutral,positive,1,k,k,,,,,,,,,6,8,116,4,,,,,,,,,,,,,,,,,,,,,,,,main,2,2,1,positive,neutral,k,k,1,0.6307528000002094,408.21322439999994,409.2280910999998,409.19079899999997,None,408.21322439999994,None,408.21322439999994,None,408.21322439999994,None,409.8239491399996,None,409.8239491399996,None,409.8239491399996,None,,,,,,,,,,,222,21,Male,2022-05-23_14h33.26.862,Main,2022.1.1,60.00582056465512,
negative,neutral,1,j,l,,,,,,,,,6,9,117,3,,,,,,,,,,,,,,,,,,,,,,,,main,2,2,1,neutral,negative,j,j,1,0.8095689000001585,409.8448021999998,410.8651828999996,410.82421069999964,None,409.8448021999998,None,409.8448021999998,None,409.8448021999998,None,411.63717543999985,None,411.63717543999985,None,411.63717543999985,None,,,,,,,,,,,222,21,Male,2022-05-23_14h33.26.862,Main,2022.1.1,60.00582056465512,
positive,positive,1,l,j,,,,,,,,,6,10,118,2,,,,,,,,,,,,,,,,,,,,,,,,main,1,1,1,positive,positive,l,l,1,1.0105349000000388,411.65606869999965,412.6609559999997,412.6408929999998,None,411.65606869999965,None,411.65606869999965,None,411.65606869999965,None,413.64908973999957,None,413.64908973999957,None,413.64908973999957,None,,,,,,,,,,,222,21,Male,2022-05-23_14h33.26.862,Main,2022.1.1,60.00582056465512,
positive,negative,2,l,j,,,,,,,,,6,11,119,14,,,,,,,,,,,,,,,,,,,,,,,,main,1,1,2,negative,positive,l,l,1,0.7808415999998033,413.6703414999997,414.67589039999984,414.65659319999986,None,413.6703414999997,None,413.6703414999997,None,413.6703414999997,None,415.4338464399999,None,415.4338464399999,None,415.4338464399999,None,,,,,,,,,,,222,21,Male,2022-05-23_14h33.26.862,Main,2022.1.1,60.00582056465512,
negative,negative,1,j,l,,,,,,,,,6,12,120,0,,,,,,,,,,,,,,,,,,,,,,,,main,2,2,1,negative,negative,j,j,1,0.8925210000002153,415.4530880999996,416.4554353999997,416.4372358999999,None,415.4530880999996,None,415.4530880999996,None,415.4530880999996,None,417.3303164399996,None,417.3303164399996,None,417.3303164399996,None,,,,,,,,,,,222,21,Male,2022-05-23_14h33.26.862,Main,2022.1.1,60.00582056465512,
neutral,negative,2,k,k,,,,,,,,,6,13,121,16,,,,,,,,,,,,,,,,,,,,,,,,main,2,2,2,negative,neutral,k,k,1,0.8559988000001795,417.35014669999964,418.3544597,418.3362204,None,417.35014669999964,None,417.35014669999964,None,417.35014669999964,None,419.18886503999977,None,419.18886503999977,None,419.18886503999977,None,,,,,,,,,,,222,21,Male,2022-05-23_14h33.26.862,Main,2022.1.1,60.00582056465512,
positive,negative,1,l,j,,,,,,,,,6,14,122,5,,,,,,,,,,,,,,,,,,,,,,,,main,2,2,1,negative,positive,l,l,1,0.8805484999998043,419.2086445,420.21975029999976,420.18371039999965,None,419.2086445,None,419.2086445,None,419.2086445,None,421.0739872399996,None,421.0739872399996,None,421.0739872399996,None,,,,,,,,,,,222,21,Male,2022-05-23_14h33.26.862,Main,2022.1.1,60.00582056465512,
neutral,positive,2,k,k,,,,,,,,,6,15,123,13,,,,,,,,,,,,,,,,,,,,,,,,main,2,2,2,positive,neutral,k,k,1,1.596842999999808,421.0931509999996,422.10002069999973,422.0816086,None,421.0931509999996,None,421.0931509999996,None,421.0931509999996,None,423.67921009999964,None,423.67921009999964,None,423.67921009999964,None,,,,,,,,,,,222,21,Male,2022-05-23_14h33.26.862,Main,2022.1.1,60.00582056465512,
neutral,neutral,2,k,k,,,,,,,,,6,16,124,10,,,,,,,,,,,,,,,,,,,,,,,,main,1,1,2,neutral,neutral,k,k,1,0.6443033000000469,424.70427649999965,425.70662699999957,425.6887201999998,None,424.70427649999965,None,424.70427649999965,None,424.70427649999965,None,426.3301993399997,None,426.3301993399997,None,426.3301993399997,None,,,,,,,,,,,222,21,Male,2022-05-23_14h33.26.862,Main,2022.1.1,60.00582056465512,
negative,positive,2,j,l,,,,,,,,,6,17,125,15,,,,,,,,,,,,,,,,,,,,,,,,main,2,2,2,positive,negative,j,j,1,0.8150561999996171,426.3526085999997,427.3688689999999,427.3325139999997,None,426.3526085999997,None,426.3526085999997,None,426.3526085999997,None,428.14918153999963,None,428.14918153999963,None,428.14918153999963,None,,,,,,,,,,,222,21,Male,2022-05-23_14h33.26.862,Main,2022.1.1,60.00582056465512,
positive,neutral,1,l,j,,,,,,,,,7,0,126,8,,,,,,,,,,,,,,,,,,,,,,,,main,2,2,1,neutral,positive,l,l,1,0.9575401000001875,428.1688009999998,429.1846366,429.1475421,None,428.1688009999998,None,428.1688009999998,None,428.1688009999998,None,430.11083533999965,None,430.11083533999965,None,430.11083533999965,None,,,,,,,,,,,222,21,Male,2022-05-23_14h33.26.862,Main,2022.1.1,60.00582056465512,
neutral,negative,2,k,k,,,,,,,,,7,1,127,16,,,,,,,,,,,,,,,,,,,,,,,,main,2,2,2,negative,neutral,k,k,1,0.8228579999999965,430.1307738999999,431.13941069999964,431.1031923999999,None,430.1307738999999,None,430.1307738999999,None,430.1307738999999,None,431.93440183999985,None,431.93440183999985,None,431.93440183999985,None,,,,,,,,,,,222,21,Male,2022-05-23_14h33.26.862,Main,2022.1.1,60.00582056465512,
positive,negative,2,l,j,,,,,,,,,7,2,128,14,,,,,,,,,,,,,,,,,,,,,,,,main,2,2,2,negative,positive,l,l,1,0.8445603999998639,431.95391119999977,432.97246229999973,432.9358305999999,None,431.95391119999977,None,431.95391119999977,None,431.95391119999977,None,433.78185973999973,None,433.78185973999973,None,433.78185973999973,None,,,,,,,,,,,222,21,Male,2022-05-23_14h33.26.862,Main,2022.1.1,60.00582056465512,
negative,neutral,1,j,l,,,,,,,,,7,3,129,3,,,,,,,,,,,,,,,,,,,,,,,,main,2,2,1,neutral,negative,j,j,1,0.8546120999999403,433.8020155999998,434.8043429999998,434.7853987999997,None,433.8020155999998,None,433.8020155999998,None,433.8020155999998,None,435.6368886399997,None,435.6368886399997,None,435.6368886399997,None,,,,,,,,,,,222,21,Male,2022-05-23_14h33.26.862,Main,2022.1.1,60.00582056465512,
negative,negative,2,j,l,,,,,,,,,7,4,130,9,,,,,,,,,,,,,,,,,,,,,,,,main,2,2,2,negative,negative,j,j,1,0.8369124000000738,435.6582489999996,436.66441859999986,436.64646669999956,None,435.6582489999996,None,435.6582489999996,None,435.6582489999996,None,437.4797386399997,None,437.4797386399997,None,437.4797386399997,None,,,,,,,,,,,222,21,Male,2022-05-23_14h33.26.862,Main,2022.1.1,60.00582056465512,
negative,neutral,2,j,l,,,,,,,,,7,5,131,12,,,,,,,,,,,,,,,,,,,,,,,,main,1,1,2,neutral,negative,j,j,1,0.6952067000001989,437.4982965999998,438.5143648999997,438.4779397999996,None,437.4982965999998,None,437.4982965999998,None,437.4982965999998,None,439.17883233999976,None,439.17883233999976,None,439.17883233999976,None,,,,,,,,,,,222,21,Male,2022-05-23_14h33.26.862,Main,2022.1.1,60.00582056465512,
neutral,negative,1,k,k,,,,,,,,,7,6,132,7,,,,,,,,,,,,,,,,,,,,,,,,main,2,2,1,negative,neutral,k,k,1,0.7524723999999878,439.1983264999999,440.20347249999986,440.1832823999998,None,439.1983264999999,None,439.1983264999999,None,439.1983264999999,None,440.9335599399998,None,440.9335599399998,None,440.9335599399998,None,,,,,,,,,,,222,21,Male,2022-05-23_14h33.26.862,Main,2022.1.1,60.00582056465512,
positive,neutral,2,l,j,,,,,,,,,7,7,133,17,,,,,,,,,,,,,,,,,,,,,,,,main,1,1,2,neutral,positive,l,l,1,0.8621546000003946,440.9533188999999,441.96448199999986,441.92830399999957,None,440.9533188999999,None,440.9533188999999,None,440.9533188999999,None,442.7989287399997,None,442.7989287399997,None,442.7989287399997,None,,,,,,,,,,,222,21,Male,2022-05-23_14h33.26.862,Main,2022.1.1,60.00582056465512,
positive,positive,2,l,j,,,,,,,,,7,8,134,11,,,,,,,,,,,,,,,,,,,,,,,,main,2,2,2,positive,positive,l,l,1,0.7818531000002622,442.8184446999999,443.83863809999957,443.8107170999997,None,442.8184446999999,None,442.8184446999999,None,442.8184446999999,None,444.58166763999964,None,444.58166763999964,None,444.58166763999964,None,,,,,,,,,,,222,21,Male,2022-05-23_14h33.26.862,Main,2022.1.1,60.00582056465512,
neutral,positive,2,k,k,,,,,,,,,7,9,135,13,,,,,,,,,,,,,,,,,,,,,,,,main,1,1,2,positive,neutral,k,k,1,0.7884399999998095,444.6031661999996,445.6145789999996,445.5779668,None,444.6031661999996,None,444.6031661999996,None,444.6031661999996,None,446.3754341399996,None,446.3754341399996,None,446.3754341399996,None,,,,,,,,,,,222,21,Male,2022-05-23_14h33.26.862,Main,2022.1.1,60.00582056465512,
neutral,positive,1,k,k,,,,,,,,,7,10,136,4,,,,,,,,,,,,,,,,,,,,,,,,main,2,2,1,positive,neutral,k,k,1,0.8029739999997219,446.39471349999985,447.3978582,447.3794361999999,None,446.39471349999985,None,446.39471349999985,None,446.39471349999985,None,448.17976453999984,None,448.17976453999984,None,448.17976453999984,None,,,,,,,,,,,222,21,Male,2022-05-23_14h33.26.862,Main,2022.1.1,60.00582056465512,
negative,positive,1,j,l,,,,,,,,,7,11,137,6,,,,,,,,,,,,,,,,,,,,,,,,main,1,1,1,positive,negative,j,j,1,0.8705090999997083,448.1992568999999,449.2023801999999,449.1839064999999,None,448.1992568999999,None,448.1992568999999,None,448.1992568999999,None,450.05465593999963,None,450.05465593999963,None,450.05465593999963,None,,,,,,,,,,,222,21,Male,2022-05-23_14h33.26.862,Main,2022.1.1,60.00582056465512,
positive,positive,1,l,j,,,,,,,,,7,12,138,2,,,,,,,,,,,,,,,,,,,,,,,,main,2,2,1,positive,positive,l,l,1,1.0799251000003096,450.0737624999997,451.08481489999986,451.0467252999997,None,450.0737624999997,None,450.0737624999997,None,450.0737624999997,None,452.1355840399998,None,452.1355840399998,None,452.1355840399998,None,,,,,,,,,,,222,21,Male,2022-05-23_14h33.26.862,Main,2022.1.1,60.00582056465512,
neutral,neutral,2,k,k,,,,,,,,,7,13,139,10,,,,,,,,,,,,,,,,,,,,,,,,main,1,1,2,neutral,neutral,k,k,1,0.8482874999999694,452.154317,453.1594895999997,453.14107769999964,None,452.154317,None,452.154317,None,452.154317,None,453.9877744399997,None,453.9877744399997,None,453.9877744399997,None,,,,,,,,,,,222,21,Male,2022-05-23_14h33.26.862,Main,2022.1.1,60.00582056465512,
negative,negative,1,j,l,,,,,,,,,7,14,140,0,,,,,,,,,,,,,,,,,,,,,,,,main,2,2,1,negative,negative,j,j,1,0.8803149999998823,454.0065566999997,455.01230669999995,454.9941617999998,None,454.0065566999997,None,454.0065566999997,None,454.0065566999997,None,455.8704096399998,None,455.8704096399998,None,455.8704096399998,None,,,,,,,,,,,222,21,Male,2022-05-23_14h33.26.862,Main,2022.1.1,60.00582056465512,
neutral,neutral,1,k,k,,,,,,,,,7,15,141,1,,,,,,,,,,,,,,,,,,,,,,,,main,2,2,1,neutral,neutral,k,k,1,0.8466023999999379,455.8896192999996,456.8944637999998,456.8761218999998,None,455.8896192999996,None,455.8896192999996,None,455.8896192999996,None,457.7183798399998,None,457.7183798399998,None,457.7183798399998,None,,,,,,,,,,,222,21,Male,2022-05-23_14h33.26.862,Main,2022.1.1,60.00582056465512,
positive,negative,1,l,j,,,,,,,,,7,16,142,5,,,,,,,,,,,,,,,,,,,,,,,,main,1,1,1,negative,positive,l,l,1,0.9595666000000165,457.7375946999996,458.7451460999996,458.7247336999999,None,457.7375946999996,None,457.7375946999996,None,457.7375946999996,None,459.6799132399998,None,459.6799132399998,None,459.6799132399998,None,,,,,,,,,,,222,21,Male,2022-05-23_14h33.26.862,Main,2022.1.1,60.00582056465512,
negative,positive,2,j,l,,,,,,,,,7,17,143,15,,,,,,,,,,,,,,,,,,,,,,,,main,2,2,2,positive,negative,j,j,1,0.9041857000001983,459.6997395999997,460.7067755999997,460.68818859999965,None,459.6997395999997,None,459.6997395999997,None,459.6997395999997,None,461.5883460399997,None,461.5883460399997,None,461.5883460399997,None,,,,,,,,,,,222,21,Male,2022-05-23_14h33.26.862,Main,2022.1.1,60.00582056465512,
negative,negative,1,j,l,,,,,,,,,8,0,144,0,,,,,,,,,,,,,,,,,,,,,,,,main,1,1,1,negative,negative,j,j,1,0.9224380000000565,461.61061729999983,462.61522079999986,462.5962803999996,None,461.61061729999983,None,461.61061729999983,None,461.61061729999983,None,463.5116382399998,None,463.5116382399998,None,463.5116382399998,None,,,,,,,,,,,222,21,Male,2022-05-23_14h33.26.862,Main,2022.1.1,60.00582056465512,
positive,neutral,1,l,j,,,,,,,,,8,1,145,8,,,,,,,,,,,,,,,,,,,,,,,,main,1,1,1,neutral,positive,l,l,1,0.9825842999998713,463.5309926,464.53223609999986,464.5143304999997,None,463.5309926,None,463.5309926,None,463.5309926,None,465.49635883999974,None,465.49635883999974,None,465.49635883999974,None,,,,,,,,,,,222,21,Male,2022-05-23_14h33.26.862,Main,2022.1.1,60.00582056465512,
negative,positive,1,j,l,,,,,,,,,8,2,146,6,,,,,,,,,,,,,,,,,,,,,,,,main,2,2,1,positive,negative,j,j,1,0.9383978999999272,465.51644469999974,466.5260009999997,466.50713529999985,None,465.51644469999974,None,465.51644469999974,None,465.51644469999974,None,467.43935643999987,None,467.43935643999987,None,467.43935643999987,None,,,,,,,,,,,222,21,Male,2022-05-23_14h33.26.862,Main,2022.1.1,60.00582056465512,
positive,neutral,2,l,j,,,,,,,,,8,3,147,17,,,,,,,,,,,,,,,,,,,,,,,,main,2,2,2,neutral,positive,l,l,1,1.1347006999999394,467.4588270999998,468.4637071999996,468.44560269999965,None,467.4588270999998,None,467.4588270999998,None,467.4588270999998,None,469.5754990399997,None,469.5754990399997,None,469.5754990399997,None,,,,,,,,,,,222,21,Male,2022-05-23_14h33.26.862,Main,2022.1.1,60.00582056465512,
neutral,negative,2,k,k,,,,,,,,,8,4,148,16,,,,,,,,,,,,,,,,,,,,,,,,main,1,1,2,negative,neutral,k,k,1,0.8323359000000892,469.59532139999965,470.5978685,470.57981359999985,None,469.59532139999965,None,469.59532139999965,None,469.59532139999965,None,471.41055264,None,471.41055264,None,471.41055264,None,,,,,,,,,,,222,21,Male,2022-05-23_14h33.26.862,Main,2022.1.1,60.00582056465512,
negative,neutral,2,j,l,,,,,,,,,8,5,149,12,,,,,,,,,,,,,,,,,,,,,,,,main,1,1,2,neutral,negative,j,j,1,1.2147232000002077,471.430065,472.4476341999998,472.4121105999998,None,471.430065,None,471.430065,None,471.430065,None,473.62736033999965,None,473.62736033999965,None,473.62736033999965,None,,,,,,,,,,,222,21,Male,2022-05-23_14h33.26.862,Main,2022.1.1,60.00582056465512,
negative,neutral,1,j,l,,,,,,,,,8,6,150,3,,,,,,,,,,,,,,,,,,,,,,,,main,1,1,1,neutral,negative,j,j,1,0.8624323999997614,473.64763029999995,474.66433919999963,474.6276214999998,None,473.64763029999995,None,473.64763029999995,None,473.64763029999995,None,475.4928112399999,None,475.4928112399999,None,475.4928112399999,None,,,,,,,,,,,222,21,Male,2022-05-23_14h33.26.862,Main,2022.1.1,60.00582056465512,
neutral,neutral,1,k,k,,,,,,,,,8,7,151,1,,,,,,,,,,,,,,,,,,,,,,,,main,2,2,1,neutral,neutral,k,k,1,1.5064093000000867,475.5123362999998,476.53247059999967,476.49448559999973,None,475.5123362999998,None,475.5123362999998,None,475.5123362999998,None,478.0090302999997,None,478.0090302999997,None,478.0090302999997,None,,,,,,,,,,,222,21,Male,2022-05-23_14h33.26.862,Main,2022.1.1,60.00582056465512,
neutral,negative,1,k,k,,,,,,,,,8,8,152,7,,,,,,,,,,,,,,,,,,,,,,,,main,2,2,1,negative,neutral,k,k,1,0.8308458999999857,479.02961879999975,480.0452181999999,480.00922939999964,None,479.02961879999975,None,479.02961879999975,None,479.02961879999975,None,480.84165004,None,480.84165004,None,480.84165004,None,,,,,,,,,,,222,21,Male,2022-05-23_14h33.26.862,Main,2022.1.1,60.00582056465512,
neutral,positive,2,k,k,,,,,,,,,8,9,153,13,,,,,,,,,,,,,,,,,,,,,,,,main,2,2,2,positive,neutral,k,k,1,0.8004212000000734,480.8650238,481.8759071999998,481.8572473999998,None,480.8650238,None,480.8650238,None,480.8650238,None,482.64585413999987,None,482.64585413999987,None,482.64585413999987,None,,,,,,,,,,,222,21,Male,2022-05-23_14h33.26.862,Main,2022.1.1,60.00582056465512,
positive,negative,1,l,j,,,,,,,,,8,10,154,5,,,,,,,,,,,,,,,,,,,,,,,,main,2,2,1,negative,positive,l,l,1,0.9324417999996513,482.66595039999993,483.67991809999967,483.6434627999997,None,482.66595039999993,None,482.66595039999993,None,482.66595039999993,None,484.58125343999984,None,484.58125343999984,None,484.58125343999984,None,,,,,,,,,,,222,21,Male,2022-05-23_14h33.26.862,Main,2022.1.1,60.00582056465512,
negative,negative,2,j,l,,,,,,,,,8,11,155,9,,,,,,,,,,,,,,,,,,,,,,,,main,2,2,2,negative,negative,j,j,1,1.0806849000000511,484.6003206999999,485.61575029999995,485.5791936999999,None,484.6003206999999,None,484.6003206999999,None,484.6003206999999,None,486.66646123999965,None,486.66646123999965,None,486.66646123999965,None,,,,,,,,,,,222,21,Male,2022-05-23_14h33.26.862,Main,2022.1.1,60.00582056465512,
negative,positive,2,j,l,,,,,,,,,8,12,156,15,,,,,,,,,,,,,,,,,,,,,,,,main,2,2,2,positive,negative,j,j,1,0.8645791999997527,486.68623499999967,487.7054653,487.6682956999998,None,486.68623499999967,None,486.68623499999967,None,486.68623499999967,None,488.53335733999995,None,488.53335733999995,None,488.53335733999995,None,,,,,,,,,,,222,21,Male,2022-05-23_14h33.26.862,Main,2022.1.1,60.00582056465512,
neutral,neutral,2,k,k,,,,,,,,,8,13,157,10,,,,,,,,,,,,,,,,,,,,,,,,main,2,2,2,neutral,neutral,k,k,1,1.398671600000398,488.5521385999996,489.55426279999983,489.53554259999964,None,488.5521385999996,None,488.5521385999996,None,488.5521385999996,None,490.9335274399997,None,490.9335274399997,None,490.9335274399997,None,,,,,,,,,,,222,21,Male,2022-05-23_14h33.26.862,Main,2022.1.1,60.00582056465512,
positive,positive,2,l,j,,,,,,,,,8,14,158,11,,,,,,,,,,,,,,,,,,,,,,,,main,2,2,2,positive,positive,l,l,1,0.8098368000000846,490.9542703999996,491.9628109999999,491.94470219999994,None,490.9542703999996,None,490.9542703999996,None,490.9542703999996,None,492.7452830399999,None,492.7452830399999,None,492.7452830399999,None,,,,,,,,,,,222,21,Male,2022-05-23_14h33.26.862,Main,2022.1.1,60.00582056465512,
neutral,positive,1,k,k,,,,,,,,,8,15,159,4,,,,,,,,,,,,,,,,,,,,,,,,main,1,1,1,positive,neutral,k,k,1,0.809262199999921,492.7645339999999,493.77834619999976,493.74203439999974,None,492.7645339999999,None,492.7645339999999,None,492.7645339999999,None,494.5574854399998,None,494.5574854399998,None,494.5574854399998,None,,,,,,,,,,,222,21,Male,2022-05-23_14h33.26.862,Main,2022.1.1,60.00582056465512,
positive,negative,2,l,j,,,,,,,,,8,16,160,14,,,,,,,,,,,,,,,,,,,,,,,,main,1,1,2,negative,positive,l,l,1,0.850874499999918,494.57695349999995,495.59458959999984,495.55824029999985,None,494.57695349999995,None,494.57695349999995,None,494.57695349999995,None,496.41037573999995,None,496.41037573999995,None,496.41037573999995,None,,,,,,,,,,,222,21,Male,2022-05-23_14h33.26.862,Main,2022.1.1,60.00582056465512,
positive,positive,1,l,j,,,,,,,,,8,17,161,2,,,,,,,,,,,,,,,,,,,,,,,,main,2,2,1,positive,positive,l,l,1,1.3295714000000771,496.4304549999997,497.44704679999995,497.41005819999964,None,496.4304549999997,None,496.4304549999997,None,496.4304549999997,None,498.74249153999983,None,498.74249153999983,None,498.74249153999983,None,,,,,,,,,,,222,21,Male,2022-05-23_14h33.26.862,Main,2022.1.1,60.00582056465512,
negative,neutral,1,j,l,,,,,,,,,9,0,162,3,,,,,,,,,,,,,,,,,,,,,,,,main,1,1,1,neutral,negative,j,j,1,0.9966559999998026,498.76370559999987,499.77064359999986,499.7519933999997,None,498.76370559999987,None,498.76370559999987,None,498.76370559999987,None,500.7419261399997,None,500.7419261399997,None,500.7419261399997,None,,,,,,,,,,,222,21,Male,2022-05-23_14h33.26.862,Main,2022.1.1,60.00582056465512,
neutral,negative,1,k,k,,,,,,,,,9,1,163,7,,,,,,,,,,,,,,,,,,,,,,,,main,2,2,1,negative,neutral,k,k,1,1.0335072000002583,500.76205359999994,501.7702476999998,501.75000059999957,None,500.76205359999994,None,500.76205359999994,None,500.76205359999994,None,502.77875443999994,None,502.77875443999994,None,502.77875443999994,None,,,,,,,,,,,222,21,Male,2022-05-23_14h33.26.862,Main,2022.1.1,60.00582056465512,
positive,positive,1,l,j,,,,,,,,,9,2,164,2,,,,,,,,,,,,,,,,,,,,,,,,main,1,1,1,positive,positive,l,l,1,3.1548321000000215,502.79816389999996,503.80573179999965,503.7870914,None,502.79816389999996,None,502.79816389999996,None,502.79816389999996,None,506.94257119999975,None,506.94257119999975,None,506.94257119999975,None,,,,,,,,,,,222,21,Male,2022-05-23_14h33.26.862,Main,2022.1.1,60.00582056465512,
neutral,neutral,1,k,k,,,,,,,,,9,3,165,1,,,,,,,,,,,,,,,,,,,,,,,,main,2,2,1,neutral,neutral,k,k,1,0.8531268000001546,507.9590427999997,508.9609671999997,508.9428247999999,None,507.9590427999997,None,507.9590427999997,None,507.9590427999997,None,509.7956715399997,None,509.7956715399997,None,509.7956715399997,None,,,,,,,,,,,222,21,Male,2022-05-23_14h33.26.862,Main,2022.1.1,60.00582056465512,
negative,negative,1,j,l,,,,,,,,,9,4,166,0,,,,,,,,,,,,,,,,,,,,,,,,main,1,1,1,negative,negative,j,j,1,0.8639545000000908,509.8154986999998,510.8250326999996,510.7886632,None,509.8154986999998,None,509.8154986999998,None,509.8154986999998,None,511.6607162399997,None,511.6607162399997,None,511.6607162399997,None,,,,,,,,,,,222,21,Male,2022-05-23_14h33.26.862,Main,2022.1.1,60.00582056465512,
positive,positive,2,l,j,,,,,,,,,9,5,167,11,,,,,,,,,,,,,,,,,,,,,,,,main,2,2,2,positive,positive,l,l,1,0.7404896999996708,511.6808202999996,512.6948395,512.6594667999998,None,511.6808202999996,None,511.6808202999996,None,511.6808202999996,None,513.4038915399998,None,513.4038915399998,None,513.4038915399998,None,,,,,,,,,,,222,21,Male,2022-05-23_14h33.26.862,Main,2022.1.1,60.00582056465512,
positive,negative,1,l,j,,,,,,,,,9,6,168,5,,,,,,,,,,,,,,,,,,,,,,,,main,2,2,1,negative,positive,l,l,1,0.7209834000000228,513.4232896999997,514.4374554999999,514.4001387999997,None,513.4232896999997,None,513.4232896999997,None,513.4232896999997,None,515.1290156399997,None,515.1290156399997,None,515.1290156399997,None,,,,,,,,,,,222,21,Male,2022-05-23_14h33.26.862,Main,2022.1.1,60.00582056465512,
positive,neutral,2,l,j,,,,,,,,,9,7,169,17,,,,,,,,,,,,,,,,,,,,,,,,main,1,1,2,neutral,positive,l,l,1,0.7665603000000374,515.1480962999999,516.1525644999997,516.1327776999997,None,515.1480962999999,None,515.1480962999999,None,515.1480962999999,None,516.8977158399999,None,516.8977158399999,None,516.8977158399999,None,,,,,,,,,,,222,21,Male,2022-05-23_14h33.26.862,Main,2022.1.1,60.00582056465512,
negative,positive,2,j,l,,,,,,,,,9,8,170,15,,,,,,,,,,,,,,,,,,,,,,,,main,2,2,2,positive,negative,j,j,1,0.8574920999999449,516.9174596999997,517.9361285999998,517.897626,None,516.9174596999997,None,516.9174596999997,None,516.9174596999997,None,518.7561922399997,None,518.7561922399997,None,518.7561922399997,None,,,,,,,,,,,222,21,Male,2022-05-23_14h33.26.862,Main,2022.1.1,60.00582056465512,
neutral,positive,1,k,k,,,,,,,,,9,9,171,4,,,,,,,,,,,,,,,,,,,,,,,,main,2,2,1,positive,neutral,k,k,1,0.7892538999999488,518.7763938999997,519.7778400999996,519.7598779,None,518.7763938999997,None,518.7763938999997,None,518.7763938999997,None,520.5486383399999,None,520.5486383399999,None,520.5486383399999,None,,,,,,,,,,,222,21,Male,2022-05-23_14h33.26.862,Main,2022.1.1,60.00582056465512,
neutral,neutral,2,k,k,,,,,,,,,9,10,172,10,,,,,,,,,,,,,,,,,,,,,,,,main,2,2,2,neutral,neutral,k,k,1,0.8607050999999046,520.5695683999998,521.5762003999998,521.5578206,None,520.5695683999998,None,520.5695683999998,None,520.5695683999998,None,522.4152221399996,None,522.4152221399996,None,522.4152221399996,None,,,,,,,,,,,222,21,Male,2022-05-23_14h33.26.862,Main,2022.1.1,60.00582056465512,
neutral,positive,2,k,k,,,,,,,,,9,11,173,13,,,,,,,,,,,,,,,,,,,,,,,,main,2,2,2,positive,neutral,k,k,1,0.7907533999996303,522.4365301999997,523.4409263999996,523.4229547999998,None,522.4365301999997,None,522.4365301999997,None,522.4365301999997,None,524.2058786399999,None,524.2058786399999,None,524.2058786399999,None,,,,,,,,,,,222,21,Male,2022-05-23_14h33.26.862,Main,2022.1.1,60.00582056465512,
negative,positive,1,j,l,,,,,,,,,9,12,174,6,,,,,,,,,,,,,,,,,,,,,,,,main,2,2,1,positive,negative,j,j,1,1.2971783000002688,524.2261693999999,525.2367531,525.1997723999998,None,524.2261693999999,None,524.2261693999999,None,524.2261693999999,None,526.5055503399996,None,526.5055503399996,None,526.5055503399996,None,,,,,,,,,,,222,21,Male,2022-05-23_14h33.26.862,Main,2022.1.1,60.00582056465512,
neutral,negative,2,k,k,,,,,,,,,9,13,175,16,,,,,,,,,,,,,,,,,,,,,,,,main,1,1,2,negative,neutral,k,k,1,0.7372312000002239,526.5296979,527.5430723999998,527.5078773999999,None,526.5296979,None,526.5296979,None,526.5296979,None,528.2473783399997,None,528.2473783399997,None,528.2473783399997,None,,,,,,,,,,,222,21,Male,2022-05-23_14h33.26.862,Main,2022.1.1,60.00582056465512,
positive,negative,2,l,j,,,,,,,,,9,14,176,14,,,,,,,,,,,,,,,,,,,,,,,,main,2,2,2,negative,positive,l,l,1,1.7629128999997192,528.2674693999998,529.2744334999998,529.2560891999997,None,528.2674693999998,None,528.2674693999998,None,528.2674693999998,None,531.0184595999999,None,531.0184595999999,None,531.0184595999999,None,,,,,,,,,,,222,21,Male,2022-05-23_14h33.26.862,Main,2022.1.1,60.00582056465512,
negative,negative,2,j,l,,,,,,,,,9,15,177,9,,,,,,,,,,,,,,,,,,,,,,,,main,2,2,2,negative,negative,j,j,1,1.071162799999911,532.0392213,533.0576868999997,533.0214517999998,None,532.0392213,None,532.0392213,None,532.0392213,None,534.0940771399997,None,534.0940771399997,None,534.0940771399997,None,,,,,,,,,,,222,21,Male,2022-05-23_14h33.26.862,Main,2022.1.1,60.00582056465512,
negative,neutral,2,j,l,,,,,,,,,9,16,178,12,,,,,,,,,,,,,,,,,,,,,,,,main,1,1,2,neutral,negative,j,j,1,0.7780374000003576,534.1145322999996,535.1171511999996,535.0985676999999,None,534.1145322999996,None,534.1145322999996,None,534.1145322999996,None,535.8760141399999,None,535.8760141399999,None,535.8760141399999,None,,,,,,,,,,,222,21,Male,2022-05-23_14h33.26.862,Main,2022.1.1,60.00582056465512,
positive,neutral,1,l,j,,,,,,,,,9,17,179,8,,,,,,,,,,,,,,,,,,,,,,,,main,1,1,1,neutral,positive,l,l,1,0.8606396999998651,535.8944872999996,536.9062706,536.8697801999997,None,535.8944872999996,None,535.8944872999996,None,535.8944872999996,None,537.7368270399999,None,537.7368270399999,None,537.7368270399999,None,,,,,,,,,,,222,21,Male,2022-05-23_14h33.26.862,Main,2022.1.1,60.00582056465512,
positive,positive,2,l,j,,,,,,,,,10,0,180,11,,,,,,,,,,,,,,,,,,,,,,,,main,1,1,2,positive,positive,l,l,1,0.7505221000001256,537.7571476999997,538.7571196999997,538.7395325999996,None,537.7571476999997,None,537.7571476999997,None,537.7571476999997,None,539.4900633399999,None,539.4900633399999,None,539.4900633399999,None,,,,,,,,,,,222,21,Male,2022-05-23_14h33.26.862,Main,2022.1.1,60.00582056465512,
negative,negative,2,j,l,,,,,,,,,10,1,181,9,,,,,,,,,,,,,,,,,,,,,,,,main,2,2,2,negative,negative,j,j,1,0.910758099999839,539.5111900999996,540.5164261,540.4982587999998,None,539.5111900999996,None,539.5111900999996,None,539.5111900999996,None,541.4034746399999,None,541.4034746399999,None,541.4034746399999,None,,,,,,,,,,,222,21,Male,2022-05-23_14h33.26.862,Main,2022.1.1,60.00582056465512,
neutral,positive,1,k,k,,,,,,,,,10,2,182,4,,,,,,,,,,,,,,,,,,,,,,,,main,2,2,1,positive,neutral,k,k,1,0.732988999999634,541.4248349,542.4275783999997,542.4075126999996,None,541.4248349,None,541.4248349,None,541.4248349,None,543.1421524399999,None,543.1421524399999,None,543.1421524399999,None,,,,,,,,,,,222,21,Male,2022-05-23_14h33.26.862,Main,2022.1.1,60.00582056465512,
neutral,neutral,1,k,k,,,,,,,,,10,3,183,1,,,,,,,,,,,,,,,,,,,,,,,,main,2,2,1,neutral,neutral,k,k,1,0.6592787999998109,543.1613979999997,544.1731680999997,544.1356885999999,None,543.1613979999997,None,543.1613979999997,None,543.1613979999997,None,544.8025517399998,None,544.8025517399998,None,544.8025517399998,None,,,,,,,,,,,222,21,Male,2022-05-23_14h33.26.862,Main,2022.1.1,60.00582056465512,
negative,negative,1,j,l,,,,,,,,,10,4,184,0,,,,,,,,,,,,,,,,,,,,,,,,main,1,1,1,negative,negative,j,j,1,1.230491699999675,544.8216340999998,545.8247698999999,545.8066261999998,None,544.8216340999998,None,544.8216340999998,None,544.8216340999998,None,547.0354783399999,None,547.0354783399999,None,547.0354783399999,None,,,,,,,,,,,222,21,Male,2022-05-23_14h33.26.862,Main,2022.1.1,60.00582056465512,
neutral,positive,2,k,k,,,,,,,,,10,5,185,13,,,,,,,,,,,,,,,,,,,,,,,,main,1,1,2,positive,neutral,k,k,1,0.8114786000001004,547.0549209999999,548.0699302999997,548.0337273,None,547.0549209999999,None,547.0549209999999,None,547.0549209999999,None,548.8493948399997,None,548.8493948399997,None,548.8493948399997,None,,,,,,,,,,,222,21,Male,2022-05-23_14h33.26.862,Main,2022.1.1,60.00582056465512,
negative,neutral,1,j,l,,,,,,,,,10,6,186,3,,,,,,,,,,,,,,,,,,,,,,,,main,2,2,1,neutral,negative,j,j,1,0.9042109000001801,548.8690229999997,549.8877398,549.8504641999998,None,548.8690229999997,None,548.8690229999997,None,548.8690229999997,None,550.7580035399998,None,550.7580035399998,None,550.7580035399998,None,,,,,,,,,,,222,21,Male,2022-05-23_14h33.26.862,Main,2022.1.1,60.00582056465512,
neutral,negative,1,k,k,,,,,,,,,10,7,187,7,,,,,,,,,,,,,,,,,,,,,,,,main,2,2,1,negative,neutral,k,k,1,0.7273842999998124,550.7773591,551.7878152999997,551.7506156,None,550.7773591,None,550.7773591,None,550.7773591,None,552.48572514,None,552.48572514,None,552.48572514,None,,,,,,,,,,,222,21,Male,2022-05-23_14h33.26.862,Main,2022.1.1,60.00582056465512,
positive,neutral,2,l,j,,,,,,,,,10,8,188,17,,,,,,,,,,,,,,,,,,,,,,,,main,2,2,2,neutral,positive,l,l,1,1.281029799999942,552.5056688999998,553.506445,553.4881985999996,None,552.5056688999998,None,552.5056688999998,None,552.5056688999998,None,554.7686426399997,None,554.7686426399997,None,554.7686426399997,None,,,,,,,,,,,222,21,Male,2022-05-23_14h33.26.862,Main,2022.1.1,60.00582056465512,
negative,positive,2,j,l,,,,,,,,,10,9,189,15,,,,,,,,,,,,,,,,,,,,,,,,main,2,2,2,positive,negative,j,j,1,1.7990453000002162,554.7926316999997,555.8072350999996,555.7709020999996,None,554.7926316999997,None,554.7926316999997,None,554.7926316999997,None,557.5799187999996,None,557.5799187999996,None,557.5799187999996,None,,,,,,,,,,,222,21,Male,2022-05-23_14h33.26.862,Main,2022.1.1,60.00582056465512,
positive,positive,1,l,j,,,,,,,,,10,10,190,2,,,,,,,,,,,,,,,,,,,,,,,,main,1,1,1,positive,positive,l,j,0,1.0174927999996726,558.6025694,559.6198171999999,559.5837695999999,None,558.6025694,None,558.6025694,None,558.6025694,None,560.6065863999997,None,560.6065863999997,None,560.6065863999997,None,,,,,,,,,,,222,21,Male,2022-05-23_14h33.26.862,Main,2022.1.1,60.00582056465512,
positive,negative,1,l,j,,,,,,,,,10,11,191,5,,,,,,,,,,,,,,,,,,,,,,,,main,1,1,1,negative,positive,l,l,1,0.9094242000001032,561.6190410999998,562.6363411999996,562.5995623999997,None,561.6190410999998,None,561.6190410999998,None,561.6190410999998,None,563.51151064,None,563.51151064,None,563.51151064,None,,,,,,,,,,,222,21,Male,2022-05-23_14h33.26.862,Main,2022.1.1,60.00582056465512,
negative,positive,1,j,l,,,,,,,,,10,12,192,6,,,,,,,,,,,,,,,,,,,,,,,,main,2,2,1,positive,negative,j,j,1,0.9600472000001901,563.5322214999997,564.5434947999997,564.5056439999998,None,563.5322214999997,None,563.5322214999997,None,563.5322214999997,None,565.4767914399996,None,565.4767914399996,None,565.4767914399996,None,,,,,,,,,,,222,21,Male,2022-05-23_14h33.26.862,Main,2022.1.1,60.00582056465512,
neutral,negative,2,k,k,,,,,,,,,10,13,193,16,,,,,,,,,,,,,,,,,,,,,,,,main,2,2,2,negative,neutral,k,k,1,0.8395395000002281,565.4956616,566.5055613,566.4695574999996,None,565.4956616,None,565.4956616,None,565.4956616,None,567.3169563399998,None,567.3169563399998,None,567.3169563399998,None,,,,,,,,,,,222,21,Male,2022-05-23_14h33.26.862,Main,2022.1.1,60.00582056465512,
positive,negative,2,l,j,,,,,,,,,10,14,194,14,,,,,,,,,,,,,,,,,,,,,,,,main,1,1,2,negative,positive,l,l,1,0.7504482000003918,567.3370117,568.3490359999996,568.3130984,None,567.3370117,None,567.3370117,None,567.3370117,None,569.0700283399998,None,569.0700283399998,None,569.0700283399998,None,,,,,,,,,,,222,21,Male,2022-05-23_14h33.26.862,Main,2022.1.1,60.00582056465512,
neutral,neutral,2,k,k,,,,,,,,,10,15,195,10,,,,,,,,,,,,,,,,,,,,,,,,main,2,2,2,neutral,neutral,k,k,1,0.864050700000007,569.0907562999996,570.0942233999999,570.0757341999997,None,569.0907562999996,None,569.0907562999996,None,569.0907562999996,None,570.9366378399997,None,570.9366378399997,None,570.9366378399997,None,,,,,,,,,,,222,21,Male,2022-05-23_14h33.26.862,Main,2022.1.1,60.00582056465512,
negative,neutral,2,j,l,,,,,,,,,10,16,196,12,,,,,,,,,,,,,,,,,,,,,,,,main,2,2,2,neutral,negative,j,j,1,0.80938980000019,570.9568694,571.9689017999999,571.9313555999997,None,570.9568694,None,570.9568694,None,570.9568694,None,572.74803584,None,572.74803584,None,572.74803584,None,,,,,,,,,,,222,21,Male,2022-05-23_14h33.26.862,Main,2022.1.1,60.00582056465512,
positive,neutral,1,l,j,,,,,,,,,10,17,197,8,,,,,,,,,,,,,,,,,,,,,,,,main,2,2,1,neutral,positive,l,l,1,0.9054429000002528,572.7687701999998,573.7846286999998,573.7478450999997,None,572.7687701999998,None,572.7687701999998,None,572.7687701999998,None,574.6579130399997,None,574.6579130399997,None,574.6579130399997,None,,,,,,,,,,,222,21,Male,2022-05-23_14h33.26.862,Main,2022.1.1,60.00582056465512,
negative,negative,1,j,l,,,,,,,,,11,0,198,0,,,,,,,,,,,,,,,,,,,,,,,,main,1,1,1,negative,negative,j,j,1,1.3232456000000639,574.6778684999999,575.6945767999996,575.6571359,None,574.6778684999999,None,574.6778684999999,None,574.6778684999999,None,576.9822689399999,None,576.9822689399999,None,576.9822689399999,None,,,,,,,,,,,222,21,Male,2022-05-23_14h33.26.862,Main,2022.1.1,60.00582056465512,
neutral,positive,1,k,k,,,,,,,,,11,1,199,4,,,,,,,,,,,,,,,,,,,,,,,,main,2,2,1,positive,neutral,k,k,1,0.9773491000000831,577.0037270999997,578.0103879999997,577.9917898999997,None,577.0037270999997,None,577.0037270999997,None,577.0037270999997,None,578.9627747399996,None,578.9627747399996,None,578.9627747399996,None,,,,,,,,,,,222,21,Male,2022-05-23_14h33.26.862,Main,2022.1.1,60.00582056465512,
negative,negative,2,j,l,,,,,,,,,11,2,200,9,,,,,,,,,,,,,,,,,,,,,,,,main,2,2,2,negative,negative,j,j,1,0.9699916999998095,578.9821359999996,579.9961131,579.9600960999996,None,578.9821359999996,None,578.9821359999996,None,578.9821359999996,None,580.9355341399997,None,580.9355341399997,None,580.9355341399997,None,,,,,,,,,,,222,21,Male,2022-05-23_14h33.26.862,Main,2022.1.1,60.00582056465512,
positive,negative,2,l,j,,,,,,,,,11,3,201,14,,,,,,,,,,,,,,,,,,,,,,,,main,2,2,2,negative,positive,l,l,1,0.780887200000052,580.9564087999997,581.9611041999997,581.9419793999996,None,580.9564087999997,None,580.9564087999997,None,580.9564087999997,None,582.7205601399997,None,582.7205601399997,None,582.7205601399997,None,,,,,,,,,,,222,21,Male,2022-05-23_14h33.26.862,Main,2022.1.1,60.00582056465512,
neutral,negative,2,k,k,,,,,,,,,11,4,202,16,,,,,,,,,,,,,,,,,,,,,,,,main,2,2,2,negative,neutral,k,k,1,0.8787290999998731,582.7394913999997,583.7502442,583.7136406999998,None,582.7394913999997,None,582.7394913999997,None,582.7394913999997,None,584.59979244,None,584.59979244,None,584.59979244,None,,,,,,,,,,,222,21,Male,2022-05-23_14h33.26.862,Main,2022.1.1,60.00582056465512,
positive,neutral,2,l,j,,,,,,,,,11,5,203,17,,,,,,,,,,,,,,,,,,,,,,,,main,2,2,2,neutral,positive,l,l,1,0.8111212999997406,584.6211009999997,585.6331126,585.5973758,None,584.6211009999997,None,584.6211009999997,None,584.6211009999997,None,586.4135117399998,None,586.4135117399998,None,586.4135117399998,None,,,,,,,,,,,222,21,Male,2022-05-23_14h33.26.862,Main,2022.1.1,60.00582056465512,
neutral,neutral,1,k,k,,,,,,,,,11,6,204,1,,,,,,,,,,,,,,,,,,,,,,,,main,2,2,1,neutral,neutral,k,k,1,0.7013652000000548,586.4330535999998,587.4523124999996,587.4150761999999,None,586.4330535999998,None,586.4330535999998,None,586.4330535999998,None,588.1176688399997,None,588.1176688399997,None,588.1176688399997,None,,,,,,,,,,,222,21,Male,2022-05-23_14h33.26.862,Main,2022.1.1,60.00582056465512,
negative,neutral,2,j,l,,,,,,,,,11,7,205,12,,,,,,,,,,,,,,,,,,,,,,,,main,1,1,2,neutral,negative,j,j,1,0.7867977999999312,588.1367422999997,589.1493717999997,589.1137038999996,None,588.1367422999997,None,588.1367422999997,None,588.1367422999997,None,589.9084885399999,None,589.9084885399999,None,589.9084885399999,None,,,,,,,,,,,222,21,Male,2022-05-23_14h33.26.862,Main,2022.1.1,60.00582056465512,
negative,positive,2,j,l,,,,,,,,,11,8,206,15,,,,,,,,,,,,,,,,,,,,,,,,main,2,2,2,positive,negative,j,j,1,0.7348074000001361,589.9284166999996,590.9324796999999,590.9142755999997,None,589.9284166999996,None,589.9284166999996,None,589.9284166999996,None,591.6459202399998,None,591.6459202399998,None,591.6459202399998,None,,,,,,,,,,,222,21,Male,2022-05-23_14h33.26.862,Main,2022.1.1,60.00582056465512,
neutral,negative,1,k,k,,,,,,,,,11,9,207,7,,,,,,,,,,,,,,,,,,,,,,,,main,1,1,1,negative,neutral,k,k,1,0.7719709000002695,591.6664685999999,592.6785981999997,592.6422281999999,None,591.6664685999999,None,591.6664685999999,None,591.6664685999999,None,593.4219876399999,None,593.4219876399999,None,593.4219876399999,None,,,,,,,,,,,222,21,Male,2022-05-23_14h33.26.862,Main,2022.1.1,60.00582056465512,
negative,positive,1,j,l,,,,,,,,,11,10,208,6,,,,,,,,,,,,,,,,,,,,,,,,main,1,1,1,positive,negative,j,j,1,1.1030556000000615,593.4414520999999,594.4527349,594.4250407,None,593.4414520999999,None,593.4414520999999,None,593.4414520999999,None,595.5264996399998,None,595.5264996399998,None,595.5264996399998,None,,,,,,,,,,,222,21,Male,2022-05-23_14h33.26.862,Main,2022.1.1,60.00582056465512,
positive,positive,2,l,j,,,,,,,,,11,11,209,11,,,,,,,,,,,,,,,,,,,,,,,,main,1,1,2,positive,positive,l,l,1,0.7141949000001659,595.547239,596.5482827999999,596.5304010999998,None,595.547239,None,595.547239,None,595.547239,None,597.2438436399999,None,597.2438436399999,None,597.2438436399999,None,,,,,,,,,,,222,21,Male,2022-05-23_14h33.26.862,Main,2022.1.1,60.00582056465512,
positive,negative,1,l,j,,,,,,,,,11,12,210,5,,,,,,,,,,,,,,,,,,,,,,,,main,1,1,1,negative,positive,l,l,1,1.506486600000244,597.2632746999998,598.2786368999996,598.2423728999997,None,597.2632746999998,None,597.2632746999998,None,597.2632746999998,None,599.7598555999998,None,599.7598555999998,None,599.7598555999998,None,,,,,,,,,,,222,21,Male,2022-05-23_14h33.26.862,Main,2022.1.1,60.00582056465512,
neutral,positive,2,k,k,,,,,,,,,11,13,211,13,,,,,,,,,,,,,,,,,,,,,,,,main,1,1,2,positive,neutral,k,k,1,0.9439486000001125,600.7809367999998,601.7920701999997,601.7734613999996,None,600.7809367999998,None,600.7809367999998,None,600.7809367999998,None,602.7075964399997,None,602.7075964399997,None,602.7075964399997,None,,,,,,,,,,,222,21,Male,2022-05-23_14h33.26.862,Main,2022.1.1,60.00582056465512,
negative,neutral,1,j,l,,,,,,,,,11,14,212,3,,,,,,,,,,,,,,,,,,,,,,,,main,1,1,1,neutral,negative,j,j,1,1.2398732000001473,602.7276497999997,603.7447742999998,603.7081068999996,None,602.7276497999997,None,602.7276497999997,None,602.7276497999997,None,604.9522519399999,None,604.9522519399999,None,604.9522519399999,None,,,,,,,,,,,222,21,Male,2022-05-23_14h33.26.862,Main,2022.1.1,60.00582056465512,
