target,distractor,set,ans1,ans2,rep_loop2.thisRepN,rep_loop2.thisTrialN,rep_loop2.thisN,rep_loop2.thisIndex,flanker_prac_loop.thisRepN,flanker_prac_loop.thisTrialN,flanker_prac_loop.thisN,flanker_prac_loop.thisIndex,flanker_main_loop.thisRepN,flanker_main_loop.thisTrialN,flanker_main_loop.thisN,flanker_main_loop.thisIndex,fl_inst_resp.keys,mouse.x,mouse.y,mouse.leftButton,mouse.midButton,mouse.rightButton,mouse.started,mouse.stopped,sound_1.started,sound_1.stopped,no_text.started,no_text.stopped,yes_text.started,yes_text.stopped,mouse_2.x,mouse_2.y,mouse_2.leftButton,mouse_2.midButton,mouse_2.rightButton,mouse_2.started,mouse_2.stopped,back_2.started,back_2.stopped,main_prac,fl_cold,fl_colt,fl_set,fl_dcond,fl_tcond,fl_ans,fl_res,fl_corr,fl_rt,fix_fl.started,fix_fl.stopped,targ.started,targ.stopped,j_button.started,j_button.stopped,k_button.started,k_button.stopped,l_button.started,l_button.stopped,j_button2.started,j_button2.stopped,k_button2.started,k_button2.stopped,l_button2.started,l_button2.stopped,mainback.started,mainback.stopped,key_resp.keys,mouse_6.x,mouse_6.y,mouse_6.leftButton,mouse_6.midButton,mouse_6.rightButton,mouse_6.started,mouse_6.stopped,id*,age*,gender*,date,expName,psychopyVersion,frameRate,
,,,,,0,0,0,0,,,,,,,,,None,-0.20925926,-0.40648147,0,0,0,1.0012590400024237,None,20.08047376000004,None,66.99263259999998,None,66.99263259999998,None,-0.1037037,-0.062037036,0,0,0,0.01276185999995505,None,,,,,,,,,,,,,,,,,,,,,,,,,,,,,,,,,,,,,,,223,20,Male,2022-05-24_14h06.00.191,Main,2022.1.1,60.03900133535464,
positive,positive,1,l,j,,,,,0,0,0,2,,,,,,,,,,,,,,,,,,,,,,,,,,71.74055850000013,None,prac,1,1,1,positive,positive,j,j,1,1.533587599999919,73.78592010000011,74.80822579999995,74.76778779999995,None,73.78592010000011,None,73.78592010000011,None,73.78592010000011,None,76.31166340000027,None,76.31166340000027,None,76.31166340000027,None,,,,,,,,,,,223,20,Male,2022-05-24_14h06.00.191,Main,2022.1.1,60.03900133535464,
neutral,negative,2,k,k,,,,,0,1,1,16,,,,,,,,,,,,,,,,,,,,,,,,,,,,prac,2,2,2,negative,neutral,k,k,1,1.0379565999996885,77.35619940000015,78.37609350000002,78.34738090000019,None,77.35619940000015,None,77.35619940000015,None,77.35619940000015,None,79.35478926000033,None,79.35478926000033,None,79.35478926000033,None,,,,,,,,,,,223,20,Male,2022-05-24_14h06.00.191,Main,2022.1.1,60.03900133535464,
negative,positive,2,j,l,,,,,0,2,2,15,,,,,,,,,,,,,,,,,,,,,,,,,,,,prac,2,2,2,positive,negative,l,l,1,0.7619902000001275,79.3939835000001,80.40375369999992,80.38330170000017,None,79.3939835000001,None,79.3939835000001,None,79.3939835000001,None,81.1194378600002,None,81.1194378600002,None,81.1194378600002,None,,,,,,,,,,,223,20,Male,2022-05-24_14h06.00.191,Main,2022.1.1,60.03900133535464,
neutral,negative,1,k,k,,,,,0,3,3,7,,,,,,,,,,,,,,,,,,,,,,,,,,,,prac,2,2,1,negative,neutral,k,k,1,1.0314062999996167,81.15724600000021,82.16758930000015,82.13068620000013,None,81.15724600000021,None,81.15724600000021,None,81.15724600000021,None,83.15141946000031,None,83.15141946000031,None,83.15141946000031,None,,,,,,,,,,,223,20,Male,2022-05-24_14h06.00.191,Main,2022.1.1,60.03900133535464,
neutral,neutral,2,k,k,,,,,0,4,4,10,,,,,,,,,,,,,,,,,,,,,,,,,,,,prac,1,1,2,neutral,neutral,k,k,1,0.6942501999997148,83.1859128000001,84.19233280000026,84.17183730000033,None,83.1859128000001,None,83.1859128000001,None,83.1859128000001,None,84.84692166000005,None,84.84692166000005,None,84.84692166000005,None,,,,,,,,,,,223,20,Male,2022-05-24_14h06.00.191,Main,2022.1.1,60.03900133535464,
neutral,positive,2,k,k,,,,,0,5,5,13,,,,,,,,,,,,,,,,,,,,,,,,,,,,prac,2,2,2,positive,neutral,k,k,1,0.6998225999996066,84.87102380000033,85.89203540000017,85.85052050000013,None,84.87102380000033,None,84.87102380000033,None,84.87102380000033,None,86.54936896000018,None,86.54936896000018,None,86.54936896000018,None,,,,,,,,,,,223,20,Male,2022-05-24_14h06.00.191,Main,2022.1.1,60.03900133535464,
negative,negative,2,j,l,,,,,0,6,6,9,,,,,,,,,,,,,,,,,,,,,,,,,,,,prac,2,2,2,negative,negative,l,l,1,0.7635000000000218,86.56872659999999,87.58243240000002,87.54370420000032,None,86.56872659999999,None,86.56872659999999,None,86.56872659999999,None,88.31462356000011,None,88.31462356000011,None,88.31462356000011,None,,,,,,,,,,,223,20,Male,2022-05-24_14h06.00.191,Main,2022.1.1,60.03900133535464,
negative,neutral,2,j,l,,,,,0,7,7,12,,,,,,,,,,,,,,,,,,,,,,,,,,,,prac,1,1,2,neutral,negative,l,l,1,0.7654757000000245,88.34707600000002,89.35054230000014,89.33346710000023,None,88.34707600000002,None,88.34707600000002,None,88.34707600000002,None,90.08461556000012,None,90.08461556000012,None,90.08461556000012,None,,,,,,,,,,,223,20,Male,2022-05-24_14h06.00.191,Main,2022.1.1,60.03900133535464,
negative,positive,1,j,l,,,,,0,8,8,6,,,,,,,,,,,,,,,,,,,,,,,,,,,,prac,1,1,1,positive,negative,l,l,1,0.8259826999997131,90.12008700000024,91.13900390000026,91.09845949999999,None,90.12008700000024,None,90.12008700000024,None,90.12008700000024,None,91.91221346000012,None,91.91221346000012,None,91.91221346000012,None,,,,,,,,,,,223,20,Male,2022-05-24_14h06.00.191,Main,2022.1.1,60.03900133535464,
positive,negative,2,l,j,,,,,0,9,9,14,,,,,,,,,,,,,,,,,,,,,,,,,,,,prac,2,2,2,negative,positive,j,j,1,0.8950641000001269,91.93277820000003,92.94863609999993,92.9106928000001,None,91.93277820000003,None,91.93277820000003,None,91.93277820000003,None,93.80961726000024,None,93.80961726000024,None,93.80961726000024,None,,,,,,,,,,,223,20,Male,2022-05-24_14h06.00.191,Main,2022.1.1,60.03900133535464,
neutral,positive,1,k,k,,,,,0,10,10,4,,,,,,,,,,,,,,,,,,,,,,,,,,,,prac,1,1,1,positive,neutral,k,k,1,0.6576897999998437,93.83875680000028,94.8476642999999,94.82851380000011,None,93.83875680000028,None,93.83875680000028,None,93.83875680000028,None,95.47142216000012,None,95.47142216000012,None,95.47142216000012,None,,,,,,,,,,,223,20,Male,2022-05-24_14h06.00.191,Main,2022.1.1,60.03900133535464,
neutral,neutral,1,k,k,,,,,0,11,11,1,,,,,,,,,,,,,,,,,,,,,,,,,,,,prac,2,2,1,neutral,neutral,k,k,1,0.7316702000002806,95.50290160000031,96.52580790000002,96.48309420000032,None,95.50290160000031,None,95.50290160000031,None,95.50290160000031,None,97.20481396000005,None,97.20481396000005,None,97.20481396000005,None,,,,,,,,,,,223,20,Male,2022-05-24_14h06.00.191,Main,2022.1.1,60.03900133535464,
positive,neutral,2,l,j,,,,,0,12,12,17,,,,,,,,,,,,,,,,,,,,,,,,,,,,prac,1,1,2,neutral,positive,j,l,0,0.7703697000001739,97.2412890999999,98.2587911999999,98.21740600000021,None,97.2412890999999,None,97.2412890999999,None,97.2412890999999,None,98.9909332000002,None,98.9909332000002,None,98.9909332000002,None,,,,,,,,,,,223,20,Male,2022-05-24_14h06.00.191,Main,2022.1.1,60.03900133535464,
negative,negative,1,j,l,,,,,0,13,13,0,,,,,,,,,,,,,,,,,,,,,,,,,,,,prac,1,1,1,negative,negative,l,l,1,0.8406871000001956,100.02640520000023,101.0423737000001,101.02217629999996,None,100.02640520000023,None,100.02640520000023,None,100.02640520000023,None,101.8377018600003,None,101.8377018600003,None,101.8377018600003,None,,,,,,,,,,,223,20,Male,2022-05-24_14h06.00.191,Main,2022.1.1,60.03900133535464,
positive,positive,2,l,j,,,,,0,14,14,11,,,,,,,,,,,,,,,,,,,,,,,,,,,,prac,1,1,2,positive,positive,j,j,1,1.0046480000000884,101.8675647,102.87886240000034,102.85929890000034,None,101.8675647,None,101.8675647,None,101.8675647,None,103.84316496000011,None,103.84316496000011,None,103.84316496000011,None,,,,,,,,,,,223,20,Male,2022-05-24_14h06.00.191,Main,2022.1.1,60.03900133535464,
negative,neutral,1,j,l,,,,,0,15,15,3,,,,,,,,,,,,,,,,,,,,,,,,,,,,prac,2,2,1,neutral,negative,l,l,1,0.8618784000000232,103.86374599999999,104.8704517000001,104.84972000000016,None,103.86374599999999,None,103.86374599999999,None,103.86374599999999,None,105.70684506000035,None,105.70684506000035,None,105.70684506000035,None,,,,,,,,,,,223,20,Male,2022-05-24_14h06.00.191,Main,2022.1.1,60.03900133535464,
positive,neutral,1,l,j,,,,,0,16,16,8,,,,,,,,,,,,,,,,,,,,,,,,,,,,prac,1,1,1,neutral,positive,j,j,1,0.9430854000002,105.7399676,106.75989430000027,106.74033230000032,None,105.7399676,None,105.7399676,None,105.7399676,None,107.65496706000013,None,107.65496706000013,None,107.65496706000013,None,,,,,,,,,,,223,20,Male,2022-05-24_14h06.00.191,Main,2022.1.1,60.03900133535464,
positive,negative,1,l,j,,,,,0,17,17,5,,,,,,,,,,,,,,,,,,,,,,,,,,,,prac,2,2,1,negative,positive,j,j,1,0.7649496999997609,107.68654510000033,108.69816459999993,108.67812529999992,None,107.68654510000033,None,107.68654510000033,None,107.68654510000033,None,109.42303466000013,None,109.42303466000013,None,109.42303466000013,None,,,,,,,,,,,223,20,Male,2022-05-24_14h06.00.191,Main,2022.1.1,60.03900133535464,
positive,negative,2,l,j,,,,,1,0,18,14,,,,,,,,,,,,,,,,,,,,,,,,,,,,prac,2,2,2,negative,positive,j,k,0,0.7449822000003223,109.44346600000017,110.45472930000005,110.43259639999997,None,109.44346600000017,None,109.44346600000017,None,109.44346600000017,None,111.17788990000008,None,111.17788990000008,None,111.17788990000008,None,,,,,,,,,,,223,20,Male,2022-05-24_14h06.00.191,Main,2022.1.1,60.03900133535464,
positive,positive,2,l,j,,,,,1,1,19,11,,,,,,,,,,,,,,,,,,,,,,,,,,,,prac,1,1,2,positive,positive,j,j,1,0.7507294000001821,112.19662220000009,113.20985410000003,113.19039070000008,None,112.19662220000009,None,112.19662220000009,None,112.19662220000009,None,113.92671056000009,None,113.92671056000009,None,113.92671056000009,None,,,,,,,,,,,223,20,Male,2022-05-24_14h06.00.191,Main,2022.1.1,60.03900133535464,
negative,negative,2,j,l,,,,,1,2,20,9,,,,,,,,,,,,,,,,,,,,,,,,,,,,prac,2,2,2,negative,negative,l,l,1,0.858388499999819,113.94684589999997,114.97130400000015,114.94529700000021,None,113.94684589999997,None,113.94684589999997,None,113.94684589999997,None,115.78610745999995,None,115.78610745999995,None,115.78610745999995,None,,,,,,,,,,,223,20,Male,2022-05-24_14h06.00.191,Main,2022.1.1,60.03900133535464,
neutral,negative,1,k,k,,,,,1,3,21,7,,,,,,,,,,,,,,,,,,,,,,,,,,,,prac,2,2,1,negative,neutral,k,k,1,0.7550451000001885,115.81136740000011,116.82219600000008,116.80020450000029,None,115.81136740000011,None,115.81136740000011,None,115.81136740000011,None,117.54358336000033,None,117.54358336000033,None,117.54358336000033,None,,,,,,,,,,,223,20,Male,2022-05-24_14h06.00.191,Main,2022.1.1,60.03900133535464,
neutral,positive,2,k,k,,,,,1,4,22,13,,,,,,,,,,,,,,,,,,,,,,,,,,,,prac,1,1,2,positive,neutral,k,k,1,0.6322307000000364,117.57232740000018,118.5931284000003,118.5528674000002,None,117.57232740000018,None,117.57232740000018,None,117.57232740000018,None,119.18424036000025,None,119.18424036000025,None,119.18424036000025,None,,,,,,,,,,,223,20,Male,2022-05-24_14h06.00.191,Main,2022.1.1,60.03900133535464,
negative,positive,2,j,l,,,,,1,5,23,15,,,,,,,,,,,,,,,,,,,,,,,,,,,,prac,1,1,2,positive,negative,l,l,1,0.8053424999998242,119.20428010000023,120.20876690000023,120.18860970000014,None,119.20428010000023,None,119.20428010000023,None,119.20428010000023,None,120.98755956000005,None,120.98755956000005,None,120.98755956000005,None,,,,,,,,,,,223,20,Male,2022-05-24_14h06.00.191,Main,2022.1.1,60.03900133535464,
negative,neutral,1,j,l,,,,,1,6,24,3,,,,,,,,,,,,,,,,,,,,,,,,,,,,prac,1,1,1,neutral,negative,l,l,1,0.8328364000003603,121.00925860000007,122.01249570000027,121.99325060000001,None,121.00925860000007,None,121.00925860000007,None,121.00925860000007,None,122.82249126000025,None,122.82249126000025,None,122.82249126000025,None,,,,,,,,,,,223,20,Male,2022-05-24_14h06.00.191,Main,2022.1.1,60.03900133535464,
positive,positive,1,l,j,,,,,1,7,25,2,,,,,,,,,,,,,,,,,,,,,,,,,,,,prac,2,2,1,positive,positive,j,j,1,0.8388694000000214,122.8591322000002,123.87429390000034,123.83208970000032,None,122.8591322000002,None,122.8591322000002,None,122.8591322000002,None,124.66641745999996,None,124.66641745999996,None,124.66641745999996,None,,,,,,,,,,,223,20,Male,2022-05-24_14h06.00.191,Main,2022.1.1,60.03900133535464,
positive,neutral,1,l,j,,,,,1,8,26,8,,,,,,,,,,,,,,,,,,,,,,,,,,,,prac,1,1,1,neutral,positive,j,j,1,1.01373250000006,124.69379290000006,125.70748440000034,125.68583380000018,None,124.69379290000006,None,124.69379290000006,None,124.69379290000006,None,126.68584916,None,126.68584916,None,126.68584916,None,,,,,,,,,,,223,20,Male,2022-05-24_14h06.00.191,Main,2022.1.1,60.03900133535464,
positive,negative,1,l,j,,,,,1,9,27,5,,,,,,,,,,,,,,,,,,,,,,,,,,,,prac,2,2,1,negative,positive,j,j,1,0.8077398000000358,126.71200610000005,127.72478249999995,127.70321809999996,None,126.71200610000005,None,126.71200610000005,None,126.71200610000005,None,128.49966936,None,128.49966936,None,128.49966936,None,,,,,,,,,,,223,20,Male,2022-05-24_14h06.00.191,Main,2022.1.1,60.03900133535464,
positive,neutral,2,l,j,,,,,1,10,28,17,,,,,,,,,,,,,,,,,,,,,,,,,,,,prac,2,2,2,neutral,positive,j,j,1,0.9329917999998543,128.53664419999996,129.5457464000001,129.52515200000016,None,128.53664419999996,None,128.53664419999996,None,128.53664419999996,None,130.43450236000027,None,130.43450236000027,None,130.43450236000027,None,,,,,,,,,,,223,20,Male,2022-05-24_14h06.00.191,Main,2022.1.1,60.03900133535464,
negative,neutral,2,j,l,,,,,1,11,29,12,,,,,,,,,,,,,,,,,,,,,,,,,,,,prac,1,1,2,neutral,negative,l,l,1,0.7615528000001177,130.46272550000003,131.4829566000003,131.4419952000003,None,130.46272550000003,None,130.46272550000003,None,130.46272550000003,None,132.2011784600003,None,132.2011784600003,None,132.2011784600003,None,,,,,,,,,,,223,20,Male,2022-05-24_14h06.00.191,Main,2022.1.1,60.03900133535464,
negative,negative,1,j,l,,,,,1,12,30,0,,,,,,,,,,,,,,,,,,,,,,,,,,,,prac,1,1,1,negative,negative,l,l,1,0.783198000000084,132.2224501999999,133.2432256000002,133.20452130000012,None,132.2224501999999,None,132.2224501999999,None,132.2224501999999,None,133.98757926,None,133.98757926,None,133.98757926,None,,,,,,,,,,,223,20,Male,2022-05-24_14h06.00.191,Main,2022.1.1,60.03900133535464,
neutral,neutral,1,k,k,,,,,1,13,31,1,,,,,,,,,,,,,,,,,,,,,,,,,,,,prac,2,2,1,neutral,neutral,k,k,1,0.7734324999996716,134.00804779999999,135.02643070000022,134.98847260000002,None,134.00804779999999,None,134.00804779999999,None,134.00804779999999,None,135.76396026000012,None,135.76396026000012,None,135.76396026000012,None,,,,,,,,,,,223,20,Male,2022-05-24_14h06.00.191,Main,2022.1.1,60.03900133535464,
neutral,neutral,2,k,k,,,,,1,14,32,10,,,,,,,,,,,,,,,,,,,,,,,,,,,,prac,1,1,2,neutral,neutral,k,k,1,0.6651034999999865,135.7850585000001,136.79485520000026,136.77503430000024,None,135.7850585000001,None,135.7850585000001,None,135.7850585000001,None,137.43277565999998,None,137.43277565999998,None,137.43277565999998,None,,,,,,,,,,,223,20,Male,2022-05-24_14h06.00.191,Main,2022.1.1,60.03900133535464,
negative,positive,1,j,l,,,,,1,15,33,6,,,,,,,,,,,,,,,,,,,,,,,,,,,,prac,2,2,1,positive,negative,l,l,1,0.7228242999999566,137.45483400000012,138.46646690000034,138.4264548000001,None,137.45483400000012,None,137.45483400000012,None,137.45483400000012,None,139.15536206000016,None,139.15536206000016,None,139.15536206000016,None,,,,,,,,,,,223,20,Male,2022-05-24_14h06.00.191,Main,2022.1.1,60.03900133535464,
neutral,positive,1,k,k,,,,,1,16,34,4,,,,,,,,,,,,,,,,,,,,,,,,,,,,prac,2,2,1,positive,neutral,k,k,1,0.8629637999997612,139.1778334999999,140.18271510000022,140.16158870000027,None,139.1778334999999,None,139.1778334999999,None,139.1778334999999,None,141.02016476000009,None,141.02016476000009,None,141.02016476000009,None,,,,,,,,,,,223,20,Male,2022-05-24_14h06.00.191,Main,2022.1.1,60.03900133535464,
neutral,negative,2,k,k,,,,,1,17,35,16,,,,,,,,,,,,,,,,,,,,,,,,,,,,prac,1,1,2,negative,neutral,k,k,1,0.6503358999998454,141.0565641000003,142.0760505000003,142.03817960000015,None,141.0565641000003,None,141.0565641000003,None,141.0565641000003,None,142.6729695600001,None,142.6729695600001,None,142.6729695600001,None,,,,,,,,,,,223,20,Male,2022-05-24_14h06.00.191,Main,2022.1.1,60.03900133535464,
,,,,,,,,,,,,,,,,,,,,,,,,,,,,,,,,,,,,,,,,,,,,,,,,,,,,,,,,,,,,,,,,,,142.68040440000004,None,None,,,,,,,,223,20,Male,2022-05-24_14h06.00.191,Main,2022.1.1,60.03900133535464,
,,,,,,,,,,,,,,,,,,,,,,,,,,,,,,,,,,,,,,,,,,,,,,,,,,,,,,,,,,,,,,,,,,,,,0.11666667,-0.06666667,1,0,0,0.004139660000419099,None,223,20,Male,2022-05-24_14h06.00.191,Main,2022.1.1,60.03900133535464,
neutral,negative,1,k,k,,,,,,,,,0,0,0,7,,,,,,,,,,,,,,,,,,,,,,152.69732449999992,None,main,1,1,1,negative,neutral,k,k,1,0.5599757999998474,154.71954910000022,155.73445790000005,155.69365030000017,None,154.71954910000022,None,154.71954910000022,None,154.71954910000022,None,156.25461116000034,None,156.25461116000034,None,156.25461116000034,None,,,,,,,,,,,223,20,Male,2022-05-24_14h06.00.191,Main,2022.1.1,60.03900133535464,
negative,neutral,1,j,l,,,,,,,,,0,1,1,3,,,,,,,,,,,,,,,,,,,,,,,,main,2,2,1,neutral,negative,l,l,1,0.6845492000002196,156.28040469999996,157.28983870000002,157.27024310000024,None,156.28040469999996,None,156.28040469999996,None,156.28040469999996,None,157.94631406,None,157.94631406,None,157.94631406,None,,,,,,,,,,,223,20,Male,2022-05-24_14h06.00.191,Main,2022.1.1,60.03900133535464,
neutral,negative,2,k,k,,,,,,,,,0,2,2,16,,,,,,,,,,,,,,,,,,,,,,,,main,1,1,2,negative,neutral,k,k,1,0.5725669000003109,157.96798810000018,158.9797896,158.94039650000013,None,157.96798810000018,None,157.96798810000018,None,157.96798810000018,None,159.5192078600002,None,159.5192078600002,None,159.5192078600002,None,,,,,,,,,,,223,20,Male,2022-05-24_14h06.00.191,Main,2022.1.1,60.03900133535464,
positive,positive,2,l,j,,,,,,,,,0,3,3,11,,,,,,,,,,,,,,,,,,,,,,,,main,1,1,2,positive,positive,j,j,1,0.6606689000000188,159.5405952000001,160.56241910000017,160.52183689999993,None,159.5405952000001,None,159.5405952000001,None,159.5405952000001,None,161.18316115999997,None,161.18316115999997,None,161.18316115999997,None,,,,,,,,,,,223,20,Male,2022-05-24_14h06.00.191,Main,2022.1.1,60.03900133535464,
neutral,neutral,1,k,k,,,,,,,,,0,4,4,1,,,,,,,,,,,,,,,,,,,,,,,,main,2,2,1,neutral,neutral,k,k,1,0.5153396000000612,161.2039047000003,162.2099314000002,162.19004910000012,None,161.2039047000003,None,161.2039047000003,None,161.2039047000003,None,162.70148076000024,None,162.70148076000024,None,162.70148076000024,None,,,,,,,,,,,223,20,Male,2022-05-24_14h06.00.191,Main,2022.1.1,60.03900133535464,
positive,neutral,1,l,j,,,,,,,,,0,5,5,8,,,,,,,,,,,,,,,,,,,,,,,,main,1,1,1,neutral,positive,j,l,0,0.7809261000002152,162.7210981000003,163.7284669999999,163.7082865000002,None,162.7210981000003,None,162.7210981000003,None,162.7210981000003,None,164.4917888,None,164.4917888,None,164.4917888,None,,,,,,,,,,,223,20,Male,2022-05-24_14h06.00.191,Main,2022.1.1,60.03900133535464,
negative,negative,1,j,l,,,,,,,,,0,6,6,0,,,,,,,,,,,,,,,,,,,,,,,,main,2,2,1,negative,negative,l,l,1,0.7909375999997792,165.50724870000022,166.5159738000002,166.49598270000024,None,165.50724870000022,None,165.50724870000022,None,165.50724870000022,None,167.27923536000017,None,167.27923536000017,None,167.27923536000017,None,,,,,,,,,,,223,20,Male,2022-05-24_14h06.00.191,Main,2022.1.1,60.03900133535464,
positive,neutral,2,l,j,,,,,,,,,0,7,7,17,,,,,,,,,,,,,,,,,,,,,,,,main,2,2,2,neutral,positive,j,j,1,0.8051021000001128,167.30071240000007,168.30476210000006,168.28519619999997,None,167.30071240000007,None,167.30071240000007,None,167.30071240000007,None,169.08609886000013,None,169.08609886000013,None,169.08609886000013,None,,,,,,,,,,,223,20,Male,2022-05-24_14h06.00.191,Main,2022.1.1,60.03900133535464,
positive,negative,1,l,j,,,,,,,,,0,8,8,5,,,,,,,,,,,,,,,,,,,,,,,,main,2,2,1,negative,positive,j,j,1,0.7705541999998786,169.11057830000027,170.12056650000022,170.1011685000003,None,169.11057830000027,None,169.11057830000027,None,169.11057830000027,None,170.86080066000014,None,170.86080066000014,None,170.86080066000014,None,,,,,,,,,,,223,20,Male,2022-05-24_14h06.00.191,Main,2022.1.1,60.03900133535464,
neutral,neutral,2,k,k,,,,,,,,,0,9,9,10,,,,,,,,,,,,,,,,,,,,,,,,main,1,1,2,neutral,neutral,k,k,1,0.6036513999997624,170.88183740000022,171.88815460000023,171.86879270000009,None,170.88183740000022,None,170.88183740000022,None,170.88183740000022,None,172.46665706000013,None,172.46665706000013,None,172.46665706000013,None,,,,,,,,,,,223,20,Male,2022-05-24_14h06.00.191,Main,2022.1.1,60.03900133535464,
negative,positive,2,j,l,,,,,,,,,0,10,10,15,,,,,,,,,,,,,,,,,,,,,,,,main,2,2,2,positive,negative,l,l,1,0.7664554999996653,172.48764759999995,173.50763800000004,173.46858599999996,None,172.48764759999995,None,172.48764759999995,None,172.48764759999995,None,174.23467926000004,None,174.23467926000004,None,174.23467926000004,None,,,,,,,,,,,223,20,Male,2022-05-24_14h06.00.191,Main,2022.1.1,60.03900133535464,
negative,neutral,2,j,l,,,,,,,,,0,11,11,12,,,,,,,,,,,,,,,,,,,,,,,,main,2,2,2,neutral,negative,l,l,1,0.8805313999996542,174.25867670000025,175.2679475,175.24854159999995,None,174.25867670000025,None,174.25867670000025,None,174.25867670000025,None,176.1167434600001,None,176.1167434600001,None,176.1167434600001,None,,,,,,,,,,,223,20,Male,2022-05-24_14h06.00.191,Main,2022.1.1,60.03900133535464,
neutral,positive,2,k,k,,,,,,,,,0,12,12,13,,,,,,,,,,,,,,,,,,,,,,,,main,2,2,2,positive,neutral,k,k,1,0.7321287999998276,176.13811010000018,177.14379370000006,177.12141810000003,None,176.13811010000018,None,176.13811010000018,None,176.13811010000018,None,177.85162566,None,177.85162566,None,177.85162566,None,,,,,,,,,,,223,20,Male,2022-05-24_14h06.00.191,Main,2022.1.1,60.03900133535464,
neutral,positive,1,k,k,,,,,,,,,0,13,13,4,,,,,,,,,,,,,,,,,,,,,,,,main,1,1,1,positive,neutral,k,k,1,0.6799262999998064,177.8733073000003,178.8878751000002,178.8494915000001,None,177.8733073000003,None,177.8733073000003,None,177.8733073000003,None,179.53513176000016,None,179.53513176000016,None,179.53513176000016,None,,,,,,,,,,,223,20,Male,2022-05-24_14h06.00.191,Main,2022.1.1,60.03900133535464,
positive,negative,2,l,j,,,,,,,,,0,14,14,14,,,,,,,,,,,,,,,,,,,,,,,,main,1,1,2,negative,positive,j,j,1,0.6131450000002587,179.55780649999997,180.57333480000034,180.53478540000015,None,179.55780649999997,None,179.55780649999997,None,179.55780649999997,None,181.14996495999995,None,181.14996495999995,None,181.14996495999995,None,,,,,,,,,,,223,20,Male,2022-05-24_14h06.00.191,Main,2022.1.1,60.03900133535464,
negative,negative,2,j,l,,,,,,,,,0,15,15,9,,,,,,,,,,,,,,,,,,,,,,,,main,1,1,2,negative,negative,l,l,1,0.9335135000001173,181.17226000000028,182.17743530000007,182.1550602000002,None,181.17226000000028,None,181.17226000000028,None,181.17226000000028,None,183.08770145999998,None,183.08770145999998,None,183.08770145999998,None,,,,,,,,,,,223,20,Male,2022-05-24_14h06.00.191,Main,2022.1.1,60.03900133535464,
negative,positive,1,j,l,,,,,,,,,0,16,16,6,,,,,,,,,,,,,,,,,,,,,,,,main,1,1,1,positive,negative,l,l,1,0.9117665999997371,183.1097208000001,184.11627020000014,184.09719730000006,None,183.1097208000001,None,183.1097208000001,None,183.1097208000001,None,185.00083106000002,None,185.00083106000002,None,185.00083106000002,None,,,,,,,,,,,223,20,Male,2022-05-24_14h06.00.191,Main,2022.1.1,60.03900133535464,
positive,positive,1,l,j,,,,,,,,,0,17,17,2,,,,,,,,,,,,,,,,,,,,,,,,main,1,1,1,positive,positive,j,j,1,0.7645157000001745,185.0218731,186.02611800000022,186.00510710000026,None,185.0218731,None,185.0218731,None,185.0218731,None,186.76766836000016,None,186.76766836000016,None,186.76766836000016,None,,,,,,,,,,,223,20,Male,2022-05-24_14h06.00.191,Main,2022.1.1,60.03900133535464,
negative,negative,1,j,l,,,,,,,,,1,0,18,0,,,,,,,,,,,,,,,,,,,,,,,,main,1,1,1,negative,negative,l,l,1,0.8688279999996666,186.78987270000016,187.80904370000007,187.76914130000023,None,186.78987270000016,None,186.78987270000016,None,186.78987270000016,None,188.6421166600002,None,188.6421166600002,None,188.6421166600002,None,,,,,,,,,,,223,20,Male,2022-05-24_14h06.00.191,Main,2022.1.1,60.03900133535464,
negative,positive,2,j,l,,,,,,,,,1,1,19,15,,,,,,,,,,,,,,,,,,,,,,,,main,2,2,2,positive,negative,l,l,1,0.7470359999997527,188.66359620000003,189.66816450000033,189.64893389999997,None,188.66359620000003,None,188.66359620000003,None,188.66359620000003,None,190.39144746000002,None,190.39144746000002,None,190.39144746000002,None,,,,,,,,,,,223,20,Male,2022-05-24_14h06.00.191,Main,2022.1.1,60.03900133535464,
positive,positive,2,l,j,,,,,,,,,1,2,20,11,,,,,,,,,,,,,,,,,,,,,,,,main,1,1,2,positive,positive,j,j,1,0.7396683000001758,190.4130752000001,191.43067689999998,191.38924339999994,None,190.4130752000001,None,190.4130752000001,None,190.4130752000001,None,192.13024246000023,None,192.13024246000023,None,192.13024246000023,None,,,,,,,,,,,223,20,Male,2022-05-24_14h06.00.191,Main,2022.1.1,60.03900133535464,
negative,negative,2,j,l,,,,,,,,,1,3,21,9,,,,,,,,,,,,,,,,,,,,,,,,main,2,2,2,negative,negative,l,l,1,0.8464364000001297,192.1526818000002,193.16910370000005,193.1312456999999,None,192.1526818000002,None,192.1526818000002,None,192.1526818000002,None,193.97983156,None,193.97983156,None,193.97983156,None,,,,,,,,,,,223,20,Male,2022-05-24_14h06.00.191,Main,2022.1.1,60.03900133535464,
positive,negative,2,l,j,,,,,,,,,1,4,22,14,,,,,,,,,,,,,,,,,,,,,,,,main,1,1,2,negative,positive,j,j,1,1.0399406999999883,194.00139420000005,195.01252730000033,194.9916390000003,None,194.00139420000005,None,194.00139420000005,None,194.00139420000005,None,196.0253702600002,None,196.0253702600002,None,196.0253702600002,None,,,,,,,,,,,223,20,Male,2022-05-24_14h06.00.191,Main,2022.1.1,60.03900133535464,
positive,negative,1,l,j,,,,,,,,,1,5,23,5,,,,,,,,,,,,,,,,,,,,,,,,main,2,2,1,negative,positive,j,j,1,0.9118137000000388,196.0451766000001,197.06047780000017,197.0196036000002,None,196.0451766000001,None,196.0451766000001,None,196.0451766000001,None,197.93955036000025,None,197.93955036000025,None,197.93955036000025,None,,,,,,,,,,,223,20,Male,2022-05-24_14h06.00.191,Main,2022.1.1,60.03900133535464,
neutral,positive,2,k,k,,,,,,,,,1,6,24,13,,,,,,,,,,,,,,,,,,,,,,,,main,2,2,2,positive,neutral,k,k,1,0.7352207999997518,197.95980069999996,198.97784000000001,198.93767530000014,None,197.95980069999996,None,197.95980069999996,None,197.95980069999996,None,199.6772583599999,None,199.6772583599999,None,199.6772583599999,None,,,,,,,,,,,223,20,Male,2022-05-24_14h06.00.191,Main,2022.1.1,60.03900133535464,
negative,positive,1,j,l,,,,,,,,,1,7,25,6,,,,,,,,,,,,,,,,,,,,,,,,main,2,2,1,positive,negative,l,l,1,0.7043505999999979,199.69801210000014,200.70157710000012,200.6821070000001,None,199.69801210000014,None,199.69801210000014,None,199.69801210000014,None,201.38426856000015,None,201.38426856000015,None,201.38426856000015,None,,,,,,,,,,,223,20,Male,2022-05-24_14h06.00.191,Main,2022.1.1,60.03900133535464,
positive,neutral,1,l,j,,,,,,,,,1,8,26,8,,,,,,,,,,,,,,,,,,,,,,,,main,2,2,1,neutral,positive,j,j,1,0.9845626000001175,201.40435460000026,202.40947499999993,202.38914569999997,None,201.40435460000026,None,201.40435460000026,None,201.40435460000026,None,203.3735028600003,None,203.3735028600003,None,203.3735028600003,None,,,,,,,,,,,223,20,Male,2022-05-24_14h06.00.191,Main,2022.1.1,60.03900133535464,
neutral,neutral,2,k,k,,,,,,,,,1,9,27,10,,,,,,,,,,,,,,,,,,,,,,,,main,2,2,2,neutral,neutral,k,k,1,0.7430703999998514,203.39491980000003,204.41665890000013,204.37704380000014,None,203.39491980000003,None,203.39491980000003,None,203.39491980000003,None,205.11629355999995,None,205.11629355999995,None,205.11629355999995,None,,,,,,,,,,,223,20,Male,2022-05-24_14h06.00.191,Main,2022.1.1,60.03900133535464,
neutral,negative,2,k,k,,,,,,,,,1,10,28,16,,,,,,,,,,,,,,,,,,,,,,,,main,1,1,2,negative,neutral,k,k,1,0.6437630000000354,205.14198020000003,206.15269549999994,206.1156589000002,None,205.14198020000003,None,205.14198020000003,None,205.14198020000003,None,206.76352586000021,None,206.76352586000021,None,206.76352586000021,None,,,,,,,,,,,223,20,Male,2022-05-24_14h06.00.191,Main,2022.1.1,60.03900133535464,
positive,positive,1,l,j,,,,,,,,,1,11,29,2,,,,,,,,,,,,,,,,,,,,,,,,main,1,1,1,positive,positive,j,j,1,0.9604934999997568,206.78502160000016,207.79611220000015,207.77661579999995,None,206.78502160000016,None,206.78502160000016,None,206.78502160000016,None,208.72741546000034,None,208.72741546000034,None,208.72741546000034,None,,,,,,,,,,,223,20,Male,2022-05-24_14h06.00.191,Main,2022.1.1,60.03900133535464,
positive,neutral,2,l,j,,,,,,,,,1,12,30,17,,,,,,,,,,,,,,,,,,,,,,,,main,1,1,2,neutral,positive,j,j,1,0.8392859000000499,208.74727230000008,209.75094360000003,209.73236700000007,None,208.74727230000008,None,208.74727230000008,None,208.74727230000008,None,210.57050345999997,None,210.57050345999997,None,210.57050345999997,None,,,,,,,,,,,223,20,Male,2022-05-24_14h06.00.191,Main,2022.1.1,60.03900133535464,
neutral,neutral,1,k,k,,,,,,,,,1,13,31,1,,,,,,,,,,,,,,,,,,,,,,,,main,1,1,1,neutral,neutral,k,k,1,0.706132400000115,210.59108659999993,211.60271300000022,211.58344370000032,None,210.59108659999993,None,210.59108659999993,None,210.59108659999993,None,212.27768536000022,None,212.27768536000022,None,212.27768536000022,None,,,,,,,,,,,223,20,Male,2022-05-24_14h06.00.191,Main,2022.1.1,60.03900133535464,
neutral,negative,1,k,k,,,,,,,,,1,14,32,7,,,,,,,,,,,,,,,,,,,,,,,,main,2,2,1,negative,neutral,k,k,1,0.6647578000001886,212.29900510000016,213.31800550000025,213.27987920000032,None,212.29900510000016,None,212.29900510000016,None,212.29900510000016,None,213.9451960600003,None,213.9451960600003,None,213.9451960600003,None,,,,,,,,,,,223,20,Male,2022-05-24_14h06.00.191,Main,2022.1.1,60.03900133535464,
neutral,positive,1,k,k,,,,,,,,,1,15,33,4,,,,,,,,,,,,,,,,,,,,,,,,main,2,2,1,positive,neutral,k,k,1,0.6224351999999271,213.96608530000003,214.9690399000001,214.9498047000002,None,213.96608530000003,None,213.96608530000003,None,213.96608530000003,None,215.57143106000004,None,215.57143106000004,None,215.57143106000004,None,,,,,,,,,,,223,20,Male,2022-05-24_14h06.00.191,Main,2022.1.1,60.03900133535464,
negative,neutral,1,j,l,,,,,,,,,1,16,34,3,,,,,,,,,,,,,,,,,,,,,,,,main,1,1,1,neutral,negative,l,l,1,0.7743295000000217,215.59199290000015,216.60861220000015,216.5670269000002,None,215.59199290000015,None,215.59199290000015,None,215.59199290000015,None,217.3463057600001,None,217.3463057600001,None,217.3463057600001,None,,,,,,,,,,,223,20,Male,2022-05-24_14h06.00.191,Main,2022.1.1,60.03900133535464,
negative,neutral,2,j,l,,,,,,,,,1,17,35,12,,,,,,,,,,,,,,,,,,,,,,,,main,2,2,2,neutral,negative,l,l,1,0.7625008999998499,217.37209440000015,218.37628790000008,218.3555593000001,None,217.37209440000015,None,217.37209440000015,None,217.37209440000015,None,219.11163086000025,None,219.11163086000025,None,219.11163086000025,None,,,,,,,,,,,223,20,Male,2022-05-24_14h06.00.191,Main,2022.1.1,60.03900133535464,
neutral,positive,1,k,k,,,,,,,,,2,0,36,4,,,,,,,,,,,,,,,,,,,,,,,,main,1,1,1,positive,neutral,k,k,1,0.7045139999995627,219.1331952999999,220.13812420000022,220.1180546999999,None,219.1331952999999,None,219.1331952999999,None,219.1331952999999,None,220.82083906000017,None,220.82083906000017,None,220.82083906000017,None,,,,,,,,,,,223,20,Male,2022-05-24_14h06.00.191,Main,2022.1.1,60.03900133535464,
negative,positive,1,j,l,,,,,,,,,2,1,37,6,,,,,,,,,,,,,,,,,,,,,,,,main,1,1,1,positive,negative,l,l,1,0.792247800000041,220.8438481000003,221.8627449999999,221.82468980000021,None,220.8438481000003,None,220.8438481000003,None,220.8438481000003,None,222.62531152000003,None,222.62531152000003,None,222.62531152000003,None,,,,,,,,,,,223,20,Male,2022-05-24_14h06.00.191,Main,2022.1.1,60.03900133535464,
positive,positive,2,l,j,,,,,,,,,2,2,38,11,,,,,,,,,,,,,,,,,,,,,,,,main,2,2,2,positive,positive,j,j,1,0.8513310999996975,222.64156000000003,223.65802520000034,223.63761090000025,None,222.64156000000003,None,222.64156000000003,None,222.64156000000003,None,224.47215436000025,None,224.47215436000025,None,224.47215436000025,None,,,,,,,,,,,223,20,Male,2022-05-24_14h06.00.191,Main,2022.1.1,60.03900133535464,
neutral,negative,2,k,k,,,,,,,,,2,3,39,16,,,,,,,,,,,,,,,,,,,,,,,,main,2,2,2,negative,neutral,k,k,1,0.8140932000001158,224.49155520000022,225.49741390000008,225.47624670000005,None,224.49155520000022,None,224.49155520000022,None,224.49155520000022,None,226.28921286000005,None,226.28921286000005,None,226.28921286000005,None,,,,,,,,,,,223,20,Male,2022-05-24_14h06.00.191,Main,2022.1.1,60.03900133535464,
positive,neutral,1,l,j,,,,,,,,,2,4,40,8,,,,,,,,,,,,,,,,,,,,,,,,main,1,1,1,neutral,positive,j,l,0,0.923848999999791,226.3088485000003,227.3138968000003,227.2954609000003,None,226.3088485000003,None,226.3088485000003,None,226.3088485000003,None,228.22302149999996,None,228.22302149999996,None,228.22302149999996,None,,,,,,,,,,,223,20,Male,2022-05-24_14h06.00.191,Main,2022.1.1,60.03900133535464,
positive,negative,2,l,j,,,,,,,,,2,5,41,14,,,,,,,,,,,,,,,,,,,,,,,,main,1,1,2,negative,positive,j,j,1,0.799253900000167,229.24894190000032,230.25404190000017,230.23347330000024,None,229.24894190000032,None,229.24894190000032,None,229.24894190000032,None,231.02765536000007,None,231.02765536000007,None,231.02765536000007,None,,,,,,,,,,,223,20,Male,2022-05-24_14h06.00.191,Main,2022.1.1,60.03900133535464,
positive,neutral,2,l,j,,,,,,,,,2,6,42,17,,,,,,,,,,,,,,,,,,,,,,,,main,1,1,2,neutral,positive,j,j,1,0.6956012000000555,231.0482264000002,232.0661129,232.02715639999997,None,231.0482264000002,None,231.0482264000002,None,231.0482264000002,None,232.72621886000016,None,232.72621886000016,None,232.72621886000016,None,,,,,,,,,,,223,20,Male,2022-05-24_14h06.00.191,Main,2022.1.1,60.03900133535464,
negative,neutral,2,j,l,,,,,,,,,2,7,43,12,,,,,,,,,,,,,,,,,,,,,,,,main,2,2,2,neutral,negative,l,l,1,0.8522419999999329,232.7466575000003,233.75764180000033,233.73734760000025,None,232.7466575000003,None,232.7466575000003,None,232.7466575000003,None,234.58290356000035,None,234.58290356000035,None,234.58290356000035,None,,,,,,,,,,,223,20,Male,2022-05-24_14h06.00.191,Main,2022.1.1,60.03900133535464,
negative,negative,2,j,l,,,,,,,,,2,8,44,9,,,,,,,,,,,,,,,,,,,,,,,,main,1,1,2,negative,negative,l,l,1,0.7731269000000793,234.6043606000003,235.61959530000013,235.57858680000027,None,234.6043606000003,None,234.6043606000003,None,234.6043606000003,None,236.35645166000032,None,236.35645166000032,None,236.35645166000032,None,,,,,,,,,,,223,20,Male,2022-05-24_14h06.00.191,Main,2022.1.1,60.03900133535464,
neutral,positive,2,k,k,,,,,,,,,2,9,45,13,,,,,,,,,,,,,,,,,,,,,,,,main,1,1,2,positive,neutral,k,k,1,0.8186692999997831,236.37872000000016,237.3922192,237.3732103000002,None,236.37872000000016,None,236.37872000000016,None,236.37872000000016,None,238.18169786000036,None,238.18169786000036,None,238.18169786000036,None,,,,,,,,,,,223,20,Male,2022-05-24_14h06.00.191,Main,2022.1.1,60.03900133535464,
neutral,neutral,2,k,k,,,,,,,,,2,10,46,10,,,,,,,,,,,,,,,,,,,,,,,,main,1,1,2,neutral,neutral,k,k,1,0.1034100000001672,238.20083019999993,239.2234258000003,239.1805532000003,None,238.20083019999993,None,238.20083019999993,None,238.20083019999993,None,239.30255860000034,None,239.30255860000034,None,239.30255860000034,None,,,,,,,,,,,223,20,Male,2022-05-24_14h06.00.191,Main,2022.1.1,60.03900133535464,
neutral,neutral,1,k,k,,,,,,,,,2,11,47,1,,,,,,,,,,,,,,,,,,,,,,,,main,2,2,1,neutral,neutral,k,k,1,0.7078439000001708,242.31405050000012,243.3183822000001,243.29822120000017,None,242.31405050000012,None,242.31405050000012,None,242.31405050000012,None,244.00304786000007,None,244.00304786000007,None,244.00304786000007,None,,,,,,,,,,,223,20,Male,2022-05-24_14h06.00.191,Main,2022.1.1,60.03900133535464,
negative,positive,2,j,l,,,,,,,,,2,12,48,15,,,,,,,,,,,,,,,,,,,,,,,,main,1,1,2,positive,negative,l,l,1,0.8526686999998674,244.02536180000016,245.03817290000006,245.01813119999997,None,244.02536180000016,None,244.02536180000016,None,244.02536180000016,None,245.8577854600002,None,245.8577854600002,None,245.8577854600002,None,,,,,,,,,,,223,20,Male,2022-05-24_14h06.00.191,Main,2022.1.1,60.03900133535464,
negative,negative,1,j,l,,,,,,,,,2,13,49,0,,,,,,,,,,,,,,,,,,,,,,,,main,2,2,1,negative,negative,l,l,1,0.7685131000002912,245.8789187000002,246.8955989000001,246.85569440000017,None,245.8789187000002,None,245.8789187000002,None,245.8789187000002,None,247.63121716000015,None,247.63121716000015,None,247.63121716000015,None,,,,,,,,,,,223,20,Male,2022-05-24_14h06.00.191,Main,2022.1.1,60.03900133535464,
neutral,negative,1,k,k,,,,,,,,,2,14,50,7,,,,,,,,,,,,,,,,,,,,,,,,main,2,2,1,negative,neutral,k,k,1,0.8546227000001636,247.6514600999999,248.66759550000006,248.62786110000025,None,247.6514600999999,None,247.6514600999999,None,247.6514600999999,None,249.48781486,None,249.48781486,None,249.48781486,None,,,,,,,,,,,223,20,Male,2022-05-24_14h06.00.191,Main,2022.1.1,60.03900133535464,
positive,positive,1,l,j,,,,,,,,,2,15,51,2,,,,,,,,,,,,,,,,,,,,,,,,main,2,2,1,positive,positive,j,j,1,0.9484177999997883,249.5095341000001,250.51243680000016,250.4935458,None,249.5095341000001,None,249.5095341000001,None,249.5095341000001,None,251.43901686000018,None,251.43901686000018,None,251.43901686000018,None,,,,,,,,,,,223,20,Male,2022-05-24_14h06.00.191,Main,2022.1.1,60.03900133535464,
negative,neutral,1,j,l,,,,,,,,,2,16,52,3,,,,,,,,,,,,,,,,,,,,,,,,main,1,1,1,neutral,negative,l,l,1,0.9005139000000781,251.47209770000018,252.49019150000004,252.44783469999993,None,251.47209770000018,None,251.47209770000018,None,251.47209770000018,None,253.34695076000017,None,253.34695076000017,None,253.34695076000017,None,,,,,,,,,,,223,20,Male,2022-05-24_14h06.00.191,Main,2022.1.1,60.03900133535464,
positive,negative,1,l,j,,,,,,,,,2,17,53,5,,,,,,,,,,,,,,,,,,,,,,,,main,1,1,1,negative,positive,j,l,0,1.0115694999999505,253.3692685000001,254.3761569000003,254.3567522000003,None,253.3692685000001,None,253.3692685000001,None,253.3692685000001,None,255.3675728000003,None,255.3675728000003,None,255.3675728000003,None,,,,,,,,,,,223,20,Male,2022-05-24_14h06.00.191,Main,2022.1.1,60.03900133535464,
neutral,negative,2,k,k,,,,,,,,,3,0,54,16,,,,,,,,,,,,,,,,,,,,,,,,main,2,2,2,negative,neutral,k,k,1,0.816846500000338,256.3790793000003,257.3871200000003,257.36657110000033,None,256.3790793000003,None,256.3790793000003,None,256.3790793000003,None,258.17423466000025,None,258.17423466000025,None,258.17423466000025,None,,,,,,,,,,,223,20,Male,2022-05-24_14h06.00.191,Main,2022.1.1,60.03900133535464,
negative,negative,2,j,l,,,,,,,,,3,1,55,9,,,,,,,,,,,,,,,,,,,,,,,,main,2,2,2,negative,negative,l,l,1,0.8586792000000969,258.1984061000003,259.2038098000003,259.1829399000003,None,258.1984061000003,None,258.1984061000003,None,258.1984061000003,None,260.0373717599999,None,260.0373717599999,None,260.0373717599999,None,,,,,,,,,,,223,20,Male,2022-05-24_14h06.00.191,Main,2022.1.1,60.03900133535464,
neutral,neutral,2,k,k,,,,,,,,,3,2,56,10,,,,,,,,,,,,,,,,,,,,,,,,main,1,1,2,neutral,neutral,k,k,1,0.6819834999996601,260.0589792999999,261.0610746000002,261.04209330000003,None,260.0589792999999,None,260.0589792999999,None,260.0589792999999,None,261.7218317600003,None,261.7218317600003,None,261.7218317600003,None,,,,,,,,,,,223,20,Male,2022-05-24_14h06.00.191,Main,2022.1.1,60.03900133535464,
positive,positive,2,l,j,,,,,,,,,3,3,57,11,,,,,,,,,,,,,,,,,,,,,,,,main,2,2,2,positive,positive,j,j,1,0.5459430999999313,261.74400920000016,262.7446165000001,262.7278603,None,261.74400920000016,None,261.74400920000016,None,261.74400920000016,None,263.2704480599999,None,263.2704480599999,None,263.2704480599999,None,,,,,,,,,,,223,20,Male,2022-05-24_14h06.00.191,Main,2022.1.1,60.03900133535464,
positive,neutral,1,l,j,,,,,,,,,3,4,58,8,,,,,,,,,,,,,,,,,,,,,,,,main,2,2,1,neutral,positive,j,j,1,0.916765899999973,263.29084379999995,264.3064595999999,264.2867613000003,None,263.29084379999995,None,263.29084379999995,None,263.29084379999995,None,265.18996766,None,265.18996766,None,265.18996766,None,,,,,,,,,,,223,20,Male,2022-05-24_14h06.00.191,Main,2022.1.1,60.03900133535464,
positive,positive,1,l,j,,,,,,,,,3,5,59,2,,,,,,,,,,,,,,,,,,,,,,,,main,1,1,1,positive,positive,j,j,1,0.6480924000002233,265.2109921000001,266.22233499999993,266.20298390000016,None,265.2109921000001,None,265.2109921000001,None,265.2109921000001,None,266.84056395999994,None,266.84056395999994,None,266.84056395999994,None,,,,,,,,,,,223,20,Male,2022-05-24_14h06.00.191,Main,2022.1.1,60.03900133535464,
negative,neutral,2,j,l,,,,,,,,,3,6,60,12,,,,,,,,,,,,,,,,,,,,,,,,main,1,1,2,neutral,negative,l,l,1,0.8474131999996644,266.8617274000003,267.8776772000001,267.8399233,None,266.8617274000003,None,266.8617274000003,None,266.8617274000003,None,268.6903001600002,None,268.6903001600002,None,268.6903001600002,None,,,,,,,,,,,223,20,Male,2022-05-24_14h06.00.191,Main,2022.1.1,60.03900133535464,
positive,negative,1,l,j,,,,,,,,,3,7,61,5,,,,,,,,,,,,,,,,,,,,,,,,main,2,2,1,negative,positive,j,j,1,0.8624896000001172,268.71422410000014,269.7318131000002,269.69221319999997,None,268.71422410000014,None,268.71422410000014,None,268.71422410000014,None,270.55495886000006,None,270.55495886000006,None,270.55495886000006,None,,,,,,,,,,,223,20,Male,2022-05-24_14h06.00.191,Main,2022.1.1,60.03900133535464,
neutral,positive,2,k,k,,,,,,,,,3,8,62,13,,,,,,,,,,,,,,,,,,,,,,,,main,1,1,2,positive,neutral,k,k,1,0.6158266000002186,270.57669609999994,271.59427380000034,271.55578990000004,None,270.57669609999994,None,270.57669609999994,None,270.57669609999994,None,272.17330075999996,None,272.17330075999996,None,272.17330075999996,None,,,,,,,,,,,223,20,Male,2022-05-24_14h06.00.191,Main,2022.1.1,60.03900133535464,
positive,neutral,2,l,j,,,,,,,,,3,9,63,17,,,,,,,,,,,,,,,,,,,,,,,,main,1,1,2,neutral,positive,j,j,1,0.903139900000042,272.1973267000003,273.2101963,273.1734965999999,None,272.1973267000003,None,272.1973267000003,None,272.1973267000003,None,274.0810107599999,None,274.0810107599999,None,274.0810107599999,None,,,,,,,,,,,223,20,Male,2022-05-24_14h06.00.191,Main,2022.1.1,60.03900133535464,
negative,positive,2,j,l,,,,,,,,,3,10,64,15,,,,,,,,,,,,,,,,,,,,,,,,main,2,2,2,positive,negative,l,l,1,0.872669599999881,274.10131500000034,275.1141640999999,275.0935571,None,274.10131500000034,None,274.10131500000034,None,274.10131500000034,None,275.95450036,None,275.95450036,None,275.95450036,None,,,,,,,,,,,223,20,Male,2022-05-24_14h06.00.191,Main,2022.1.1,60.03900133535464,
neutral,negative,1,k,k,,,,,,,,,3,11,65,7,,,,,,,,,,,,,,,,,,,,,,,,main,1,1,1,negative,neutral,k,k,1,0.7531652000002396,275.97531419999996,276.9919958999999,276.9528986,None,275.97531419999996,None,275.97531419999996,None,275.97531419999996,None,277.71266705999994,None,277.71266705999994,None,277.71266705999994,None,,,,,,,,,,,223,20,Male,2022-05-24_14h06.00.191,Main,2022.1.1,60.03900133535464,
positive,negative,2,l,j,,,,,,,,,3,12,66,14,,,,,,,,,,,,,,,,,,,,,,,,main,1,1,2,negative,positive,j,j,1,0.761500800000249,277.73534180000024,278.74098200000026,278.7223733000001,None,277.73534180000024,None,277.73534180000024,None,277.73534180000024,None,279.47477526,None,279.47477526,None,279.47477526,None,,,,,,,,,,,223,20,Male,2022-05-24_14h06.00.191,Main,2022.1.1,60.03900133535464,
neutral,positive,1,k,k,,,,,,,,,3,13,67,4,,,,,,,,,,,,,,,,,,,,,,,,main,2,2,1,positive,neutral,k,k,1,0.7003328999999212,279.49495060000027,280.5137178,280.47298610000007,None,279.49495060000027,None,279.49495060000027,None,279.49495060000027,None,281.1794963599999,None,281.1794963599999,None,281.1794963599999,None,,,,,,,,,,,223,20,Male,2022-05-24_14h06.00.191,Main,2022.1.1,60.03900133535464,
negative,neutral,1,j,l,,,,,,,,,3,14,68,3,,,,,,,,,,,,,,,,,,,,,,,,main,2,2,1,neutral,negative,l,l,1,0.9908816000001934,281.2000048,282.20966670000007,282.19108589999996,None,281.2000048,None,281.2000048,None,281.2000048,None,283.17050245999997,None,283.17050245999997,None,283.17050245999997,None,,,,,,,,,,,223,20,Male,2022-05-24_14h06.00.191,Main,2022.1.1,60.03900133535464,
negative,positive,1,j,l,,,,,,,,,3,15,69,6,,,,,,,,,,,,,,,,,,,,,,,,main,2,2,1,positive,negative,l,l,1,1.4061409999999341,283.1961924000002,284.21873959999994,284.19837400000006,None,283.1961924000002,None,283.1961924000002,None,283.1961924000002,None,285.5808307599999,None,285.5808307599999,None,285.5808307599999,None,,,,,,,,,,,223,20,Male,2022-05-24_14h06.00.191,Main,2022.1.1,60.03900133535464,
neutral,neutral,1,k,k,,,,,,,,,3,16,70,1,,,,,,,,,,,,,,,,,,,,,,,,main,2,2,1,neutral,neutral,k,k,1,0.6749660000000404,285.60325620000003,286.62175290000005,286.5837940000001,None,285.60325620000003,None,285.60325620000003,None,285.60325620000003,None,287.2621340600002,None,287.2621340600002,None,287.2621340600002,None,,,,,,,,,,,223,20,Male,2022-05-24_14h06.00.191,Main,2022.1.1,60.03900133535464,
negative,negative,1,j,l,,,,,,,,,3,17,71,0,,,,,,,,,,,,,,,,,,,,,,,,main,2,2,1,negative,negative,l,l,1,0.9134799999997085,287.2851721000002,288.2995679999999,288.2587143999999,None,287.2851721000002,None,287.2851721000002,None,287.2851721000002,None,289.17798075999997,None,289.17798075999997,None,289.17798075999997,None,,,,,,,,,,,223,20,Male,2022-05-24_14h06.00.191,Main,2022.1.1,60.03900133535464,
neutral,positive,2,k,k,,,,,,,,,4,0,72,13,,,,,,,,,,,,,,,,,,,,,,,,main,1,1,2,positive,neutral,k,k,1,0.7147650000001704,289.20056950000026,290.21638340000027,290.1745079000002,None,289.20056950000026,None,289.20056950000026,None,289.20056950000026,None,290.8957532600001,None,290.8957532600001,None,290.8957532600001,None,,,,,,,,,,,223,20,Male,2022-05-24_14h06.00.191,Main,2022.1.1,60.03900133535464,
neutral,neutral,1,k,k,,,,,,,,,4,1,73,1,,,,,,,,,,,,,,,,,,,,,,,,main,1,1,1,neutral,neutral,k,k,1,0.7282985000001645,290.91615260000026,291.9343736999999,291.8953523,None,290.91615260000026,None,290.91615260000026,None,290.91615260000026,None,292.6270626600002,None,292.6270626600002,None,292.6270626600002,None,,,,,,,,,,,223,20,Male,2022-05-24_14h06.00.191,Main,2022.1.1,60.03900133535464,
negative,neutral,2,j,l,,,,,,,,,4,2,74,12,,,,,,,,,,,,,,,,,,,,,,,,main,1,1,2,neutral,negative,l,l,1,0.729419499999949,292.646205,293.6620087000001,293.62155340000027,None,292.646205,None,292.646205,None,292.646205,None,294.35630646000016,None,294.35630646000016,None,294.35630646000016,None,,,,,,,,,,,223,20,Male,2022-05-24_14h06.00.191,Main,2022.1.1,60.03900133535464,
positive,neutral,2,l,j,,,,,,,,,4,3,75,17,,,,,,,,,,,,,,,,,,,,,,,,main,2,2,2,neutral,positive,j,j,1,0.9068482000002405,294.3763888000003,295.38291180000033,295.3620254000002,None,294.3763888000003,None,294.3763888000003,None,294.3763888000003,None,296.2657505599999,None,296.2657505599999,None,296.2657505599999,None,,,,,,,,,,,223,20,Male,2022-05-24_14h06.00.191,Main,2022.1.1,60.03900133535464,
negative,negative,1,j,l,,,,,,,,,4,4,76,0,,,,,,,,,,,,,,,,,,,,,,,,main,1,1,1,negative,negative,l,l,1,1.097959499999888,296.2867741,297.29496629999994,297.2739555000003,None,296.2867741,None,296.2867741,None,296.2867741,None,298.36670605999996,None,298.36670605999996,None,298.36670605999996,None,,,,,,,,,,,223,20,Male,2022-05-24_14h06.00.191,Main,2022.1.1,60.03900133535464,
positive,positive,2,l,j,,,,,,,,,4,5,77,11,,,,,,,,,,,,,,,,,,,,,,,,main,2,2,2,positive,positive,j,j,1,0.9106421000001319,298.38824060000024,299.4073321000001,299.3679510000002,None,298.38824060000024,None,298.38824060000024,None,298.38824060000024,None,300.2810751599999,None,300.2810751599999,None,300.2810751599999,None,,,,,,,,,,,223,20,Male,2022-05-24_14h06.00.191,Main,2022.1.1,60.03900133535464,
positive,negative,1,l,j,,,,,,,,,4,6,78,5,,,,,,,,,,,,,,,,,,,,,,,,main,2,2,1,negative,positive,j,j,1,0.720996600000035,300.3040070000002,301.3093791000001,301.2887943999999,None,300.3040070000002,None,300.3040070000002,None,300.3040070000002,None,302.00786675999996,None,302.00786675999996,None,302.00786675999996,None,,,,,,,,,,,223,20,Male,2022-05-24_14h06.00.191,Main,2022.1.1,60.03900133535464,
positive,positive,1,l,j,,,,,,,,,4,7,79,2,,,,,,,,,,,,,,,,,,,,,,,,main,1,1,1,positive,positive,j,j,1,0.7158141999998406,302.02692000000025,303.0467083000003,303.00555090000034,None,302.02692000000025,None,302.02692000000025,None,302.02692000000025,None,303.7263646600003,None,303.7263646600003,None,303.7263646600003,None,,,,,,,,,,,223,20,Male,2022-05-24_14h06.00.191,Main,2022.1.1,60.03900133535464,
neutral,neutral,2,k,k,,,,,,,,,4,8,80,10,,,,,,,,,,,,,,,,,,,,,,,,main,2,2,2,neutral,neutral,k,k,1,0.6855240000004414,303.7464434000003,304.75318890000017,304.7337686999999,None,303.7464434000003,None,303.7464434000003,None,303.7464434000003,None,305.4141534600002,None,305.4141534600002,None,305.4141534600002,None,,,,,,,,,,,223,20,Male,2022-05-24_14h06.00.191,Main,2022.1.1,60.03900133535464,
neutral,positive,1,k,k,,,,,,,,,4,9,81,4,,,,,,,,,,,,,,,,,,,,,,,,main,1,1,1,positive,neutral,k,k,1,0.6009041000002071,305.4356548999999,306.43845899999997,306.41917820000026,None,305.4356548999999,None,305.4356548999999,None,305.4356548999999,None,307.0176053600002,None,307.0176053600002,None,307.0176053600002,None,,,,,,,,,,,223,20,Male,2022-05-24_14h06.00.191,Main,2022.1.1,60.03900133535464,
negative,positive,2,j,l,,,,,,,,,4,10,82,15,,,,,,,,,,,,,,,,,,,,,,,,main,1,1,2,positive,negative,l,l,1,0.8981976000000031,307.03912200000013,308.0459347000001,308.02448060000006,None,307.03912200000013,None,307.03912200000013,None,307.03912200000013,None,308.9189913600002,None,308.9189913600002,None,308.9189913600002,None,,,,,,,,,,,223,20,Male,2022-05-24_14h06.00.191,Main,2022.1.1,60.03900133535464,
negative,negative,2,j,l,,,,,,,,,4,11,83,9,,,,,,,,,,,,,,,,,,,,,,,,main,2,2,2,negative,negative,l,l,1,1.267567699999745,308.9406718,309.9601004000001,309.9195497999999,None,308.9406718,None,308.9406718,None,308.9406718,None,311.1907455600002,None,311.1907455600002,None,311.1907455600002,None,,,,,,,,,,,223,20,Male,2022-05-24_14h06.00.191,Main,2022.1.1,60.03900133535464,
positive,neutral,1,l,j,,,,,,,,,4,12,84,8,,,,,,,,,,,,,,,,,,,,,,,,main,2,2,1,neutral,positive,j,l,0,0.9140896999997494,311.2161375999999,312.2189178000003,312.2000833000002,None,311.2161375999999,None,311.2161375999999,None,311.2161375999999,None,313.1160393,None,313.1160393,None,313.1160393,None,,,,,,,,,,,223,20,Male,2022-05-24_14h06.00.191,Main,2022.1.1,60.03900133535464,
negative,neutral,1,j,l,,,,,,,,,4,13,85,3,,,,,,,,,,,,,,,,,,,,,,,,main,2,2,1,neutral,negative,l,l,1,1.1068387999998777,314.1369265000003,315.1490914000001,315.1299733999999,None,314.1369265000003,None,314.1369265000003,None,314.1369265000003,None,316.22618916,None,316.22618916,None,316.22618916,None,,,,,,,,,,,223,20,Male,2022-05-24_14h06.00.191,Main,2022.1.1,60.03900133535464,
negative,positive,1,j,l,,,,,,,,,4,14,86,6,,,,,,,,,,,,,,,,,,,,,,,,main,1,1,1,positive,negative,l,l,1,0.655537699999968,316.2473434000003,317.2589668999999,317.23733500000026,None,316.2473434000003,None,316.2473434000003,None,316.2473434000003,None,317.88237486000014,None,317.88237486000014,None,317.88237486000014,None,,,,,,,,,,,223,20,Male,2022-05-24_14h06.00.191,Main,2022.1.1,60.03900133535464,
neutral,negative,1,k,k,,,,,,,,,4,15,87,7,,,,,,,,,,,,,,,,,,,,,,,,main,2,2,1,negative,neutral,k,k,1,0.8836661999998796,317.9074952000001,318.92530050000005,318.8854329999999,None,317.9074952000001,None,317.9074952000001,None,317.9074952000001,None,319.76899046000005,None,319.76899046000005,None,319.76899046000005,None,,,,,,,,,,,223,20,Male,2022-05-24_14h06.00.191,Main,2022.1.1,60.03900133535464,
neutral,negative,2,k,k,,,,,,,,,4,16,88,16,,,,,,,,,,,,,,,,,,,,,,,,main,1,1,2,negative,neutral,k,k,1,0.6430972000002839,319.78920300000027,320.79538600000024,320.77540720000025,None,319.78920300000027,None,319.78920300000027,None,319.78920300000027,None,321.41278516,None,321.41278516,None,321.41278516,None,,,,,,,,,,,223,20,Male,2022-05-24_14h06.00.191,Main,2022.1.1,60.03900133535464,
positive,negative,2,l,j,,,,,,,,,4,17,89,14,,,,,,,,,,,,,,,,,,,,,,,,main,1,1,2,negative,positive,j,j,1,0.8219369000003098,321.43630710000025,322.44803060000004,322.4281202000002,None,321.43630710000025,None,321.43630710000025,None,321.43630710000025,None,323.24122256,None,323.24122256,None,323.24122256,None,,,,,,,,,,,223,20,Male,2022-05-24_14h06.00.191,Main,2022.1.1,60.03900133535464,
negative,neutral,1,j,l,,,,,,,,,5,0,90,3,,,,,,,,,,,,,,,,,,,,,,,,main,2,2,1,neutral,negative,l,l,1,0.8086794999999256,323.2616803000001,324.2711933999999,324.25083399999994,None,323.2616803000001,None,323.2616803000001,None,323.2616803000001,None,325.0513050600001,None,325.0513050600001,None,325.0513050600001,None,,,,,,,,,,,223,20,Male,2022-05-24_14h06.00.191,Main,2022.1.1,60.03900133535464,
positive,positive,1,l,j,,,,,,,,,5,1,91,2,,,,,,,,,,,,,,,,,,,,,,,,main,1,1,1,positive,positive,j,j,1,0.9504941999998664,325.07175129999996,326.0865447000001,326.048041,None,325.07175129999996,None,325.07175129999996,None,325.07175129999996,None,327.00566146000017,None,327.00566146000017,None,327.00566146000017,None,,,,,,,,,,,223,20,Male,2022-05-24_14h06.00.191,Main,2022.1.1,60.03900133535464,
neutral,negative,1,k,k,,,,,,,,,5,2,92,7,,,,,,,,,,,,,,,,,,,,,,,,main,2,2,1,negative,neutral,k,k,1,0.7474542999998448,327.0267758,328.0404348000002,328.00154079999993,None,327.0267758,None,327.0267758,None,327.0267758,None,328.75610066000024,None,328.75610066000024,None,328.75610066000024,None,,,,,,,,,,,223,20,Male,2022-05-24_14h06.00.191,Main,2022.1.1,60.03900133535464,
neutral,negative,2,k,k,,,,,,,,,5,3,93,16,,,,,,,,,,,,,,,,,,,,,,,,main,1,1,2,negative,neutral,k,k,1,1.0096372000002702,328.7768206999999,329.79096130000016,329.7509270999999,None,328.7768206999999,None,328.7768206999999,None,328.7768206999999,None,330.7660592599999,None,330.7660592599999,None,330.7660592599999,None,,,,,,,,,,,223,20,Male,2022-05-24_14h06.00.191,Main,2022.1.1,60.03900133535464,
negative,positive,2,j,l,,,,,,,,,5,4,94,15,,,,,,,,,,,,,,,,,,,,,,,,main,1,1,2,positive,negative,l,l,1,0.7807873000001564,330.7867236000002,331.8088241999999,331.76800820000017,None,330.7867236000002,None,330.7867236000002,None,330.7867236000002,None,332.5482815600002,None,332.5482815600002,None,332.5482815600002,None,,,,,,,,,,,223,20,Male,2022-05-24_14h06.00.191,Main,2022.1.1,60.03900133535464,
neutral,positive,2,k,k,,,,,,,,,5,5,95,13,,,,,,,,,,,,,,,,,,,,,,,,main,2,2,2,positive,neutral,k,k,1,0.7602387000001727,332.56946960000005,333.59038839999994,333.5509460000003,None,332.56946960000005,None,332.56946960000005,None,332.56946960000005,None,334.3121159599999,None,334.3121159599999,None,334.3121159599999,None,,,,,,,,,,,223,20,Male,2022-05-24_14h06.00.191,Main,2022.1.1,60.03900133535464,
negative,positive,1,j,l,,,,,,,,,5,6,96,6,,,,,,,,,,,,,,,,,,,,,,,,main,1,1,1,positive,negative,l,l,1,0.9915703000001486,334.3338598,335.35320150000007,335.31486870000026,None,334.3338598,None,334.3338598,None,334.3338598,None,336.3070671600002,None,336.3070671600002,None,336.3070671600002,None,,,,,,,,,,,223,20,Male,2022-05-24_14h06.00.191,Main,2022.1.1,60.03900133535464,
positive,positive,2,l,j,,,,,,,,,5,7,97,11,,,,,,,,,,,,,,,,,,,,,,,,main,2,2,2,positive,positive,j,j,1,0.7644112999996651,336.32949740000004,337.3499646,337.31106960000034,None,336.32949740000004,None,336.32949740000004,None,336.32949740000004,None,338.0747927599999,None,338.0747927599999,None,338.0747927599999,None,,,,,,,,,,,223,20,Male,2022-05-24_14h06.00.191,Main,2022.1.1,60.03900133535464,
negative,neutral,2,j,l,,,,,,,,,5,8,98,12,,,,,,,,,,,,,,,,,,,,,,,,main,1,1,2,neutral,negative,l,l,1,1.0519421999997576,338.0982835,339.1131412,339.09349710000015,None,338.0982835,None,338.0982835,None,338.0982835,None,340.12990505999994,None,340.12990505999994,None,340.12990505999994,None,,,,,,,,,,,223,20,Male,2022-05-24_14h06.00.191,Main,2022.1.1,60.03900133535464,
negative,negative,1,j,l,,,,,,,,,5,9,99,0,,,,,,,,,,,,,,,,,,,,,,,,main,1,1,1,negative,negative,l,l,1,0.8833856999999625,340.1511389000002,341.16563190000034,341.14592900000025,None,340.1511389000002,None,340.1511389000002,None,340.1511389000002,None,342.0175920600003,None,342.0175920600003,None,342.0175920600003,None,,,,,,,,,,,223,20,Male,2022-05-24_14h06.00.191,Main,2022.1.1,60.03900133535464,
positive,neutral,2,l,j,,,,,,,,,5,10,100,17,,,,,,,,,,,,,,,,,,,,,,,,main,1,1,2,neutral,positive,j,j,1,0.9137927000001582,342.03952960000015,343.0592251000003,343.01844440000013,None,342.03952960000015,None,342.03952960000015,None,342.03952960000015,None,343.93538806000004,None,343.93538806000004,None,343.93538806000004,None,,,,,,,,,,,223,20,Male,2022-05-24_14h06.00.191,Main,2022.1.1,60.03900133535464,
positive,negative,2,l,j,,,,,,,,,5,11,101,14,,,,,,,,,,,,,,,,,,,,,,,,main,2,2,2,negative,positive,j,j,1,0.929226799999924,343.9549311999999,344.9748651,344.93359450000025,None,343.9549311999999,None,343.9549311999999,None,343.9549311999999,None,345.8672236599999,None,345.8672236599999,None,345.8672236599999,None,,,,,,,,,,,223,20,Male,2022-05-24_14h06.00.191,Main,2022.1.1,60.03900133535464,
positive,negative,1,l,j,,,,,,,,,5,12,102,5,,,,,,,,,,,,,,,,,,,,,,,,main,1,1,1,negative,positive,j,j,1,1.0125983000002634,345.8878095,346.9004033000001,346.8616906000002,None,345.8878095,None,345.8878095,None,345.8878095,None,347.87983606000023,None,347.87983606000023,None,347.87983606000023,None,,,,,,,,,,,223,20,Male,2022-05-24_14h06.00.191,Main,2022.1.1,60.03900133535464,
negative,negative,2,j,l,,,,,,,,,5,13,103,9,,,,,,,,,,,,,,,,,,,,,,,,main,2,2,2,negative,negative,l,l,1,1.0793778000002021,347.9010424000003,348.9042915,348.88367610000023,None,347.9010424000003,None,347.9010424000003,None,347.9010424000003,None,349.9612468600002,None,349.9612468600002,None,349.9612468600002,None,,,,,,,,,,,223,20,Male,2022-05-24_14h06.00.191,Main,2022.1.1,60.03900133535464,
positive,neutral,1,l,j,,,,,,,,,5,14,104,8,,,,,,,,,,,,,,,,,,,,,,,,main,1,1,1,neutral,positive,j,j,1,1.0706441000002087,349.98194980000017,351.00001120000024,350.96147740000015,None,349.98194980000017,None,349.98194980000017,None,349.98194980000017,None,352.03750866000007,None,352.03750866000007,None,352.03750866000007,None,,,,,,,,,,,223,20,Male,2022-05-24_14h06.00.191,Main,2022.1.1,60.03900133535464,
neutral,neutral,1,k,k,,,,,,,,,5,15,105,1,,,,,,,,,,,,,,,,,,,,,,,,main,1,1,1,neutral,neutral,k,k,1,0.6252206999997725,352.0571116000001,353.06495470000027,353.04609600000003,None,352.0571116000001,None,352.0571116000001,None,352.0571116000001,None,353.6624175599999,None,353.6624175599999,None,353.6624175599999,None,,,,,,,,,,,223,20,Male,2022-05-24_14h06.00.191,Main,2022.1.1,60.03900133535464,
neutral,neutral,2,k,k,,,,,,,,,5,16,106,10,,,,,,,,,,,,,,,,,,,,,,,,main,1,1,2,neutral,neutral,k,k,1,0.7536113999999543,353.68362879999995,354.7056783000003,354.66356270000006,None,353.68362879999995,None,353.68362879999995,None,353.68362879999995,None,355.42145856000013,None,355.42145856000013,None,355.42145856000013,None,,,,,,,,,,,223,20,Male,2022-05-24_14h06.00.191,Main,2022.1.1,60.03900133535464,
neutral,positive,1,k,k,,,,,,,,,5,17,107,4,,,,,,,,,,,,,,,,,,,,,,,,main,2,2,1,positive,neutral,k,k,1,1.2952276999999413,355.4420672000001,356.4469750000003,356.42826140000034,None,355.4420672000001,None,355.4420672000001,None,355.4420672000001,None,357.71956756,None,357.71956756,None,357.71956756,None,,,,,,,,,,,223,20,Male,2022-05-24_14h06.00.191,Main,2022.1.1,60.03900133535464,
neutral,neutral,1,k,k,,,,,,,,,6,0,108,1,,,,,,,,,,,,,,,,,,,,,,,,main,2,2,1,neutral,neutral,k,k,1,0.8634621000001061,357.7412996000003,358.7460476000001,358.7267574000002,None,357.7412996000003,None,357.7412996000003,None,357.7412996000003,None,359.58500756,None,359.58500756,None,359.58500756,None,,,,,,,,,,,223,20,Male,2022-05-24_14h06.00.191,Main,2022.1.1,60.03900133535464,
negative,negative,1,j,l,,,,,,,,,6,1,109,0,,,,,,,,,,,,,,,,,,,,,,,,main,2,2,1,negative,negative,l,l,1,0.9786770999999135,359.6055801000002,360.6258063,360.5837673000001,None,359.6055801000002,None,359.6055801000002,None,359.6055801000002,None,361.56480166000017,None,361.56480166000017,None,361.56480166000017,None,,,,,,,,,,,223,20,Male,2022-05-24_14h06.00.191,Main,2022.1.1,60.03900133535464,
neutral,positive,2,k,k,,,,,,,,,6,2,110,13,,,,,,,,,,,,,,,,,,,,,,,,main,2,2,2,positive,neutral,k,,0,1.116765999999643,361.58734030000005,362.5947908000003,362.57588590000023,None,361.58734030000005,None,361.58734030000005,None,361.58734030000005,None,363.69135529999994,None,363.69135529999994,None,363.69135529999994,None,,,,,,,,,,,223,20,Male,2022-05-24_14h06.00.191,Main,2022.1.1,60.03900133535464,
negative,positive,1,j,l,,,,,,,,,6,3,111,6,,,,,,,,,,,,,,,,,,,,,,,,main,1,1,1,positive,negative,l,l,1,0.9345317000002069,364.71473259999993,365.7192021999999,365.69872280000027,None,364.71473259999993,None,364.71473259999993,None,364.71473259999993,None,366.6265233600001,None,366.6265233600001,None,366.6265233600001,None,,,,,,,,,,,223,20,Male,2022-05-24_14h06.00.191,Main,2022.1.1,60.03900133535464,
negative,neutral,1,j,l,,,,,,,,,6,4,112,3,,,,,,,,,,,,,,,,,,,,,,,,main,1,1,1,neutral,negative,l,l,1,1.2022216999998818,366.6494034000002,367.66032170000017,367.64148479999994,None,366.6494034000002,None,366.6494034000002,None,366.6494034000002,None,368.83479406000004,None,368.83479406000004,None,368.83479406000004,None,,,,,,,,,,,223,20,Male,2022-05-24_14h06.00.191,Main,2022.1.1,60.03900133535464,
neutral,negative,1,k,k,,,,,,,,,6,5,113,7,,,,,,,,,,,,,,,,,,,,,,,,main,2,2,1,negative,neutral,k,k,1,0.824761800000033,368.85720390000006,369.86179040000025,369.8424705000002,None,368.85720390000006,None,368.85720390000006,None,368.85720390000006,None,370.66090986000006,None,370.66090986000006,None,370.66090986000006,None,,,,,,,,,,,223,20,Male,2022-05-24_14h06.00.191,Main,2022.1.1,60.03900133535464,
positive,negative,2,l,j,,,,,,,,,6,6,114,14,,,,,,,,,,,,,,,,,,,,,,,,main,1,1,2,negative,positive,j,j,1,1.113840799999707,370.6825993000002,371.70222749999994,371.66310350000003,None,370.6825993000002,None,370.6825993000002,None,370.6825993000002,None,372.77576596000006,None,372.77576596000006,None,372.77576596000006,None,,,,,,,,,,,223,20,Male,2022-05-24_14h06.00.191,Main,2022.1.1,60.03900133535464,
positive,neutral,1,l,j,,,,,,,,,6,7,115,8,,,,,,,,,,,,,,,,,,,,,,,,main,1,1,1,neutral,positive,j,j,1,0.8442767999999887,372.7975832000002,373.8152862000002,373.77653150000015,None,372.7975832000002,None,372.7975832000002,None,372.7975832000002,None,374.62441086000024,None,374.62441086000024,None,374.62441086000024,None,,,,,,,,,,,223,20,Male,2022-05-24_14h06.00.191,Main,2022.1.1,60.03900133535464,
negative,negative,2,j,l,,,,,,,,,6,8,116,9,,,,,,,,,,,,,,,,,,,,,,,,main,1,1,2,negative,negative,l,l,1,0.8887801999999283,374.6436541000003,375.66295560000026,375.6240994,None,374.6436541000003,None,374.6436541000003,None,374.6436541000003,None,376.5176863600003,None,376.5176863600003,None,376.5176863600003,None,,,,,,,,,,,223,20,Male,2022-05-24_14h06.00.191,Main,2022.1.1,60.03900133535464,
positive,positive,1,l,j,,,,,,,,,6,9,117,2,,,,,,,,,,,,,,,,,,,,,,,,main,1,1,1,positive,positive,j,j,1,0.8955786999999873,376.53927710000016,377.55475449999994,377.51355390000026,None,376.53927710000016,None,376.53927710000016,None,376.53927710000016,None,378.41627166000023,None,378.41627166000023,None,378.41627166000023,None,,,,,,,,,,,223,20,Male,2022-05-24_14h06.00.191,Main,2022.1.1,60.03900133535464,
neutral,neutral,2,k,k,,,,,,,,,6,10,118,10,,,,,,,,,,,,,,,,,,,,,,,,main,2,2,2,neutral,neutral,k,k,1,0.8311036000000058,378.4371844000002,379.4515956,379.41194540000015,None,378.4371844000002,None,378.4371844000002,None,378.4371844000002,None,380.2496646600001,None,380.2496646600001,None,380.2496646600001,None,,,,,,,,,,,223,20,Male,2022-05-24_14h06.00.191,Main,2022.1.1,60.03900133535464,
negative,positive,2,j,l,,,,,,,,,6,11,119,15,,,,,,,,,,,,,,,,,,,,,,,,main,1,1,2,positive,negative,l,l,1,0.7441734999997607,380.26927990000013,381.2747661000003,381.2557465,None,380.26927990000013,None,380.26927990000013,None,380.26927990000013,None,381.9932428599999,None,381.9932428599999,None,381.9932428599999,None,,,,,,,,,,,223,20,Male,2022-05-24_14h06.00.191,Main,2022.1.1,60.03900133535464,
neutral,negative,2,k,k,,,,,,,,,6,12,120,16,,,,,,,,,,,,,,,,,,,,,,,,main,1,1,2,negative,neutral,k,k,1,0.7429658999999447,382.0146838999999,383.02709330000016,383.0083322999999,None,382.0146838999999,None,382.0146838999999,None,382.0146838999999,None,383.73864586000025,None,383.73864586000025,None,383.73864586000025,None,,,,,,,,,,,223,20,Male,2022-05-24_14h06.00.191,Main,2022.1.1,60.03900133535464,
positive,neutral,2,l,j,,,,,,,,,6,13,121,17,,,,,,,,,,,,,,,,,,,,,,,,main,1,1,2,neutral,positive,j,l,0,0.8421376999999666,383.7591802000002,384.76807610000014,384.74752560000024,None,383.7591802000002,None,383.7591802000002,None,383.7591802000002,None,385.59355600000026,None,385.59355600000026,None,385.59355600000026,None,,,,,,,,,,,223,20,Male,2022-05-24_14h06.00.191,Main,2022.1.1,60.03900133535464,
neutral,positive,1,k,k,,,,,,,,,6,14,122,4,,,,,,,,,,,,,,,,,,,,,,,,main,2,2,1,positive,neutral,k,k,1,0.8661111999999775,386.6124398000002,387.63388570000006,387.5941133000001,None,386.6124398000002,None,386.6124398000002,None,386.6124398000002,None,388.4563930600001,None,388.4563930600001,None,388.4563930600001,None,,,,,,,,,,,223,20,Male,2022-05-24_14h06.00.191,Main,2022.1.1,60.03900133535464,
positive,negative,1,l,j,,,,,,,,,6,15,123,5,,,,,,,,,,,,,,,,,,,,,,,,main,2,2,1,negative,positive,j,j,1,0.8565725999997085,388.48173829999996,389.50130420000005,389.4601624000002,None,388.48173829999996,None,388.48173829999996,None,388.48173829999996,None,390.31920676000016,None,390.31920676000016,None,390.31920676000016,None,,,,,,,,,,,223,20,Male,2022-05-24_14h06.00.191,Main,2022.1.1,60.03900133535464,
negative,neutral,2,j,l,,,,,,,,,6,16,124,12,,,,,,,,,,,,,,,,,,,,,,,,main,1,1,2,neutral,negative,l,l,1,0.8048451999998179,390.3389513000002,391.3554873000003,391.3159685999999,None,390.3389513000002,None,390.3389513000002,None,390.3389513000002,None,392.1287295599999,None,392.1287295599999,None,392.1287295599999,None,,,,,,,,,,,223,20,Male,2022-05-24_14h06.00.191,Main,2022.1.1,60.03900133535464,
positive,positive,2,l,j,,,,,,,,,6,17,125,11,,,,,,,,,,,,,,,,,,,,,,,,main,2,2,2,positive,positive,j,j,1,0.782705199999782,392.1509153000002,393.15474429999995,393.13422519999995,None,392.1509153000002,None,392.1509153000002,None,392.1509153000002,None,393.9138815600003,None,393.9138815600003,None,393.9138815600003,None,,,,,,,,,,,223,20,Male,2022-05-24_14h06.00.191,Main,2022.1.1,60.03900133535464,
neutral,neutral,2,k,k,,,,,,,,,7,0,126,10,,,,,,,,,,,,,,,,,,,,,,,,main,2,2,2,neutral,neutral,k,k,1,0.7611249000001408,393.93598410000004,394.9530963000002,394.9122929,None,393.93598410000004,None,393.93598410000004,None,393.93598410000004,None,395.6764540600001,None,395.6764540600001,None,395.6764540600001,None,,,,,,,,,,,223,20,Male,2022-05-24_14h06.00.191,Main,2022.1.1,60.03900133535464,
negative,negative,1,j,l,,,,,,,,,7,1,127,0,,,,,,,,,,,,,,,,,,,,,,,,main,1,1,1,negative,negative,l,l,1,0.7644591999996919,395.6966848000002,396.7095104,396.6713300000001,None,395.6966848000002,None,395.6966848000002,None,395.6966848000002,None,397.4458458600001,None,397.4458458600001,None,397.4458458600001,None,,,,,,,,,,,223,20,Male,2022-05-24_14h06.00.191,Main,2022.1.1,60.03900133535464,
negative,positive,1,j,l,,,,,,,,,7,2,128,6,,,,,,,,,,,,,,,,,,,,,,,,main,2,2,1,positive,negative,l,j,0,0.9428587000002153,397.46912550000025,398.4860759000003,398.44505630000003,None,397.46912550000025,None,397.46912550000025,None,397.46912550000025,None,399.39465310000014,None,399.39465310000014,None,399.39465310000014,None,,,,,,,,,,,223,20,Male,2022-05-24_14h06.00.191,Main,2022.1.1,60.03900133535464,
negative,negative,2,j,l,,,,,,,,,7,3,129,9,,,,,,,,,,,,,,,,,,,,,,,,main,2,2,2,negative,negative,l,l,1,0.7364270999996734,400.4116032000002,401.4273045,401.38909820000026,None,400.4116032000002,None,400.4116032000002,None,400.4116032000002,None,402.1258953600003,None,402.1258953600003,None,402.1258953600003,None,,,,,,,,,,,223,20,Male,2022-05-24_14h06.00.191,Main,2022.1.1,60.03900133535464,
positive,positive,1,l,j,,,,,,,,,7,4,130,2,,,,,,,,,,,,,,,,,,,,,,,,main,1,1,1,positive,positive,j,j,1,1.3472859000003155,402.14591199999995,403.16816370000015,403.1266061000001,None,402.14591199999995,None,402.14591199999995,None,402.14591199999995,None,404.4783716599999,None,404.4783716599999,None,404.4783716599999,None,,,,,,,,,,,223,20,Male,2022-05-24_14h06.00.191,Main,2022.1.1,60.03900133535464,
neutral,negative,1,k,k,,,,,,,,,7,5,131,7,,,,,,,,,,,,,,,,,,,,,,,,main,2,2,1,negative,neutral,k,k,1,0.6337501000002703,404.50138990000005,405.5118127999999,405.4726982000002,None,404.50138990000005,None,404.50138990000005,None,404.50138990000005,None,406.11411325999995,None,406.11411325999995,None,406.11411325999995,None,,,,,,,,,,,223,20,Male,2022-05-24_14h06.00.191,Main,2022.1.1,60.03900133535464,
negative,neutral,1,j,l,,,,,,,,,7,6,132,3,,,,,,,,,,,,,,,,,,,,,,,,main,2,2,1,neutral,negative,l,l,1,0.726913599999989,406.1352409000001,407.1431027000003,407.12231539999993,None,406.1352409000001,None,406.1352409000001,None,406.1352409000001,None,407.84367985999995,None,407.84367985999995,None,407.84367985999995,None,,,,,,,,,,,223,20,Male,2022-05-24_14h06.00.191,Main,2022.1.1,60.03900133535464,
neutral,positive,1,k,k,,,,,,,,,7,7,133,4,,,,,,,,,,,,,,,,,,,,,,,,main,2,2,1,positive,neutral,k,k,1,0.725986599999942,407.86397020000004,408.88631540000006,408.8439854000003,None,407.86397020000004,None,407.86397020000004,None,407.86397020000004,None,409.5687896600001,None,409.5687896600001,None,409.5687896600001,None,,,,,,,,,,,223,20,Male,2022-05-24_14h06.00.191,Main,2022.1.1,60.03900133535464,
neutral,positive,2,k,k,,,,,,,,,7,8,134,13,,,,,,,,,,,,,,,,,,,,,,,,main,1,1,2,positive,neutral,k,k,1,0.9580914000002849,409.59049760000016,410.60886130000017,410.5702481000003,None,409.59049760000016,None,409.59049760000016,None,409.59049760000016,None,411.53231085999994,None,411.53231085999994,None,411.53231085999994,None,,,,,,,,,,,223,20,Male,2022-05-24_14h06.00.191,Main,2022.1.1,60.03900133535464,
positive,negative,1,l,j,,,,,,,,,7,9,135,5,,,,,,,,,,,,,,,,,,,,,,,,main,2,2,1,negative,positive,j,j,1,1.0763050999998995,411.5549443,412.5585271,412.5394305,None,411.5549443,None,411.5549443,None,411.5549443,None,413.61392046000026,None,413.61392046000026,None,413.61392046000026,None,,,,,,,,,,,223,20,Male,2022-05-24_14h06.00.191,Main,2022.1.1,60.03900133535464,
positive,positive,2,l,j,,,,,,,,,7,10,136,11,,,,,,,,,,,,,,,,,,,,,,,,main,1,1,2,positive,positive,j,j,1,1.0720898999998099,413.63450349999994,414.6464500000002,414.6260136000001,None,413.63450349999994,None,413.63450349999994,None,413.63450349999994,None,415.68630285999996,None,415.68630285999996,None,415.68630285999996,None,,,,,,,,,,,223,20,Male,2022-05-24_14h06.00.191,Main,2022.1.1,60.03900133535464,
positive,neutral,2,l,j,,,,,,,,,7,11,137,17,,,,,,,,,,,,,,,,,,,,,,,,main,2,2,2,neutral,positive,j,j,1,0.6541889999998602,415.7082826000001,416.7225504000003,416.68490569999994,None,415.7082826000001,None,415.7082826000001,None,415.7082826000001,None,417.3466484600002,None,417.3466484600002,None,417.3466484600002,None,,,,,,,,,,,223,20,Male,2022-05-24_14h06.00.191,Main,2022.1.1,60.03900133535464,
neutral,negative,2,k,k,,,,,,,,,7,12,138,16,,,,,,,,,,,,,,,,,,,,,,,,main,2,2,2,negative,neutral,k,k,1,0.7227194000001873,417.36746660000017,418.3719449,418.35268240000005,None,417.36746660000017,None,417.36746660000017,None,417.36746660000017,None,419.06986726,None,419.06986726,None,419.06986726,None,,,,,,,,,,,223,20,Male,2022-05-24_14h06.00.191,Main,2022.1.1,60.03900133535464,
negative,positive,2,j,l,,,,,,,,,7,13,139,15,,,,,,,,,,,,,,,,,,,,,,,,main,2,2,2,positive,negative,l,l,1,0.8570293000002493,419.09455690000004,420.1146166000003,420.07263869999997,None,419.09455690000004,None,419.09455690000004,None,419.09455690000004,None,420.93163616000027,None,420.93163616000027,None,420.93163616000027,None,,,,,,,,,,,223,20,Male,2022-05-24_14h06.00.191,Main,2022.1.1,60.03900133535464,
positive,neutral,1,l,j,,,,,,,,,7,14,140,8,,,,,,,,,,,,,,,,,,,,,,,,main,2,2,1,neutral,positive,j,j,1,0.9070270999995955,420.9525146000001,421.96924149999995,421.9292141000001,None,420.9525146000001,None,420.9525146000001,None,420.9525146000001,None,422.8436479599999,None,422.8436479599999,None,422.8436479599999,None,,,,,,,,,,,223,20,Male,2022-05-24_14h06.00.191,Main,2022.1.1,60.03900133535464,
positive,negative,2,l,j,,,,,,,,,7,15,141,14,,,,,,,,,,,,,,,,,,,,,,,,main,2,2,2,negative,positive,j,j,1,0.8653842999997323,422.8628475999999,423.8750256000003,423.85566199999994,None,422.8628475999999,None,422.8628475999999,None,422.8628475999999,None,424.7106379600003,None,424.7106379600003,None,424.7106379600003,None,,,,,,,,,,,223,20,Male,2022-05-24_14h06.00.191,Main,2022.1.1,60.03900133535464,
negative,neutral,2,j,l,,,,,,,,,7,16,142,12,,,,,,,,,,,,,,,,,,,,,,,,main,1,1,2,neutral,negative,l,l,1,0.8602675999995881,424.7313872,425.73838320000004,425.71929709999995,None,424.7313872,None,424.7313872,None,424.7313872,None,426.5710890600002,None,426.5710890600002,None,426.5710890600002,None,,,,,,,,,,,223,20,Male,2022-05-24_14h06.00.191,Main,2022.1.1,60.03900133535464,
neutral,neutral,1,k,k,,,,,,,,,7,17,143,1,,,,,,,,,,,,,,,,,,,,,,,,main,1,1,1,neutral,neutral,k,k,1,0.7552456999997048,426.5916198,427.59844920000023,427.5782899000001,None,426.5916198,None,426.5916198,None,426.5916198,None,428.33117996,None,428.33117996,None,428.33117996,None,,,,,,,,,,,223,20,Male,2022-05-24_14h06.00.191,Main,2022.1.1,60.03900133535464,
positive,positive,2,l,j,,,,,,,,,8,0,144,11,,,,,,,,,,,,,,,,,,,,,,,,main,1,1,2,positive,positive,j,j,1,0.8040462000003572,428.35423549999996,429.3746395000003,429.33579720000034,None,428.35423549999996,None,428.35423549999996,None,428.35423549999996,None,430.14019885999994,None,430.14019885999994,None,430.14019885999994,None,,,,,,,,,,,223,20,Male,2022-05-24_14h06.00.191,Main,2022.1.1,60.03900133535464,
negative,neutral,2,j,l,,,,,,,,,8,1,145,12,,,,,,,,,,,,,,,,,,,,,,,,main,2,2,2,neutral,negative,l,l,1,1.080210999999963,430.1606618999999,431.17484650000006,431.134466,None,430.1606618999999,None,430.1606618999999,None,430.1606618999999,None,432.2230666600002,None,432.2230666600002,None,432.2230666600002,None,,,,,,,,,,,223,20,Male,2022-05-24_14h06.00.191,Main,2022.1.1,60.03900133535464,
neutral,positive,1,k,k,,,,,,,,,8,2,146,4,,,,,,,,,,,,,,,,,,,,,,,,main,2,2,1,positive,neutral,k,k,1,1.0257659000003514,432.2431706000002,433.2484695000003,433.22713350000004,None,432.2431706000002,None,432.2431706000002,None,432.2431706000002,None,434.24744006000026,None,434.24744006000026,None,434.24744006000026,None,,,,,,,,,,,223,20,Male,2022-05-24_14h06.00.191,Main,2022.1.1,60.03900133535464,
positive,negative,1,l,j,,,,,,,,,8,3,147,5,,,,,,,,,,,,,,,,,,,,,,,,main,1,1,1,negative,positive,j,j,1,0.8167373999999654,434.26967520000017,435.2850464000003,435.26553680000006,None,434.26967520000017,None,434.26967520000017,None,434.26967520000017,None,436.0680409600003,None,436.0680409600003,None,436.0680409600003,None,,,,,,,,,,,223,20,Male,2022-05-24_14h06.00.191,Main,2022.1.1,60.03900133535464,
negative,neutral,1,j,l,,,,,,,,,8,4,148,3,,,,,,,,,,,,,,,,,,,,,,,,main,2,2,1,neutral,negative,l,l,1,0.8506806000000324,436.08810710000034,437.10052730000007,437.0810369999999,None,436.08810710000034,None,436.08810710000034,None,436.08810710000034,None,437.92114516000026,None,437.92114516000026,None,437.92114516000026,None,,,,,,,,,,,223,20,Male,2022-05-24_14h06.00.191,Main,2022.1.1,60.03900133535464,
neutral,neutral,2,k,k,,,,,,,,,8,5,149,10,,,,,,,,,,,,,,,,,,,,,,,,main,2,2,2,neutral,neutral,k,k,1,1.0956388999998126,437.9437366000002,438.95983520000027,438.91967350000004,None,437.9437366000002,None,437.9437366000002,None,437.9437366000002,None,440.02250016000005,None,440.02250016000005,None,440.02250016000005,None,,,,,,,,,,,223,20,Male,2022-05-24_14h06.00.191,Main,2022.1.1,60.03900133535464,
negative,positive,1,j,l,,,,,,,,,8,6,150,6,,,,,,,,,,,,,,,,,,,,,,,,main,1,1,1,positive,negative,l,l,1,0.8806224999998449,440.0435129000002,441.0645386000001,441.0234118000003,None,440.0435129000002,None,440.0435129000002,None,440.0435129000002,None,441.9048109600002,None,441.9048109600002,None,441.9048109600002,None,,,,,,,,,,,223,20,Male,2022-05-24_14h06.00.191,Main,2022.1.1,60.03900133535464,
negative,positive,2,j,l,,,,,,,,,8,7,151,15,,,,,,,,,,,,,,,,,,,,,,,,main,2,2,2,positive,negative,l,l,1,1.1801250999997137,441.92606539999997,442.94798260000016,442.90568250000024,None,441.92606539999997,None,441.92606539999997,None,441.92606539999997,None,444.0873608599999,None,444.0873608599999,None,444.0873608599999,None,,,,,,,,,,,223,20,Male,2022-05-24_14h06.00.191,Main,2022.1.1,60.03900133535464,
negative,negative,1,j,l,,,,,,,,,8,8,152,0,,,,,,,,,,,,,,,,,,,,,,,,main,2,2,1,negative,negative,l,l,1,1.0444214999997712,444.11317720000034,445.13446280000016,445.0937435999999,None,444.11317720000034,None,444.11317720000034,None,444.11317720000034,None,446.13204066000014,None,446.13204066000014,None,446.13204066000014,None,,,,,,,,,,,223,20,Male,2022-05-24_14h06.00.191,Main,2022.1.1,60.03900133535464,
neutral,neutral,1,k,k,,,,,,,,,8,9,153,1,,,,,,,,,,,,,,,,,,,,,,,,main,1,1,1,neutral,neutral,k,k,1,0.8846930999998222,446.1535372000003,447.1589713000003,447.13830880000023,None,446.1535372000003,None,446.1535372000003,None,446.1535372000003,None,448.02263216000017,None,448.02263216000017,None,448.02263216000017,None,,,,,,,,,,,223,20,Male,2022-05-24_14h06.00.191,Main,2022.1.1,60.03900133535464,
negative,negative,2,j,l,,,,,,,,,8,10,154,9,,,,,,,,,,,,,,,,,,,,,,,,main,1,1,2,negative,negative,l,l,1,1.115668800000094,448.0418927999999,449.0593742000001,449.01838399999997,None,448.0418927999999,None,448.0418927999999,None,448.0418927999999,None,450.14012316000014,None,450.14012316000014,None,450.14012316000014,None,,,,,,,,,,,223,20,Male,2022-05-24_14h06.00.191,Main,2022.1.1,60.03900133535464,
positive,neutral,1,l,j,,,,,,,,,8,11,155,8,,,,,,,,,,,,,,,,,,,,,,,,main,1,1,1,neutral,positive,j,j,1,0.9968420000000151,450.15963580000016,451.16640800000005,451.14739069999996,None,450.15963580000016,None,450.15963580000016,None,450.15963580000016,None,452.13962426000023,None,452.13962426000023,None,452.13962426000023,None,,,,,,,,,,,223,20,Male,2022-05-24_14h06.00.191,Main,2022.1.1,60.03900133535464,
neutral,positive,2,k,k,,,,,,,,,8,12,156,13,,,,,,,,,,,,,,,,,,,,,,,,main,2,2,2,positive,neutral,k,k,1,0.8156880999999885,452.1595166000002,453.18064559999993,453.13878410000007,None,452.1595166000002,None,452.1595166000002,None,452.1595166000002,None,453.9578510600003,None,453.9578510600003,None,453.9578510600003,None,,,,,,,,,,,223,20,Male,2022-05-24_14h06.00.191,Main,2022.1.1,60.03900133535464,
positive,neutral,2,l,j,,,,,,,,,8,13,157,17,,,,,,,,,,,,,,,,,,,,,,,,main,2,2,2,neutral,positive,j,l,0,0.8486280000001898,453.97802090000005,454.9838353,454.96466260000034,None,453.97802090000005,None,453.97802090000005,None,453.97802090000005,None,455.8153110000003,None,455.8153110000003,None,455.8153110000003,None,,,,,,,,,,,223,20,Male,2022-05-24_14h06.00.191,Main,2022.1.1,60.03900133535464,
neutral,negative,2,k,k,,,,,,,,,8,14,158,16,,,,,,,,,,,,,,,,,,,,,,,,main,2,2,2,negative,neutral,k,k,1,0.7815863000000718,456.83594170000015,457.85343409999996,457.8158738000002,None,456.83594170000015,None,456.83594170000015,None,456.83594170000015,None,458.59704936000014,None,458.59704936000014,None,458.59704936000014,None,,,,,,,,,,,223,20,Male,2022-05-24_14h06.00.191,Main,2022.1.1,60.03900133535464,
positive,negative,2,l,j,,,,,,,,,8,15,159,14,,,,,,,,,,,,,,,,,,,,,,,,main,2,2,2,negative,positive,j,j,1,0.7826712999999472,458.61792430000014,459.62398810000013,459.6035160000001,None,458.61792430000014,None,458.61792430000014,None,458.61792430000014,None,460.38145396000016,None,460.38145396000016,None,460.38145396000016,None,,,,,,,,,,,223,20,Male,2022-05-24_14h06.00.191,Main,2022.1.1,60.03900133535464,
positive,positive,1,l,j,,,,,,,,,8,16,160,2,,,,,,,,,,,,,,,,,,,,,,,,main,2,2,1,positive,positive,j,j,1,0.811313500000324,460.4031986,461.4141045000001,461.3947006000003,None,460.4031986,None,460.4031986,None,460.4031986,None,462.19518766,None,462.19518766,None,462.19518766,None,,,,,,,,,,,223,20,Male,2022-05-24_14h06.00.191,Main,2022.1.1,60.03900133535464,
neutral,negative,1,k,k,,,,,,,,,8,17,161,7,,,,,,,,,,,,,,,,,,,,,,,,main,1,1,1,negative,neutral,k,k,1,0.655689700000039,462.21611090000033,463.23579610000024,463.1973757999999,None,462.21611090000033,None,462.21611090000033,None,462.21611090000033,None,463.8563426600002,None,463.8563426600002,None,463.8563426600002,None,,,,,,,,,,,223,20,Male,2022-05-24_14h06.00.191,Main,2022.1.1,60.03900133535464,
negative,neutral,1,j,l,,,,,,,,,9,0,162,3,,,,,,,,,,,,,,,,,,,,,,,,main,2,2,1,neutral,negative,l,l,1,0.9316190999998071,463.8767505999999,464.89339450000034,464.8525890000001,None,463.8767505999999,None,463.8767505999999,None,463.8767505999999,None,465.79077915999994,None,465.79077915999994,None,465.79077915999994,None,,,,,,,,,,,223,20,Male,2022-05-24_14h06.00.191,Main,2022.1.1,60.03900133535464,
positive,neutral,2,l,j,,,,,,,,,9,1,163,17,,,,,,,,,,,,,,,,,,,,,,,,main,2,2,2,neutral,positive,j,j,1,1.1761639999999716,465.8104946000003,466.8267108,466.7845897000002,None,465.8104946000003,None,465.8104946000003,None,465.8104946000003,None,467.96917856000016,None,467.96917856000016,None,467.96917856000016,None,,,,,,,,,,,223,20,Male,2022-05-24_14h06.00.191,Main,2022.1.1,60.03900133535464,
positive,neutral,1,l,j,,,,,,,,,9,2,164,8,,,,,,,,,,,,,,,,,,,,,,,,main,2,2,1,neutral,positive,j,j,1,0.7020919999999933,467.9897549000002,468.9962221999999,468.97691840000016,None,467.9897549000002,None,467.9897549000002,None,467.9897549000002,None,469.67253326000025,None,469.67253326000025,None,469.67253326000025,None,,,,,,,,,,,223,20,Male,2022-05-24_14h06.00.191,Main,2022.1.1,60.03900133535464,
negative,negative,1,j,l,,,,,,,,,9,3,165,0,,,,,,,,,,,,,,,,,,,,,,,,main,1,1,1,negative,negative,l,l,1,1.2514115000003585,469.69368490000033,470.70204520000016,470.6830786999999,None,469.69368490000033,None,469.69368490000033,None,469.69368490000033,None,471.92673776000026,None,471.92673776000026,None,471.92673776000026,None,,,,,,,,,,,223,20,Male,2022-05-24_14h06.00.191,Main,2022.1.1,60.03900133535464,
negative,positive,1,j,l,,,,,,,,,9,4,166,6,,,,,,,,,,,,,,,,,,,,,,,,main,2,2,1,positive,negative,l,l,1,0.8833283999997548,471.9471609000002,472.9558641000003,472.9351423000003,None,471.9471609000002,None,471.9471609000002,None,471.9471609000002,None,473.8122084600003,None,473.8122084600003,None,473.8122084600003,None,,,,,,,,,,,223,20,Male,2022-05-24_14h06.00.191,Main,2022.1.1,60.03900133535464,
positive,positive,1,l,j,,,,,,,,,9,5,167,2,,,,,,,,,,,,,,,,,,,,,,,,main,2,2,1,positive,positive,j,j,1,0.8620037999999113,473.833345,474.8350743000001,474.8166030000002,None,473.833345,None,473.833345,None,473.833345,None,475.6770049600003,None,475.6770049600003,None,475.6770049600003,None,,,,,,,,,,,223,20,Male,2022-05-24_14h06.00.191,Main,2022.1.1,60.03900133535464,
positive,negative,1,l,j,,,,,,,,,9,6,168,5,,,,,,,,,,,,,,,,,,,,,,,,main,2,2,1,negative,positive,j,j,1,1.2295285999998669,475.6976563000003,476.7020574000003,476.68319930000007,None,475.6976563000003,None,475.6976563000003,None,475.6976563000003,None,477.9097262600002,None,477.9097262600002,None,477.9097262600002,None,,,,,,,,,,,223,20,Male,2022-05-24_14h06.00.191,Main,2022.1.1,60.03900133535464,
neutral,neutral,2,k,k,,,,,,,,,9,7,169,10,,,,,,,,,,,,,,,,,,,,,,,,main,2,2,2,neutral,neutral,k,k,1,0.7394639000003735,477.92949080000017,478.93104710000034,478.9120885000002,None,477.92949080000017,None,477.92949080000017,None,477.92949080000017,None,479.65317115999994,None,479.65317115999994,None,479.65317115999994,None,,,,,,,,,,,223,20,Male,2022-05-24_14h06.00.191,Main,2022.1.1,60.03900133535464,
neutral,negative,1,k,k,,,,,,,,,9,8,170,7,,,,,,,,,,,,,,,,,,,,,,,,main,2,2,1,negative,neutral,k,k,1,0.8310427000001255,479.6752567000003,480.69287380000014,480.6516618999999,None,479.6752567000003,None,479.6752567000003,None,479.6752567000003,None,481.4874197600001,None,481.4874197600001,None,481.4874197600001,None,,,,,,,,,,,223,20,Male,2022-05-24_14h06.00.191,Main,2022.1.1,60.03900133535464,
neutral,negative,2,k,k,,,,,,,,,9,9,171,16,,,,,,,,,,,,,,,,,,,,,,,,main,2,2,2,negative,neutral,k,k,1,0.7226300999996056,481.5083960000002,482.5163074000002,482.49655070000017,None,481.5083960000002,None,481.5083960000002,None,481.5083960000002,None,483.20886056000006,None,483.20886056000006,None,483.20886056000006,None,,,,,,,,,,,223,20,Male,2022-05-24_14h06.00.191,Main,2022.1.1,60.03900133535464,
neutral,positive,2,k,k,,,,,,,,,9,10,172,13,,,,,,,,,,,,,,,,,,,,,,,,main,2,2,2,positive,neutral,k,k,1,0.7498315000002549,483.2327694999999,484.24486490000027,484.22595150000006,None,483.2327694999999,None,483.2327694999999,None,483.2327694999999,None,484.9623814600003,None,484.9623814600003,None,484.9623814600003,None,,,,,,,,,,,223,20,Male,2022-05-24_14h06.00.191,Main,2022.1.1,60.03900133535464,
negative,positive,2,j,l,,,,,,,,,9,11,173,15,,,,,,,,,,,,,,,,,,,,,,,,main,2,2,2,positive,negative,l,l,1,1.1991152000000511,484.98467660000006,486.00378450000017,485.9633480000002,None,484.98467660000006,None,484.98467660000006,None,484.98467660000006,None,487.16734476,None,487.16734476,None,487.16734476,None,,,,,,,,,,,223,20,Male,2022-05-24_14h06.00.191,Main,2022.1.1,60.03900133535464,
negative,negative,2,j,l,,,,,,,,,9,12,174,9,,,,,,,,,,,,,,,,,,,,,,,,main,1,1,2,negative,negative,l,l,1,0.7290306999998393,487.1878888000001,488.2080206999999,488.1664587,None,487.1878888000001,None,487.1878888000001,None,487.1878888000001,None,488.90004536000004,None,488.90004536000004,None,488.90004536000004,None,,,,,,,,,,,223,20,Male,2022-05-24_14h06.00.191,Main,2022.1.1,60.03900133535464,
neutral,neutral,1,k,k,,,,,,,,,9,13,175,1,,,,,,,,,,,,,,,,,,,,,,,,main,1,1,1,neutral,neutral,k,k,1,0.7327084000003197,488.9243661999999,489.9387916999999,489.89787920000026,None,488.9243661999999,None,488.9243661999999,None,488.9243661999999,None,490.6355615599999,None,490.6355615599999,None,490.6355615599999,None,,,,,,,,,,,223,20,Male,2022-05-24_14h06.00.191,Main,2022.1.1,60.03900133535464,
neutral,positive,1,k,k,,,,,,,,,9,14,176,4,,,,,,,,,,,,,,,,,,,,,,,,main,2,2,1,positive,neutral,k,k,1,0.8456086000001051,490.6581298000001,491.6631675000003,491.64312880000034,None,490.6581298000001,None,490.6581298000001,None,490.6581298000001,None,492.48210166000024,None,492.48210166000024,None,492.48210166000024,None,,,,,,,,,,,223,20,Male,2022-05-24_14h06.00.191,Main,2022.1.1,60.03900133535464,
negative,neutral,2,j,l,,,,,,,,,9,15,177,12,,,,,,,,,,,,,,,,,,,,,,,,main,2,2,2,neutral,negative,l,l,1,0.7587929999999687,492.50337360000003,493.50615340000013,493.4860865999999,None,492.50337360000003,None,492.50337360000003,None,492.50337360000003,None,494.2419058600002,None,494.2419058600002,None,494.2419058600002,None,,,,,,,,,,,223,20,Male,2022-05-24_14h06.00.191,Main,2022.1.1,60.03900133535464,
positive,negative,2,l,j,,,,,,,,,9,16,178,14,,,,,,,,,,,,,,,,,,,,,,,,main,2,2,2,negative,positive,j,j,1,0.8694844999999987,494.2627282000003,495.2788393999999,495.2412435000001,None,494.2627282000003,None,494.2627282000003,None,494.2627282000003,None,496.1157097600002,None,496.1157097600002,None,496.1157097600002,None,,,,,,,,,,,223,20,Male,2022-05-24_14h06.00.191,Main,2022.1.1,60.03900133535464,
positive,positive,2,l,j,,,,,,,,,9,17,179,11,,,,,,,,,,,,,,,,,,,,,,,,main,1,1,2,positive,positive,j,j,1,0.7265069999998559,496.1366014,497.1448641000002,497.12521670000024,None,496.1366014,None,496.1366014,None,496.1366014,None,497.8428439600001,None,497.8428439600001,None,497.8428439600001,None,,,,,,,,,,,223,20,Male,2022-05-24_14h06.00.191,Main,2022.1.1,60.03900133535464,
neutral,negative,1,k,k,,,,,,,,,10,0,180,7,,,,,,,,,,,,,,,,,,,,,,,,main,2,2,1,negative,neutral,k,k,1,0.8451520000003256,497.86438750000025,498.8692239000002,498.84846719999996,None,497.86438750000025,None,497.86438750000025,None,497.86438750000025,None,499.6904934600001,None,499.6904934600001,None,499.6904934600001,None,,,,,,,,,,,223,20,Male,2022-05-24_14h06.00.191,Main,2022.1.1,60.03900133535464,
positive,negative,2,l,j,,,,,,,,,10,1,181,14,,,,,,,,,,,,,,,,,,,,,,,,main,2,2,2,negative,positive,j,j,1,0.9694016999997075,499.7126766000001,500.72982420000017,500.69215729999996,None,499.7126766000001,None,499.7126766000001,None,499.7126766000001,None,501.66517206000015,None,501.66517206000015,None,501.66517206000015,None,,,,,,,,,,,223,20,Male,2022-05-24_14h06.00.191,Main,2022.1.1,60.03900133535464,
neutral,negative,2,k,k,,,,,,,,,10,2,182,16,,,,,,,,,,,,,,,,,,,,,,,,main,2,2,2,negative,neutral,k,k,1,0.6012897999999041,501.6839635000001,502.6949684000001,502.67569460000004,None,501.6839635000001,None,501.6839635000001,None,501.6839635000001,None,503.2689005599999,None,503.2689005599999,None,503.2689005599999,None,,,,,,,,,,,223,20,Male,2022-05-24_14h06.00.191,Main,2022.1.1,60.03900133535464,
positive,positive,2,l,j,,,,,,,,,10,3,183,11,,,,,,,,,,,,,,,,,,,,,,,,main,2,2,2,positive,positive,j,j,1,0.8122008999998798,503.29019000000017,504.2985521999999,504.2794280000003,None,503.29019000000017,None,503.29019000000017,None,503.29019000000017,None,505.0829781599999,None,505.0829781599999,None,505.0829781599999,None,,,,,,,,,,,223,20,Male,2022-05-24_14h06.00.191,Main,2022.1.1,60.03900133535464,
positive,neutral,1,l,j,,,,,,,,,10,4,184,8,,,,,,,,,,,,,,,,,,,,,,,,main,2,2,1,neutral,positive,j,j,1,1.0234049999999115,505.1061528,506.118426,506.0970921000003,None,505.1061528,None,505.1061528,None,505.1061528,None,507.10656726000013,None,507.10656726000013,None,507.10656726000013,None,,,,,,,,,,,223,20,Male,2022-05-24_14h06.00.191,Main,2022.1.1,60.03900133535464,
positive,positive,1,l,j,,,,,,,,,10,5,185,2,,,,,,,,,,,,,,,,,,,,,,,,main,2,2,1,positive,positive,j,j,1,0.7191391999999723,507.1266622000003,508.1454155000001,508.1070168000001,None,507.1266622000003,None,507.1266622000003,None,507.1266622000003,None,508.8284915600001,None,508.8284915600001,None,508.8284915600001,None,,,,,,,,,,,223,20,Male,2022-05-24_14h06.00.191,Main,2022.1.1,60.03900133535464,
neutral,neutral,2,k,k,,,,,,,,,10,6,186,10,,,,,,,,,,,,,,,,,,,,,,,,main,2,2,2,neutral,neutral,k,k,1,0.7193508000000293,508.8490124,509.8676267999999,509.8269445000001,None,508.8490124,None,508.8490124,None,508.8490124,None,510.55239056000016,None,510.55239056000016,None,510.55239056000016,None,,,,,,,,,,,223,20,Male,2022-05-24_14h06.00.191,Main,2022.1.1,60.03900133535464,
negative,negative,2,j,l,,,,,,,,,10,7,187,9,,,,,,,,,,,,,,,,,,,,,,,,main,1,1,2,negative,negative,l,l,1,1.0606431999999586,510.5739907000002,511.5907196000003,511.5510011000001,None,510.5739907000002,None,510.5739907000002,None,510.5739907000002,None,512.6178105600001,None,512.6178105600001,None,512.6178105600001,None,,,,,,,,,,,223,20,Male,2022-05-24_14h06.00.191,Main,2022.1.1,60.03900133535464,
positive,neutral,2,l,j,,,,,,,,,10,8,188,17,,,,,,,,,,,,,,,,,,,,,,,,main,2,2,2,neutral,positive,j,j,1,0.95723020000014,512.6380277000003,513.6409158000001,513.62156,None,512.6380277000003,None,512.6380277000003,None,512.6380277000003,None,514.57515636,None,514.57515636,None,514.57515636,None,,,,,,,,,,,223,20,Male,2022-05-24_14h06.00.191,Main,2022.1.1,60.03900133535464,
neutral,neutral,1,k,k,,,,,,,,,10,9,189,1,,,,,,,,,,,,,,,,,,,,,,,,main,2,2,1,neutral,neutral,k,k,1,0.7929577999998401,514.5950774000003,515.6100395000003,515.5713435000002,None,514.5950774000003,None,514.5950774000003,None,514.5950774000003,None,516.3715068600003,None,516.3715068600003,None,516.3715068600003,None,,,,,,,,,,,223,20,Male,2022-05-24_14h06.00.191,Main,2022.1.1,60.03900133535464,
negative,neutral,2,j,l,,,,,,,,,10,10,190,12,,,,,,,,,,,,,,,,,,,,,,,,main,2,2,2,neutral,negative,l,j,0,1.0277132999999594,516.3933912000002,517.4055671000001,517.3833807000001,None,516.3933912000002,None,516.3933912000002,None,516.3933912000002,None,518.4090160999999,None,518.4090160999999,None,518.4090160999999,None,,,,,,,,,,,223,20,Male,2022-05-24_14h06.00.191,Main,2022.1.1,60.03900133535464,
negative,positive,2,j,l,,,,,,,,,10,11,191,15,,,,,,,,,,,,,,,,,,,,,,,,main,2,2,2,positive,negative,l,l,1,1.01765370000021,519.4304423000003,520.4453828000001,520.4074952000001,None,519.4304423000003,None,519.4304423000003,None,519.4304423000003,None,521.4247082599999,None,521.4247082599999,None,521.4247082599999,None,,,,,,,,,,,223,20,Male,2022-05-24_14h06.00.191,Main,2022.1.1,60.03900133535464,
negative,neutral,1,j,l,,,,,,,,,10,12,192,3,,,,,,,,,,,,,,,,,,,,,,,,main,2,2,1,neutral,negative,l,l,1,1.2676991000003,521.4450728000002,522.4592292000002,522.4215265000003,None,521.4450728000002,None,521.4450728000002,None,521.4450728000002,None,523.6983404599999,None,523.6983404599999,None,523.6983404599999,None,,,,,,,,,,,223,20,Male,2022-05-24_14h06.00.191,Main,2022.1.1,60.03900133535464,
neutral,positive,2,k,k,,,,,,,,,10,13,193,13,,,,,,,,,,,,,,,,,,,,,,,,main,2,2,2,positive,neutral,k,k,1,0.8051551999997173,523.7194045000001,524.7252438999999,524.7055662000002,None,523.7194045000001,None,523.7194045000001,None,523.7194045000001,None,525.5027602600002,None,525.5027602600002,None,525.5027602600002,None,,,,,,,,,,,223,20,Male,2022-05-24_14h06.00.191,Main,2022.1.1,60.03900133535464,
positive,negative,1,l,j,,,,,,,,,10,14,194,5,,,,,,,,,,,,,,,,,,,,,,,,main,1,1,1,negative,positive,j,j,1,0.8148498999998992,525.5231814000003,526.5428049000002,526.5037761000003,None,525.5231814000003,None,525.5231814000003,None,525.5231814000003,None,527.3211895600001,None,527.3211895600001,None,527.3211895600001,None,,,,,,,,,,,223,20,Male,2022-05-24_14h06.00.191,Main,2022.1.1,60.03900133535464,
neutral,positive,1,k,k,,,,,,,,,10,15,195,4,,,,,,,,,,,,,,,,,,,,,,,,main,1,1,1,positive,neutral,k,k,1,0.7143559999999525,527.3437017000001,528.3609653000003,528.3229461000001,None,527.3437017000001,None,527.3437017000001,None,527.3437017000001,None,529.0366459599999,None,529.0366459599999,None,529.0366459599999,None,,,,,,,,,,,223,20,Male,2022-05-24_14h06.00.191,Main,2022.1.1,60.03900133535464,
negative,negative,1,j,l,,,,,,,,,10,16,196,0,,,,,,,,,,,,,,,,,,,,,,,,main,2,2,1,negative,negative,l,l,1,0.8070160000002033,529.0575212000003,530.0705493999999,530.0504082000002,None,529.0575212000003,None,529.0575212000003,None,529.0575212000003,None,530.8495374600001,None,530.8495374600001,None,530.8495374600001,None,,,,,,,,,,,223,20,Male,2022-05-24_14h06.00.191,Main,2022.1.1,60.03900133535464,
negative,positive,1,j,l,,,,,,,,,10,17,197,6,,,,,,,,,,,,,,,,,,,,,,,,main,1,1,1,positive,negative,l,l,1,0.6879146999999648,530.8715047000001,531.8852340000003,531.8642957000002,None,530.8715047000001,None,530.8715047000001,None,530.8715047000001,None,532.54326166,None,532.54326166,None,532.54326166,None,,,,,,,,,,,223,20,Male,2022-05-24_14h06.00.191,Main,2022.1.1,60.03900133535464,
positive,negative,2,l,j,,,,,,,,,11,0,198,14,,,,,,,,,,,,,,,,,,,,,,,,main,2,2,2,negative,positive,j,j,1,0.8648935000001075,532.5636232000002,533.5779118,533.5393011000001,None,532.5636232000002,None,532.5636232000002,None,532.5636232000002,None,534.41072406,None,534.41072406,None,534.41072406,None,,,,,,,,,,,223,20,Male,2022-05-24_14h06.00.191,Main,2022.1.1,60.03900133535464,
positive,neutral,2,l,j,,,,,,,,,11,1,199,17,,,,,,,,,,,,,,,,,,,,,,,,main,1,1,2,neutral,positive,j,j,1,0.7004359999996268,534.4310848,535.4344024000002,535.4138375000002,None,534.4310848,None,534.4310848,None,534.4310848,None,536.1134390599999,None,536.1134390599999,None,536.1134390599999,None,,,,,,,,,,,223,20,Male,2022-05-24_14h06.00.191,Main,2022.1.1,60.03900133535464,
negative,neutral,1,j,l,,,,,,,,,11,2,200,3,,,,,,,,,,,,,,,,,,,,,,,,main,1,1,1,neutral,negative,l,l,1,0.8932183000001714,536.1345538999999,537.139416,537.1208386000003,None,536.1345538999999,None,536.1345538999999,None,536.1345538999999,None,538.00629496,None,538.00629496,None,538.00629496,None,,,,,,,,,,,223,20,Male,2022-05-24_14h06.00.191,Main,2022.1.1,60.03900133535464,
negative,positive,1,j,l,,,,,,,,,11,3,201,6,,,,,,,,,,,,,,,,,,,,,,,,main,1,1,1,positive,negative,l,l,1,1.3102202999998553,538.0322176,539.0468107000002,539.0062776,None,538.0322176,None,538.0322176,None,538.0322176,None,540.3196487600002,None,540.3196487600002,None,540.3196487600002,None,,,,,,,,,,,223,20,Male,2022-05-24_14h06.00.191,Main,2022.1.1,60.03900133535464,
negative,negative,1,j,l,,,,,,,,,11,4,202,0,,,,,,,,,,,,,,,,,,,,,,,,main,1,1,1,negative,negative,l,l,1,0.7024831999997332,540.3407039000003,541.3574619000001,541.3189071000002,None,540.3407039000003,None,540.3407039000003,None,540.3407039000003,None,542.0236958600002,None,542.0236958600002,None,542.0236958600002,None,,,,,,,,,,,223,20,Male,2022-05-24_14h06.00.191,Main,2022.1.1,60.03900133535464,
neutral,positive,1,k,k,,,,,,,,,11,5,203,4,,,,,,,,,,,,,,,,,,,,,,,,main,2,2,1,positive,neutral,k,k,1,0.8333204000000478,542.0445818000003,543.0480317000001,543.0269788999999,None,542.0445818000003,None,542.0445818000003,None,542.0445818000003,None,543.8625565599999,None,543.8625565599999,None,543.8625565599999,None,,,,,,,,,,,223,20,Male,2022-05-24_14h06.00.191,Main,2022.1.1,60.03900133535464,
positive,neutral,1,l,j,,,,,,,,,11,6,204,8,,,,,,,,,,,,,,,,,,,,,,,,main,1,1,1,neutral,positive,j,l,0,0.9393408999999338,543.8824784000003,544.8872323,544.8677029,None,543.8824784000003,None,543.8824784000003,None,543.8824784000003,None,545.8076625000003,None,545.8076625000003,None,545.8076625000003,None,,,,,,,,,,,223,20,Male,2022-05-24_14h06.00.191,Main,2022.1.1,60.03900133535464,
neutral,negative,1,k,k,,,,,,,,,11,7,205,7,,,,,,,,,,,,,,,,,,,,,,,,main,1,1,1,negative,neutral,k,k,1,0.8884046999996826,546.8245114000001,547.8369157000002,547.8182331000003,None,546.8245114000001,None,546.8245114000001,None,546.8245114000001,None,548.6947749600002,None,548.6947749600002,None,548.6947749600002,None,,,,,,,,,,,223,20,Male,2022-05-24_14h06.00.191,Main,2022.1.1,60.03900133535464,
positive,negative,1,l,j,,,,,,,,,11,8,206,5,,,,,,,,,,,,,,,,,,,,,,,,main,2,2,1,negative,positive,j,j,1,0.9489517000001797,548.7151993000002,549.7245848000002,549.7051142,None,548.7151993000002,None,548.7151993000002,None,548.7151993000002,None,550.64609616,None,550.64609616,None,550.64609616,None,,,,,,,,,,,223,20,Male,2022-05-24_14h06.00.191,Main,2022.1.1,60.03900133535464,
negative,positive,2,j,l,,,,,,,,,11,9,207,15,,,,,,,,,,,,,,,,,,,,,,,,main,2,2,2,positive,negative,l,l,1,0.975844799999777,550.6669125000003,551.6834293000002,551.6410884000002,None,550.6669125000003,None,550.6669125000003,None,550.6669125000003,None,552.6257299600001,None,552.6257299600001,None,552.6257299600001,None,,,,,,,,,,,223,20,Male,2022-05-24_14h06.00.191,Main,2022.1.1,60.03900133535464,
negative,negative,2,j,l,,,,,,,,,11,10,208,9,,,,,,,,,,,,,,,,,,,,,,,,main,1,1,2,negative,negative,l,l,1,0.9707025999996404,552.6461964,553.6663798,553.6460479000002,None,552.6461964,None,552.6461964,None,552.6461964,None,554.5983783600003,None,554.5983783600003,None,554.5983783600003,None,,,,,,,,,,,223,20,Male,2022-05-24_14h06.00.191,Main,2022.1.1,60.03900133535464,
neutral,positive,2,k,k,,,,,,,,,11,11,209,13,,,,,,,,,,,,,,,,,,,,,,,,main,2,2,2,positive,neutral,k,k,1,0.9046884999997928,554.6211395,555.6240938999999,555.6049002,None,554.6211395,None,554.6211395,None,554.6211395,None,556.5072211600003,None,556.5072211600003,None,556.5072211600003,None,,,,,,,,,,,223,20,Male,2022-05-24_14h06.00.191,Main,2022.1.1,60.03900133535464,
negative,neutral,2,j,l,,,,,,,,,11,12,210,12,,,,,,,,,,,,,,,,,,,,,,,,main,2,2,2,neutral,negative,l,l,1,0.8169846999999208,556.5273308000001,557.5508738000003,557.5094259000002,None,556.5273308000001,None,556.5273308000001,None,556.5273308000001,None,558.32742206,None,558.32742206,None,558.32742206,None,,,,,,,,,,,223,20,Male,2022-05-24_14h06.00.191,Main,2022.1.1,60.03900133535464,
neutral,neutral,1,k,k,,,,,,,,,11,13,211,1,,,,,,,,,,,,,,,,,,,,,,,,main,1,1,1,neutral,neutral,k,k,1,0.8220845999999256,558.3471855000003,559.3524966,559.3329653000001,None,558.3471855000003,None,558.3471855000003,None,558.3471855000003,None,560.1494824600003,None,560.1494824600003,None,560.1494824600003,None,,,,,,,,,,,223,20,Male,2022-05-24_14h06.00.191,Main,2022.1.1,60.03900133535464,
neutral,neutral,2,k,k,,,,,,,,,11,14,212,10,,,,,,,,,,,,,,,,,,,,,,,,main,2,2,2,neutral,neutral,k,k,1,0.9904556999999841,560.1715595999999,561.1846589000002,561.1656318,None,560.1715595999999,None,560.1715595999999,None,560.1715595999999,None,562.1437436600003,None,562.1437436600003,None,562.1437436600003,None,,,,,,,,,,,223,20,Male,2022-05-24_14h06.00.191,Main,2022.1.1,60.03900133535464,
