target,distractor,set,ans1,ans2,rep_loop2.thisRepN,rep_loop2.thisTrialN,rep_loop2.thisN,rep_loop2.thisIndex,flanker_prac_loop.thisRepN,flanker_prac_loop.thisTrialN,flanker_prac_loop.thisN,flanker_prac_loop.thisIndex,flanker_main_loop.thisRepN,flanker_main_loop.thisTrialN,flanker_main_loop.thisN,flanker_main_loop.thisIndex,fl_inst_resp.keys,mouse.x,mouse.y,mouse.leftButton,mouse.midButton,mouse.rightButton,mouse.started,mouse.stopped,sound_1.started,sound_1.stopped,no_text.started,no_text.stopped,yes_text.started,yes_text.stopped,mouse_2.x,mouse_2.y,mouse_2.leftButton,mouse_2.midButton,mouse_2.rightButton,mouse_2.started,mouse_2.stopped,back_2.started,back_2.stopped,main_prac,fl_cold,fl_colt,fl_set,fl_dcond,fl_tcond,fl_ans,fl_res,fl_corr,fl_rt,fix_fl.started,fix_fl.stopped,targ.started,targ.stopped,j_button.started,j_button.stopped,k_button.started,k_button.stopped,l_button.started,l_button.stopped,j_button2.started,j_button2.stopped,k_button2.started,k_button2.stopped,l_button2.started,l_button2.stopped,mainback.started,mainback.stopped,key_resp.keys,mouse_6.x,mouse_6.y,mouse_6.leftButton,mouse_6.midButton,mouse_6.rightButton,mouse_6.started,mouse_6.stopped,id*,age*,gender*,date,expName,psychopyVersion,frameRate,
,,,,,0,0,0,0,,,,,,,,,None,0.21018519,0.14074074,0,0,0,1.0102219900099954,None,20.341039529999943,None,43.2739689,None,43.2739689,None,-0.10462963,-0.125,0,0,0,0.012831329999698937,None,,,,,,,,,,,,,,,,,,,,,,,,,,,,,,,,,,,,,,,224,24,Male,2022-05-25_11h13.16.531,Main,2022.1.1,60.053026822666595,
neutral,neutral,2,k,k,,,,,0,0,0,10,,,,,,,,,,,,,,,,,,,,,,,,,,46.17121189999989,None,prac,2,2,2,neutral,neutral,k,k,1,1.3667037000000164,48.22556540000005,49.23372969999991,49.19474420000006,None,48.22556540000005,None,48.22556540000005,None,48.22556540000005,None,50.55706312999992,None,50.55706312999992,None,50.55706312999992,None,,,,,,,,,,,224,24,Male,2022-05-25_11h13.16.531,Main,2022.1.1,60.053026822666595,
negative,positive,2,j,l,,,,,0,1,1,15,,,,,,,,,,,,,,,,,,,,,,,,,,,,prac,1,1,2,positive,negative,j,j,1,0.9654579000002741,50.60484989999986,51.61783659999992,51.57936770000015,None,50.60484989999986,None,50.60484989999986,None,50.60484989999986,None,52.52589163000012,None,52.52589163000012,None,52.52589163000012,None,,,,,,,,,,,224,24,Male,2022-05-25_11h13.16.531,Main,2022.1.1,60.053026822666595,
positive,positive,1,l,j,,,,,0,2,2,2,,,,,,,,,,,,,,,,,,,,,,,,,,,,prac,2,2,1,positive,positive,l,l,1,0.838220900000124,52.5644169000002,53.571880299999975,53.55305950000002,None,52.5644169000002,None,52.5644169000002,None,52.5644169000002,None,54.3656542300002,None,54.3656542300002,None,54.3656542300002,None,,,,,,,,,,,224,24,Male,2022-05-25_11h13.16.531,Main,2022.1.1,60.053026822666595,
neutral,positive,1,k,k,,,,,0,3,3,4,,,,,,,,,,,,,,,,,,,,,,,,,,,,prac,1,1,1,positive,neutral,k,k,1,0.7092367000000195,54.41406139999981,55.42471280000018,55.386199099999885,None,54.41406139999981,None,54.41406139999981,None,54.41406139999981,None,56.077594630000206,None,56.077594630000206,None,56.077594630000206,None,,,,,,,,,,,224,24,Male,2022-05-25_11h13.16.531,Main,2022.1.1,60.053026822666595,
neutral,positive,2,k,k,,,,,0,4,4,13,,,,,,,,,,,,,,,,,,,,,,,,,,,,prac,2,2,2,positive,neutral,k,l,0,0.668869800000266,56.11557440000024,57.13131990000011,57.11230969999997,None,56.11557440000024,None,56.11557440000024,None,56.11557440000024,None,57.770965799999885,None,57.770965799999885,None,57.770965799999885,None,,,,,,,,,,,224,24,Male,2022-05-25_11h13.16.531,Main,2022.1.1,60.053026822666595,
positive,neutral,1,l,j,,,,,0,5,5,8,,,,,,,,,,,,,,,,,,,,,,,,,,,,prac,2,2,1,neutral,positive,l,l,1,0.83923649999997,58.81597569999985,59.819603299999926,59.79982199999995,None,58.81597569999985,None,58.81597569999985,None,58.81597569999985,None,60.61757153000026,None,60.61757153000026,None,60.61757153000026,None,,,,,,,,,,,224,24,Male,2022-05-25_11h13.16.531,Main,2022.1.1,60.053026822666595,
negative,positive,1,j,l,,,,,0,6,6,6,,,,,,,,,,,,,,,,,,,,,,,,,,,,prac,1,1,1,positive,negative,j,j,1,0.741791600000397,60.65118729999995,61.666554800000085,61.627969499999836,None,60.65118729999995,None,60.65118729999995,None,60.65118729999995,None,62.36023132999999,None,62.36023132999999,None,62.36023132999999,None,,,,,,,,,,,224,24,Male,2022-05-25_11h13.16.531,Main,2022.1.1,60.053026822666595,
negative,negative,2,j,l,,,,,0,7,7,9,,,,,,,,,,,,,,,,,,,,,,,,,,,,prac,2,2,2,negative,negative,j,j,1,0.8926893000002565,62.39723890000005,63.39834440000004,63.38018809999994,None,62.39723890000005,None,62.39723890000005,None,62.39723890000005,None,64.25758413000013,None,64.25758413000013,None,64.25758413000013,None,,,,,,,,,,,224,24,Male,2022-05-25_11h13.16.531,Main,2022.1.1,60.053026822666595,
positive,positive,2,l,j,,,,,0,8,8,11,,,,,,,,,,,,,,,,,,,,,,,,,,,,prac,1,1,2,positive,positive,l,l,1,0.7731629999998404,64.27866799999993,65.28560160000006,65.26618009999993,None,64.27866799999993,None,64.27866799999993,None,64.27866799999993,None,66.03401503000005,None,66.03401503000005,None,66.03401503000005,None,,,,,,,,,,,224,24,Male,2022-05-25_11h13.16.531,Main,2022.1.1,60.053026822666595,
positive,neutral,2,l,j,,,,,0,9,9,17,,,,,,,,,,,,,,,,,,,,,,,,,,,,prac,1,1,2,neutral,positive,l,l,1,0.6967144000000189,66.06900859999996,67.08101519999991,67.06171940000013,None,66.06900859999996,None,66.06900859999996,None,66.06900859999996,None,67.73141373000017,None,67.73141373000017,None,67.73141373000017,None,,,,,,,,,,,224,24,Male,2022-05-25_11h13.16.531,Main,2022.1.1,60.053026822666595,
neutral,neutral,1,k,k,,,,,0,10,10,1,,,,,,,,,,,,,,,,,,,,,,,,,,,,prac,2,2,1,neutral,neutral,k,k,1,0.7136325999999826,67.7509828000002,68.75978170000008,68.74143550000008,None,67.7509828000002,None,67.7509828000002,None,67.7509828000002,None,69.44885863000009,None,69.44885863000009,None,69.44885863000009,None,,,,,,,,,,,224,24,Male,2022-05-25_11h13.16.531,Main,2022.1.1,60.053026822666595,
negative,neutral,1,j,l,,,,,0,11,11,3,,,,,,,,,,,,,,,,,,,,,,,,,,,,prac,2,2,1,neutral,negative,j,j,1,1.6814072999995915,69.48093019999988,70.48730650000016,70.46819189999997,None,69.48093019999988,None,69.48093019999988,None,69.48093019999988,None,72.14559129999998,None,72.14559129999998,None,72.14559129999998,None,,,,,,,,,,,224,24,Male,2022-05-25_11h13.16.531,Main,2022.1.1,60.053026822666595,
positive,negative,2,l,j,,,,,0,12,12,14,,,,,,,,,,,,,,,,,,,,,,,,,,,,prac,2,2,2,negative,positive,l,l,1,0.6713541000003715,73.16229800000019,74.16363390000015,74.14496959999997,None,73.16229800000019,None,73.16229800000019,None,73.16229800000019,None,74.81490262999996,None,74.81490262999996,None,74.81490262999996,None,,,,,,,,,,,224,24,Male,2022-05-25_11h13.16.531,Main,2022.1.1,60.053026822666595,
positive,negative,1,l,j,,,,,0,13,13,5,,,,,,,,,,,,,,,,,,,,,,,,,,,,prac,1,1,1,negative,positive,l,l,1,0.8282585000001745,74.84676010000021,75.8560935999999,75.83719840000003,None,74.84676010000021,None,74.84676010000021,None,74.84676010000021,None,76.64369923000022,None,76.64369923000022,None,76.64369923000022,None,,,,,,,,,,,224,24,Male,2022-05-25_11h13.16.531,Main,2022.1.1,60.053026822666595,
negative,negative,1,j,l,,,,,0,14,14,0,,,,,,,,,,,,,,,,,,,,,,,,,,,,prac,1,1,1,negative,negative,j,j,1,0.7642620999999963,76.66451540000025,77.67903680000018,77.64123810000001,None,76.66451540000025,None,76.66451540000025,None,76.66451540000025,None,78.4118621300001,None,78.4118621300001,None,78.4118621300001,None,,,,,,,,,,,224,24,Male,2022-05-25_11h13.16.531,Main,2022.1.1,60.053026822666595,
neutral,negative,1,k,k,,,,,0,15,15,7,,,,,,,,,,,,,,,,,,,,,,,,,,,,prac,1,1,1,negative,neutral,k,k,1,0.5549032999997507,78.43274060000022,79.44692789999999,79.40946280000026,None,78.43274060000022,None,78.43274060000022,None,78.43274060000022,None,79.96962762999983,None,79.96962762999983,None,79.96962762999983,None,,,,,,,,,,,224,24,Male,2022-05-25_11h13.16.531,Main,2022.1.1,60.053026822666595,
negative,neutral,2,j,l,,,,,0,16,16,12,,,,,,,,,,,,,,,,,,,,,,,,,,,,prac,2,2,2,neutral,negative,j,j,1,0.8037105999997038,79.99009720000004,81.00774050000018,80.96846360000018,None,79.99009720000004,None,79.99009720000004,None,79.99009720000004,None,81.77548352999993,None,81.77548352999993,None,81.77548352999993,None,,,,,,,,,,,224,24,Male,2022-05-25_11h13.16.531,Main,2022.1.1,60.053026822666595,
neutral,negative,2,k,k,,,,,0,17,17,16,,,,,,,,,,,,,,,,,,,,,,,,,,,,prac,2,2,2,negative,neutral,k,k,1,0.6104593999998542,81.79661170000008,82.81330239999988,82.77526360000002,None,81.79661170000008,None,81.79661170000008,None,81.79661170000008,None,83.38871292999984,None,83.38871292999984,None,83.38871292999984,None,,,,,,,,,,,224,24,Male,2022-05-25_11h13.16.531,Main,2022.1.1,60.053026822666595,
positive,negative,1,l,j,,,,,1,0,18,5,,,,,,,,,,,,,,,,,,,,,,,,,,,,prac,2,2,1,negative,positive,l,l,1,0.6902247000002717,83.42024300000003,84.4297919999999,84.41124730000001,None,83.42024300000003,None,83.42024300000003,None,83.42024300000003,None,85.08259853,None,85.08259853,None,85.08259853,None,,,,,,,,,,,224,24,Male,2022-05-25_11h13.16.531,Main,2022.1.1,60.053026822666595,
positive,neutral,1,l,j,,,,,1,1,19,8,,,,,,,,,,,,,,,,,,,,,,,,,,,,prac,2,2,1,neutral,positive,l,l,1,0.6265661000002183,85.10240509999994,86.11579979999988,86.07741799999985,None,85.10240509999994,None,85.10240509999994,None,85.10240509999994,None,86.70941863000026,None,86.70941863000026,None,86.70941863000026,None,,,,,,,,,,,224,24,Male,2022-05-25_11h13.16.531,Main,2022.1.1,60.053026822666595,
neutral,positive,1,k,k,,,,,1,2,20,4,,,,,,,,,,,,,,,,,,,,,,,,,,,,prac,1,1,1,positive,neutral,k,k,1,0.734943999999814,86.73075659999995,87.74001360000011,87.72126600000001,None,86.73075659999995,None,86.73075659999995,None,86.73075659999995,None,88.44833803000002,None,88.44833803000002,None,88.44833803000002,None,,,,,,,,,,,224,24,Male,2022-05-25_11h13.16.531,Main,2022.1.1,60.053026822666595,
positive,positive,1,l,j,,,,,1,3,21,2,,,,,,,,,,,,,,,,,,,,,,,,,,,,prac,2,2,1,positive,positive,l,l,1,0.6627819000000272,88.4679787,89.48013530000026,89.44327380000004,None,88.4679787,None,88.4679787,None,88.4679787,None,90.11324853000015,None,90.11324853000015,None,90.11324853000015,None,,,,,,,,,,,224,24,Male,2022-05-25_11h13.16.531,Main,2022.1.1,60.053026822666595,
neutral,negative,2,k,k,,,,,1,4,22,16,,,,,,,,,,,,,,,,,,,,,,,,,,,,prac,2,2,2,negative,neutral,k,k,1,0.7737719000001562,90.13272580000012,91.13930370000026,91.11969980000003,None,90.13272580000012,None,90.13272580000012,None,90.13272580000012,None,91.88716572999984,None,91.88716572999984,None,91.88716572999984,None,,,,,,,,,,,224,24,Male,2022-05-25_11h13.16.531,Main,2022.1.1,60.053026822666595,
positive,positive,2,l,j,,,,,1,5,23,11,,,,,,,,,,,,,,,,,,,,,,,,,,,,prac,2,2,2,positive,positive,l,l,1,0.6730493000000024,91.90774190000002,92.9090027000002,92.89040479999994,None,91.90774190000002,None,91.90774190000002,None,91.90774190000002,None,93.56285793000025,None,93.56285793000025,None,93.56285793000025,None,,,,,,,,,,,224,24,Male,2022-05-25_11h13.16.531,Main,2022.1.1,60.053026822666595,
neutral,negative,1,k,k,,,,,1,6,24,7,,,,,,,,,,,,,,,,,,,,,,,,,,,,prac,1,1,1,negative,neutral,k,k,1,0.666781599999922,93.58459189999985,94.5960411000001,94.55953649999992,None,93.58459189999985,None,93.58459189999985,None,93.58459189999985,None,95.23248463,None,95.23248463,None,95.23248463,None,,,,,,,,,,,224,24,Male,2022-05-25_11h13.16.531,Main,2022.1.1,60.053026822666595,
neutral,positive,2,k,k,,,,,1,7,25,13,,,,,,,,,,,,,,,,,,,,,,,,,,,,prac,1,1,2,positive,neutral,k,k,1,0.7047182999999677,95.2540497,96.26548610000009,96.24629520000008,None,95.2540497,None,95.2540497,None,95.2540497,None,96.93995982999986,None,96.93995982999986,None,96.93995982999986,None,,,,,,,,,,,224,24,Male,2022-05-25_11h13.16.531,Main,2022.1.1,60.053026822666595,
negative,negative,1,j,l,,,,,1,8,26,0,,,,,,,,,,,,,,,,,,,,,,,,,,,,prac,1,1,1,negative,negative,j,j,1,0.6344036999998934,96.96028930000011,97.97612509999999,97.93853480000007,None,96.96028930000011,None,96.96028930000011,None,96.96028930000011,None,98.57869112999988,None,98.57869112999988,None,98.57869112999988,None,,,,,,,,,,,224,24,Male,2022-05-25_11h13.16.531,Main,2022.1.1,60.053026822666595,
positive,negative,2,l,j,,,,,1,9,27,14,,,,,,,,,,,,,,,,,,,,,,,,,,,,prac,1,1,2,negative,positive,l,l,1,0.7250223000000915,98.6098849,99.6111833,99.59418360000018,None,98.6098849,None,98.6098849,None,98.6098849,None,100.30458843000015,None,100.30458843000015,None,100.30458843000015,None,,,,,,,,,,,224,24,Male,2022-05-25_11h13.16.531,Main,2022.1.1,60.053026822666595,
negative,positive,1,j,l,,,,,1,10,28,6,,,,,,,,,,,,,,,,,,,,,,,,,,,,prac,2,2,1,positive,negative,j,j,1,0.9017561000000569,100.32507450000003,101.3438412999999,101.30672420000019,None,100.32507450000003,None,100.32507450000003,None,100.32507450000003,None,102.20895823000019,None,102.20895823000019,None,102.20895823000019,None,,,,,,,,,,,224,24,Male,2022-05-25_11h13.16.531,Main,2022.1.1,60.053026822666595,
negative,neutral,1,j,l,,,,,1,11,29,3,,,,,,,,,,,,,,,,,,,,,,,,,,,,prac,2,2,1,neutral,negative,j,j,1,0.6790772999997898,102.23271560000012,103.24383919999991,103.20559670000011,None,102.23271560000012,None,102.23271560000012,None,102.23271560000012,None,103.88994883000005,None,103.88994883000005,None,103.88994883000005,None,,,,,,,,,,,224,24,Male,2022-05-25_11h13.16.531,Main,2022.1.1,60.053026822666595,
neutral,neutral,2,k,k,,,,,1,12,30,10,,,,,,,,,,,,,,,,,,,,,,,,,,,,prac,1,1,2,neutral,neutral,k,k,1,0.7379992999999558,103.90996570000016,104.92705720000004,104.89159539999991,None,103.90996570000016,None,103.90996570000016,None,103.90996570000016,None,105.63183003000013,None,105.63183003000013,None,105.63183003000013,None,,,,,,,,,,,224,24,Male,2022-05-25_11h13.16.531,Main,2022.1.1,60.053026822666595,
positive,neutral,2,l,j,,,,,1,13,31,17,,,,,,,,,,,,,,,,,,,,,,,,,,,,prac,1,1,2,neutral,positive,l,l,1,0.5639241000003494,105.65277700000024,106.65933150000001,106.64129820000016,None,105.65277700000024,None,105.65277700000024,None,105.65277700000024,None,107.19810192999985,None,107.19810192999985,None,107.19810192999985,None,,,,,,,,,,,224,24,Male,2022-05-25_11h13.16.531,Main,2022.1.1,60.053026822666595,
neutral,neutral,1,k,k,,,,,1,14,32,1,,,,,,,,,,,,,,,,,,,,,,,,,,,,prac,2,2,1,neutral,neutral,k,k,1,0.6609168999998474,107.21758820000014,108.22641160000012,108.20785089999981,None,107.21758820000014,None,107.21758820000014,None,107.21758820000014,None,108.85892132999989,None,108.85892132999989,None,108.85892132999989,None,,,,,,,,,,,224,24,Male,2022-05-25_11h13.16.531,Main,2022.1.1,60.053026822666595,
negative,neutral,2,j,l,,,,,1,15,33,12,,,,,,,,,,,,,,,,,,,,,,,,,,,,prac,1,1,2,neutral,negative,j,j,1,0.5939463999998225,108.8793184000001,109.90097539999988,109.85990870000023,None,108.8793184000001,None,108.8793184000001,None,108.8793184000001,None,110.45603262999994,None,110.45603262999994,None,110.45603262999994,None,,,,,,,,,,,224,24,Male,2022-05-25_11h13.16.531,Main,2022.1.1,60.053026822666595,
negative,positive,2,j,l,,,,,1,16,34,15,,,,,,,,,,,,,,,,,,,,,,,,,,,,prac,2,2,2,positive,negative,j,j,1,0.6390721999996458,110.47627999999986,111.48634559999982,111.46750609999981,None,110.47627999999986,None,110.47627999999986,None,110.47627999999986,None,112.0988336299999,None,112.0988336299999,None,112.0988336299999,None,,,,,,,,,,,224,24,Male,2022-05-25_11h13.16.531,Main,2022.1.1,60.053026822666595,
negative,negative,2,j,l,,,,,1,17,35,9,,,,,,,,,,,,,,,,,,,,,,,,,,,,prac,2,2,2,negative,negative,j,j,1,0.6934773999996651,112.11909849999984,113.12523469999996,113.10636139999997,None,112.11909849999984,None,112.11909849999984,None,112.11909849999984,None,113.79585443000015,None,113.79585443000015,None,113.79585443000015,None,,,,,,,,,,,224,24,Male,2022-05-25_11h13.16.531,Main,2022.1.1,60.053026822666595,
,,,,,,,,,,,,,,,,,,,,,,,,,,,,,,,,,,,,,,,,,,,,,,,,,,,,,,,,,,,,,,,,,,113.80234040000005,None,None,,,,,,,,224,24,Male,2022-05-25_11h13.16.531,Main,2022.1.1,60.053026822666595,
,,,,,,,,,,,,,,,,,,,,,,,,,,,,,,,,,,,,,,,,,,,,,,,,,,,,,,,,,,,,,,,,,,,,,0.5185185,-0.26203704,1,0,0,0.005728429999635409,None,224,24,Male,2022-05-25_11h13.16.531,Main,2022.1.1,60.053026822666595,
neutral,neutral,1,k,k,,,,,,,,,0,0,0,1,,,,,,,,,,,,,,,,,,,,,,115.09578330000022,None,main,1,1,1,neutral,neutral,k,k,1,0.7572927999999592,117.12742489999982,118.13005890000022,118.13005890000022,None,117.12742489999982,None,117.12742489999982,None,117.12742489999982,None,118.85455642999996,None,118.85455642999996,None,118.85455642999996,None,,,,,,,,,,,224,24,Male,2022-05-25_11h13.16.531,Main,2022.1.1,60.053026822666595,
neutral,positive,2,k,k,,,,,,,,,0,1,1,13,,,,,,,,,,,,,,,,,,,,,,,,main,2,2,2,positive,neutral,k,k,1,0.5747541000000638,118.87823690000005,119.89257020000014,119.8533825999998,None,118.87823690000005,None,118.87823690000005,None,118.87823690000005,None,120.43378583000022,None,120.43378583000022,None,120.43378583000022,None,,,,,,,,,,,224,24,Male,2022-05-25_11h13.16.531,Main,2022.1.1,60.053026822666595,
negative,negative,2,j,l,,,,,,,,,0,2,2,9,,,,,,,,,,,,,,,,,,,,,,,,main,2,2,2,negative,negative,j,j,1,0.715563100000054,120.45455110000012,121.46274559999983,121.44297869999991,None,120.45455110000012,None,120.45455110000012,None,120.45455110000012,None,122.15205913000018,None,122.15205913000018,None,122.15205913000018,None,,,,,,,,,,,224,24,Male,2022-05-25_11h13.16.531,Main,2022.1.1,60.053026822666595,
positive,negative,2,l,j,,,,,,,,,0,3,3,14,,,,,,,,,,,,,,,,,,,,,,,,main,1,1,2,negative,positive,l,l,1,0.6453455000000758,122.17204140000013,123.1863558,123.1485788,None,122.17204140000013,None,122.17204140000013,None,122.17204140000013,None,123.7997259300002,None,123.7997259300002,None,123.7997259300002,None,,,,,,,,,,,224,24,Male,2022-05-25_11h13.16.531,Main,2022.1.1,60.053026822666595,
negative,neutral,1,j,l,,,,,,,,,0,4,4,3,,,,,,,,,,,,,,,,,,,,,,,,main,1,1,1,neutral,negative,j,j,1,0.7004921000002469,123.82147680000026,124.84006200000022,124.80211529999997,None,123.82147680000026,None,123.82147680000026,None,123.82147680000026,None,125.50323223000005,None,125.50323223000005,None,125.50323223000005,None,,,,,,,,,,,224,24,Male,2022-05-25_11h13.16.531,Main,2022.1.1,60.053026822666595,
positive,negative,1,l,j,,,,,,,,,0,5,5,5,,,,,,,,,,,,,,,,,,,,,,,,main,2,2,1,negative,positive,l,l,1,0.7357492999999522,125.52242089999982,126.52832179999996,126.50887079999984,None,125.52242089999982,None,125.52242089999982,None,125.52242089999982,None,127.2418169300001,None,127.2418169300001,None,127.2418169300001,None,,,,,,,,,,,224,24,Male,2022-05-25_11h13.16.531,Main,2022.1.1,60.053026822666595,
negative,positive,2,j,l,,,,,,,,,0,6,6,15,,,,,,,,,,,,,,,,,,,,,,,,main,1,1,2,positive,negative,j,j,1,0.7627767999997559,127.26354010000023,128.27737030000026,128.24001230000022,None,127.26354010000023,None,127.26354010000023,None,127.26354010000023,None,129.00886463000023,None,129.00886463000023,None,129.00886463000023,None,,,,,,,,,,,224,24,Male,2022-05-25_11h13.16.531,Main,2022.1.1,60.053026822666595,
neutral,negative,2,k,k,,,,,,,,,0,7,7,16,,,,,,,,,,,,,,,,,,,,,,,,main,2,2,2,negative,neutral,k,k,1,0.624054100000194,129.03206610000007,130.03968040000018,130.02077150000014,None,129.03206610000007,None,129.03206610000007,None,129.03206610000007,None,130.63273112999985,None,130.63273112999985,None,130.63273112999985,None,,,,,,,,,,,224,24,Male,2022-05-25_11h13.16.531,Main,2022.1.1,60.053026822666595,
negative,negative,1,j,l,,,,,,,,,0,8,8,0,,,,,,,,,,,,,,,,,,,,,,,,main,1,1,1,negative,negative,j,j,1,0.6550420999997186,130.65375799999993,131.67729850000023,131.63030960000015,None,130.65375799999993,None,130.65375799999993,None,130.65375799999993,None,132.29139963000006,None,132.29139963000006,None,132.29139963000006,None,,,,,,,,,,,224,24,Male,2022-05-25_11h13.16.531,Main,2022.1.1,60.053026822666595,
neutral,negative,1,k,k,,,,,,,,,0,9,9,7,,,,,,,,,,,,,,,,,,,,,,,,main,2,2,1,negative,neutral,k,k,1,0.6289580000002388,132.31371369999988,133.32888460000004,133.29160630000024,None,132.31371369999988,None,132.31371369999988,None,132.31371369999988,None,133.92436143000003,None,133.92436143000003,None,133.92436143000003,None,,,,,,,,,,,224,24,Male,2022-05-25_11h13.16.531,Main,2022.1.1,60.053026822666595,
positive,positive,2,l,j,,,,,,,,,0,10,10,11,,,,,,,,,,,,,,,,,,,,,,,,main,2,2,2,positive,positive,l,l,1,0.7507752999999866,133.9483905000002,134.96131229999992,134.92285230000016,None,133.9483905000002,None,133.9483905000002,None,133.9483905000002,None,135.67702673000002,None,135.67702673000002,None,135.67702673000002,None,,,,,,,,,,,224,24,Male,2022-05-25_11h13.16.531,Main,2022.1.1,60.053026822666595,
neutral,positive,1,k,k,,,,,,,,,0,11,11,4,,,,,,,,,,,,,,,,,,,,,,,,main,1,1,1,positive,neutral,k,k,1,0.6434479999998075,135.69750720000002,136.70980169999984,136.67168540000011,None,135.69750720000002,None,135.69750720000002,None,135.69750720000002,None,137.32059912999983,None,137.32059912999983,None,137.32059912999983,None,,,,,,,,,,,224,24,Male,2022-05-25_11h13.16.531,Main,2022.1.1,60.053026822666595,
positive,positive,1,l,j,,,,,,,,,0,12,12,2,,,,,,,,,,,,,,,,,,,,,,,,main,1,1,1,positive,positive,l,l,1,0.6796128000000863,137.34271249999983,138.35351070000024,138.33461149999994,None,137.34271249999983,None,137.34271249999983,None,137.34271249999983,None,139.00221372999994,None,139.00221372999994,None,139.00221372999994,None,,,,,,,,,,,224,24,Male,2022-05-25_11h13.16.531,Main,2022.1.1,60.053026822666595,
neutral,neutral,2,k,k,,,,,,,,,0,13,13,10,,,,,,,,,,,,,,,,,,,,,,,,main,1,1,2,neutral,neutral,k,k,1,0.7141641000002892,139.02447470000016,140.03684770000018,139.99882500000012,None,139.02447470000016,None,139.02447470000016,None,139.02447470000016,None,140.7203839300002,None,140.7203839300002,None,140.7203839300002,None,,,,,,,,,,,224,24,Male,2022-05-25_11h13.16.531,Main,2022.1.1,60.053026822666595,
positive,neutral,1,l,j,,,,,,,,,0,14,14,8,,,,,,,,,,,,,,,,,,,,,,,,main,1,1,1,neutral,positive,l,l,1,0.7958794999999554,140.74135100000012,141.75952619999998,141.74055769999995,None,140.74135100000012,None,140.74135100000012,None,140.74135100000012,None,142.51882283000003,None,142.51882283000003,None,142.51882283000003,None,,,,,,,,,,,224,24,Male,2022-05-25_11h13.16.531,Main,2022.1.1,60.053026822666595,
negative,neutral,2,j,l,,,,,,,,,0,15,15,12,,,,,,,,,,,,,,,,,,,,,,,,main,2,2,2,neutral,negative,j,j,1,0.7147953999997299,142.53941350000014,143.54500959999996,143.52562750000016,None,142.53941350000014,None,142.53941350000014,None,142.53941350000014,None,144.23611043,None,144.23611043,None,144.23611043,None,,,,,,,,,,,224,24,Male,2022-05-25_11h13.16.531,Main,2022.1.1,60.053026822666595,
positive,neutral,2,l,j,,,,,,,,,0,16,16,17,,,,,,,,,,,,,,,,,,,,,,,,main,2,2,2,neutral,positive,l,l,1,0.7500534000000698,144.25704140000016,145.27812660000018,145.23771820000002,None,144.25704140000016,None,144.25704140000016,None,144.25704140000016,None,145.99046522999987,None,145.99046522999987,None,145.99046522999987,None,,,,,,,,,,,224,24,Male,2022-05-25_11h13.16.531,Main,2022.1.1,60.053026822666595,
negative,positive,1,j,l,,,,,,,,,0,17,17,6,,,,,,,,,,,,,,,,,,,,,,,,main,2,2,1,positive,negative,j,j,1,0.7580757000000631,146.0110906,147.02217980000023,146.98444569999992,None,146.0110906,None,146.0110906,None,146.0110906,None,147.74615362999992,None,147.74615362999992,None,147.74615362999992,None,,,,,,,,,,,224,24,Male,2022-05-25_11h13.16.531,Main,2022.1.1,60.053026822666595,
positive,negative,2,l,j,,,,,,,,,1,0,18,14,,,,,,,,,,,,,,,,,,,,,,,,main,2,2,2,negative,positive,l,l,1,0.6369453000002068,147.76896249999982,148.77978250000024,148.76095609999993,None,147.76896249999982,None,147.76896249999982,None,147.76896249999982,None,149.39072963000007,None,149.39072963000007,None,149.39072963000007,None,,,,,,,,,,,224,24,Male,2022-05-25_11h13.16.531,Main,2022.1.1,60.053026822666595,
neutral,neutral,1,k,k,,,,,,,,,1,1,19,1,,,,,,,,,,,,,,,,,,,,,,,,main,1,1,1,neutral,neutral,k,k,1,0.7126572000001943,149.41197460000012,150.41893459999983,150.39998019999985,None,149.41197460000012,None,149.41197460000012,None,149.41197460000012,None,151.10692222999995,None,151.10692222999995,None,151.10692222999995,None,,,,,,,,,,,224,24,Male,2022-05-25_11h13.16.531,Main,2022.1.1,60.053026822666595,
positive,positive,1,l,j,,,,,,,,,1,2,20,2,,,,,,,,,,,,,,,,,,,,,,,,main,1,1,1,positive,positive,l,l,1,0.5956658000000061,151.1269314000001,152.1316750000001,152.11318359999996,None,151.1269314000001,None,151.1269314000001,None,151.1269314000001,None,152.70513812999997,None,152.70513812999997,None,152.70513812999997,None,,,,,,,,,,,224,24,Male,2022-05-25_11h13.16.531,Main,2022.1.1,60.053026822666595,
negative,neutral,2,j,l,,,,,,,,,1,3,21,12,,,,,,,,,,,,,,,,,,,,,,,,main,2,2,2,neutral,negative,j,j,1,0.6082856000002721,152.72558609999987,153.7384416,153.70098800000005,None,152.72558609999987,None,152.72558609999987,None,152.72558609999987,None,154.3141895300002,None,154.3141895300002,None,154.3141895300002,None,,,,,,,,,,,224,24,Male,2022-05-25_11h13.16.531,Main,2022.1.1,60.053026822666595,
neutral,negative,1,k,k,,,,,,,,,1,4,22,7,,,,,,,,,,,,,,,,,,,,,,,,main,1,1,1,negative,neutral,k,k,1,0.6501986999996916,154.3344201,155.35080010000001,155.31339230000003,None,154.3344201,None,154.3344201,None,154.3344201,None,155.96660803000003,None,155.96660803000003,None,155.96660803000003,None,,,,,,,,,,,224,24,Male,2022-05-25_11h13.16.531,Main,2022.1.1,60.053026822666595,
negative,neutral,1,j,l,,,,,,,,,1,5,23,3,,,,,,,,,,,,,,,,,,,,,,,,main,2,2,1,neutral,negative,j,j,1,0.6984611000002587,155.98747460000004,157.00446079999983,156.96563270000024,None,155.98747460000004,None,155.98747460000004,None,155.98747460000004,None,157.66827613000004,None,157.66827613000004,None,157.66827613000004,None,,,,,,,,,,,224,24,Male,2022-05-25_11h13.16.531,Main,2022.1.1,60.053026822666595,
neutral,positive,2,k,k,,,,,,,,,1,6,24,13,,,,,,,,,,,,,,,,,,,,,,,,main,2,2,2,positive,neutral,k,k,1,0.6629327000000558,157.6887700000002,158.70535400000017,158.66677960000015,None,157.6887700000002,None,157.6887700000002,None,157.6887700000002,None,159.33244502999986,None,159.33244502999986,None,159.33244502999986,None,,,,,,,,,,,224,24,Male,2022-05-25_11h13.16.531,Main,2022.1.1,60.053026822666595,
neutral,neutral,2,k,k,,,,,,,,,1,7,25,10,,,,,,,,,,,,,,,,,,,,,,,,main,2,2,2,neutral,neutral,k,k,1,0.5828175000001465,159.35645990000012,160.36084570000003,160.34199489999992,None,159.35645990000012,None,159.35645990000012,None,159.35645990000012,None,160.91891692999997,None,160.91891692999997,None,160.91891692999997,None,,,,,,,,,,,224,24,Male,2022-05-25_11h13.16.531,Main,2022.1.1,60.053026822666595,
positive,neutral,1,l,j,,,,,,,,,1,8,26,8,,,,,,,,,,,,,,,,,,,,,,,,main,2,2,1,neutral,positive,l,l,1,0.6378791000001911,160.9388712,161.94706029999998,161.92832249999992,None,160.9388712,None,160.9388712,None,160.9388712,None,162.55917672999993,None,162.55917672999993,None,162.55917672999993,None,,,,,,,,,,,224,24,Male,2022-05-25_11h13.16.531,Main,2022.1.1,60.053026822666595,
positive,negative,1,l,j,,,,,,,,,1,9,27,5,,,,,,,,,,,,,,,,,,,,,,,,main,1,1,1,negative,positive,l,l,1,0.6308305000002292,162.5809052999998,163.59693789999983,163.5601102999999,None,162.5809052999998,None,162.5809052999998,None,162.5809052999998,None,164.19435703000016,None,164.19435703000016,None,164.19435703000016,None,,,,,,,,,,,224,24,Male,2022-05-25_11h13.16.531,Main,2022.1.1,60.053026822666595,
negative,positive,2,j,l,,,,,,,,,1,10,28,15,,,,,,,,,,,,,,,,,,,,,,,,main,2,2,2,positive,negative,j,j,1,0.7510509999997339,164.2167456000002,165.21797590000006,165.1998647999999,None,164.2167456000002,None,164.2167456000002,None,164.2167456000002,None,165.94846203000014,None,165.94846203000014,None,165.94846203000014,None,,,,,,,,,,,224,24,Male,2022-05-25_11h13.16.531,Main,2022.1.1,60.053026822666595,
negative,positive,1,j,l,,,,,,,,,1,11,29,6,,,,,,,,,,,,,,,,,,,,,,,,main,2,2,1,positive,negative,j,j,1,0.7643957000000228,165.96897769999987,166.98333760000014,166.9454380000002,None,165.96897769999987,None,165.96897769999987,None,165.96897769999987,None,167.71491263000024,None,167.71491263000024,None,167.71491263000024,None,,,,,,,,,,,224,24,Male,2022-05-25_11h13.16.531,Main,2022.1.1,60.053026822666595,
positive,neutral,2,l,j,,,,,,,,,1,12,30,17,,,,,,,,,,,,,,,,,,,,,,,,main,2,2,2,neutral,positive,l,l,1,0.6780026999999791,167.74006999999983,168.75798020000002,168.71887719999995,None,167.74006999999983,None,167.74006999999983,None,167.74006999999983,None,169.39561303,None,169.39561303,None,169.39561303,None,,,,,,,,,,,224,24,Male,2022-05-25_11h13.16.531,Main,2022.1.1,60.053026822666595,
negative,negative,1,j,l,,,,,,,,,1,13,31,0,,,,,,,,,,,,,,,,,,,,,,,,main,2,2,1,negative,negative,j,j,1,0.692087100000208,169.4174277000002,170.43405870000015,170.3960130999999,None,169.4174277000002,None,169.4174277000002,None,169.4174277000002,None,171.09250322999986,None,171.09250322999986,None,171.09250322999986,None,,,,,,,,,,,224,24,Male,2022-05-25_11h13.16.531,Main,2022.1.1,60.053026822666595,
positive,positive,2,l,j,,,,,,,,,1,14,32,11,,,,,,,,,,,,,,,,,,,,,,,,main,2,2,2,positive,positive,l,l,1,0.667284699999982,171.11445060000005,172.12201370000002,172.10155040000018,None,171.11445060000005,None,171.11445060000005,None,171.11445060000005,None,172.76285132999982,None,172.76285132999982,None,172.76285132999982,None,,,,,,,,,,,224,24,Male,2022-05-25_11h13.16.531,Main,2022.1.1,60.053026822666595,
negative,negative,2,j,l,,,,,,,,,1,15,33,9,,,,,,,,,,,,,,,,,,,,,,,,main,2,2,2,negative,negative,j,j,1,0.6614526000003025,172.7831867,173.79388930000005,173.77454799999987,None,172.7831867,None,172.7831867,None,172.7831867,None,174.42723673000017,None,174.42723673000017,None,174.42723673000017,None,,,,,,,,,,,224,24,Male,2022-05-25_11h13.16.531,Main,2022.1.1,60.053026822666595,
neutral,negative,2,k,k,,,,,,,,,1,16,34,16,,,,,,,,,,,,,,,,,,,,,,,,main,2,2,2,negative,neutral,k,k,1,0.6664123999998992,174.4488882999999,175.46188810000012,175.4252147000002,None,174.4488882999999,None,174.4488882999999,None,174.4488882999999,None,176.09670952999994,None,176.09670952999994,None,176.09670952999994,None,,,,,,,,,,,224,24,Male,2022-05-25_11h13.16.531,Main,2022.1.1,60.053026822666595,
neutral,positive,1,k,k,,,,,,,,,1,17,35,4,,,,,,,,,,,,,,,,,,,,,,,,main,2,2,1,positive,neutral,k,k,1,0.7275677000002361,176.11765079999986,177.13195129999986,177.09450430000015,None,176.11765079999986,None,176.11765079999986,None,176.11765079999986,None,177.82691743000004,None,177.82691743000004,None,177.82691743000004,None,,,,,,,,,,,224,24,Male,2022-05-25_11h13.16.531,Main,2022.1.1,60.053026822666595,
neutral,negative,2,k,k,,,,,,,,,2,0,36,16,,,,,,,,,,,,,,,,,,,,,,,,main,2,2,2,negative,neutral,k,k,1,0.6712905999997929,177.84754740000017,178.8535366000001,178.83399180000015,None,177.84754740000017,None,177.84754740000017,None,177.84754740000017,None,179.50275862999996,None,179.50275862999996,None,179.50275862999996,None,,,,,,,,,,,224,24,Male,2022-05-25_11h13.16.531,Main,2022.1.1,60.053026822666595,
positive,neutral,1,l,j,,,,,,,,,2,1,37,8,,,,,,,,,,,,,,,,,,,,,,,,main,2,2,1,neutral,positive,l,l,1,0.811177200000202,179.52265339999985,180.52648260000024,180.50650080000014,None,179.52265339999985,None,179.52265339999985,None,179.52265339999985,None,181.31367423,None,181.31367423,None,181.31367423,None,,,,,,,,,,,224,24,Male,2022-05-25_11h13.16.531,Main,2022.1.1,60.053026822666595,
negative,positive,1,j,l,,,,,,,,,2,2,38,6,,,,,,,,,,,,,,,,,,,,,,,,main,2,2,1,positive,negative,j,j,1,0.7544287000000622,181.33514300000024,182.34499689999984,182.32625670000016,None,181.33514300000024,None,181.33514300000024,None,181.33514300000024,None,183.07207393000016,None,183.07207393000016,None,183.07207393000016,None,,,,,,,,,,,224,24,Male,2022-05-25_11h13.16.531,Main,2022.1.1,60.053026822666595,
positive,positive,2,l,j,,,,,,,,,2,3,39,11,,,,,,,,,,,,,,,,,,,,,,,,main,2,2,2,positive,positive,l,l,1,0.683148600000095,183.09411290000025,184.10428150000007,184.08494999999994,None,183.09411290000025,None,183.09411290000025,None,183.09411290000025,None,184.75851042999983,None,184.75851042999983,None,184.75851042999983,None,,,,,,,,,,,224,24,Male,2022-05-25_11h13.16.531,Main,2022.1.1,60.053026822666595,
neutral,neutral,2,k,k,,,,,,,,,2,4,40,10,,,,,,,,,,,,,,,,,,,,,,,,main,2,2,2,neutral,neutral,k,k,1,0.6301199999998062,184.78029079999988,185.7959053999998,185.75814339999988,None,184.78029079999988,None,184.78029079999988,None,184.78029079999988,None,186.39190423000008,None,186.39190423000008,None,186.39190423000008,None,,,,,,,,,,,224,24,Male,2022-05-25_11h13.16.531,Main,2022.1.1,60.053026822666595,
positive,negative,1,l,j,,,,,,,,,2,5,41,5,,,,,,,,,,,,,,,,,,,,,,,,main,2,2,1,negative,positive,l,l,1,0.7109737999999197,186.41349279999986,187.4305021,187.39265990000013,None,186.41349279999986,None,186.41349279999986,None,186.41349279999986,None,188.1071775299999,None,188.1071775299999,None,188.1071775299999,None,,,,,,,,,,,224,24,Male,2022-05-25_11h13.16.531,Main,2022.1.1,60.053026822666595,
negative,neutral,1,j,l,,,,,,,,,2,6,42,3,,,,,,,,,,,,,,,,,,,,,,,,main,1,1,1,neutral,negative,j,j,1,0.7214852000001883,188.12914039999987,189.1474521,189.1097420000001,None,188.12914039999987,None,188.12914039999987,None,188.12914039999987,None,189.83434362999986,None,189.83434362999986,None,189.83434362999986,None,,,,,,,,,,,224,24,Male,2022-05-25_11h13.16.531,Main,2022.1.1,60.053026822666595,
neutral,neutral,1,k,k,,,,,,,,,2,7,43,1,,,,,,,,,,,,,,,,,,,,,,,,main,2,2,1,neutral,neutral,k,k,1,0.6420459999999366,189.85402460000023,190.8652565000002,190.82859400000007,None,189.85402460000023,None,189.85402460000023,None,189.85402460000023,None,191.47644353000004,None,191.47644353000004,None,191.47644353000004,None,,,,,,,,,,,224,24,Male,2022-05-25_11h13.16.531,Main,2022.1.1,60.053026822666595,
positive,neutral,2,l,j,,,,,,,,,2,8,44,17,,,,,,,,,,,,,,,,,,,,,,,,main,2,2,2,neutral,positive,l,l,1,0.6166296000001239,191.49784080000018,192.49982739999996,192.48195669999996,None,191.49784080000018,None,191.49784080000018,None,191.49784080000018,None,193.09573223000024,None,193.09573223000024,None,193.09573223000024,None,,,,,,,,,,,224,24,Male,2022-05-25_11h13.16.531,Main,2022.1.1,60.053026822666595,
negative,negative,1,j,l,,,,,,,,,2,9,45,0,,,,,,,,,,,,,,,,,,,,,,,,main,1,1,1,negative,negative,j,j,1,0.7610029000002214,193.11546859999999,194.1288856000001,194.09123080000018,None,193.11546859999999,None,193.11546859999999,None,193.11546859999999,None,194.85942883000024,None,194.85942883000024,None,194.85942883000024,None,,,,,,,,,,,224,24,Male,2022-05-25_11h13.16.531,Main,2022.1.1,60.053026822666595,
neutral,positive,2,k,k,,,,,,,,,2,10,46,13,,,,,,,,,,,,,,,,,,,,,,,,main,1,1,2,positive,neutral,k,k,1,0.6179709000002731,194.8800427000001,195.88760000000002,195.86857409999993,None,194.8800427000001,None,194.8800427000001,None,194.8800427000001,None,196.48216593000024,None,196.48216593000024,None,196.48216593000024,None,,,,,,,,,,,224,24,Male,2022-05-25_11h13.16.531,Main,2022.1.1,60.053026822666595,
negative,negative,2,j,l,,,,,,,,,2,11,47,9,,,,,,,,,,,,,,,,,,,,,,,,main,2,2,2,negative,negative,j,j,1,0.6954549999995834,196.50295559999995,197.5109453,197.49202950000017,None,196.50295559999995,None,196.50295559999995,None,196.50295559999995,None,198.1781633299999,None,198.1781633299999,None,198.1781633299999,None,,,,,,,,,,,224,24,Male,2022-05-25_11h13.16.531,Main,2022.1.1,60.053026822666595,
positive,negative,2,l,j,,,,,,,,,2,12,48,14,,,,,,,,,,,,,,,,,,,,,,,,main,2,2,2,negative,positive,l,j,0,0.7648562999997921,198.19963169999983,199.20197080000025,199.18306919999986,None,198.19963169999983,None,198.19963169999983,None,198.19963169999983,None,199.95450340000025,None,199.95450340000025,None,199.95450340000025,None,,,,,,,,,,,224,24,Male,2022-05-25_11h13.16.531,Main,2022.1.1,60.053026822666595,
neutral,negative,1,k,k,,,,,,,,,2,13,49,7,,,,,,,,,,,,,,,,,,,,,,,,main,2,2,1,negative,neutral,k,k,1,0.700716199999988,200.9798753,201.9992112,201.95993700000008,None,200.9798753,None,200.9798753,None,200.9798753,None,202.66033723000027,None,202.66033723000027,None,202.66033723000027,None,,,,,,,,,,,224,24,Male,2022-05-25_11h13.16.531,Main,2022.1.1,60.053026822666595,
negative,positive,2,j,l,,,,,,,,,2,14,50,15,,,,,,,,,,,,,,,,,,,,,,,,main,1,1,2,positive,negative,j,j,1,1.0520627999999306,202.68177270000024,203.6984034000002,203.6597068000001,None,202.68177270000024,None,202.68177270000024,None,202.68177270000024,None,204.71714782999987,None,204.71714782999987,None,204.71714782999987,None,,,,,,,,,,,224,24,Male,2022-05-25_11h13.16.531,Main,2022.1.1,60.053026822666595,
negative,neutral,2,j,l,,,,,,,,,2,15,51,12,,,,,,,,,,,,,,,,,,,,,,,,main,1,1,2,neutral,negative,j,j,1,0.6642879000000903,204.74004259999992,205.7450745000001,205.72696450000012,None,204.74004259999992,None,204.74004259999992,None,204.74004259999992,None,206.38426052999984,None,206.38426052999984,None,206.38426052999984,None,,,,,,,,,,,224,24,Male,2022-05-25_11h13.16.531,Main,2022.1.1,60.053026822666595,
positive,positive,1,l,j,,,,,,,,,2,16,52,2,,,,,,,,,,,,,,,,,,,,,,,,main,1,1,1,positive,positive,l,l,1,0.860262899999725,206.4064389,207.4243166000001,207.3853094000001,None,206.4064389,None,206.4064389,None,206.4064389,None,208.24397963000018,None,208.24397963000018,None,208.24397963000018,None,,,,,,,,,,,224,24,Male,2022-05-25_11h13.16.531,Main,2022.1.1,60.053026822666595,
neutral,positive,1,k,k,,,,,,,,,2,17,53,4,,,,,,,,,,,,,,,,,,,,,,,,main,1,1,1,positive,neutral,k,k,1,0.8154036999999335,208.2668251,209.2725863999999,209.25302120000015,None,208.2668251,None,208.2668251,None,208.2668251,None,210.06460502999988,None,210.06460502999988,None,210.06460502999988,None,,,,,,,,,,,224,24,Male,2022-05-25_11h13.16.531,Main,2022.1.1,60.053026822666595,
positive,neutral,2,l,j,,,,,,,,,3,0,54,17,,,,,,,,,,,,,,,,,,,,,,,,main,1,1,2,neutral,positive,l,l,1,0.7219696000001932,210.0844049000002,211.09561269999995,211.0592670000001,None,210.0844049000002,None,210.0844049000002,None,210.0844049000002,None,211.78781782999994,None,211.78781782999994,None,211.78781782999994,None,,,,,,,,,,,224,24,Male,2022-05-25_11h13.16.531,Main,2022.1.1,60.053026822666595,
negative,neutral,2,j,l,,,,,,,,,3,1,55,12,,,,,,,,,,,,,,,,,,,,,,,,main,2,2,2,neutral,negative,j,j,1,0.6835054000002856,211.80952539999998,212.82570570000007,212.78790579999986,None,211.80952539999998,None,211.80952539999998,None,211.80952539999998,None,213.47461643000014,None,213.47461643000014,None,213.47461643000014,None,,,,,,,,,,,224,24,Male,2022-05-25_11h13.16.531,Main,2022.1.1,60.053026822666595,
positive,negative,2,l,j,,,,,,,,,3,2,56,14,,,,,,,,,,,,,,,,,,,,,,,,main,2,2,2,negative,positive,l,l,1,0.8649245999999948,213.49418070000002,214.50497429999996,214.48584570000003,None,213.49418070000002,None,213.49418070000002,None,213.49418070000002,None,215.3415574299999,None,215.3415574299999,None,215.3415574299999,None,,,,,,,,,,,224,24,Male,2022-05-25_11h13.16.531,Main,2022.1.1,60.053026822666595,
negative,negative,2,j,l,,,,,,,,,3,3,57,9,,,,,,,,,,,,,,,,,,,,,,,,main,2,2,2,negative,negative,j,j,1,0.7839500000000044,215.36285529999986,216.3662789,216.34707960000014,None,215.36285529999986,None,215.36285529999986,None,215.36285529999986,None,217.13068352999989,None,217.13068352999989,None,217.13068352999989,None,,,,,,,,,,,224,24,Male,2022-05-25_11h13.16.531,Main,2022.1.1,60.053026822666595,
positive,positive,1,l,j,,,,,,,,,3,4,58,2,,,,,,,,,,,,,,,,,,,,,,,,main,1,1,1,positive,positive,l,l,1,0.7134127999997872,217.15207509999982,218.15722860000005,218.13800230000015,None,217.15207509999982,None,217.15207509999982,None,217.15207509999982,None,218.84364853000005,None,218.84364853000005,None,218.84364853000005,None,,,,,,,,,,,224,24,Male,2022-05-25_11h13.16.531,Main,2022.1.1,60.053026822666595,
positive,neutral,1,l,j,,,,,,,,,3,5,59,8,,,,,,,,,,,,,,,,,,,,,,,,main,1,1,1,neutral,positive,l,l,1,0.6769704999996975,218.8653779000001,219.8727887,219.85366759999988,None,218.8653779000001,None,218.8653779000001,None,218.8653779000001,None,220.52265833000018,None,220.52265833000018,None,220.52265833000018,None,,,,,,,,,,,224,24,Male,2022-05-25_11h13.16.531,Main,2022.1.1,60.053026822666595,
neutral,negative,2,k,k,,,,,,,,,3,6,60,16,,,,,,,,,,,,,,,,,,,,,,,,main,1,1,2,negative,neutral,k,k,1,0.6497614999998405,220.5449248,221.54876860000013,221.5297261999999,None,220.5449248,None,220.5449248,None,220.5449248,None,222.17646072999986,None,222.17646072999986,None,222.17646072999986,None,,,,,,,,,,,224,24,Male,2022-05-25_11h13.16.531,Main,2022.1.1,60.053026822666595,
neutral,neutral,1,k,k,,,,,,,,,3,7,61,1,,,,,,,,,,,,,,,,,,,,,,,,main,2,2,1,neutral,neutral,k,k,1,0.9442548999995779,222.19752310000013,223.20582379999996,223.18745549999994,None,222.19752310000013,None,222.19752310000013,None,222.19752310000013,None,224.12391893000012,None,224.12391893000012,None,224.12391893000012,None,,,,,,,,,,,224,24,Male,2022-05-25_11h13.16.531,Main,2022.1.1,60.053026822666595,
neutral,positive,2,k,k,,,,,,,,,3,8,62,13,,,,,,,,,,,,,,,,,,,,,,,,main,1,1,2,positive,neutral,k,k,1,0.7665194000001065,224.14594859999988,225.16190300000017,225.12388959999998,None,224.14594859999988,None,224.14594859999988,None,224.14594859999988,None,225.89411752999985,None,225.89411752999985,None,225.89411752999985,None,,,,,,,,,,,224,24,Male,2022-05-25_11h13.16.531,Main,2022.1.1,60.053026822666595,
positive,negative,1,l,j,,,,,,,,,3,9,63,5,,,,,,,,,,,,,,,,,,,,,,,,main,2,2,1,negative,positive,l,l,1,0.7004799999999705,225.91521590000002,226.9245993999998,226.90420949999998,None,225.91521590000002,None,225.91521590000002,None,225.91521590000002,None,227.59866763000008,None,227.59866763000008,None,227.59866763000008,None,,,,,,,,,,,224,24,Male,2022-05-25_11h13.16.531,Main,2022.1.1,60.053026822666595,
positive,positive,2,l,j,,,,,,,,,3,10,64,11,,,,,,,,,,,,,,,,,,,,,,,,main,1,1,2,positive,positive,l,l,1,0.7787773000000016,227.62051789999987,228.63469290000012,228.5954726,None,227.62051789999987,None,227.62051789999987,None,227.62051789999987,None,229.3800794300002,None,229.3800794300002,None,229.3800794300002,None,,,,,,,,,,,224,24,Male,2022-05-25_11h13.16.531,Main,2022.1.1,60.053026822666595,
neutral,negative,1,k,k,,,,,,,,,3,11,65,7,,,,,,,,,,,,,,,,,,,,,,,,main,2,2,1,negative,neutral,k,k,1,0.7410617999998976,229.39978280000014,230.41074049999997,230.37265260000004,None,229.39978280000014,None,229.39978280000014,None,229.39978280000014,None,231.12192922999992,None,231.12192922999992,None,231.12192922999992,None,,,,,,,,,,,224,24,Male,2022-05-25_11h13.16.531,Main,2022.1.1,60.053026822666595,
negative,positive,1,j,l,,,,,,,,,3,12,66,6,,,,,,,,,,,,,,,,,,,,,,,,main,1,1,1,positive,negative,j,j,1,0.7120670999997856,231.14360720000013,232.1447103999999,232.12606360000018,None,231.14360720000013,None,231.14360720000013,None,231.14360720000013,None,232.8355317299999,None,232.8355317299999,None,232.8355317299999,None,,,,,,,,,,,224,24,Male,2022-05-25_11h13.16.531,Main,2022.1.1,60.053026822666595,
negative,neutral,1,j,l,,,,,,,,,3,13,67,3,,,,,,,,,,,,,,,,,,,,,,,,main,2,2,1,neutral,negative,j,j,1,0.7483781999999337,232.85792930000025,233.87690620000012,233.83915830000024,None,232.85792930000025,None,232.85792930000025,None,232.85792930000025,None,234.58799533000018,None,234.58799533000018,None,234.58799533000018,None,,,,,,,,,,,224,24,Male,2022-05-25_11h13.16.531,Main,2022.1.1,60.053026822666595,
neutral,neutral,2,k,k,,,,,,,,,3,14,68,10,,,,,,,,,,,,,,,,,,,,,,,,main,2,2,2,neutral,neutral,k,k,1,0.6540875999999116,234.60941230000026,235.61424540000007,235.59411050000017,None,234.60941230000026,None,234.60941230000026,None,234.60941230000026,None,236.24653822999989,None,236.24653822999989,None,236.24653822999989,None,,,,,,,,,,,224,24,Male,2022-05-25_11h13.16.531,Main,2022.1.1,60.053026822666595,
negative,negative,1,j,l,,,,,,,,,3,15,69,0,,,,,,,,,,,,,,,,,,,,,,,,main,2,2,1,negative,negative,j,j,1,0.7420847999997022,236.26678200000015,237.27677979999999,237.24095960000022,None,236.26678200000015,None,236.26678200000015,None,236.26678200000015,None,237.9895192300002,None,237.9895192300002,None,237.9895192300002,None,,,,,,,,,,,224,24,Male,2022-05-25_11h13.16.531,Main,2022.1.1,60.053026822666595,
negative,positive,2,j,l,,,,,,,,,3,16,70,15,,,,,,,,,,,,,,,,,,,,,,,,main,1,1,2,positive,negative,j,j,1,0.7531294999998863,238.00962389999995,239.01602439999988,238.99685110000019,None,238.00962389999995,None,238.00962389999995,None,238.00962389999995,None,239.7471304299999,None,239.7471304299999,None,239.7471304299999,None,,,,,,,,,,,224,24,Male,2022-05-25_11h13.16.531,Main,2022.1.1,60.053026822666595,
neutral,positive,1,k,k,,,,,,,,,3,17,71,4,,,,,,,,,,,,,,,,,,,,,,,,main,2,2,1,positive,neutral,k,k,1,0.7476916000000529,239.76739369999996,240.78762300000017,240.74918609999986,None,239.76739369999996,None,239.76739369999996,None,239.76739369999996,None,241.4976188299999,None,241.4976188299999,None,241.4976188299999,None,,,,,,,,,,,224,24,Male,2022-05-25_11h13.16.531,Main,2022.1.1,60.053026822666595,
neutral,neutral,1,k,k,,,,,,,,,4,0,72,1,,,,,,,,,,,,,,,,,,,,,,,,main,1,1,1,neutral,neutral,k,k,1,0.6419258000000809,241.51950160000024,242.5260463999998,242.5069496000001,None,241.51950160000024,None,241.51950160000024,None,241.51950160000024,None,243.14008463,None,243.14008463,None,243.14008463,None,,,,,,,,,,,224,24,Male,2022-05-25_11h13.16.531,Main,2022.1.1,60.053026822666595,
negative,positive,1,j,l,,,,,,,,,4,1,73,6,,,,,,,,,,,,,,,,,,,,,,,,main,2,2,1,positive,negative,j,j,1,0.786652100000083,243.1607742000001,244.17913469999985,244.1407379000002,None,243.1607742000001,None,243.1607742000001,None,243.1607742000001,None,244.93078113000018,None,244.93078113000018,None,244.93078113000018,None,,,,,,,,,,,224,24,Male,2022-05-25_11h13.16.531,Main,2022.1.1,60.053026822666595,
positive,positive,1,l,j,,,,,,,,,4,2,74,2,,,,,,,,,,,,,,,,,,,,,,,,main,1,1,1,positive,positive,l,l,1,0.7069357999998829,244.95036919999984,245.96657559999994,245.92666559999998,None,244.95036919999984,None,244.95036919999984,None,244.95036919999984,None,246.6384791299999,None,246.6384791299999,None,246.6384791299999,None,,,,,,,,,,,224,24,Male,2022-05-25_11h13.16.531,Main,2022.1.1,60.053026822666595,
neutral,positive,1,k,k,,,,,,,,,4,3,75,4,,,,,,,,,,,,,,,,,,,,,,,,main,1,1,1,positive,neutral,k,k,1,0.6994617000000289,246.6589027,247.67278720000013,247.63445330000013,None,246.6589027,None,246.6589027,None,246.6589027,None,248.34212183000017,None,248.34212183000017,None,248.34212183000017,None,,,,,,,,,,,224,24,Male,2022-05-25_11h13.16.531,Main,2022.1.1,60.053026822666595,
negative,negative,1,j,l,,,,,,,,,4,4,76,0,,,,,,,,,,,,,,,,,,,,,,,,main,1,1,1,negative,negative,j,j,1,0.7690717999998924,248.36208579999993,249.36519240000007,249.34561029999986,None,248.36208579999993,None,248.36208579999993,None,248.36208579999993,None,250.11399553000018,None,250.11399553000018,None,250.11399553000018,None,,,,,,,,,,,224,24,Male,2022-05-25_11h13.16.531,Main,2022.1.1,60.053026822666595,
negative,negative,2,j,l,,,,,,,,,4,5,77,9,,,,,,,,,,,,,,,,,,,,,,,,main,1,1,2,negative,negative,j,j,1,0.7287036000002445,250.13388970000005,251.1400711000001,251.12113099999988,None,250.13388970000005,None,250.13388970000005,None,250.13388970000005,None,251.84487593000011,None,251.84487593000011,None,251.84487593000011,None,,,,,,,,,,,224,24,Male,2022-05-25_11h13.16.531,Main,2022.1.1,60.053026822666595,
positive,neutral,2,l,j,,,,,,,,,4,6,78,17,,,,,,,,,,,,,,,,,,,,,,,,main,1,1,2,neutral,positive,l,l,1,0.7456422999998722,251.86644209999986,252.88546159999987,252.84730170000012,None,251.86644209999986,None,251.86644209999986,None,251.86644209999986,None,253.5940997300001,None,253.5940997300001,None,253.5940997300001,None,,,,,,,,,,,224,24,Male,2022-05-25_11h13.16.531,Main,2022.1.1,60.053026822666595,
positive,neutral,1,l,j,,,,,,,,,4,7,79,8,,,,,,,,,,,,,,,,,,,,,,,,main,2,2,1,neutral,positive,l,l,1,0.6868931999997585,253.61398569999983,254.62560470000017,254.58902690000014,None,253.61398569999983,None,253.61398569999983,None,253.61398569999983,None,255.28278062999988,None,255.28278062999988,None,255.28278062999988,None,,,,,,,,,,,224,24,Male,2022-05-25_11h13.16.531,Main,2022.1.1,60.053026822666595,
positive,negative,2,l,j,,,,,,,,,4,8,80,14,,,,,,,,,,,,,,,,,,,,,,,,main,2,2,2,negative,positive,l,l,1,0.8735230000002048,255.30364210000016,256.32070780000004,256.2821251999999,None,255.30364210000016,None,255.30364210000016,None,255.30364210000016,None,257.16096763000013,None,257.16096763000013,None,257.16096763000013,None,,,,,,,,,,,224,24,Male,2022-05-25_11h13.16.531,Main,2022.1.1,60.053026822666595,
neutral,neutral,2,k,k,,,,,,,,,4,9,81,10,,,,,,,,,,,,,,,,,,,,,,,,main,1,1,2,neutral,neutral,k,k,1,0.6425355000001218,257.18252919999986,258.19247859999996,258.1543452000001,None,257.18252919999986,None,257.18252919999986,None,257.18252919999986,None,258.8037436299998,None,258.8037436299998,None,258.8037436299998,None,,,,,,,,,,,224,24,Male,2022-05-25_11h13.16.531,Main,2022.1.1,60.053026822666595,
neutral,positive,2,k,k,,,,,,,,,4,10,82,13,,,,,,,,,,,,,,,,,,,,,,,,main,1,1,2,positive,neutral,k,k,1,1.180708500000037,258.82381540000006,259.8372497999999,259.79957460000014,None,258.82381540000006,None,258.82381540000006,None,258.82381540000006,None,260.98680613000005,None,260.98680613000005,None,260.98680613000005,None,,,,,,,,,,,224,24,Male,2022-05-25_11h13.16.531,Main,2022.1.1,60.053026822666595,
neutral,negative,2,k,k,,,,,,,,,4,11,83,16,,,,,,,,,,,,,,,,,,,,,,,,main,2,2,2,negative,neutral,k,k,1,0.6330250999999407,261.0079353000001,262.02451870000004,261.9870200999999,None,261.0079353000001,None,261.0079353000001,None,261.0079353000001,None,262.6229402300002,None,262.6229402300002,None,262.6229402300002,None,,,,,,,,,,,224,24,Male,2022-05-25_11h13.16.531,Main,2022.1.1,60.053026822666595,
negative,neutral,1,j,l,,,,,,,,,4,12,84,3,,,,,,,,,,,,,,,,,,,,,,,,main,1,1,1,neutral,negative,j,j,1,0.7273223000001963,262.6432992,263.64903989999993,263.62963070000023,None,262.6432992,None,262.6432992,None,262.6432992,None,264.35270783000004,None,264.35270783000004,None,264.35270783000004,None,,,,,,,,,,,224,24,Male,2022-05-25_11h13.16.531,Main,2022.1.1,60.053026822666595,
neutral,negative,1,k,k,,,,,,,,,4,13,85,7,,,,,,,,,,,,,,,,,,,,,,,,main,2,2,1,negative,neutral,k,k,1,0.7166591000000153,264.37360020000006,265.3863769999998,265.3484695000002,None,264.37360020000006,None,264.37360020000006,None,264.37360020000006,None,266.0720068299999,None,266.0720068299999,None,266.0720068299999,None,,,,,,,,,,,224,24,Male,2022-05-25_11h13.16.531,Main,2022.1.1,60.053026822666595,
negative,positive,2,j,l,,,,,,,,,4,14,86,15,,,,,,,,,,,,,,,,,,,,,,,,main,1,1,2,positive,negative,j,j,1,0.7344302000001335,266.091997,267.09943939999994,267.0804134,None,266.091997,None,266.091997,None,266.091997,None,267.80830003,None,267.80830003,None,267.80830003,None,,,,,,,,,,,224,24,Male,2022-05-25_11h13.16.531,Main,2022.1.1,60.053026822666595,
positive,negative,1,l,j,,,,,,,,,4,15,87,5,,,,,,,,,,,,,,,,,,,,,,,,main,2,2,1,negative,positive,l,l,1,0.8111489000002621,267.83038320000014,268.83681449999995,268.8177512000002,None,267.83038320000014,None,267.83038320000014,None,267.83038320000014,None,269.6238739299999,None,269.6238739299999,None,269.6238739299999,None,,,,,,,,,,,224,24,Male,2022-05-25_11h13.16.531,Main,2022.1.1,60.053026822666595,
positive,positive,2,l,j,,,,,,,,,4,16,88,11,,,,,,,,,,,,,,,,,,,,,,,,main,2,2,2,positive,positive,l,l,1,0.6605440999996972,269.64435300000014,270.6490967999998,270.63000009999996,None,269.64435300000014,None,269.64435300000014,None,269.64435300000014,None,271.28470453000017,None,271.28470453000017,None,271.28470453000017,None,,,,,,,,,,,224,24,Male,2022-05-25_11h13.16.531,Main,2022.1.1,60.053026822666595,
negative,neutral,2,j,l,,,,,,,,,4,17,89,12,,,,,,,,,,,,,,,,,,,,,,,,main,2,2,2,neutral,negative,j,j,1,0.6853762000000643,271.3101664999999,272.3218178000002,272.2837862000001,None,271.3101664999999,None,271.3101664999999,None,271.3101664999999,None,272.97331533000005,None,272.97331533000005,None,272.97331533000005,None,,,,,,,,,,,224,24,Male,2022-05-25_11h13.16.531,Main,2022.1.1,60.053026822666595,
negative,positive,1,j,l,,,,,,,,,5,0,90,6,,,,,,,,,,,,,,,,,,,,,,,,main,2,2,1,positive,negative,j,j,1,0.7790399999998954,272.9946964999999,274.0061773000002,273.9875526999999,None,272.9946964999999,None,272.9946964999999,None,272.9946964999999,None,274.75682473000023,None,274.75682473000023,None,274.75682473000023,None,,,,,,,,,,,224,24,Male,2022-05-25_11h13.16.531,Main,2022.1.1,60.053026822666595,
positive,negative,1,l,j,,,,,,,,,5,1,91,5,,,,,,,,,,,,,,,,,,,,,,,,main,1,1,1,negative,positive,l,l,1,0.7989237000001594,274.776758,275.78897860000006,275.7514033000002,None,274.776758,None,274.776758,None,274.776758,None,276.55853553000014,None,276.55853553000014,None,276.55853553000014,None,,,,,,,,,,,224,24,Male,2022-05-25_11h13.16.531,Main,2022.1.1,60.053026822666595,
negative,negative,1,j,l,,,,,,,,,5,2,92,0,,,,,,,,,,,,,,,,,,,,,,,,main,1,1,1,negative,negative,j,j,1,0.7065566999999646,276.5785455,277.5900166000001,277.5512748000001,None,276.5785455,None,276.5785455,None,276.5785455,None,278.26580543000017,None,278.26580543000017,None,278.26580543000017,None,,,,,,,,,,,224,24,Male,2022-05-25_11h13.16.531,Main,2022.1.1,60.053026822666595,
positive,positive,1,l,j,,,,,,,,,5,3,93,2,,,,,,,,,,,,,,,,,,,,,,,,main,2,2,1,positive,positive,l,l,1,0.6349653000002036,278.2868951999999,279.30587909999986,279.2665913000001,None,278.2868951999999,None,278.2868951999999,None,278.2868951999999,None,279.90523752999997,None,279.90523752999997,None,279.90523752999997,None,,,,,,,,,,,224,24,Male,2022-05-25_11h13.16.531,Main,2022.1.1,60.053026822666595,
negative,positive,2,j,l,,,,,,,,,5,4,94,15,,,,,,,,,,,,,,,,,,,,,,,,main,2,2,2,positive,negative,j,j,1,0.8617130999996334,279.92898520000017,280.9434151999999,280.9048839000002,None,279.92898520000017,None,279.92898520000017,None,279.92898520000017,None,281.76771183,None,281.76771183,None,281.76771183,None,,,,,,,,,,,224,24,Male,2022-05-25_11h13.16.531,Main,2022.1.1,60.053026822666595,
neutral,negative,2,k,k,,,,,,,,,5,5,95,16,,,,,,,,,,,,,,,,,,,,,,,,main,2,2,2,negative,neutral,k,k,1,0.721255100000235,281.7876821,282.80420319999985,282.76616760000024,None,281.7876821,None,281.7876821,None,281.7876821,None,283.4923341300002,None,283.4923341300002,None,283.4923341300002,None,,,,,,,,,,,224,24,Male,2022-05-25_11h13.16.531,Main,2022.1.1,60.053026822666595,
positive,neutral,2,l,j,,,,,,,,,5,6,96,17,,,,,,,,,,,,,,,,,,,,,,,,main,2,2,2,neutral,positive,l,l,1,0.644222400000217,283.51446639999995,284.52464210000016,284.50545999999986,None,283.51446639999995,None,283.51446639999995,None,283.51446639999995,None,285.1424950299999,None,285.1424950299999,None,285.1424950299999,None,,,,,,,,,,,224,24,Male,2022-05-25_11h13.16.531,Main,2022.1.1,60.053026822666595,
negative,neutral,2,j,l,,,,,,,,,5,7,97,12,,,,,,,,,,,,,,,,,,,,,,,,main,1,1,2,neutral,negative,j,j,1,0.7617946000000302,285.1638247000001,286.18377039999996,286.1461248999999,None,285.1638247000001,None,285.1638247000001,None,285.1638247000001,None,286.9091011299999,None,286.9091011299999,None,286.9091011299999,None,,,,,,,,,,,224,24,Male,2022-05-25_11h13.16.531,Main,2022.1.1,60.053026822666595,
neutral,neutral,2,k,k,,,,,,,,,5,8,98,10,,,,,,,,,,,,,,,,,,,,,,,,main,1,1,2,neutral,neutral,k,k,1,0.6897107999998298,286.9297762000001,287.9346479999999,287.9157497000001,None,286.9297762000001,None,286.9297762000001,None,286.9297762000001,None,288.60343742999993,None,288.60343742999993,None,288.60343742999993,None,,,,,,,,,,,224,24,Male,2022-05-25_11h13.16.531,Main,2022.1.1,60.053026822666595,
neutral,neutral,1,k,k,,,,,,,,,5,9,99,1,,,,,,,,,,,,,,,,,,,,,,,,main,2,2,1,neutral,neutral,k,k,1,0.7051850999996532,288.62332130000004,289.64052029999993,289.62165460000006,None,288.62332130000004,None,288.62332130000004,None,288.62332130000004,None,290.31105993,None,290.31105993,None,290.31105993,None,,,,,,,,,,,224,24,Male,2022-05-25_11h13.16.531,Main,2022.1.1,60.053026822666595,
negative,negative,2,j,l,,,,,,,,,5,10,100,9,,,,,,,,,,,,,,,,,,,,,,,,main,1,1,2,negative,negative,j,j,1,0.6770225999998729,290.3315170999999,291.3402645000001,291.3204903000001,None,290.3315170999999,None,290.3315170999999,None,290.3315170999999,None,291.9919322299999,None,291.9919322299999,None,291.9919322299999,None,,,,,,,,,,,224,24,Male,2022-05-25_11h13.16.531,Main,2022.1.1,60.053026822666595,
neutral,positive,1,k,k,,,,,,,,,5,11,101,4,,,,,,,,,,,,,,,,,,,,,,,,main,2,2,1,positive,neutral,k,k,1,0.6531668999996327,292.0136010000001,293.03097849999995,292.99268789999996,None,292.0136010000001,None,292.0136010000001,None,292.0136010000001,None,293.6465319300002,None,293.6465319300002,None,293.6465319300002,None,,,,,,,,,,,224,24,Male,2022-05-25_11h13.16.531,Main,2022.1.1,60.053026822666595,
positive,negative,2,l,j,,,,,,,,,5,12,102,14,,,,,,,,,,,,,,,,,,,,,,,,main,1,1,2,negative,positive,l,l,1,0.7232261999997718,293.6667287999999,294.6859285999999,294.6481736999999,None,293.6667287999999,None,293.6667287999999,None,293.6667287999999,None,295.37419002999985,None,295.37419002999985,None,295.37419002999985,None,,,,,,,,,,,224,24,Male,2022-05-25_11h13.16.531,Main,2022.1.1,60.053026822666595,
neutral,negative,1,k,k,,,,,,,,,5,13,103,7,,,,,,,,,,,,,,,,,,,,,,,,main,1,1,1,negative,neutral,k,k,1,0.7162548999999672,295.3944563,296.39665700000023,296.3776349,None,295.3944563,None,295.3944563,None,295.3944563,None,297.09317673000004,None,297.09317673000004,None,297.09317673000004,None,,,,,,,,,,,224,24,Male,2022-05-25_11h13.16.531,Main,2022.1.1,60.053026822666595,
neutral,positive,2,k,k,,,,,,,,,5,14,104,13,,,,,,,,,,,,,,,,,,,,,,,,main,2,2,2,positive,neutral,k,k,1,0.6861683000001904,297.1141914,298.12469039999996,298.0854462000002,None,297.1141914,None,297.1141914,None,297.1141914,None,298.7817244300001,None,298.7817244300001,None,298.7817244300001,None,,,,,,,,,,,224,24,Male,2022-05-25_11h13.16.531,Main,2022.1.1,60.053026822666595,
positive,positive,2,l,j,,,,,,,,,5,15,105,11,,,,,,,,,,,,,,,,,,,,,,,,main,1,1,2,positive,positive,l,l,1,0.6642655000000559,298.80681730000015,299.81579509999983,299.7779694000001,None,298.80681730000015,None,298.80681730000015,None,298.80681730000015,None,300.44833693000027,None,300.44833693000027,None,300.44833693000027,None,,,,,,,,,,,224,24,Male,2022-05-25_11h13.16.531,Main,2022.1.1,60.053026822666595,
negative,neutral,1,j,l,,,,,,,,,5,16,106,3,,,,,,,,,,,,,,,,,,,,,,,,main,2,2,1,neutral,negative,j,j,1,0.6646749999999884,300.4692377000001,301.4834949000001,301.4457281,None,300.4692377000001,None,300.4692377000001,None,300.4692377000001,None,302.1151843300001,None,302.1151843300001,None,302.1151843300001,None,,,,,,,,,,,224,24,Male,2022-05-25_11h13.16.531,Main,2022.1.1,60.053026822666595,
positive,neutral,1,l,j,,,,,,,,,5,17,107,8,,,,,,,,,,,,,,,,,,,,,,,,main,1,1,1,neutral,positive,l,l,1,0.694431099999747,302.13589439999987,303.1453670000001,303.12617439999985,None,302.13589439999987,None,302.13589439999987,None,302.13589439999987,None,303.81222933,None,303.81222933,None,303.81222933,None,,,,,,,,,,,224,24,Male,2022-05-25_11h13.16.531,Main,2022.1.1,60.053026822666595,
negative,negative,1,j,l,,,,,,,,,6,0,108,0,,,,,,,,,,,,,,,,,,,,,,,,main,2,2,1,negative,negative,j,j,1,0.7303618999999344,303.8341359000001,304.8493446000002,304.8105836,None,303.8341359000001,None,303.8341359000001,None,303.8341359000001,None,305.5460960299999,None,305.5460960299999,None,305.5460960299999,None,,,,,,,,,,,224,24,Male,2022-05-25_11h13.16.531,Main,2022.1.1,60.053026822666595,
negative,positive,1,j,l,,,,,,,,,6,1,109,6,,,,,,,,,,,,,,,,,,,,,,,,main,2,2,1,positive,negative,j,j,1,0.7772936999999729,305.57090689999995,306.57370619999983,306.5541837999999,None,305.57090689999995,None,305.57090689999995,None,305.57090689999995,None,307.3262043299998,None,307.3262043299998,None,307.3262043299998,None,,,,,,,,,,,224,24,Male,2022-05-25_11h13.16.531,Main,2022.1.1,60.053026822666595,
positive,negative,2,l,j,,,,,,,,,6,2,110,14,,,,,,,,,,,,,,,,,,,,,,,,main,1,1,2,negative,positive,l,l,1,0.7743405999999595,307.3464233999998,308.3601530000001,308.3407053000001,None,307.3464233999998,None,307.3464233999998,None,307.3464233999998,None,309.10503983000007,None,309.10503983000007,None,309.10503983000007,None,,,,,,,,,,,224,24,Male,2022-05-25_11h13.16.531,Main,2022.1.1,60.053026822666595,
neutral,positive,1,k,k,,,,,,,,,6,3,111,4,,,,,,,,,,,,,,,,,,,,,,,,main,2,2,1,positive,neutral,k,k,1,0.6437356999999793,309.1254021,310.1369331000001,310.0984434000002,None,309.1254021,None,309.1254021,None,309.1254021,None,310.74894003000026,None,310.74894003000026,None,310.74894003000026,None,,,,,,,,,,,224,24,Male,2022-05-25_11h13.16.531,Main,2022.1.1,60.053026822666595,
positive,positive,2,l,j,,,,,,,,,6,4,112,11,,,,,,,,,,,,,,,,,,,,,,,,main,2,2,2,positive,positive,l,l,1,0.6810560000003534,310.76990079999996,311.7795959,311.7607948,None,310.76990079999996,None,310.76990079999996,None,310.76990079999996,None,312.43443193,None,312.43443193,None,312.43443193,None,,,,,,,,,,,224,24,Male,2022-05-25_11h13.16.531,Main,2022.1.1,60.053026822666595,
positive,neutral,2,l,j,,,,,,,,,6,5,113,17,,,,,,,,,,,,,,,,,,,,,,,,main,2,2,2,neutral,positive,l,l,1,0.5977009000002909,312.45450010000013,313.4618752000001,313.4428238999999,None,312.45450010000013,None,312.45450010000013,None,312.45450010000013,None,314.0345439300001,None,314.0345439300001,None,314.0345439300001,None,,,,,,,,,,,224,24,Male,2022-05-25_11h13.16.531,Main,2022.1.1,60.053026822666595,
negative,negative,2,j,l,,,,,,,,,6,6,114,9,,,,,,,,,,,,,,,,,,,,,,,,main,1,1,2,negative,negative,j,j,1,0.7253104999999778,314.05486870000004,315.07563560000017,315.0368134999999,None,314.05486870000004,None,314.05486870000004,None,314.05486870000004,None,315.7608614299999,None,315.7608614299999,None,315.7608614299999,None,,,,,,,,,,,224,24,Male,2022-05-25_11h13.16.531,Main,2022.1.1,60.053026822666595,
negative,neutral,2,j,l,,,,,,,,,6,7,115,12,,,,,,,,,,,,,,,,,,,,,,,,main,1,1,2,neutral,negative,j,j,1,0.6373836999996456,315.78169000000025,316.7903993,316.7711703,None,315.78169000000025,None,315.78169000000025,None,315.78169000000025,None,317.40249203,None,317.40249203,None,317.40249203,None,,,,,,,,,,,224,24,Male,2022-05-25_11h13.16.531,Main,2022.1.1,60.053026822666595,
neutral,positive,2,k,k,,,,,,,,,6,8,116,13,,,,,,,,,,,,,,,,,,,,,,,,main,2,2,2,positive,neutral,k,k,1,0.690802800000256,317.4230864000001,318.4400596999999,318.40138460000026,None,317.4230864000001,None,317.4230864000001,None,317.4230864000001,None,319.0940680300002,None,319.0940680300002,None,319.0940680300002,None,,,,,,,,,,,224,24,Male,2022-05-25_11h13.16.531,Main,2022.1.1,60.053026822666595,
neutral,neutral,2,k,k,,,,,,,,,6,9,117,10,,,,,,,,,,,,,,,,,,,,,,,,main,1,1,2,neutral,neutral,k,k,1,0.6320399000001089,319.11453960000017,320.12896550000005,320.0910308000002,None,319.11453960000017,None,319.11453960000017,None,319.11453960000017,None,320.7286000300002,None,320.7286000300002,None,320.7286000300002,None,,,,,,,,,,,224,24,Male,2022-05-25_11h13.16.531,Main,2022.1.1,60.053026822666595,
positive,positive,1,l,j,,,,,,,,,6,10,118,2,,,,,,,,,,,,,,,,,,,,,,,,main,1,1,1,positive,positive,l,l,1,0.6639221999998881,320.749182,321.75680250000005,321.7367393999998,None,320.749182,None,320.749182,None,320.749182,None,322.39481042999995,None,322.39481042999995,None,322.39481042999995,None,,,,,,,,,,,224,24,Male,2022-05-25_11h13.16.531,Main,2022.1.1,60.053026822666595,
neutral,neutral,1,k,k,,,,,,,,,6,11,119,1,,,,,,,,,,,,,,,,,,,,,,,,main,1,1,1,neutral,neutral,k,k,1,0.6488838000000214,322.4149717999999,323.41632849999996,323.39761,None,322.4149717999999,None,322.4149717999999,None,322.4149717999999,None,324.0466213299998,None,324.0466213299998,None,324.0466213299998,None,,,,,,,,,,,224,24,Male,2022-05-25_11h13.16.531,Main,2022.1.1,60.053026822666595,
negative,neutral,1,j,l,,,,,,,,,6,12,120,3,,,,,,,,,,,,,,,,,,,,,,,,main,2,2,1,neutral,negative,j,j,1,0.77179679999972,324.0671149,325.0786604,325.0402441000001,None,324.0671149,None,324.0671149,None,324.0671149,None,325.82293763000024,None,325.82293763000024,None,325.82293763000024,None,,,,,,,,,,,224,24,Male,2022-05-25_11h13.16.531,Main,2022.1.1,60.053026822666595,
negative,positive,2,j,l,,,,,,,,,6,13,121,15,,,,,,,,,,,,,,,,,,,,,,,,main,1,1,2,positive,negative,j,j,1,0.792148300000008,325.8431949999999,326.85180100000025,326.8327499000002,None,325.8431949999999,None,325.8431949999999,None,325.8431949999999,None,327.6181188299999,None,327.6181188299999,None,327.6181188299999,None,,,,,,,,,,,224,24,Male,2022-05-25_11h13.16.531,Main,2022.1.1,60.053026822666595,
neutral,negative,2,k,k,,,,,,,,,6,14,122,16,,,,,,,,,,,,,,,,,,,,,,,,main,2,2,2,negative,neutral,k,k,1,0.6830556999998407,327.63925610000024,328.64745059999996,328.6284919999998,None,327.63925610000024,None,327.63925610000024,None,327.63925610000024,None,329.3041810299998,None,329.3041810299998,None,329.3041810299998,None,,,,,,,,,,,224,24,Male,2022-05-25_11h13.16.531,Main,2022.1.1,60.053026822666595,
positive,neutral,1,l,j,,,,,,,,,6,15,123,8,,,,,,,,,,,,,,,,,,,,,,,,main,2,2,1,neutral,positive,l,l,1,0.6502212000000327,329.32581230000005,330.32741350000015,330.3084288,None,329.32581230000005,None,329.32581230000005,None,329.32581230000005,None,330.95695653,None,330.95695653,None,330.95695653,None,,,,,,,,,,,224,24,Male,2022-05-25_11h13.16.531,Main,2022.1.1,60.053026822666595,
neutral,negative,1,k,k,,,,,,,,,6,16,124,7,,,,,,,,,,,,,,,,,,,,,,,,main,1,1,1,negative,neutral,k,k,1,0.6736736000002566,330.97900930000014,331.98309329999984,331.96419689999993,None,330.97900930000014,None,330.97900930000014,None,330.97900930000014,None,332.6358972300001,None,332.6358972300001,None,332.6358972300001,None,,,,,,,,,,,224,24,Male,2022-05-25_11h13.16.531,Main,2022.1.1,60.053026822666595,
positive,negative,1,l,j,,,,,,,,,6,17,125,5,,,,,,,,,,,,,,,,,,,,,,,,main,2,2,1,negative,positive,l,l,1,0.6769978000002084,332.65739859999985,333.66124360000003,333.64222299999983,None,332.65739859999985,None,332.65739859999985,None,332.65739859999985,None,334.3180761300002,None,334.3180761300002,None,334.3180761300002,None,,,,,,,,,,,224,24,Male,2022-05-25_11h13.16.531,Main,2022.1.1,60.053026822666595,
negative,positive,2,j,l,,,,,,,,,7,0,126,15,,,,,,,,,,,,,,,,,,,,,,,,main,2,2,2,positive,negative,j,j,1,0.8079558999997971,334.3399608,335.3568448000001,335.3171403000001,None,334.3399608,None,334.3399608,None,334.3399608,None,336.1267940300001,None,336.1267940300001,None,336.1267940300001,None,,,,,,,,,,,224,24,Male,2022-05-25_11h13.16.531,Main,2022.1.1,60.053026822666595,
neutral,positive,1,k,k,,,,,,,,,7,1,127,4,,,,,,,,,,,,,,,,,,,,,,,,main,2,2,1,positive,neutral,k,k,1,0.6515678000000662,336.146937,337.1668794000002,337.12813830000005,None,336.146937,None,336.146937,None,336.146937,None,337.78247013000026,None,337.78247013000026,None,337.78247013000026,None,,,,,,,,,,,224,24,Male,2022-05-25_11h13.16.531,Main,2022.1.1,60.053026822666595,
positive,positive,1,l,j,,,,,,,,,7,2,128,2,,,,,,,,,,,,,,,,,,,,,,,,main,2,2,1,positive,positive,l,l,1,0.7433721000002151,337.80582830000003,338.82023400000026,338.7800857000002,None,337.80582830000003,None,337.80582830000003,None,337.80582830000003,None,339.52641973,None,339.52641973,None,339.52641973,None,,,,,,,,,,,224,24,Male,2022-05-25_11h13.16.531,Main,2022.1.1,60.053026822666595,
neutral,negative,2,k,k,,,,,,,,,7,3,129,16,,,,,,,,,,,,,,,,,,,,,,,,main,2,2,2,negative,neutral,k,k,1,0.6470616999999947,339.54654519999985,340.56196520000003,340.524277,None,339.54654519999985,None,339.54654519999985,None,339.54654519999985,None,341.1756213300002,None,341.1756213300002,None,341.1756213300002,None,,,,,,,,,,,224,24,Male,2022-05-25_11h13.16.531,Main,2022.1.1,60.053026822666595,
negative,negative,1,j,l,,,,,,,,,7,4,130,0,,,,,,,,,,,,,,,,,,,,,,,,main,2,2,1,negative,negative,j,j,1,0.7338569999997162,341.19664490000014,342.20772399999987,342.1888414,None,341.19664490000014,None,341.19664490000014,None,341.19664490000014,None,342.91250203,None,342.91250203,None,342.91250203,None,,,,,,,,,,,224,24,Male,2022-05-25_11h13.16.531,Main,2022.1.1,60.053026822666595,
neutral,negative,1,k,k,,,,,,,,,7,5,131,7,,,,,,,,,,,,,,,,,,,,,,,,main,1,1,1,negative,neutral,k,k,1,0.7609999000001153,342.9333747999999,343.93719869999995,343.9162627999999,None,342.9333747999999,None,342.9333747999999,None,342.9333747999999,None,344.6765304299999,None,344.6765304299999,None,344.6765304299999,None,,,,,,,,,,,224,24,Male,2022-05-25_11h13.16.531,Main,2022.1.1,60.053026822666595,
neutral,neutral,2,k,k,,,,,,,,,7,6,132,10,,,,,,,,,,,,,,,,,,,,,,,,main,2,2,2,neutral,neutral,k,k,1,0.715460300000359,344.6981409,345.70559760000015,345.68518399999994,None,344.6981409,None,344.6981409,None,344.6981409,None,346.39633582999994,None,346.39633582999994,None,346.39633582999994,None,,,,,,,,,,,224,24,Male,2022-05-25_11h13.16.531,Main,2022.1.1,60.053026822666595,
positive,neutral,1,l,j,,,,,,,,,7,7,133,8,,,,,,,,,,,,,,,,,,,,,,,,main,1,1,1,neutral,positive,l,l,1,0.7484485999998469,346.41618560000006,347.42597490000026,347.38936220000005,None,346.41618560000006,None,346.41618560000006,None,346.41618560000006,None,348.14778153000015,None,348.14778153000015,None,348.14778153000015,None,,,,,,,,,,,224,24,Male,2022-05-25_11h13.16.531,Main,2022.1.1,60.053026822666595,
negative,positive,1,j,l,,,,,,,,,7,8,134,6,,,,,,,,,,,,,,,,,,,,,,,,main,2,2,1,positive,negative,j,j,1,0.8137830999999096,348.1679942999999,349.1765863999999,349.15763419999985,None,348.1679942999999,None,348.1679942999999,None,348.1679942999999,None,349.96434573000005,None,349.96434573000005,None,349.96434573000005,None,,,,,,,,,,,224,24,Male,2022-05-25_11h13.16.531,Main,2022.1.1,60.053026822666595,
neutral,neutral,1,k,k,,,,,,,,,7,9,135,1,,,,,,,,,,,,,,,,,,,,,,,,main,1,1,1,neutral,neutral,k,k,1,0.6994803000002321,349.98461540000017,350.98794369999996,350.96848869999985,None,349.98461540000017,None,349.98461540000017,None,349.98461540000017,None,351.66471783000014,None,351.66471783000014,None,351.66471783000014,None,,,,,,,,,,,224,24,Male,2022-05-25_11h13.16.531,Main,2022.1.1,60.053026822666595,
positive,negative,1,l,j,,,,,,,,,7,10,136,5,,,,,,,,,,,,,,,,,,,,,,,,main,2,2,1,negative,positive,l,l,1,0.7578045000000202,351.6864525000001,352.69480569999996,352.6755853999998,None,351.6864525000001,None,351.6864525000001,None,351.6864525000001,None,353.42477622999985,None,353.42477622999985,None,353.42477622999985,None,,,,,,,,,,,224,24,Male,2022-05-25_11h13.16.531,Main,2022.1.1,60.053026822666595,
positive,neutral,2,l,j,,,,,,,,,7,11,137,17,,,,,,,,,,,,,,,,,,,,,,,,main,2,2,2,neutral,positive,l,l,1,0.7375598000003265,353.44523230000004,354.45967610000025,354.42074809999986,None,353.44523230000004,None,353.44523230000004,None,353.44523230000004,None,355.1663710300001,None,355.1663710300001,None,355.1663710300001,None,,,,,,,,,,,224,24,Male,2022-05-25_11h13.16.531,Main,2022.1.1,60.053026822666595,
positive,positive,2,l,j,,,,,,,,,7,12,138,11,,,,,,,,,,,,,,,,,,,,,,,,main,2,2,2,positive,positive,l,l,1,0.725995199999943,355.18646130000025,356.1999205000002,356.16149529999984,None,355.18646130000025,None,355.18646130000025,None,355.18646130000025,None,356.89511022999994,None,356.89511022999994,None,356.89511022999994,None,,,,,,,,,,,224,24,Male,2022-05-25_11h13.16.531,Main,2022.1.1,60.053026822666595,
neutral,positive,2,k,k,,,,,,,,,7,13,139,13,,,,,,,,,,,,,,,,,,,,,,,,main,2,2,2,positive,neutral,k,k,1,0.7451871000002939,356.9153713999999,357.9278098,357.89016279999987,None,356.9153713999999,None,356.9153713999999,None,356.9153713999999,None,358.64081933000006,None,358.64081933000006,None,358.64081933000006,None,,,,,,,,,,,224,24,Male,2022-05-25_11h13.16.531,Main,2022.1.1,60.053026822666595,
negative,neutral,1,j,l,,,,,,,,,7,14,140,3,,,,,,,,,,,,,,,,,,,,,,,,main,1,1,1,neutral,negative,j,j,1,0.7785339000001841,358.66503950000015,359.67176010000003,359.6527053,None,358.66503950000015,None,358.66503950000015,None,358.66503950000015,None,360.4220387299999,None,360.4220387299999,None,360.4220387299999,None,,,,,,,,,,,224,24,Male,2022-05-25_11h13.16.531,Main,2022.1.1,60.053026822666595,
positive,negative,2,l,j,,,,,,,,,7,15,141,14,,,,,,,,,,,,,,,,,,,,,,,,main,1,1,2,negative,positive,l,l,1,0.8847666000001482,360.4422883000002,361.44854680000026,361.4293075999999,None,360.4422883000002,None,360.4422883000002,None,360.4422883000002,None,362.3112690300001,None,362.3112690300001,None,362.3112690300001,None,,,,,,,,,,,224,24,Male,2022-05-25_11h13.16.531,Main,2022.1.1,60.053026822666595,
negative,negative,2,j,l,,,,,,,,,7,16,142,9,,,,,,,,,,,,,,,,,,,,,,,,main,2,2,2,negative,negative,j,j,1,0.7980047999999442,362.3312197,363.3339013,363.31443290000016,None,362.3312197,None,362.3312197,None,362.3312197,None,364.1100595300001,None,364.1100595300001,None,364.1100595300001,None,,,,,,,,,,,224,24,Male,2022-05-25_11h13.16.531,Main,2022.1.1,60.053026822666595,
negative,neutral,2,j,l,,,,,,,,,7,17,143,12,,,,,,,,,,,,,,,,,,,,,,,,main,2,2,2,neutral,negative,j,j,1,0.7455426999999872,364.13030260000005,365.14692079999986,365.107223,None,364.13030260000005,None,364.13030260000005,None,364.13030260000005,None,365.85811932999985,None,365.85811932999985,None,365.85811932999985,None,,,,,,,,,,,224,24,Male,2022-05-25_11h13.16.531,Main,2022.1.1,60.053026822666595,
negative,negative,1,j,l,,,,,,,,,8,0,144,0,,,,,,,,,,,,,,,,,,,,,,,,main,1,1,1,negative,negative,j,j,1,0.7453054000002339,365.88045120000015,366.89220680000017,366.8543273,None,365.88045120000015,None,365.88045120000015,None,365.88045120000015,None,367.60561603000014,None,367.60561603000014,None,367.60561603000014,None,,,,,,,,,,,224,24,Male,2022-05-25_11h13.16.531,Main,2022.1.1,60.053026822666595,
neutral,positive,1,k,k,,,,,,,,,8,1,145,4,,,,,,,,,,,,,,,,,,,,,,,,main,2,2,1,positive,neutral,k,k,1,0.723602199999732,367.6253634999998,368.6434091000001,368.6054122999999,None,367.6253634999998,None,367.6253634999998,None,367.6253634999998,None,369.33386373,None,369.33386373,None,369.33386373,None,,,,,,,,,,,224,24,Male,2022-05-25_11h13.16.531,Main,2022.1.1,60.053026822666595,
positive,positive,2,l,j,,,,,,,,,8,2,146,11,,,,,,,,,,,,,,,,,,,,,,,,main,2,2,2,positive,positive,l,l,1,0.7564831999998205,369.3574702000001,370.3638200999999,370.3442531999999,None,369.3574702000001,None,369.3574702000001,None,369.3574702000001,None,371.09596383000024,None,371.09596383000024,None,371.09596383000024,None,,,,,,,,,,,224,24,Male,2022-05-25_11h13.16.531,Main,2022.1.1,60.053026822666595,
negative,positive,1,j,l,,,,,,,,,8,3,147,6,,,,,,,,,,,,,,,,,,,,,,,,main,2,2,1,positive,negative,j,j,1,0.8087135000000671,371.11880789999987,372.13943340000014,372.10005920000003,None,371.11880789999987,None,371.11880789999987,None,371.11880789999987,None,372.9053559300002,None,372.9053559300002,None,372.9053559300002,None,,,,,,,,,,,224,24,Male,2022-05-25_11h13.16.531,Main,2022.1.1,60.053026822666595,
positive,positive,1,l,j,,,,,,,,,8,4,148,2,,,,,,,,,,,,,,,,,,,,,,,,main,2,2,1,positive,positive,l,l,1,0.7139786000002459,372.92573859999993,373.94032670000024,373.90213300000005,None,372.92573859999993,None,372.92573859999993,None,372.92573859999993,None,374.62167053,None,374.62167053,None,374.62167053,None,,,,,,,,,,,224,24,Male,2022-05-25_11h13.16.531,Main,2022.1.1,60.053026822666595,
negative,negative,2,j,l,,,,,,,,,8,5,149,9,,,,,,,,,,,,,,,,,,,,,,,,main,2,2,2,negative,negative,j,j,1,0.7329690999999912,374.6419390000001,375.6513550999998,375.6323004000001,None,374.6419390000001,None,374.6419390000001,None,374.6419390000001,None,376.35563853,None,376.35563853,None,376.35563853,None,,,,,,,,,,,224,24,Male,2022-05-25_11h13.16.531,Main,2022.1.1,60.053026822666595,
negative,neutral,1,j,l,,,,,,,,,8,6,150,3,,,,,,,,,,,,,,,,,,,,,,,,main,1,1,1,neutral,negative,j,j,1,1.165032699999756,376.3774019000002,377.3791176,377.36010269999997,None,376.3774019000002,None,376.3774019000002,None,376.3774019000002,None,378.5250593299999,None,378.5250593299999,None,378.5250593299999,None,,,,,,,,,,,224,24,Male,2022-05-25_11h13.16.531,Main,2022.1.1,60.053026822666595,
negative,neutral,2,j,l,,,,,,,,,8,7,151,12,,,,,,,,,,,,,,,,,,,,,,,,main,2,2,2,neutral,negative,j,j,1,0.7600372000001698,378.5490970999999,379.56032240000013,379.53208270000005,None,378.5490970999999,None,378.5490970999999,None,378.5490970999999,None,380.28770473000003,None,380.28770473000003,None,380.28770473000003,None,,,,,,,,,,,224,24,Male,2022-05-25_11h13.16.531,Main,2022.1.1,60.053026822666595,
positive,negative,1,l,j,,,,,,,,,8,8,152,5,,,,,,,,,,,,,,,,,,,,,,,,main,1,1,1,negative,positive,l,l,1,0.7143126999999367,380.3092984,381.3226055,381.2844322000001,None,380.3092984,None,380.3092984,None,380.3092984,None,382.0034650300001,None,382.0034650300001,None,382.0034650300001,None,,,,,,,,,,,224,24,Male,2022-05-25_11h13.16.531,Main,2022.1.1,60.053026822666595,
neutral,positive,2,k,k,,,,,,,,,8,9,153,13,,,,,,,,,,,,,,,,,,,,,,,,main,2,2,2,positive,neutral,k,k,1,0.8834523999998964,382.0261863999999,383.04213149999987,383.0044819,None,382.0261863999999,None,382.0261863999999,None,382.0261863999999,None,383.89034683000017,None,383.89034683000017,None,383.89034683000017,None,,,,,,,,,,,224,24,Male,2022-05-25_11h13.16.531,Main,2022.1.1,60.053026822666595,
neutral,neutral,2,k,k,,,,,,,,,8,10,154,10,,,,,,,,,,,,,,,,,,,,,,,,main,2,2,2,neutral,neutral,k,k,1,0.6610074999998687,383.91140499999983,384.9243298000001,384.8865786000001,None,383.91140499999983,None,383.91140499999983,None,383.91140499999983,None,385.5541055300002,None,385.5541055300002,None,385.5541055300002,None,,,,,,,,,,,224,24,Male,2022-05-25_11h13.16.531,Main,2022.1.1,60.053026822666595,
neutral,negative,1,k,k,,,,,,,,,8,11,155,7,,,,,,,,,,,,,,,,,,,,,,,,main,2,2,1,negative,neutral,k,k,1,0.6943135999999868,385.5749724000002,386.57853239999986,386.55959239999993,None,385.5749724000002,None,385.5749724000002,None,385.5749724000002,None,387.2514708300002,None,387.2514708300002,None,387.2514708300002,None,,,,,,,,,,,224,24,Male,2022-05-25_11h13.16.531,Main,2022.1.1,60.053026822666595,
positive,negative,2,l,j,,,,,,,,,8,12,156,14,,,,,,,,,,,,,,,,,,,,,,,,main,2,2,2,negative,positive,l,l,1,1.2777569999998377,387.27134849999993,388.2893417999999,388.25109280000015,None,387.27134849999993,None,387.27134849999993,None,387.27134849999993,None,389.53265553,None,389.53265553,None,389.53265553,None,,,,,,,,,,,224,24,Male,2022-05-25_11h13.16.531,Main,2022.1.1,60.053026822666595,
positive,neutral,2,l,j,,,,,,,,,8,13,157,17,,,,,,,,,,,,,,,,,,,,,,,,main,2,2,2,neutral,positive,l,l,1,0.6270114999997531,389.5540221000001,390.57034909999993,390.5331156000002,None,389.5540221000001,None,389.5540221000001,None,389.5540221000001,None,391.1646504299999,None,391.1646504299999,None,391.1646504299999,None,,,,,,,,,,,224,24,Male,2022-05-25_11h13.16.531,Main,2022.1.1,60.053026822666595,
positive,neutral,1,l,j,,,,,,,,,8,14,158,8,,,,,,,,,,,,,,,,,,,,,,,,main,2,2,1,neutral,positive,l,l,1,0.6751958999998351,391.1860597,392.19422840000016,392.1747998000001,None,391.1860597,None,391.1860597,None,391.1860597,None,392.8446784300001,None,392.8446784300001,None,392.8446784300001,None,,,,,,,,,,,224,24,Male,2022-05-25_11h13.16.531,Main,2022.1.1,60.053026822666595,
neutral,neutral,1,k,k,,,,,,,,,8,15,159,1,,,,,,,,,,,,,,,,,,,,,,,,main,2,2,1,neutral,neutral,k,k,1,0.6635624000000462,392.8655042999999,393.87702309999986,393.8385376000001,None,392.8655042999999,None,392.8655042999999,None,392.8655042999999,None,394.5105828299999,None,394.5105828299999,None,394.5105828299999,None,,,,,,,,,,,224,24,Male,2022-05-25_11h13.16.531,Main,2022.1.1,60.053026822666595,
negative,positive,2,j,l,,,,,,,,,8,16,160,15,,,,,,,,,,,,,,,,,,,,,,,,main,1,1,2,positive,negative,j,j,1,0.6110623999998097,394.53232549999984,395.55038190000005,395.51215219999995,None,394.53232549999984,None,394.53232549999984,None,394.53232549999984,None,396.1237305299998,None,396.1237305299998,None,396.1237305299998,None,,,,,,,,,,,224,24,Male,2022-05-25_11h13.16.531,Main,2022.1.1,60.053026822666595,
neutral,negative,2,k,k,,,,,,,,,8,17,161,16,,,,,,,,,,,,,,,,,,,,,,,,main,1,1,2,negative,neutral,k,k,1,0.8525101999998697,396.14305890000014,397.1561660000002,397.121122,None,396.14305890000014,None,396.14305890000014,None,396.14305890000014,None,397.9792205300002,None,397.9792205300002,None,397.9792205300002,None,,,,,,,,,,,224,24,Male,2022-05-25_11h13.16.531,Main,2022.1.1,60.053026822666595,
positive,neutral,1,l,j,,,,,,,,,9,0,162,8,,,,,,,,,,,,,,,,,,,,,,,,main,2,2,1,neutral,positive,l,l,1,0.6522299000002931,398.0001278999998,399.0102041,398.9895769999998,None,398.0001278999998,None,398.0001278999998,None,398.0001278999998,None,399.63321122999986,None,399.63321122999986,None,399.63321122999986,None,,,,,,,,,,,224,24,Male,2022-05-25_11h13.16.531,Main,2022.1.1,60.053026822666595,
negative,neutral,2,j,l,,,,,,,,,9,1,163,12,,,,,,,,,,,,,,,,,,,,,,,,main,2,2,2,neutral,negative,j,j,1,0.7973833000000923,399.65370970000004,400.6646347000001,400.6459298,None,399.65370970000004,None,399.65370970000004,None,399.65370970000004,None,401.43323763000006,None,401.43323763000006,None,401.43323763000006,None,,,,,,,,,,,224,24,Male,2022-05-25_11h13.16.531,Main,2022.1.1,60.053026822666595,
neutral,negative,2,k,k,,,,,,,,,9,2,164,16,,,,,,,,,,,,,,,,,,,,,,,,main,2,2,2,negative,neutral,k,k,1,0.7135148000002118,401.45361600000024,402.4617911,402.44253690000005,None,401.45361600000024,None,401.45361600000024,None,401.45361600000024,None,403.14904773000006,None,403.14904773000006,None,403.14904773000006,None,,,,,,,,,,,224,24,Male,2022-05-25_11h13.16.531,Main,2022.1.1,60.053026822666595,
negative,positive,1,j,l,,,,,,,,,9,3,165,6,,,,,,,,,,,,,,,,,,,,,,,,main,1,1,1,positive,negative,j,j,1,0.7090390000003026,403.16974519999985,404.1873793999998,404.1497263000001,None,403.16974519999985,None,403.16974519999985,None,403.16974519999985,None,404.8631726300002,None,404.8631726300002,None,404.8631726300002,None,,,,,,,,,,,224,24,Male,2022-05-25_11h13.16.531,Main,2022.1.1,60.053026822666595,
neutral,neutral,2,k,k,,,,,,,,,9,4,166,10,,,,,,,,,,,,,,,,,,,,,,,,main,2,2,2,neutral,neutral,k,k,1,0.6832193000000188,404.8846125,405.90023440000004,405.8620248000002,None,404.8846125,None,404.8846125,None,404.8846125,None,406.5489069299999,None,406.5489069299999,None,406.5489069299999,None,,,,,,,,,,,224,24,Male,2022-05-25_11h13.16.531,Main,2022.1.1,60.053026822666595,
negative,negative,1,j,l,,,,,,,,,9,5,167,0,,,,,,,,,,,,,,,,,,,,,,,,main,1,1,1,negative,negative,j,j,1,0.8872544000000744,406.5698421000002,407.5747658999999,407.5554382999999,None,406.5698421000002,None,406.5698421000002,None,406.5698421000002,None,408.4395855300001,None,408.4395855300001,None,408.4395855300001,None,,,,,,,,,,,224,24,Male,2022-05-25_11h13.16.531,Main,2022.1.1,60.053026822666595,
negative,negative,2,j,l,,,,,,,,,9,6,168,9,,,,,,,,,,,,,,,,,,,,,,,,main,2,2,2,negative,negative,j,j,1,0.7697732999999971,408.4605141000002,409.4630695000001,409.4442871000001,None,408.4605141000002,None,408.4605141000002,None,408.4605141000002,None,410.2102464299998,None,410.2102464299998,None,410.2102464299998,None,,,,,,,,,,,224,24,Male,2022-05-25_11h13.16.531,Main,2022.1.1,60.053026822666595,
positive,neutral,2,l,j,,,,,,,,,9,7,169,17,,,,,,,,,,,,,,,,,,,,,,,,main,1,1,2,neutral,positive,l,l,1,0.825608099999954,410.2454935999999,411.2584059999999,411.2396967999998,None,410.2454935999999,None,410.2454935999999,None,410.2454935999999,None,412.0433754299999,None,412.0433754299999,None,412.0433754299999,None,,,,,,,,,,,224,24,Male,2022-05-25_11h13.16.531,Main,2022.1.1,60.053026822666595,
negative,positive,2,j,l,,,,,,,,,9,8,170,15,,,,,,,,,,,,,,,,,,,,,,,,main,1,1,2,positive,negative,j,l,0,0.6169137000001683,412.064527,413.0716941999999,413.0524989999999,None,412.064527,None,412.064527,None,412.064527,None,413.6696390000002,None,413.6696390000002,None,413.6696390000002,None,,,,,,,,,,,224,24,Male,2022-05-25_11h13.16.531,Main,2022.1.1,60.053026822666595,
neutral,negative,1,k,k,,,,,,,,,9,9,171,7,,,,,,,,,,,,,,,,,,,,,,,,main,2,2,1,negative,neutral,k,k,1,0.720220899999731,414.6859935000002,415.6913473999998,415.6711236000001,None,414.6859935000002,None,414.6859935000002,None,414.6859935000002,None,416.38549093,None,416.38549093,None,416.38549093,None,,,,,,,,,,,224,24,Male,2022-05-25_11h13.16.531,Main,2022.1.1,60.053026822666595,
neutral,positive,2,k,k,,,,,,,,,9,10,172,13,,,,,,,,,,,,,,,,,,,,,,,,main,2,2,2,positive,neutral,k,k,1,0.5767077000000427,416.40700830000014,417.4224127000002,417.3841421000002,None,416.40700830000014,None,416.40700830000014,None,416.40700830000014,None,417.9639660300001,None,417.9639660300001,None,417.9639660300001,None,,,,,,,,,,,224,24,Male,2022-05-25_11h13.16.531,Main,2022.1.1,60.053026822666595,
positive,negative,1,l,j,,,,,,,,,9,11,173,5,,,,,,,,,,,,,,,,,,,,,,,,main,2,2,1,negative,positive,l,l,1,0.7673428000002787,417.9857665999998,419.0013121000002,418.96356830000013,None,417.9857665999998,None,417.9857665999998,None,417.9857665999998,None,419.73524513,None,419.73524513,None,419.73524513,None,,,,,,,,,,,224,24,Male,2022-05-25_11h13.16.531,Main,2022.1.1,60.053026822666595,
positive,positive,2,l,j,,,,,,,,,9,12,174,11,,,,,,,,,,,,,,,,,,,,,,,,main,1,1,2,positive,positive,l,l,1,0.7915660999997272,419.75593549999985,420.76556119999987,420.74682200000007,None,419.75593549999985,None,419.75593549999985,None,419.75593549999985,None,421.5290019300002,None,421.5290019300002,None,421.5290019300002,None,,,,,,,,,,,224,24,Male,2022-05-25_11h13.16.531,Main,2022.1.1,60.053026822666595,
neutral,neutral,1,k,k,,,,,,,,,9,13,175,1,,,,,,,,,,,,,,,,,,,,,,,,main,2,2,1,neutral,neutral,k,k,1,0.714374399999997,421.5495286999999,422.55707699999994,422.53668319999997,None,421.5495286999999,None,421.5495286999999,None,421.5495286999999,None,423.24700133000005,None,423.24700133000005,None,423.24700133000005,None,,,,,,,,,,,224,24,Male,2022-05-25_11h13.16.531,Main,2022.1.1,60.053026822666595,
neutral,positive,1,k,k,,,,,,,,,9,14,176,4,,,,,,,,,,,,,,,,,,,,,,,,main,1,1,1,positive,neutral,k,k,1,0.6158426000001782,423.2685486999999,424.2700933000001,424.2514474999998,None,423.2685486999999,None,423.2685486999999,None,423.2685486999999,None,424.86468742999995,None,424.86468742999995,None,424.86468742999995,None,,,,,,,,,,,224,24,Male,2022-05-25_11h13.16.531,Main,2022.1.1,60.053026822666595,
positive,positive,1,l,j,,,,,,,,,9,15,177,2,,,,,,,,,,,,,,,,,,,,,,,,main,2,2,1,positive,positive,l,l,1,0.6889998999999989,424.8857658000002,425.90326110000024,425.8657376000001,None,424.8857658000002,None,424.8857658000002,None,424.8857658000002,None,426.55805243000003,None,426.55805243000003,None,426.55805243000003,None,,,,,,,,,,,224,24,Male,2022-05-25_11h13.16.531,Main,2022.1.1,60.053026822666595,
negative,neutral,1,j,l,,,,,,,,,9,16,178,3,,,,,,,,,,,,,,,,,,,,,,,,main,2,2,1,neutral,negative,j,j,1,0.7566335999999865,426.57790639999985,427.58904040000016,427.5522516000001,None,426.57790639999985,None,426.57790639999985,None,426.57790639999985,None,428.31512683,None,428.31512683,None,428.31512683,None,,,,,,,,,,,224,24,Male,2022-05-25_11h13.16.531,Main,2022.1.1,60.053026822666595,
positive,negative,2,l,j,,,,,,,,,9,17,179,14,,,,,,,,,,,,,,,,,,,,,,,,main,1,1,2,negative,positive,l,l,1,0.6434067000000141,428.33666189999985,429.3517846,429.3149889000001,None,428.33666189999985,None,428.33666189999985,None,428.33666189999985,None,429.9610820300001,None,429.9610820300001,None,429.9610820300001,None,,,,,,,,,,,224,24,Male,2022-05-25_11h13.16.531,Main,2022.1.1,60.053026822666595,
positive,negative,1,l,j,,,,,,,,,10,0,180,5,,,,,,,,,,,,,,,,,,,,,,,,main,2,2,1,negative,positive,l,l,1,0.6902439000000413,429.98426400000017,430.99811809999983,430.96076300000004,None,429.98426400000017,None,429.98426400000017,None,429.98426400000017,None,431.65531622999987,None,431.65531622999987,None,431.65531622999987,None,,,,,,,,,,,224,24,Male,2022-05-25_11h13.16.531,Main,2022.1.1,60.053026822666595,
positive,neutral,2,l,j,,,,,,,,,10,1,181,17,,,,,,,,,,,,,,,,,,,,,,,,main,2,2,2,neutral,positive,l,l,1,0.5941140999998424,431.6763989000001,432.6917053000002,432.6528870000002,None,431.6763989000001,None,431.6763989000001,None,431.6763989000001,None,433.25328753,None,433.25328753,None,433.25328753,None,,,,,,,,,,,224,24,Male,2022-05-25_11h13.16.531,Main,2022.1.1,60.053026822666595,
negative,neutral,2,j,l,,,,,,,,,10,2,182,12,,,,,,,,,,,,,,,,,,,,,,,,main,2,2,2,neutral,negative,j,j,1,0.6804627999999866,433.2728225999999,434.2840632000002,434.24621030000026,None,433.2728225999999,None,433.2728225999999,None,433.2728225999999,None,434.9364492299998,None,434.9364492299998,None,434.9364492299998,None,,,,,,,,,,,224,24,Male,2022-05-25_11h13.16.531,Main,2022.1.1,60.053026822666595,
neutral,neutral,1,k,k,,,,,,,,,10,3,183,1,,,,,,,,,,,,,,,,,,,,,,,,main,1,1,1,neutral,neutral,k,k,1,0.6905756999999539,434.9574197000002,435.9771584,435.9382777999999,None,434.9574197000002,None,434.9574197000002,None,434.9574197000002,None,436.6275339300002,None,436.6275339300002,None,436.6275339300002,None,,,,,,,,,,,224,24,Male,2022-05-25_11h13.16.531,Main,2022.1.1,60.053026822666595,
negative,positive,1,j,l,,,,,,,,,10,4,184,6,,,,,,,,,,,,,,,,,,,,,,,,main,1,1,1,positive,negative,j,j,1,0.7687184999999772,436.64948430000004,437.6516995000002,437.63274249999995,None,436.64948430000004,None,436.64948430000004,None,436.64948430000004,None,438.39960003000004,None,438.39960003000004,None,438.39960003000004,None,,,,,,,,,,,224,24,Male,2022-05-25_11h13.16.531,Main,2022.1.1,60.053026822666595,
negative,negative,1,j,l,,,,,,,,,10,5,185,0,,,,,,,,,,,,,,,,,,,,,,,,main,1,1,1,negative,negative,j,j,1,0.6358820999998898,438.42087360000005,439.4417026000001,439.4022912999999,None,438.42087360000005,None,438.42087360000005,None,438.42087360000005,None,440.03787342999993,None,440.03787342999993,None,440.03787342999993,None,,,,,,,,,,,224,24,Male,2022-05-25_11h13.16.531,Main,2022.1.1,60.053026822666595,
negative,positive,2,j,l,,,,,,,,,10,6,186,15,,,,,,,,,,,,,,,,,,,,,,,,main,1,1,2,positive,negative,j,j,1,0.8464415999997073,440.0601661999999,441.0657517999998,441.04738899999984,None,440.0601661999999,None,440.0601661999999,None,440.0601661999999,None,441.8894955299999,None,441.8894955299999,None,441.8894955299999,None,,,,,,,,,,,224,24,Male,2022-05-25_11h13.16.531,Main,2022.1.1,60.053026822666595,
neutral,neutral,2,k,k,,,,,,,,,10,7,187,10,,,,,,,,,,,,,,,,,,,,,,,,main,1,1,2,neutral,neutral,k,k,1,0.7263004999999794,441.90998130000025,442.91461800000025,442.8955928999999,None,441.90998130000025,None,441.90998130000025,None,441.90998130000025,None,443.61932993,None,443.61932993,None,443.61932993,None,,,,,,,,,,,224,24,Male,2022-05-25_11h13.16.531,Main,2022.1.1,60.053026822666595,
negative,negative,2,j,l,,,,,,,,,10,8,188,9,,,,,,,,,,,,,,,,,,,,,,,,main,1,1,2,negative,negative,j,j,1,0.7637647999999899,443.63977490000025,444.6417649,444.62267680000014,None,443.63977490000025,None,443.63977490000025,None,443.63977490000025,None,445.38539623000014,None,445.38539623000014,None,445.38539623000014,None,,,,,,,,,,,224,24,Male,2022-05-25_11h13.16.531,Main,2022.1.1,60.053026822666595,
neutral,positive,1,k,k,,,,,,,,,10,9,189,4,,,,,,,,,,,,,,,,,,,,,,,,main,2,2,1,positive,neutral,k,k,1,0.8106334999997671,445.4052419999998,446.4106775,446.3907644000001,None,445.4052419999998,None,445.4052419999998,None,445.4052419999998,None,447.19625773000024,None,447.19625773000024,None,447.19625773000024,None,,,,,,,,,,,224,24,Male,2022-05-25_11h13.16.531,Main,2022.1.1,60.053026822666595,
negative,neutral,1,j,l,,,,,,,,,10,10,190,3,,,,,,,,,,,,,,,,,,,,,,,,main,2,2,1,neutral,negative,j,j,1,0.7366105000000971,447.21642699999984,448.23173129999986,448.1937981000001,None,447.21642699999984,None,447.21642699999984,None,447.21642699999984,None,448.93672523000004,None,448.93672523000004,None,448.93672523000004,None,,,,,,,,,,,224,24,Male,2022-05-25_11h13.16.531,Main,2022.1.1,60.053026822666595,
neutral,negative,1,k,k,,,,,,,,,10,11,191,7,,,,,,,,,,,,,,,,,,,,,,,,main,2,2,1,negative,neutral,k,k,1,0.8371922999999697,448.95804,449.96990430000005,449.94927640000014,None,448.95804,None,448.95804,None,448.95804,None,450.77509553,None,450.77509553,None,450.77509553,None,,,,,,,,,,,224,24,Male,2022-05-25_11h13.16.531,Main,2022.1.1,60.053026822666595,
positive,positive,1,l,j,,,,,,,,,10,12,192,2,,,,,,,,,,,,,,,,,,,,,,,,main,1,1,1,positive,positive,l,l,1,0.7992810000000645,450.79570409999997,451.8083968000001,451.7693881,None,450.79570409999997,None,450.79570409999997,None,450.79570409999997,None,452.57726453000004,None,452.57726453000004,None,452.57726453000004,None,,,,,,,,,,,224,24,Male,2022-05-25_11h13.16.531,Main,2022.1.1,60.053026822666595,
positive,positive,2,l,j,,,,,,,,,10,13,193,11,,,,,,,,,,,,,,,,,,,,,,,,main,2,2,2,positive,positive,l,l,1,1.1503791999998612,452.5988682000002,453.6163488000002,453.5784948999999,None,452.5988682000002,None,452.5988682000002,None,452.5988682000002,None,454.73061423000007,None,454.73061423000007,None,454.73061423000007,None,,,,,,,,,,,224,24,Male,2022-05-25_11h13.16.531,Main,2022.1.1,60.053026822666595,
positive,neutral,1,l,j,,,,,,,,,10,14,194,8,,,,,,,,,,,,,,,,,,,,,,,,main,2,2,1,neutral,positive,l,l,1,0.7299364999998943,454.7513039999999,455.7697742999999,455.73196640000015,None,454.7513039999999,None,454.7513039999999,None,454.7513039999999,None,456.46518823000014,None,456.46518823000014,None,456.46518823000014,None,,,,,,,,,,,224,24,Male,2022-05-25_11h13.16.531,Main,2022.1.1,60.053026822666595,
positive,negative,2,l,j,,,,,,,,,10,15,195,14,,,,,,,,,,,,,,,,,,,,,,,,main,2,2,2,negative,positive,l,l,1,0.8764881000001878,456.4850451000002,457.502242,457.4833963000001,None,456.4850451000002,None,456.4850451000002,None,456.4850451000002,None,458.3423152299999,None,458.3423152299999,None,458.3423152299999,None,,,,,,,,,,,224,24,Male,2022-05-25_11h13.16.531,Main,2022.1.1,60.053026822666595,
neutral,negative,2,k,k,,,,,,,,,10,16,196,16,,,,,,,,,,,,,,,,,,,,,,,,main,1,1,2,negative,neutral,k,k,1,0.7358407000001534,458.36393320000025,459.3767287999999,459.3398274000001,None,458.36393320000025,None,458.36393320000025,None,458.36393320000025,None,460.08248312999984,None,460.08248312999984,None,460.08248312999984,None,,,,,,,,,,,224,24,Male,2022-05-25_11h13.16.531,Main,2022.1.1,60.053026822666595,
neutral,positive,2,k,k,,,,,,,,,10,17,197,13,,,,,,,,,,,,,,,,,,,,,,,,main,2,2,2,positive,neutral,k,k,1,0.7433572999998432,460.1022515999998,461.1156879,461.0780942000001,None,460.1022515999998,None,460.1022515999998,None,460.1022515999998,None,461.8252122300002,None,461.8252122300002,None,461.8252122300002,None,,,,,,,,,,,224,24,Male,2022-05-25_11h13.16.531,Main,2022.1.1,60.053026822666595,
neutral,negative,1,k,k,,,,,,,,,11,0,198,7,,,,,,,,,,,,,,,,,,,,,,,,main,1,1,1,negative,neutral,k,k,1,0.6707868999997117,461.8481476000002,462.86286640000026,462.8248881999998,None,461.8481476000002,None,461.8481476000002,None,461.8481476000002,None,463.50011573,None,463.50011573,None,463.50011573,None,,,,,,,,,,,224,24,Male,2022-05-25_11h13.16.531,Main,2022.1.1,60.053026822666595,
neutral,positive,1,k,k,,,,,,,,,11,1,199,4,,,,,,,,,,,,,,,,,,,,,,,,main,2,2,1,positive,neutral,k,k,1,0.6230939000001854,463.5223157999999,464.5303150999998,464.5119316999999,None,463.5223157999999,None,463.5223157999999,None,463.5223157999999,None,465.12538293000006,None,465.12538293000006,None,465.12538293000006,None,,,,,,,,,,,224,24,Male,2022-05-25_11h13.16.531,Main,2022.1.1,60.053026822666595,
positive,neutral,2,l,j,,,,,,,,,11,2,200,17,,,,,,,,,,,,,,,,,,,,,,,,main,2,2,2,neutral,positive,l,l,1,0.67245099999991,465.1466531000001,466.1483011,466.12937409999995,None,465.1466531000001,None,465.1466531000001,None,465.1466531000001,None,466.8021830300001,None,466.8021830300001,None,466.8021830300001,None,,,,,,,,,,,224,24,Male,2022-05-25_11h13.16.531,Main,2022.1.1,60.053026822666595,
neutral,positive,2,k,k,,,,,,,,,11,3,201,13,,,,,,,,,,,,,,,,,,,,,,,,main,1,1,2,positive,neutral,k,k,1,0.6304479000000356,466.82309209999994,467.83495200000016,467.7965342000002,None,466.82309209999994,None,466.82309209999994,None,466.82309209999994,None,468.43477813,None,468.43477813,None,468.43477813,None,,,,,,,,,,,224,24,Male,2022-05-25_11h13.16.531,Main,2022.1.1,60.053026822666595,
neutral,neutral,2,k,k,,,,,,,,,11,4,202,10,,,,,,,,,,,,,,,,,,,,,,,,main,1,1,2,neutral,neutral,k,k,1,0.6473498000000291,468.45526800000016,469.4731415000001,469.4349777000002,None,468.45526800000016,None,468.45526800000016,None,468.45526800000016,None,470.08509273,None,470.08509273,None,470.08509273,None,,,,,,,,,,,224,24,Male,2022-05-25_11h13.16.531,Main,2022.1.1,60.053026822666595,
positive,negative,2,l,j,,,,,,,,,11,5,203,14,,,,,,,,,,,,,,,,,,,,,,,,main,2,2,2,negative,positive,l,l,1,0.688842200000181,470.10474669999985,471.10703890000013,471.0880637,None,470.10474669999985,None,470.10474669999985,None,470.10474669999985,None,471.7746724300002,None,471.7746724300002,None,471.7746724300002,None,,,,,,,,,,,224,24,Male,2022-05-25_11h13.16.531,Main,2022.1.1,60.053026822666595,
negative,neutral,2,j,l,,,,,,,,,11,6,204,12,,,,,,,,,,,,,,,,,,,,,,,,main,2,2,2,neutral,negative,j,j,1,0.8134843000002547,471.79510459999983,472.8052441,472.7858581999999,None,471.79510459999983,None,471.79510459999983,None,471.79510459999983,None,473.5900145299999,None,473.5900145299999,None,473.5900145299999,None,,,,,,,,,,,224,24,Male,2022-05-25_11h13.16.531,Main,2022.1.1,60.053026822666595,
positive,positive,1,l,j,,,,,,,,,11,7,205,2,,,,,,,,,,,,,,,,,,,,,,,,main,1,1,1,positive,positive,l,l,1,0.7008006999999452,473.6119094999999,474.6273415999999,474.5902151,None,473.6119094999999,None,473.6119094999999,None,473.6119094999999,None,475.29388733000013,None,475.29388733000013,None,475.29388733000013,None,,,,,,,,,,,224,24,Male,2022-05-25_11h13.16.531,Main,2022.1.1,60.053026822666595,
negative,negative,1,j,l,,,,,,,,,11,8,206,0,,,,,,,,,,,,,,,,,,,,,,,,main,2,2,1,negative,negative,j,j,1,0.8319726999998238,475.3147491999998,476.3228875,476.30407079999986,None,475.3147491999998,None,475.3147491999998,None,475.3147491999998,None,477.1302430299999,None,477.1302430299999,None,477.1302430299999,None,,,,,,,,,,,224,24,Male,2022-05-25_11h13.16.531,Main,2022.1.1,60.053026822666595,
neutral,negative,2,k,k,,,,,,,,,11,9,207,16,,,,,,,,,,,,,,,,,,,,,,,,main,1,1,2,negative,neutral,k,k,1,0.7468945000000531,477.1494591999999,478.1520982000002,478.13286419999986,None,477.1494591999999,None,477.1494591999999,None,477.1494591999999,None,478.87667553,None,478.87667553,None,478.87667553,None,,,,,,,,,,,224,24,Male,2022-05-25_11h13.16.531,Main,2022.1.1,60.053026822666595,
positive,positive,2,l,j,,,,,,,,,11,10,208,11,,,,,,,,,,,,,,,,,,,,,,,,main,2,2,2,positive,positive,l,l,1,0.6994116999999278,478.90183909999996,479.9062850999999,479.8875664000002,None,478.90183909999996,None,478.90183909999996,None,478.90183909999996,None,480.5784670300001,None,480.5784670300001,None,480.5784670300001,None,,,,,,,,,,,224,24,Male,2022-05-25_11h13.16.531,Main,2022.1.1,60.053026822666595,
negative,neutral,1,j,l,,,,,,,,,11,11,209,3,,,,,,,,,,,,,,,,,,,,,,,,main,1,1,1,neutral,negative,j,j,1,0.6484119000001556,480.59978490000003,481.6149955000001,481.5768558999998,None,480.59978490000003,None,480.59978490000003,None,480.59978490000003,None,482.23283653000016,None,482.23283653000016,None,482.23283653000016,None,,,,,,,,,,,224,24,Male,2022-05-25_11h13.16.531,Main,2022.1.1,60.053026822666595,
positive,neutral,1,l,j,,,,,,,,,11,12,210,8,,,,,,,,,,,,,,,,,,,,,,,,main,1,1,1,neutral,positive,l,l,1,0.7945731999998316,482.25232510000023,483.2657557000002,483.2280463000002,None,482.25232510000023,None,482.25232510000023,None,482.25232510000023,None,484.0292038300001,None,484.0292038300001,None,484.0292038300001,None,,,,,,,,,,,224,24,Male,2022-05-25_11h13.16.531,Main,2022.1.1,60.053026822666595,
negative,negative,2,j,l,,,,,,,,,11,13,211,9,,,,,,,,,,,,,,,,,,,,,,,,main,2,2,2,negative,negative,j,j,1,0.6981095000001005,484.0492675999999,485.05728910000016,485.03890839999985,None,484.0492675999999,None,484.0492675999999,None,484.0492675999999,None,485.72971622999984,None,485.72971622999984,None,485.72971622999984,None,,,,,,,,,,,224,24,Male,2022-05-25_11h13.16.531,Main,2022.1.1,60.053026822666595,
neutral,neutral,1,k,k,,,,,,,,,11,14,212,1,,,,,,,,,,,,,,,,,,,,,,,,main,1,1,1,neutral,neutral,k,k,1,0.7256985999997596,485.74958289999995,486.76907900000015,486.7302411999999,None,485.74958289999995,None,485.74958289999995,None,485.74958289999995,None,487.45598373,None,487.45598373,None,487.45598373,None,,,,,,,,,,,224,24,Male,2022-05-25_11h13.16.531,Main,2022.1.1,60.053026822666595,
