target,distractor,set,ans1,ans2,rep_loop2.thisRepN,rep_loop2.thisTrialN,rep_loop2.thisN,rep_loop2.thisIndex,flanker_prac_loop.thisRepN,flanker_prac_loop.thisTrialN,flanker_prac_loop.thisN,flanker_prac_loop.thisIndex,flanker_main_loop.thisRepN,flanker_main_loop.thisTrialN,flanker_main_loop.thisN,flanker_main_loop.thisIndex,fl_inst_resp.keys,mouse.x,mouse.y,mouse.leftButton,mouse.midButton,mouse.rightButton,mouse.started,mouse.stopped,sound_1.started,sound_1.stopped,no_text.started,no_text.stopped,yes_text.started,yes_text.stopped,mouse_2.x,mouse_2.y,mouse_2.leftButton,mouse_2.midButton,mouse_2.rightButton,mouse_2.started,mouse_2.stopped,back_2.started,back_2.stopped,main_prac,fl_cold,fl_colt,fl_set,fl_dcond,fl_tcond,fl_ans,fl_res,fl_corr,fl_rt,fix_fl.started,fix_fl.stopped,targ.started,targ.stopped,j_button.started,j_button.stopped,k_button.started,k_button.stopped,l_button.started,l_button.stopped,j_button2.started,j_button2.stopped,k_button2.started,k_button2.stopped,l_button2.started,l_button2.stopped,mainback.started,mainback.stopped,key_resp.keys,mouse_6.x,mouse_6.y,mouse_6.leftButton,mouse_6.midButton,mouse_6.rightButton,mouse_6.started,mouse_6.stopped,id*,age*,gender*,date,expName,psychopyVersion,frameRate,
,,,,,0,0,0,0,,,,,,,,,None,0.05277778,-0.40925926,0,0,0,1.013789760050713,None,21.4811793799985,None,72.2426220999987,None,72.2426220999987,None,-0.12222222,-0.09166667,0,0,0,0.012644379999983357,None,,,,,,,,,,,,,,,,,,,,,,,,,,,,,,,,,,,,,,,225,24,Female,2022-05-25_18h22.51.083,Main,2022.1.1,60.006360674638415,
positive,positive,2,l,j,,,,,0,0,0,11,,,,,,,,,,,,,,,,,,,,,,,,,,76.12427739999839,None,prac,1,1,2,positive,positive,j,j,1,1.783623200000875,78.16109159999905,79.17462230000092,79.1534427000006,None,78.16109159999905,None,78.16109159999905,None,78.16109159999905,None,80.94777880000038,None,80.94777880000038,None,80.94777880000038,None,,,,,,,,,,,225,24,Female,2022-05-25_18h22.51.083,Main,2022.1.1,60.006360674638415,
positive,negative,1,l,j,,,,,0,1,1,5,,,,,,,,,,,,,,,,,,,,,,,,,,,,prac,1,1,1,negative,positive,j,j,1,1.2041958999980125,81.97039609999774,82.98758839999937,82.9478042999981,None,81.97039609999774,None,81.97039609999774,None,81.97039609999774,None,84.15431078000111,None,84.15431078000111,None,84.15431078000111,None,,,,,,,,,,,225,24,Female,2022-05-25_18h22.51.083,Main,2022.1.1,60.006360674638415,
negative,negative,2,j,l,,,,,0,2,2,9,,,,,,,,,,,,,,,,,,,,,,,,,,,,prac,1,1,2,negative,negative,l,l,1,0.9590973999984271,84.1808377999987,85.19042459999764,85.16919019999841,None,84.1808377999987,None,84.1808377999987,None,84.1808377999987,None,86.11389937999994,None,86.11389937999994,None,86.11389937999994,None,,,,,,,,,,,225,24,Female,2022-05-25_18h22.51.083,Main,2022.1.1,60.006360674638415,
negative,positive,2,j,l,,,,,0,3,3,15,,,,,,,,,,,,,,,,,,,,,,,,,,,,prac,2,2,2,positive,negative,l,l,1,0.9385226000013063,86.14265429999796,87.15665749999971,87.13561049999771,None,86.14265429999796,None,86.14265429999796,None,86.14265429999796,None,88.0570583799985,None,88.0570583799985,None,88.0570583799985,None,,,,,,,,,,,225,24,Female,2022-05-25_18h22.51.083,Main,2022.1.1,60.006360674638415,
negative,neutral,1,j,l,,,,,0,4,4,3,,,,,,,,,,,,,,,,,,,,,,,,,,,,prac,1,1,1,neutral,negative,l,l,1,1.8304102000001876,88.08364699999947,89.09584650000033,89.07651149999947,None,88.08364699999947,None,88.08364699999947,None,88.08364699999947,None,90.89628639999864,None,90.89628639999864,None,90.89628639999864,None,,,,,,,,,,,225,24,Female,2022-05-25_18h22.51.083,Main,2022.1.1,60.006360674638415,
neutral,negative,1,k,k,,,,,0,5,5,7,,,,,,,,,,,,,,,,,,,,,,,,,,,,prac,1,1,1,negative,neutral,k,k,1,0.9692629999990459,91.91806999999972,92.92858179999894,92.90970010000092,None,91.91806999999972,None,91.91806999999972,None,91.91806999999972,None,93.86780917999786,None,93.86780917999786,None,93.86780917999786,None,,,,,,,,,,,225,24,Female,2022-05-25_18h22.51.083,Main,2022.1.1,60.006360674638415,
positive,neutral,1,l,j,,,,,0,6,6,8,,,,,,,,,,,,,,,,,,,,,,,,,,,,prac,2,2,1,neutral,positive,j,j,1,0.8830734000002849,93.89640979999967,94.89795959999901,94.87880529999893,None,93.89640979999967,None,93.89640979999967,None,93.89640979999967,None,95.75382617999858,None,95.75382617999858,None,95.75382617999858,None,,,,,,,,,,,225,24,Female,2022-05-25_18h22.51.083,Main,2022.1.1,60.006360674638415,
neutral,positive,1,k,k,,,,,0,7,7,4,,,,,,,,,,,,,,,,,,,,,,,,,,,,prac,1,1,1,positive,neutral,k,k,1,1.0131822999974247,95.7798987999995,96.7843756000002,96.76516569999876,None,95.7798987999995,None,95.7798987999995,None,95.7798987999995,None,97.76877968000045,None,97.76877968000045,None,97.76877968000045,None,,,,,,,,,,,225,24,Female,2022-05-25_18h22.51.083,Main,2022.1.1,60.006360674638415,
positive,negative,2,l,j,,,,,0,8,8,14,,,,,,,,,,,,,,,,,,,,,,,,,,,,prac,2,2,2,negative,positive,j,j,1,0.8838873000022431,97.79410619999908,98.80597769999804,98.78472010000041,None,97.79410619999908,None,97.79410619999908,None,97.79410619999908,None,99.65524618000055,None,99.65524618000055,None,99.65524618000055,None,,,,,,,,,,,225,24,Female,2022-05-25_18h22.51.083,Main,2022.1.1,60.006360674638415,
neutral,positive,2,k,k,,,,,0,9,9,13,,,,,,,,,,,,,,,,,,,,,,,,,,,,prac,2,2,2,positive,neutral,k,k,1,0.8306111999991117,99.68672789999982,100.69767049999791,100.67800480000005,None,99.68672789999982,None,99.68672789999982,None,99.68672789999982,None,101.48774128000005,None,101.48774128000005,None,101.48774128000005,None,,,,,,,,,,,225,24,Female,2022-05-25_18h22.51.083,Main,2022.1.1,60.006360674638415,
negative,positive,1,j,l,,,,,0,10,10,6,,,,,,,,,,,,,,,,,,,,,,,,,,,,prac,1,1,1,positive,negative,l,l,1,0.9390265000001818,101.50814080000055,102.5209638999986,102.49908180000057,None,101.50814080000055,None,101.50814080000055,None,101.50814080000055,None,103.42669547999904,None,103.42669547999904,None,103.42669547999904,None,,,,,,,,,,,225,24,Female,2022-05-25_18h22.51.083,Main,2022.1.1,60.006360674638415,
positive,neutral,2,l,j,,,,,0,11,11,17,,,,,,,,,,,,,,,,,,,,,,,,,,,,prac,2,2,2,neutral,positive,j,j,1,0.7791470000011032,103.44883359999949,104.45850439999776,104.43747789999907,None,103.44883359999949,None,103.44883359999949,None,103.44883359999949,None,105.20861268000081,None,105.20861268000081,None,105.20861268000081,None,,,,,,,,,,,225,24,Female,2022-05-25_18h22.51.083,Main,2022.1.1,60.006360674638415,
neutral,neutral,2,k,k,,,,,0,12,12,10,,,,,,,,,,,,,,,,,,,,,,,,,,,,prac,2,2,2,neutral,neutral,k,k,1,0.7301470000020345,105.23061700000108,106.23363619999873,106.21439579999787,None,105.23061700000108,None,105.23061700000108,None,105.23061700000108,None,106.94142198000046,None,106.94142198000046,None,106.94142198000046,None,,,,,,,,,,,225,24,Female,2022-05-25_18h22.51.083,Main,2022.1.1,60.006360674638415,
neutral,negative,2,k,k,,,,,0,13,13,16,,,,,,,,,,,,,,,,,,,,,,,,,,,,prac,2,2,2,negative,neutral,k,k,1,0.7541125999996439,106.96135729999878,107.97440329999881,107.95372869999846,None,106.96135729999878,None,106.96135729999878,None,106.96135729999878,None,108.69784827999902,None,108.69784827999902,None,108.69784827999902,None,,,,,,,,,,,225,24,Female,2022-05-25_18h22.51.083,Main,2022.1.1,60.006360674638415,
negative,neutral,2,j,l,,,,,0,14,14,12,,,,,,,,,,,,,,,,,,,,,,,,,,,,prac,1,1,2,neutral,negative,l,l,1,0.8004036000020278,108.72506779999821,109.74400160000005,109.72447230000034,None,108.72506779999821,None,108.72506779999821,None,108.72506779999821,None,110.50277747999863,None,110.50277747999863,None,110.50277747999863,None,,,,,,,,,,,225,24,Female,2022-05-25_18h22.51.083,Main,2022.1.1,60.006360674638415,
neutral,neutral,1,k,k,,,,,0,15,15,1,,,,,,,,,,,,,,,,,,,,,,,,,,,,prac,1,1,1,neutral,neutral,k,k,1,0.9126191000032122,110.52400429999761,111.54019759999937,111.49847940000109,None,110.52400429999761,None,110.52400429999761,None,110.52400429999761,None,112.41908628000093,None,112.41908628000093,None,112.41908628000093,None,,,,,,,,,,,225,24,Female,2022-05-25_18h22.51.083,Main,2022.1.1,60.006360674638415,
negative,negative,1,j,l,,,,,0,16,16,0,,,,,,,,,,,,,,,,,,,,,,,,,,,,prac,1,1,1,negative,negative,l,l,1,1.146148700001504,112.43953099999999,113.4587208999983,113.41603870000108,None,112.43953099999999,None,112.43953099999999,None,112.43953099999999,None,114.56704638000011,None,114.56704638000011,None,114.56704638000011,None,,,,,,,,,,,225,24,Female,2022-05-25_18h22.51.083,Main,2022.1.1,60.006360674638415,
positive,positive,1,l,j,,,,,0,17,17,2,,,,,,,,,,,,,,,,,,,,,,,,,,,,prac,1,1,1,positive,positive,j,j,1,0.9546719999998459,114.58720479999829,115.59647469999982,115.57641280000098,None,114.58720479999829,None,114.58720479999829,None,114.58720479999829,None,116.52267838000117,None,116.52267838000117,None,116.52267838000117,None,,,,,,,,,,,225,24,Female,2022-05-25_18h22.51.083,Main,2022.1.1,60.006360674638415,
positive,positive,2,l,j,,,,,1,0,18,11,,,,,,,,,,,,,,,,,,,,,,,,,,,,prac,1,1,2,positive,positive,j,j,1,0.8579008999986399,116.54479689999789,117.55723059999946,117.53632849999849,None,116.54479689999789,None,116.54479689999789,None,116.54479689999789,None,118.38514127999807,None,118.38514127999807,None,118.38514127999807,None,,,,,,,,,,,225,24,Female,2022-05-25_18h22.51.083,Main,2022.1.1,60.006360674638415,
positive,negative,2,l,j,,,,,1,1,19,14,,,,,,,,,,,,,,,,,,,,,,,,,,,,prac,2,2,2,negative,positive,j,j,1,0.7058270000015909,118.40606249999837,119.40929020000112,119.3896528999976,None,118.40606249999837,None,118.40606249999837,None,118.40606249999837,None,120.09079747999786,None,120.09079747999786,None,120.09079747999786,None,,,,,,,,,,,225,24,Female,2022-05-25_18h22.51.083,Main,2022.1.1,60.006360674638415,
negative,positive,2,j,l,,,,,1,2,20,15,,,,,,,,,,,,,,,,,,,,,,,,,,,,prac,1,1,2,positive,negative,l,l,1,0.7845525000011548,120.11130670000057,121.12999839999975,121.09043979999842,None,120.11130670000057,None,120.11130670000057,None,120.11130670000057,None,121.87989867999786,None,121.87989867999786,None,121.87989867999786,None,,,,,,,,,,,225,24,Female,2022-05-25_18h22.51.083,Main,2022.1.1,60.006360674638415,
neutral,positive,2,k,k,,,,,1,3,21,13,,,,,,,,,,,,,,,,,,,,,,,,,,,,prac,1,1,2,positive,neutral,k,k,1,0.6994179000030272,121.90005889999884,122.91883640000015,122.87854929999958,None,121.90005889999884,None,121.90005889999884,None,121.90005889999884,None,123.58144517999827,None,123.58144517999827,None,123.58144517999827,None,,,,,,,,,,,225,24,Female,2022-05-25_18h22.51.083,Main,2022.1.1,60.006360674638415,
neutral,neutral,1,k,k,,,,,1,4,22,1,,,,,,,,,,,,,,,,,,,,,,,,,,,,prac,2,2,1,neutral,neutral,k,k,1,0.7917624999972759,123.60197060000064,124.60797180000009,124.58880769999814,None,123.60197060000064,None,123.60197060000064,None,123.60197060000064,None,125.37381057999883,None,125.37381057999883,None,125.37381057999883,None,,,,,,,,,,,225,24,Female,2022-05-25_18h22.51.083,Main,2022.1.1,60.006360674638415,
negative,negative,2,j,l,,,,,1,5,23,9,,,,,,,,,,,,,,,,,,,,,,,,,,,,prac,1,1,2,negative,negative,l,l,1,0.8188764999977138,125.39366900000095,126.41247149999981,126.37293259999933,None,125.39366900000095,None,125.39366900000095,None,125.39366900000095,None,127.19305277999811,None,127.19305277999811,None,127.19305277999811,None,,,,,,,,,,,225,24,Female,2022-05-25_18h22.51.083,Main,2022.1.1,60.006360674638415,
positive,positive,1,l,j,,,,,1,6,24,2,,,,,,,,,,,,,,,,,,,,,,,,,,,,prac,2,2,1,positive,positive,j,j,1,0.7928475000007893,127.21548099999927,128.22583870000017,128.2071380999987,None,127.21548099999927,None,127.21548099999927,None,127.21548099999927,None,128.9888138800001,None,128.9888138800001,None,128.9888138800001,None,,,,,,,,,,,225,24,Female,2022-05-25_18h22.51.083,Main,2022.1.1,60.006360674638415,
negative,neutral,1,j,l,,,,,1,7,25,3,,,,,,,,,,,,,,,,,,,,,,,,,,,,prac,2,2,1,neutral,negative,l,l,1,0.8565869999983988,129.01758169999812,130.02385549999963,130.00505200000043,None,129.01758169999812,None,129.01758169999812,None,129.01758169999812,None,130.84994547999887,None,130.84994547999887,None,130.84994547999887,None,,,,,,,,,,,225,24,Female,2022-05-25_18h22.51.083,Main,2022.1.1,60.006360674638415,
positive,neutral,2,l,j,,,,,1,8,26,17,,,,,,,,,,,,,,,,,,,,,,,,,,,,prac,2,2,2,neutral,positive,j,j,1,0.7432880999986082,130.87087690000044,131.88926709999942,131.8485432999987,None,130.87087690000044,None,130.87087690000044,None,130.87087690000044,None,132.5961470799979,None,132.5961470799979,None,132.5961470799979,None,,,,,,,,,,,225,24,Female,2022-05-25_18h22.51.083,Main,2022.1.1,60.006360674638415,
neutral,negative,2,k,k,,,,,1,9,27,16,,,,,,,,,,,,,,,,,,,,,,,,,,,,prac,1,1,2,negative,neutral,k,k,1,0.7173984000000928,132.61767730000065,133.62942570000087,133.60969789999945,None,132.61767730000065,None,132.61767730000065,None,132.61767730000065,None,134.3164938799986,None,134.3164938799986,None,134.3164938799986,None,,,,,,,,,,,225,24,Female,2022-05-25_18h22.51.083,Main,2022.1.1,60.006360674638415,
negative,positive,1,j,l,,,,,1,10,28,6,,,,,,,,,,,,,,,,,,,,,,,,,,,,prac,2,2,1,positive,negative,l,l,1,0.7594195999990916,134.33694359999936,135.34623949999877,135.32680790000086,None,134.33694359999936,None,134.33694359999936,None,134.33694359999936,None,136.07547557999933,None,136.07547557999933,None,136.07547557999933,None,,,,,,,,,,,225,24,Female,2022-05-25_18h22.51.083,Main,2022.1.1,60.006360674638415,
neutral,positive,1,k,k,,,,,1,11,29,4,,,,,,,,,,,,,,,,,,,,,,,,,,,,prac,1,1,1,positive,neutral,k,k,1,0.7472510000006878,136.09889069999917,137.10867710000093,137.0879261000009,None,136.09889069999917,None,136.09889069999917,None,136.09889069999917,None,137.8249442799992,None,137.8249442799992,None,137.8249442799992,None,,,,,,,,,,,225,24,Female,2022-05-25_18h22.51.083,Main,2022.1.1,60.006360674638415,
positive,negative,1,l,j,,,,,1,12,30,5,,,,,,,,,,,,,,,,,,,,,,,,,,,,prac,1,1,1,negative,positive,j,j,1,0.8267746999990777,137.84551740000097,138.84961069999918,138.82880899999873,None,137.84551740000097,None,137.84551740000097,None,137.84551740000097,None,139.65251668000056,None,139.65251668000056,None,139.65251668000056,None,,,,,,,,,,,225,24,Female,2022-05-25_18h22.51.083,Main,2022.1.1,60.006360674638415,
positive,neutral,1,l,j,,,,,1,13,31,8,,,,,,,,,,,,,,,,,,,,,,,,,,,,prac,1,1,1,neutral,positive,j,j,1,0.8748825999973633,139.6754250999984,140.67855849999978,140.65910069999882,None,139.6754250999984,None,139.6754250999984,None,139.6754250999984,None,141.53374258000113,None,141.53374258000113,None,141.53374258000113,None,,,,,,,,,,,225,24,Female,2022-05-25_18h22.51.083,Main,2022.1.1,60.006360674638415,
neutral,negative,1,k,k,,,,,1,14,32,7,,,,,,,,,,,,,,,,,,,,,,,,,,,,prac,2,2,1,negative,neutral,k,k,1,0.8058329000014055,141.5600415000008,142.57380289999855,142.55447679999997,None,141.5600415000008,None,141.5600415000008,None,141.5600415000008,None,143.33965157999992,None,143.33965157999992,None,143.33965157999992,None,,,,,,,,,,,225,24,Female,2022-05-25_18h22.51.083,Main,2022.1.1,60.006360674638415,
neutral,neutral,2,k,k,,,,,1,15,33,10,,,,,,,,,,,,,,,,,,,,,,,,,,,,prac,2,2,2,neutral,neutral,k,k,1,0.6647932999985642,143.36063459999787,144.37891839999793,144.33961110000018,None,143.36063459999787,None,143.36063459999787,None,143.36063459999787,None,145.00608947999936,None,145.00608947999936,None,145.00608947999936,None,,,,,,,,,,,225,24,Female,2022-05-25_18h22.51.083,Main,2022.1.1,60.006360674638415,
negative,neutral,2,j,l,,,,,1,16,34,12,,,,,,,,,,,,,,,,,,,,,,,,,,,,prac,1,1,2,neutral,negative,l,l,1,0.7352723000003607,145.0312640000011,146.04179649999787,146.02242660000047,None,145.0312640000011,None,145.0312640000011,None,145.0312640000011,None,146.74677437999927,None,146.74677437999927,None,146.74677437999927,None,,,,,,,,,,,225,24,Female,2022-05-25_18h22.51.083,Main,2022.1.1,60.006360674638415,
negative,negative,1,j,l,,,,,1,17,35,0,,,,,,,,,,,,,,,,,,,,,,,,,,,,prac,1,1,1,negative,negative,l,l,1,1.171411100000114,146.7671640999979,147.77159290000054,147.75263939999786,None,146.7671640999979,None,146.7671640999979,None,146.7671640999979,None,148.91855817999968,None,148.91855817999968,None,148.91855817999968,None,,,,,,,,,,,225,24,Female,2022-05-25_18h22.51.083,Main,2022.1.1,60.006360674638415,
,,,,,,,,,,,,,,,,,,,,,,,,,,,,,,,,,,,,,,,,,,,,,,,,,,,,,,,,,,,,,,,,,,148.92563169999994,None,None,,,,,,,,225,24,Female,2022-05-25_18h22.51.083,Main,2022.1.1,60.006360674638415,
,,,,,,,,,,,,,,,,,,,,,,,,,,,,,,,,,,,,,,,,,,,,,,,,,,,,,,,,,,,,,,,,,,,,,0.050925925,-0.060185187,1,0,0,0.0033556800008227583,None,225,24,Female,2022-05-25_18h22.51.083,Main,2022.1.1,60.006360674638415,
neutral,positive,1,k,k,,,,,,,,,0,0,0,4,,,,,,,,,,,,,,,,,,,,,,152.58146359999955,None,main,1,1,1,positive,neutral,k,k,1,0.7795513999990362,154.60167340000044,155.62101279999843,155.58073879999938,None,154.60167340000044,None,154.60167340000044,None,154.60167340000044,None,156.36269057999962,None,156.36269057999962,None,156.36269057999962,None,,,,,,,,,,,225,24,Female,2022-05-25_18h22.51.083,Main,2022.1.1,60.006360674638415,
positive,positive,2,l,j,,,,,,,,,0,1,1,11,,,,,,,,,,,,,,,,,,,,,,,,main,2,2,2,positive,positive,j,j,1,0.7717320000010659,156.38422119999814,157.38981090000016,157.37014239999917,None,156.38422119999814,None,156.38422119999814,None,156.38422119999814,None,158.13580887999925,None,158.13580887999925,None,158.13580887999925,None,,,,,,,,,,,225,24,Female,2022-05-25_18h22.51.083,Main,2022.1.1,60.006360674638415,
neutral,negative,2,k,k,,,,,,,,,0,2,2,16,,,,,,,,,,,,,,,,,,,,,,,,main,2,2,2,negative,neutral,k,k,1,0.6846713999984786,158.1569660999994,159.15985829999772,159.14111309999862,None,158.1569660999994,None,158.1569660999994,None,158.1569660999994,None,159.8224736799988,None,159.8224736799988,None,159.8224736799988,None,,,,,,,,,,,225,24,Female,2022-05-25_18h22.51.083,Main,2022.1.1,60.006360674638415,
positive,negative,2,l,j,,,,,,,,,0,3,3,14,,,,,,,,,,,,,,,,,,,,,,,,main,1,1,2,negative,positive,j,j,1,0.8667496999987634,159.847632099998,160.85159049999857,160.83090240000092,None,159.847632099998,None,159.847632099998,None,159.847632099998,None,161.69480817999866,None,161.69480817999866,None,161.69480817999866,None,,,,,,,,,,,225,24,Female,2022-05-25_18h22.51.083,Main,2022.1.1,60.006360674638415,
positive,positive,1,l,j,,,,,,,,,0,4,4,2,,,,,,,,,,,,,,,,,,,,,,,,main,1,1,1,positive,positive,j,l,0,0.9076611000018602,161.71612989999994,162.73742819999825,162.69700860000012,None,161.71612989999994,None,161.71612989999994,None,161.71612989999994,None,163.61277929999778,None,163.61277929999778,None,163.61277929999778,None,,,,,,,,,,,225,24,Female,2022-05-25_18h22.51.083,Main,2022.1.1,60.006360674638415,
negative,neutral,2,j,l,,,,,,,,,0,5,5,12,,,,,,,,,,,,,,,,,,,,,,,,main,1,1,2,neutral,negative,l,l,1,1.0191927999985637,164.62455249999766,165.64218529999926,165.60370369999873,None,164.62455249999766,None,164.62455249999766,None,164.62455249999766,None,166.62557668000082,None,166.62557668000082,None,166.62557668000082,None,,,,,,,,,,,225,24,Female,2022-05-25_18h22.51.083,Main,2022.1.1,60.006360674638415,
negative,positive,1,j,l,,,,,,,,,0,6,6,6,,,,,,,,,,,,,,,,,,,,,,,,main,1,1,1,positive,negative,l,l,1,1.0503376000015123,166.6476995999983,167.67135869999765,167.6264618999994,None,166.6476995999983,None,166.6476995999983,None,166.6476995999983,None,168.6783714799989,None,168.6783714799989,None,168.6783714799989,None,,,,,,,,,,,225,24,Female,2022-05-25_18h22.51.083,Main,2022.1.1,60.006360674638415,
neutral,negative,1,k,k,,,,,,,,,0,7,7,7,,,,,,,,,,,,,,,,,,,,,,,,main,1,1,1,negative,neutral,k,k,1,0.7548547000005783,168.6991605000003,169.71733309999763,169.67479739999908,None,168.6991605000003,None,168.6991605000003,None,168.6991605000003,None,170.43394298000058,None,170.43394298000058,None,170.43394298000058,None,,,,,,,,,,,225,24,Female,2022-05-25_18h22.51.083,Main,2022.1.1,60.006360674638415,
neutral,neutral,1,k,k,,,,,,,,,0,8,8,1,,,,,,,,,,,,,,,,,,,,,,,,main,2,2,1,neutral,neutral,k,k,1,0.7482706000009784,170.455775800001,171.4787695999985,171.4375758999995,None,170.455775800001,None,170.455775800001,None,170.455775800001,None,172.1845607800009,None,172.1845607800009,None,172.1845607800009,None,,,,,,,,,,,225,24,Female,2022-05-25_18h22.51.083,Main,2022.1.1,60.006360674638415,
negative,negative,1,j,l,,,,,,,,,0,9,9,0,,,,,,,,,,,,,,,,,,,,,,,,main,2,2,1,negative,negative,l,l,1,0.9481427999999141,172.20587149999847,173.22585189999882,173.18655650000073,None,172.20587149999847,None,172.20587149999847,None,172.20587149999847,None,174.13523557999943,None,174.13523557999943,None,174.13523557999943,None,,,,,,,,,,,225,24,Female,2022-05-25_18h22.51.083,Main,2022.1.1,60.006360674638415,
negative,positive,2,j,l,,,,,,,,,0,10,10,15,,,,,,,,,,,,,,,,,,,,,,,,main,1,1,2,positive,negative,l,l,1,0.7893755000004603,174.15822969999863,175.16561970000112,175.14512059999834,None,174.15822969999863,None,174.15822969999863,None,174.15822969999863,None,175.9279861800009,None,175.9279861800009,None,175.9279861800009,None,,,,,,,,,,,225,24,Female,2022-05-25_18h22.51.083,Main,2022.1.1,60.006360674638415,
negative,neutral,1,j,l,,,,,,,,,0,11,11,3,,,,,,,,,,,,,,,,,,,,,,,,main,1,1,1,neutral,negative,l,l,1,0.8356104999984382,175.95107859999916,176.96573029999854,176.94504729999971,None,175.95107859999916,None,175.95107859999916,None,175.95107859999916,None,177.76641668000084,None,177.76641668000084,None,177.76641668000084,None,,,,,,,,,,,225,24,Female,2022-05-25_18h22.51.083,Main,2022.1.1,60.006360674638415,
positive,neutral,2,l,j,,,,,,,,,0,12,12,17,,,,,,,,,,,,,,,,,,,,,,,,main,1,1,2,neutral,positive,j,j,1,0.7205613000005542,177.78781199999867,178.808427699998,178.76898299999812,None,177.78781199999867,None,177.78781199999867,None,177.78781199999867,None,179.49283578000032,None,179.49283578000032,None,179.49283578000032,None,,,,,,,,,,,225,24,Female,2022-05-25_18h22.51.083,Main,2022.1.1,60.006360674638415,
positive,neutral,1,l,j,,,,,,,,,0,13,13,8,,,,,,,,,,,,,,,,,,,,,,,,main,1,1,1,neutral,positive,j,j,1,0.8231742000025406,179.51297749999867,180.53476030000093,180.4945259999986,None,179.51297749999867,None,179.51297749999867,None,179.51297749999867,None,181.31478057999848,None,181.31478057999848,None,181.31478057999848,None,,,,,,,,,,,225,24,Female,2022-05-25_18h22.51.083,Main,2022.1.1,60.006360674638415,
neutral,positive,2,k,k,,,,,,,,,0,14,14,13,,,,,,,,,,,,,,,,,,,,,,,,main,1,1,2,positive,neutral,k,k,1,0.7745934000013222,181.33805829999983,182.34854919999998,182.3276158999979,None,181.33805829999983,None,181.33805829999983,None,181.33805829999983,None,183.09472197999858,None,183.09472197999858,None,183.09472197999858,None,,,,,,,,,,,225,24,Female,2022-05-25_18h22.51.083,Main,2022.1.1,60.006360674638415,
negative,negative,2,j,l,,,,,,,,,0,15,15,9,,,,,,,,,,,,,,,,,,,,,,,,main,1,1,2,negative,negative,l,l,1,0.7747821000011754,183.1158202000006,184.13476860000083,184.09397499999977,None,183.1158202000006,None,183.1158202000006,None,183.1158202000006,None,184.8739342799985,None,184.8739342799985,None,184.8739342799985,None,,,,,,,,,,,225,24,Female,2022-05-25_18h22.51.083,Main,2022.1.1,60.006360674638415,
positive,negative,1,l,j,,,,,,,,,0,16,16,5,,,,,,,,,,,,,,,,,,,,,,,,main,2,2,1,negative,positive,j,j,1,0.8528852999988885,184.89494769999874,185.91604150000057,185.87424079999982,None,184.89494769999874,None,184.89494769999874,None,184.89494769999874,None,186.7291557800003,None,186.7291557800003,None,186.7291557800003,None,,,,,,,,,,,225,24,Female,2022-05-25_18h22.51.083,Main,2022.1.1,60.006360674638415,
neutral,neutral,2,k,k,,,,,,,,,0,17,17,10,,,,,,,,,,,,,,,,,,,,,,,,main,1,1,2,neutral,neutral,k,k,1,0.7424049000001105,186.75105989999793,187.7541824,187.73483570000099,None,186.75105989999793,None,186.75105989999793,None,186.75105989999793,None,188.47721307999964,None,188.47721307999964,None,188.47721307999964,None,,,,,,,,,,,225,24,Female,2022-05-25_18h22.51.083,Main,2022.1.1,60.006360674638415,
neutral,positive,1,k,k,,,,,,,,,1,0,18,4,,,,,,,,,,,,,,,,,,,,,,,,main,2,2,1,positive,neutral,k,k,1,0.6964451000021654,188.49743949999902,189.51015180000104,189.48925319999762,None,188.49743949999902,None,188.49743949999902,None,188.49743949999902,None,190.17580017999936,None,190.17580017999936,None,190.17580017999936,None,,,,,,,,,,,225,24,Female,2022-05-25_18h22.51.083,Main,2022.1.1,60.006360674638415,
negative,positive,1,j,l,,,,,,,,,1,1,19,6,,,,,,,,,,,,,,,,,,,,,,,,main,1,1,1,positive,negative,l,l,1,0.9301460000024235,190.1965057999987,191.20120419999876,191.18213990000004,None,190.1965057999987,None,190.1965057999987,None,190.1965057999987,None,192.10847638000124,None,192.10847638000124,None,192.10847638000124,None,,,,,,,,,,,225,24,Female,2022-05-25_18h22.51.083,Main,2022.1.1,60.006360674638415,
positive,negative,2,l,j,,,,,,,,,1,2,20,14,,,,,,,,,,,,,,,,,,,,,,,,main,1,1,2,negative,positive,j,j,1,0.7820544999995036,192.12984470000083,193.13312089999818,193.1138796999985,None,192.12984470000083,None,192.12984470000083,None,192.12984470000083,None,193.89359367999933,None,193.89359367999933,None,193.89359367999933,None,,,,,,,,,,,225,24,Female,2022-05-25_18h22.51.083,Main,2022.1.1,60.006360674638415,
neutral,neutral,2,k,k,,,,,,,,,1,3,21,10,,,,,,,,,,,,,,,,,,,,,,,,main,2,2,2,neutral,neutral,k,k,1,0.6531811999993806,193.91411199999857,194.91878899999938,194.89930559999993,None,193.91411199999857,None,193.91411199999857,None,193.91411199999857,None,195.54800167999784,None,195.54800167999784,None,195.54800167999784,None,,,,,,,,,,,225,24,Female,2022-05-25_18h22.51.083,Main,2022.1.1,60.006360674638415,
positive,neutral,2,l,j,,,,,,,,,1,4,22,17,,,,,,,,,,,,,,,,,,,,,,,,main,2,2,2,neutral,positive,j,j,1,0.7430292999997619,195.5701545999982,196.5869219999986,196.54688199999873,None,195.5701545999982,None,195.5701545999982,None,195.5701545999982,None,197.2959574799992,None,197.2959574799992,None,197.2959574799992,None,,,,,,,,,,,225,24,Female,2022-05-25_18h22.51.083,Main,2022.1.1,60.006360674638415,
negative,negative,2,j,l,,,,,,,,,1,5,23,9,,,,,,,,,,,,,,,,,,,,,,,,main,1,1,2,negative,negative,l,l,1,0.9773881000000983,197.31674809999822,198.33680599999934,198.29785899999843,None,197.31674809999822,None,197.31674809999822,None,197.31674809999822,None,199.27766678000117,None,199.27766678000117,None,199.27766678000117,None,,,,,,,,,,,225,24,Female,2022-05-25_18h22.51.083,Main,2022.1.1,60.006360674638415,
neutral,negative,1,k,k,,,,,,,,,1,6,24,7,,,,,,,,,,,,,,,,,,,,,,,,main,1,1,1,negative,neutral,k,k,1,0.7421028000026126,199.29918759999782,200.317267800001,200.2754501999989,None,199.29918759999782,None,199.29918759999782,None,199.29918759999782,None,201.02538148000022,None,201.02538148000022,None,201.02538148000022,None,,,,,,,,,,,225,24,Female,2022-05-25_18h22.51.083,Main,2022.1.1,60.006360674638415,
negative,negative,1,j,l,,,,,,,,,1,7,25,0,,,,,,,,,,,,,,,,,,,,,,,,main,2,2,1,negative,negative,l,l,1,0.8251079000001482,201.0461174000011,202.0592672999992,202.03706419999799,None,201.0461174000011,None,201.0461174000011,None,201.0461174000011,None,202.85042728000045,None,202.85042728000045,None,202.85042728000045,None,,,,,,,,,,,225,24,Female,2022-05-25_18h22.51.083,Main,2022.1.1,60.006360674638415,
positive,positive,2,l,j,,,,,,,,,1,8,26,11,,,,,,,,,,,,,,,,,,,,,,,,main,1,1,2,positive,positive,j,j,1,0.6458223999979964,202.8715157000006,203.87495330000093,203.85406339999827,None,202.8715157000006,None,202.8715157000006,None,202.8715157000006,None,204.49818298000028,None,204.49818298000028,None,204.49818298000028,None,,,,,,,,,,,225,24,Female,2022-05-25_18h22.51.083,Main,2022.1.1,60.006360674638415,
negative,neutral,1,j,l,,,,,,,,,1,9,27,3,,,,,,,,,,,,,,,,,,,,,,,,main,2,2,1,neutral,negative,l,l,1,0.8782985999969242,204.51989409999806,205.53779600000053,205.49776719999863,None,204.51989409999806,None,204.51989409999806,None,204.51989409999806,None,206.37978877999777,None,206.37978877999777,None,206.37978877999777,None,,,,,,,,,,,225,24,Female,2022-05-25_18h22.51.083,Main,2022.1.1,60.006360674638415,
neutral,neutral,1,k,k,,,,,,,,,1,10,28,1,,,,,,,,,,,,,,,,,,,,,,,,main,1,1,1,neutral,neutral,k,k,1,0.6740823000000091,206.4017247999982,207.41908409999814,207.3801158999995,None,206.4017247999982,None,206.4017247999982,None,206.4017247999982,None,208.0590583799989,None,208.0590583799989,None,208.0590583799989,None,,,,,,,,,,,225,24,Female,2022-05-25_18h22.51.083,Main,2022.1.1,60.006360674638415,
neutral,negative,2,k,k,,,,,,,,,1,11,29,16,,,,,,,,,,,,,,,,,,,,,,,,main,2,2,2,negative,neutral,k,k,1,0.7264099000021815,208.08138770000005,209.08511069999804,209.06558379999842,None,208.08138770000005,None,208.08138770000005,None,208.08138770000005,None,209.78998447999984,None,209.78998447999984,None,209.78998447999984,None,,,,,,,,,,,225,24,Female,2022-05-25_18h22.51.083,Main,2022.1.1,60.006360674638415,
negative,neutral,2,j,l,,,,,,,,,1,12,30,12,,,,,,,,,,,,,,,,,,,,,,,,main,2,2,2,neutral,negative,l,l,1,0.7946005999983754,209.8106387000007,210.82010549999904,210.8008364999987,None,209.8106387000007,None,209.8106387000007,None,209.8106387000007,None,211.58659977999778,None,211.58659977999778,None,211.58659977999778,None,,,,,,,,,,,225,24,Female,2022-05-25_18h22.51.083,Main,2022.1.1,60.006360674638415,
neutral,positive,2,k,k,,,,,,,,,1,13,31,13,,,,,,,,,,,,,,,,,,,,,,,,main,1,1,2,positive,neutral,k,k,1,0.7044752000001608,211.60752669999783,212.61456619999808,212.59549400000105,None,211.60752669999783,None,211.60752669999783,None,211.60752669999783,None,213.29295198000037,None,213.29295198000037,None,213.29295198000037,None,,,,,,,,,,,225,24,Female,2022-05-25_18h22.51.083,Main,2022.1.1,60.006360674638415,
negative,positive,2,j,l,,,,,,,,,1,14,32,15,,,,,,,,,,,,,,,,,,,,,,,,main,2,2,2,positive,negative,l,l,1,0.7248727000005601,213.31424979999792,214.3179581000004,214.2972211999986,None,213.31424979999792,None,213.31424979999792,None,213.31424979999792,None,215.02333628000125,None,215.02333628000125,None,215.02333628000125,None,,,,,,,,,,,225,24,Female,2022-05-25_18h22.51.083,Main,2022.1.1,60.006360674638415,
positive,negative,1,l,j,,,,,,,,,1,15,33,5,,,,,,,,,,,,,,,,,,,,,,,,main,2,2,1,negative,positive,j,j,1,0.9249622999996063,215.04635079999935,216.05028169999787,216.03104429999803,None,215.04635079999935,None,215.04635079999935,None,215.04635079999935,None,216.9531246799983,None,216.9531246799983,None,216.9531246799983,None,,,,,,,,,,,225,24,Female,2022-05-25_18h22.51.083,Main,2022.1.1,60.006360674638415,
positive,neutral,1,l,j,,,,,,,,,1,16,34,8,,,,,,,,,,,,,,,,,,,,,,,,main,2,2,1,neutral,positive,j,j,1,0.7127346999986912,216.97388209999917,217.981091499998,217.9619161999981,None,216.97388209999917,None,216.97388209999917,None,216.97388209999917,None,218.6659479799986,None,218.6659479799986,None,218.6659479799986,None,,,,,,,,,,,225,24,Female,2022-05-25_18h22.51.083,Main,2022.1.1,60.006360674638415,
positive,positive,1,l,j,,,,,,,,,1,17,35,2,,,,,,,,,,,,,,,,,,,,,,,,main,2,2,1,positive,positive,j,j,1,0.6634887999971397,218.69133999999758,219.70414940000046,219.66431680000096,None,218.69133999999758,None,218.69133999999758,None,218.69133999999758,None,220.3323698799999,None,220.3323698799999,None,220.3323698799999,None,,,,,,,,,,,225,24,Female,2022-05-25_18h22.51.083,Main,2022.1.1,60.006360674638415,
negative,positive,2,j,l,,,,,,,,,2,0,36,15,,,,,,,,,,,,,,,,,,,,,,,,main,1,1,2,positive,negative,l,l,1,0.7683753999990586,220.35464320000028,221.36539830000038,221.34566379999887,None,220.35464320000028,None,220.35464320000028,None,220.35464320000028,None,222.10647907999956,None,222.10647907999956,None,222.10647907999956,None,,,,,,,,,,,225,24,Female,2022-05-25_18h22.51.083,Main,2022.1.1,60.006360674638415,
positive,negative,2,l,j,,,,,,,,,2,1,37,14,,,,,,,,,,,,,,,,,,,,,,,,main,1,1,2,negative,positive,j,j,1,0.9001270000007935,222.12875219999842,223.13093379999918,223.1115968999984,None,222.12875219999842,None,222.12875219999842,None,222.12875219999842,None,224.01069547999796,None,224.01069547999796,None,224.01069547999796,None,,,,,,,,,,,225,24,Female,2022-05-25_18h22.51.083,Main,2022.1.1,60.006360674638415,
positive,negative,1,l,j,,,,,,,,,2,2,38,5,,,,,,,,,,,,,,,,,,,,,,,,main,2,2,1,negative,positive,j,j,1,0.7847113999996509,224.03159550000055,225.05405930000052,225.01348900000085,None,224.03159550000055,None,224.03159550000055,None,224.03159550000055,None,225.79724557999944,None,225.79724557999944,None,225.79724557999944,None,,,,,,,,,,,225,24,Female,2022-05-25_18h22.51.083,Main,2022.1.1,60.006360674638415,
neutral,negative,2,k,k,,,,,,,,,2,3,39,16,,,,,,,,,,,,,,,,,,,,,,,,main,1,1,2,negative,neutral,k,k,1,0.7026622000012139,225.81825190000018,226.8234420000008,226.8023284999981,None,225.81825190000018,None,225.81825190000018,None,225.81825190000018,None,227.50523058000036,None,227.50523058000036,None,227.50523058000036,None,,,,,,,,,,,225,24,Female,2022-05-25_18h22.51.083,Main,2022.1.1,60.006360674638415,
negative,negative,2,j,l,,,,,,,,,2,4,40,9,,,,,,,,,,,,,,,,,,,,,,,,main,1,1,2,negative,negative,l,l,1,0.7945777000022645,227.5255916999995,228.539262899998,228.49965289999818,None,227.5255916999995,None,227.5255916999995,None,227.5255916999995,None,229.30248538000015,None,229.30248538000015,None,229.30248538000015,None,,,,,,,,,,,225,24,Female,2022-05-25_18h22.51.083,Main,2022.1.1,60.006360674638415,
positive,positive,1,l,j,,,,,,,,,2,5,41,2,,,,,,,,,,,,,,,,,,,,,,,,main,2,2,1,positive,positive,j,j,1,0.8431930000006105,229.32265859999825,230.34062540000014,230.2996110999993,None,229.32265859999825,None,229.32265859999825,None,229.32265859999825,None,231.14542038000073,None,231.14542038000073,None,231.14542038000073,None,,,,,,,,,,,225,24,Female,2022-05-25_18h22.51.083,Main,2022.1.1,60.006360674638415,
negative,neutral,2,j,l,,,,,,,,,2,6,42,12,,,,,,,,,,,,,,,,,,,,,,,,main,2,2,2,neutral,negative,l,l,1,0.8824797999986913,231.1712923999985,232.1853396000006,232.14585230000012,None,231.1712923999985,None,231.1712923999985,None,231.1712923999985,None,233.03302957999986,None,233.03302957999986,None,233.03302957999986,None,,,,,,,,,,,225,24,Female,2022-05-25_18h22.51.083,Main,2022.1.1,60.006360674638415,
negative,positive,1,j,l,,,,,,,,,2,7,43,6,,,,,,,,,,,,,,,,,,,,,,,,main,2,2,1,positive,negative,l,l,1,0.843037300001015,233.0554486000001,234.0656201999991,234.0458940999997,None,233.0554486000001,None,233.0554486000001,None,233.0554486000001,None,234.87604367999884,None,234.87604367999884,None,234.87604367999884,None,,,,,,,,,,,225,24,Female,2022-05-25_18h22.51.083,Main,2022.1.1,60.006360674638415,
neutral,neutral,1,k,k,,,,,,,,,2,8,44,1,,,,,,,,,,,,,,,,,,,,,,,,main,1,1,1,neutral,neutral,k,k,1,0.7248591999996279,234.89695829999982,235.904105900001,235.88239089999843,None,234.89695829999982,None,234.89695829999982,None,234.89695829999982,None,236.6045389800005,None,236.6045389800005,None,236.6045389800005,None,,,,,,,,,,,225,24,Female,2022-05-25_18h22.51.083,Main,2022.1.1,60.006360674638415,
neutral,positive,1,k,k,,,,,,,,,2,9,45,4,,,,,,,,,,,,,,,,,,,,,,,,main,2,2,1,positive,neutral,k,k,1,0.8166049000028579,236.62791500000094,237.63708530000076,237.61627539999972,None,236.62791500000094,None,236.62791500000094,None,236.62791500000094,None,238.42515058000063,None,238.42515058000063,None,238.42515058000063,None,,,,,,,,,,,225,24,Female,2022-05-25_18h22.51.083,Main,2022.1.1,60.006360674638415,
positive,neutral,1,l,j,,,,,,,,,2,10,46,8,,,,,,,,,,,,,,,,,,,,,,,,main,1,1,1,neutral,positive,j,j,1,1.3670636000024388,238.44767529999808,239.4488070999978,239.43205979999766,None,238.44767529999808,None,238.44767529999808,None,238.44767529999808,None,240.79456997999878,None,240.79456997999878,None,240.79456997999878,None,,,,,,,,,,,225,24,Female,2022-05-25_18h22.51.083,Main,2022.1.1,60.006360674638415,
negative,neutral,1,j,l,,,,,,,,,2,11,47,3,,,,,,,,,,,,,,,,,,,,,,,,main,1,1,1,neutral,negative,l,l,1,0.8200587999999698,240.81579449999845,241.8195455999994,241.79882569999972,None,240.81579449999845,None,240.81579449999845,None,240.81579449999845,None,242.62005097999864,None,242.62005097999864,None,242.62005097999864,None,,,,,,,,,,,225,24,Female,2022-05-25_18h22.51.083,Main,2022.1.1,60.006360674638415,
neutral,negative,1,k,k,,,,,,,,,2,12,48,7,,,,,,,,,,,,,,,,,,,,,,,,main,2,2,1,negative,neutral,k,k,1,0.6950923999975203,242.64075179999782,243.64875409999877,243.62914529999762,None,242.64075179999782,None,242.64075179999782,None,242.64075179999782,None,244.3173263800003,None,244.3173263800003,None,244.3173263800003,None,,,,,,,,,,,225,24,Female,2022-05-25_18h22.51.083,Main,2022.1.1,60.006360674638415,
neutral,neutral,2,k,k,,,,,,,,,2,13,49,10,,,,,,,,,,,,,,,,,,,,,,,,main,2,2,2,neutral,neutral,k,k,1,0.8961262999982864,244.33877070000017,245.3547311000002,245.3136123000004,None,244.33877070000017,None,244.33877070000017,None,244.33877070000017,None,246.21605237999975,None,246.21605237999975,None,246.21605237999975,None,,,,,,,,,,,225,24,Female,2022-05-25_18h22.51.083,Main,2022.1.1,60.006360674638415,
negative,negative,1,j,l,,,,,,,,,2,14,50,0,,,,,,,,,,,,,,,,,,,,,,,,main,2,2,1,negative,negative,l,l,1,0.7942003000025579,246.2370458000005,247.2454527000009,247.22503599999982,None,246.2370458000005,None,246.2370458000005,None,246.2370458000005,None,248.01050608000006,None,248.01050608000006,None,248.01050608000006,None,,,,,,,,,,,225,24,Female,2022-05-25_18h22.51.083,Main,2022.1.1,60.006360674638415,
positive,neutral,2,l,j,,,,,,,,,2,15,51,17,,,,,,,,,,,,,,,,,,,,,,,,main,1,1,2,neutral,positive,j,j,1,0.7926504999995814,248.03248819999862,249.04488339999807,249.02558339999814,None,248.03248819999862,None,248.03248819999862,None,248.03248819999862,None,249.8048136800011,None,249.8048136800011,None,249.8048136800011,None,,,,,,,,,,,225,24,Female,2022-05-25_18h22.51.083,Main,2022.1.1,60.006360674638415,
positive,positive,2,l,j,,,,,,,,,2,16,52,11,,,,,,,,,,,,,,,,,,,,,,,,main,2,2,2,positive,positive,j,j,1,0.7172859999991488,249.82793569999922,250.8362421999991,250.8150347999981,None,249.82793569999922,None,249.82793569999922,None,249.82793569999922,None,251.52583147999977,None,251.52583147999977,None,251.52583147999977,None,,,,,,,,,,,225,24,Female,2022-05-25_18h22.51.083,Main,2022.1.1,60.006360674638415,
neutral,positive,2,k,k,,,,,,,,,2,17,53,13,,,,,,,,,,,,,,,,,,,,,,,,main,2,2,2,positive,neutral,k,k,1,0.6824022000000696,251.55242680000083,252.56344819999867,252.52708060000077,None,251.55242680000083,None,251.55242680000083,None,251.55242680000083,None,253.21328027999917,None,253.21328027999917,None,253.21328027999917,None,,,,,,,,,,,225,24,Female,2022-05-25_18h22.51.083,Main,2022.1.1,60.006360674638415,
negative,neutral,2,j,l,,,,,,,,,3,0,54,12,,,,,,,,,,,,,,,,,,,,,,,,main,2,2,2,neutral,negative,l,l,1,0.8620117999998911,253.23451510000086,254.24373919999925,254.22393799999918,None,253.23451510000086,None,253.23451510000086,None,253.23451510000086,None,255.07503687999852,None,255.07503687999852,None,255.07503687999852,None,,,,,,,,,,,225,24,Female,2022-05-25_18h22.51.083,Main,2022.1.1,60.006360674638415,
neutral,positive,1,k,k,,,,,,,,,3,1,55,4,,,,,,,,,,,,,,,,,,,,,,,,main,2,2,1,positive,neutral,k,k,1,0.663657000000967,255.09757059999902,256.11365229999865,256.07437089999803,None,255.09757059999902,None,255.09757059999902,None,255.09757059999902,None,256.7413261799978,None,256.7413261799978,None,256.7413261799978,None,,,,,,,,,,,225,24,Female,2022-05-25_18h22.51.083,Main,2022.1.1,60.006360674638415,
positive,negative,1,l,j,,,,,,,,,3,2,56,5,,,,,,,,,,,,,,,,,,,,,,,,main,1,1,1,negative,positive,j,j,1,0.9248571999996784,256.76272289999906,257.76902859999973,257.7481201999981,None,256.76272289999906,None,256.76272289999906,None,256.76272289999906,None,258.66948717999765,None,258.66948717999765,None,258.66948717999765,None,,,,,,,,,,,225,24,Female,2022-05-25_18h22.51.083,Main,2022.1.1,60.006360674638415,
neutral,neutral,1,k,k,,,,,,,,,3,3,57,1,,,,,,,,,,,,,,,,,,,,,,,,main,2,2,1,neutral,neutral,k,k,1,0.7024267000015243,258.6919028000011,259.7106249999997,259.6717970999998,None,258.6919028000011,None,258.6919028000011,None,258.6919028000011,None,260.37375738000117,None,260.37375738000117,None,260.37375738000117,None,,,,,,,,,,,225,24,Female,2022-05-25_18h22.51.083,Main,2022.1.1,60.006360674638415,
negative,neutral,1,j,l,,,,,,,,,3,4,58,3,,,,,,,,,,,,,,,,,,,,,,,,main,1,1,1,neutral,negative,l,l,1,0.7254423000013048,260.40350390000094,261.4232697000007,261.3813494999995,None,260.40350390000094,None,260.40350390000094,None,260.40350390000094,None,262.10589517999904,None,262.10589517999904,None,262.10589517999904,None,,,,,,,,,,,225,24,Female,2022-05-25_18h22.51.083,Main,2022.1.1,60.006360674638415,
positive,negative,2,l,j,,,,,,,,,3,5,59,14,,,,,,,,,,,,,,,,,,,,,,,,main,2,2,2,negative,positive,j,j,1,1.0888339999983145,262.12638549999974,263.12940679999883,263.1100570999988,None,262.12638549999974,None,262.12638549999974,None,262.12638549999974,None,264.19932198000095,None,264.19932198000095,None,264.19932198000095,None,,,,,,,,,,,225,24,Female,2022-05-25_18h22.51.083,Main,2022.1.1,60.006360674638415,
neutral,negative,1,k,k,,,,,,,,,3,6,60,7,,,,,,,,,,,,,,,,,,,,,,,,main,1,1,1,negative,neutral,k,k,1,0.7127498000008927,264.22137809999913,265.2281680999986,265.2080982000007,None,264.22137809999913,None,264.22137809999913,None,264.22137809999913,None,265.9143618799993,None,265.9143618799993,None,265.9143618799993,None,,,,,,,,,,,225,24,Female,2022-05-25_18h22.51.083,Main,2022.1.1,60.006360674638415,
positive,neutral,2,l,j,,,,,,,,,3,7,61,17,,,,,,,,,,,,,,,,,,,,,,,,main,1,1,2,neutral,positive,j,j,1,0.7301537000021199,265.93506179999895,266.9410699,266.92171659999804,None,265.93506179999895,None,265.93506179999895,None,265.93506179999895,None,267.64698698000063,None,267.64698698000063,None,267.64698698000063,None,,,,,,,,,,,225,24,Female,2022-05-25_18h22.51.083,Main,2022.1.1,60.006360674638415,
neutral,neutral,2,k,k,,,,,,,,,3,8,62,10,,,,,,,,,,,,,,,,,,,,,,,,main,1,1,2,neutral,neutral,k,k,1,0.751007099999697,267.66751979999754,268.6754937000005,268.65560339999865,None,267.66751979999754,None,267.66751979999754,None,267.66751979999754,None,269.400880380001,None,269.400880380001,None,269.400880380001,None,,,,,,,,,,,225,24,Female,2022-05-25_18h22.51.083,Main,2022.1.1,60.006360674638415,
neutral,positive,2,k,k,,,,,,,,,3,9,63,13,,,,,,,,,,,,,,,,,,,,,,,,main,1,1,2,positive,neutral,k,k,1,0.6887610000012501,269.42103040000075,270.4267820999994,270.4057532000006,None,269.42103040000075,None,269.42103040000075,None,269.42103040000075,None,271.0907439799979,None,271.0907439799979,None,271.0907439799979,None,,,,,,,,,,,225,24,Female,2022-05-25_18h22.51.083,Main,2022.1.1,60.006360674638415,
negative,negative,1,j,l,,,,,,,,,3,10,64,0,,,,,,,,,,,,,,,,,,,,,,,,main,1,1,1,negative,negative,l,l,1,0.7790080999984639,271.1113464000009,272.1206966999998,272.0989054999991,None,271.1113464000009,None,271.1113464000009,None,271.1113464000009,None,272.87187177999874,None,272.87187177999874,None,272.87187177999874,None,,,,,,,,,,,225,24,Female,2022-05-25_18h22.51.083,Main,2022.1.1,60.006360674638415,
neutral,negative,2,k,k,,,,,,,,,3,11,65,16,,,,,,,,,,,,,,,,,,,,,,,,main,1,1,2,negative,neutral,k,k,1,0.6987774999979592,272.89290269999765,273.9123514999992,273.87356739999814,None,272.89290269999765,None,272.89290269999765,None,272.89290269999765,None,274.5734747800001,None,274.5734747800001,None,274.5734747800001,None,,,,,,,,,,,225,24,Female,2022-05-25_18h22.51.083,Main,2022.1.1,60.006360674638415,
positive,positive,1,l,j,,,,,,,,,3,12,66,2,,,,,,,,,,,,,,,,,,,,,,,,main,2,2,1,positive,positive,j,j,1,0.7985565000017232,274.59615620000113,275.6120009999977,275.5733509999991,None,274.59615620000113,None,274.59615620000113,None,274.59615620000113,None,276.37353067999936,None,276.37353067999936,None,276.37353067999936,None,,,,,,,,,,,225,24,Female,2022-05-25_18h22.51.083,Main,2022.1.1,60.006360674638415,
negative,positive,1,j,l,,,,,,,,,3,13,67,6,,,,,,,,,,,,,,,,,,,,,,,,main,1,1,1,positive,negative,l,l,1,0.8761519999970915,276.39754729999913,277.41159269999844,277.3925915,None,276.39754729999913,None,276.39754729999913,None,276.39754729999913,None,278.2546578799978,None,278.2546578799978,None,278.2546578799978,None,,,,,,,,,,,225,24,Female,2022-05-25_18h22.51.083,Main,2022.1.1,60.006360674638415,
positive,neutral,1,l,j,,,,,,,,,3,14,68,8,,,,,,,,,,,,,,,,,,,,,,,,main,2,2,1,neutral,positive,j,j,1,0.8040658999998413,278.2756722999984,279.2797165000011,279.25941779999994,None,278.2756722999984,None,278.2756722999984,None,278.2756722999984,None,280.0640542799978,None,280.0640542799978,None,280.0640542799978,None,,,,,,,,,,,225,24,Female,2022-05-25_18h22.51.083,Main,2022.1.1,60.006360674638415,
negative,positive,2,j,l,,,,,,,,,3,15,69,15,,,,,,,,,,,,,,,,,,,,,,,,main,2,2,2,positive,negative,l,l,1,0.7156854999993811,280.0850208000011,281.0911285000002,281.07169710000016,None,280.0850208000011,None,280.0850208000011,None,280.0850208000011,None,281.7820896799989,None,281.7820896799989,None,281.7820896799989,None,,,,,,,,,,,225,24,Female,2022-05-25_18h22.51.083,Main,2022.1.1,60.006360674638415,
negative,negative,2,j,l,,,,,,,,,3,16,70,9,,,,,,,,,,,,,,,,,,,,,,,,main,2,2,2,negative,negative,l,l,1,0.7598739999993995,281.8031599999995,282.8219530999995,282.7817853999986,None,281.8031599999995,None,281.8031599999995,None,281.8031599999995,None,283.5445911800001,None,283.5445911800001,None,283.5445911800001,None,,,,,,,,,,,225,24,Female,2022-05-25_18h22.51.083,Main,2022.1.1,60.006360674638415,
positive,positive,2,l,j,,,,,,,,,3,17,71,11,,,,,,,,,,,,,,,,,,,,,,,,main,2,2,2,positive,positive,j,j,1,0.6966485000011744,283.56830869999976,284.577558099998,284.5580869000005,None,283.56830869999976,None,283.56830869999976,None,283.56830869999976,None,285.2437880800011,None,285.2437880800011,None,285.2437880800011,None,,,,,,,,,,,225,24,Female,2022-05-25_18h22.51.083,Main,2022.1.1,60.006360674638415,
negative,negative,1,j,l,,,,,,,,,4,0,72,0,,,,,,,,,,,,,,,,,,,,,,,,main,1,1,1,negative,negative,l,l,1,0.7323531000001822,285.2643098999979,286.27291369999875,286.25404269999854,None,285.2643098999979,None,285.2643098999979,None,285.2643098999979,None,286.97877258000005,None,286.97877258000005,None,286.97877258000005,None,,,,,,,,,,,225,24,Female,2022-05-25_18h22.51.083,Main,2022.1.1,60.006360674638415,
positive,positive,1,l,j,,,,,,,,,4,1,73,2,,,,,,,,,,,,,,,,,,,,,,,,main,1,1,1,positive,positive,j,j,1,0.8257679000016651,286.999325599998,288.02066999999806,287.98018349999984,None,286.999325599998,None,286.999325599998,None,286.999325599998,None,288.80424717999847,None,288.80424717999847,None,288.80424717999847,None,,,,,,,,,,,225,24,Female,2022-05-25_18h22.51.083,Main,2022.1.1,60.006360674638415,
negative,neutral,1,j,l,,,,,,,,,4,2,74,3,,,,,,,,,,,,,,,,,,,,,,,,main,2,2,1,neutral,negative,l,l,1,0.7174884999985807,288.829563299998,289.8406247999992,289.8194371999998,None,288.829563299998,None,288.829563299998,None,288.829563299998,None,290.52465918000087,None,290.52465918000087,None,290.52465918000087,None,,,,,,,,,,,225,24,Female,2022-05-25_18h22.51.083,Main,2022.1.1,60.006360674638415,
negative,positive,1,j,l,,,,,,,,,4,3,75,6,,,,,,,,,,,,,,,,,,,,,,,,main,2,2,1,positive,negative,l,l,1,0.8106559999978344,290.5458025000007,291.55120499999975,291.5305965999978,None,290.5458025000007,None,290.5458025000007,None,290.5458025000007,None,292.3375987799976,None,292.3375987799976,None,292.3375987799976,None,,,,,,,,,,,225,24,Female,2022-05-25_18h22.51.083,Main,2022.1.1,60.006360674638415,
positive,neutral,2,l,j,,,,,,,,,4,4,76,17,,,,,,,,,,,,,,,,,,,,,,,,main,2,2,2,neutral,positive,j,j,1,0.8668096999972477,292.3586899000002,293.3668942000004,293.34446359999856,None,292.3586899000002,None,292.3586899000002,None,292.3586899000002,None,294.2095629800009,None,294.2095629800009,None,294.2095629800009,None,,,,,,,,,,,225,24,Female,2022-05-25_18h22.51.083,Main,2022.1.1,60.006360674638415,
negative,neutral,2,j,l,,,,,,,,,4,5,77,12,,,,,,,,,,,,,,,,,,,,,,,,main,2,2,2,neutral,negative,l,l,1,0.8586863999989873,294.2307029000003,295.2392598000006,295.21944480000093,None,294.2307029000003,None,294.2307029000003,None,294.2307029000003,None,296.06838637999897,None,296.06838637999897,None,296.06838637999897,None,,,,,,,,,,,225,24,Female,2022-05-25_18h22.51.083,Main,2022.1.1,60.006360674638415,
neutral,neutral,2,k,k,,,,,,,,,4,6,78,10,,,,,,,,,,,,,,,,,,,,,,,,main,2,2,2,neutral,neutral,k,k,1,0.6333105999983673,296.08941960000084,297.09789850000016,297.0767745999983,None,296.08941960000084,None,296.08941960000084,None,296.08941960000084,None,297.70392367999955,None,297.70392367999955,None,297.70392367999955,None,,,,,,,,,,,225,24,Female,2022-05-25_18h22.51.083,Main,2022.1.1,60.006360674638415,
negative,negative,2,j,l,,,,,,,,,4,7,79,9,,,,,,,,,,,,,,,,,,,,,,,,main,1,1,2,negative,negative,l,l,1,0.7231843999979901,297.72508580000067,298.74620460000006,298.7057476000009,None,297.72508580000067,None,297.72508580000067,None,297.72508580000067,None,299.43234747999884,None,299.43234747999884,None,299.43234747999884,None,,,,,,,,,,,225,24,Female,2022-05-25_18h22.51.083,Main,2022.1.1,60.006360674638415,
positive,positive,2,l,j,,,,,,,,,4,8,80,11,,,,,,,,,,,,,,,,,,,,,,,,main,2,2,2,positive,positive,j,j,1,0.781244500001776,299.4546432999996,300.464068199999,300.44334719999824,None,299.4546432999996,None,299.4546432999996,None,299.4546432999996,None,301.21636237999917,None,301.21636237999917,None,301.21636237999917,None,,,,,,,,,,,225,24,Female,2022-05-25_18h22.51.083,Main,2022.1.1,60.006360674638415,
positive,negative,2,l,j,,,,,,,,,4,9,81,14,,,,,,,,,,,,,,,,,,,,,,,,main,1,1,2,negative,positive,j,j,1,0.7011343000012857,301.2385600999987,302.25804869999774,302.219630399999,None,301.2385600999987,None,301.2385600999987,None,301.2385600999987,None,302.9201446799983,None,302.9201446799983,None,302.9201446799983,None,,,,,,,,,,,225,24,Female,2022-05-25_18h22.51.083,Main,2022.1.1,60.006360674638415,
positive,neutral,1,l,j,,,,,,,,,4,10,82,8,,,,,,,,,,,,,,,,,,,,,,,,main,2,2,1,neutral,positive,j,j,1,0.9992066000013438,302.94116099999883,303.9637527999985,303.92273320000095,None,302.94116099999883,None,302.94116099999883,None,302.94116099999883,None,304.9228148799979,None,304.9228148799979,None,304.9228148799979,None,,,,,,,,,,,225,24,Female,2022-05-25_18h22.51.083,Main,2022.1.1,60.006360674638415,
neutral,positive,2,k,k,,,,,,,,,4,11,83,13,,,,,,,,,,,,,,,,,,,,,,,,main,2,2,2,positive,neutral,k,k,1,0.7521386000007624,304.94310849999965,305.951690599999,305.9324538000001,None,304.94310849999965,None,304.94310849999965,None,304.94310849999965,None,306.67903257999785,None,306.67903257999785,None,306.67903257999785,None,,,,,,,,,,,225,24,Female,2022-05-25_18h22.51.083,Main,2022.1.1,60.006360674638415,
neutral,positive,1,k,k,,,,,,,,,4,12,84,4,,,,,,,,,,,,,,,,,,,,,,,,main,2,2,1,positive,neutral,k,k,1,0.7384218000006513,306.6995915999978,307.7080341000001,307.6887018999987,None,306.6995915999978,None,306.6995915999978,None,306.6995915999978,None,308.4188676799989,None,308.4188676799989,None,308.4188676799989,None,,,,,,,,,,,225,24,Female,2022-05-25_18h22.51.083,Main,2022.1.1,60.006360674638415,
neutral,negative,2,k,k,,,,,,,,,4,13,85,16,,,,,,,,,,,,,,,,,,,,,,,,main,1,1,2,negative,neutral,k,k,1,0.6689475000021048,308.43984009999986,309.45201769999767,309.4323504999993,None,308.43984009999986,None,308.43984009999986,None,308.43984009999986,None,310.0925499799981,None,310.0925499799981,None,310.0925499799981,None,,,,,,,,,,,225,24,Female,2022-05-25_18h22.51.083,Main,2022.1.1,60.006360674638415,
neutral,neutral,1,k,k,,,,,,,,,4,14,86,1,,,,,,,,,,,,,,,,,,,,,,,,main,2,2,1,neutral,neutral,k,k,1,0.5795875000003434,310.1137520000011,311.128143599999,311.0879743999976,None,310.1137520000011,None,310.1137520000011,None,310.1137520000011,None,311.6745686800008,None,311.6745686800008,None,311.6745686800008,None,,,,,,,,,,,225,24,Female,2022-05-25_18h22.51.083,Main,2022.1.1,60.006360674638415,
positive,negative,1,l,j,,,,,,,,,4,15,87,5,,,,,,,,,,,,,,,,,,,,,,,,main,2,2,1,negative,positive,j,j,1,0.9412349999984144,311.6954736000007,312.7042055999991,312.68540120000034,None,311.6954736000007,None,311.6954736000007,None,311.6954736000007,None,313.6158847799983,None,313.6158847799983,None,313.6158847799983,None,,,,,,,,,,,225,24,Female,2022-05-25_18h22.51.083,Main,2022.1.1,60.006360674638415,
neutral,negative,1,k,k,,,,,,,,,4,16,88,7,,,,,,,,,,,,,,,,,,,,,,,,main,1,1,1,negative,neutral,k,k,1,0.6674070999979449,313.63789840000027,314.6574937999976,314.61839549999786,None,313.63789840000027,None,313.63789840000027,None,313.63789840000027,None,315.2855655799998,None,315.2855655799998,None,315.2855655799998,None,,,,,,,,,,,225,24,Female,2022-05-25_18h22.51.083,Main,2022.1.1,60.006360674638415,
negative,positive,2,j,l,,,,,,,,,4,17,89,15,,,,,,,,,,,,,,,,,,,,,,,,main,1,1,2,positive,negative,l,l,1,0.7292383999993035,315.3076241999988,316.314259499999,316.2930388999994,None,315.3076241999988,None,315.3076241999988,None,315.3076241999988,None,317.01751877999993,None,317.01751877999993,None,317.01751877999993,None,,,,,,,,,,,225,24,Female,2022-05-25_18h22.51.083,Main,2022.1.1,60.006360674638415,
positive,neutral,1,l,j,,,,,,,,,5,0,90,8,,,,,,,,,,,,,,,,,,,,,,,,main,2,2,1,neutral,positive,j,j,1,0.8007251000017277,317.04250630000024,318.0629115999982,318.0231152999986,None,317.04250630000024,None,317.04250630000024,None,317.04250630000024,None,318.8237134799987,None,318.8237134799987,None,318.8237134799987,None,,,,,,,,,,,225,24,Female,2022-05-25_18h22.51.083,Main,2022.1.1,60.006360674638415,
negative,positive,2,j,l,,,,,,,,,5,1,91,15,,,,,,,,,,,,,,,,,,,,,,,,main,2,2,2,positive,negative,l,l,1,0.8299004999971658,318.847075499998,319.8500477999987,319.8309186000006,None,318.847075499998,None,318.847075499998,None,318.847075499998,None,320.6557988799999,None,320.6557988799999,None,320.6557988799999,None,,,,,,,,,,,225,24,Female,2022-05-25_18h22.51.083,Main,2022.1.1,60.006360674638415,
positive,neutral,2,l,j,,,,,,,,,5,2,92,17,,,,,,,,,,,,,,,,,,,,,,,,main,2,2,2,neutral,positive,j,j,1,0.7189705000018876,320.67755939999915,321.6860149999993,321.66605290000007,None,320.67755939999915,None,320.67755939999915,None,320.67755939999915,None,322.377100879998,None,322.377100879998,None,322.377100879998,None,,,,,,,,,,,225,24,Female,2022-05-25_18h22.51.083,Main,2022.1.1,60.006360674638415,
neutral,positive,1,k,k,,,,,,,,,5,3,93,4,,,,,,,,,,,,,,,,,,,,,,,,main,1,1,1,positive,neutral,k,k,1,0.5701895999991393,322.39816430000064,323.4031365999981,323.3828914000005,None,322.39816430000064,None,322.39816430000064,None,322.39816430000064,None,323.94818427999996,None,323.94818427999996,None,323.94818427999996,None,,,,,,,,,,,225,24,Female,2022-05-25_18h22.51.083,Main,2022.1.1,60.006360674638415,
negative,neutral,1,j,l,,,,,,,,,5,4,94,3,,,,,,,,,,,,,,,,,,,,,,,,main,2,2,1,neutral,negative,l,j,0,0.8430096000010963,323.96937199999957,324.99033829999826,324.95073989999946,None,323.96937199999957,None,323.96937199999957,None,323.96937199999957,None,325.8021840000001,None,325.8021840000001,None,325.8021840000001,None,,,,,,,,,,,225,24,Female,2022-05-25_18h22.51.083,Main,2022.1.1,60.006360674638415,
neutral,neutral,1,k,k,,,,,,,,,5,5,95,1,,,,,,,,,,,,,,,,,,,,,,,,main,1,1,1,neutral,neutral,k,k,1,0.7525296999992861,326.8207627999982,327.83126459999767,327.8112094999997,None,326.8207627999982,None,326.8207627999982,None,326.8207627999982,None,328.55238938000036,None,328.55238938000036,None,328.55238938000036,None,,,,,,,,,,,225,24,Female,2022-05-25_18h22.51.083,Main,2022.1.1,60.006360674638415,
positive,negative,2,l,j,,,,,,,,,5,6,96,14,,,,,,,,,,,,,,,,,,,,,,,,main,1,1,2,negative,positive,j,j,1,0.7181210999988252,328.57268199999817,329.5976183999992,329.55484219999926,None,328.57268199999817,None,328.57268199999817,None,328.57268199999817,None,330.2757866800006,None,330.2757866800006,None,330.2757866800006,None,,,,,,,,,,,225,24,Female,2022-05-25_18h22.51.083,Main,2022.1.1,60.006360674638415,
negative,positive,1,j,l,,,,,,,,,5,7,97,6,,,,,,,,,,,,,,,,,,,,,,,,main,2,2,1,positive,negative,l,l,1,1.1064332999994804,330.29673990000083,331.29935860000114,331.279896,None,330.29673990000083,None,330.29673990000083,None,330.29673990000083,None,332.38217157999895,None,332.38217157999895,None,332.38217157999895,None,,,,,,,,,,,225,24,Female,2022-05-25_18h22.51.083,Main,2022.1.1,60.006360674638415,
neutral,negative,1,k,k,,,,,,,,,5,8,98,7,,,,,,,,,,,,,,,,,,,,,,,,main,1,1,1,negative,neutral,k,k,1,0.5871206000010716,332.4071702000001,333.4303151999993,333.38632999999754,None,332.4071702000001,None,332.4071702000001,None,332.4071702000001,None,333.97519877999946,None,333.97519877999946,None,333.97519877999946,None,,,,,,,,,,,225,24,Female,2022-05-25_18h22.51.083,Main,2022.1.1,60.006360674638415,
neutral,positive,2,k,k,,,,,,,,,5,9,99,13,,,,,,,,,,,,,,,,,,,,,,,,main,2,2,2,positive,neutral,k,k,1,0.6911231000012776,333.99908270000014,335.001952300001,334.98330519999945,None,333.99908270000014,None,333.99908270000014,None,333.99908270000014,None,335.6659196799977,None,335.6659196799977,None,335.6659196799977,None,,,,,,,,,,,225,24,Female,2022-05-25_18h22.51.083,Main,2022.1.1,60.006360674638415,
neutral,negative,2,k,k,,,,,,,,,5,10,100,16,,,,,,,,,,,,,,,,,,,,,,,,main,1,1,2,negative,neutral,k,k,1,0.6028740000001562,335.6909661999998,336.7128481,336.6710286999987,None,335.6909661999998,None,335.6909661999998,None,335.6909661999998,None,337.2736364799988,None,337.2736364799988,None,337.2736364799988,None,,,,,,,,,,,225,24,Female,2022-05-25_18h22.51.083,Main,2022.1.1,60.006360674638415,
positive,negative,1,l,j,,,,,,,,,5,11,101,5,,,,,,,,,,,,,,,,,,,,,,,,main,1,1,1,negative,positive,j,j,1,0.7908064999974158,337.2945903,338.3077023000005,338.2865077999995,None,337.2945903,None,337.2945903,None,337.2945903,None,339.06457788000114,None,339.06457788000114,None,339.06457788000114,None,,,,,,,,,,,225,24,Female,2022-05-25_18h22.51.083,Main,2022.1.1,60.006360674638415,
positive,positive,1,l,j,,,,,,,,,5,12,102,2,,,,,,,,,,,,,,,,,,,,,,,,main,1,1,1,positive,positive,j,j,1,0.681333700002142,339.0892222000002,340.1114023000009,340.07058830000096,None,339.0892222000002,None,339.0892222000002,None,339.0892222000002,None,340.7470935799996,None,340.7470935799996,None,340.7470935799996,None,,,,,,,,,,,225,24,Female,2022-05-25_18h22.51.083,Main,2022.1.1,60.006360674638415,
negative,neutral,2,j,l,,,,,,,,,5,13,103,12,,,,,,,,,,,,,,,,,,,,,,,,main,1,1,2,neutral,negative,l,l,1,0.7495415999983379,340.76951149999877,341.7773214000008,341.75670139999784,None,340.76951149999877,None,340.76951149999877,None,340.76951149999877,None,342.5013456799992,None,342.5013456799992,None,342.5013456799992,None,,,,,,,,,,,225,24,Female,2022-05-25_18h22.51.083,Main,2022.1.1,60.006360674638415,
negative,negative,1,j,l,,,,,,,,,5,14,104,0,,,,,,,,,,,,,,,,,,,,,,,,main,1,1,1,negative,negative,l,l,1,1.246273900000233,342.5231357999983,343.52936939999927,343.50877539999783,None,342.5231357999983,None,342.5231357999983,None,342.5231357999983,None,344.75357007999844,None,344.75357007999844,None,344.75357007999844,None,,,,,,,,,,,225,24,Female,2022-05-25_18h22.51.083,Main,2022.1.1,60.006360674638415,
positive,positive,2,l,j,,,,,,,,,5,15,105,11,,,,,,,,,,,,,,,,,,,,,,,,main,1,1,2,positive,positive,j,j,1,0.7912318999988202,344.7736143000002,345.7860707,345.74689529999887,None,344.7736143000002,None,344.7736143000002,None,344.7736143000002,None,346.54462188000105,None,346.54462188000105,None,346.54462188000105,None,,,,,,,,,,,225,24,Female,2022-05-25_18h22.51.083,Main,2022.1.1,60.006360674638415,
neutral,neutral,2,k,k,,,,,,,,,5,16,106,10,,,,,,,,,,,,,,,,,,,,,,,,main,2,2,2,neutral,neutral,k,k,1,0.7663969000022917,346.5665345999987,347.5855570999993,347.54615419999755,None,346.5665345999987,None,346.5665345999987,None,346.5665345999987,None,348.3133848800011,None,348.3133848800011,None,348.3133848800011,None,,,,,,,,,,,225,24,Female,2022-05-25_18h22.51.083,Main,2022.1.1,60.006360674638415,
negative,negative,2,j,l,,,,,,,,,5,17,107,9,,,,,,,,,,,,,,,,,,,,,,,,main,1,1,2,negative,negative,l,l,1,1.0014589999991586,348.33509199999753,349.33430679999947,349.3176257999985,None,348.33509199999753,None,348.33509199999753,None,348.33509199999753,None,350.3191546799993,None,350.3191546799993,None,350.3191546799993,None,,,,,,,,,,,225,24,Female,2022-05-25_18h22.51.083,Main,2022.1.1,60.006360674638415,
positive,positive,2,l,j,,,,,,,,,6,0,108,11,,,,,,,,,,,,,,,,,,,,,,,,main,1,1,2,positive,positive,j,j,1,0.6592115000021295,350.3405356000003,351.3564043999977,351.31586740000057,None,350.3405356000003,None,350.3405356000003,None,350.3405356000003,None,351.9792463799989,None,351.9792463799989,None,351.9792463799989,None,,,,,,,,,,,225,24,Female,2022-05-25_18h22.51.083,Main,2022.1.1,60.006360674638415,
negative,neutral,1,j,l,,,,,,,,,6,1,109,3,,,,,,,,,,,,,,,,,,,,,,,,main,2,2,1,neutral,negative,l,l,1,0.7055225000003702,351.9998663999977,353.0018214999982,352.98252839999986,None,351.9998663999977,None,351.9998663999977,None,351.9998663999977,None,353.68826857999954,None,353.68826857999954,None,353.68826857999954,None,,,,,,,,,,,225,24,Female,2022-05-25_18h22.51.083,Main,2022.1.1,60.006360674638415,
positive,positive,1,l,j,,,,,,,,,6,2,110,2,,,,,,,,,,,,,,,,,,,,,,,,main,2,2,1,positive,positive,j,j,1,0.7091422000012244,353.7102847999995,354.7165084999979,354.69685219999883,None,353.7102847999995,None,353.7102847999995,None,353.7102847999995,None,355.4019508799996,None,355.4019508799996,None,355.4019508799996,None,,,,,,,,,,,225,24,Female,2022-05-25_18h22.51.083,Main,2022.1.1,60.006360674638415,
negative,negative,1,j,l,,,,,,,,,6,3,111,0,,,,,,,,,,,,,,,,,,,,,,,,main,2,2,1,negative,negative,l,l,1,0.6976208999985829,355.4237885000002,356.4345012999984,356.39583610000045,None,355.4237885000002,None,355.4237885000002,None,355.4237885000002,None,357.09961128000066,None,357.09961128000066,None,357.09961128000066,None,,,,,,,,,,,225,24,Female,2022-05-25_18h22.51.083,Main,2022.1.1,60.006360674638415,
neutral,negative,1,k,k,,,,,,,,,6,4,112,7,,,,,,,,,,,,,,,,,,,,,,,,main,2,2,1,negative,neutral,k,k,1,0.5706624999984342,357.1233868999989,358.1289528999987,358.1093105,None,357.1233868999989,None,357.1233868999989,None,357.1233868999989,None,358.6732913799991,None,358.6732913799991,None,358.6732913799991,None,,,,,,,,,,,225,24,Female,2022-05-25_18h22.51.083,Main,2022.1.1,60.006360674638415,
neutral,neutral,1,k,k,,,,,,,,,6,5,113,1,,,,,,,,,,,,,,,,,,,,,,,,main,2,2,1,neutral,neutral,k,k,1,0.7992763000002014,358.69693030000053,359.71207760000107,359.692239699998,None,358.69693030000053,None,358.69693030000053,None,358.69693030000053,None,360.4761530800009,None,360.4761530800009,None,360.4761530800009,None,,,,,,,,,,,225,24,Female,2022-05-25_18h22.51.083,Main,2022.1.1,60.006360674638415,
positive,negative,2,l,j,,,,,,,,,6,6,114,14,,,,,,,,,,,,,,,,,,,,,,,,main,2,2,2,negative,positive,j,j,1,0.6653136000022641,360.49864890000026,361.5047674999987,361.48270050000065,None,360.49864890000026,None,360.49864890000026,None,360.49864890000026,None,362.14454927999975,None,362.14454927999975,None,362.14454927999975,None,,,,,,,,,,,225,24,Female,2022-05-25_18h22.51.083,Main,2022.1.1,60.006360674638415,
neutral,positive,1,k,k,,,,,,,,,6,7,115,4,,,,,,,,,,,,,,,,,,,,,,,,main,1,1,1,positive,neutral,k,k,1,0.6546920999971917,362.16643660000045,363.1823216999983,363.143533800001,None,362.16643660000045,None,362.16643660000045,None,362.16643660000045,None,363.80375158000095,None,363.80375158000095,None,363.80375158000095,None,,,,,,,,,,,225,24,Female,2022-05-25_18h22.51.083,Main,2022.1.1,60.006360674638415,
neutral,neutral,2,k,k,,,,,,,,,6,8,116,10,,,,,,,,,,,,,,,,,,,,,,,,main,1,1,2,neutral,neutral,k,k,1,0.6633979999969597,363.8245958000007,364.82941310000024,364.8098472999991,None,363.8245958000007,None,363.8245958000007,None,363.8245958000007,None,365.47005297999783,None,365.47005297999783,None,365.47005297999783,None,,,,,,,,,,,225,24,Female,2022-05-25_18h22.51.083,Main,2022.1.1,60.006360674638415,
positive,neutral,1,l,j,,,,,,,,,6,9,117,8,,,,,,,,,,,,,,,,,,,,,,,,main,2,2,1,neutral,positive,j,j,1,0.6974058000014338,365.49240669999926,366.50834079999913,366.4662505999986,None,365.49240669999926,None,365.49240669999926,None,365.49240669999926,None,367.17031368000096,None,367.17031368000096,None,367.17031368000096,None,,,,,,,,,,,225,24,Female,2022-05-25_18h22.51.083,Main,2022.1.1,60.006360674638415,
negative,negative,2,j,l,,,,,,,,,6,10,118,9,,,,,,,,,,,,,,,,,,,,,,,,main,1,1,2,negative,negative,l,l,1,0.7390544000008958,367.19308939999974,368.21046320000096,368.1698901999989,None,367.19308939999974,None,367.19308939999974,None,367.19308939999974,None,368.9101636799991,None,368.9101636799991,None,368.9101636799991,None,,,,,,,,,,,225,24,Female,2022-05-25_18h22.51.083,Main,2022.1.1,60.006360674638415,
negative,positive,1,j,l,,,,,,,,,6,11,119,6,,,,,,,,,,,,,,,,,,,,,,,,main,1,1,1,positive,negative,l,,0,1.2363365000019257,368.9328600000008,369.9456868999987,369.9262768999979,None,368.9328600000008,None,368.9328600000008,None,368.9328600000008,None,371.1578664000008,None,371.1578664000008,None,371.1578664000008,None,,,,,,,,,,,225,24,Female,2022-05-25_18h22.51.083,Main,2022.1.1,60.006360674638415,
neutral,negative,2,k,k,,,,,,,,,6,12,120,16,,,,,,,,,,,,,,,,,,,,,,,,main,2,2,2,negative,neutral,k,k,1,0.9030088999970758,372.18138089999775,373.20278659999894,373.16230789999827,None,372.18138089999775,None,372.18138089999775,None,372.18138089999775,None,374.06674218000114,None,374.06674218000114,None,374.06674218000114,None,,,,,,,,,,,225,24,Female,2022-05-25_18h22.51.083,Main,2022.1.1,60.006360674638415,
positive,neutral,2,l,j,,,,,,,,,6,13,121,17,,,,,,,,,,,,,,,,,,,,,,,,main,2,2,2,neutral,positive,j,j,1,0.7745878000023367,374.08917839999776,375.095676500001,375.07596959999864,None,374.08917839999776,None,374.08917839999776,None,374.08917839999776,None,375.84081017999995,None,375.84081017999995,None,375.84081017999995,None,,,,,,,,,,,225,24,Female,2022-05-25_18h22.51.083,Main,2022.1.1,60.006360674638415,
positive,negative,1,l,j,,,,,,,,,6,14,122,5,,,,,,,,,,,,,,,,,,,,,,,,main,2,2,1,negative,positive,j,j,1,0.7379066000030434,375.8634304999978,376.8813697000005,376.84239009999874,None,375.8634304999978,None,375.8634304999978,None,375.8634304999978,None,377.585431580001,None,377.585431580001,None,377.585431580001,None,,,,,,,,,,,225,24,Female,2022-05-25_18h22.51.083,Main,2022.1.1,60.006360674638415,
negative,positive,2,j,l,,,,,,,,,6,15,123,15,,,,,,,,,,,,,,,,,,,,,,,,main,2,2,2,positive,negative,l,l,1,0.7054404000009526,377.6076370999981,378.6109209999995,378.592072200001,None,377.6076370999981,None,377.6076370999981,None,377.6076370999981,None,379.2925189799993,None,379.2925189799993,None,379.2925189799993,None,,,,,,,,,,,225,24,Female,2022-05-25_18h22.51.083,Main,2022.1.1,60.006360674638415,
negative,neutral,2,j,l,,,,,,,,,6,16,124,12,,,,,,,,,,,,,,,,,,,,,,,,main,1,1,2,neutral,negative,l,l,1,1.020240499998181,379.31284609999784,380.3324259000001,380.2935292000002,None,379.31284609999784,None,379.31284609999784,None,379.31284609999784,None,381.317541079998,None,381.317541079998,None,381.317541079998,None,,,,,,,,,,,225,24,Female,2022-05-25_18h22.51.083,Main,2022.1.1,60.006360674638415,
neutral,positive,2,k,k,,,,,,,,,6,17,125,13,,,,,,,,,,,,,,,,,,,,,,,,main,2,2,2,positive,neutral,k,k,1,0.6645807999993849,381.33983330000046,382.3566549999996,382.31404570000086,None,381.33983330000046,None,381.33983330000046,None,381.33983330000046,None,382.9847944800007,None,382.9847944800007,None,382.9847944800007,None,,,,,,,,,,,225,24,Female,2022-05-25_18h22.51.083,Main,2022.1.1,60.006360674638415,
positive,positive,1,l,j,,,,,,,,,7,0,126,2,,,,,,,,,,,,,,,,,,,,,,,,main,1,1,1,positive,positive,j,j,1,0.7548375000005763,383.0067189000001,384.0187960000003,383.9970248999998,None,383.0067189000001,None,383.0067189000001,None,383.0067189000001,None,384.74020247999795,None,384.74020247999795,None,384.74020247999795,None,,,,,,,,,,,225,24,Female,2022-05-25_18h22.51.083,Main,2022.1.1,60.006360674638415,
negative,positive,2,j,l,,,,,,,,,7,1,127,15,,,,,,,,,,,,,,,,,,,,,,,,main,2,2,2,positive,negative,l,l,1,0.7511145000025863,384.76091969999834,385.77269779999915,385.7518170000003,None,384.76091969999834,None,384.76091969999834,None,384.76091969999834,None,386.49368507999895,None,386.49368507999895,None,386.49368507999895,None,,,,,,,,,,,225,24,Female,2022-05-25_18h22.51.083,Main,2022.1.1,60.006360674638415,
negative,neutral,1,j,l,,,,,,,,,7,2,128,3,,,,,,,,,,,,,,,,,,,,,,,,main,2,2,1,neutral,negative,l,l,1,0.9476742000006197,386.51525019999826,387.51814979999835,387.49767449999854,None,386.51525019999826,None,386.51525019999826,None,386.51525019999826,None,388.44338988000015,None,388.44338988000015,None,388.44338988000015,None,,,,,,,,,,,225,24,Female,2022-05-25_18h22.51.083,Main,2022.1.1,60.006360674638415,
negative,neutral,2,j,l,,,,,,,,,7,3,129,12,,,,,,,,,,,,,,,,,,,,,,,,main,2,2,2,neutral,negative,l,l,1,0.6762234999987413,388.4664582000005,389.47525640000094,389.45569329999853,None,388.4664582000005,None,388.4664582000005,None,388.4664582000005,None,390.12360258000115,None,390.12360258000115,None,390.12360258000115,None,,,,,,,,,,,225,24,Female,2022-05-25_18h22.51.083,Main,2022.1.1,60.006360674638415,
neutral,neutral,2,k,k,,,,,,,,,7,4,130,10,,,,,,,,,,,,,,,,,,,,,,,,main,2,2,2,neutral,neutral,k,k,1,0.5835002999992867,390.14460920000056,391.14606730000014,391.1289758999992,None,390.14460920000056,None,390.14460920000056,None,390.14460920000056,None,391.70907938000016,None,391.70907938000016,None,391.70907938000016,None,,,,,,,,,,,225,24,Female,2022-05-25_18h22.51.083,Main,2022.1.1,60.006360674638415,
positive,positive,2,l,j,,,,,,,,,7,5,131,11,,,,,,,,,,,,,,,,,,,,,,,,main,2,2,2,positive,positive,j,j,1,0.5982199999998556,391.73471979999886,392.74444239999866,392.7251881000011,None,391.73471979999886,None,391.73471979999886,None,391.73471979999886,None,393.3096623799996,None,393.3096623799996,None,393.3096623799996,None,,,,,,,,,,,225,24,Female,2022-05-25_18h22.51.083,Main,2022.1.1,60.006360674638415,
neutral,negative,1,k,k,,,,,,,,,7,6,132,7,,,,,,,,,,,,,,,,,,,,,,,,main,2,2,1,negative,neutral,k,k,1,0.5600543000000471,393.33113310000044,394.3422965999998,394.32266230000096,None,393.33113310000044,None,393.33113310000044,None,393.33113310000044,None,394.87253107999857,None,394.87253107999857,None,394.87253107999857,None,,,,,,,,,,,225,24,Female,2022-05-25_18h22.51.083,Main,2022.1.1,60.006360674638415,
neutral,positive,1,k,k,,,,,,,,,7,7,133,4,,,,,,,,,,,,,,,,,,,,,,,,main,2,2,1,positive,neutral,k,k,1,0.6571192000010342,394.89512009999817,395.91047790000084,395.8713637000001,None,394.89512009999817,None,394.89512009999817,None,394.89512009999817,None,396.5346054799978,None,396.5346054799978,None,396.5346054799978,None,,,,,,,,,,,225,24,Female,2022-05-25_18h22.51.083,Main,2022.1.1,60.006360674638415,
positive,neutral,1,l,j,,,,,,,,,7,8,134,8,,,,,,,,,,,,,,,,,,,,,,,,main,1,1,1,neutral,positive,j,j,1,1.0628499999984342,396.5557747999992,397.5589851000004,397.53861250000045,None,396.5557747999992,None,396.5557747999992,None,396.5557747999992,None,398.601720680001,None,398.601720680001,None,398.601720680001,None,,,,,,,,,,,225,24,Female,2022-05-25_18h22.51.083,Main,2022.1.1,60.006360674638415,
negative,negative,2,j,l,,,,,,,,,7,9,135,9,,,,,,,,,,,,,,,,,,,,,,,,main,1,1,2,negative,negative,l,l,1,0.7088871999985713,398.6225362999976,399.635072699999,399.6137400000007,None,398.6225362999976,None,398.6225362999976,None,398.6225362999976,None,400.3150126799977,None,400.3150126799977,None,400.3150126799977,None,,,,,,,,,,,225,24,Female,2022-05-25_18h22.51.083,Main,2022.1.1,60.006360674638415,
positive,negative,2,l,j,,,,,,,,,7,10,136,14,,,,,,,,,,,,,,,,,,,,,,,,main,1,1,2,negative,positive,j,j,1,0.7566150000020571,400.33595409999907,401.3412035000001,401.3225502999994,None,400.33595409999907,None,400.33595409999907,None,400.33595409999907,None,402.07118277999905,None,402.07118277999905,None,402.07118277999905,None,,,,,,,,,,,225,24,Female,2022-05-25_18h22.51.083,Main,2022.1.1,60.006360674638415,
positive,neutral,2,l,j,,,,,,,,,7,11,137,17,,,,,,,,,,,,,,,,,,,,,,,,main,2,2,2,neutral,positive,j,j,1,0.6513769000011962,402.0918501999986,403.09945909999806,403.0780042999977,None,402.0918501999986,None,402.0918501999986,None,402.0918501999986,None,403.7277341799985,None,403.7277341799985,None,403.7277341799985,None,,,,,,,,,,,225,24,Female,2022-05-25_18h22.51.083,Main,2022.1.1,60.006360674638415,
negative,negative,1,j,l,,,,,,,,,7,12,138,0,,,,,,,,,,,,,,,,,,,,,,,,main,1,1,1,negative,negative,l,l,1,0.8015044999992824,403.74959599999784,404.7699141999983,404.7285779999984,None,403.74959599999784,None,403.74959599999784,None,403.74959599999784,None,405.5330856799977,None,405.5330856799977,None,405.5330856799977,None,,,,,,,,,,,225,24,Female,2022-05-25_18h22.51.083,Main,2022.1.1,60.006360674638415,
neutral,positive,2,k,k,,,,,,,,,7,13,139,13,,,,,,,,,,,,,,,,,,,,,,,,main,2,2,2,positive,neutral,k,k,1,0.7199390000023413,405.55407729999934,406.57124380000096,406.5494757999986,None,405.55407729999934,None,405.55407729999934,None,405.55407729999934,None,407.2542060799991,None,407.2542060799991,None,407.2542060799991,None,,,,,,,,,,,225,24,Female,2022-05-25_18h22.51.083,Main,2022.1.1,60.006360674638415,
neutral,negative,2,k,k,,,,,,,,,7,14,140,16,,,,,,,,,,,,,,,,,,,,,,,,main,1,1,2,negative,neutral,k,k,1,0.6483030999988841,407.2764571000007,408.2790363999993,408.25941089999833,None,407.2764571000007,None,407.2764571000007,None,407.2764571000007,None,408.90292647999956,None,408.90292647999956,None,408.90292647999956,None,,,,,,,,,,,225,24,Female,2022-05-25_18h22.51.083,Main,2022.1.1,60.006360674638415,
negative,positive,1,j,l,,,,,,,,,7,15,141,6,,,,,,,,,,,,,,,,,,,,,,,,main,1,1,1,positive,negative,l,l,1,0.786953300001187,408.9266796000011,409.94589089999863,409.90627649999806,None,408.9266796000011,None,408.9266796000011,None,408.9266796000011,None,410.69644017999815,None,410.69644017999815,None,410.69644017999815,None,,,,,,,,,,,225,24,Female,2022-05-25_18h22.51.083,Main,2022.1.1,60.006360674638415,
positive,negative,1,l,j,,,,,,,,,7,16,142,5,,,,,,,,,,,,,,,,,,,,,,,,main,1,1,1,negative,positive,j,j,1,0.8781804999998712,410.7171863000003,411.72633439999845,411.70669740000085,None,410.7171863000003,None,410.7171863000003,None,410.7171863000003,None,412.5773145799998,None,412.5773145799998,None,412.5773145799998,None,,,,,,,,,,,225,24,Female,2022-05-25_18h22.51.083,Main,2022.1.1,60.006360674638415,
neutral,neutral,1,k,k,,,,,,,,,7,17,143,1,,,,,,,,,,,,,,,,,,,,,,,,main,2,2,1,neutral,neutral,k,k,1,0.7459097999999358,412.6005346999991,413.6049395000009,413.5853188000001,None,412.6005346999991,None,412.6005346999991,None,412.6005346999991,None,414.32305438000037,None,414.32305438000037,None,414.32305438000037,None,,,,,,,,,,,225,24,Female,2022-05-25_18h22.51.083,Main,2022.1.1,60.006360674638415,
negative,negative,1,j,l,,,,,,,,,8,0,144,0,,,,,,,,,,,,,,,,,,,,,,,,main,1,1,1,negative,negative,l,l,1,1.0485465000019758,414.34506359999796,415.34806879999815,415.3275862999981,None,414.34506359999796,None,414.34506359999796,None,414.34506359999796,None,416.3732296799993,None,416.3732296799993,None,416.3732296799993,None,,,,,,,,,,,225,24,Female,2022-05-25_18h22.51.083,Main,2022.1.1,60.006360674638415,
negative,positive,1,j,l,,,,,,,,,8,1,145,6,,,,,,,,,,,,,,,,,,,,,,,,main,2,2,1,positive,negative,l,l,1,0.6984006999991834,416.3962489999976,417.40731759999835,417.38751799999955,None,416.3962489999976,None,416.3962489999976,None,416.3962489999976,None,418.0772693800012,None,418.0772693800012,None,418.0772693800012,None,,,,,,,,,,,225,24,Female,2022-05-25_18h22.51.083,Main,2022.1.1,60.006360674638415,
positive,neutral,2,l,j,,,,,,,,,8,2,146,17,,,,,,,,,,,,,,,,,,,,,,,,main,1,1,2,neutral,positive,j,j,1,0.7664455999984057,418.09812619999866,419.10100690000036,419.0805193999986,None,418.09812619999866,None,418.09812619999866,None,418.09812619999866,None,419.84655968000004,None,419.84655968000004,None,419.84655968000004,None,,,,,,,,,,,225,24,Female,2022-05-25_18h22.51.083,Main,2022.1.1,60.006360674638415,
neutral,negative,2,k,k,,,,,,,,,8,3,147,16,,,,,,,,,,,,,,,,,,,,,,,,main,1,1,2,negative,neutral,k,k,1,0.6612666999972134,419.86692910000056,420.88853879999806,420.84652880000067,None,419.86692910000056,None,419.86692910000056,None,419.86692910000056,None,421.51036687999874,None,421.51036687999874,None,421.51036687999874,None,,,,,,,,,,,225,24,Female,2022-05-25_18h22.51.083,Main,2022.1.1,60.006360674638415,
negative,neutral,1,j,l,,,,,,,,,8,4,148,3,,,,,,,,,,,,,,,,,,,,,,,,main,1,1,1,neutral,negative,l,l,1,0.7617282999999588,421.530169499998,422.5507990999977,422.5093664999986,None,421.530169499998,None,421.530169499998,None,421.530169499998,None,423.27176087999976,None,423.27176087999976,None,423.27176087999976,None,,,,,,,,,,,225,24,Female,2022-05-25_18h22.51.083,Main,2022.1.1,60.006360674638415,
positive,positive,2,l,j,,,,,,,,,8,5,149,11,,,,,,,,,,,,,,,,,,,,,,,,main,1,1,2,positive,positive,j,j,1,0.7516335000000254,423.2925465999979,424.30059360000087,424.27988099999857,None,423.2925465999979,None,423.2925465999979,None,423.2925465999979,None,425.0281442799991,None,425.0281442799991,None,425.0281442799991,None,,,,,,,,,,,225,24,Female,2022-05-25_18h22.51.083,Main,2022.1.1,60.006360674638415,
neutral,positive,1,k,k,,,,,,,,,8,6,150,4,,,,,,,,,,,,,,,,,,,,,,,,main,2,2,1,positive,neutral,k,k,1,0.6616347000017413,425.0496036000004,426.05884499999956,426.0392322000007,None,425.0496036000004,None,425.0496036000004,None,425.0496036000004,None,426.69269338000083,None,426.69269338000083,None,426.69269338000083,None,,,,,,,,,,,225,24,Female,2022-05-25_18h22.51.083,Main,2022.1.1,60.006360674638415,
neutral,positive,2,k,k,,,,,,,,,8,7,151,13,,,,,,,,,,,,,,,,,,,,,,,,main,1,1,2,positive,neutral,k,k,1,0.7948279999982333,426.71359830000074,427.72527699999773,427.6861766000002,None,426.71359830000074,None,426.71359830000074,None,426.71359830000074,None,428.4875689799977,None,428.4875689799977,None,428.4875689799977,None,,,,,,,,,,,225,24,Female,2022-05-25_18h22.51.083,Main,2022.1.1,60.006360674638415,
positive,negative,1,l,j,,,,,,,,,8,8,152,5,,,,,,,,,,,,,,,,,,,,,,,,main,2,2,1,negative,positive,j,,0,1.0530947999977798,428.509756200001,429.531007900001,429.49032309999893,None,428.509756200001,None,428.509756200001,None,428.509756200001,None,430.55143229999885,None,430.55143229999885,None,430.55143229999885,None,,,,,,,,,,,225,24,Female,2022-05-25_18h22.51.083,Main,2022.1.1,60.006360674638415,
positive,positive,1,l,j,,,,,,,,,8,9,153,2,,,,,,,,,,,,,,,,,,,,,,,,main,1,1,1,positive,positive,j,j,1,1.1550403000001097,431.5738433000006,432.58014360000016,432.5597710000002,None,431.5738433000006,None,431.5738433000006,None,431.5738433000006,None,433.7107334800006,None,433.7107334800006,None,433.7107334800006,None,,,,,,,,,,,225,24,Female,2022-05-25_18h22.51.083,Main,2022.1.1,60.006360674638415,
negative,negative,2,j,l,,,,,,,,,8,10,154,9,,,,,,,,,,,,,,,,,,,,,,,,main,2,2,2,negative,negative,l,l,1,0.7967472999989695,433.73160389999975,434.74998699999924,434.70909440000105,None,433.73160389999975,None,433.73160389999975,None,433.73160389999975,None,435.5106506799988,None,435.5106506799988,None,435.5106506799988,None,,,,,,,,,,,225,24,Female,2022-05-25_18h22.51.083,Main,2022.1.1,60.006360674638415,
negative,neutral,2,j,l,,,,,,,,,8,11,155,12,,,,,,,,,,,,,,,,,,,,,,,,main,1,1,2,neutral,negative,l,l,1,0.7776868000000832,435.5310439999994,436.5485626000009,436.5074277999993,None,435.5310439999994,None,435.5310439999994,None,435.5310439999994,None,437.2901566799977,None,437.2901566799977,None,437.2901566799977,None,,,,,,,,,,,225,24,Female,2022-05-25_18h22.51.083,Main,2022.1.1,60.006360674638415,
positive,negative,2,l,j,,,,,,,,,8,12,156,14,,,,,,,,,,,,,,,,,,,,,,,,main,2,2,2,negative,positive,j,j,1,0.8094973000006576,437.31407839999883,438.3180891999982,438.2986678999987,None,437.31407839999883,None,437.31407839999883,None,437.31407839999883,None,439.10013747999835,None,439.10013747999835,None,439.10013747999835,None,,,,,,,,,,,225,24,Female,2022-05-25_18h22.51.083,Main,2022.1.1,60.006360674638415,
neutral,neutral,1,k,k,,,,,,,,,8,13,157,1,,,,,,,,,,,,,,,,,,,,,,,,main,2,2,1,neutral,neutral,k,k,1,0.7571448999988206,439.12107719999767,440.1319798000004,440.1107446999995,None,439.12107719999767,None,439.12107719999767,None,439.12107719999767,None,440.8623636799988,None,440.8623636799988,None,440.8623636799988,None,,,,,,,,,,,225,24,Female,2022-05-25_18h22.51.083,Main,2022.1.1,60.006360674638415,
negative,positive,2,j,l,,,,,,,,,8,14,158,15,,,,,,,,,,,,,,,,,,,,,,,,main,2,2,2,positive,negative,l,l,1,0.8892980000018724,440.88313769999877,441.89461519999895,441.8735422999998,None,440.88313769999877,None,440.88313769999877,None,440.88313769999877,None,442.7525987799985,None,442.7525987799985,None,442.7525987799985,None,,,,,,,,,,,225,24,Female,2022-05-25_18h22.51.083,Main,2022.1.1,60.006360674638415,
positive,neutral,1,l,j,,,,,,,,,8,15,159,8,,,,,,,,,,,,,,,,,,,,,,,,main,1,1,1,neutral,positive,j,j,1,0.7525468999992881,442.7728724999979,443.7841348000002,443.7645976999993,None,442.7728724999979,None,442.7728724999979,None,442.7728724999979,None,444.5102871799994,None,444.5102871799994,None,444.5102871799994,None,,,,,,,,,,,225,24,Female,2022-05-25_18h22.51.083,Main,2022.1.1,60.006360674638415,
neutral,negative,1,k,k,,,,,,,,,8,16,160,7,,,,,,,,,,,,,,,,,,,,,,,,main,2,2,1,negative,neutral,k,k,1,0.6921305000032589,444.5303795,445.5369976000002,445.5173923000002,None,444.5303795,None,444.5303795,None,444.5303795,None,446.20244257999946,None,446.20244257999946,None,446.20244257999946,None,,,,,,,,,,,225,24,Female,2022-05-25_18h22.51.083,Main,2022.1.1,60.006360674638415,
neutral,neutral,2,k,k,,,,,,,,,8,17,161,10,,,,,,,,,,,,,,,,,,,,,,,,main,2,2,2,neutral,neutral,k,k,1,0.687953299999208,446.2274933000008,447.23172019999765,447.2103912999992,None,446.2274933000008,None,446.2274933000008,None,446.2274933000008,None,447.8956809799987,None,447.8956809799987,None,447.8956809799987,None,,,,,,,,,,,225,24,Female,2022-05-25_18h22.51.083,Main,2022.1.1,60.006360674638415,
negative,positive,1,j,l,,,,,,,,,9,0,162,6,,,,,,,,,,,,,,,,,,,,,,,,main,1,1,1,positive,negative,l,l,1,0.7899151999990863,447.9167998999983,448.9222136999997,448.9028135999979,None,447.9167998999983,None,447.9167998999983,None,447.9167998999983,None,449.68772857999863,None,449.68772857999863,None,449.68772857999863,None,,,,,,,,,,,225,24,Female,2022-05-25_18h22.51.083,Main,2022.1.1,60.006360674638415,
neutral,neutral,2,k,k,,,,,,,,,9,1,163,10,,,,,,,,,,,,,,,,,,,,,,,,main,1,1,2,neutral,neutral,k,k,1,0.6304128000010678,449.7089072999988,450.7197626999987,450.69902269999875,None,449.7089072999988,None,449.7089072999988,None,449.7089072999988,None,451.3190351799989,None,451.3190351799989,None,451.3190351799989,None,,,,,,,,,,,225,24,Female,2022-05-25_18h22.51.083,Main,2022.1.1,60.006360674638415,
neutral,positive,2,k,k,,,,,,,,,9,2,164,13,,,,,,,,,,,,,,,,,,,,,,,,main,2,2,2,positive,neutral,k,k,1,0.7301474000014423,451.34193310000046,452.35029550000036,452.3310845999986,None,451.34193310000046,None,451.34193310000046,None,451.34193310000046,None,453.05605517999936,None,453.05605517999936,None,453.05605517999936,None,,,,,,,,,,,225,24,Female,2022-05-25_18h22.51.083,Main,2022.1.1,60.006360674638415,
positive,positive,2,l,j,,,,,,,,,9,3,165,11,,,,,,,,,,,,,,,,,,,,,,,,main,1,1,2,positive,positive,j,j,1,0.8601584999996703,453.0779163999978,454.08566659999997,454.0664293000009,None,453.0779163999978,None,453.0779163999978,None,453.0779163999978,None,454.9159595799996,None,454.9159595799996,None,454.9159595799996,None,,,,,,,,,,,225,24,Female,2022-05-25_18h22.51.083,Main,2022.1.1,60.006360674638415,
positive,negative,1,l,j,,,,,,,,,9,4,166,5,,,,,,,,,,,,,,,,,,,,,,,,main,2,2,1,negative,positive,j,j,1,0.9183579999989888,454.93732439999803,455.9526436999986,455.91408669999873,None,454.93732439999803,None,454.93732439999803,None,454.93732439999803,None,456.83940848000054,None,456.83940848000054,None,456.83940848000054,None,,,,,,,,,,,225,24,Female,2022-05-25_18h22.51.083,Main,2022.1.1,60.006360674638415,
neutral,negative,2,k,k,,,,,,,,,9,5,167,16,,,,,,,,,,,,,,,,,,,,,,,,main,2,2,2,negative,neutral,k,k,1,0.723860699999932,456.860044699999,457.88078329999917,457.8389067999997,None,456.860044699999,None,456.860044699999,None,456.860044699999,None,458.56357717999924,None,458.56357717999924,None,458.56357717999924,None,,,,,,,,,,,225,24,Female,2022-05-25_18h22.51.083,Main,2022.1.1,60.006360674638415,
neutral,neutral,1,k,k,,,,,,,,,9,6,168,1,,,,,,,,,,,,,,,,,,,,,,,,main,1,1,1,neutral,neutral,k,k,1,0.6624456999998074,458.5851681999993,459.60544579999987,459.56662239999787,None,458.5851681999993,None,458.5851681999993,None,458.5851681999993,None,460.2292002800008,None,460.2292002800008,None,460.2292002800008,None,,,,,,,,,,,225,24,Female,2022-05-25_18h22.51.083,Main,2022.1.1,60.006360674638415,
negative,positive,2,j,l,,,,,,,,,9,7,169,15,,,,,,,,,,,,,,,,,,,,,,,,main,2,2,2,positive,negative,l,l,1,1.0415927000030933,460.2500684999977,461.25253919999886,461.2333026999986,None,460.2500684999977,None,460.2500684999977,None,460.2500684999977,None,462.27600517999815,None,462.27600517999815,None,462.27600517999815,None,,,,,,,,,,,225,24,Female,2022-05-25_18h22.51.083,Main,2022.1.1,60.006360674638415,
negative,negative,2,j,l,,,,,,,,,9,8,170,9,,,,,,,,,,,,,,,,,,,,,,,,main,2,2,2,negative,negative,l,l,1,0.6943189999983588,462.2967319999989,463.3133635999984,463.27194229999805,None,462.2967319999989,None,462.2967319999989,None,462.2967319999989,None,463.9745966799986,None,463.9745966799986,None,463.9745966799986,None,,,,,,,,,,,225,24,Female,2022-05-25_18h22.51.083,Main,2022.1.1,60.006360674638415,
positive,positive,1,l,j,,,,,,,,,9,9,171,2,,,,,,,,,,,,,,,,,,,,,,,,main,2,2,1,positive,positive,j,j,1,0.8638878000019758,463.9953381999985,465.0163619999985,464.97643869999956,None,463.9953381999985,None,463.9953381999985,None,463.9953381999985,None,465.8406956800012,None,465.8406956800012,None,465.8406956800012,None,,,,,,,,,,,225,24,Female,2022-05-25_18h22.51.083,Main,2022.1.1,60.006360674638415,
neutral,negative,1,k,k,,,,,,,,,9,10,172,7,,,,,,,,,,,,,,,,,,,,,,,,main,1,1,1,negative,neutral,k,k,1,0.7410670000026585,465.8622457999991,466.87907279999854,466.8374592,None,465.8622457999991,None,465.8622457999991,None,465.8622457999991,None,467.58215997999866,None,467.58215997999866,None,467.58215997999866,None,,,,,,,,,,,225,24,Female,2022-05-25_18h22.51.083,Main,2022.1.1,60.006360674638415,
positive,neutral,2,l,j,,,,,,,,,9,11,173,17,,,,,,,,,,,,,,,,,,,,,,,,main,1,1,2,neutral,positive,j,j,1,0.7784642999977223,467.6069728000002,468.61960739999995,468.5796905999996,None,467.6069728000002,None,467.6069728000002,None,467.6069728000002,None,469.36304808000057,None,469.36304808000057,None,469.36304808000057,None,,,,,,,,,,,225,24,Female,2022-05-25_18h22.51.083,Main,2022.1.1,60.006360674638415,
positive,neutral,1,l,j,,,,,,,,,9,12,174,8,,,,,,,,,,,,,,,,,,,,,,,,main,2,2,1,neutral,positive,j,j,1,0.8171514000023308,469.38307580000037,470.39918279999983,470.3792108999987,None,469.38307580000037,None,469.38307580000037,None,469.38307580000037,None,471.1825951800005,None,471.1825951800005,None,471.1825951800005,None,,,,,,,,,,,225,24,Female,2022-05-25_18h22.51.083,Main,2022.1.1,60.006360674638415,
neutral,positive,1,k,k,,,,,,,,,9,13,175,4,,,,,,,,,,,,,,,,,,,,,,,,main,1,1,1,positive,neutral,k,k,1,0.6820823999987624,471.20311589999983,472.22414729999946,472.18418419999944,None,471.20311589999983,None,471.20311589999983,None,471.20311589999983,None,472.8696597799993,None,472.8696597799993,None,472.8696597799993,None,,,,,,,,,,,225,24,Female,2022-05-25_18h22.51.083,Main,2022.1.1,60.006360674638415,
negative,negative,1,j,l,,,,,,,,,9,14,176,0,,,,,,,,,,,,,,,,,,,,,,,,main,2,2,1,negative,negative,l,l,1,0.9243004999989353,472.89031629999954,473.90404800000033,473.8646067000009,None,472.89031629999954,None,472.89031629999954,None,472.89031629999954,None,474.79455738000104,None,474.79455738000104,None,474.79455738000104,None,,,,,,,,,,,225,24,Female,2022-05-25_18h22.51.083,Main,2022.1.1,60.006360674638415,
negative,neutral,1,j,l,,,,,,,,,9,15,177,3,,,,,,,,,,,,,,,,,,,,,,,,main,2,2,1,neutral,negative,l,l,1,0.7483977000010782,474.81760719999875,475.82328009999765,475.80185039999924,None,474.81760719999875,None,474.81760719999875,None,474.81760719999875,None,476.54539778000105,None,476.54539778000105,None,476.54539778000105,None,,,,,,,,,,,225,24,Female,2022-05-25_18h22.51.083,Main,2022.1.1,60.006360674638415,
negative,neutral,2,j,l,,,,,,,,,9,16,178,12,,,,,,,,,,,,,,,,,,,,,,,,main,2,2,2,neutral,negative,l,l,1,0.7187161000001652,476.5676863999979,477.5828657999991,477.5438568999998,None,476.5676863999979,None,476.5676863999979,None,476.5676863999979,None,478.26900758000045,None,478.26900758000045,None,478.26900758000045,None,,,,,,,,,,,225,24,Female,2022-05-25_18h22.51.083,Main,2022.1.1,60.006360674638415,
positive,negative,2,l,j,,,,,,,,,9,17,179,14,,,,,,,,,,,,,,,,,,,,,,,,main,2,2,2,negative,positive,j,j,1,0.7133770000000368,478.28943589999835,479.30658929999845,479.28590769999937,None,478.28943589999835,None,478.28943589999835,None,478.28943589999835,None,479.9826601799999,None,479.9826601799999,None,479.9826601799999,None,,,,,,,,,,,225,24,Female,2022-05-25_18h22.51.083,Main,2022.1.1,60.006360674638415,
negative,negative,1,j,l,,,,,,,,,10,0,180,0,,,,,,,,,,,,,,,,,,,,,,,,main,2,2,1,negative,negative,l,l,1,0.7815340999986802,480.0038190999985,481.0227215999985,480.98254219999944,None,480.0038190999985,None,480.0038190999985,None,480.0038190999985,None,481.76859847999947,None,481.76859847999947,None,481.76859847999947,None,,,,,,,,,,,225,24,Female,2022-05-25_18h22.51.083,Main,2022.1.1,60.006360674638415,
neutral,neutral,1,k,k,,,,,,,,,10,1,181,1,,,,,,,,,,,,,,,,,,,,,,,,main,2,2,1,neutral,neutral,k,k,1,1.444294799999625,481.7888461000002,482.809711599999,482.7676900000006,None,481.7888461000002,None,481.7888461000002,None,481.7888461000002,None,484.21306548000064,None,484.21306548000064,None,484.21306548000064,None,,,,,,,,,,,225,24,Female,2022-05-25_18h22.51.083,Main,2022.1.1,60.006360674638415,
positive,negative,1,l,j,,,,,,,,,10,2,182,5,,,,,,,,,,,,,,,,,,,,,,,,main,1,1,1,negative,positive,j,j,1,0.9183239000012691,484.23445829999764,485.2488551999995,485.21075819999896,None,484.23445829999764,None,484.23445829999764,None,484.23445829999764,None,486.1361009800006,None,486.1361009800006,None,486.1361009800006,None,,,,,,,,,,,225,24,Female,2022-05-25_18h22.51.083,Main,2022.1.1,60.006360674638415,
neutral,neutral,2,k,k,,,,,,,,,10,3,183,10,,,,,,,,,,,,,,,,,,,,,,,,main,1,1,2,neutral,neutral,k,k,1,0.7085485999996308,486.1594819999991,487.1796254000001,487.1387959999993,None,486.1594819999991,None,486.1594819999991,None,486.1594819999991,None,487.84474537999847,None,487.84474537999847,None,487.84474537999847,None,,,,,,,,,,,225,24,Female,2022-05-25_18h22.51.083,Main,2022.1.1,60.006360674638415,
positive,positive,2,l,j,,,,,,,,,10,4,184,11,,,,,,,,,,,,,,,,,,,,,,,,main,2,2,2,positive,positive,j,j,1,0.730350300000282,487.866169500001,488.8715483999986,488.85054189999937,None,487.866169500001,None,487.866169500001,None,487.866169500001,None,489.5761166799988,None,489.5761166799988,None,489.5761166799988,None,,,,,,,,,,,225,24,Female,2022-05-25_18h22.51.083,Main,2022.1.1,60.006360674638415,
neutral,negative,1,k,k,,,,,,,,,10,5,185,7,,,,,,,,,,,,,,,,,,,,,,,,main,1,1,1,negative,neutral,k,k,1,0.7660237999989477,489.59864879999805,490.62141509999856,490.58094379999966,None,489.59864879999805,None,489.59864879999805,None,489.59864879999805,None,491.34625467999865,None,491.34625467999865,None,491.34625467999865,None,,,,,,,,,,,225,24,Female,2022-05-25_18h22.51.083,Main,2022.1.1,60.006360674638415,
positive,neutral,2,l,j,,,,,,,,,10,6,186,17,,,,,,,,,,,,,,,,,,,,,,,,main,2,2,2,neutral,positive,j,j,1,0.7032867999987502,491.36728270000094,492.38931629999934,492.3492989999977,None,491.36728270000094,None,491.36728270000094,None,491.36728270000094,None,493.0546148800007,None,493.0546148800007,None,493.0546148800007,None,,,,,,,,,,,225,24,Female,2022-05-25_18h22.51.083,Main,2022.1.1,60.006360674638415,
positive,neutral,1,l,j,,,,,,,,,10,7,187,8,,,,,,,,,,,,,,,,,,,,,,,,main,1,1,1,neutral,positive,j,j,1,1.112772100001166,493.07529280000017,494.0786071000002,494.0591276999985,None,493.07529280000017,None,493.07529280000017,None,493.07529280000017,None,495.17002057999923,None,495.17002057999923,None,495.17002057999923,None,,,,,,,,,,,225,24,Female,2022-05-25_18h22.51.083,Main,2022.1.1,60.006360674638415,
negative,neutral,1,j,l,,,,,,,,,10,8,188,3,,,,,,,,,,,,,,,,,,,,,,,,main,2,2,1,neutral,negative,l,l,1,0.7611556999981985,495.1930766000005,496.2092096999986,496.16792859999987,None,495.1930766000005,None,495.1930766000005,None,495.1930766000005,None,496.93117908000056,None,496.93117908000056,None,496.93117908000056,None,,,,,,,,,,,225,24,Female,2022-05-25_18h22.51.083,Main,2022.1.1,60.006360674638415,
neutral,positive,1,k,k,,,,,,,,,10,9,189,4,,,,,,,,,,,,,,,,,,,,,,,,main,1,1,1,positive,neutral,k,k,1,0.5477250000003551,496.953448799999,497.9637612999977,497.94475939999757,None,496.953448799999,None,496.953448799999,None,496.953448799999,None,498.4844487799986,None,498.4844487799986,None,498.4844487799986,None,,,,,,,,,,,225,24,Female,2022-05-25_18h22.51.083,Main,2022.1.1,60.006360674638415,
negative,neutral,2,j,l,,,,,,,,,10,10,190,12,,,,,,,,,,,,,,,,,,,,,,,,main,1,1,2,neutral,negative,l,l,1,0.8667940000013914,498.5049571999989,499.50980060000074,499.49077979999856,None,498.5049571999989,None,498.5049571999989,None,498.5049571999989,None,500.3536154800007,None,500.3536154800007,None,500.3536154800007,None,,,,,,,,,,,225,24,Female,2022-05-25_18h22.51.083,Main,2022.1.1,60.006360674638415,
positive,negative,2,l,j,,,,,,,,,10,11,191,14,,,,,,,,,,,,,,,,,,,,,,,,main,1,1,2,negative,positive,j,j,1,0.8719429999982822,500.37717839999823,501.3787580999997,501.3597109000002,None,500.37717839999823,None,500.37717839999823,None,500.37717839999823,None,502.22680138000067,None,502.22680138000067,None,502.22680138000067,None,,,,,,,,,,,225,24,Female,2022-05-25_18h22.51.083,Main,2022.1.1,60.006360674638415,
neutral,positive,2,k,k,,,,,,,,,10,12,192,13,,,,,,,,,,,,,,,,,,,,,,,,main,2,2,2,positive,neutral,k,k,1,0.7348713999999745,502.25398140000107,503.25866680000036,503.2375342999985,None,502.25398140000107,None,502.25398140000107,None,502.25398140000107,None,503.9662012799985,None,503.9662012799985,None,503.9662012799985,None,,,,,,,,,,,225,24,Female,2022-05-25_18h22.51.083,Main,2022.1.1,60.006360674638415,
neutral,negative,2,k,k,,,,,,,,,10,13,193,16,,,,,,,,,,,,,,,,,,,,,,,,main,1,1,2,negative,neutral,k,k,1,0.7464194999993197,503.98737600000095,504.9937222000008,504.97409770000013,None,503.98737600000095,None,503.98737600000095,None,503.98737600000095,None,505.7154300799979,None,505.7154300799979,None,505.7154300799979,None,,,,,,,,,,,225,24,Female,2022-05-25_18h22.51.083,Main,2022.1.1,60.006360674638415,
negative,negative,2,j,l,,,,,,,,,10,14,194,9,,,,,,,,,,,,,,,,,,,,,,,,main,1,1,2,negative,negative,l,l,1,0.762372499997582,505.73617079999894,506.73999719999847,506.7194430999989,None,505.73617079999894,None,505.73617079999894,None,505.73617079999894,None,507.48058507999883,None,507.48058507999883,None,507.48058507999883,None,,,,,,,,,,,225,24,Female,2022-05-25_18h22.51.083,Main,2022.1.1,60.006360674638415,
negative,positive,1,j,l,,,,,,,,,10,15,195,6,,,,,,,,,,,,,,,,,,,,,,,,main,1,1,1,positive,negative,l,l,1,0.7325316999995266,507.50379319999774,508.5110287999996,508.4911786999983,None,507.50379319999774,None,507.50379319999774,None,507.50379319999774,None,509.2154063799993,None,509.2154063799993,None,509.2154063799993,None,,,,,,,,,,,225,24,Female,2022-05-25_18h22.51.083,Main,2022.1.1,60.006360674638415,
negative,positive,2,j,l,,,,,,,,,10,16,196,15,,,,,,,,,,,,,,,,,,,,,,,,main,2,2,2,positive,negative,l,l,1,0.7332487000021501,509.23851569999897,510.24683580000055,510.2272697999979,None,509.23851569999897,None,509.23851569999897,None,509.23851569999897,None,510.9509379799987,None,510.9509379799987,None,510.9509379799987,None,,,,,,,,,,,225,24,Female,2022-05-25_18h22.51.083,Main,2022.1.1,60.006360674638415,
positive,positive,1,l,j,,,,,,,,,10,17,197,2,,,,,,,,,,,,,,,,,,,,,,,,main,2,2,1,positive,positive,j,j,1,0.9078899000014644,510.97120580000046,511.98988109999846,511.96934820000024,None,510.97120580000046,None,510.97120580000046,None,510.97120580000046,None,512.8586800799989,None,512.8586800799989,None,512.8586800799989,None,,,,,,,,,,,225,24,Female,2022-05-25_18h22.51.083,Main,2022.1.1,60.006360674638415,
positive,neutral,1,l,j,,,,,,,,,11,0,198,8,,,,,,,,,,,,,,,,,,,,,,,,main,1,1,1,neutral,positive,j,j,1,0.8678932000002533,512.8796221999983,513.8897834999989,513.8689914999995,None,512.8796221999983,None,512.8796221999983,None,512.8796221999983,None,514.7291071799976,None,514.7291071799976,None,514.7291071799976,None,,,,,,,,,,,225,24,Female,2022-05-25_18h22.51.083,Main,2022.1.1,60.006360674638415,
positive,negative,2,l,j,,,,,,,,,11,1,199,14,,,,,,,,,,,,,,,,,,,,,,,,main,2,2,2,negative,positive,j,j,1,0.7644897999998648,514.7508775999995,515.7601343999995,515.7406678000007,None,514.7508775999995,None,514.7508775999995,None,514.7508775999995,None,516.4999230800007,None,516.4999230800007,None,516.4999230800007,None,,,,,,,,,,,225,24,Female,2022-05-25_18h22.51.083,Main,2022.1.1,60.006360674638415,
positive,neutral,2,l,j,,,,,,,,,11,2,200,17,,,,,,,,,,,,,,,,,,,,,,,,main,2,2,2,neutral,positive,j,j,1,0.6146545000010519,516.5199573999998,517.5290882000008,517.5090691999976,None,516.5199573999998,None,516.5199573999998,None,516.5199573999998,None,518.1158072800011,None,518.1158072800011,None,518.1158072800011,None,,,,,,,,,,,225,24,Female,2022-05-25_18h22.51.083,Main,2022.1.1,60.006360674638415,
negative,positive,1,j,l,,,,,,,,,11,3,201,6,,,,,,,,,,,,,,,,,,,,,,,,main,1,1,1,positive,negative,l,l,1,0.7729560999978276,518.1387699999977,519.1459925999989,519.1264463000007,None,518.1387699999977,None,518.1387699999977,None,518.1387699999977,None,519.8876570800006,None,519.8876570800006,None,519.8876570800006,None,,,,,,,,,,,225,24,Female,2022-05-25_18h22.51.083,Main,2022.1.1,60.006360674638415,
neutral,positive,1,k,k,,,,,,,,,11,4,202,4,,,,,,,,,,,,,,,,,,,,,,,,main,1,1,1,positive,neutral,k,k,1,0.740335899998172,519.9103231000008,520.9309881000008,520.8921556999994,None,519.9103231000008,None,519.9103231000008,None,519.9103231000008,None,521.6332961799984,None,521.6332961799984,None,521.6332961799984,None,,,,,,,,,,,225,24,Female,2022-05-25_18h22.51.083,Main,2022.1.1,60.006360674638415,
positive,positive,2,l,j,,,,,,,,,11,5,203,11,,,,,,,,,,,,,,,,,,,,,,,,main,1,1,2,positive,positive,j,j,1,0.9246831000018574,521.6559632999997,522.6580704000007,522.6385492000009,None,521.6559632999997,None,521.6559632999997,None,521.6559632999997,None,523.5592300800002,None,523.5592300800002,None,523.5592300800002,None,,,,,,,,,,,225,24,Female,2022-05-25_18h22.51.083,Main,2022.1.1,60.006360674638415,
negative,negative,1,j,l,,,,,,,,,11,6,204,0,,,,,,,,,,,,,,,,,,,,,,,,main,1,1,1,negative,negative,l,l,1,0.6993060999993759,523.580747,524.6024995999978,524.5615604999984,None,523.580747,None,523.580747,None,523.580747,None,525.2634375799993,None,525.2634375799993,None,525.2634375799993,None,,,,,,,,,,,225,24,Female,2022-05-25_18h22.51.083,Main,2022.1.1,60.006360674638415,
negative,positive,2,j,l,,,,,,,,,11,7,205,15,,,,,,,,,,,,,,,,,,,,,,,,main,1,1,2,positive,negative,l,l,1,0.7690089999996417,525.284627699999,526.2942485999993,526.2746240999986,None,525.284627699999,None,525.284627699999,None,525.284627699999,None,527.0352143799995,None,527.0352143799995,None,527.0352143799995,None,,,,,,,,,,,225,24,Female,2022-05-25_18h22.51.083,Main,2022.1.1,60.006360674638415,
neutral,negative,1,k,k,,,,,,,,,11,8,206,7,,,,,,,,,,,,,,,,,,,,,,,,main,1,1,1,negative,neutral,k,k,1,0.7369226999981038,527.055515,528.0656296999987,528.0445183000011,None,527.055515,None,527.055515,None,527.055515,None,528.7730312799998,None,528.7730312799998,None,528.7730312799998,None,,,,,,,,,,,225,24,Female,2022-05-25_18h22.51.083,Main,2022.1.1,60.006360674638415,
neutral,positive,2,k,k,,,,,,,,,11,9,207,13,,,,,,,,,,,,,,,,,,,,,,,,main,2,2,2,positive,neutral,k,k,1,0.6873242000001483,528.7993998999991,529.8034817999978,529.7829332000001,None,528.7993998999991,None,528.7993998999991,None,528.7993998999991,None,530.4659511800004,None,530.4659511800004,None,530.4659511800004,None,,,,,,,,,,,225,24,Female,2022-05-25_18h22.51.083,Main,2022.1.1,60.006360674638415,
