target,distractor,set,ans1,ans2,rep_loop2.thisRepN,rep_loop2.thisTrialN,rep_loop2.thisN,rep_loop2.thisIndex,flanker_prac_loop.thisRepN,flanker_prac_loop.thisTrialN,flanker_prac_loop.thisN,flanker_prac_loop.thisIndex,flanker_main_loop.thisRepN,flanker_main_loop.thisTrialN,flanker_main_loop.thisN,flanker_main_loop.thisIndex,fl_inst_resp.keys,mouse.x,mouse.y,mouse.leftButton,mouse.midButton,mouse.rightButton,mouse.started,mouse.stopped,sound_1.started,sound_1.stopped,no_text.started,no_text.stopped,yes_text.started,yes_text.stopped,mouse_2.x,mouse_2.y,mouse_2.leftButton,mouse_2.midButton,mouse_2.rightButton,mouse_2.started,mouse_2.stopped,back_2.started,back_2.stopped,main_prac,fl_cold,fl_colt,fl_set,fl_dcond,fl_tcond,fl_ans,fl_res,fl_corr,fl_rt,fix_fl.started,fix_fl.stopped,targ.started,targ.stopped,j_button.started,j_button.stopped,k_button.started,k_button.stopped,l_button.started,l_button.stopped,j_button2.started,j_button2.stopped,k_button2.started,k_button2.stopped,l_button2.started,l_button2.stopped,mainback.started,mainback.stopped,key_resp.keys,mouse_6.x,mouse_6.y,mouse_6.leftButton,mouse_6.midButton,mouse_6.rightButton,mouse_6.started,mouse_6.stopped,id*,age*,gender*,date,expName,psychopyVersion,frameRate,
,,,,,0,0,0,0,,,,,,,,,None,0.083333336,-0.40925926,0,0,0,1.0065101499058073,None,22.313796530001856,None,40.279486900006304,None,40.279486900006304,None,-0.12314815,-0.06759259,0,0,0,0.012509429987403564,None,,,,,,,,,,,,,,,,,,,,,,,,,,,,,,,,,,,,,,,226,25,Male,2022-05-26_11h01.39.787,Main,2022.1.1,60.01619236798179,
neutral,positive,1,k,k,,,,,0,0,0,4,,,,,,,,,,,,,,,,,,,,,,,,,,43.344573199996375,None,prac,2,2,1,positive,neutral,k,k,1,1.3052104999951553,45.40158820000943,46.40893620000861,46.38861629999883,None,45.40158820000943,None,45.40158820000943,None,45.40158820000943,None,47.66664733000361,None,47.66664733000361,None,47.66664733000361,None,,,,,,,,,,,226,25,Male,2022-05-26_11h01.39.787,Main,2022.1.1,60.01619236798179,
negative,positive,1,j,l,,,,,0,1,1,6,,,,,,,,,,,,,,,,,,,,,,,,,,,,prac,2,2,1,positive,negative,j,j,1,1.3039238000055775,47.70133209999767,48.70366759999888,48.68374120000226,None,47.70133209999767,None,47.70133209999767,None,47.70133209999767,None,49.97545493000216,None,49.97545493000216,None,49.97545493000216,None,,,,,,,,,,,226,25,Male,2022-05-26_11h01.39.787,Main,2022.1.1,60.01619236798179,
positive,negative,2,l,j,,,,,0,2,2,14,,,,,,,,,,,,,,,,,,,,,,,,,,,,prac,1,1,2,negative,positive,l,l,1,0.8478388000075938,50.01548680000997,51.03563209999993,50.993772600006196,None,50.01548680000997,None,50.01548680000997,None,50.01548680000997,None,51.82562182999827,None,51.82562182999827,None,51.82562182999827,None,,,,,,,,,,,226,25,Male,2022-05-26_11h01.39.787,Main,2022.1.1,60.01619236798179,
neutral,neutral,2,k,k,,,,,0,3,3,10,,,,,,,,,,,,,,,,,,,,,,,,,,,,prac,1,1,2,neutral,neutral,k,k,1,0.9712582000065595,51.86407370000961,52.87861549999798,52.837088200001745,None,51.86407370000961,None,51.86407370000961,None,51.86407370000961,None,53.79738253000396,None,53.79738253000396,None,53.79738253000396,None,,,,,,,,,,,226,25,Male,2022-05-26_11h01.39.787,Main,2022.1.1,60.01619236798179,
neutral,positive,2,k,k,,,,,0,4,4,13,,,,,,,,,,,,,,,,,,,,,,,,,,,,prac,2,2,2,positive,neutral,k,k,1,0.7089524000039091,53.844932599997264,54.85706320000463,54.817200400008005,None,53.844932599997264,None,53.844932599997264,None,53.844932599997264,None,55.51140683000703,None,55.51140683000703,None,55.51140683000703,None,,,,,,,,,,,226,25,Male,2022-05-26_11h01.39.787,Main,2022.1.1,60.01619236798179,
neutral,neutral,1,k,k,,,,,0,5,5,1,,,,,,,,,,,,,,,,,,,,,,,,,,,,prac,1,1,1,neutral,neutral,k,k,1,0.9465744000044651,55.5480011000036,56.567510300010326,56.52586770000926,None,55.5480011000036,None,55.5480011000036,None,55.5480011000036,None,57.45986053000233,None,57.45986053000233,None,57.45986053000233,None,,,,,,,,,,,226,25,Male,2022-05-26_11h01.39.787,Main,2022.1.1,60.01619236798179,
positive,negative,1,l,j,,,,,0,6,6,5,,,,,,,,,,,,,,,,,,,,,,,,,,,,prac,1,1,1,negative,positive,l,l,1,0.9985396999982186,57.508520700008376,58.52681910000683,58.48615540000901,None,57.508520700008376,None,57.508520700008376,None,57.508520700008376,None,59.46235663000407,None,59.46235663000407,None,59.46235663000407,None,,,,,,,,,,,226,25,Male,2022-05-26_11h01.39.787,Main,2022.1.1,60.01619236798179,
negative,negative,1,j,l,,,,,0,7,7,0,,,,,,,,,,,,,,,,,,,,,,,,,,,,prac,2,2,1,negative,negative,j,j,1,0.9496782999922289,59.4943828000105,60.512535200003185,60.491947000002256,None,59.4943828000105,None,59.4943828000105,None,59.4943828000105,None,61.41515382999641,None,61.41515382999641,None,61.41515382999641,None,,,,,,,,,,,226,25,Male,2022-05-26_11h01.39.787,Main,2022.1.1,60.01619236798179,
neutral,negative,2,k,k,,,,,0,8,8,16,,,,,,,,,,,,,,,,,,,,,,,,,,,,prac,2,2,2,negative,neutral,k,k,1,0.7961405999958515,61.45588540000608,62.47654909999983,62.435959399997955,None,61.45588540000608,None,61.45588540000608,None,61.45588540000608,None,63.21427822999685,None,63.21427822999685,None,63.21427822999685,None,,,,,,,,,,,226,25,Male,2022-05-26_11h01.39.787,Main,2022.1.1,60.01619236798179,
negative,negative,2,j,l,,,,,0,9,9,9,,,,,,,,,,,,,,,,,,,,,,,,,,,,prac,2,2,2,negative,negative,j,j,1,0.784272199991392,63.23477520000597,64.2515715000045,64.21243549999781,None,63.23477520000597,None,63.23477520000597,None,63.23477520000597,None,65.00064103000186,None,65.00064103000186,None,65.00064103000186,None,,,,,,,,,,,226,25,Male,2022-05-26_11h01.39.787,Main,2022.1.1,60.01619236798179,
negative,neutral,2,j,l,,,,,0,10,10,12,,,,,,,,,,,,,,,,,,,,,,,,,,,,prac,2,2,2,neutral,negative,j,j,1,0.7044376999983797,65.03574320000189,66.05882250001014,66.03744390000065,None,65.03574320000189,None,65.03574320000189,None,65.03574320000189,None,66.7098659299998,None,66.7098659299998,None,66.7098659299998,None,,,,,,,,,,,226,25,Male,2022-05-26_11h01.39.787,Main,2022.1.1,60.01619236798179,
negative,neutral,1,j,l,,,,,0,11,11,3,,,,,,,,,,,,,,,,,,,,,,,,,,,,prac,2,2,1,neutral,negative,j,j,1,0.7842469000024721,66.74637600001006,67.75807000001078,67.71708280000894,None,66.74637600001006,None,66.74637600001006,None,66.74637600001006,None,68.49615633000649,None,68.49615633000649,None,68.49615633000649,None,,,,,,,,,,,226,25,Male,2022-05-26_11h01.39.787,Main,2022.1.1,60.01619236798179,
negative,positive,2,j,l,,,,,0,12,12,15,,,,,,,,,,,,,,,,,,,,,,,,,,,,prac,2,2,2,positive,negative,j,j,1,0.8256430999899749,68.51976450000075,69.52572210000653,69.50413169999956,None,68.51976450000075,None,68.51976450000075,None,68.51976450000075,None,70.32696173000004,None,70.32696173000004,None,70.32696173000004,None,,,,,,,,,,,226,25,Male,2022-05-26_11h01.39.787,Main,2022.1.1,60.01619236798179,
positive,positive,2,l,j,,,,,0,13,13,11,,,,,,,,,,,,,,,,,,,,,,,,,,,,prac,1,1,2,positive,positive,l,l,1,0.7063465999963228,70.36304760001076,71.3804661000031,71.33785110000463,None,70.36304760001076,None,70.36304760001076,None,70.36304760001076,None,72.0395408299999,None,72.0395408299999,None,72.0395408299999,None,,,,,,,,,,,226,25,Male,2022-05-26_11h01.39.787,Main,2022.1.1,60.01619236798179,
positive,neutral,1,l,j,,,,,0,14,14,8,,,,,,,,,,,,,,,,,,,,,,,,,,,,prac,2,2,1,neutral,positive,l,l,1,0.9567921999987448,72.06223070000124,73.07997449999675,73.03877690000809,None,72.06223070000124,None,72.06223070000124,None,72.06223070000124,None,73.99582963000721,None,73.99582963000721,None,73.99582963000721,None,,,,,,,,,,,226,25,Male,2022-05-26_11h01.39.787,Main,2022.1.1,60.01619236798179,
neutral,negative,1,k,k,,,,,0,15,15,7,,,,,,,,,,,,,,,,,,,,,,,,,,,,prac,1,1,1,negative,neutral,k,k,1,0.6313191999943228,74.01810080000723,75.03631520000636,74.99622960000124,None,74.01810080000723,None,74.01810080000723,None,74.01810080000723,None,75.62935143000941,None,75.62935143000941,None,75.62935143000941,None,,,,,,,,,,,226,25,Male,2022-05-26_11h01.39.787,Main,2022.1.1,60.01619236798179,
positive,positive,1,l,j,,,,,0,16,16,2,,,,,,,,,,,,,,,,,,,,,,,,,,,,prac,1,1,1,positive,positive,l,l,1,0.8652234000037424,75.66213910000806,76.68137620000925,76.66162720001012,None,75.66213910000806,None,75.66213910000806,None,75.66213910000806,None,77.49659403000696,None,77.49659403000696,None,77.49659403000696,None,,,,,,,,,,,226,25,Male,2022-05-26_11h01.39.787,Main,2022.1.1,60.01619236798179,
positive,neutral,2,l,j,,,,,0,17,17,17,,,,,,,,,,,,,,,,,,,,,,,,,,,,prac,2,2,2,neutral,positive,l,l,1,0.7165187000064179,77.52343250000558,78.54570509999758,78.5041426000098,None,77.52343250000558,None,77.52343250000558,None,77.52343250000558,None,79.2183508299975,None,79.2183508299975,None,79.2183508299975,None,,,,,,,,,,,226,25,Male,2022-05-26_11h01.39.787,Main,2022.1.1,60.01619236798179,
positive,neutral,2,l,j,,,,,1,0,18,17,,,,,,,,,,,,,,,,,,,,,,,,,,,,prac,2,2,2,neutral,positive,l,l,1,0.6020528000080958,79.2430730000051,80.25665340000705,80.2158269000065,None,79.2430730000051,None,79.2430730000051,None,79.2430730000051,None,80.82285703000234,None,80.82285703000234,None,80.82285703000234,None,,,,,,,,,,,226,25,Male,2022-05-26_11h01.39.787,Main,2022.1.1,60.01619236798179,
negative,negative,1,j,l,,,,,1,1,19,0,,,,,,,,,,,,,,,,,,,,,,,,,,,,prac,1,1,1,negative,negative,j,j,1,2.2751089999947,80.84582670000964,81.85867060000601,81.83674959999917,None,80.84582670000964,None,80.84582670000964,None,80.84582670000964,None,84.1288338000013,None,84.1288338000013,None,84.1288338000013,None,,,,,,,,,,,226,25,Male,2022-05-26_11h01.39.787,Main,2022.1.1,60.01619236798179,
positive,positive,2,l,j,,,,,1,2,20,11,,,,,,,,,,,,,,,,,,,,,,,,,,,,prac,2,2,2,positive,positive,l,k,0,0.8980581999931019,85.1517021000036,86.16850220000197,86.12918430000718,None,85.1517021000036,None,85.1517021000036,None,85.1517021000036,None,87.04154340000241,None,87.04154340000241,None,87.04154340000241,None,,,,,,,,,,,226,25,Male,2022-05-26_11h01.39.787,Main,2022.1.1,60.01619236798179,
negative,positive,2,j,l,,,,,1,3,21,15,,,,,,,,,,,,,,,,,,,,,,,,,,,,prac,1,1,2,positive,negative,j,j,1,0.9377916000084952,88.06740539999737,89.08941240000422,89.04837020000559,None,88.06740539999737,None,88.06740539999737,None,88.06740539999737,None,89.98397232999996,None,89.98397232999996,None,89.98397232999996,None,,,,,,,,,,,226,25,Male,2022-05-26_11h01.39.787,Main,2022.1.1,60.01619236798179,
neutral,negative,2,k,k,,,,,1,4,22,16,,,,,,,,,,,,,,,,,,,,,,,,,,,,prac,2,2,2,negative,neutral,k,k,1,1.2422902999969665,90.0100048000022,91.02897030000167,90.98841620000894,None,90.0100048000022,None,90.0100048000022,None,90.0100048000022,None,92.22903343000944,None,92.22903343000944,None,92.22903343000944,None,,,,,,,,,,,226,25,Male,2022-05-26_11h01.39.787,Main,2022.1.1,60.01619236798179,
negative,neutral,1,j,l,,,,,1,5,23,3,,,,,,,,,,,,,,,,,,,,,,,,,,,,prac,1,1,1,neutral,negative,j,j,1,0.7696379999979399,92.2495370000106,93.2529926999996,93.23196499999904,None,92.2495370000106,None,92.2495370000106,None,92.2495370000106,None,94.00345752999856,None,94.00345752999856,None,94.00345752999856,None,,,,,,,,,,,226,25,Male,2022-05-26_11h01.39.787,Main,2022.1.1,60.01619236798179,
neutral,neutral,2,k,k,,,,,1,6,24,10,,,,,,,,,,,,,,,,,,,,,,,,,,,,prac,2,2,2,neutral,neutral,k,k,1,0.8635444999963511,94.02606660001038,95.04846160000307,95.00434070000483,None,94.02606660001038,None,94.02606660001038,None,94.02606660001038,None,95.8682954300064,None,95.8682954300064,None,95.8682954300064,None,,,,,,,,,,,226,25,Male,2022-05-26_11h01.39.787,Main,2022.1.1,60.01619236798179,
neutral,neutral,1,k,k,,,,,1,7,25,1,,,,,,,,,,,,,,,,,,,,,,,,,,,,prac,2,2,1,neutral,neutral,k,k,1,0.9270457000093302,95.88894060000894,96.89678070000082,96.87703550000151,None,95.88894060000894,None,95.88894060000894,None,95.88894060000894,None,97.79525383000582,None,97.79525383000582,None,97.79525383000582,None,,,,,,,,,,,226,25,Male,2022-05-26_11h01.39.787,Main,2022.1.1,60.01619236798179,
positive,negative,1,l,j,,,,,1,8,26,5,,,,,,,,,,,,,,,,,,,,,,,,,,,,prac,2,2,1,negative,positive,l,l,1,1.1319790999987163,97.81801550000091,98.83830080000916,98.7966591000004,None,97.81801550000091,None,97.81801550000091,None,97.81801550000091,None,99.92950963000912,None,99.92950963000912,None,99.92950963000912,None,,,,,,,,,,,226,25,Male,2022-05-26_11h01.39.787,Main,2022.1.1,60.01619236798179,
neutral,positive,2,k,k,,,,,1,9,27,13,,,,,,,,,,,,,,,,,,,,,,,,,,,,prac,1,1,2,positive,neutral,k,k,1,0.8438151000009384,99.95442880000337,100.97627949999878,100.93378659999871,None,99.95442880000337,None,99.95442880000337,None,99.95442880000337,None,101.77594702999777,None,101.77594702999777,None,101.77594702999777,None,,,,,,,,,,,226,25,Male,2022-05-26_11h01.39.787,Main,2022.1.1,60.01619236798179,
neutral,positive,1,k,k,,,,,1,10,28,4,,,,,,,,,,,,,,,,,,,,,,,,,,,,prac,1,1,1,positive,neutral,k,k,1,0.7559909999981755,101.79820750000363,102.82040170000982,102.77900450000016,None,101.79820750000363,None,101.79820750000363,None,101.79820750000363,None,103.53695203000534,None,103.53695203000534,None,103.53695203000534,None,,,,,,,,,,,226,25,Male,2022-05-26_11h01.39.787,Main,2022.1.1,60.01619236798179,
positive,negative,2,l,j,,,,,1,11,29,14,,,,,,,,,,,,,,,,,,,,,,,,,,,,prac,1,1,2,negative,positive,l,l,1,0.7756657000136329,103.55727489999845,104.57517740000912,104.5329122999974,None,103.55727489999845,None,103.55727489999845,None,103.55727489999845,None,105.31227302999905,None,105.31227302999905,None,105.31227302999905,None,,,,,,,,,,,226,25,Male,2022-05-26_11h01.39.787,Main,2022.1.1,60.01619236798179,
neutral,negative,1,k,k,,,,,1,12,30,7,,,,,,,,,,,,,,,,,,,,,,,,,,,,prac,2,2,1,negative,neutral,k,k,1,1.0006309000018518,105.3367631000001,106.35379550000653,106.31301559999702,None,105.3367631000001,None,105.3367631000001,None,105.3367631000001,None,107.31747603000694,None,107.31747603000694,None,107.31747603000694,None,,,,,,,,,,,226,25,Male,2022-05-26_11h01.39.787,Main,2022.1.1,60.01619236798179,
negative,neutral,2,j,l,,,,,1,13,31,12,,,,,,,,,,,,,,,,,,,,,,,,,,,,prac,2,2,2,neutral,negative,j,j,1,0.8968689000030281,107.33947750000516,108.35871670000779,108.31648870000208,None,107.33947750000516,None,107.33947750000516,None,107.33947750000516,None,109.2167321299974,None,109.2167321299974,None,109.2167321299974,None,,,,,,,,,,,226,25,Male,2022-05-26_11h01.39.787,Main,2022.1.1,60.01619236798179,
positive,positive,1,l,j,,,,,1,14,32,2,,,,,,,,,,,,,,,,,,,,,,,,,,,,prac,1,1,1,positive,positive,l,l,1,1.0267830999946455,109.2366347000061,110.24023820000002,110.21926880000683,None,109.2366347000061,None,109.2366347000061,None,109.2366347000061,None,111.24288813000457,None,111.24288813000457,None,111.24288813000457,None,,,,,,,,,,,226,25,Male,2022-05-26_11h01.39.787,Main,2022.1.1,60.01619236798179,
negative,positive,1,j,l,,,,,1,15,33,6,,,,,,,,,,,,,,,,,,,,,,,,,,,,prac,2,2,1,positive,negative,j,l,0,0.9573268999956781,111.2695795000036,112.29187559999991,112.24927290000778,None,111.2695795000036,None,111.2695795000036,None,111.2695795000036,None,113.21235040000465,None,113.21235040000465,None,113.21235040000465,None,,,,,,,,,,,226,25,Male,2022-05-26_11h01.39.787,Main,2022.1.1,60.01619236798179,
positive,neutral,1,l,j,,,,,1,16,34,8,,,,,,,,,,,,,,,,,,,,,,,,,,,,prac,2,2,1,neutral,positive,l,l,1,0.9824359000049299,114.23067720000108,115.24943710000662,115.20994559999963,None,114.23067720000108,None,114.23067720000108,None,114.23067720000108,None,116.19217803000792,None,116.19217803000792,None,116.19217803000792,None,,,,,,,,,,,226,25,Male,2022-05-26_11h01.39.787,Main,2022.1.1,60.01619236798179,
negative,negative,2,j,l,,,,,1,17,35,9,,,,,,,,,,,,,,,,,,,,,,,,,,,,prac,2,2,2,negative,negative,j,j,1,1.0187828999914927,116.21755750000011,117.23477110000385,117.19414310000138,None,116.21755750000011,None,116.21755750000011,None,116.21755750000011,None,118.21612413000985,None,118.21612413000985,None,118.21612413000985,None,,,,,,,,,,,226,25,Male,2022-05-26_11h01.39.787,Main,2022.1.1,60.01619236798179,
,,,,,,,,,,,,,,,,,,,,,,,,,,,,,,,,,,,,,,,,,,,,,,,,,,,,,,,,,,,,,,,,,,118.22417410000344,None,None,,,,,,,,226,25,Male,2022-05-26_11h01.39.787,Main,2022.1.1,60.01619236798179,
,,,,,,,,,,,,,,,,,,,,,,,,,,,,,,,,,,,,,,,,,,,,,,,,,,,,,,,,,,,,,,,,,,,,,0.21388888,-0.22870371,1,0,0,0.006439029995817691,None,226,25,Male,2022-05-26_11h01.39.787,Main,2022.1.1,60.01619236798179,
negative,positive,1,j,l,,,,,,,,,0,0,0,6,,,,,,,,,,,,,,,,,,,,,,120.0348679000017,None,main,2,2,1,positive,negative,j,j,1,1.0335737999994308,122.05478520000179,123.06699439999647,123.04586330000893,None,122.05478520000179,None,122.05478520000179,None,122.05478520000179,None,124.06776603000326,None,124.06776603000326,None,124.06776603000326,None,,,,,,,,,,,226,25,Male,2022-05-26_11h01.39.787,Main,2022.1.1,60.01619236798179,
positive,negative,2,l,j,,,,,,,,,0,1,1,14,,,,,,,,,,,,,,,,,,,,,,,,main,2,2,2,negative,positive,l,l,1,0.8066677999886451,124.09256859999732,125.10834920000343,125.08887010000763,None,124.09256859999732,None,124.09256859999732,None,124.09256859999732,None,125.8816396299997,None,125.8816396299997,None,125.8816396299997,None,,,,,,,,,,,226,25,Male,2022-05-26_11h01.39.787,Main,2022.1.1,60.01619236798179,
negative,negative,2,j,l,,,,,,,,,0,2,2,9,,,,,,,,,,,,,,,,,,,,,,,,main,2,2,2,negative,negative,j,j,1,0.7988455000013346,125.90481500000169,126.92510839999886,126.88452310000139,None,125.90481500000169,None,125.90481500000169,None,125.90481500000169,None,127.68348702999792,None,127.68348702999792,None,127.68348702999792,None,,,,,,,,,,,226,25,Male,2022-05-26_11h01.39.787,Main,2022.1.1,60.01619236798179,
neutral,negative,2,k,k,,,,,,,,,0,3,3,16,,,,,,,,,,,,,,,,,,,,,,,,main,1,1,2,negative,neutral,k,k,1,0.7646234999992885,127.70390439999755,128.71802460000617,128.67746360000456,None,127.70390439999755,None,127.70390439999755,None,127.70390439999755,None,129.45069873000176,None,129.45069873000176,None,129.45069873000176,None,,,,,,,,,,,226,25,Male,2022-05-26_11h01.39.787,Main,2022.1.1,60.01619236798179,
positive,positive,2,l,j,,,,,,,,,0,4,4,11,,,,,,,,,,,,,,,,,,,,,,,,main,1,1,2,positive,positive,l,l,1,0.75219030000153,129.47174200000882,130.48761870000453,130.4470166999963,None,129.47174200000882,None,129.47174200000882,None,129.47174200000882,None,131.20349153000717,None,131.20349153000717,None,131.20349153000717,None,,,,,,,,,,,226,25,Male,2022-05-26_11h01.39.787,Main,2022.1.1,60.01619236798179,
neutral,positive,1,k,k,,,,,,,,,0,5,5,4,,,,,,,,,,,,,,,,,,,,,,,,main,1,1,1,positive,neutral,k,k,1,0.7059107999957632,131.22637200000463,132.24340980000852,132.2045986000012,None,131.22637200000463,None,131.22637200000463,None,131.22637200000463,None,132.9151796300037,None,132.9151796300037,None,132.9151796300037,None,,,,,,,,,,,226,25,Male,2022-05-26_11h01.39.787,Main,2022.1.1,60.01619236798179,
neutral,neutral,1,k,k,,,,,,,,,0,6,6,1,,,,,,,,,,,,,,,,,,,,,,,,main,1,1,1,neutral,neutral,k,k,1,0.6303151000029175,132.93939810000302,133.9571464000037,133.9165428999986,None,132.93939810000302,None,132.93939810000302,None,132.93939810000302,None,134.5478026300014,None,134.5478026300014,None,134.5478026300014,None,,,,,,,,,,,226,25,Male,2022-05-26_11h01.39.787,Main,2022.1.1,60.01619236798179,
positive,neutral,2,l,j,,,,,,,,,0,7,7,17,,,,,,,,,,,,,,,,,,,,,,,,main,2,2,2,neutral,positive,l,l,1,0.7494659999938449,134.56889940000838,135.57755760000146,135.55802189999667,None,134.56889940000838,None,134.56889940000838,None,134.56889940000838,None,136.2997155300007,None,136.2997155300007,None,136.2997155300007,None,,,,,,,,,,,226,25,Male,2022-05-26_11h01.39.787,Main,2022.1.1,60.01619236798179,
negative,neutral,1,j,l,,,,,,,,,0,8,8,3,,,,,,,,,,,,,,,,,,,,,,,,main,2,2,1,neutral,negative,j,j,1,0.7272171000076924,136.32021790000726,137.32314880000195,137.30369660000724,None,136.32021790000726,None,136.32021790000726,None,136.32021790000726,None,138.02677593000845,None,138.02677593000845,None,138.02677593000845,None,,,,,,,,,,,226,25,Male,2022-05-26_11h01.39.787,Main,2022.1.1,60.01619236798179,
positive,negative,1,l,j,,,,,,,,,0,9,9,5,,,,,,,,,,,,,,,,,,,,,,,,main,1,1,1,negative,positive,l,l,1,0.8342116000130773,138.05219280000892,139.06576480000513,139.04478779999772,None,138.05219280000892,None,138.05219280000892,None,138.05219280000892,None,139.86649373000984,None,139.86649373000984,None,139.86649373000984,None,,,,,,,,,,,226,25,Male,2022-05-26_11h01.39.787,Main,2022.1.1,60.01619236798179,
neutral,neutral,2,k,k,,,,,,,,,0,10,10,10,,,,,,,,,,,,,,,,,,,,,,,,main,2,2,2,neutral,neutral,k,k,1,0.7365688999998383,139.88870219999808,140.9068774000043,140.86560270001064,None,139.88870219999808,None,139.88870219999808,None,139.88870219999808,None,141.6020738300038,None,141.6020738300038,None,141.6020738300038,None,,,,,,,,,,,226,25,Male,2022-05-26_11h01.39.787,Main,2022.1.1,60.01619236798179,
neutral,positive,2,k,k,,,,,,,,,0,11,11,13,,,,,,,,,,,,,,,,,,,,,,,,main,1,1,2,positive,neutral,k,k,1,0.59773990001122,141.62659420000273,142.6481133000052,142.60766920000606,None,141.62659420000273,None,141.62659420000273,None,141.62659420000273,None,143.2038375300079,None,143.2038375300079,None,143.2038375300079,None,,,,,,,,,,,226,25,Male,2022-05-26_11h01.39.787,Main,2022.1.1,60.01619236798179,
negative,neutral,2,j,l,,,,,,,,,0,12,12,12,,,,,,,,,,,,,,,,,,,,,,,,main,1,1,2,neutral,negative,j,,0,1.0564698000089265,143.22533210000256,144.23208729999897,144.2111569999979,None,143.22533210000256,None,143.22533210000256,None,143.22533210000256,None,145.27466989999812,None,145.27466989999812,None,145.27466989999812,None,,,,,,,,,,,226,25,Male,2022-05-26_11h01.39.787,Main,2022.1.1,60.01619236798179,
negative,positive,2,j,l,,,,,,,,,0,13,13,15,,,,,,,,,,,,,,,,,,,,,,,,main,1,1,2,positive,negative,j,j,1,0.7668948999926215,146.29583580000326,147.3185436000058,147.27608510000573,None,146.29583580000326,None,146.29583580000326,None,146.29583580000326,None,148.03750473000838,None,148.03750473000838,None,148.03750473000838,None,,,,,,,,,,,226,25,Male,2022-05-26_11h01.39.787,Main,2022.1.1,60.01619236798179,
negative,negative,1,j,l,,,,,,,,,0,14,14,0,,,,,,,,,,,,,,,,,,,,,,,,main,2,2,1,negative,negative,j,j,1,0.6864598999964073,148.06477579999773,149.07256840000628,149.05314720000024,None,148.06477579999773,None,148.06477579999773,None,148.06477579999773,None,149.73097552999826,None,149.73097552999826,None,149.73097552999826,None,,,,,,,,,,,226,25,Male,2022-05-26_11h01.39.787,Main,2022.1.1,60.01619236798179,
positive,neutral,1,l,j,,,,,,,,,0,15,15,8,,,,,,,,,,,,,,,,,,,,,,,,main,1,1,1,neutral,positive,l,l,1,0.9043510000046808,149.75180949999776,150.76949310000055,150.7262488999986,None,149.75180949999776,None,149.75180949999776,None,149.75180949999776,None,151.6347566299999,None,151.6347566299999,None,151.6347566299999,None,,,,,,,,,,,226,25,Male,2022-05-26_11h01.39.787,Main,2022.1.1,60.01619236798179,
positive,positive,1,l,j,,,,,,,,,0,16,16,2,,,,,,,,,,,,,,,,,,,,,,,,main,1,1,1,positive,positive,l,l,1,0.667729100008728,151.6631236999965,152.6768968999968,152.63743250000698,None,151.6631236999965,None,151.6631236999965,None,151.6631236999965,None,153.30579773000937,None,153.30579773000937,None,153.30579773000937,None,,,,,,,,,,,226,25,Male,2022-05-26_11h01.39.787,Main,2022.1.1,60.01619236798179,
neutral,negative,1,k,k,,,,,,,,,0,17,17,7,,,,,,,,,,,,,,,,,,,,,,,,main,2,2,1,negative,neutral,k,k,1,0.6939377000089735,153.3319257999974,154.3481066000095,154.3074079000071,None,153.3319257999974,None,153.3319257999974,None,153.3319257999974,None,155.00245373000945,None,155.00245373000945,None,155.00245373000945,None,,,,,,,,,,,226,25,Male,2022-05-26_11h01.39.787,Main,2022.1.1,60.01619236798179,
negative,neutral,2,j,l,,,,,,,,,1,0,18,12,,,,,,,,,,,,,,,,,,,,,,,,main,1,1,2,neutral,negative,j,j,1,0.8364327999879606,155.0238141000009,156.04267910000635,156.00376289999986,None,155.0238141000009,None,155.0238141000009,None,155.0238141000009,None,156.84135643000337,None,156.84135643000337,None,156.84135643000337,None,,,,,,,,,,,226,25,Male,2022-05-26_11h01.39.787,Main,2022.1.1,60.01619236798179,
positive,negative,2,l,j,,,,,,,,,1,1,19,14,,,,,,,,,,,,,,,,,,,,,,,,main,1,1,2,negative,positive,l,l,1,0.8117205000016838,156.86241950000112,157.88100740000664,157.83847270000842,None,156.86241950000112,None,156.86241950000112,None,156.86241950000112,None,158.65554203000357,None,158.65554203000357,None,158.65554203000357,None,,,,,,,,,,,226,25,Male,2022-05-26_11h01.39.787,Main,2022.1.1,60.01619236798179,
neutral,negative,2,k,k,,,,,,,,,1,2,20,16,,,,,,,,,,,,,,,,,,,,,,,,main,2,2,2,negative,neutral,k,k,1,0.7358262999914587,158.68092120000802,159.69748870001058,159.65643360000104,None,158.68092120000802,None,158.68092120000802,None,158.68092120000802,None,160.39646523000994,None,160.39646523000994,None,160.39646523000994,None,,,,,,,,,,,226,25,Male,2022-05-26_11h01.39.787,Main,2022.1.1,60.01619236798179,
neutral,neutral,1,k,k,,,,,,,,,1,3,21,1,,,,,,,,,,,,,,,,,,,,,,,,main,2,2,1,neutral,neutral,k,k,1,0.629778599992278,160.41910280000593,161.43546970000898,161.39316490000056,None,160.41910280000593,None,160.41910280000593,None,160.41910280000593,None,162.02920532999707,None,162.02920532999707,None,162.02920532999707,None,,,,,,,,,,,226,25,Male,2022-05-26_11h01.39.787,Main,2022.1.1,60.01619236798179,
neutral,positive,1,k,k,,,,,,,,,1,4,22,4,,,,,,,,,,,,,,,,,,,,,,,,main,2,2,1,positive,neutral,k,k,1,0.6256571999983862,162.05269430000044,163.0713076000102,163.03017520000867,None,162.05269430000044,None,162.05269430000044,None,162.05269430000044,None,163.65487252999884,None,163.65487252999884,None,163.65487252999884,None,,,,,,,,,,,226,25,Male,2022-05-26_11h01.39.787,Main,2022.1.1,60.01619236798179,
negative,positive,1,j,l,,,,,,,,,1,5,23,6,,,,,,,,,,,,,,,,,,,,,,,,main,2,2,1,positive,negative,j,j,1,0.9858043999993242,163.68046689999755,164.7015296000027,164.65922010000213,None,163.68046689999755,None,163.68046689999755,None,163.68046689999755,None,165.64413592999773,None,165.64413592999773,None,165.64413592999773,None,,,,,,,,,,,226,25,Male,2022-05-26_11h01.39.787,Main,2022.1.1,60.01619236798179,
positive,negative,1,l,j,,,,,,,,,1,6,24,5,,,,,,,,,,,,,,,,,,,,,,,,main,2,2,1,negative,positive,l,l,1,0.8637270000035642,165.66849170000933,166.67411810001067,166.65442380000604,None,165.66849170000933,None,165.66849170000933,None,165.66849170000933,None,167.51254733000388,None,167.51254733000388,None,167.51254733000388,None,,,,,,,,,,,226,25,Male,2022-05-26_11h01.39.787,Main,2022.1.1,60.01619236798179,
positive,positive,1,l,j,,,,,,,,,1,7,25,2,,,,,,,,,,,,,,,,,,,,,,,,main,2,2,1,positive,positive,l,l,1,0.6975206000061007,167.5337673000031,168.53639609999664,168.51661200000672,None,167.5337673000031,None,167.5337673000031,None,167.5337673000031,None,169.21230153000653,None,169.21230153000653,None,169.21230153000653,None,,,,,,,,,,,226,25,Male,2022-05-26_11h01.39.787,Main,2022.1.1,60.01619236798179,
negative,negative,1,j,l,,,,,,,,,1,8,26,0,,,,,,,,,,,,,,,,,,,,,,,,main,2,2,1,negative,negative,j,j,1,1.010776099996292,169.23516209999798,170.24256440000318,170.22087889999966,None,169.23516209999798,None,169.23516209999798,None,169.23516209999798,None,171.22904673000886,None,171.22904673000886,None,171.22904673000886,None,,,,,,,,,,,226,25,Male,2022-05-26_11h01.39.787,Main,2022.1.1,60.01619236798179,
neutral,neutral,2,k,k,,,,,,,,,1,9,27,10,,,,,,,,,,,,,,,,,,,,,,,,main,2,2,2,neutral,neutral,k,k,1,0.7698557999974582,171.24998230001074,172.2570163000055,172.23676520001027,None,171.24998230001074,None,171.24998230001074,None,171.24998230001074,None,173.0002426300096,None,173.0002426300096,None,173.0002426300096,None,,,,,,,,,,,226,25,Male,2022-05-26_11h01.39.787,Main,2022.1.1,60.01619236798179,
positive,positive,2,l,j,,,,,,,,,1,10,28,11,,,,,,,,,,,,,,,,,,,,,,,,main,2,2,2,positive,positive,l,l,1,0.8812803000037093,173.02321830000437,174.0308853000024,174.00959739999962,None,173.02321830000437,None,173.02321830000437,None,173.02321830000437,None,174.88382002999862,None,174.88382002999862,None,174.88382002999862,None,,,,,,,,,,,226,25,Male,2022-05-26_11h01.39.787,Main,2022.1.1,60.01619236798179,
neutral,negative,1,k,k,,,,,,,,,1,11,29,7,,,,,,,,,,,,,,,,,,,,,,,,main,1,1,1,negative,neutral,k,k,1,0.7979374999995343,174.90914640000847,175.93232100000023,175.88967190000403,None,174.90914640000847,None,174.90914640000847,None,174.90914640000847,None,176.68498522999727,None,176.68498522999727,None,176.68498522999727,None,,,,,,,,,,,226,25,Male,2022-05-26_11h01.39.787,Main,2022.1.1,60.01619236798179,
positive,neutral,2,l,j,,,,,,,,,1,12,30,17,,,,,,,,,,,,,,,,,,,,,,,,main,2,2,2,neutral,positive,l,l,1,0.82855340000242,176.712013700002,177.73337300001003,177.69144460000098,None,176.712013700002,None,176.712013700002,None,176.712013700002,None,178.51615072999704,None,178.51615072999704,None,178.51615072999704,None,,,,,,,,,,,226,25,Male,2022-05-26_11h01.39.787,Main,2022.1.1,60.01619236798179,
negative,neutral,1,j,l,,,,,,,,,1,13,31,3,,,,,,,,,,,,,,,,,,,,,,,,main,1,1,1,neutral,negative,j,j,1,0.8234854000038467,178.53862180000579,179.5527701000101,179.53248530000565,None,178.53862180000579,None,178.53862180000579,None,178.53862180000579,None,180.34505542999688,None,180.34505542999688,None,180.34505542999688,None,,,,,,,,,,,226,25,Male,2022-05-26_11h01.39.787,Main,2022.1.1,60.01619236798179,
neutral,positive,2,k,k,,,,,,,,,1,14,32,13,,,,,,,,,,,,,,,,,,,,,,,,main,2,2,2,positive,neutral,k,k,1,0.7642276999977184,180.3682048000046,181.37354980000237,181.35425720000057,None,180.3682048000046,None,180.3682048000046,None,180.3682048000046,None,182.11352022999637,None,182.11352022999637,None,182.11352022999637,None,,,,,,,,,,,226,25,Male,2022-05-26_11h01.39.787,Main,2022.1.1,60.01619236798179,
negative,negative,2,j,l,,,,,,,,,1,15,33,9,,,,,,,,,,,,,,,,,,,,,,,,main,1,1,2,negative,negative,j,j,1,0.7999058999994304,182.13559160000295,183.14567130000796,183.12474060000386,None,182.13559160000295,None,182.13559160000295,None,182.13559160000295,None,183.9157588300048,None,183.9157588300048,None,183.9157588300048,None,,,,,,,,,,,226,25,Male,2022-05-26_11h01.39.787,Main,2022.1.1,60.01619236798179,
positive,neutral,1,l,j,,,,,,,,,1,16,34,8,,,,,,,,,,,,,,,,,,,,,,,,main,2,2,1,neutral,positive,l,l,1,0.8424139999988256,183.93829230000847,184.94494260000647,184.92178440000862,None,183.93829230000847,None,183.93829230000847,None,183.93829230000847,None,185.76297423000943,None,185.76297423000943,None,185.76297423000943,None,,,,,,,,,,,226,25,Male,2022-05-26_11h01.39.787,Main,2022.1.1,60.01619236798179,
negative,positive,2,j,l,,,,,,,,,1,17,35,15,,,,,,,,,,,,,,,,,,,,,,,,main,1,1,2,positive,negative,j,j,1,0.8201346999994712,185.78605010001047,186.80509080000047,186.76553550000244,None,185.78605010001047,None,185.78605010001047,None,185.78605010001047,None,187.58498313000456,None,187.58498313000456,None,187.58498313000456,None,,,,,,,,,,,226,25,Male,2022-05-26_11h01.39.787,Main,2022.1.1,60.01619236798179,
positive,neutral,2,l,j,,,,,,,,,2,0,36,17,,,,,,,,,,,,,,,,,,,,,,,,main,1,1,2,neutral,positive,l,l,1,0.9977103999990504,187.60647320000862,188.6098650000058,188.58890390000306,None,187.60647320000862,None,187.60647320000862,None,187.60647320000862,None,189.5856002300032,None,189.5856002300032,None,189.5856002300032,None,,,,,,,,,,,226,25,Male,2022-05-26_11h01.39.787,Main,2022.1.1,60.01619236798179,
neutral,negative,1,k,k,,,,,,,,,2,1,37,7,,,,,,,,,,,,,,,,,,,,,,,,main,2,2,1,negative,neutral,k,k,1,0.7378758999984711,189.610628800001,190.63032670000393,190.58785999999964,None,189.610628800001,None,189.610628800001,None,189.610628800001,None,191.32824823000266,None,191.32824823000266,None,191.32824823000266,None,,,,,,,,,,,226,25,Male,2022-05-26_11h01.39.787,Main,2022.1.1,60.01619236798179,
positive,neutral,1,l,j,,,,,,,,,2,2,38,8,,,,,,,,,,,,,,,,,,,,,,,,main,2,2,1,neutral,positive,l,l,1,0.9572284000023501,191.35317729999952,192.36953730000823,192.33023360000516,None,191.35317729999952,None,191.35317729999952,None,191.35317729999952,None,193.29261783000112,None,193.29261783000112,None,193.29261783000112,None,,,,,,,,,,,226,25,Male,2022-05-26_11h01.39.787,Main,2022.1.1,60.01619236798179,
positive,positive,2,l,j,,,,,,,,,2,3,39,11,,,,,,,,,,,,,,,,,,,,,,,,main,1,1,2,positive,positive,l,l,1,0.6476590000092983,193.31516500000726,194.32134360000782,194.30075979999674,None,193.31516500000726,None,193.31516500000726,None,193.31516500000726,None,194.94154343000702,None,194.94154343000702,None,194.94154343000702,None,,,,,,,,,,,226,25,Male,2022-05-26_11h01.39.787,Main,2022.1.1,60.01619236798179,
neutral,neutral,2,k,k,,,,,,,,,2,4,40,10,,,,,,,,,,,,,,,,,,,,,,,,main,2,2,2,neutral,neutral,k,k,1,0.7158813999994891,194.96564200001012,195.98648649999814,195.94681819999823,None,194.96564200001012,None,194.96564200001012,None,194.96564200001012,None,196.66117283000932,None,196.66117283000932,None,196.66117283000932,None,,,,,,,,,,,226,25,Male,2022-05-26_11h01.39.787,Main,2022.1.1,60.01619236798179,
negative,positive,1,j,l,,,,,,,,,2,5,41,6,,,,,,,,,,,,,,,,,,,,,,,,main,1,1,1,positive,negative,j,j,1,0.7552093999984208,196.68475139999646,197.70848169999954,197.66692810000677,None,196.68475139999646,None,196.68475139999646,None,196.68475139999646,None,198.42172693000322,None,198.42172693000322,None,198.42172693000322,None,,,,,,,,,,,226,25,Male,2022-05-26_11h01.39.787,Main,2022.1.1,60.01619236798179,
negative,negative,1,j,l,,,,,,,,,2,6,42,0,,,,,,,,,,,,,,,,,,,,,,,,main,1,1,1,negative,negative,j,j,1,0.6195599000056973,198.44304280000506,199.45234360000177,199.43331190000754,None,198.44304280000506,None,198.44304280000506,None,198.44304280000506,None,200.04364533001063,None,200.04364533001063,None,200.04364533001063,None,,,,,,,,,,,226,25,Male,2022-05-26_11h01.39.787,Main,2022.1.1,60.01619236798179,
negative,neutral,1,j,l,,,,,,,,,2,7,43,3,,,,,,,,,,,,,,,,,,,,,,,,main,1,1,1,neutral,negative,j,j,1,0.6521111000038218,200.06562880000274,201.0831060000055,201.0424134000059,None,200.06562880000274,None,200.06562880000274,None,200.06562880000274,None,201.69849803000835,None,201.69849803000835,None,201.69849803000835,None,,,,,,,,,,,226,25,Male,2022-05-26_11h01.39.787,Main,2022.1.1,60.01619236798179,
positive,negative,2,l,j,,,,,,,,,2,8,44,14,,,,,,,,,,,,,,,,,,,,,,,,main,2,2,2,negative,positive,l,l,1,0.8655099000025075,201.72431330000109,202.73513780000212,202.69549189999816,None,201.72431330000109,None,201.72431330000109,None,201.72431330000109,None,203.56607073000197,None,203.56607073000197,None,203.56607073000197,None,,,,,,,,,,,226,25,Male,2022-05-26_11h01.39.787,Main,2022.1.1,60.01619236798179,
neutral,positive,1,k,k,,,,,,,,,2,9,45,4,,,,,,,,,,,,,,,,,,,,,,,,main,2,2,1,positive,neutral,k,k,1,0.6315372999961255,203.59170820000872,204.60832090000622,204.5671444000036,None,203.59170820000872,None,203.59170820000872,None,203.59170820000872,None,205.20003453000828,None,205.20003453000828,None,205.20003453000828,None,,,,,,,,,,,226,25,Male,2022-05-26_11h01.39.787,Main,2022.1.1,60.01619236798179,
positive,negative,1,l,j,,,,,,,,,2,10,46,5,,,,,,,,,,,,,,,,,,,,,,,,main,2,2,1,negative,positive,l,l,1,0.8781559000053676,205.2257726000098,206.24434170000313,206.2024048000021,None,205.2257726000098,None,205.2257726000098,None,205.2257726000098,None,207.08068032999728,None,207.08068032999728,None,207.08068032999728,None,,,,,,,,,,,226,25,Male,2022-05-26_11h01.39.787,Main,2022.1.1,60.01619236798179,
neutral,positive,2,k,k,,,,,,,,,2,11,47,13,,,,,,,,,,,,,,,,,,,,,,,,main,2,2,2,positive,neutral,k,k,1,1.0117156999913277,207.10854960000142,208.12954200000968,208.08740980000584,None,207.10854960000142,None,207.10854960000142,None,207.10854960000142,None,209.09494092999813,None,209.09494092999813,None,209.09494092999813,None,,,,,,,,,,,226,25,Male,2022-05-26_11h01.39.787,Main,2022.1.1,60.01619236798179,
negative,negative,2,j,l,,,,,,,,,2,12,48,9,,,,,,,,,,,,,,,,,,,,,,,,main,1,1,2,negative,negative,j,j,1,0.8488955000066198,209.1175549000036,210.13691929999914,210.09747069999867,None,209.1175549000036,None,209.1175549000036,None,209.1175549000036,None,210.94715633000743,None,210.94715633000743,None,210.94715633000743,None,,,,,,,,,,,226,25,Male,2022-05-26_11h01.39.787,Main,2022.1.1,60.01619236798179,
negative,neutral,2,j,l,,,,,,,,,2,13,49,12,,,,,,,,,,,,,,,,,,,,,,,,main,2,2,2,neutral,negative,j,j,1,0.6935033000045223,210.96844320000673,211.98469209999894,211.94451709999703,None,210.96844320000673,None,210.96844320000673,None,210.96844320000673,None,212.64336762999739,None,212.64336762999739,None,212.64336762999739,None,,,,,,,,,,,226,25,Male,2022-05-26_11h01.39.787,Main,2022.1.1,60.01619236798179,
neutral,neutral,1,k,k,,,,,,,,,2,14,50,1,,,,,,,,,,,,,,,,,,,,,,,,main,2,2,1,neutral,neutral,k,k,1,0.7324455000052694,212.66576040000655,213.66953270000522,213.64927989999705,None,212.66576040000655,None,212.66576040000655,None,212.66576040000655,None,214.37852663000086,None,214.37852663000086,None,214.37852663000086,None,,,,,,,,,,,226,25,Male,2022-05-26_11h01.39.787,Main,2022.1.1,60.01619236798179,
neutral,negative,2,k,k,,,,,,,,,2,15,51,16,,,,,,,,,,,,,,,,,,,,,,,,main,1,1,2,negative,neutral,k,k,1,0.8548889000085182,214.39992820000043,215.40190450000227,215.3829487000039,None,214.39992820000043,None,214.39992820000043,None,214.39992820000043,None,216.23857752999612,None,216.23857752999612,None,216.23857752999612,None,,,,,,,,,,,226,25,Male,2022-05-26_11h01.39.787,Main,2022.1.1,60.01619236798179,
negative,positive,2,j,l,,,,,,,,,2,16,52,15,,,,,,,,,,,,,,,,,,,,,,,,main,2,2,2,positive,negative,j,j,1,0.902709899994079,216.26102760000504,217.28145340000628,217.24067579999974,None,216.26102760000504,None,216.26102760000504,None,216.26102760000504,None,218.1425422299988,None,218.1425422299988,None,218.1425422299988,None,,,,,,,,,,,226,25,Male,2022-05-26_11h01.39.787,Main,2022.1.1,60.01619236798179,
positive,positive,1,l,j,,,,,,,,,2,17,53,2,,,,,,,,,,,,,,,,,,,,,,,,main,1,1,1,positive,positive,l,l,1,0.8825458000064828,218.1652380000014,219.17808660000446,219.15662140000495,None,218.1652380000014,None,218.1652380000014,None,218.1652380000014,None,220.02785612999725,None,220.02785612999725,None,220.02785612999725,None,,,,,,,,,,,226,25,Male,2022-05-26_11h01.39.787,Main,2022.1.1,60.01619236798179,
neutral,negative,2,k,k,,,,,,,,,3,0,54,16,,,,,,,,,,,,,,,,,,,,,,,,main,2,2,2,negative,neutral,k,k,1,0.8021428000065498,220.0508542000025,221.06117860000813,221.03944860000047,None,220.0508542000025,None,220.0508542000025,None,220.0508542000025,None,221.83537103000418,None,221.83537103000418,None,221.83537103000418,None,,,,,,,,,,,226,25,Male,2022-05-26_11h01.39.787,Main,2022.1.1,60.01619236798179,
neutral,neutral,1,k,k,,,,,,,,,3,1,55,1,,,,,,,,,,,,,,,,,,,,,,,,main,2,2,1,neutral,neutral,k,k,1,0.7908190000016475,221.85648560000118,222.87531509999826,222.8335294999997,None,221.85648560000118,None,221.85648560000118,None,221.85648560000118,None,223.625908730003,None,223.625908730003,None,223.625908730003,None,,,,,,,,,,,226,25,Male,2022-05-26_11h01.39.787,Main,2022.1.1,60.01619236798179,
positive,neutral,2,l,j,,,,,,,,,3,2,56,17,,,,,,,,,,,,,,,,,,,,,,,,main,2,2,2,neutral,positive,l,l,1,1.3229358000098728,223.64873570000054,224.67098740000802,224.63007939999807,None,223.64873570000054,None,223.64873570000054,None,223.64873570000054,None,225.9532544300062,None,225.9532544300062,None,225.9532544300062,None,,,,,,,,,,,226,25,Male,2022-05-26_11h01.39.787,Main,2022.1.1,60.01619236798179,
positive,positive,1,l,j,,,,,,,,,3,3,57,2,,,,,,,,,,,,,,,,,,,,,,,,main,1,1,1,positive,positive,l,l,1,-0.6926720999908866,225.975629499997,None,None,None,225.975629499997,None,225.975629499997,None,225.975629499997,None,226.2759928000014,None,226.2759928000014,None,226.2759928000014,None,,,,,,,,,,,226,25,Male,2022-05-26_11h01.39.787,Main,2022.1.1,60.01619236798179,
negative,neutral,1,j,l,,,,,,,,,3,4,58,3,,,,,,,,,,,,,,,,,,,,,,,,main,2,2,1,neutral,negative,j,j,1,0.8911759000038728,229.29941859999963,230.31298709999828,230.29328540001006,None,229.29941859999963,None,229.29941859999963,None,229.29941859999963,None,231.17213342999895,None,231.17213342999895,None,231.17213342999895,None,,,,,,,,,,,226,25,Male,2022-05-26_11h01.39.787,Main,2022.1.1,60.01619236798179,
negative,negative,2,j,l,,,,,,,,,3,5,59,9,,,,,,,,,,,,,,,,,,,,,,,,main,2,2,2,negative,negative,j,j,1,0.8287757999933092,231.19508340000175,232.21182730000874,232.17054340000323,None,231.19508340000175,None,231.19508340000175,None,231.19508340000175,None,233.00653673000198,None,233.00653673000198,None,233.00653673000198,None,,,,,,,,,,,226,25,Male,2022-05-26_11h01.39.787,Main,2022.1.1,60.01619236798179,
positive,negative,2,l,j,,,,,,,,,3,6,60,14,,,,,,,,,,,,,,,,,,,,,,,,main,1,1,2,negative,positive,l,l,1,0.9426574999961304,233.02959580000606,234.03187269999762,234.012238299998,None,233.02959580000606,None,233.02959580000606,None,233.02959580000606,None,234.95473802999624,None,234.95473802999624,None,234.95473802999624,None,,,,,,,,,,,226,25,Male,2022-05-26_11h01.39.787,Main,2022.1.1,60.01619236798179,
neutral,negative,1,k,k,,,,,,,,,3,7,61,7,,,,,,,,,,,,,,,,,,,,,,,,main,1,1,1,negative,neutral,k,k,1,0.7551831000018865,234.97741370000585,235.99657950000255,235.9574192,None,234.97741370000585,None,234.97741370000585,None,234.97741370000585,None,236.71206273000718,None,236.71206273000718,None,236.71206273000718,None,,,,,,,,,,,226,25,Male,2022-05-26_11h01.39.787,Main,2022.1.1,60.01619236798179,
positive,neutral,1,l,j,,,,,,,,,3,8,62,8,,,,,,,,,,,,,,,,,,,,,,,,main,1,1,1,neutral,positive,l,l,1,0.8898486000107368,236.73339989999658,237.74602230000892,237.72660340000584,None,236.73339989999658,None,236.73339989999658,None,236.73339989999658,None,238.6061088300092,None,238.6061088300092,None,238.6061088300092,None,,,,,,,,,,,226,25,Male,2022-05-26_11h01.39.787,Main,2022.1.1,60.01619236798179,
negative,negative,1,j,l,,,,,,,,,3,9,63,0,,,,,,,,,,,,,,,,,,,,,,,,main,2,2,1,negative,negative,j,j,1,0.7535090000019409,238.6291504999972,239.6477515000006,239.6085458000016,None,238.6291504999972,None,238.6291504999972,None,238.6291504999972,None,240.36184403000954,None,240.36184403000954,None,240.36184403000954,None,,,,,,,,,,,226,25,Male,2022-05-26_11h01.39.787,Main,2022.1.1,60.01619236798179,
neutral,neutral,2,k,k,,,,,,,,,3,10,64,10,,,,,,,,,,,,,,,,,,,,,,,,main,1,1,2,neutral,neutral,k,k,1,0.828538200003095,240.38393480000377,241.40876630001003,241.36624180000217,None,240.38393480000377,None,240.38393480000377,None,240.38393480000377,None,242.1926644300009,None,242.1926644300009,None,242.1926644300009,None,,,,,,,,,,,226,25,Male,2022-05-26_11h01.39.787,Main,2022.1.1,60.01619236798179,
neutral,positive,2,k,k,,,,,,,,,3,11,65,13,,,,,,,,,,,,,,,,,,,,,,,,main,1,1,2,positive,neutral,k,k,1,0.788811699996586,242.21721309999702,243.23106620000908,243.19373460000497,None,242.21721309999702,None,242.21721309999702,None,242.21721309999702,None,243.98691813000625,None,243.98691813000625,None,243.98691813000625,None,,,,,,,,,,,226,25,Male,2022-05-26_11h01.39.787,Main,2022.1.1,60.01619236798179,
positive,positive,2,l,j,,,,,,,,,3,12,66,11,,,,,,,,,,,,,,,,,,,,,,,,main,2,2,2,positive,positive,l,l,1,0.8397526999906404,244.00863820000086,245.03015590000723,244.99038290001045,None,244.00863820000086,None,244.00863820000086,None,244.00863820000086,None,245.8278612300099,None,245.8278612300099,None,245.8278612300099,None,,,,,,,,,,,226,25,Male,2022-05-26_11h01.39.787,Main,2022.1.1,60.01619236798179,
neutral,positive,1,k,k,,,,,,,,,3,13,67,4,,,,,,,,,,,,,,,,,,,,,,,,main,1,1,1,positive,neutral,k,k,1,0.7681509999965783,245.8545271000039,246.87289969999983,246.83052119999775,None,245.8545271000039,None,245.8545271000039,None,245.8545271000039,None,247.60122803000996,None,247.60122803000996,None,247.60122803000996,None,,,,,,,,,,,226,25,Male,2022-05-26_11h01.39.787,Main,2022.1.1,60.01619236798179,
negative,neutral,2,j,l,,,,,,,,,3,14,68,12,,,,,,,,,,,,,,,,,,,,,,,,main,1,1,2,neutral,negative,j,j,1,2.3573459000035655,247.62260670000978,248.62783090000448,248.60846860001038,None,247.62260670000978,None,247.62260670000978,None,247.62260670000978,None,250.96771009999793,None,250.96771009999793,None,250.96771009999793,None,,,,,,,,,,,226,25,Male,2022-05-26_11h01.39.787,Main,2022.1.1,60.01619236798179,
negative,positive,1,j,l,,,,,,,,,3,15,69,6,,,,,,,,,,,,,,,,,,,,,,,,main,2,2,1,positive,negative,j,j,1,0.7981030000082683,251.97990299999947,253.00297080000746,252.95984360000875,None,251.97990299999947,None,251.97990299999947,None,251.97990299999947,None,253.75663693000826,None,253.75663693000826,None,253.75663693000826,None,,,,,,,,,,,226,25,Male,2022-05-26_11h01.39.787,Main,2022.1.1,60.01619236798179,
positive,negative,1,l,j,,,,,,,,,3,16,70,5,,,,,,,,,,,,,,,,,,,,,,,,main,2,2,1,negative,positive,l,l,1,1.0738609000109136,253.7796868000005,254.78894460000447,254.767897800004,None,253.7796868000005,None,253.7796868000005,None,253.7796868000005,None,255.83611013000046,None,255.83611013000046,None,255.83611013000046,None,,,,,,,,,,,226,25,Male,2022-05-26_11h01.39.787,Main,2022.1.1,60.01619236798179,
negative,positive,2,j,l,,,,,,,,,3,17,71,15,,,,,,,,,,,,,,,,,,,,,,,,main,2,2,2,positive,negative,j,j,1,0.8208419000002323,255.85864740000397,256.87778270000126,256.838551599998,None,255.85864740000397,None,255.85864740000397,None,255.85864740000397,None,257.6590169300078,None,257.6590169300078,None,257.6590169300078,None,,,,,,,,,,,226,25,Male,2022-05-26_11h01.39.787,Main,2022.1.1,60.01619236798179,
positive,negative,1,l,j,,,,,,,,,4,0,72,5,,,,,,,,,,,,,,,,,,,,,,,,main,2,2,1,negative,positive,l,l,1,1.3206787000090117,257.68516180000734,258.6960453000065,258.6763443000091,None,257.68516180000734,None,257.68516180000734,None,257.68516180000734,None,259.9851589299986,None,259.9851589299986,None,259.9851589299986,None,,,,,,,,,,,226,25,Male,2022-05-26_11h01.39.787,Main,2022.1.1,60.01619236798179,
neutral,positive,2,k,k,,,,,,,,,4,1,73,13,,,,,,,,,,,,,,,,,,,,,,,,main,2,2,2,positive,neutral,k,k,1,0.8773193999950308,260.0089727000013,261.02738020000106,260.98761209999793,None,260.0089727000013,None,260.0089727000013,None,260.0089727000013,None,261.86846153000516,None,261.86846153000516,None,261.86846153000516,None,,,,,,,,,,,226,25,Male,2022-05-26_11h01.39.787,Main,2022.1.1,60.01619236798179,
negative,negative,2,j,l,,,,,,,,,4,2,74,9,,,,,,,,,,,,,,,,,,,,,,,,main,1,1,2,negative,negative,j,j,1,1.168184399997699,261.8890371000016,262.8962661999976,262.87654230000044,None,261.8890371000016,None,261.8890371000016,None,261.8890371000016,None,264.039126530003,None,264.039126530003,None,264.039126530003,None,,,,,,,,,,,226,25,Male,2022-05-26_11h01.39.787,Main,2022.1.1,60.01619236798179,
positive,positive,1,l,j,,,,,,,,,4,3,75,2,,,,,,,,,,,,,,,,,,,,,,,,main,2,2,1,positive,positive,l,l,1,1.515766500000609,264.0617443000083,265.06777310000325,265.0445433999994,None,264.0617443000083,None,264.0617443000083,None,264.0617443000083,None,266.56837229999655,None,266.56837229999655,None,266.56837229999655,None,,,,,,,,,,,226,25,Male,2022-05-26_11h01.39.787,Main,2022.1.1,60.01619236798179,
positive,neutral,2,l,j,,,,,,,,,4,4,76,17,,,,,,,,,,,,,,,,,,,,,,,,main,1,1,2,neutral,positive,l,l,1,0.7520988000032958,267.5949527000048,268.61805489999824,268.5765422999975,None,267.5949527000048,None,267.5949527000048,None,267.5949527000048,None,269.3281340300062,None,269.3281340300062,None,269.3281340300062,None,,,,,,,,,,,226,25,Male,2022-05-26_11h01.39.787,Main,2022.1.1,60.01619236798179,
positive,neutral,1,l,j,,,,,,,,,4,5,77,8,,,,,,,,,,,,,,,,,,,,,,,,main,2,2,1,neutral,positive,l,l,1,0.7795729999925243,269.3510978999984,270.36043719999725,270.34104300000763,None,269.3510978999984,None,269.3510978999984,None,269.3510978999984,None,271.11089023000824,None,271.11089023000824,None,271.11089023000824,None,,,,,,,,,,,226,25,Male,2022-05-26_11h01.39.787,Main,2022.1.1,60.01619236798179,
neutral,positive,1,k,k,,,,,,,,,4,6,78,4,,,,,,,,,,,,,,,,,,,,,,,,main,1,1,1,positive,neutral,k,k,1,0.7311525999975856,271.13273579999804,272.1483464000048,272.10768129999633,None,271.13273579999804,None,271.13273579999804,None,271.13273579999804,None,272.8414829300062,None,272.8414829300062,None,272.8414829300062,None,,,,,,,,,,,226,25,Male,2022-05-26_11h01.39.787,Main,2022.1.1,60.01619236798179,
neutral,negative,1,k,k,,,,,,,,,4,7,79,7,,,,,,,,,,,,,,,,,,,,,,,,main,2,2,1,negative,neutral,k,k,1,0.7433788000053028,272.8673140000028,273.88868750000256,273.84780150000006,None,272.8673140000028,None,272.8673140000028,None,272.8673140000028,None,274.5872342300034,None,274.5872342300034,None,274.5872342300034,None,,,,,,,,,,,226,25,Male,2022-05-26_11h01.39.787,Main,2022.1.1,60.01619236798179,
neutral,neutral,2,k,k,,,,,,,,,4,8,80,10,,,,,,,,,,,,,,,,,,,,,,,,main,1,1,2,neutral,neutral,k,k,1,0.7030184000032023,274.6094360999996,275.62114020000445,275.60025850000966,None,274.6094360999996,None,274.6094360999996,None,274.6094360999996,None,276.2946849300104,None,276.2946849300104,None,276.2946849300104,None,,,,,,,,,,,226,25,Male,2022-05-26_11h01.39.787,Main,2022.1.1,60.01619236798179,
neutral,neutral,1,k,k,,,,,,,,,4,9,81,1,,,,,,,,,,,,,,,,,,,,,,,,main,2,2,1,neutral,neutral,k,k,1,0.6349597999942489,276.3182902999979,277.322285000002,277.30261650000466,None,276.3182902999979,None,276.3182902999979,None,276.3182902999979,None,277.9329400300092,None,277.9329400300092,None,277.9329400300092,None,,,,,,,,,,,226,25,Male,2022-05-26_11h01.39.787,Main,2022.1.1,60.01619236798179,
positive,positive,2,l,j,,,,,,,,,4,10,82,11,,,,,,,,,,,,,,,,,,,,,,,,main,2,2,2,positive,positive,l,l,1,0.7459022999973968,277.9537549000088,278.97041080000054,278.92890110000735,None,277.9537549000088,None,277.9537549000088,None,277.9537549000088,None,279.6821168299983,None,279.6821168299983,None,279.6821168299983,None,,,,,,,,,,,226,25,Male,2022-05-26_11h01.39.787,Main,2022.1.1,60.01619236798179,
negative,negative,1,j,l,,,,,,,,,4,11,83,0,,,,,,,,,,,,,,,,,,,,,,,,main,2,2,1,negative,negative,j,j,1,1.1053623000043444,279.7020438000036,280.7072068999987,280.68760869999824,None,279.7020438000036,None,279.7020438000036,None,279.7020438000036,None,281.7894536300053,None,281.7894536300053,None,281.7894536300053,None,,,,,,,,,,,226,25,Male,2022-05-26_11h01.39.787,Main,2022.1.1,60.01619236798179,
negative,neutral,2,j,l,,,,,,,,,4,12,84,12,,,,,,,,,,,,,,,,,,,,,,,,main,1,1,2,neutral,negative,j,j,1,0.7808318000024883,281.810318200005,282.8283930000034,282.7885917000094,None,281.810318200005,None,281.810318200005,None,281.810318200005,None,283.5731513300023,None,283.5731513300023,None,283.5731513300023,None,,,,,,,,,,,226,25,Male,2022-05-26_11h01.39.787,Main,2022.1.1,60.01619236798179,
positive,negative,2,l,j,,,,,,,,,4,13,85,14,,,,,,,,,,,,,,,,,,,,,,,,main,1,1,2,negative,positive,l,l,1,0.9555921999999555,283.59913719999895,284.6155801999994,284.5739620000095,None,283.59913719999895,None,283.59913719999895,None,283.59913719999895,None,285.5328004299998,None,285.5328004299998,None,285.5328004299998,None,,,,,,,,,,,226,25,Male,2022-05-26_11h01.39.787,Main,2022.1.1,60.01619236798179,
neutral,negative,2,k,k,,,,,,,,,4,14,86,16,,,,,,,,,,,,,,,,,,,,,,,,main,1,1,2,negative,neutral,k,k,1,0.6099420000100508,285.55536160001066,286.55909140000585,286.5400459000084,None,285.55536160001066,None,285.55536160001066,None,285.55536160001066,None,287.1488053300025,None,287.1488053300025,None,287.1488053300025,None,,,,,,,,,,,226,25,Male,2022-05-26_11h01.39.787,Main,2022.1.1,60.01619236798179,
negative,positive,1,j,l,,,,,,,,,4,15,87,6,,,,,,,,,,,,,,,,,,,,,,,,main,2,2,1,positive,negative,j,j,1,1.0882842999999411,287.17200469999807,288.17562730000645,288.1556039999996,None,287.17200469999807,None,287.17200469999807,None,287.17200469999807,None,289.2385718299964,None,289.2385718299964,None,289.2385718299964,None,,,,,,,,,,,226,25,Male,2022-05-26_11h01.39.787,Main,2022.1.1,60.01619236798179,
negative,neutral,1,j,l,,,,,,,,,4,16,88,3,,,,,,,,,,,,,,,,,,,,,,,,main,2,2,1,neutral,negative,j,j,1,0.7455659999977797,289.2644563000067,290.27319900000293,290.25325020001037,None,289.2644563000067,None,289.2644563000067,None,289.2644563000067,None,290.9866047300064,None,290.9866047300064,None,290.9866047300064,None,,,,,,,,,,,226,25,Male,2022-05-26_11h01.39.787,Main,2022.1.1,60.01619236798179,
negative,positive,2,j,l,,,,,,,,,4,17,89,15,,,,,,,,,,,,,,,,,,,,,,,,main,1,1,2,positive,negative,j,j,1,0.919438099997933,291.00898480000615,292.0190867000056,291.99982420000015,None,291.00898480000615,None,291.00898480000615,None,291.00898480000615,None,292.9114240300012,None,292.9114240300012,None,292.9114240300012,None,,,,,,,,,,,226,25,Male,2022-05-26_11h01.39.787,Main,2022.1.1,60.01619236798179,
positive,neutral,1,l,j,,,,,,,,,5,0,90,8,,,,,,,,,,,,,,,,,,,,,,,,main,2,2,1,neutral,positive,l,l,1,0.929344799995306,292.9323230000009,293.9406999000057,293.92056270000467,None,292.9323230000009,None,292.9323230000009,None,292.9323230000009,None,294.8429140300039,None,294.8429140300039,None,294.8429140300039,None,,,,,,,,,,,226,25,Male,2022-05-26_11h01.39.787,Main,2022.1.1,60.01619236798179,
positive,positive,2,l,j,,,,,,,,,5,1,91,11,,,,,,,,,,,,,,,,,,,,,,,,main,1,1,2,positive,positive,l,l,1,1.0659206999989692,294.86347620000015,295.88415410000016,295.84193019999657,None,294.86347620000015,None,294.86347620000015,None,294.86347620000015,None,296.911092130006,None,296.911092130006,None,296.911092130006,None,,,,,,,,,,,226,25,Male,2022-05-26_11h01.39.787,Main,2022.1.1,60.01619236798179,
neutral,neutral,2,k,k,,,,,,,,,5,2,92,10,,,,,,,,,,,,,,,,,,,,,,,,main,2,2,2,neutral,neutral,k,k,1,0.678108499996597,296.9334325000091,297.9525741999969,297.91153500000655,None,296.9334325000091,None,296.9334325000091,None,296.9334325000091,None,298.59157403000137,None,298.59157403000137,None,298.59157403000137,None,,,,,,,,,,,226,25,Male,2022-05-26_11h01.39.787,Main,2022.1.1,60.01619236798179,
neutral,negative,2,k,k,,,,,,,,,5,3,93,16,,,,,,,,,,,,,,,,,,,,,,,,main,1,1,2,negative,neutral,k,k,1,0.5650271999911638,298.61512519999815,299.6299866000045,299.5896256999986,None,298.61512519999815,None,298.61512519999815,None,298.61512519999815,None,300.15964513000364,None,300.15964513000364,None,300.15964513000364,None,,,,,,,,,,,226,25,Male,2022-05-26_11h01.39.787,Main,2022.1.1,60.01619236798179,
negative,neutral,2,j,l,,,,,,,,,5,4,94,12,,,,,,,,,,,,,,,,,,,,,,,,main,1,1,2,neutral,negative,j,j,1,0.8327544999920065,300.1793934000016,301.1855437000049,301.1658180000086,None,300.1793934000016,None,300.1793934000016,None,300.1793934000016,None,301.9944791299975,None,301.9944791299975,None,301.9944791299975,None,,,,,,,,,,,226,25,Male,2022-05-26_11h01.39.787,Main,2022.1.1,60.01619236798179,
neutral,positive,1,k,k,,,,,,,,,5,5,95,4,,,,,,,,,,,,,,,,,,,,,,,,main,1,1,1,positive,neutral,k,k,1,0.9090083000046434,302.0152689000097,303.03320620000886,302.99048629999743,None,302.0152689000097,None,302.0152689000097,None,302.0152689000097,None,303.9060159300032,None,303.9060159300032,None,303.9060159300032,None,,,,,,,,,,,226,25,Male,2022-05-26_11h01.39.787,Main,2022.1.1,60.01619236798179,
negative,positive,2,j,l,,,,,,,,,5,6,96,15,,,,,,,,,,,,,,,,,,,,,,,,main,2,2,2,positive,negative,j,j,1,0.9427687999996124,303.9267489000049,304.9504343000008,304.90875529999903,None,303.9267489000049,None,303.9267489000049,None,303.9267489000049,None,305.8489410299997,None,305.8489410299997,None,305.8489410299997,None,,,,,,,,,,,226,25,Male,2022-05-26_11h01.39.787,Main,2022.1.1,60.01619236798179,
neutral,neutral,1,k,k,,,,,,,,,5,7,97,1,,,,,,,,,,,,,,,,,,,,,,,,main,1,1,1,neutral,neutral,k,k,1,0.8031406999944011,305.8716885000031,306.88787449999654,306.8487581000081,None,305.8716885000031,None,305.8716885000031,None,305.8716885000031,None,307.6578700300059,None,307.6578700300059,None,307.6578700300059,None,,,,,,,,,,,226,25,Male,2022-05-26_11h01.39.787,Main,2022.1.1,60.01619236798179,
negative,neutral,1,j,l,,,,,,,,,5,8,98,3,,,,,,,,,,,,,,,,,,,,,,,,main,2,2,1,neutral,negative,j,j,1,1.2606891000032192,307.67785930000537,308.6967225999979,308.6555520999973,None,307.67785930000537,None,307.67785930000537,None,307.67785930000537,None,309.9180289300028,None,309.9180289300028,None,309.9180289300028,None,,,,,,,,,,,226,25,Male,2022-05-26_11h01.39.787,Main,2022.1.1,60.01619236798179,
neutral,negative,1,k,k,,,,,,,,,5,9,99,7,,,,,,,,,,,,,,,,,,,,,,,,main,2,2,1,negative,neutral,k,k,1,0.7436149999994086,309.94482170000265,310.9686815000023,310.9268165999965,None,309.94482170000265,None,309.94482170000265,None,309.94482170000265,None,311.6646235300039,None,311.6646235300039,None,311.6646235300039,None,,,,,,,,,,,226,25,Male,2022-05-26_11h01.39.787,Main,2022.1.1,60.01619236798179,
positive,positive,1,l,j,,,,,,,,,5,10,100,2,,,,,,,,,,,,,,,,,,,,,,,,main,2,2,1,positive,positive,l,l,1,1.171580599999288,311.687167600001,312.6934769000072,312.67253619999974,None,311.687167600001,None,311.687167600001,None,311.687167600001,None,313.84071823000414,None,313.84071823000414,None,313.84071823000414,None,,,,,,,,,,,226,25,Male,2022-05-26_11h01.39.787,Main,2022.1.1,60.01619236798179,
negative,negative,2,j,l,,,,,,,,,5,11,101,9,,,,,,,,,,,,,,,,,,,,,,,,main,2,2,2,negative,negative,j,j,1,0.7775554000108968,313.86434260000533,314.8726042000053,314.8533568999992,None,313.86434260000533,None,313.86434260000533,None,313.86434260000533,None,315.622024030007,None,315.622024030007,None,315.622024030007,None,,,,,,,,,,,226,25,Male,2022-05-26_11h01.39.787,Main,2022.1.1,60.01619236798179,
positive,neutral,2,l,j,,,,,,,,,5,12,102,17,,,,,,,,,,,,,,,,,,,,,,,,main,2,2,2,neutral,positive,l,l,1,0.9117958999995608,315.6447488999984,316.6618642000103,316.62089380000543,None,315.6447488999984,None,315.6447488999984,None,315.6447488999984,None,317.5345483300087,None,317.5345483300087,None,317.5345483300087,None,,,,,,,,,,,226,25,Male,2022-05-26_11h01.39.787,Main,2022.1.1,60.01619236798179,
positive,negative,2,l,j,,,,,,,,,5,13,103,14,,,,,,,,,,,,,,,,,,,,,,,,main,2,2,2,negative,positive,l,l,1,0.8834033000021009,317.5599164000014,318.56825680000475,318.5486525000015,None,317.5599164000014,None,317.5599164000014,None,317.5599164000014,None,319.4174342300001,None,319.4174342300001,None,319.4174342300001,None,,,,,,,,,,,226,25,Male,2022-05-26_11h01.39.787,Main,2022.1.1,60.01619236798179,
neutral,positive,2,k,k,,,,,,,,,5,14,104,13,,,,,,,,,,,,,,,,,,,,,,,,main,1,1,2,positive,neutral,k,k,1,1.0362302000139607,319.4419406000088,320.45855100000335,320.43795190000674,None,319.4419406000088,None,319.4419406000088,None,319.4419406000088,None,321.4614924300011,None,321.4614924300011,None,321.4614924300011,None,,,,,,,,,,,226,25,Male,2022-05-26_11h01.39.787,Main,2022.1.1,60.01619236798179,
negative,negative,1,j,l,,,,,,,,,5,15,105,0,,,,,,,,,,,,,,,,,,,,,,,,main,1,1,1,negative,negative,j,j,1,0.8603937000007136,321.4831399000104,322.4931737000006,322.4708956999966,None,321.4831399000104,None,321.4831399000104,None,321.4831399000104,None,323.32681573000883,None,323.32681573000883,None,323.32681573000883,None,,,,,,,,,,,226,25,Male,2022-05-26_11h01.39.787,Main,2022.1.1,60.01619236798179,
positive,negative,1,l,j,,,,,,,,,5,16,106,5,,,,,,,,,,,,,,,,,,,,,,,,main,1,1,1,negative,positive,l,l,1,0.9231939000019338,323.34728830000677,324.36614670000563,324.3249641000002,None,323.34728830000677,None,323.34728830000677,None,323.34728830000677,None,325.25075322999766,None,325.25075322999766,None,325.25075322999766,None,,,,,,,,,,,226,25,Male,2022-05-26_11h01.39.787,Main,2022.1.1,60.01619236798179,
negative,positive,1,j,l,,,,,,,,,5,17,107,6,,,,,,,,,,,,,,,,,,,,,,,,main,1,1,1,positive,negative,j,j,1,0.8965450999967288,325.27309180000157,326.2926087000087,326.2526100999967,None,325.27309180000157,None,325.27309180000157,None,325.27309180000157,None,327.1535774300035,None,327.1535774300035,None,327.1535774300035,None,,,,,,,,,,,226,25,Male,2022-05-26_11h01.39.787,Main,2022.1.1,60.01619236798179,
neutral,neutral,2,k,k,,,,,,,,,6,0,108,10,,,,,,,,,,,,,,,,,,,,,,,,main,2,2,2,neutral,neutral,k,k,1,0.8170841999963159,327.17655560000276,328.19660520000616,328.15411650000897,None,327.17655560000276,None,327.17655560000276,None,327.17655560000276,None,328.9729613300049,None,328.9729613300049,None,328.9729613300049,None,,,,,,,,,,,226,25,Male,2022-05-26_11h01.39.787,Main,2022.1.1,60.01619236798179,
neutral,positive,2,k,k,,,,,,,,,6,1,109,13,,,,,,,,,,,,,,,,,,,,,,,,main,1,1,2,positive,neutral,k,k,1,0.7462974999943981,328.9927033999993,330.01268850000633,329.9704522999964,None,328.9927033999993,None,328.9927033999993,None,328.9927033999993,None,330.7214987300002,None,330.7214987300002,None,330.7214987300002,None,,,,,,,,,,,226,25,Male,2022-05-26_11h01.39.787,Main,2022.1.1,60.01619236798179,
neutral,negative,2,k,k,,,,,,,,,6,2,110,16,,,,,,,,,,,,,,,,,,,,,,,,main,2,2,2,negative,neutral,k,k,1,0.6690449000016088,330.7428956000076,331.7622592999978,331.7193716000038,None,330.7428956000076,None,330.7428956000076,None,330.7428956000076,None,332.39363653000765,None,332.39363653000765,None,332.39363653000765,None,,,,,,,,,,,226,25,Male,2022-05-26_11h01.39.787,Main,2022.1.1,60.01619236798179,
positive,neutral,2,l,j,,,,,,,,,6,3,111,17,,,,,,,,,,,,,,,,,,,,,,,,main,1,1,2,neutral,positive,l,l,1,0.9723618999996688,332.41423999999824,333.42534620000515,333.40401910000946,None,332.41423999999824,None,332.41423999999824,None,332.41423999999824,None,334.36819983000606,None,334.36819983000606,None,334.36819983000606,None,,,,,,,,,,,226,25,Male,2022-05-26_11h01.39.787,Main,2022.1.1,60.01619236798179,
negative,positive,2,j,l,,,,,,,,,6,4,112,15,,,,,,,,,,,,,,,,,,,,,,,,main,2,2,2,positive,negative,j,j,1,0.805515900006867,334.39341720000084,335.40772149999975,335.3661859999993,None,334.39341720000084,None,334.39341720000084,None,334.39341720000084,None,336.17791673000175,None,336.17791673000175,None,336.17791673000175,None,,,,,,,,,,,226,25,Male,2022-05-26_11h01.39.787,Main,2022.1.1,60.01619236798179,
positive,positive,1,l,j,,,,,,,,,6,5,113,2,,,,,,,,,,,,,,,,,,,,,,,,main,1,1,1,positive,positive,l,l,1,0.9323512999981176,336.20041410000704,337.21712359999947,337.17828870000085,None,336.20041410000704,None,336.20041410000704,None,336.20041410000704,None,338.11257023000945,None,338.11257023000945,None,338.11257023000945,None,,,,,,,,,,,226,25,Male,2022-05-26_11h01.39.787,Main,2022.1.1,60.01619236798179,
positive,neutral,1,l,j,,,,,,,,,6,6,114,8,,,,,,,,,,,,,,,,,,,,,,,,main,1,1,1,neutral,positive,l,l,1,0.6986678999965079,338.1353658000007,339.1458338000084,339.12361000000965,None,338.1353658000007,None,338.1353658000007,None,338.1353658000007,None,339.8131573300096,None,339.8131573300096,None,339.8131573300096,None,,,,,,,,,,,226,25,Male,2022-05-26_11h01.39.787,Main,2022.1.1,60.01619236798179,
negative,negative,2,j,l,,,,,,,,,6,7,115,9,,,,,,,,,,,,,,,,,,,,,,,,main,1,1,2,negative,negative,j,j,1,1.134752700003446,339.83836190000875,340.8517518000008,340.81579580000835,None,339.83836190000875,None,339.83836190000875,None,339.83836190000875,None,341.9507688299971,None,341.9507688299971,None,341.9507688299971,None,,,,,,,,,,,226,25,Male,2022-05-26_11h01.39.787,Main,2022.1.1,60.01619236798179,
positive,negative,1,l,j,,,,,,,,,6,8,116,5,,,,,,,,,,,,,,,,,,,,,,,,main,1,1,1,negative,positive,l,l,1,0.9491394999931799,341.97206200000073,342.9853568000108,342.94650950000505,None,341.97206200000073,None,341.97206200000073,None,341.97206200000073,None,343.90475453000255,None,343.90475453000255,None,343.90475453000255,None,,,,,,,,,,,226,25,Male,2022-05-26_11h01.39.787,Main,2022.1.1,60.01619236798179,
negative,negative,1,j,l,,,,,,,,,6,9,117,0,,,,,,,,,,,,,,,,,,,,,,,,main,1,1,1,negative,negative,j,j,1,1.1395359999878565,343.9271623000095,344.9471402000054,344.9059536999994,None,343.9271623000095,None,343.9271623000095,None,343.9271623000095,None,346.04392593000813,None,346.04392593000813,None,346.04392593000813,None,,,,,,,,,,,226,25,Male,2022-05-26_11h01.39.787,Main,2022.1.1,60.01619236798179,
negative,neutral,2,j,l,,,,,,,,,6,10,118,12,,,,,,,,,,,,,,,,,,,,,,,,main,1,1,2,neutral,negative,j,j,1,0.7735866000002716,346.06744700000854,347.0888367000007,347.04779120000603,None,346.06744700000854,None,346.06744700000854,None,346.06744700000854,None,347.82420123000776,None,347.82420123000776,None,347.82420123000776,None,,,,,,,,,,,226,25,Male,2022-05-26_11h01.39.787,Main,2022.1.1,60.01619236798179,
neutral,positive,1,k,k,,,,,,,,,6,11,119,4,,,,,,,,,,,,,,,,,,,,,,,,main,1,1,1,positive,neutral,k,k,1,0.7125209999940125,347.84756619999825,348.86559970000235,348.8266231000016,None,347.84756619999825,None,347.84756619999825,None,347.84756619999825,None,349.5400855300002,None,349.5400855300002,None,349.5400855300002,None,,,,,,,,,,,226,25,Male,2022-05-26_11h01.39.787,Main,2022.1.1,60.01619236798179,
neutral,negative,1,k,k,,,,,,,,,6,12,120,7,,,,,,,,,,,,,,,,,,,,,,,,main,1,1,1,negative,neutral,k,k,1,0.5778967999940505,349.56123469999875,350.5760471000103,350.55493359999673,None,349.56123469999875,None,349.56123469999875,None,349.56123469999875,None,351.12251343000827,None,351.12251343000827,None,351.12251343000827,None,,,,,,,,,,,226,25,Male,2022-05-26_11h01.39.787,Main,2022.1.1,60.01619236798179,
positive,positive,2,l,j,,,,,,,,,6,13,121,11,,,,,,,,,,,,,,,,,,,,,,,,main,2,2,2,positive,positive,l,l,1,0.8386260999977821,351.14641760000086,352.1496679999982,352.1297212000063,None,351.14641760000086,None,351.14641760000086,None,351.14641760000086,None,352.9639871300067,None,352.9639871300067,None,352.9639871300067,None,,,,,,,,,,,226,25,Male,2022-05-26_11h01.39.787,Main,2022.1.1,60.01619236798179,
positive,negative,2,l,j,,,,,,,,,6,14,122,14,,,,,,,,,,,,,,,,,,,,,,,,main,2,2,2,negative,positive,l,l,1,0.7323419000022113,352.9851723000029,353.9934934000048,353.9727658000047,None,352.9851723000029,None,352.9851723000029,None,352.9851723000029,None,354.6996057300028,None,354.6996057300028,None,354.6996057300028,None,,,,,,,,,,,226,25,Male,2022-05-26_11h01.39.787,Main,2022.1.1,60.01619236798179,
negative,positive,1,j,l,,,,,,,,,6,15,123,6,,,,,,,,,,,,,,,,,,,,,,,,main,2,2,1,positive,negative,j,j,1,0.8746936999959871,354.7220151000074,355.739662100008,355.6994580000028,None,354.7220151000074,None,354.7220151000074,None,354.7220151000074,None,356.57613133000706,None,356.57613133000706,None,356.57613133000706,None,,,,,,,,,,,226,25,Male,2022-05-26_11h01.39.787,Main,2022.1.1,60.01619236798179,
negative,neutral,1,j,l,,,,,,,,,6,16,124,3,,,,,,,,,,,,,,,,,,,,,,,,main,1,1,1,neutral,negative,j,j,1,0.6929690999968443,356.5972724000021,357.60565179999685,357.5845214000001,None,356.5972724000021,None,356.5972724000021,None,356.5972724000021,None,358.27268163000264,None,358.27268163000264,None,358.27268163000264,None,,,,,,,,,,,226,25,Male,2022-05-26_11h01.39.787,Main,2022.1.1,60.01619236798179,
neutral,neutral,1,k,k,,,,,,,,,6,17,125,1,,,,,,,,,,,,,,,,,,,,,,,,main,2,2,1,neutral,neutral,k,k,1,0.7933085999975447,358.2972626999981,359.30932010000106,359.2888554000092,None,358.2972626999981,None,358.2972626999981,None,358.2972626999981,None,360.07340563000326,None,360.07340563000326,None,360.07340563000326,None,,,,,,,,,,,226,25,Male,2022-05-26_11h01.39.787,Main,2022.1.1,60.01619236798179,
neutral,positive,2,k,k,,,,,,,,,7,0,126,13,,,,,,,,,,,,,,,,,,,,,,,,main,1,1,2,positive,neutral,k,k,1,0.7259733999962918,360.0933701000031,361.1111807999987,361.0710448000027,None,360.0933701000031,None,360.0933701000031,None,360.0933701000031,None,361.80390473000153,None,361.80390473000153,None,361.80390473000153,None,,,,,,,,,,,226,25,Male,2022-05-26_11h01.39.787,Main,2022.1.1,60.01619236798179,
negative,positive,1,j,l,,,,,,,,,7,1,127,6,,,,,,,,,,,,,,,,,,,,,,,,main,1,1,1,positive,negative,j,j,1,1.106566099988413,361.8263627999986,362.83421810000436,362.8149238000042,None,361.8263627999986,None,361.8263627999986,None,361.8263627999986,None,363.91185263000517,None,363.91185263000517,None,363.91185263000517,None,,,,,,,,,,,226,25,Male,2022-05-26_11h01.39.787,Main,2022.1.1,60.01619236798179,
positive,positive,1,l,j,,,,,,,,,7,2,128,2,,,,,,,,,,,,,,,,,,,,,,,,main,1,1,1,positive,positive,l,j,0,1.3053968000021996,363.9387301000097,364.9533217999997,364.91246020000835,None,363.9387301000097,None,363.9387301000097,None,363.9387301000097,None,366.2292060000036,None,366.2292060000036,None,366.2292060000036,None,,,,,,,,,,,226,25,Male,2022-05-26_11h01.39.787,Main,2022.1.1,60.01619236798179,
negative,neutral,2,j,l,,,,,,,,,7,3,129,12,,,,,,,,,,,,,,,,,,,,,,,,main,1,1,2,neutral,negative,j,j,1,1.1991984999913257,367.2485897000006,368.25453210000705,368.23349480000616,None,367.2485897000006,None,367.2485897000006,None,367.2485897000006,None,369.42660892999703,None,369.42660892999703,None,369.42660892999703,None,,,,,,,,,,,226,25,Male,2022-05-26_11h01.39.787,Main,2022.1.1,60.01619236798179,
neutral,negative,1,k,k,,,,,,,,,7,4,130,7,,,,,,,,,,,,,,,,,,,,,,,,main,1,1,1,negative,neutral,k,k,1,0.8201845000003232,369.4479407000035,370.45494360000885,370.4316625000065,None,369.4479407000035,None,369.4479407000035,None,369.4479407000035,None,371.252317330004,None,371.252317330004,None,371.252317330004,None,,,,,,,,,,,226,25,Male,2022-05-26_11h01.39.787,Main,2022.1.1,60.01619236798179,
neutral,positive,1,k,k,,,,,,,,,7,5,131,4,,,,,,,,,,,,,,,,,,,,,,,,main,1,1,1,positive,neutral,k,k,1,0.6477541000058409,371.27352000000246,372.29333570000017,372.25299110000196,None,371.27352000000246,None,371.27352000000246,None,371.27352000000246,None,372.90207852999885,None,372.90207852999885,None,372.90207852999885,None,,,,,,,,,,,226,25,Male,2022-05-26_11h01.39.787,Main,2022.1.1,60.01619236798179,
positive,neutral,1,l,j,,,,,,,,,7,6,132,8,,,,,,,,,,,,,,,,,,,,,,,,main,2,2,1,neutral,positive,l,l,1,1.3111879999923985,372.9217320000025,373.93935830000555,373.8971911999979,None,372.9217320000025,None,372.9217320000025,None,372.9217320000025,None,375.2157350300011,None,375.2157350300011,None,375.2157350300011,None,,,,,,,,,,,226,25,Male,2022-05-26_11h01.39.787,Main,2022.1.1,60.01619236798179,
negative,negative,2,j,l,,,,,,,,,7,7,133,9,,,,,,,,,,,,,,,,,,,,,,,,main,2,2,2,negative,negative,j,j,1,1.0189415000058943,375.2364593000093,376.2544668000046,376.212678099997,None,375.2364593000093,None,375.2364593000093,None,375.2364593000093,None,377.2373592300035,None,377.2373592300035,None,377.2373592300035,None,,,,,,,,,,,226,25,Male,2022-05-26_11h01.39.787,Main,2022.1.1,60.01619236798179,
positive,positive,2,l,j,,,,,,,,,7,8,134,11,,,,,,,,,,,,,,,,,,,,,,,,main,2,2,2,positive,positive,l,l,1,1.0275499999988824,377.2586806000036,378.26344360000803,378.24353240001074,None,377.2586806000036,None,377.2586806000036,None,377.2586806000036,None,379.2685368300052,None,379.2685368300052,None,379.2685368300052,None,,,,,,,,,,,226,25,Male,2022-05-26_11h01.39.787,Main,2022.1.1,60.01619236798179,
negative,negative,1,j,l,,,,,,,,,7,9,135,0,,,,,,,,,,,,,,,,,,,,,,,,main,1,1,1,negative,negative,j,j,1,1.0562819999904605,379.2924636000098,380.3088099000015,380.2684867000062,None,379.2924636000098,None,379.2924636000098,None,379.2924636000098,None,381.3271028299976,None,381.3271028299976,None,381.3271028299976,None,,,,,,,,,,,226,25,Male,2022-05-26_11h01.39.787,Main,2022.1.1,60.01619236798179,
neutral,neutral,1,k,k,,,,,,,,,7,10,136,1,,,,,,,,,,,,,,,,,,,,,,,,main,1,1,1,neutral,neutral,k,k,1,0.8182211999956053,381.35217759999796,382.35885509999935,382.3390502999973,None,381.35217759999796,None,381.35217759999796,None,381.35217759999796,None,383.1505109300095,None,383.1505109300095,None,383.1505109300095,None,,,,,,,,,,,226,25,Male,2022-05-26_11h01.39.787,Main,2022.1.1,60.01619236798179,
positive,negative,2,l,j,,,,,,,,,7,11,137,14,,,,,,,,,,,,,,,,,,,,,,,,main,1,1,2,negative,positive,l,l,1,0.9639338000124553,383.17338429999654,384.18232259999786,384.1622611000057,None,383.17338429999654,None,383.17338429999654,None,383.17338429999654,None,385.11719172999875,None,385.11719172999875,None,385.11719172999875,None,,,,,,,,,,,226,25,Male,2022-05-26_11h01.39.787,Main,2022.1.1,60.01619236798179,
negative,positive,2,j,l,,,,,,,,,7,12,138,15,,,,,,,,,,,,,,,,,,,,,,,,main,2,2,2,positive,negative,j,j,1,0.7988049000123283,385.1400991999981,386.14488740000525,386.12516270000197,None,385.1400991999981,None,385.1400991999981,None,385.1400991999981,None,386.9184390299968,None,386.9184390299968,None,386.9184390299968,None,,,,,,,,,,,226,25,Male,2022-05-26_11h01.39.787,Main,2022.1.1,60.01619236798179,
positive,negative,1,l,j,,,,,,,,,7,13,139,5,,,,,,,,,,,,,,,,,,,,,,,,main,1,1,1,negative,positive,l,l,1,0.8783657999883872,386.93982400000095,387.944965600007,387.9239205000049,None,386.93982400000095,None,386.93982400000095,None,386.93982400000095,None,388.8013655300063,None,388.8013655300063,None,388.8013655300063,None,,,,,,,,,,,226,25,Male,2022-05-26_11h01.39.787,Main,2022.1.1,60.01619236798179,
neutral,neutral,2,k,k,,,,,,,,,7,14,140,10,,,,,,,,,,,,,,,,,,,,,,,,main,2,2,2,neutral,neutral,k,k,1,0.7381543999945279,388.82309040000837,389.8443935999967,389.8050804000086,None,388.82309040000837,None,388.82309040000837,None,388.82309040000837,None,390.53914553000214,None,390.53914553000214,None,390.53914553000214,None,,,,,,,,,,,226,25,Male,2022-05-26_11h01.39.787,Main,2022.1.1,60.01619236798179,
neutral,negative,2,k,k,,,,,,,,,7,15,141,16,,,,,,,,,,,,,,,,,,,,,,,,main,1,1,2,negative,neutral,k,k,1,0.752575299993623,390.55988909999724,391.5619563000073,391.54240720000234,None,390.55988909999724,None,390.55988909999724,None,390.55988909999724,None,392.29662603000617,None,392.29662603000617,None,392.29662603000617,None,,,,,,,,,,,226,25,Male,2022-05-26_11h01.39.787,Main,2022.1.1,60.01619236798179,
negative,neutral,1,j,l,,,,,,,,,7,16,142,3,,,,,,,,,,,,,,,,,,,,,,,,main,1,1,1,neutral,negative,j,j,1,1.7192431000003126,392.31693280000763,393.3271511000057,393.3072975999967,None,392.31693280000763,None,392.31693280000763,None,392.31693280000763,None,395.02678359999845,None,395.02678359999845,None,395.02678359999845,None,,,,,,,,,,,226,25,Male,2022-05-26_11h01.39.787,Main,2022.1.1,60.01619236798179,
positive,neutral,2,l,j,,,,,,,,,7,17,143,17,,,,,,,,,,,,,,,,,,,,,,,,main,2,2,2,neutral,positive,l,l,1,0.7977972000080626,396.04629600000044,397.06668000000354,397.0258285000018,None,396.04629600000044,None,396.04629600000044,None,396.04629600000044,None,397.82126052999666,None,397.82126052999666,None,397.82126052999666,None,,,,,,,,,,,226,25,Male,2022-05-26_11h01.39.787,Main,2022.1.1,60.01619236798179,
negative,negative,1,j,l,,,,,,,,,8,0,144,0,,,,,,,,,,,,,,,,,,,,,,,,main,1,1,1,negative,negative,j,j,1,0.7968948000052478,397.8443084000028,398.86159100000805,398.82290159999684,None,397.8443084000028,None,397.8443084000028,None,397.8443084000028,None,399.6215037300033,None,399.6215037300033,None,399.6215037300033,None,,,,,,,,,,,226,25,Male,2022-05-26_11h01.39.787,Main,2022.1.1,60.01619236798179,
positive,positive,2,l,j,,,,,,,,,8,1,145,11,,,,,,,,,,,,,,,,,,,,,,,,main,1,1,2,positive,positive,l,l,1,0.7894836000050418,399.6439476000087,400.6618620000081,400.6223330000066,None,399.6439476000087,None,399.6439476000087,None,399.6439476000087,None,401.41531213000854,None,401.41531213000854,None,401.41531213000854,None,,,,,,,,,,,226,25,Male,2022-05-26_11h01.39.787,Main,2022.1.1,60.01619236798179,
negative,neutral,2,j,l,,,,,,,,,8,2,146,12,,,,,,,,,,,,,,,,,,,,,,,,main,1,1,2,neutral,negative,j,j,1,0.8582784000027459,401.43769910000265,402.4416186000017,402.42177130001073,None,401.43769910000265,None,401.43769910000265,None,401.43769910000265,None,403.27392342999957,None,403.27392342999957,None,403.27392342999957,None,,,,,,,,,,,226,25,Male,2022-05-26_11h01.39.787,Main,2022.1.1,60.01619236798179,
positive,negative,2,l,j,,,,,,,,,8,3,147,14,,,,,,,,,,,,,,,,,,,,,,,,main,2,2,2,negative,positive,l,l,1,0.8677421000029426,403.3018715000071,404.31963900000846,404.2766002999997,None,403.3018715000071,None,403.3018715000071,None,403.3018715000071,None,405.1469330300068,None,405.1469330300068,None,405.1469330300068,None,,,,,,,,,,,226,25,Male,2022-05-26_11h01.39.787,Main,2022.1.1,60.01619236798179,
neutral,positive,2,k,k,,,,,,,,,8,4,148,13,,,,,,,,,,,,,,,,,,,,,,,,main,1,1,2,positive,neutral,k,k,1,0.7760152999981074,405.16776680000476,406.17644380001,406.15467850001005,None,405.16776680000476,None,405.16776680000476,None,405.16776680000476,None,406.92278753000284,None,406.92278753000284,None,406.92278753000284,None,,,,,,,,,,,226,25,Male,2022-05-26_11h01.39.787,Main,2022.1.1,60.01619236798179,
neutral,negative,2,k,k,,,,,,,,,8,5,149,16,,,,,,,,,,,,,,,,,,,,,,,,main,2,2,2,negative,neutral,k,k,1,0.6894906999950763,406.94825950000086,407.9691013999982,407.9271408000059,None,406.94825950000086,None,406.94825950000086,None,406.94825950000086,None,408.61715542999883,None,408.61715542999883,None,408.61715542999883,None,,,,,,,,,,,226,25,Male,2022-05-26_11h01.39.787,Main,2022.1.1,60.01619236798179,
neutral,negative,1,k,k,,,,,,,,,8,6,150,7,,,,,,,,,,,,,,,,,,,,,,,,main,2,2,1,negative,neutral,k,k,1,0.7253656999964733,408.6383601999987,409.655147700003,409.61798300000373,None,408.6383601999987,None,408.6383601999987,None,408.6383601999987,None,410.34642083000364,None,410.34642083000364,None,410.34642083000364,None,,,,,,,,,,,226,25,Male,2022-05-26_11h01.39.787,Main,2022.1.1,60.01619236798179,
positive,negative,1,l,j,,,,,,,,,8,7,151,5,,,,,,,,,,,,,,,,,,,,,,,,main,2,2,1,negative,positive,l,l,1,0.9375053999974625,410.3686561000068,411.3852224000002,411.3643296000082,None,410.3686561000068,None,410.3686561000068,None,410.3686561000068,None,412.2848558300073,None,412.2848558300073,None,412.2848558300073,None,,,,,,,,,,,226,25,Male,2022-05-26_11h01.39.787,Main,2022.1.1,60.01619236798179,
positive,neutral,1,l,j,,,,,,,,,8,8,152,8,,,,,,,,,,,,,,,,,,,,,,,,main,2,2,1,neutral,positive,l,l,1,0.7000626000080956,412.3080486000108,413.3200802000065,413.29991329999757,None,412.3080486000108,None,412.3080486000108,None,412.3080486000108,None,413.98837453000743,None,413.98837453000743,None,413.98837453000743,None,,,,,,,,,,,226,25,Male,2022-05-26_11h01.39.787,Main,2022.1.1,60.01619236798179,
neutral,neutral,2,k,k,,,,,,,,,8,9,153,10,,,,,,,,,,,,,,,,,,,,,,,,main,1,1,2,neutral,neutral,k,k,1,0.770777800003998,414.01337169999897,415.0362587999989,414.9923839999974,None,414.01337169999897,None,414.01337169999897,None,414.01337169999897,None,415.76355623000273,None,415.76355623000273,None,415.76355623000273,None,,,,,,,,,,,226,25,Male,2022-05-26_11h01.39.787,Main,2022.1.1,60.01619236798179,
negative,neutral,1,j,l,,,,,,,,,8,10,154,3,,,,,,,,,,,,,,,,,,,,,,,,main,2,2,1,neutral,negative,j,j,1,1.0186372000025585,415.7851245000056,416.80278220000037,416.7605486000102,None,415.7851245000056,None,415.7851245000056,None,415.7851245000056,None,417.78221413000284,None,417.78221413000284,None,417.78221413000284,None,,,,,,,,,,,226,25,Male,2022-05-26_11h01.39.787,Main,2022.1.1,60.01619236798179,
positive,neutral,2,l,j,,,,,,,,,8,11,155,17,,,,,,,,,,,,,,,,,,,,,,,,main,2,2,2,neutral,positive,l,l,1,0.8259267999965232,417.8065559000097,418.82450780000363,418.78475760000583,None,417.8065559000097,None,417.8065559000097,None,417.8065559000097,None,419.61427113000974,None,419.61427113000974,None,419.61427113000974,None,,,,,,,,,,,226,25,Male,2022-05-26_11h01.39.787,Main,2022.1.1,60.01619236798179,
negative,negative,2,j,l,,,,,,,,,8,12,156,9,,,,,,,,,,,,,,,,,,,,,,,,main,1,1,2,negative,negative,j,j,1,0.894159799994668,419.6354760999966,420.6419901000045,420.62273810000625,None,419.6354760999966,None,419.6354760999966,None,419.6354760999966,None,421.5134975300069,None,421.5134975300069,None,421.5134975300069,None,,,,,,,,,,,226,25,Male,2022-05-26_11h01.39.787,Main,2022.1.1,60.01619236798179,
neutral,positive,1,k,k,,,,,,,,,8,13,157,4,,,,,,,,,,,,,,,,,,,,,,,,main,1,1,1,positive,neutral,k,k,1,0.7274771999946097,421.53450580000936,422.55103640000743,422.5083922000049,None,421.53450580000936,None,421.53450580000936,None,421.53450580000936,None,423.2429140299981,None,423.2429140299981,None,423.2429140299981,None,,,,,,,,,,,226,25,Male,2022-05-26_11h01.39.787,Main,2022.1.1,60.01619236798179,
negative,positive,1,j,l,,,,,,,,,8,14,158,6,,,,,,,,,,,,,,,,,,,,,,,,main,2,2,1,positive,negative,j,j,1,1.1509681000025012,423.263226199997,424.27407030000177,424.2528122000076,None,423.263226199997,None,423.263226199997,None,423.263226199997,None,425.39659893000936,None,425.39659893000936,None,425.39659893000936,None,,,,,,,,,,,226,25,Male,2022-05-26_11h01.39.787,Main,2022.1.1,60.01619236798179,
negative,positive,2,j,l,,,,,,,,,8,15,159,15,,,,,,,,,,,,,,,,,,,,,,,,main,2,2,2,positive,negative,j,j,1,0.9704687999910675,425.4167338999978,426.42551919999823,426.4057780000003,None,425.4167338999978,None,425.4167338999978,None,425.4167338999978,None,427.36809443000385,None,427.36809443000385,None,427.36809443000385,None,,,,,,,,,,,226,25,Male,2022-05-26_11h01.39.787,Main,2022.1.1,60.01619236798179,
neutral,neutral,1,k,k,,,,,,,,,8,16,160,1,,,,,,,,,,,,,,,,,,,,,,,,main,1,1,1,neutral,neutral,k,k,1,0.7827179000014439,427.39024690000224,428.4030186000018,428.383507999999,None,427.39024690000224,None,427.39024690000224,None,427.39024690000224,None,429.1534890299998,None,429.1534890299998,None,429.1534890299998,None,,,,,,,,,,,226,25,Male,2022-05-26_11h01.39.787,Main,2022.1.1,60.01619236798179,
positive,positive,1,l,j,,,,,,,,,8,17,161,2,,,,,,,,,,,,,,,,,,,,,,,,main,1,1,1,positive,positive,l,l,1,0.9345150000008289,429.1783638000052,430.19027500000084,430.1540238000016,None,429.1783638000052,None,429.1783638000052,None,429.1783638000052,None,431.09275983000845,None,431.09275983000845,None,431.09275983000845,None,,,,,,,,,,,226,25,Male,2022-05-26_11h01.39.787,Main,2022.1.1,60.01619236798179,
positive,positive,2,l,j,,,,,,,,,9,0,162,11,,,,,,,,,,,,,,,,,,,,,,,,main,1,1,2,positive,positive,l,l,1,1.490814999997383,431.1158121000044,432.137392500008,432.0964079999976,None,431.1158121000044,None,431.1158121000044,None,431.1158121000044,None,433.58340083000513,None,433.58340083000513,None,433.58340083000513,None,,,,,,,,,,,226,25,Male,2022-05-26_11h01.39.787,Main,2022.1.1,60.01619236798179,
positive,neutral,1,l,j,,,,,,,,,9,1,163,8,,,,,,,,,,,,,,,,,,,,,,,,main,1,1,1,neutral,positive,l,l,1,1.0578797000052873,433.6066930000088,434.61534720000054,434.5944537000032,None,433.6066930000088,None,433.6066930000088,None,433.6066930000088,None,435.6466466300088,None,435.6466466300088,None,435.6466466300088,None,,,,,,,,,,,226,25,Male,2022-05-26_11h01.39.787,Main,2022.1.1,60.01619236798179,
positive,negative,1,l,j,,,,,,,,,9,2,164,5,,,,,,,,,,,,,,,,,,,,,,,,main,2,2,1,negative,positive,l,l,1,0.7764843000040855,435.6694487000059,436.6908250999986,436.65158079999674,None,435.6694487000059,None,435.6694487000059,None,435.6694487000059,None,437.42827172999824,None,437.42827172999824,None,437.42827172999824,None,,,,,,,,,,,226,25,Male,2022-05-26_11h01.39.787,Main,2022.1.1,60.01619236798179,
negative,positive,2,j,l,,,,,,,,,9,3,165,15,,,,,,,,,,,,,,,,,,,,,,,,main,2,2,2,positive,negative,j,j,1,0.7312854999909177,437.44994930000394,438.46086010000727,438.43952500000887,None,437.44994930000394,None,437.44994930000394,None,437.44994930000394,None,439.16176713000897,None,439.16176713000897,None,439.16176713000897,None,,,,,,,,,,,226,25,Male,2022-05-26_11h01.39.787,Main,2022.1.1,60.01619236798179,
neutral,neutral,2,k,k,,,,,,,,,9,4,166,10,,,,,,,,,,,,,,,,,,,,,,,,main,2,2,2,neutral,neutral,k,k,1,0.6886633999965852,439.1837465999997,440.20268020000367,440.1627739000105,None,439.1837465999997,None,439.1837465999997,None,439.1837465999997,None,440.8517644300053,None,440.8517644300053,None,440.8517644300053,None,,,,,,,,,,,226,25,Male,2022-05-26_11h01.39.787,Main,2022.1.1,60.01619236798179,
neutral,positive,1,k,k,,,,,,,,,9,5,167,4,,,,,,,,,,,,,,,,,,,,,,,,main,2,2,1,positive,neutral,k,k,1,0.6502658999961568,440.8732888000086,441.89518490000046,441.85481610000716,None,440.8732888000086,None,440.8732888000086,None,440.8732888000086,None,442.5082639299988,None,442.5082639299988,None,442.5082639299988,None,,,,,,,,,,,226,25,Male,2022-05-26_11h01.39.787,Main,2022.1.1,60.01619236798179,
negative,neutral,2,j,l,,,,,,,,,9,6,168,12,,,,,,,,,,,,,,,,,,,,,,,,main,2,2,2,neutral,negative,j,j,1,1.1527739000011934,442.52943660000165,443.5391551000066,443.5196869000065,None,442.52943660000165,None,442.52943660000165,None,442.52943660000165,None,444.66267883000984,None,444.66267883000984,None,444.66267883000984,None,,,,,,,,,,,226,25,Male,2022-05-26_11h01.39.787,Main,2022.1.1,60.01619236798179,
neutral,neutral,1,k,k,,,,,,,,,9,7,169,1,,,,,,,,,,,,,,,,,,,,,,,,main,2,2,1,neutral,neutral,k,k,1,0.6528353999892715,444.68440610000107,445.68701920000603,445.6671778000018,None,444.68440610000107,None,444.68440610000107,None,444.68440610000107,None,446.31846662999743,None,446.31846662999743,None,446.31846662999743,None,,,,,,,,,,,226,25,Male,2022-05-26_11h01.39.787,Main,2022.1.1,60.01619236798179,
negative,negative,2,j,l,,,,,,,,,9,8,170,9,,,,,,,,,,,,,,,,,,,,,,,,main,2,2,2,negative,negative,j,j,1,0.8254295000078855,446.3393771999981,447.35616650000156,447.31715950000216,None,446.3393771999981,None,446.3393771999981,None,446.3393771999981,None,448.14699092999655,None,448.14699092999655,None,448.14699092999655,None,,,,,,,,,,,226,25,Male,2022-05-26_11h01.39.787,Main,2022.1.1,60.01619236798179,
positive,positive,1,l,j,,,,,,,,,9,9,171,2,,,,,,,,,,,,,,,,,,,,,,,,main,2,2,1,positive,positive,l,l,1,0.8245591000013519,448.1703658000042,449.18039249999856,449.15944640000816,None,448.1703658000042,None,448.1703658000042,None,448.1703658000042,None,449.9756240300092,None,449.9756240300092,None,449.9756240300092,None,,,,,,,,,,,226,25,Male,2022-05-26_11h01.39.787,Main,2022.1.1,60.01619236798179,
positive,negative,2,l,j,,,,,,,,,9,10,172,14,,,,,,,,,,,,,,,,,,,,,,,,main,2,2,2,negative,positive,l,l,1,0.7864837000088301,450.00060700000904,451.01704659999814,450.9973437000008,None,450.00060700000904,None,450.00060700000904,None,450.00060700000904,None,451.76606573000464,None,451.76606573000464,None,451.76606573000464,None,,,,,,,,,,,226,25,Male,2022-05-26_11h01.39.787,Main,2022.1.1,60.01619236798179,
negative,positive,1,j,l,,,,,,,,,9,11,173,6,,,,,,,,,,,,,,,,,,,,,,,,main,2,2,1,positive,negative,j,j,1,1.3203154000075301,451.79334620000736,452.7982185000001,452.778054800001,None,451.79334620000736,None,451.79334620000736,None,451.79334620000736,None,454.09311143000815,None,454.09311143000815,None,454.09311143000815,None,,,,,,,,,,,226,25,Male,2022-05-26_11h01.39.787,Main,2022.1.1,60.01619236798179,
neutral,positive,2,k,k,,,,,,,,,9,12,174,13,,,,,,,,,,,,,,,,,,,,,,,,main,1,1,2,positive,neutral,k,k,1,0.6769074000039836,454.11610860000656,455.12059639999643,455.1008495999995,None,454.11610860000656,None,454.11610860000656,None,454.11610860000656,None,455.7724106300055,None,455.7724106300055,None,455.7724106300055,None,,,,,,,,,,,226,25,Male,2022-05-26_11h01.39.787,Main,2022.1.1,60.01619236798179,
positive,neutral,2,l,j,,,,,,,,,9,13,175,17,,,,,,,,,,,,,,,,,,,,,,,,main,2,2,2,neutral,positive,l,l,1,0.7705167999956757,455.7958095000067,456.8019220999995,456.78190690001065,None,455.7958095000067,None,455.7958095000067,None,455.7958095000067,None,457.54528542999907,None,457.54528542999907,None,457.54528542999907,None,,,,,,,,,,,226,25,Male,2022-05-26_11h01.39.787,Main,2022.1.1,60.01619236798179,
neutral,negative,2,k,k,,,,,,,,,9,14,176,16,,,,,,,,,,,,,,,,,,,,,,,,main,2,2,2,negative,neutral,k,k,1,0.6913951000024099,457.5692263000092,458.57648170000175,458.553419200005,None,457.5692263000092,None,457.5692263000092,None,457.5692263000092,None,459.24322453000497,None,459.24322453000497,None,459.24322453000497,None,,,,,,,,,,,226,25,Male,2022-05-26_11h01.39.787,Main,2022.1.1,60.01619236798179,
negative,neutral,1,j,l,,,,,,,,,9,15,177,3,,,,,,,,,,,,,,,,,,,,,,,,main,1,1,1,neutral,negative,j,j,1,0.8877790999977151,459.26423149999755,460.2805120999983,460.23924950000946,None,459.26423149999755,None,459.26423149999755,None,459.26423149999755,None,461.1334237300078,None,461.1334237300078,None,461.1334237300078,None,,,,,,,,,,,226,25,Male,2022-05-26_11h01.39.787,Main,2022.1.1,60.01619236798179,
negative,negative,1,j,l,,,,,,,,,9,16,178,0,,,,,,,,,,,,,,,,,,,,,,,,main,1,1,1,negative,negative,j,j,1,1.5020739000028698,461.1592055000074,462.1815720000013,462.1408580999996,None,461.1592055000074,None,461.1592055000074,None,461.1592055000074,None,463.646719700002,None,463.646719700002,None,463.646719700002,None,,,,,,,,,,,226,25,Male,2022-05-26_11h01.39.787,Main,2022.1.1,60.01619236798179,
neutral,negative,1,k,k,,,,,,,,,9,17,179,7,,,,,,,,,,,,,,,,,,,,,,,,main,1,1,1,negative,neutral,k,k,1,1.3236826000065776,464.66923769999994,465.67970200000855,465.65978030000406,None,464.66923769999994,None,464.66923769999994,None,464.66923769999994,None,466.9740947300059,None,466.9740947300059,None,466.9740947300059,None,,,,,,,,,,,226,25,Male,2022-05-26_11h01.39.787,Main,2022.1.1,60.01619236798179,
neutral,neutral,1,k,k,,,,,,,,,10,0,180,1,,,,,,,,,,,,,,,,,,,,,,,,main,1,1,1,neutral,neutral,k,k,1,-0.7435180000029504,466.99648349999916,None,None,None,466.99648349999916,None,466.99648349999916,None,466.99648349999916,None,467.24343640000734,None,467.24343640000734,None,467.24343640000734,None,,,,,,,,,,,226,25,Male,2022-05-26_11h01.39.787,Main,2022.1.1,60.01619236798179,
positive,positive,2,l,j,,,,,,,,,10,1,181,11,,,,,,,,,,,,,,,,,,,,,,,,main,2,2,2,positive,positive,l,l,1,0.9054163999971934,470.26883420000377,471.27755450000404,471.2571258000098,None,470.26883420000377,None,470.26883420000377,None,470.26883420000377,None,472.15582412999794,None,472.15582412999794,None,472.15582412999794,None,,,,,,,,,,,226,25,Male,2022-05-26_11h01.39.787,Main,2022.1.1,60.01619236798179,
neutral,negative,2,k,k,,,,,,,,,10,2,182,16,,,,,,,,,,,,,,,,,,,,,,,,main,1,1,2,negative,neutral,k,k,1,0.6925255999958608,472.17607889999636,473.1814114000008,473.16242330000387,None,472.17607889999636,None,472.17607889999636,None,472.17607889999636,None,473.84758353000944,None,473.84758353000944,None,473.84758353000944,None,,,,,,,,,,,226,25,Male,2022-05-26_11h01.39.787,Main,2022.1.1,60.01619236798179,
negative,negative,1,j,l,,,,,,,,,10,3,183,0,,,,,,,,,,,,,,,,,,,,,,,,main,1,1,1,negative,negative,j,j,1,0.8266990999982227,473.8691431000043,474.8818147999991,474.8611660000024,None,473.8691431000043,None,473.8691431000043,None,473.8691431000043,None,475.67708943000326,None,475.67708943000326,None,475.67708943000326,None,,,,,,,,,,,226,25,Male,2022-05-26_11h01.39.787,Main,2022.1.1,60.01619236798179,
negative,positive,2,j,l,,,,,,,,,10,4,184,15,,,,,,,,,,,,,,,,,,,,,,,,main,2,2,2,positive,negative,j,j,1,0.8224155000061728,475.69879090000177,476.71753599999647,476.67849040000874,None,475.69879090000177,None,475.69879090000177,None,475.69879090000177,None,477.5030070300025,None,477.5030070300025,None,477.5030070300025,None,,,,,,,,,,,226,25,Male,2022-05-26_11h01.39.787,Main,2022.1.1,60.01619236798179,
positive,negative,1,l,j,,,,,,,,,10,5,185,5,,,,,,,,,,,,,,,,,,,,,,,,main,1,1,1,negative,positive,l,l,1,0.847507599988603,477.5283879000053,478.5359778999991,478.5163182000106,None,477.5283879000053,None,477.5283879000053,None,477.5283879000053,None,479.35664343000536,None,479.35664343000536,None,479.35664343000536,None,,,,,,,,,,,226,25,Male,2022-05-26_11h01.39.787,Main,2022.1.1,60.01619236798179,
positive,positive,1,l,j,,,,,,,,,10,6,186,2,,,,,,,,,,,,,,,,,,,,,,,,main,2,2,1,positive,positive,l,l,1,0.7261792000062997,479.38198700000066,480.4032847000053,480.3633594999992,None,479.38198700000066,None,479.38198700000066,None,479.38198700000066,None,481.08232243000094,None,481.08232243000094,None,481.08232243000094,None,,,,,,,,,,,226,25,Male,2022-05-26_11h01.39.787,Main,2022.1.1,60.01619236798179,
negative,neutral,2,j,l,,,,,,,,,10,7,187,12,,,,,,,,,,,,,,,,,,,,,,,,main,1,1,2,neutral,negative,j,j,1,0.880657899993821,481.10933849999856,482.1185070000065,482.099380700005,None,481.10933849999856,None,481.10933849999856,None,481.10933849999856,None,482.9667310300036,None,482.9667310300036,None,482.9667310300036,None,,,,,,,,,,,226,25,Male,2022-05-26_11h01.39.787,Main,2022.1.1,60.01619236798179,
negative,negative,2,j,l,,,,,,,,,10,8,188,9,,,,,,,,,,,,,,,,,,,,,,,,main,2,2,2,negative,negative,j,j,1,0.7064675000001444,483.0033604000055,484.01141240001016,483.98920470000303,None,483.0033604000055,None,483.0033604000055,None,483.0033604000055,None,484.6894691300011,None,484.6894691300011,None,484.6894691300011,None,,,,,,,,,,,226,25,Male,2022-05-26_11h01.39.787,Main,2022.1.1,60.01619236798179,
positive,neutral,2,l,j,,,,,,,,,10,9,189,17,,,,,,,,,,,,,,,,,,,,,,,,main,2,2,2,neutral,positive,l,l,1,0.8735973999864655,484.7129050000076,485.7288378000085,485.68806840000616,None,484.7129050000076,None,484.7129050000076,None,484.7129050000076,None,486.56621182999953,None,486.56621182999953,None,486.56621182999953,None,,,,,,,,,,,226,25,Male,2022-05-26_11h01.39.787,Main,2022.1.1,60.01619236798179,
positive,neutral,1,l,j,,,,,,,,,10,10,190,8,,,,,,,,,,,,,,,,,,,,,,,,main,2,2,1,neutral,positive,l,l,1,0.7134462999965763,486.5914072000014,487.61057250000886,487.56690000000526,None,486.5914072000014,None,486.5914072000014,None,486.5914072000014,None,488.28097053000675,None,488.28097053000675,None,488.28097053000675,None,,,,,,,,,,,226,25,Male,2022-05-26_11h01.39.787,Main,2022.1.1,60.01619236798179,
neutral,negative,1,k,k,,,,,,,,,10,11,191,7,,,,,,,,,,,,,,,,,,,,,,,,main,2,2,1,negative,neutral,k,k,1,0.7369866999943042,488.30295450000267,489.3265190000093,489.28394110000227,None,488.30295450000267,None,488.30295450000267,None,488.30295450000267,None,490.02115002999636,None,490.02115002999636,None,490.02115002999636,None,,,,,,,,,,,226,25,Male,2022-05-26_11h01.39.787,Main,2022.1.1,60.01619236798179,
neutral,positive,2,k,k,,,,,,,,,10,12,192,13,,,,,,,,,,,,,,,,,,,,,,,,main,1,1,2,positive,neutral,k,k,1,0.6051146999961929,490.0442092000012,491.0615710999991,491.0211474000098,None,490.0442092000012,None,490.0442092000012,None,490.0442092000012,None,491.6328067300099,None,491.6328067300099,None,491.6328067300099,None,,,,,,,,,,,226,25,Male,2022-05-26_11h01.39.787,Main,2022.1.1,60.01619236798179,
neutral,positive,1,k,k,,,,,,,,,10,13,193,4,,,,,,,,,,,,,,,,,,,,,,,,main,1,1,1,positive,neutral,k,k,1,2.3477012000075774,491.6538772000058,492.6726403000066,492.630267600005,None,491.6538772000058,None,491.6538772000058,None,491.6538772000058,None,494.99094040000637,None,494.99094040000637,None,494.99094040000637,None,,,,,,,,,,,226,25,Male,2022-05-26_11h01.39.787,Main,2022.1.1,60.01619236798179,
negative,neutral,1,j,l,,,,,,,,,10,14,194,3,,,,,,,,,,,,,,,,,,,,,,,,main,1,1,1,neutral,negative,j,j,1,1.0722285000083502,496.0186204000056,497.02894340000057,497.00919409999915,None,496.0186204000056,None,496.0186204000056,None,496.0186204000056,None,498.06914443000716,None,498.06914443000716,None,498.06914443000716,None,,,,,,,,,,,226,25,Male,2022-05-26_11h01.39.787,Main,2022.1.1,60.01619236798179,
neutral,neutral,2,k,k,,,,,,,,,10,15,195,10,,,,,,,,,,,,,,,,,,,,,,,,main,1,1,2,neutral,neutral,k,k,1,0.7254781000083312,498.0915079999977,499.1082626999996,499.0651351999986,None,498.0915079999977,None,498.0915079999977,None,498.0915079999977,None,499.795090229997,None,499.795090229997,None,499.795090229997,None,,,,,,,,,,,226,25,Male,2022-05-26_11h01.39.787,Main,2022.1.1,60.01619236798179,
negative,positive,1,j,l,,,,,,,,,10,16,196,6,,,,,,,,,,,,,,,,,,,,,,,,main,2,2,1,positive,negative,j,j,1,0.913869900003192,499.8204276000033,500.8378500000108,500.79699100001017,None,499.8204276000033,None,499.8204276000033,None,499.8204276000033,None,501.71170633,None,501.71170633,None,501.71170633,None,,,,,,,,,,,226,25,Male,2022-05-26_11h01.39.787,Main,2022.1.1,60.01619236798179,
positive,negative,2,l,j,,,,,,,,,10,17,197,14,,,,,,,,,,,,,,,,,,,,,,,,main,1,1,2,negative,positive,l,l,1,0.7293676999979652,501.7344524000073,502.7497013999964,502.7110240000038,None,501.7344524000073,None,501.7344524000073,None,501.7344524000073,None,503.44318123000704,None,503.44318123000704,None,503.44318123000704,None,,,,,,,,,,,226,25,Male,2022-05-26_11h01.39.787,Main,2022.1.1,60.01619236798179,
negative,neutral,2,j,l,,,,,,,,,11,0,198,12,,,,,,,,,,,,,,,,,,,,,,,,main,1,1,2,neutral,negative,j,j,1,0.9406908000091789,503.46862990000227,504.4745325999975,504.4533286000078,None,503.46862990000227,None,503.46862990000227,None,503.46862990000227,None,505.38835443000863,None,505.38835443000863,None,505.38835443000863,None,,,,,,,,,,,226,25,Male,2022-05-26_11h01.39.787,Main,2022.1.1,60.01619236798179,
neutral,positive,2,k,k,,,,,,,,,11,1,199,13,,,,,,,,,,,,,,,,,,,,,,,,main,2,2,2,positive,neutral,k,k,1,0.7807591000018874,505.41142600000603,506.4200933999964,506.39919660000305,None,505.41142600000603,None,505.41142600000603,None,505.41142600000603,None,507.1708313300085,None,507.1708313300085,None,507.1708313300085,None,,,,,,,,,,,226,25,Male,2022-05-26_11h01.39.787,Main,2022.1.1,60.01619236798179,
positive,positive,2,l,j,,,,,,,,,11,2,200,11,,,,,,,,,,,,,,,,,,,,,,,,main,1,1,2,positive,positive,l,l,1,0.8454001999925822,507.1951536999986,508.207854200009,508.1869785000017,None,507.1951536999986,None,507.1951536999986,None,507.1951536999986,None,509.02195672999807,None,509.02195672999807,None,509.02195672999807,None,,,,,,,,,,,226,25,Male,2022-05-26_11h01.39.787,Main,2022.1.1,60.01619236798179,
positive,neutral,2,l,j,,,,,,,,,11,3,201,17,,,,,,,,,,,,,,,,,,,,,,,,main,2,2,2,neutral,positive,l,l,1,0.7108598000049824,509.0446751999989,510.05554840000696,510.0346500000014,None,509.0446751999989,None,509.0446751999989,None,509.0446751999989,None,510.73608592999955,None,510.73608592999955,None,510.73608592999955,None,,,,,,,,,,,226,25,Male,2022-05-26_11h01.39.787,Main,2022.1.1,60.01619236798179,
positive,negative,2,l,j,,,,,,,,,11,4,202,14,,,,,,,,,,,,,,,,,,,,,,,,main,2,2,2,negative,positive,l,l,1,0.6177069999976084,510.76068320000195,511.78156930000114,511.74202610000793,None,510.76068320000195,None,510.76068320000195,None,510.76068320000195,None,512.3580459300035,None,512.3580459300035,None,512.3580459300035,None,,,,,,,,,,,226,25,Male,2022-05-26_11h01.39.787,Main,2022.1.1,60.01619236798179,
positive,positive,1,l,j,,,,,,,,,11,5,203,2,,,,,,,,,,,,,,,,,,,,,,,,main,2,2,1,positive,positive,l,l,1,0.7835626000014599,512.3835460999981,513.4037691999984,513.3620719000028,None,512.3835460999981,None,512.3835460999981,None,512.3835460999981,None,514.1438801299998,None,514.1438801299998,None,514.1438801299998,None,,,,,,,,,,,226,25,Male,2022-05-26_11h01.39.787,Main,2022.1.1,60.01619236798179,
positive,neutral,1,l,j,,,,,,,,,11,6,204,8,,,,,,,,,,,,,,,,,,,,,,,,main,2,2,1,neutral,positive,l,l,1,0.5644521000067471,514.1686410999973,515.1855865999969,515.1429151000048,None,514.1686410999973,None,514.1686410999973,None,514.1686410999973,None,515.714127930002,None,515.714127930002,None,515.714127930002,None,,,,,,,,,,,226,25,Male,2022-05-26_11h01.39.787,Main,2022.1.1,60.01619236798179,
positive,negative,1,l,j,,,,,,,,,11,7,205,5,,,,,,,,,,,,,,,,,,,,,,,,main,2,2,1,negative,positive,l,l,1,0.5819027000106871,515.7349111000076,516.7417846000026,516.7219282000005,None,515.7349111000076,None,515.7349111000076,None,515.7349111000076,None,517.29810763001,None,517.29810763001,None,517.29810763001,None,,,,,,,,,,,226,25,Male,2022-05-26_11h01.39.787,Main,2022.1.1,60.01619236798179,
neutral,positive,1,k,k,,,,,,,,,11,8,206,4,,,,,,,,,,,,,,,,,,,,,,,,main,2,2,1,positive,neutral,k,k,1,0.7379892000026302,517.319702599998,518.3382645000092,518.2955389999988,None,517.319702599998,None,517.319702599998,None,517.319702599998,None,519.0376789300105,None,519.0376789300105,None,519.0376789300105,None,,,,,,,,,,,226,25,Male,2022-05-26_11h01.39.787,Main,2022.1.1,60.01619236798179,
neutral,neutral,2,k,k,,,,,,,,,11,9,207,10,,,,,,,,,,,,,,,,,,,,,,,,main,2,2,2,neutral,neutral,k,k,1,0.7346603999903891,519.0622371000063,520.0724661999993,520.0534875000012,None,519.0622371000063,None,519.0622371000063,None,519.0622371000063,None,520.7795983300064,None,520.7795983300064,None,520.7795983300064,None,,,,,,,,,,,226,25,Male,2022-05-26_11h01.39.787,Main,2022.1.1,60.01619236798179,
negative,negative,1,j,l,,,,,,,,,11,10,208,0,,,,,,,,,,,,,,,,,,,,,,,,main,2,2,1,negative,negative,j,j,1,1.4927662999980384,520.8042368000024,521.8254034999991,521.7847697000107,None,520.8042368000024,None,520.8042368000024,None,520.8042368000024,None,523.2720214300105,None,523.2720214300105,None,523.2720214300105,None,,,,,,,,,,,226,25,Male,2022-05-26_11h01.39.787,Main,2022.1.1,60.01619236798179,
neutral,negative,2,k,k,,,,,,,,,11,11,209,16,,,,,,,,,,,,,,,,,,,,,,,,main,1,1,2,negative,neutral,k,k,1,0.7844177999941166,523.2939679999981,524.3074942000094,524.2880989999976,None,523.2939679999981,None,523.2939679999981,None,523.2939679999981,None,525.0586985300076,None,525.0586985300076,None,525.0586985300076,None,,,,,,,,,,,226,25,Male,2022-05-26_11h01.39.787,Main,2022.1.1,60.01619236798179,
