target,distractor,set,ans1,ans2,rep_loop2.thisRepN,rep_loop2.thisTrialN,rep_loop2.thisN,rep_loop2.thisIndex,flanker_prac_loop.thisRepN,flanker_prac_loop.thisTrialN,flanker_prac_loop.thisN,flanker_prac_loop.thisIndex,flanker_main_loop.thisRepN,flanker_main_loop.thisTrialN,flanker_main_loop.thisN,flanker_main_loop.thisIndex,fl_inst_resp.keys,mouse.x,mouse.y,mouse.leftButton,mouse.midButton,mouse.rightButton,mouse.started,mouse.stopped,sound_1.started,sound_1.stopped,no_text.started,no_text.stopped,yes_text.started,yes_text.stopped,mouse_2.x,mouse_2.y,mouse_2.leftButton,mouse_2.midButton,mouse_2.rightButton,mouse_2.started,mouse_2.stopped,back_2.started,back_2.stopped,main_prac,fl_cold,fl_colt,fl_set,fl_dcond,fl_tcond,fl_ans,fl_res,fl_corr,fl_rt,fix_fl.started,fix_fl.stopped,targ.started,targ.stopped,j_button.started,j_button.stopped,k_button.started,k_button.stopped,l_button.started,l_button.stopped,j_button2.started,j_button2.stopped,k_button2.started,k_button2.stopped,l_button2.started,l_button2.stopped,mainback.started,mainback.stopped,key_resp.keys,mouse_6.x,mouse_6.y,mouse_6.leftButton,mouse_6.midButton,mouse_6.rightButton,mouse_6.started,mouse_6.stopped,id*,age*,gender*,date,expName,psychopyVersion,frameRate,
,,,,,0,0,0,0,,,,,,,,,None,0.34351853,-0.39722222,0,0,0,1.0032943299875114,None,19.954140629999436,None,70.26720579999983,None,70.26720579999983,None,-0.11203704,-0.08611111,0,0,0,0.01255892999961361,None,,,,,,,,,,,,,,,,,,,,,,,,,,,,,,,,,,,,,,,227,22,Female,2022-05-31_14h13.44.916,Main,2022.1.1,60.03539687000893,
positive,neutral,2,l,j,,,,,0,0,0,17,,,,,,,,,,,,,,,,,,,,,,,,,,74.41373399999975,None,prac,2,2,2,neutral,positive,j,j,1,2.113678400000026,76.46990389999974,77.48076159999982,77.46041650000006,None,76.46990389999974,None,76.46990389999974,None,76.46990389999974,None,79.57207409999955,None,79.57207409999955,None,79.57207409999955,None,,,,,,,,,,,227,22,Female,2022-05-31_14h13.44.916,Main,2022.1.1,60.03539687000893,
negative,negative,1,j,l,,,,,0,1,1,0,,,,,,,,,,,,,,,,,,,,,,,,,,,,prac,1,1,1,negative,negative,l,l,1,1.359113200000138,80.60744759999943,81.62676620000002,81.58945560000029,None,80.60744759999943,None,80.60744759999943,None,80.60744759999943,None,82.93228742999955,None,82.93228742999955,None,82.93228742999955,None,,,,,,,,,,,227,22,Female,2022-05-31_14h13.44.916,Main,2022.1.1,60.03539687000893,
positive,neutral,1,l,j,,,,,0,2,2,8,,,,,,,,,,,,,,,,,,,,,,,,,,,,prac,1,1,1,neutral,positive,j,j,1,1.2247605000002295,82.97572669999954,83.99010029999954,83.95411469999999,None,82.97572669999954,None,82.97572669999954,None,82.97572669999954,None,85.1620197299998,None,85.1620197299998,None,85.1620197299998,None,,,,,,,,,,,227,22,Female,2022-05-31_14h13.44.916,Main,2022.1.1,60.03539687000893,
neutral,positive,1,k,k,,,,,0,3,3,4,,,,,,,,,,,,,,,,,,,,,,,,,,,,prac,1,1,1,positive,neutral,k,k,1,0.9029834000002666,85.19066190000012,86.2044793999994,86.1864671000003,None,85.19066190000012,None,85.19066190000012,None,85.19066190000012,None,87.0665856300001,None,87.0665856300001,None,87.0665856300001,None,,,,,,,,,,,227,22,Female,2022-05-31_14h13.44.916,Main,2022.1.1,60.03539687000893,
negative,negative,2,j,l,,,,,0,4,4,9,,,,,,,,,,,,,,,,,,,,,,,,,,,,prac,2,2,2,negative,negative,l,l,1,0.8744887000002564,87.10306539999965,88.11991959999978,88.08197259999997,None,87.10306539999965,None,87.10306539999965,None,87.10306539999965,None,88.94525433000027,None,88.94525433000027,None,88.94525433000027,None,,,,,,,,,,,227,22,Female,2022-05-31_14h13.44.916,Main,2022.1.1,60.03539687000893,
negative,neutral,1,j,l,,,,,0,5,5,3,,,,,,,,,,,,,,,,,,,,,,,,,,,,prac,2,2,1,neutral,negative,l,l,1,0.9658255999993344,88.98619030000009,90.00195879999956,89.96536539999943,None,88.98619030000009,None,88.98619030000009,None,88.98619030000009,None,90.91156493000008,None,90.91156493000008,None,90.91156493000008,None,,,,,,,,,,,227,22,Female,2022-05-31_14h13.44.916,Main,2022.1.1,60.03539687000893,
neutral,neutral,2,k,k,,,,,0,6,6,10,,,,,,,,,,,,,,,,,,,,,,,,,,,,prac,2,2,2,neutral,neutral,k,k,1,0.9705575999996654,90.93151089999992,91.93579099999988,91.91789139999946,None,90.93151089999992,None,90.93151089999992,None,90.93151089999992,None,92.8840069299994,None,92.8840069299994,None,92.8840069299994,None,,,,,,,,,,,227,22,Female,2022-05-31_14h13.44.916,Main,2022.1.1,60.03539687000893,
negative,positive,2,j,l,,,,,0,7,7,15,,,,,,,,,,,,,,,,,,,,,,,,,,,,prac,1,1,2,positive,negative,l,l,1,0.8748270999994929,92.92667389999951,93.93870460000016,93.9020032999997,None,92.92667389999951,None,92.92667389999951,None,92.92667389999951,None,94.76110902999963,None,94.76110902999963,None,94.76110902999963,None,,,,,,,,,,,227,22,Female,2022-05-31_14h13.44.916,Main,2022.1.1,60.03539687000893,
neutral,positive,2,k,k,,,,,0,8,8,13,,,,,,,,,,,,,,,,,,,,,,,,,,,,prac,2,2,2,positive,neutral,k,k,1,0.922805100000005,94.79164899999978,95.81069899999966,95.79160779999984,None,94.79164899999978,None,94.79164899999978,None,94.79164899999978,None,96.68597812999988,None,96.68597812999988,None,96.68597812999988,None,,,,,,,,,,,227,22,Female,2022-05-31_14h13.44.916,Main,2022.1.1,60.03539687000893,
neutral,negative,2,k,k,,,,,0,9,9,16,,,,,,,,,,,,,,,,,,,,,,,,,,,,prac,2,2,2,negative,neutral,k,k,1,0.8773399000001518,96.70679089999976,97.71579370000018,97.69726739999987,None,96.70679089999976,None,96.70679089999976,None,96.70679089999976,None,98.56707132999955,None,98.56707132999955,None,98.56707132999955,None,,,,,,,,,,,227,22,Female,2022-05-31_14h13.44.916,Main,2022.1.1,60.03539687000893,
positive,positive,2,l,j,,,,,0,10,10,11,,,,,,,,,,,,,,,,,,,,,,,,,,,,prac,1,1,2,positive,positive,j,j,1,1.0148998000004212,98.58775869999954,99.60043750000023,99.56252140000015,None,98.58775869999954,None,98.58775869999954,None,98.58775869999954,None,100.58297132999988,None,100.58297132999988,None,100.58297132999988,None,,,,,,,,,,,227,22,Female,2022-05-31_14h13.44.916,Main,2022.1.1,60.03539687000893,
negative,neutral,2,j,l,,,,,0,11,11,12,,,,,,,,,,,,,,,,,,,,,,,,,,,,prac,1,1,2,neutral,negative,l,l,1,0.9147226000004594,100.61907429999974,101.63752329999988,101.60089460000017,None,100.61907429999974,None,100.61907429999974,None,100.61907429999974,None,102.50031582999955,None,102.50031582999955,None,102.50031582999955,None,,,,,,,,,,,227,22,Female,2022-05-31_14h13.44.916,Main,2022.1.1,60.03539687000893,
positive,negative,1,l,j,,,,,0,12,12,5,,,,,,,,,,,,,,,,,,,,,,,,,,,,prac,2,2,1,negative,positive,j,j,1,1.0734765999995943,102.5358653000003,103.54713509999965,103.50672159999976,None,102.5358653000003,None,102.5358653000003,None,102.5358653000003,None,104.57810683000017,None,104.57810683000017,None,104.57810683000017,None,,,,,,,,,,,227,22,Female,2022-05-31_14h13.44.916,Main,2022.1.1,60.03539687000893,
neutral,negative,1,k,k,,,,,0,13,13,7,,,,,,,,,,,,,,,,,,,,,,,,,,,,prac,2,2,1,negative,neutral,k,k,1,0.9065439000005426,104.59857250000005,105.60996629999954,105.57053040000028,None,104.59857250000005,None,104.59857250000005,None,104.59857250000005,None,106.4848707299997,None,106.4848707299997,None,106.4848707299997,None,,,,,,,,,,,227,22,Female,2022-05-31_14h13.44.916,Main,2022.1.1,60.03539687000893,
negative,positive,1,j,l,,,,,0,14,14,6,,,,,,,,,,,,,,,,,,,,,,,,,,,,prac,1,1,1,positive,negative,l,l,1,1.4908909999994648,106.50453049999942,107.50523640000029,107.48706219999985,None,106.50453049999942,None,106.50453049999942,None,106.50453049999942,None,108.97975332999968,None,108.97975332999968,None,108.97975332999968,None,,,,,,,,,,,227,22,Female,2022-05-31_14h13.44.916,Main,2022.1.1,60.03539687000893,
positive,positive,1,l,j,,,,,0,15,15,2,,,,,,,,,,,,,,,,,,,,,,,,,,,,prac,1,1,1,positive,positive,j,j,1,0.9947612999994817,109.00044179999986,110.01109689999976,109.9730970999999,None,109.00044179999986,None,109.00044179999986,None,109.00044179999986,None,110.97976872999962,None,110.97976872999962,None,110.97976872999962,None,,,,,,,,,,,227,22,Female,2022-05-31_14h13.44.916,Main,2022.1.1,60.03539687000893,
positive,negative,2,l,j,,,,,0,16,16,14,,,,,,,,,,,,,,,,,,,,,,,,,,,,prac,1,1,2,negative,positive,j,j,1,0.8172075000002224,111.01256569999987,112.02926699999989,111.99205559999973,None,111.01256569999987,None,111.01256569999987,None,111.01256569999987,None,112.79887272999977,None,112.79887272999977,None,112.79887272999977,None,,,,,,,,,,,227,22,Female,2022-05-31_14h13.44.916,Main,2022.1.1,60.03539687000893,
neutral,neutral,1,k,k,,,,,0,17,17,1,,,,,,,,,,,,,,,,,,,,,,,,,,,,prac,2,2,1,neutral,neutral,k,k,1,0.6663716000002751,112.81915690000005,113.83605360000001,113.79961800000001,None,112.81915690000005,None,112.81915690000005,None,112.81915690000005,None,114.46736852999939,None,114.46736852999939,None,114.46736852999939,None,,,,,,,,,,,227,22,Female,2022-05-31_14h13.44.916,Main,2022.1.1,60.03539687000893,
positive,neutral,2,l,j,,,,,1,0,18,17,,,,,,,,,,,,,,,,,,,,,,,,,,,,prac,2,2,2,neutral,positive,j,j,1,1.0637870000000476,114.48738890000004,115.49168099999952,115.47272679999969,None,114.48738890000004,None,114.48738890000004,None,114.48738890000004,None,116.53372022999966,None,116.53372022999966,None,116.53372022999966,None,,,,,,,,,,,227,22,Female,2022-05-31_14h13.44.916,Main,2022.1.1,60.03539687000893,
positive,positive,2,l,j,,,,,1,1,19,11,,,,,,,,,,,,,,,,,,,,,,,,,,,,prac,1,1,2,positive,positive,j,j,1,0.753722800000105,116.55335370000012,117.56472549999944,117.52657759999965,None,116.55335370000012,None,116.55335370000012,None,116.55335370000012,None,118.2913739300001,None,118.2913739300001,None,118.2913739300001,None,,,,,,,,,,,227,22,Female,2022-05-31_14h13.44.916,Main,2022.1.1,60.03539687000893,
neutral,positive,1,k,k,,,,,1,2,20,4,,,,,,,,,,,,,,,,,,,,,,,,,,,,prac,2,2,1,positive,neutral,k,k,1,0.7780894999996235,118.32079640000029,119.33752019999974,119.31898039999942,None,118.32079640000029,None,118.32079640000029,None,118.32079640000029,None,120.07215222999994,None,120.07215222999994,None,120.07215222999994,None,,,,,,,,,,,227,22,Female,2022-05-31_14h13.44.916,Main,2022.1.1,60.03539687000893,
negative,negative,2,j,l,,,,,1,3,21,9,,,,,,,,,,,,,,,,,,,,,,,,,,,,prac,2,2,2,negative,negative,l,l,1,1.3645119000002524,120.0907685000002,121.09207700000024,121.0743580999997,None,120.0907685000002,None,120.0907685000002,None,120.0907685000002,None,122.4370241300002,None,122.4370241300002,None,122.4370241300002,None,,,,,,,,,,,227,22,Female,2022-05-31_14h13.44.916,Main,2022.1.1,60.03539687000893,
neutral,neutral,2,k,k,,,,,1,4,22,10,,,,,,,,,,,,,,,,,,,,,,,,,,,,prac,1,1,2,neutral,neutral,k,k,1,0.7805739000004905,122.45615309999994,123.46213199999966,123.44342880000022,None,122.45615309999994,None,122.45615309999994,None,122.45615309999994,None,124.21978282999945,None,124.21978282999945,None,124.21978282999945,None,,,,,,,,,,,227,22,Female,2022-05-31_14h13.44.916,Main,2022.1.1,60.03539687000893,
neutral,neutral,1,k,k,,,,,1,5,23,1,,,,,,,,,,,,,,,,,,,,,,,,,,,,prac,1,1,1,neutral,neutral,k,k,1,0.8989337000002706,124.2389192999999,125.24671299999954,125.22832000000017,None,124.2389192999999,None,124.2389192999999,None,124.2389192999999,None,126.12225262999974,None,126.12225262999974,None,126.12225262999974,None,,,,,,,,,,,227,22,Female,2022-05-31_14h13.44.916,Main,2022.1.1,60.03539687000893,
negative,positive,2,j,l,,,,,1,6,24,15,,,,,,,,,,,,,,,,,,,,,,,,,,,,prac,2,2,2,positive,negative,l,l,1,0.7952887000001283,126.14146429999983,127.1543257000003,127.1181402000002,None,126.14146429999983,None,126.14146429999983,None,126.14146429999983,None,127.92040682999951,None,127.92040682999951,None,127.92040682999951,None,,,,,,,,,,,227,22,Female,2022-05-31_14h13.44.916,Main,2022.1.1,60.03539687000893,
neutral,positive,2,k,k,,,,,1,7,25,13,,,,,,,,,,,,,,,,,,,,,,,,,,,,prac,1,1,2,positive,neutral,k,k,1,0.8281597000004695,127.94024230000014,128.95330639999975,128.91691660000015,None,127.94024230000014,None,127.94024230000014,None,127.94024230000014,None,129.74881883000026,None,129.74881883000026,None,129.74881883000026,None,,,,,,,,,,,227,22,Female,2022-05-31_14h13.44.916,Main,2022.1.1,60.03539687000893,
positive,negative,1,l,j,,,,,1,8,26,5,,,,,,,,,,,,,,,,,,,,,,,,,,,,prac,1,1,1,negative,positive,j,j,1,0.9684358000004067,129.7683664999995,130.78267179999966,130.7458856000003,None,129.7683664999995,None,129.7683664999995,None,129.7683664999995,None,131.72086452999966,None,131.72086452999966,None,131.72086452999966,None,,,,,,,,,,,227,22,Female,2022-05-31_14h13.44.916,Main,2022.1.1,60.03539687000893,
neutral,negative,2,k,k,,,,,1,9,27,16,,,,,,,,,,,,,,,,,,,,,,,,,,,,prac,1,1,2,negative,neutral,k,k,1,0.730231300000014,131.7389119999998,132.75612180000007,132.71822069999962,None,131.7389119999998,None,131.7389119999998,None,131.7389119999998,None,133.45133222999985,None,133.45133222999985,None,133.45133222999985,None,,,,,,,,,,,227,22,Female,2022-05-31_14h13.44.916,Main,2022.1.1,60.03539687000893,
negative,neutral,2,j,l,,,,,1,10,28,12,,,,,,,,,,,,,,,,,,,,,,,,,,,,prac,2,2,2,neutral,negative,l,l,1,0.8096293999997215,133.47158190000027,134.48507449999943,134.44682420000026,None,133.47158190000027,None,133.47158190000027,None,133.47158190000027,None,135.26340032999988,None,135.26340032999988,None,135.26340032999988,None,,,,,,,,,,,227,22,Female,2022-05-31_14h13.44.916,Main,2022.1.1,60.03539687000893,
positive,negative,2,l,j,,,,,1,11,29,14,,,,,,,,,,,,,,,,,,,,,,,,,,,,prac,1,1,2,negative,positive,j,j,1,0.9993173000002571,135.2834200999996,136.2847488999996,136.2669764000002,None,135.2834200999996,None,135.2834200999996,None,135.2834200999996,None,137.2649340299994,None,137.2649340299994,None,137.2649340299994,None,,,,,,,,,,,227,22,Female,2022-05-31_14h13.44.916,Main,2022.1.1,60.03539687000893,
positive,neutral,1,l,j,,,,,1,12,30,8,,,,,,,,,,,,,,,,,,,,,,,,,,,,prac,1,1,1,neutral,positive,j,j,1,0.9472327999992558,137.2845870000001,138.29650279999987,138.25835349999943,None,137.2845870000001,None,137.2845870000001,None,137.2845870000001,None,139.2142461299999,None,139.2142461299999,None,139.2142461299999,None,,,,,,,,,,,227,22,Female,2022-05-31_14h13.44.916,Main,2022.1.1,60.03539687000893,
neutral,negative,1,k,k,,,,,1,13,31,7,,,,,,,,,,,,,,,,,,,,,,,,,,,,prac,2,2,1,negative,neutral,k,k,1,0.7479750000002241,139.2341809999998,140.2385237999997,140.21948939999947,None,139.2341809999998,None,139.2341809999998,None,139.2341809999998,None,140.96452942999977,None,140.96452942999977,None,140.96452942999977,None,,,,,,,,,,,227,22,Female,2022-05-31_14h13.44.916,Main,2022.1.1,60.03539687000893,
negative,positive,1,j,l,,,,,1,14,32,6,,,,,,,,,,,,,,,,,,,,,,,,,,,,prac,2,2,1,positive,negative,l,l,1,1.609784999999647,140.98486289999983,142.00038029999996,141.96346949999952,None,140.98486289999983,None,140.98486289999983,None,140.98486289999983,None,143.58216559999983,None,143.58216559999983,None,143.58216559999983,None,,,,,,,,,,,227,22,Female,2022-05-31_14h13.44.916,Main,2022.1.1,60.03539687000893,
negative,neutral,1,j,l,,,,,1,15,33,3,,,,,,,,,,,,,,,,,,,,,,,,,,,,prac,2,2,1,neutral,negative,l,l,1,0.9337971000004472,144.5981351999999,145.6047077000003,145.58579800000007,None,144.5981351999999,None,144.5981351999999,None,144.5981351999999,None,146.51283983000022,None,146.51283983000022,None,146.51283983000022,None,,,,,,,,,,,227,22,Female,2022-05-31_14h13.44.916,Main,2022.1.1,60.03539687000893,
negative,negative,1,j,l,,,,,1,16,34,0,,,,,,,,,,,,,,,,,,,,,,,,,,,,prac,1,1,1,negative,negative,l,l,1,0.837337099999786,146.53289799999948,147.54206759999943,147.52261279999948,None,146.53289799999948,None,146.53289799999948,None,146.53289799999948,None,148.35506002999946,None,148.35506002999946,None,148.35506002999946,None,,,,,,,,,,,227,22,Female,2022-05-31_14h13.44.916,Main,2022.1.1,60.03539687000893,
positive,positive,1,l,j,,,,,1,17,35,2,,,,,,,,,,,,,,,,,,,,,,,,,,,,prac,2,2,1,positive,positive,j,l,0,0.9455167000005531,148.3754939999999,149.38178979999975,149.36382260000028,None,148.3754939999999,None,148.3754939999999,None,148.3754939999999,None,150.31276979999984,None,150.31276979999984,None,150.31276979999984,None,,,,,,,,,,,227,22,Female,2022-05-31_14h13.44.916,Main,2022.1.1,60.03539687000893,
,,,,,,,,,,,,,,,,,,,,,,,,,,,,,,,,,,,,,,,,,,,,,,,,,,,,,,,,,,,,,,,,,,151.32051179999962,None,None,,,,,,,,227,22,Female,2022-05-31_14h13.44.916,Main,2022.1.1,60.03539687000893,
,,,,,,,,,,,,,,,,,,,,,,,,,,,,,,,,,,,,,,,,,,,,,,,,,,,,,,,,,,,,,,,,,,,,,0.6398148,-0.18796296,1,0,0,0.01567403000080958,None,227,22,Female,2022-05-31_14h13.44.916,Main,2022.1.1,60.03539687000893,
neutral,positive,2,k,k,,,,,,,,,0,0,0,13,,,,,,,,,,,,,,,,,,,,,,156.73660980000022,None,main,1,1,2,positive,neutral,k,k,1,0.7584187000002203,158.75497339999947,159.76695930000005,159.72790729999997,None,158.75497339999947,None,158.75497339999947,None,158.75497339999947,None,160.49315982999988,None,160.49315982999988,None,160.49315982999988,None,,,,,,,,,,,227,22,Female,2022-05-31_14h13.44.916,Main,2022.1.1,60.03539687000893,
neutral,negative,1,k,k,,,,,,,,,0,1,1,7,,,,,,,,,,,,,,,,,,,,,,,,main,2,2,1,negative,neutral,k,k,1,0.7298284999997122,160.51593979999961,161.51912619999985,161.50053000000025,None,160.51593979999961,None,160.51593979999961,None,160.51593979999961,None,162.22778542999995,None,162.22778542999995,None,162.22778542999995,None,,,,,,,,,,,227,22,Female,2022-05-31_14h13.44.916,Main,2022.1.1,60.03539687000893,
positive,positive,2,l,j,,,,,,,,,0,2,2,11,,,,,,,,,,,,,,,,,,,,,,,,main,2,2,2,positive,positive,j,j,1,1.4547843999998804,162.2531925000003,163.26610770000025,163.22989229999985,None,162.2531925000003,None,162.2531925000003,None,162.2531925000003,None,164.68872052999987,None,164.68872052999987,None,164.68872052999987,None,,,,,,,,,,,227,22,Female,2022-05-31_14h13.44.916,Main,2022.1.1,60.03539687000893,
positive,negative,2,l,j,,,,,,,,,0,3,3,14,,,,,,,,,,,,,,,,,,,,,,,,main,1,1,2,negative,positive,j,j,1,0.8388614999994388,164.70941779999976,165.71392930000002,165.69568269999945,None,164.70941779999976,None,164.70941779999976,None,164.70941779999976,None,166.52999203000027,None,166.52999203000027,None,166.52999203000027,None,,,,,,,,,,,227,22,Female,2022-05-31_14h13.44.916,Main,2022.1.1,60.03539687000893,
positive,negative,1,l,j,,,,,,,,,0,4,4,5,,,,,,,,,,,,,,,,,,,,,,,,main,2,2,1,negative,positive,j,j,1,0.7782439000002341,166.54962309999974,167.55545919999986,167.53674859999956,None,166.54962309999974,None,166.54962309999974,None,166.54962309999974,None,168.30926382999942,None,168.30926382999942,None,168.30926382999942,None,,,,,,,,,,,227,22,Female,2022-05-31_14h13.44.916,Main,2022.1.1,60.03539687000893,
neutral,negative,2,k,k,,,,,,,,,0,5,5,16,,,,,,,,,,,,,,,,,,,,,,,,main,2,2,2,negative,neutral,k,k,1,0.6717078000001493,168.33038549999947,169.34553529999994,169.3085384999995,None,168.33038549999947,None,168.33038549999947,None,168.33038549999947,None,169.9866761299999,None,169.9866761299999,None,169.9866761299999,None,,,,,,,,,,,227,22,Female,2022-05-31_14h13.44.916,Main,2022.1.1,60.03539687000893,
negative,negative,1,j,l,,,,,,,,,0,6,6,0,,,,,,,,,,,,,,,,,,,,,,,,main,2,2,1,negative,negative,l,l,1,0.6643857999997635,170.00581450000027,171.0196721000002,171.00121479999962,None,170.00581450000027,None,170.00581450000027,None,170.00581450000027,None,171.65347272999944,None,171.65347272999944,None,171.65347272999944,None,,,,,,,,,,,227,22,Female,2022-05-31_14h13.44.916,Main,2022.1.1,60.03539687000893,
negative,neutral,1,j,l,,,,,,,,,0,7,7,3,,,,,,,,,,,,,,,,,,,,,,,,main,2,2,1,neutral,negative,l,l,1,0.8300015999993775,171.67325639999945,172.68568849999974,172.6478946999996,None,171.67325639999945,None,171.67325639999945,None,171.67325639999945,None,173.48689353,None,173.48689353,None,173.48689353,None,,,,,,,,,,,227,22,Female,2022-05-31_14h13.44.916,Main,2022.1.1,60.03539687000893,
positive,neutral,1,l,j,,,,,,,,,0,8,8,8,,,,,,,,,,,,,,,,,,,,,,,,main,2,2,1,neutral,positive,j,j,1,1.0879139999997278,173.5095878000002,174.51905859999988,174.50091109999994,None,173.5095878000002,None,173.5095878000002,None,173.5095878000002,None,175.5791807300001,None,175.5791807300001,None,175.5791807300001,None,,,,,,,,,,,227,22,Female,2022-05-31_14h13.44.916,Main,2022.1.1,60.03539687000893,
negative,positive,2,j,l,,,,,,,,,0,9,9,15,,,,,,,,,,,,,,,,,,,,,,,,main,1,1,2,positive,negative,l,l,1,0.8781392000000778,175.59915350000028,176.60993489999964,176.57364039999993,None,175.59915350000028,None,175.59915350000028,None,175.59915350000028,None,177.4593377299997,None,177.4593377299997,None,177.4593377299997,None,,,,,,,,,,,227,22,Female,2022-05-31_14h13.44.916,Main,2022.1.1,60.03539687000893,
negative,neutral,2,j,l,,,,,,,,,0,10,10,12,,,,,,,,,,,,,,,,,,,,,,,,main,1,1,2,neutral,negative,l,l,1,0.8098946000000069,177.47961029999988,178.49574329999996,178.4587580999996,None,177.47961029999988,None,177.47961029999988,None,177.47961029999988,None,179.27245092999956,None,179.27245092999956,None,179.27245092999956,None,,,,,,,,,,,227,22,Female,2022-05-31_14h13.44.916,Main,2022.1.1,60.03539687000893,
positive,positive,1,l,j,,,,,,,,,0,11,11,2,,,,,,,,,,,,,,,,,,,,,,,,main,1,1,1,positive,positive,j,j,1,0.976093100000071,179.2930970999996,180.29575920000025,180.27661689999968,None,179.2930970999996,None,179.2930970999996,None,179.2930970999996,None,181.25259062999967,None,181.25259062999967,None,181.25259062999967,None,,,,,,,,,,,227,22,Female,2022-05-31_14h13.44.916,Main,2022.1.1,60.03539687000893,
neutral,positive,1,k,k,,,,,,,,,0,12,12,4,,,,,,,,,,,,,,,,,,,,,,,,main,2,2,1,positive,neutral,k,k,1,0.8100578000003225,181.2723202999996,182.28296599999976,182.2451675000002,None,181.2723202999996,None,181.2723202999996,None,181.2723202999996,None,183.06577932999963,None,183.06577932999963,None,183.06577932999963,None,,,,,,,,,,,227,22,Female,2022-05-31_14h13.44.916,Main,2022.1.1,60.03539687000893,
positive,neutral,2,l,j,,,,,,,,,0,13,13,17,,,,,,,,,,,,,,,,,,,,,,,,main,1,1,2,neutral,positive,j,j,1,0.811105700000553,183.08822080000027,184.08999700000004,184.0723767999998,None,183.08822080000027,None,183.08822080000027,None,183.08822080000027,None,184.88033112999975,None,184.88033112999975,None,184.88033112999975,None,,,,,,,,,,,227,22,Female,2022-05-31_14h13.44.916,Main,2022.1.1,60.03539687000893,
neutral,neutral,1,k,k,,,,,,,,,0,14,14,1,,,,,,,,,,,,,,,,,,,,,,,,main,1,1,1,neutral,neutral,k,k,1,1.5960443999993004,184.89911080000002,185.9087029000002,185.87266369999998,None,184.89911080000002,None,184.89911080000002,None,184.89911080000002,None,187.48489229999996,None,187.48489229999996,None,187.48489229999996,None,,,,,,,,,,,227,22,Female,2022-05-31_14h13.44.916,Main,2022.1.1,60.03539687000893,
neutral,neutral,2,k,k,,,,,,,,,0,15,15,10,,,,,,,,,,,,,,,,,,,,,,,,main,1,1,2,neutral,neutral,k,k,1,0.7710286000001361,188.5092370000002,189.5175419999996,189.4986700999998,None,188.5092370000002,None,188.5092370000002,None,188.5092370000002,None,190.2637652299999,None,190.2637652299999,None,190.2637652299999,None,,,,,,,,,,,227,22,Female,2022-05-31_14h13.44.916,Main,2022.1.1,60.03539687000893,
negative,positive,1,j,l,,,,,,,,,0,16,16,6,,,,,,,,,,,,,,,,,,,,,,,,main,1,1,1,positive,negative,l,l,1,1.1784111000006305,190.28409589999956,191.29443439999977,191.2576739999995,None,190.28409589999956,None,190.28409589999956,None,190.28409589999956,None,192.44498463000028,None,192.44498463000028,None,192.44498463000028,None,,,,,,,,,,,227,22,Female,2022-05-31_14h13.44.916,Main,2022.1.1,60.03539687000893,
negative,negative,2,j,l,,,,,,,,,0,17,17,9,,,,,,,,,,,,,,,,,,,,,,,,main,1,1,2,negative,negative,l,l,1,0.7287760999997772,192.46475060000012,193.47524879999946,193.43816340000012,None,192.46475060000012,None,192.46475060000012,None,192.46475060000012,None,194.1743189299995,None,194.1743189299995,None,194.1743189299995,None,,,,,,,,,,,227,22,Female,2022-05-31_14h13.44.916,Main,2022.1.1,60.03539687000893,
positive,neutral,2,l,j,,,,,,,,,1,0,18,17,,,,,,,,,,,,,,,,,,,,,,,,main,1,1,2,neutral,positive,j,j,1,0.8530994000002465,194.19423219999953,195.19964309999978,195.18136640000012,None,194.19423219999953,None,194.19423219999953,None,194.19423219999953,None,196.03183143000015,None,196.03183143000015,None,196.03183143000015,None,,,,,,,,,,,227,22,Female,2022-05-31_14h13.44.916,Main,2022.1.1,60.03539687000893,
neutral,positive,1,k,k,,,,,,,,,1,1,19,4,,,,,,,,,,,,,,,,,,,,,,,,main,1,1,1,positive,neutral,k,k,1,0.700158100000408,196.05308369999966,197.06477429999995,197.02651100000003,None,196.05308369999966,None,196.05308369999966,None,196.05308369999966,None,197.73449962999976,None,197.73449962999976,None,197.73449962999976,None,,,,,,,,,,,227,22,Female,2022-05-31_14h13.44.916,Main,2022.1.1,60.03539687000893,
positive,neutral,1,l,j,,,,,,,,,1,2,20,8,,,,,,,,,,,,,,,,,,,,,,,,main,2,2,1,neutral,positive,j,j,1,0.8625659999997879,197.75511610000012,198.7602965999995,198.7417448999995,None,197.75511610000012,None,197.75511610000012,None,197.75511610000012,None,199.60152762999942,None,199.60152762999942,None,199.60152762999942,None,,,,,,,,,,,227,22,Female,2022-05-31_14h13.44.916,Main,2022.1.1,60.03539687000893,
positive,positive,2,l,j,,,,,,,,,1,3,21,11,,,,,,,,,,,,,,,,,,,,,,,,main,1,1,2,positive,positive,j,j,1,0.6858161999998629,199.62240699999984,200.64017309999963,200.60257589999947,None,199.62240699999984,None,199.62240699999984,None,199.62240699999984,None,201.28979722999966,None,201.28979722999966,None,201.28979722999966,None,,,,,,,,,,,227,22,Female,2022-05-31_14h13.44.916,Main,2022.1.1,60.03539687000893,
positive,negative,2,l,j,,,,,,,,,1,4,22,14,,,,,,,,,,,,,,,,,,,,,,,,main,1,1,2,negative,positive,j,j,1,0.7473087999997006,201.30963220000012,202.32641599999988,202.2899539,None,201.30963220000012,None,201.30963220000012,None,201.30963220000012,None,203.03988262999965,None,203.03988262999965,None,203.03988262999965,None,,,,,,,,,,,227,22,Female,2022-05-31_14h13.44.916,Main,2022.1.1,60.03539687000893,
neutral,negative,2,k,k,,,,,,,,,1,5,23,16,,,,,,,,,,,,,,,,,,,,,,,,main,2,2,2,negative,neutral,k,k,1,0.7069030000002385,203.05988439999965,204.0755156999994,204.03914350000014,None,203.05988439999965,None,203.05988439999965,None,203.05988439999965,None,204.7509669299997,None,204.7509669299997,None,204.7509669299997,None,,,,,,,,,,,227,22,Female,2022-05-31_14h13.44.916,Main,2022.1.1,60.03539687000893,
negative,positive,1,j,l,,,,,,,,,1,6,24,6,,,,,,,,,,,,,,,,,,,,,,,,main,1,1,1,positive,negative,l,l,1,0.848337100000208,204.77073579999978,205.7819929999996,205.74328100000002,None,204.77073579999978,None,204.77073579999978,None,204.77073579999978,None,206.60184473000018,None,206.60184473000018,None,206.60184473000018,None,,,,,,,,,,,227,22,Female,2022-05-31_14h13.44.916,Main,2022.1.1,60.03539687000893,
neutral,negative,1,k,k,,,,,,,,,1,7,25,7,,,,,,,,,,,,,,,,,,,,,,,,main,2,2,1,negative,neutral,k,k,1,0.7374170000002778,206.6215758999997,207.63451040000018,207.59682919999977,None,206.6215758999997,None,206.6215758999997,None,206.6215758999997,None,208.34184023000026,None,208.34184023000026,None,208.34184023000026,None,,,,,,,,,,,227,22,Female,2022-05-31_14h13.44.916,Main,2022.1.1,60.03539687000893,
negative,negative,2,j,l,,,,,,,,,1,8,26,9,,,,,,,,,,,,,,,,,,,,,,,,main,1,1,2,negative,negative,l,l,1,0.8188900999994075,208.36133489999975,209.37953939999989,209.34034369999972,None,208.36133489999975,None,208.36133489999975,None,208.36133489999975,None,210.16529622999943,None,210.16529622999943,None,210.16529622999943,None,,,,,,,,,,,227,22,Female,2022-05-31_14h13.44.916,Main,2022.1.1,60.03539687000893,
negative,neutral,2,j,l,,,,,,,,,1,9,27,12,,,,,,,,,,,,,,,,,,,,,,,,main,1,1,2,neutral,negative,l,l,1,0.7563823999998931,210.1847385000001,211.1988897000001,211.16019929999948,None,210.1847385000001,None,210.1847385000001,None,210.1847385000001,None,211.92201432999983,None,211.92201432999983,None,211.92201432999983,None,,,,,,,,,,,227,22,Female,2022-05-31_14h13.44.916,Main,2022.1.1,60.03539687000893,
neutral,neutral,1,k,k,,,,,,,,,1,10,28,1,,,,,,,,,,,,,,,,,,,,,,,,main,2,2,1,neutral,neutral,k,k,1,0.7367621000003055,211.94236480000018,212.9527539999999,212.91550610000013,None,211.94236480000018,None,211.94236480000018,None,211.94236480000018,None,213.66253342999963,None,213.66253342999963,None,213.66253342999963,None,,,,,,,,,,,227,22,Female,2022-05-31_14h13.44.916,Main,2022.1.1,60.03539687000893,
negative,negative,1,j,l,,,,,,,,,1,11,29,0,,,,,,,,,,,,,,,,,,,,,,,,main,1,1,1,negative,negative,l,l,1,0.7605112999999619,213.68122080000012,214.68678949999958,214.66869229999975,None,213.68122080000012,None,213.68122080000012,None,213.68122080000012,None,215.42411583000003,None,215.42411583000003,None,215.42411583000003,None,,,,,,,,,,,227,22,Female,2022-05-31_14h13.44.916,Main,2022.1.1,60.03539687000893,
negative,positive,2,j,l,,,,,,,,,1,12,30,15,,,,,,,,,,,,,,,,,,,,,,,,main,2,2,2,positive,negative,l,l,1,0.9282974999996441,215.44430629999988,216.45468939999955,216.41697269999986,None,215.44430629999988,None,215.44430629999988,None,215.44430629999988,None,217.3545965299999,None,217.3545965299999,None,217.3545965299999,None,,,,,,,,,,,227,22,Female,2022-05-31_14h13.44.916,Main,2022.1.1,60.03539687000893,
neutral,positive,2,k,k,,,,,,,,,1,13,31,13,,,,,,,,,,,,,,,,,,,,,,,,main,1,1,2,positive,neutral,k,k,1,0.7171724999998332,217.37459930000023,218.38760329999968,218.35093270000016,None,217.37459930000023,None,217.37459930000023,None,217.37459930000023,None,219.0758106299999,None,219.0758106299999,None,219.0758106299999,None,,,,,,,,,,,227,22,Female,2022-05-31_14h13.44.916,Main,2022.1.1,60.03539687000893,
positive,positive,1,l,j,,,,,,,,,1,14,32,2,,,,,,,,,,,,,,,,,,,,,,,,main,1,1,1,positive,positive,j,j,1,0.8954493999999613,219.0956924000002,220.10269119999975,220.08449159999964,None,219.0956924000002,None,219.0956924000002,None,219.0956924000002,None,220.97242732999976,None,220.97242732999976,None,220.97242732999976,None,,,,,,,,,,,227,22,Female,2022-05-31_14h13.44.916,Main,2022.1.1,60.03539687000893,
positive,negative,1,l,j,,,,,,,,,1,15,33,5,,,,,,,,,,,,,,,,,,,,,,,,main,1,1,1,negative,positive,j,j,1,0.6458173999999417,220.9918507000002,222.005134,221.96796219999942,None,220.9918507000002,None,220.9918507000002,None,220.9918507000002,None,222.62064382999952,None,222.62064382999952,None,222.62064382999952,None,,,,,,,,,,,227,22,Female,2022-05-31_14h13.44.916,Main,2022.1.1,60.03539687000893,
negative,neutral,1,j,l,,,,,,,,,1,16,34,3,,,,,,,,,,,,,,,,,,,,,,,,main,2,2,1,neutral,negative,l,l,1,0.8943352999995113,222.64101969999956,223.6518132000001,223.61523089999991,None,222.64101969999956,None,222.64101969999956,None,222.64101969999956,None,224.5171091299998,None,224.5171091299998,None,224.5171091299998,None,,,,,,,,,,,227,22,Female,2022-05-31_14h13.44.916,Main,2022.1.1,60.03539687000893,
neutral,neutral,2,k,k,,,,,,,,,1,17,35,10,,,,,,,,,,,,,,,,,,,,,,,,main,2,2,2,neutral,neutral,k,k,1,0.8283824000000095,224.53866049999942,225.55087159999948,225.51399729999957,None,224.53866049999942,None,224.53866049999942,None,224.53866049999942,None,226.3491625300002,None,226.3491625300002,None,226.3491625300002,None,,,,,,,,,,,227,22,Female,2022-05-31_14h13.44.916,Main,2022.1.1,60.03539687000893,
neutral,neutral,1,k,k,,,,,,,,,2,0,36,1,,,,,,,,,,,,,,,,,,,,,,,,main,2,2,1,neutral,neutral,k,k,1,0.749858299999687,226.36863259999973,227.37913490000028,227.36064850000002,None,226.36863259999973,None,226.36863259999973,None,226.36863259999973,None,228.10138322999947,None,228.10138322999947,None,228.10138322999947,None,,,,,,,,,,,227,22,Female,2022-05-31_14h13.44.916,Main,2022.1.1,60.03539687000893,
positive,neutral,1,l,j,,,,,,,,,2,1,37,8,,,,,,,,,,,,,,,,,,,,,,,,main,1,1,1,neutral,positive,j,j,1,0.7244006000000809,228.12098479999986,229.13097969999944,229.11238260000027,None,228.12098479999986,None,228.12098479999986,None,228.12098479999986,None,229.8303532299996,None,229.8303532299996,None,229.8303532299996,None,,,,,,,,,,,227,22,Female,2022-05-31_14h13.44.916,Main,2022.1.1,60.03539687000893,
negative,neutral,1,j,l,,,,,,,,,2,2,38,3,,,,,,,,,,,,,,,,,,,,,,,,main,2,2,1,neutral,negative,l,l,1,1.0407021000000896,229.8506557999999,230.85588999999982,230.83653069999946,None,229.8506557999999,None,229.8506557999999,None,229.8506557999999,None,231.87510952999938,None,231.87510952999938,None,231.87510952999938,None,,,,,,,,,,,227,22,Female,2022-05-31_14h13.44.916,Main,2022.1.1,60.03539687000893,
positive,positive,2,l,j,,,,,,,,,2,3,39,11,,,,,,,,,,,,,,,,,,,,,,,,main,2,2,2,positive,positive,j,j,1,1.0645814999998038,231.89476240000022,232.90712639999947,232.8707959000003,None,231.89476240000022,None,231.89476240000022,None,231.89476240000022,None,233.94215193000028,None,233.94215193000028,None,233.94215193000028,None,,,,,,,,,,,227,22,Female,2022-05-31_14h13.44.916,Main,2022.1.1,60.03539687000893,
positive,negative,2,l,j,,,,,,,,,2,4,40,14,,,,,,,,,,,,,,,,,,,,,,,,main,2,2,2,negative,positive,j,j,1,1.1554422999997769,233.9617215999997,234.96885139999995,234.9504820000002,None,233.9617215999997,None,233.9617215999997,None,233.9617215999997,None,236.09773082999973,None,236.09773082999973,None,236.09773082999973,None,,,,,,,,,,,227,22,Female,2022-05-31_14h13.44.916,Main,2022.1.1,60.03539687000893,
negative,positive,2,j,l,,,,,,,,,2,5,41,15,,,,,,,,,,,,,,,,,,,,,,,,main,2,2,2,positive,negative,l,l,1,1.005946700000095,236.11874739999985,237.13236210000014,237.09551959999953,None,236.11874739999985,None,236.11874739999985,None,236.11874739999985,None,238.10862143000023,None,238.10862143000023,None,238.10862143000023,None,,,,,,,,,,,227,22,Female,2022-05-31_14h13.44.916,Main,2022.1.1,60.03539687000893,
negative,neutral,2,j,l,,,,,,,,,2,6,42,12,,,,,,,,,,,,,,,,,,,,,,,,main,1,1,2,neutral,negative,l,l,1,0.766103099999782,238.12852440000006,239.13356699999986,239.115272,None,238.12852440000006,None,238.12852440000006,None,238.12852440000006,None,239.87765632999972,None,239.87765632999972,None,239.87765632999972,None,,,,,,,,,,,227,22,Female,2022-05-31_14h13.44.916,Main,2022.1.1,60.03539687000893,
negative,negative,1,j,l,,,,,,,,,2,7,43,0,,,,,,,,,,,,,,,,,,,,,,,,main,2,2,1,negative,negative,l,l,1,1.3416095000002315,239.8975271999998,240.9061112999998,240.86989240000003,None,239.8975271999998,None,239.8975271999998,None,239.8975271999998,None,242.21963373000008,None,242.21963373000008,None,242.21963373000008,None,,,,,,,,,,,227,22,Female,2022-05-31_14h13.44.916,Main,2022.1.1,60.03539687000893,
neutral,negative,1,k,k,,,,,,,,,2,8,44,7,,,,,,,,,,,,,,,,,,,,,,,,main,2,2,1,negative,neutral,k,k,1,1.0778786999999284,242.23989579999943,243.24977659999968,243.2132577000002,None,242.23989579999943,None,242.23989579999943,None,242.23989579999943,None,244.30041753000015,None,244.30041753000015,None,244.30041753000015,None,,,,,,,,,,,227,22,Female,2022-05-31_14h13.44.916,Main,2022.1.1,60.03539687000893,
neutral,positive,1,k,k,,,,,,,,,2,9,45,4,,,,,,,,,,,,,,,,,,,,,,,,main,2,2,1,positive,neutral,k,k,1,1.0950766999994812,244.32070399999975,245.32498609999948,245.30578530000003,None,244.32070399999975,None,244.32070399999975,None,244.32070399999975,None,246.39789852999994,None,246.39789852999994,None,246.39789852999994,None,,,,,,,,,,,227,22,Female,2022-05-31_14h13.44.916,Main,2022.1.1,60.03539687000893,
neutral,neutral,2,k,k,,,,,,,,,2,10,46,10,,,,,,,,,,,,,,,,,,,,,,,,main,1,1,2,neutral,neutral,k,k,1,0.8460395000001881,246.4175263999996,247.43073860000004,247.39334710000003,None,246.4175263999996,None,246.4175263999996,None,246.4175263999996,None,248.24683823000024,None,248.24683823000024,None,248.24683823000024,None,,,,,,,,,,,227,22,Female,2022-05-31_14h13.44.916,Main,2022.1.1,60.03539687000893,
positive,neutral,2,l,j,,,,,,,,,2,11,47,17,,,,,,,,,,,,,,,,,,,,,,,,main,2,2,2,neutral,positive,j,j,1,0.8117525000006935,248.26632210000025,249.2775219999994,249.23819409999942,None,248.26632210000025,None,248.26632210000025,None,248.26632210000025,None,250.06271382999958,None,250.06271382999958,None,250.06271382999958,None,,,,,,,,,,,227,22,Female,2022-05-31_14h13.44.916,Main,2022.1.1,60.03539687000893,
positive,positive,1,l,j,,,,,,,,,2,12,48,2,,,,,,,,,,,,,,,,,,,,,,,,main,1,1,1,positive,positive,j,j,1,0.8692875999995522,250.08370800000012,251.10299339999983,251.06570399999964,None,250.08370800000012,None,250.08370800000012,None,250.08370800000012,None,251.9333976299994,None,251.9333976299994,None,251.9333976299994,None,,,,,,,,,,,227,22,Female,2022-05-31_14h13.44.916,Main,2022.1.1,60.03539687000893,
neutral,positive,2,k,k,,,,,,,,,2,13,49,13,,,,,,,,,,,,,,,,,,,,,,,,main,1,1,2,positive,neutral,k,k,1,1.071661099999801,251.95798269999977,252.97367339999983,252.93618109999989,None,251.95798269999977,None,251.95798269999977,None,251.95798269999977,None,254.01027022999997,None,254.01027022999997,None,254.01027022999997,None,,,,,,,,,,,227,22,Female,2022-05-31_14h13.44.916,Main,2022.1.1,60.03539687000893,
negative,positive,1,j,l,,,,,,,,,2,14,50,6,,,,,,,,,,,,,,,,,,,,,,,,main,1,1,1,positive,negative,l,l,1,1.0432702999996764,254.02984529999958,255.03782030000002,255.01949869999953,None,254.02984529999958,None,254.02984529999958,None,254.02984529999958,None,256.05759723000017,None,256.05759723000017,None,256.05759723000017,None,,,,,,,,,,,227,22,Female,2022-05-31_14h13.44.916,Main,2022.1.1,60.03539687000893,
negative,negative,2,j,l,,,,,,,,,2,15,51,9,,,,,,,,,,,,,,,,,,,,,,,,main,2,2,2,negative,negative,l,l,1,1.0813728000002811,256.0761388000001,257.0864716999995,257.04924649999975,None,256.0761388000001,None,256.0761388000001,None,256.0761388000001,None,258.1415329299997,None,258.1415329299997,None,258.1415329299997,None,,,,,,,,,,,227,22,Female,2022-05-31_14h13.44.916,Main,2022.1.1,60.03539687000893,
positive,negative,1,l,j,,,,,,,,,2,16,52,5,,,,,,,,,,,,,,,,,,,,,,,,main,1,1,1,negative,positive,j,j,1,0.9289542999995319,258.16063140000006,259.1621508999997,259.14400190000015,None,258.16063140000006,None,258.16063140000006,None,258.16063140000006,None,260.0727243299997,None,260.0727243299997,None,260.0727243299997,None,,,,,,,,,,,227,22,Female,2022-05-31_14h13.44.916,Main,2022.1.1,60.03539687000893,
neutral,negative,2,k,k,,,,,,,,,2,17,53,16,,,,,,,,,,,,,,,,,,,,,,,,main,1,1,2,negative,neutral,k,k,1,0.8235107000000426,260.0922654999995,261.0991704999997,261.0808479999996,None,260.0922654999995,None,260.0922654999995,None,260.0922654999995,None,261.89678722999986,None,261.89678722999986,None,261.89678722999986,None,,,,,,,,,,,227,22,Female,2022-05-31_14h13.44.916,Main,2022.1.1,60.03539687000893,
positive,neutral,1,l,j,,,,,,,,,3,0,54,8,,,,,,,,,,,,,,,,,,,,,,,,main,1,1,1,neutral,positive,j,j,1,0.8456512000002476,261.9169204,262.93030389999967,262.89421369999945,None,261.9169204,None,261.9169204,None,261.9169204,None,263.74554703,None,263.74554703,None,263.74554703,None,,,,,,,,,,,227,22,Female,2022-05-31_14h13.44.916,Main,2022.1.1,60.03539687000893,
neutral,positive,2,k,k,,,,,,,,,3,1,55,13,,,,,,,,,,,,,,,,,,,,,,,,main,2,2,2,positive,neutral,k,k,1,1.0006258000003072,263.7657535999997,264.7760572999996,264.7391738999995,None,263.7657535999997,None,263.7657535999997,None,263.7657535999997,None,265.7485716299997,None,265.7485716299997,None,265.7485716299997,None,,,,,,,,,,,227,22,Female,2022-05-31_14h13.44.916,Main,2022.1.1,60.03539687000893,
positive,negative,1,l,j,,,,,,,,,3,2,56,5,,,,,,,,,,,,,,,,,,,,,,,,main,1,1,1,negative,positive,j,j,1,0.9662888000002567,265.76820919999955,266.78365269999995,266.74684849999994,None,265.76820919999955,None,265.76820919999955,None,265.76820919999955,None,267.7193031300002,None,267.7193031300002,None,267.7193031300002,None,,,,,,,,,,,227,22,Female,2022-05-31_14h13.44.916,Main,2022.1.1,60.03539687000893,
negative,positive,2,j,l,,,,,,,,,3,3,57,15,,,,,,,,,,,,,,,,,,,,,,,,main,1,1,2,positive,negative,l,l,1,0.9541922000007617,267.7382821000001,268.74798999999985,268.7122048000001,None,267.7382821000001,None,267.7382821000001,None,267.7382821000001,None,269.6757752299999,None,269.6757752299999,None,269.6757752299999,None,,,,,,,,,,,227,22,Female,2022-05-31_14h13.44.916,Main,2022.1.1,60.03539687000893,
neutral,negative,1,k,k,,,,,,,,,3,4,58,7,,,,,,,,,,,,,,,,,,,,,,,,main,1,1,1,negative,neutral,k,k,1,0.8795473000000129,269.6954274999998,270.70181890000003,270.68319840000004,None,269.6954274999998,None,269.6954274999998,None,269.6954274999998,None,271.5591997299997,None,271.5591997299997,None,271.5591997299997,None,,,,,,,,,,,227,22,Female,2022-05-31_14h13.44.916,Main,2022.1.1,60.03539687000893,
neutral,neutral,2,k,k,,,,,,,,,3,5,59,10,,,,,,,,,,,,,,,,,,,,,,,,main,2,2,2,neutral,neutral,k,k,1,0.935269600000538,271.57997220000016,272.5856802999997,272.5675062999999,None,271.57997220000016,None,271.57997220000016,None,271.57997220000016,None,273.49787783,None,273.49787783,None,273.49787783,None,,,,,,,,,,,227,22,Female,2022-05-31_14h13.44.916,Main,2022.1.1,60.03539687000893,
positive,neutral,2,l,j,,,,,,,,,3,6,60,17,,,,,,,,,,,,,,,,,,,,,,,,main,2,2,2,neutral,positive,j,j,1,0.9310080000004746,273.5217031000002,274.5415831999999,274.5013014999995,None,273.5217031000002,None,273.5217031000002,None,273.5217031000002,None,275.43119533000015,None,275.43119533000015,None,275.43119533000015,None,,,,,,,,,,,227,22,Female,2022-05-31_14h13.44.916,Main,2022.1.1,60.03539687000893,
neutral,negative,2,k,k,,,,,,,,,3,7,61,16,,,,,,,,,,,,,,,,,,,,,,,,main,2,2,2,negative,neutral,k,k,1,0.8516883000002053,275.45073129999946,276.46233029999985,276.42621059999965,None,275.45073129999946,None,275.45073129999946,None,275.45073129999946,None,277.28720203,None,277.28720203,None,277.28720203,None,,,,,,,,,,,227,22,Female,2022-05-31_14h13.44.916,Main,2022.1.1,60.03539687000893,
negative,neutral,1,j,l,,,,,,,,,3,8,62,3,,,,,,,,,,,,,,,,,,,,,,,,main,2,2,1,neutral,negative,l,l,1,1.5963651000001846,277.3066936999994,278.3180562999996,278.2807442000003,None,277.3066936999994,None,277.3066936999994,None,277.3066936999994,None,279.89243220000026,None,279.89243220000026,None,279.89243220000026,None,,,,,,,,,,,227,22,Female,2022-05-31_14h13.44.916,Main,2022.1.1,60.03539687000893,
neutral,positive,1,k,k,,,,,,,,,3,9,63,4,,,,,,,,,,,,,,,,,,,,,,,,main,2,2,1,positive,neutral,k,k,1,0.8370150000000649,280.9144746000002,281.9309019000002,281.8948671999997,None,280.9144746000002,None,280.9144746000002,None,280.9144746000002,None,282.73234842999943,None,282.73234842999943,None,282.73234842999943,None,,,,,,,,,,,227,22,Female,2022-05-31_14h13.44.916,Main,2022.1.1,60.03539687000893,
negative,negative,2,j,l,,,,,,,,,3,10,64,9,,,,,,,,,,,,,,,,,,,,,,,,main,1,1,2,negative,negative,l,l,1,0.9460680000001958,282.7518218999994,283.7643410999999,283.7276880999998,None,282.7518218999994,None,282.7518218999994,None,282.7518218999994,None,284.68309942999974,None,284.68309942999974,None,284.68309942999974,None,,,,,,,,,,,227,22,Female,2022-05-31_14h13.44.916,Main,2022.1.1,60.03539687000893,
positive,negative,2,l,j,,,,,,,,,3,11,65,14,,,,,,,,,,,,,,,,,,,,,,,,main,1,1,2,negative,positive,j,j,1,0.7353738000001613,284.70253839999987,285.7162035000001,285.6777598999997,None,284.70253839999987,None,284.70253839999987,None,284.70253839999987,None,286.4210328299995,None,286.4210328299995,None,286.4210328299995,None,,,,,,,,,,,227,22,Female,2022-05-31_14h13.44.916,Main,2022.1.1,60.03539687000893,
positive,positive,2,l,j,,,,,,,,,3,12,66,11,,,,,,,,,,,,,,,,,,,,,,,,main,1,1,2,positive,positive,j,j,1,0.7559860000001208,286.4406520000002,287.45639759999995,287.4180035999998,None,286.4406520000002,None,286.4406520000002,None,286.4406520000002,None,288.17752992999965,None,288.17752992999965,None,288.17752992999965,None,,,,,,,,,,,227,22,Female,2022-05-31_14h13.44.916,Main,2022.1.1,60.03539687000893,
neutral,neutral,1,k,k,,,,,,,,,3,13,67,1,,,,,,,,,,,,,,,,,,,,,,,,main,1,1,1,neutral,neutral,k,k,1,0.7536362999999255,288.1974871000002,289.2041358999995,289.1856560999995,None,288.1974871000002,None,288.1974871000002,None,288.1974871000002,None,289.93565603000013,None,289.93565603000013,None,289.93565603000013,None,,,,,,,,,,,227,22,Female,2022-05-31_14h13.44.916,Main,2022.1.1,60.03539687000893,
negative,negative,1,j,l,,,,,,,,,3,14,68,0,,,,,,,,,,,,,,,,,,,,,,,,main,2,2,1,negative,negative,l,l,1,1.0404842999996617,289.95508770000015,290.9689822,290.93185879999965,None,289.95508770000015,None,289.95508770000015,None,289.95508770000015,None,291.97688682999967,None,291.97688682999967,None,291.97688682999967,None,,,,,,,,,,,227,22,Female,2022-05-31_14h13.44.916,Main,2022.1.1,60.03539687000893,
negative,neutral,2,j,l,,,,,,,,,3,15,69,12,,,,,,,,,,,,,,,,,,,,,,,,main,1,1,2,neutral,negative,l,l,1,1.5183200999999826,291.9963855999995,293.00888570000006,292.97299159999966,None,291.9963855999995,None,291.9963855999995,None,291.9963855999995,None,294.50297649999993,None,294.50297649999993,None,294.50297649999993,None,,,,,,,,,,,227,22,Female,2022-05-31_14h13.44.916,Main,2022.1.1,60.03539687000893,
negative,positive,1,j,l,,,,,,,,,3,16,70,6,,,,,,,,,,,,,,,,,,,,,,,,main,1,1,1,positive,negative,l,l,1,0.7053585000003295,295.5288668000003,296.5303193999998,296.5115176999998,None,295.5288668000003,None,295.5288668000003,None,295.5288668000003,None,297.2177387299997,None,297.2177387299997,None,297.2177387299997,None,,,,,,,,,,,227,22,Female,2022-05-31_14h13.44.916,Main,2022.1.1,60.03539687000893,
positive,positive,1,l,j,,,,,,,,,3,17,71,2,,,,,,,,,,,,,,,,,,,,,,,,main,2,2,1,positive,positive,j,j,1,0.8457081999995353,297.2387211999994,298.2456258000002,298.22701849999976,None,297.2387211999994,None,297.2387211999994,None,297.2387211999994,None,299.06580932999975,None,299.06580932999975,None,299.06580932999975,None,,,,,,,,,,,227,22,Female,2022-05-31_14h13.44.916,Main,2022.1.1,60.03539687000893,
negative,negative,1,j,l,,,,,,,,,4,0,72,0,,,,,,,,,,,,,,,,,,,,,,,,main,2,2,1,negative,negative,l,l,1,1.130229400000644,299.0855081999998,300.0961394999995,300.0592936000003,None,299.0855081999998,None,299.0855081999998,None,299.0855081999998,None,301.1964933299995,None,301.1964933299995,None,301.1964933299995,None,,,,,,,,,,,227,22,Female,2022-05-31_14h13.44.916,Main,2022.1.1,60.03539687000893,
negative,positive,2,j,l,,,,,,,,,4,1,73,15,,,,,,,,,,,,,,,,,,,,,,,,main,2,2,2,positive,negative,l,l,1,0.9969485000001441,301.21660520000023,302.22184279999965,302.2028283999998,None,301.21660520000023,None,301.21660520000023,None,301.21660520000023,None,303.1963036300002,None,303.1963036300002,None,303.1963036300002,None,,,,,,,,,,,227,22,Female,2022-05-31_14h13.44.916,Main,2022.1.1,60.03539687000893,
positive,negative,2,l,j,,,,,,,,,4,2,74,14,,,,,,,,,,,,,,,,,,,,,,,,main,1,1,2,negative,positive,j,j,1,0.9084988999993584,303.21552079999947,304.2340715,304.21543139999994,None,303.21552079999947,None,303.21552079999947,None,303.21552079999947,None,305.10748993000004,None,305.10748993000004,None,305.10748993000004,None,,,,,,,,,,,227,22,Female,2022-05-31_14h13.44.916,Main,2022.1.1,60.03539687000893,
neutral,negative,1,k,k,,,,,,,,,4,3,75,7,,,,,,,,,,,,,,,,,,,,,,,,main,2,2,1,negative,neutral,k,k,1,0.8599625000006199,305.1288988999995,306.1477460999995,306.1108911000001,None,305.1288988999995,None,305.1288988999995,None,305.1288988999995,None,306.97141842999997,None,306.97141842999997,None,306.97141842999997,None,,,,,,,,,,,227,22,Female,2022-05-31_14h13.44.916,Main,2022.1.1,60.03539687000893,
neutral,positive,2,k,k,,,,,,,,,4,4,76,13,,,,,,,,,,,,,,,,,,,,,,,,main,2,2,2,positive,neutral,k,k,1,1.1323763999998846,306.99108369999976,308.0080667000002,307.9709885000002,None,306.99108369999976,None,306.99108369999976,None,306.99108369999976,None,309.10624862999964,None,309.10624862999964,None,309.10624862999964,None,,,,,,,,,,,227,22,Female,2022-05-31_14h13.44.916,Main,2022.1.1,60.03539687000893,
negative,neutral,1,j,l,,,,,,,,,4,5,77,3,,,,,,,,,,,,,,,,,,,,,,,,main,1,1,1,neutral,negative,l,l,1,1.0419699000003675,309.1265592,310.1302128999996,310.11265039999944,None,309.1265592,None,309.1265592,None,309.1265592,None,311.15218812999944,None,311.15218812999944,None,311.15218812999944,None,,,,,,,,,,,227,22,Female,2022-05-31_14h13.44.916,Main,2022.1.1,60.03539687000893,
negative,neutral,2,j,l,,,,,,,,,4,6,78,12,,,,,,,,,,,,,,,,,,,,,,,,main,1,1,2,neutral,negative,l,l,1,1.002129700000296,311.1721195,312.1728887999998,312.1549477999997,None,311.1721195,None,311.1721195,None,311.1721195,None,313.1570274300001,None,313.1570274300001,None,313.1570274300001,None,,,,,,,,,,,227,22,Female,2022-05-31_14h13.44.916,Main,2022.1.1,60.03539687000893,
neutral,negative,2,k,k,,,,,,,,,4,7,79,16,,,,,,,,,,,,,,,,,,,,,,,,main,1,1,2,negative,neutral,k,k,1,0.9343163999992612,313.1776665999996,314.1909753,314.1534664999999,None,313.1776665999996,None,313.1776665999996,None,313.1776665999996,None,315.0958082300002,None,315.0958082300002,None,315.0958082300002,None,,,,,,,,,,,227,22,Female,2022-05-31_14h13.44.916,Main,2022.1.1,60.03539687000893,
positive,positive,2,l,j,,,,,,,,,4,8,80,11,,,,,,,,,,,,,,,,,,,,,,,,main,2,2,2,positive,positive,j,j,1,0.9513084000000163,315.1154534999996,316.1207508999996,316.10258090000025,None,315.1154534999996,None,315.1154534999996,None,315.1154534999996,None,317.04966152999975,None,317.04966152999975,None,317.04966152999975,None,,,,,,,,,,,227,22,Female,2022-05-31_14h13.44.916,Main,2022.1.1,60.03539687000893,
positive,neutral,2,l,j,,,,,,,,,4,9,81,17,,,,,,,,,,,,,,,,,,,,,,,,main,1,1,2,neutral,positive,j,j,1,0.7876957000007678,317.0693861999998,318.0780230999999,318.0414946000001,None,317.0693861999998,None,317.0693861999998,None,317.0693861999998,None,318.8389639300002,None,318.8389639300002,None,318.8389639300002,None,,,,,,,,,,,227,22,Female,2022-05-31_14h13.44.916,Main,2022.1.1,60.03539687000893,
negative,negative,2,j,l,,,,,,,,,4,10,82,9,,,,,,,,,,,,,,,,,,,,,,,,main,2,2,2,negative,negative,l,l,1,0.8542711000000054,318.86003919999985,319.86546819999967,319.8453343000001,None,318.86003919999985,None,318.86003919999985,None,318.86003919999985,None,320.69840312999975,None,320.69840312999975,None,320.69840312999975,None,,,,,,,,,,,227,22,Female,2022-05-31_14h13.44.916,Main,2022.1.1,60.03539687000893,
neutral,positive,1,k,k,,,,,,,,,4,11,83,4,,,,,,,,,,,,,,,,,,,,,,,,main,1,1,1,positive,neutral,k,k,1,0.7152655999998387,320.7179017999997,321.7256471999999,321.68902249999974,None,320.7179017999997,None,320.7179017999997,None,320.7179017999997,None,322.4158495299997,None,322.4158495299997,None,322.4158495299997,None,,,,,,,,,,,227,22,Female,2022-05-31_14h13.44.916,Main,2022.1.1,60.03539687000893,
neutral,neutral,1,k,k,,,,,,,,,4,12,84,1,,,,,,,,,,,,,,,,,,,,,,,,main,1,1,1,neutral,neutral,k,k,1,0.8028717000006509,322.43503820000024,323.45079350000015,323.4131373,None,322.43503820000024,None,322.43503820000024,None,322.43503820000024,None,324.22005032999994,None,324.22005032999994,None,324.22005032999994,None,,,,,,,,,,,227,22,Female,2022-05-31_14h13.44.916,Main,2022.1.1,60.03539687000893,
positive,neutral,1,l,j,,,,,,,,,4,13,85,8,,,,,,,,,,,,,,,,,,,,,,,,main,2,2,1,neutral,positive,j,j,1,0.8680992999998125,324.2407226999994,325.2421453999996,325.2237561000002,None,324.2407226999994,None,324.2407226999994,None,324.2407226999994,None,326.09017582999957,None,326.09017582999957,None,326.09017582999957,None,,,,,,,,,,,227,22,Female,2022-05-31_14h13.44.916,Main,2022.1.1,60.03539687000893,
negative,positive,1,j,l,,,,,,,,,4,14,86,6,,,,,,,,,,,,,,,,,,,,,,,,main,1,1,1,positive,negative,l,l,1,1.0169513000000734,326.1110864000002,327.12543170000026,327.08911269999953,None,326.1110864000002,None,326.1110864000002,None,326.1110864000002,None,328.1103332299998,None,328.1103332299998,None,328.1103332299998,None,,,,,,,,,,,227,22,Female,2022-05-31_14h13.44.916,Main,2022.1.1,60.03539687000893,
positive,positive,1,l,j,,,,,,,,,4,15,87,2,,,,,,,,,,,,,,,,,,,,,,,,main,2,2,1,positive,positive,j,j,1,0.796221599999626,328.13097800000014,329.13481429999956,329.1158409999998,None,328.13097800000014,None,328.13097800000014,None,328.13097800000014,None,329.9098820299995,None,329.9098820299995,None,329.9098820299995,None,,,,,,,,,,,227,22,Female,2022-05-31_14h13.44.916,Main,2022.1.1,60.03539687000893,
positive,negative,1,l,j,,,,,,,,,4,16,88,5,,,,,,,,,,,,,,,,,,,,,,,,main,1,1,1,negative,positive,j,j,1,0.844173899999987,329.92951769999945,330.9370108000003,330.91870759999983,None,329.92951769999945,None,329.92951769999945,None,329.92951769999945,None,331.75569643000006,None,331.75569643000006,None,331.75569643000006,None,,,,,,,,,,,227,22,Female,2022-05-31_14h13.44.916,Main,2022.1.1,60.03539687000893,
neutral,neutral,2,k,k,,,,,,,,,4,17,89,10,,,,,,,,,,,,,,,,,,,,,,,,main,1,1,2,neutral,neutral,k,k,1,0.8188139000003503,331.77620509999997,332.7925666000001,332.7541140000003,None,331.77620509999997,None,331.77620509999997,None,331.77620509999997,None,333.57937132999984,None,333.57937132999984,None,333.57937132999984,None,,,,,,,,,,,227,22,Female,2022-05-31_14h13.44.916,Main,2022.1.1,60.03539687000893,
negative,positive,1,j,l,,,,,,,,,5,0,90,6,,,,,,,,,,,,,,,,,,,,,,,,main,1,1,1,positive,negative,l,l,1,0.9410599000002549,333.5990219999994,334.61008200000015,334.57256919999963,None,333.5990219999994,None,333.5990219999994,None,333.5990219999994,None,335.52145953000024,None,335.52145953000024,None,335.52145953000024,None,,,,,,,,,,,227,22,Female,2022-05-31_14h13.44.916,Main,2022.1.1,60.03539687000893,
positive,negative,2,l,j,,,,,,,,,5,1,91,14,,,,,,,,,,,,,,,,,,,,,,,,main,2,2,2,negative,positive,j,j,1,1.176758699999482,335.54312310000023,336.55405509999946,336.5175935999996,None,335.54312310000023,None,335.54312310000023,None,335.54312310000023,None,337.70221303000005,None,337.70221303000005,None,337.70221303000005,None,,,,,,,,,,,227,22,Female,2022-05-31_14h13.44.916,Main,2022.1.1,60.03539687000893,
neutral,negative,1,k,k,,,,,,,,,5,2,92,7,,,,,,,,,,,,,,,,,,,,,,,,main,1,1,1,negative,neutral,k,k,1,0.8751975999994102,337.7231793000001,338.73112949999995,338.6937455999996,None,337.7231793000001,None,337.7231793000001,None,337.7231793000001,None,339.5814303300002,None,339.5814303300002,None,339.5814303300002,None,,,,,,,,,,,227,22,Female,2022-05-31_14h13.44.916,Main,2022.1.1,60.03539687000893,
negative,neutral,1,j,l,,,,,,,,,5,3,93,3,,,,,,,,,,,,,,,,,,,,,,,,main,1,1,1,neutral,negative,l,l,1,1.1882410999996864,339.6015284999994,340.60970739999993,340.5732716000002,None,339.6015284999994,None,339.6015284999994,None,339.6015284999994,None,341.77019293,None,341.77019293,None,341.77019293,None,,,,,,,,,,,227,22,Female,2022-05-31_14h13.44.916,Main,2022.1.1,60.03539687000893,
neutral,positive,2,k,k,,,,,,,,,5,4,94,13,,,,,,,,,,,,,,,,,,,,,,,,main,1,1,2,positive,neutral,k,k,1,0.8912582000002658,341.79174109999985,342.8094650000003,342.7732275999997,None,341.79174109999985,None,341.79174109999985,None,341.79174109999985,None,343.66609553000023,None,343.66609553000023,None,343.66609553000023,None,,,,,,,,,,,227,22,Female,2022-05-31_14h13.44.916,Main,2022.1.1,60.03539687000893,
positive,positive,2,l,j,,,,,,,,,5,5,95,11,,,,,,,,,,,,,,,,,,,,,,,,main,2,2,2,positive,positive,j,j,1,0.9247115999996822,343.68514400000004,344.70202580000023,344.66551679999975,None,343.68514400000004,None,343.68514400000004,None,343.68514400000004,None,345.5953257299997,None,345.5953257299997,None,345.5953257299997,None,,,,,,,,,,,227,22,Female,2022-05-31_14h13.44.916,Main,2022.1.1,60.03539687000893,
neutral,neutral,1,k,k,,,,,,,,,5,6,96,1,,,,,,,,,,,,,,,,,,,,,,,,main,1,1,1,neutral,neutral,k,k,1,0.8397261000000071,345.6157797999995,346.62307359999977,346.5865769000002,None,345.6157797999995,None,345.6157797999995,None,345.6157797999995,None,347.4356535300002,None,347.4356535300002,None,347.4356535300002,None,,,,,,,,,,,227,22,Female,2022-05-31_14h13.44.916,Main,2022.1.1,60.03539687000893,
neutral,neutral,2,k,k,,,,,,,,,5,7,97,10,,,,,,,,,,,,,,,,,,,,,,,,main,2,2,2,neutral,neutral,k,k,1,0.8262290000002395,347.45647180000014,348.46619329999976,348.44728099999975,None,347.45647180000014,None,347.45647180000014,None,347.45647180000014,None,349.2660729299995,None,349.2660729299995,None,349.2660729299995,None,,,,,,,,,,,227,22,Female,2022-05-31_14h13.44.916,Main,2022.1.1,60.03539687000893,
positive,negative,1,l,j,,,,,,,,,5,8,98,5,,,,,,,,,,,,,,,,,,,,,,,,main,2,2,1,negative,positive,j,j,1,0.9273066999994626,349.2869485000001,350.3014162999998,350.264083,None,349.2869485000001,None,349.2869485000001,None,349.2869485000001,None,351.19749512999977,None,351.19749512999977,None,351.19749512999977,None,,,,,,,,,,,227,22,Female,2022-05-31_14h13.44.916,Main,2022.1.1,60.03539687000893,
positive,positive,1,l,j,,,,,,,,,5,9,99,2,,,,,,,,,,,,,,,,,,,,,,,,main,2,2,1,positive,positive,j,j,1,0.8178107000003365,351.21806800000013,352.2354789000001,352.1984531999997,None,351.21806800000013,None,351.21806800000013,None,351.21806800000013,None,353.01878702999954,None,353.01878702999954,None,353.01878702999954,None,,,,,,,,,,,227,22,Female,2022-05-31_14h13.44.916,Main,2022.1.1,60.03539687000893,
positive,neutral,1,l,j,,,,,,,,,5,10,100,8,,,,,,,,,,,,,,,,,,,,,,,,main,1,1,1,neutral,positive,j,j,1,0.7305392999996911,353.0393148000003,354.04947749999974,354.01091929999984,None,353.0393148000003,None,353.0393148000003,None,353.0393148000003,None,354.75152952999986,None,354.75152952999986,None,354.75152952999986,None,,,,,,,,,,,227,22,Female,2022-05-31_14h13.44.916,Main,2022.1.1,60.03539687000893,
positive,neutral,2,l,j,,,,,,,,,5,11,101,17,,,,,,,,,,,,,,,,,,,,,,,,main,2,2,2,neutral,positive,j,j,1,0.23872019999998884,354.7728271999995,355.7865915000002,355.7494509999997,None,354.7728271999995,None,354.7728271999995,None,354.7728271999995,None,355.99449703000016,None,355.99449703000016,None,355.99449703000016,None,,,,,,,,,,,227,22,Female,2022-05-31_14h13.44.916,Main,2022.1.1,60.03539687000893,
negative,neutral,2,j,l,,,,,,,,,5,12,102,12,,,,,,,,,,,,,,,,,,,,,,,,main,1,1,2,neutral,negative,l,l,1,0.9455625000000509,356.01403049999954,357.01877609999974,357.0007673,None,356.01403049999954,None,356.01403049999954,None,356.01403049999954,None,357.9424238299997,None,357.9424238299997,None,357.9424238299997,None,,,,,,,,,,,227,22,Female,2022-05-31_14h13.44.916,Main,2022.1.1,60.03539687000893,
neutral,negative,2,k,k,,,,,,,,,5,13,103,16,,,,,,,,,,,,,,,,,,,,,,,,main,2,2,2,negative,neutral,k,k,1,0.7965336000006573,357.9615051999999,358.9696321000001,358.9339265999997,None,357.9615051999999,None,357.9615051999999,None,357.9615051999999,None,359.74016913,None,359.74016913,None,359.74016913,None,,,,,,,,,,,227,22,Female,2022-05-31_14h13.44.916,Main,2022.1.1,60.03539687000893,
negative,negative,1,j,l,,,,,,,,,5,14,104,0,,,,,,,,,,,,,,,,,,,,,,,,main,2,2,1,negative,negative,l,l,1,0.99910330000057,359.7615151,360.7734350999999,360.7369325999998,None,359.7615151,None,359.7615151,None,359.7615151,None,361.7432044300002,None,361.7432044300002,None,361.7432044300002,None,,,,,,,,,,,227,22,Female,2022-05-31_14h13.44.916,Main,2022.1.1,60.03539687000893,
negative,negative,2,j,l,,,,,,,,,5,15,105,9,,,,,,,,,,,,,,,,,,,,,,,,main,2,2,2,negative,negative,l,l,1,1.0247299000002386,361.7624334000002,362.7693011000001,362.75124030000006,None,361.7624334000002,None,361.7624334000002,None,361.7624334000002,None,363.76865842999985,None,363.76865842999985,None,363.76865842999985,None,,,,,,,,,,,227,22,Female,2022-05-31_14h13.44.916,Main,2022.1.1,60.03539687000893,
negative,positive,2,j,l,,,,,,,,,5,16,106,15,,,,,,,,,,,,,,,,,,,,,,,,main,1,1,2,positive,negative,l,l,1,0.9005817999995998,363.7878400999998,364.80108349999955,364.7646341999998,None,363.7878400999998,None,363.7878400999998,None,363.7878400999998,None,365.67345742999976,None,365.67345742999976,None,365.67345742999976,None,,,,,,,,,,,227,22,Female,2022-05-31_14h13.44.916,Main,2022.1.1,60.03539687000893,
neutral,positive,1,k,k,,,,,,,,,5,17,107,4,,,,,,,,,,,,,,,,,,,,,,,,main,2,2,1,positive,neutral,k,k,1,0.9604785999999876,365.6959225999999,366.7067470000002,366.66978990000007,None,365.6959225999999,None,365.6959225999999,None,365.6959225999999,None,367.6349963299998,None,367.6349963299998,None,367.6349963299998,None,,,,,,,,,,,227,22,Female,2022-05-31_14h13.44.916,Main,2022.1.1,60.03539687000893,
positive,neutral,2,l,j,,,,,,,,,6,0,108,17,,,,,,,,,,,,,,,,,,,,,,,,main,1,1,2,neutral,positive,j,j,1,0.7962154999995619,367.65560879999975,368.6715548000002,368.63480139999956,None,367.65560879999975,None,367.65560879999975,None,367.65560879999975,None,369.4337808299996,None,369.4337808299996,None,369.4337808299996,None,,,,,,,,,,,227,22,Female,2022-05-31_14h13.44.916,Main,2022.1.1,60.03539687000893,
positive,positive,2,l,j,,,,,,,,,6,1,109,11,,,,,,,,,,,,,,,,,,,,,,,,main,2,2,2,positive,positive,j,j,1,0.7559118999997736,369.4535162000002,370.46554599999945,370.4278035999996,None,369.4535162000002,None,369.4535162000002,None,369.4535162000002,None,371.19335743,None,371.19335743,None,371.19335743,None,,,,,,,,,,,227,22,Female,2022-05-31_14h13.44.916,Main,2022.1.1,60.03539687000893,
neutral,positive,2,k,k,,,,,,,,,6,2,110,13,,,,,,,,,,,,,,,,,,,,,,,,main,1,1,2,positive,neutral,k,k,1,0.8325888999997915,371.21434409999983,372.21794129999944,372.1995301999996,None,371.21434409999983,None,371.21434409999983,None,371.21434409999983,None,373.02906982999946,None,373.02906982999946,None,373.02906982999946,None,,,,,,,,,,,227,22,Female,2022-05-31_14h13.44.916,Main,2022.1.1,60.03539687000893,
positive,negative,2,l,j,,,,,,,,,6,3,111,14,,,,,,,,,,,,,,,,,,,,,,,,main,1,1,2,negative,positive,j,j,1,0.9032585000004474,373.0498263999998,374.0655410999998,374.02938279999944,None,373.0498263999998,None,373.0498263999998,None,373.0498263999998,None,374.93515543,None,374.93515543,None,374.93515543,None,,,,,,,,,,,227,22,Female,2022-05-31_14h13.44.916,Main,2022.1.1,60.03539687000893,
neutral,positive,1,k,k,,,,,,,,,6,4,112,4,,,,,,,,,,,,,,,,,,,,,,,,main,1,1,1,positive,neutral,k,k,1,0.7955398999993122,374.95490679999966,375.9620063000002,375.9434432999997,None,374.95490679999966,None,374.95490679999966,None,374.95490679999966,None,376.7332104300002,None,376.7332104300002,None,376.7332104300002,None,,,,,,,,,,,227,22,Female,2022-05-31_14h13.44.916,Main,2022.1.1,60.03539687000893,
neutral,negative,1,k,k,,,,,,,,,6,5,113,7,,,,,,,,,,,,,,,,,,,,,,,,main,2,2,1,negative,neutral,k,k,1,0.753811499999756,376.7530289999995,377.7617731999999,377.7430623,None,376.7530289999995,None,376.7530289999995,None,376.7530289999995,None,378.49093442999936,None,378.49093442999936,None,378.49093442999936,None,,,,,,,,,,,227,22,Female,2022-05-31_14h13.44.916,Main,2022.1.1,60.03539687000893,
positive,positive,1,l,j,,,,,,,,,6,6,114,2,,,,,,,,,,,,,,,,,,,,,,,,main,1,1,1,positive,positive,j,j,1,0.8639571000003343,378.5102885999995,379.5150298999997,379.4951173999998,None,378.5102885999995,None,378.5102885999995,None,378.5102885999995,None,380.35744993000014,None,380.35744993000014,None,380.35744993000014,None,,,,,,,,,,,227,22,Female,2022-05-31_14h13.44.916,Main,2022.1.1,60.03539687000893,
positive,neutral,1,l,j,,,,,,,,,6,7,115,8,,,,,,,,,,,,,,,,,,,,,,,,main,2,2,1,neutral,positive,j,j,1,0.9427843000003122,380.37684100000024,381.38340119999975,381.3650872999997,None,380.37684100000024,None,380.37684100000024,None,380.37684100000024,None,382.3007881299999,None,382.3007881299999,None,382.3007881299999,None,,,,,,,,,,,227,22,Female,2022-05-31_14h13.44.916,Main,2022.1.1,60.03539687000893,
neutral,negative,2,k,k,,,,,,,,,6,8,116,16,,,,,,,,,,,,,,,,,,,,,,,,main,2,2,2,negative,neutral,k,k,1,0.8867184999999154,382.3215745999996,383.33125779999955,383.3130666999996,None,382.3215745999996,None,382.3215745999996,None,382.3215745999996,None,384.1975472499994,None,384.1975472499994,None,384.1975472499994,None,,,,,,,,,,,227,22,Female,2022-05-31_14h13.44.916,Main,2022.1.1,60.03539687000893,
negative,neutral,2,j,l,,,,,,,,,6,9,117,12,,,,,,,,,,,,,,,,,,,,,,,,main,1,1,2,neutral,negative,l,l,1,0.9788652999995975,384.21148079999966,385.2184798999997,385.2003638999995,None,384.21148079999966,None,384.21148079999966,None,384.21148079999966,None,386.17462712999975,None,386.17462712999975,None,386.17462712999975,None,,,,,,,,,,,227,22,Female,2022-05-31_14h13.44.916,Main,2022.1.1,60.03539687000893,
negative,negative,1,j,l,,,,,,,,,6,10,118,0,,,,,,,,,,,,,,,,,,,,,,,,main,1,1,1,negative,negative,l,l,1,1.0868230000005497,386.1938904999997,387.19755069999974,387.1784147999997,None,386.1938904999997,None,386.1938904999997,None,386.1938904999997,None,388.26195732999975,None,388.26195732999975,None,388.26195732999975,None,,,,,,,,,,,227,22,Female,2022-05-31_14h13.44.916,Main,2022.1.1,60.03539687000893,
neutral,neutral,2,k,k,,,,,,,,,6,11,119,10,,,,,,,,,,,,,,,,,,,,,,,,main,1,1,2,neutral,neutral,k,k,1,0.7344382000001133,388.2831400999994,389.2947525999998,389.25778549999995,None,388.2831400999994,None,388.2831400999994,None,388.2831400999994,None,389.9992303299995,None,389.9992303299995,None,389.9992303299995,None,,,,,,,,,,,227,22,Female,2022-05-31_14h13.44.916,Main,2022.1.1,60.03539687000893,
negative,positive,2,j,l,,,,,,,,,6,12,120,15,,,,,,,,,,,,,,,,,,,,,,,,main,2,2,2,positive,negative,l,l,1,0.870255000000725,390.0224644,391.03244709999944,390.9960590999999,None,390.0224644,None,390.0224644,None,390.0224644,None,391.8731864299997,None,391.8731864299997,None,391.8731864299997,None,,,,,,,,,,,227,22,Female,2022-05-31_14h13.44.916,Main,2022.1.1,60.03539687000893,
negative,neutral,1,j,l,,,,,,,,,6,13,121,3,,,,,,,,,,,,,,,,,,,,,,,,main,1,1,1,neutral,negative,l,l,1,0.6665889999994761,391.8938529999996,392.89562449999994,392.87728640000023,None,391.8938529999996,None,391.8938529999996,None,391.8938529999996,None,393.54281093,None,393.54281093,None,393.54281093,None,,,,,,,,,,,227,22,Female,2022-05-31_14h13.44.916,Main,2022.1.1,60.03539687000893,
neutral,neutral,1,k,k,,,,,,,,,6,14,122,1,,,,,,,,,,,,,,,,,,,,,,,,main,2,2,1,neutral,neutral,k,k,1,0.788756499999181,393.5633041000001,394.5778025999998,394.54096709999976,None,393.5633041000001,None,393.5633041000001,None,393.5633041000001,None,395.3344921299994,None,395.3344921299994,None,395.3344921299994,None,,,,,,,,,,,227,22,Female,2022-05-31_14h13.44.916,Main,2022.1.1,60.03539687000893,
negative,positive,1,j,l,,,,,,,,,6,15,123,6,,,,,,,,,,,,,,,,,,,,,,,,main,1,1,1,positive,negative,l,l,1,0.8251605999994354,395.35580349999964,396.3605564999998,396.3420520999998,None,395.35580349999964,None,395.35580349999964,None,395.35580349999964,None,397.16194532999987,None,397.16194532999987,None,397.16194532999987,None,,,,,,,,,,,227,22,Female,2022-05-31_14h13.44.916,Main,2022.1.1,60.03539687000893,
positive,negative,1,l,j,,,,,,,,,6,16,124,5,,,,,,,,,,,,,,,,,,,,,,,,main,1,1,1,negative,positive,j,j,1,0.9435997999999017,397.1811656,398.19611669999995,398.1595615999995,None,397.1811656,None,397.1811656,None,397.1811656,None,399.10947423000005,None,399.10947423000005,None,399.10947423000005,None,,,,,,,,,,,227,22,Female,2022-05-31_14h13.44.916,Main,2022.1.1,60.03539687000893,
negative,negative,2,j,l,,,,,,,,,6,17,125,9,,,,,,,,,,,,,,,,,,,,,,,,main,1,1,2,negative,negative,l,l,1,0.8760964000002787,399.12931070000013,400.1349150999995,400.1172455999995,None,399.12931070000013,None,399.12931070000013,None,399.12931070000013,None,400.9901571299996,None,400.9901571299996,None,400.9901571299996,None,,,,,,,,,,,227,22,Female,2022-05-31_14h13.44.916,Main,2022.1.1,60.03539687000893,
neutral,neutral,1,k,k,,,,,,,,,7,0,126,1,,,,,,,,,,,,,,,,,,,,,,,,main,2,2,1,neutral,neutral,k,k,1,0.7716205999995509,401.0093385,402.0186303999999,401.9825229999997,None,401.0093385,None,401.0093385,None,401.0093385,None,402.7620862299999,None,402.7620862299999,None,402.7620862299999,None,,,,,,,,,,,227,22,Female,2022-05-31_14h13.44.916,Main,2022.1.1,60.03539687000893,
positive,neutral,1,l,j,,,,,,,,,7,1,127,8,,,,,,,,,,,,,,,,,,,,,,,,main,2,2,1,neutral,positive,j,j,1,0.9393909000000349,402.7825935000001,403.79539509999995,403.75882269999966,None,402.7825935000001,None,402.7825935000001,None,402.7825935000001,None,404.70630052999957,None,404.70630052999957,None,404.70630052999957,None,,,,,,,,,,,227,22,Female,2022-05-31_14h13.44.916,Main,2022.1.1,60.03539687000893,
neutral,negative,1,k,k,,,,,,,,,7,2,128,7,,,,,,,,,,,,,,,,,,,,,,,,main,2,2,1,negative,neutral,k,k,1,0.9377655999996932,404.7268716999997,405.7440637999998,405.7061733999999,None,404.7268716999997,None,404.7268716999997,None,404.7268716999997,None,406.6466069299994,None,406.6466069299994,None,406.6466069299994,None,,,,,,,,,,,227,22,Female,2022-05-31_14h13.44.916,Main,2022.1.1,60.03539687000893,
positive,negative,2,l,j,,,,,,,,,7,3,129,14,,,,,,,,,,,,,,,,,,,,,,,,main,2,2,2,negative,positive,j,j,1,0.788657900000544,406.6661376000002,407.67622440000014,407.63927820000026,None,406.6661376000002,None,406.6661376000002,None,406.6661376000002,None,408.43833682999946,None,408.43833682999946,None,408.43833682999946,None,,,,,,,,,,,227,22,Female,2022-05-31_14h13.44.916,Main,2022.1.1,60.03539687000893,
negative,neutral,1,j,l,,,,,,,,,7,4,130,3,,,,,,,,,,,,,,,,,,,,,,,,main,2,2,1,neutral,negative,l,l,1,1.220704499999556,408.4593802999998,409.4607906000001,409.44231239999954,None,408.4593802999998,None,408.4593802999998,None,408.4593802999998,None,410.66250622999985,None,410.66250622999985,None,410.66250622999985,None,,,,,,,,,,,227,22,Female,2022-05-31_14h13.44.916,Main,2022.1.1,60.03539687000893,
negative,positive,1,j,l,,,,,,,,,7,5,131,6,,,,,,,,,,,,,,,,,,,,,,,,main,2,2,1,positive,negative,l,l,1,0.810039300000426,410.68338380000023,411.70005990000027,411.66211289999956,None,410.68338380000023,None,410.68338380000023,None,410.68338380000023,None,412.4753730299998,None,412.4753730299998,None,412.4753730299998,None,,,,,,,,,,,227,22,Female,2022-05-31_14h13.44.916,Main,2022.1.1,60.03539687000893,
neutral,positive,2,k,k,,,,,,,,,7,6,132,13,,,,,,,,,,,,,,,,,,,,,,,,main,2,2,2,positive,neutral,k,k,1,0.8256828000003225,412.49598530000003,413.5030399999996,413.4839766999994,None,412.49598530000003,None,412.49598530000003,None,412.49598530000003,None,414.3051333299999,None,414.3051333299999,None,414.3051333299999,None,,,,,,,,,,,227,22,Female,2022-05-31_14h13.44.916,Main,2022.1.1,60.03539687000893,
negative,negative,2,j,l,,,,,,,,,7,7,133,9,,,,,,,,,,,,,,,,,,,,,,,,main,1,1,2,negative,negative,l,l,1,0.9316757999995389,414.3260991999996,415.3440469999996,415.3080878999999,None,414.3260991999996,None,414.3260991999996,None,414.3260991999996,None,416.23981653,None,416.23981653,None,416.23981653,None,,,,,,,,,,,227,22,Female,2022-05-31_14h13.44.916,Main,2022.1.1,60.03539687000893,
neutral,negative,2,k,k,,,,,,,,,7,8,134,16,,,,,,,,,,,,,,,,,,,,,,,,main,2,2,2,negative,neutral,k,k,1,0.8560974000001806,416.2595212999995,417.26364039999953,417.24567879999995,None,416.2595212999995,None,416.2595212999995,None,416.2595212999995,None,418.10021193,None,418.10021193,None,418.10021193,None,,,,,,,,,,,227,22,Female,2022-05-31_14h13.44.916,Main,2022.1.1,60.03539687000893,
negative,neutral,2,j,l,,,,,,,,,7,9,135,12,,,,,,,,,,,,,,,,,,,,,,,,main,2,2,2,neutral,negative,l,l,1,0.9520855000000665,418.1195173999995,419.1270070999999,419.1086972000003,None,418.1195173999995,None,418.1195173999995,None,418.1195173999995,None,420.0550421299994,None,420.0550421299994,None,420.0550421299994,None,,,,,,,,,,,227,22,Female,2022-05-31_14h13.44.916,Main,2022.1.1,60.03539687000893,
neutral,neutral,2,k,k,,,,,,,,,7,10,136,10,,,,,,,,,,,,,,,,,,,,,,,,main,1,1,2,neutral,neutral,k,k,1,0.8941580999999132,420.07461479999984,421.09223529999963,421.0564174000001,None,420.07461479999984,None,420.07461479999984,None,420.07461479999984,None,421.9524081299995,None,421.9524081299995,None,421.9524081299995,None,,,,,,,,,,,227,22,Female,2022-05-31_14h13.44.916,Main,2022.1.1,60.03539687000893,
positive,neutral,2,l,j,,,,,,,,,7,11,137,17,,,,,,,,,,,,,,,,,,,,,,,,main,2,2,2,neutral,positive,j,j,1,0.9091739000004964,421.97134339999957,422.9892334999995,422.95202789999985,None,421.97134339999957,None,421.97134339999957,None,421.97134339999957,None,423.8623397299997,None,423.8623397299997,None,423.8623397299997,None,,,,,,,,,,,227,22,Female,2022-05-31_14h13.44.916,Main,2022.1.1,60.03539687000893,
positive,positive,1,l,j,,,,,,,,,7,12,138,2,,,,,,,,,,,,,,,,,,,,,,,,main,1,1,1,positive,positive,j,j,1,0.7497987000006106,423.88206999999966,424.89482529999987,424.85840310000003,None,423.88206999999966,None,423.88206999999966,None,423.88206999999966,None,425.6133862300002,None,425.6133862300002,None,425.6133862300002,None,,,,,,,,,,,227,22,Female,2022-05-31_14h13.44.916,Main,2022.1.1,60.03539687000893,
positive,positive,2,l,j,,,,,,,,,7,13,139,11,,,,,,,,,,,,,,,,,,,,,,,,main,2,2,2,positive,positive,j,j,1,0.9106148999999277,425.6345844999996,426.64983649999976,426.61267099999986,None,425.6345844999996,None,425.6345844999996,None,425.6345844999996,None,427.52726532999975,None,427.52726532999975,None,427.52726532999975,None,,,,,,,,,,,227,22,Female,2022-05-31_14h13.44.916,Main,2022.1.1,60.03539687000893,
negative,positive,2,j,l,,,,,,,,,7,14,140,15,,,,,,,,,,,,,,,,,,,,,,,,main,1,1,2,positive,negative,l,l,1,0.8801881999997931,427.5473003999996,428.55551019999984,428.5368947999996,None,427.5473003999996,None,427.5473003999996,None,427.5473003999996,None,429.4102801299995,None,429.4102801299995,None,429.4102801299995,None,,,,,,,,,,,227,22,Female,2022-05-31_14h13.44.916,Main,2022.1.1,60.03539687000893,
negative,negative,1,j,l,,,,,,,,,7,15,141,0,,,,,,,,,,,,,,,,,,,,,,,,main,1,1,1,negative,negative,l,l,1,0.8334163999998054,429.4315101000002,430.44543280000016,430.4083992999995,None,429.4315101000002,None,429.4315101000002,None,429.4315101000002,None,431.2488320299998,None,431.2488320299998,None,431.2488320299998,None,,,,,,,,,,,227,22,Female,2022-05-31_14h13.44.916,Main,2022.1.1,60.03539687000893,
neutral,positive,1,k,k,,,,,,,,,7,16,142,4,,,,,,,,,,,,,,,,,,,,,,,,main,1,1,1,positive,neutral,k,k,1,0.8881010000004608,431.26819539999997,432.2860595000002,432.2482904999997,None,431.26819539999997,None,431.26819539999997,None,431.26819539999997,None,433.1389965299994,None,433.1389965299994,None,433.1389965299994,None,,,,,,,,,,,227,22,Female,2022-05-31_14h13.44.916,Main,2022.1.1,60.03539687000893,
positive,negative,1,l,j,,,,,,,,,7,17,143,5,,,,,,,,,,,,,,,,,,,,,,,,main,1,1,1,negative,positive,j,j,1,0.8384762000005139,433.15910799999983,434.1785332999998,434.1408956999994,None,433.15910799999983,None,433.15910799999983,None,433.15910799999983,None,434.98161052999956,None,434.98161052999956,None,434.98161052999956,None,,,,,,,,,,,227,22,Female,2022-05-31_14h13.44.916,Main,2022.1.1,60.03539687000893,
neutral,negative,1,k,k,,,,,,,,,8,0,144,7,,,,,,,,,,,,,,,,,,,,,,,,main,1,1,1,negative,neutral,k,k,1,0.7680919999993421,435.0014123000001,436.0071435,435.9888584,None,435.0014123000001,None,435.0014123000001,None,435.0014123000001,None,436.7524118299997,None,436.7524118299997,None,436.7524118299997,None,,,,,,,,,,,227,22,Female,2022-05-31_14h13.44.916,Main,2022.1.1,60.03539687000893,
neutral,positive,1,k,k,,,,,,,,,8,1,145,4,,,,,,,,,,,,,,,,,,,,,,,,main,1,1,1,positive,neutral,k,k,1,0.8919946000005439,436.77303669999947,437.7786916999994,437.7602931000001,None,436.77303669999947,None,436.77303669999947,None,436.77303669999947,None,438.64559393000025,None,438.64559393000025,None,438.64559393000025,None,,,,,,,,,,,227,22,Female,2022-05-31_14h13.44.916,Main,2022.1.1,60.03539687000893,
negative,negative,1,j,l,,,,,,,,,8,2,146,0,,,,,,,,,,,,,,,,,,,,,,,,main,2,2,1,negative,negative,l,l,1,0.9261059000000387,438.6652795,439.67933509999966,439.64002830000027,None,438.6652795,None,438.6652795,None,438.6652795,None,440.57455582999944,None,440.57455582999944,None,440.57455582999944,None,,,,,,,,,,,227,22,Female,2022-05-31_14h13.44.916,Main,2022.1.1,60.03539687000893,
neutral,neutral,1,k,k,,,,,,,,,8,3,147,1,,,,,,,,,,,,,,,,,,,,,,,,main,1,1,1,neutral,neutral,k,k,1,0.9987651999999798,440.59397530000024,441.6115668000002,441.5757672,None,440.59397530000024,None,440.59397530000024,None,440.59397530000024,None,442.57601362999947,None,442.57601362999947,None,442.57601362999947,None,,,,,,,,,,,227,22,Female,2022-05-31_14h13.44.916,Main,2022.1.1,60.03539687000893,
negative,neutral,2,j,l,,,,,,,,,8,4,148,12,,,,,,,,,,,,,,,,,,,,,,,,main,1,1,2,neutral,negative,l,l,1,0.9095782999993389,442.5987352000002,443.6140800000003,443.5865752999998,None,442.5987352000002,None,442.5987352000002,None,442.5987352000002,None,444.4892305299999,None,444.4892305299999,None,444.4892305299999,None,,,,,,,,,,,227,22,Female,2022-05-31_14h13.44.916,Main,2022.1.1,60.03539687000893,
positive,positive,2,l,j,,,,,,,,,8,5,149,11,,,,,,,,,,,,,,,,,,,,,,,,main,2,2,2,positive,positive,j,j,1,0.9125187999998161,444.51029709999966,445.5131040999995,445.49492680000003,None,444.51029709999966,None,444.51029709999966,None,444.51029709999966,None,446.40511032999973,None,446.40511032999973,None,446.40511032999973,None,,,,,,,,,,,227,22,Female,2022-05-31_14h13.44.916,Main,2022.1.1,60.03539687000893,
neutral,neutral,2,k,k,,,,,,,,,8,6,150,10,,,,,,,,,,,,,,,,,,,,,,,,main,2,2,2,neutral,neutral,k,k,1,0.9660973999998532,446.4259046999996,447.4265282999995,447.4084084999995,None,446.4259046999996,None,446.4259046999996,None,446.4259046999996,None,448.3725296299998,None,448.3725296299998,None,448.3725296299998,None,,,,,,,,,,,227,22,Female,2022-05-31_14h13.44.916,Main,2022.1.1,60.03539687000893,
neutral,positive,2,k,k,,,,,,,,,8,7,151,13,,,,,,,,,,,,,,,,,,,,,,,,main,2,2,2,positive,neutral,k,k,1,0.8093953999996302,448.3938443999996,449.4096030999999,449.37345970000024,None,448.3938443999996,None,448.3938443999996,None,448.3938443999996,None,450.1864417300002,None,450.1864417300002,None,450.1864417300002,None,,,,,,,,,,,227,22,Female,2022-05-31_14h13.44.916,Main,2022.1.1,60.03539687000893,
negative,neutral,1,j,l,,,,,,,,,8,8,152,3,,,,,,,,,,,,,,,,,,,,,,,,main,1,1,1,neutral,negative,l,l,1,0.8174066999999923,450.2058514999999,451.22428669999954,451.1875602,None,450.2058514999999,None,450.2058514999999,None,450.2058514999999,None,452.0066064299998,None,452.0066064299998,None,452.0066064299998,None,,,,,,,,,,,227,22,Female,2022-05-31_14h13.44.916,Main,2022.1.1,60.03539687000893,
positive,neutral,1,l,j,,,,,,,,,8,9,153,8,,,,,,,,,,,,,,,,,,,,,,,,main,2,2,1,neutral,positive,j,j,1,1.1171141000004354,452.0261633,453.0312981999996,453.01131970000006,None,452.0261633,None,452.0261633,None,452.0261633,None,454.12633602999983,None,454.12633602999983,None,454.12633602999983,None,,,,,,,,,,,227,22,Female,2022-05-31_14h13.44.916,Main,2022.1.1,60.03539687000893,
negative,positive,2,j,l,,,,,,,,,8,10,154,15,,,,,,,,,,,,,,,,,,,,,,,,main,2,2,2,positive,negative,l,l,1,0.8040413999997327,454.14713349999965,455.16055179999967,455.1237592999996,None,454.14713349999965,None,454.14713349999965,None,454.14713349999965,None,455.93434803000025,None,455.93434803000025,None,455.93434803000025,None,,,,,,,,,,,227,22,Female,2022-05-31_14h13.44.916,Main,2022.1.1,60.03539687000893,
positive,negative,2,l,j,,,,,,,,,8,11,155,14,,,,,,,,,,,,,,,,,,,,,,,,main,1,1,2,negative,positive,j,j,1,0.7785801999998512,455.95398509999995,456.9580449999994,456.93977129999985,None,455.95398509999995,None,455.95398509999995,None,455.95398509999995,None,457.71564233000015,None,457.71564233000015,None,457.71564233000015,None,,,,,,,,,,,227,22,Female,2022-05-31_14h13.44.916,Main,2022.1.1,60.03539687000893,
positive,neutral,2,l,j,,,,,,,,,8,12,156,17,,,,,,,,,,,,,,,,,,,,,,,,main,2,2,2,neutral,positive,j,j,1,0.7678996999993615,457.7370340999996,458.7431107000002,458.7246471999997,None,457.7370340999996,None,457.7370340999996,None,457.7370340999996,None,459.4877479300002,None,459.4877479300002,None,459.4877479300002,None,,,,,,,,,,,227,22,Female,2022-05-31_14h13.44.916,Main,2022.1.1,60.03539687000893,
positive,negative,1,l,j,,,,,,,,,8,13,157,5,,,,,,,,,,,,,,,,,,,,,,,,main,1,1,1,negative,positive,j,j,1,0.864644700000099,459.5074932999996,460.5189425999997,460.4820012,None,459.5074932999996,None,459.5074932999996,None,459.5074932999996,None,461.3546680299995,None,461.3546680299995,None,461.3546680299995,None,,,,,,,,,,,227,22,Female,2022-05-31_14h13.44.916,Main,2022.1.1,60.03539687000893,
negative,positive,1,j,l,,,,,,,,,8,14,158,6,,,,,,,,,,,,,,,,,,,,,,,,main,2,2,1,positive,negative,l,l,1,0.8217349000005925,461.3746492,462.38239929999963,462.3638043000001,None,461.3746492,None,461.3746492,None,461.3746492,None,463.1796814299995,None,463.1796814299995,None,463.1796814299995,None,,,,,,,,,,,227,22,Female,2022-05-31_14h13.44.916,Main,2022.1.1,60.03539687000893,
positive,positive,1,l,j,,,,,,,,,8,15,159,2,,,,,,,,,,,,,,,,,,,,,,,,main,2,2,1,positive,positive,j,j,1,0.906855600000199,463.20063609999943,464.2102009,464.1748617000003,None,463.20063609999943,None,463.20063609999943,None,463.20063609999943,None,465.08724292999966,None,465.08724292999966,None,465.08724292999966,None,,,,,,,,,,,227,22,Female,2022-05-31_14h13.44.916,Main,2022.1.1,60.03539687000893,
neutral,negative,2,k,k,,,,,,,,,8,16,160,16,,,,,,,,,,,,,,,,,,,,,,,,main,1,1,2,negative,neutral,k,k,1,0.8466024999997899,465.1079595000001,466.1226001999994,466.0867183999999,None,465.1079595000001,None,465.1079595000001,None,465.1079595000001,None,466.93812052999954,None,466.93812052999954,None,466.93812052999954,None,,,,,,,,,,,227,22,Female,2022-05-31_14h13.44.916,Main,2022.1.1,60.03539687000893,
negative,negative,2,j,l,,,,,,,,,8,17,161,9,,,,,,,,,,,,,,,,,,,,,,,,main,2,2,2,negative,negative,l,l,1,0.8637239999998201,466.95774729999994,467.95892559999993,467.9410177,None,466.95774729999994,None,466.95774729999994,None,466.95774729999994,None,468.8038349299994,None,468.8038349299994,None,468.8038349299994,None,,,,,,,,,,,227,22,Female,2022-05-31_14h13.44.916,Main,2022.1.1,60.03539687000893,
positive,neutral,2,l,j,,,,,,,,,9,0,162,17,,,,,,,,,,,,,,,,,,,,,,,,main,2,2,2,neutral,positive,j,j,1,0.7472724999997808,468.8235545999996,469.82547030000023,469.8072581999995,None,468.8235545999996,None,468.8235545999996,None,468.8235545999996,None,470.5535924300001,None,470.5535924300001,None,470.5535924300001,None,,,,,,,,,,,227,22,Female,2022-05-31_14h13.44.916,Main,2022.1.1,60.03539687000893,
neutral,neutral,2,k,k,,,,,,,,,9,1,163,10,,,,,,,,,,,,,,,,,,,,,,,,main,2,2,2,neutral,neutral,k,k,1,0.7487716000005094,470.5735847999995,471.5777680000001,471.5587399999995,None,470.5735847999995,None,470.5735847999995,None,470.5735847999995,None,472.3046447300002,None,472.3046447300002,None,472.3046447300002,None,,,,,,,,,,,227,22,Female,2022-05-31_14h13.44.916,Main,2022.1.1,60.03539687000893,
negative,neutral,1,j,l,,,,,,,,,9,2,164,3,,,,,,,,,,,,,,,,,,,,,,,,main,1,1,1,neutral,negative,l,l,1,0.6980202000004283,472.32485410000027,473.3456801000002,473.29906440000013,None,472.32485410000027,None,472.32485410000027,None,472.32485410000027,None,474.00475082999935,None,474.00475082999935,None,474.00475082999935,None,,,,,,,,,,,227,22,Female,2022-05-31_14h13.44.916,Main,2022.1.1,60.03539687000893,
positive,neutral,1,l,j,,,,,,,,,9,3,165,8,,,,,,,,,,,,,,,,,,,,,,,,main,2,2,1,neutral,positive,j,j,1,0.7632511000001614,474.0250286999999,475.0364215999998,474.99953540000024,None,474.0250286999999,None,474.0250286999999,None,474.0250286999999,None,475.7711312299997,None,475.7711312299997,None,475.7711312299997,None,,,,,,,,,,,227,22,Female,2022-05-31_14h13.44.916,Main,2022.1.1,60.03539687000893,
positive,negative,2,l,j,,,,,,,,,9,4,166,14,,,,,,,,,,,,,,,,,,,,,,,,main,2,2,2,negative,positive,j,j,1,0.7140485999998418,475.79088129999946,476.81055389999983,476.7727636999998,None,475.79088129999946,None,475.79088129999946,None,475.79088129999946,None,477.4874109299998,None,477.4874109299998,None,477.4874109299998,None,,,,,,,,,,,227,22,Female,2022-05-31_14h13.44.916,Main,2022.1.1,60.03539687000893,
neutral,positive,2,k,k,,,,,,,,,9,5,167,13,,,,,,,,,,,,,,,,,,,,,,,,main,2,2,2,positive,neutral,k,k,1,0.7991598999997223,477.50766209999983,478.52427629999966,478.4876169999998,None,477.50766209999983,None,477.50766209999983,None,477.50766209999983,None,479.2884097300001,None,479.2884097300001,None,479.2884097300001,None,,,,,,,,,,,227,22,Female,2022-05-31_14h13.44.916,Main,2022.1.1,60.03539687000893,
negative,positive,2,j,l,,,,,,,,,9,6,168,15,,,,,,,,,,,,,,,,,,,,,,,,main,2,2,2,positive,negative,l,l,1,0.9246044000001348,479.3093865999999,480.32227710000006,480.28583329999947,None,479.3093865999999,None,479.3093865999999,None,479.3093865999999,None,481.2162245299995,None,481.2162245299995,None,481.2162245299995,None,,,,,,,,,,,227,22,Female,2022-05-31_14h13.44.916,Main,2022.1.1,60.03539687000893,
neutral,neutral,1,k,k,,,,,,,,,9,7,169,1,,,,,,,,,,,,,,,,,,,,,,,,main,1,1,1,neutral,neutral,k,k,1,0.8736065000002782,481.2360480999996,482.2524166000003,482.21530600000006,None,481.2360480999996,None,481.2360480999996,None,481.2360480999996,None,483.09481262999986,None,483.09481262999986,None,483.09481262999986,None,,,,,,,,,,,227,22,Female,2022-05-31_14h13.44.916,Main,2022.1.1,60.03539687000893,
positive,positive,2,l,j,,,,,,,,,9,8,170,11,,,,,,,,,,,,,,,,,,,,,,,,main,2,2,2,positive,positive,j,j,1,0.8067228999998406,483.1156511999998,484.1217310000002,484.1041065999998,None,483.1156511999998,None,483.1156511999998,None,483.1156511999998,None,484.90255143,None,484.90255143,None,484.90255143,None,,,,,,,,,,,227,22,Female,2022-05-31_14h13.44.916,Main,2022.1.1,60.03539687000893,
neutral,negative,1,k,k,,,,,,,,,9,9,171,7,,,,,,,,,,,,,,,,,,,,,,,,main,2,2,1,negative,neutral,k,k,1,1.3457430000007662,484.9232530999998,485.9317611999995,485.9129310999997,None,484.9232530999998,None,484.9232530999998,None,484.9232530999998,None,487.25083753000024,None,487.25083753000024,None,487.25083753000024,None,,,,,,,,,,,227,22,Female,2022-05-31_14h13.44.916,Main,2022.1.1,60.03539687000893,
neutral,negative,2,k,k,,,,,,,,,9,10,172,16,,,,,,,,,,,,,,,,,,,,,,,,main,1,1,2,negative,neutral,k,k,1,0.7715311000001748,487.2707502000003,488.28558109999994,488.2486977999997,None,487.2707502000003,None,487.2707502000003,None,487.2707502000003,None,489.02708772999983,None,489.02708772999983,None,489.02708772999983,None,,,,,,,,,,,227,22,Female,2022-05-31_14h13.44.916,Main,2022.1.1,60.03539687000893,
positive,negative,1,l,j,,,,,,,,,9,11,173,5,,,,,,,,,,,,,,,,,,,,,,,,main,1,1,1,negative,positive,j,l,0,1.1014559000004738,489.0458521999999,490.05420460000005,490.01808699999947,None,489.0458521999999,None,489.0458521999999,None,489.0458521999999,None,491.13665500000025,None,491.13665500000025,None,491.13665500000025,None,,,,,,,,,,,227,22,Female,2022-05-31_14h13.44.916,Main,2022.1.1,60.03539687000893,
negative,positive,1,j,l,,,,,,,,,9,12,174,6,,,,,,,,,,,,,,,,,,,,,,,,main,1,1,1,positive,negative,l,l,1,0.9706488000001627,492.15336209999987,493.1594463000001,493.14038809999965,None,492.15336209999987,None,492.15336209999987,None,492.15336209999987,None,494.1072324300002,None,494.1072324300002,None,494.1072324300002,None,,,,,,,,,,,227,22,Female,2022-05-31_14h13.44.916,Main,2022.1.1,60.03539687000893,
negative,negative,2,j,l,,,,,,,,,9,13,175,9,,,,,,,,,,,,,,,,,,,,,,,,main,2,2,2,negative,negative,l,l,1,0.9516822999994474,494.1272528999998,495.1297979000001,495.11131789999945,None,494.1272528999998,None,494.1272528999998,None,494.1272528999998,None,496.0617959299997,None,496.0617959299997,None,496.0617959299997,None,,,,,,,,,,,227,22,Female,2022-05-31_14h13.44.916,Main,2022.1.1,60.03539687000893,
positive,positive,1,l,j,,,,,,,,,9,14,176,2,,,,,,,,,,,,,,,,,,,,,,,,main,1,1,1,positive,positive,j,j,1,1.2626055999999153,496.0824055000003,497.0867258999997,497.06827559999965,None,496.0824055000003,None,496.0824055000003,None,496.0824055000003,None,498.3297774299998,None,498.3297774299998,None,498.3297774299998,None,,,,,,,,,,,227,22,Female,2022-05-31_14h13.44.916,Main,2022.1.1,60.03539687000893,
neutral,positive,1,k,k,,,,,,,,,9,15,177,4,,,,,,,,,,,,,,,,,,,,,,,,main,2,2,1,positive,neutral,k,k,1,0.8848574999992707,498.350469,499.36127919999944,499.32324270000026,None,498.350469,None,498.350469,None,498.350469,None,500.21621092999965,None,500.21621092999965,None,500.21621092999965,None,,,,,,,,,,,227,22,Female,2022-05-31_14h13.44.916,Main,2022.1.1,60.03539687000893,
negative,negative,1,j,l,,,,,,,,,9,16,178,0,,,,,,,,,,,,,,,,,,,,,,,,main,1,1,1,negative,negative,l,l,1,1.0710641000005126,500.2382708999994,501.24192589999984,501.2234004000002,None,500.2382708999994,None,500.2382708999994,None,500.2382708999994,None,502.29222992999973,None,502.29222992999973,None,502.29222992999973,None,,,,,,,,,,,227,22,Female,2022-05-31_14h13.44.916,Main,2022.1.1,60.03539687000893,
negative,neutral,2,j,l,,,,,,,,,9,17,179,12,,,,,,,,,,,,,,,,,,,,,,,,main,2,2,2,neutral,negative,l,l,1,0.8431909999999334,502.3120872999998,503.3196926999999,503.3016171999998,None,502.3120872999998,None,502.3120872999998,None,502.3120872999998,None,504.13643412999943,None,504.13643412999943,None,504.13643412999943,None,,,,,,,,,,,227,22,Female,2022-05-31_14h13.44.916,Main,2022.1.1,60.03539687000893,
negative,positive,2,j,l,,,,,,,,,10,0,180,15,,,,,,,,,,,,,,,,,,,,,,,,main,2,2,2,positive,negative,l,l,1,0.9736227000003055,504.1560970999999,505.1717716000003,505.13487689999965,None,504.1560970999999,None,504.1560970999999,None,504.1560970999999,None,506.1124984299994,None,506.1124984299994,None,506.1124984299994,None,,,,,,,,,,,227,22,Female,2022-05-31_14h13.44.916,Main,2022.1.1,60.03539687000893,
negative,neutral,1,j,l,,,,,,,,,10,1,181,3,,,,,,,,,,,,,,,,,,,,,,,,main,2,2,1,neutral,negative,l,l,1,0.7609054000004107,506.1329601999996,507.13838659999965,507.12023260000024,None,506.1329601999996,None,506.1329601999996,None,506.1329601999996,None,507.87690692999956,None,507.87690692999956,None,507.87690692999956,None,,,,,,,,,,,227,22,Female,2022-05-31_14h13.44.916,Main,2022.1.1,60.03539687000893,
positive,negative,1,l,j,,,,,,,,,10,2,182,5,,,,,,,,,,,,,,,,,,,,,,,,main,2,2,1,negative,positive,j,j,1,0.7957055999995646,507.8981182999996,508.91184559999965,508.8746747999994,None,507.8981182999996,None,507.8981182999996,None,507.8981182999996,None,509.6783896300002,None,509.6783896300002,None,509.6783896300002,None,,,,,,,,,,,227,22,Female,2022-05-31_14h13.44.916,Main,2022.1.1,60.03539687000893,
positive,neutral,2,l,j,,,,,,,,,10,3,183,17,,,,,,,,,,,,,,,,,,,,,,,,main,2,2,2,neutral,positive,j,j,1,0.7381580999999642,509.69920600000023,510.70056620000014,510.68243509999957,None,509.69920600000023,None,509.69920600000023,None,509.69920600000023,None,511.4219248299995,None,511.4219248299995,None,511.4219248299995,None,,,,,,,,,,,227,22,Female,2022-05-31_14h13.44.916,Main,2022.1.1,60.03539687000893,
neutral,neutral,2,k,k,,,,,,,,,10,4,184,10,,,,,,,,,,,,,,,,,,,,,,,,main,2,2,2,neutral,neutral,k,k,1,0.7846882000003461,511.44235560000016,512.4543667999997,512.4181643000002,None,511.44235560000016,None,511.44235560000016,None,511.44235560000016,None,513.2089386299994,None,513.2089386299994,None,513.2089386299994,None,,,,,,,,,,,227,22,Female,2022-05-31_14h13.44.916,Main,2022.1.1,60.03539687000893,
positive,negative,2,l,j,,,,,,,,,10,5,185,14,,,,,,,,,,,,,,,,,,,,,,,,main,2,2,2,negative,positive,j,j,1,0.7811651000001802,513.2277186000001,514.2313088999999,514.2133870999996,None,513.2277186000001,None,513.2277186000001,None,513.2277186000001,None,514.9929372300002,None,514.9929372300002,None,514.9929372300002,None,,,,,,,,,,,227,22,Female,2022-05-31_14h13.44.916,Main,2022.1.1,60.03539687000893,
negative,positive,1,j,l,,,,,,,,,10,6,186,6,,,,,,,,,,,,,,,,,,,,,,,,main,2,2,1,positive,negative,l,l,1,0.7717098000002807,515.0140420999996,516.0252738999998,515.9871599999997,None,515.0140420999996,None,515.0140420999996,None,515.0140420999996,None,516.7674739299999,None,516.7674739299999,None,516.7674739299999,None,,,,,,,,,,,227,22,Female,2022-05-31_14h13.44.916,Main,2022.1.1,60.03539687000893,
negative,negative,2,j,l,,,,,,,,,10,7,187,9,,,,,,,,,,,,,,,,,,,,,,,,main,2,2,2,negative,negative,l,l,1,0.960986199999752,516.7871673999998,517.8063616,517.7683815999999,None,516.7871673999998,None,516.7871673999998,None,516.7871673999998,None,518.7314702299999,None,518.7314702299999,None,518.7314702299999,None,,,,,,,,,,,227,22,Female,2022-05-31_14h13.44.916,Main,2022.1.1,60.03539687000893,
neutral,positive,1,k,k,,,,,,,,,10,8,188,4,,,,,,,,,,,,,,,,,,,,,,,,main,2,2,1,positive,neutral,k,k,1,0.8206708999996408,518.7507364000003,519.7528222999999,519.7345917000002,None,518.7507364000003,None,518.7507364000003,None,518.7507364000003,None,520.5544259299994,None,520.5544259299994,None,520.5544259299994,None,,,,,,,,,,,227,22,Female,2022-05-31_14h13.44.916,Main,2022.1.1,60.03539687000893,
neutral,positive,2,k,k,,,,,,,,,10,9,189,13,,,,,,,,,,,,,,,,,,,,,,,,main,1,1,2,positive,neutral,k,k,1,0.7749840999995286,520.5751884000001,521.5859064999995,521.5513762999999,None,520.5751884000001,None,520.5751884000001,None,520.5751884000001,None,522.3314648300001,None,522.3314648300001,None,522.3314648300001,None,,,,,,,,,,,227,22,Female,2022-05-31_14h13.44.916,Main,2022.1.1,60.03539687000893,
neutral,neutral,1,k,k,,,,,,,,,10,10,190,1,,,,,,,,,,,,,,,,,,,,,,,,main,2,2,1,neutral,neutral,k,k,1,0.8307842000003802,522.3510934999995,523.3557757999997,523.3357172999995,None,522.3510934999995,None,522.3510934999995,None,522.3510934999995,None,524.1641615299994,None,524.1641615299994,None,524.1641615299994,None,,,,,,,,,,,227,22,Female,2022-05-31_14h13.44.916,Main,2022.1.1,60.03539687000893,
negative,negative,1,j,l,,,,,,,,,10,11,191,0,,,,,,,,,,,,,,,,,,,,,,,,main,2,2,1,negative,negative,l,l,1,1.1690753000002587,524.1844123999999,525.1995506000003,525.1632901000003,None,524.1844123999999,None,524.1844123999999,None,524.1844123999999,None,526.33766043,None,526.33766043,None,526.33766043,None,,,,,,,,,,,227,22,Female,2022-05-31_14h13.44.916,Main,2022.1.1,60.03539687000893,
neutral,negative,2,k,k,,,,,,,,,10,12,192,16,,,,,,,,,,,,,,,,,,,,,,,,main,1,1,2,negative,neutral,k,k,1,0.8092563000000155,526.3575027999996,527.3736280000003,527.3553676000001,None,526.3575027999996,None,526.3575027999996,None,526.3575027999996,None,528.1482734299997,None,528.1482734299997,None,528.1482734299997,None,,,,,,,,,,,227,22,Female,2022-05-31_14h13.44.916,Main,2022.1.1,60.03539687000893,
positive,neutral,1,l,j,,,,,,,,,10,13,193,8,,,,,,,,,,,,,,,,,,,,,,,,main,1,1,1,neutral,positive,j,j,1,0.7117154999996274,528.1689233999996,529.1834506999994,529.1474165,None,528.1689233999996,None,528.1689233999996,None,528.1689233999996,None,529.8618565300002,None,529.8618565300002,None,529.8618565300002,None,,,,,,,,,,,227,22,Female,2022-05-31_14h13.44.916,Main,2022.1.1,60.03539687000893,
neutral,negative,1,k,k,,,,,,,,,10,14,194,7,,,,,,,,,,,,,,,,,,,,,,,,main,1,1,1,negative,neutral,k,k,1,0.7214663000004293,529.8821175000003,530.9007009999996,530.8641853999998,None,529.8821175000003,None,529.8821175000003,None,529.8821175000003,None,531.5881613299997,None,531.5881613299997,None,531.5881613299997,None,,,,,,,,,,,227,22,Female,2022-05-31_14h13.44.916,Main,2022.1.1,60.03539687000893,
positive,positive,1,l,j,,,,,,,,,10,15,195,2,,,,,,,,,,,,,,,,,,,,,,,,main,2,2,1,positive,positive,j,j,1,1.0981399000002057,531.6072156,532.6097473999998,532.5908537999994,None,531.6072156,None,531.6072156,None,531.6072156,None,533.6888454299996,None,533.6888454299996,None,533.6888454299996,None,,,,,,,,,,,227,22,Female,2022-05-31_14h13.44.916,Main,2022.1.1,60.03539687000893,
negative,neutral,2,j,l,,,,,,,,,10,16,196,12,,,,,,,,,,,,,,,,,,,,,,,,main,1,1,2,neutral,negative,l,l,1,0.7152656999996907,533.7079935000002,534.7207720999995,534.6816787999996,None,533.7079935000002,None,533.7079935000002,None,533.7079935000002,None,535.4065521299998,None,535.4065521299998,None,535.4065521299998,None,,,,,,,,,,,227,22,Female,2022-05-31_14h13.44.916,Main,2022.1.1,60.03539687000893,
positive,positive,2,l,j,,,,,,,,,10,17,197,11,,,,,,,,,,,,,,,,,,,,,,,,main,1,1,2,positive,positive,j,j,1,0.9347893000003751,535.4262104999998,536.4296712999994,536.4113736999998,None,535.4262104999998,None,535.4262104999998,None,535.4262104999998,None,537.34249713,None,537.34249713,None,537.34249713,None,,,,,,,,,,,227,22,Female,2022-05-31_14h13.44.916,Main,2022.1.1,60.03539687000893,
positive,positive,2,l,j,,,,,,,,,11,0,198,11,,,,,,,,,,,,,,,,,,,,,,,,main,1,1,2,positive,positive,j,j,1,0.7382834999998522,537.3625562999996,538.3681713999995,538.3500113999999,None,537.3625562999996,None,537.3625562999996,None,537.3625562999996,None,539.0838594300002,None,539.0838594300002,None,539.0838594300002,None,,,,,,,,,,,227,22,Female,2022-05-31_14h13.44.916,Main,2022.1.1,60.03539687000893,
neutral,neutral,2,k,k,,,,,,,,,11,1,199,10,,,,,,,,,,,,,,,,,,,,,,,,main,2,2,2,neutral,neutral,k,k,1,0.8138537999993787,539.1047266999994,540.1098259999999,540.0911171999996,None,539.1047266999994,None,539.1047266999994,None,539.1047266999994,None,540.8995304299996,None,540.8995304299996,None,540.8995304299996,None,,,,,,,,,,,227,22,Female,2022-05-31_14h13.44.916,Main,2022.1.1,60.03539687000893,
negative,neutral,2,j,l,,,,,,,,,11,2,200,12,,,,,,,,,,,,,,,,,,,,,,,,main,2,2,2,neutral,negative,l,l,1,0.8437699999994948,540.9195092,541.9262719999997,541.9079147000002,None,540.9195092,None,540.9195092,None,540.9195092,None,542.74587083,None,542.74587083,None,542.74587083,None,,,,,,,,,,,227,22,Female,2022-05-31_14h13.44.916,Main,2022.1.1,60.03539687000893,
positive,positive,1,l,j,,,,,,,,,11,3,201,2,,,,,,,,,,,,,,,,,,,,,,,,main,2,2,1,positive,positive,j,j,1,0.8288546000003407,542.7657670999997,543.7674489000001,543.7489258999994,None,542.7657670999997,None,542.7657670999997,None,542.7657670999997,None,544.5774157300001,None,544.5774157300001,None,544.5774157300001,None,,,,,,,,,,,227,22,Female,2022-05-31_14h13.44.916,Main,2022.1.1,60.03539687000893,
neutral,positive,2,k,k,,,,,,,,,11,4,202,13,,,,,,,,,,,,,,,,,,,,,,,,main,2,2,2,positive,neutral,k,k,1,1.1805943999997908,544.5990283000001,545.6106944000003,545.5745913999999,None,544.5990283000001,None,544.5990283000001,None,544.5990283000001,None,546.7617881300001,None,546.7617881300001,None,546.7617881300001,None,,,,,,,,,,,227,22,Female,2022-05-31_14h13.44.916,Main,2022.1.1,60.03539687000893,
neutral,positive,1,k,k,,,,,,,,,11,5,203,4,,,,,,,,,,,,,,,,,,,,,,,,main,2,2,1,positive,neutral,k,k,1,0.7320334999994884,546.783394,547.7923793,547.7736667999998,None,546.783394,None,546.783394,None,546.783394,None,548.4994362300002,None,548.4994362300002,None,548.4994362300002,None,,,,,,,,,,,227,22,Female,2022-05-31_14h13.44.916,Main,2022.1.1,60.03539687000893,
neutral,negative,1,k,k,,,,,,,,,11,6,204,7,,,,,,,,,,,,,,,,,,,,,,,,main,1,1,1,negative,neutral,k,k,1,1.3642307000000073,548.5188178999997,549.5254586000001,549.5071096000001,None,548.5188178999997,None,548.5188178999997,None,548.5188178999997,None,550.8651189299998,None,550.8651189299998,None,550.8651189299998,None,,,,,,,,,,,227,22,Female,2022-05-31_14h13.44.916,Main,2022.1.1,60.03539687000893,
neutral,negative,2,k,k,,,,,,,,,11,7,205,16,,,,,,,,,,,,,,,,,,,,,,,,main,1,1,2,negative,neutral,k,k,1,0.6776364000006652,550.8857521,551.9020482999995,551.8645283999995,None,550.8857521,None,550.8857521,None,550.8857521,None,552.5446356299998,None,552.5446356299998,None,552.5446356299998,None,,,,,,,,,,,227,22,Female,2022-05-31_14h13.44.916,Main,2022.1.1,60.03539687000893,
negative,negative,1,j,l,,,,,,,,,11,8,206,0,,,,,,,,,,,,,,,,,,,,,,,,main,2,2,1,negative,negative,l,l,1,1.004988200000298,552.5646609999994,553.5748045,553.5388007000001,None,552.5646609999994,None,552.5646609999994,None,552.5646609999994,None,554.5534893299999,None,554.5534893299999,None,554.5534893299999,None,,,,,,,,,,,227,22,Female,2022-05-31_14h13.44.916,Main,2022.1.1,60.03539687000893,
negative,neutral,1,j,l,,,,,,,,,11,9,207,3,,,,,,,,,,,,,,,,,,,,,,,,main,2,2,1,neutral,negative,l,l,1,0.7467920999997659,554.5726137000001,555.5788943999996,555.5604845999997,None,554.5726137000001,None,554.5726137000001,None,554.5726137000001,None,556.3029966299999,None,556.3029966299999,None,556.3029966299999,None,,,,,,,,,,,227,22,Female,2022-05-31_14h13.44.916,Main,2022.1.1,60.03539687000893,
positive,negative,2,l,j,,,,,,,,,11,10,208,14,,,,,,,,,,,,,,,,,,,,,,,,main,2,2,2,negative,positive,j,j,1,0.7453842000004443,556.3222188999998,557.3257278000001,557.3078986,None,556.3222188999998,None,556.3222188999998,None,556.3222188999998,None,558.05121503,None,558.05121503,None,558.05121503,None,,,,,,,,,,,227,22,Female,2022-05-31_14h13.44.916,Main,2022.1.1,60.03539687000893,
positive,neutral,1,l,j,,,,,,,,,11,11,209,8,,,,,,,,,,,,,,,,,,,,,,,,main,2,2,1,neutral,positive,j,j,1,0.8278116999999838,558.0716646999999,559.0752057999998,559.0563507999996,None,558.0716646999999,None,558.0716646999999,None,558.0716646999999,None,559.8816221300002,None,559.8816221300002,None,559.8816221300002,None,,,,,,,,,,,227,22,Female,2022-05-31_14h13.44.916,Main,2022.1.1,60.03539687000893,
negative,positive,1,j,l,,,,,,,,,11,12,210,6,,,,,,,,,,,,,,,,,,,,,,,,main,1,1,1,positive,negative,l,l,1,0.831877099999474,559.9018236000002,560.9129974999996,560.8767433000003,None,559.9018236000002,None,559.9018236000002,None,559.9018236000002,None,561.7153736299996,None,561.7153736299996,None,561.7153736299996,None,,,,,,,,,,,227,22,Female,2022-05-31_14h13.44.916,Main,2022.1.1,60.03539687000893,
