target,distractor,set,ans1,ans2,rep_loop2.thisRepN,rep_loop2.thisTrialN,rep_loop2.thisN,rep_loop2.thisIndex,flanker_prac_loop.thisRepN,flanker_prac_loop.thisTrialN,flanker_prac_loop.thisN,flanker_prac_loop.thisIndex,flanker_main_loop.thisRepN,flanker_main_loop.thisTrialN,flanker_main_loop.thisN,flanker_main_loop.thisIndex,fl_inst_resp.keys,mouse.x,mouse.y,mouse.leftButton,mouse.midButton,mouse.rightButton,mouse.started,mouse.stopped,sound_1.started,sound_1.stopped,no_text.started,no_text.stopped,yes_text.started,yes_text.stopped,mouse_2.x,mouse_2.y,mouse_2.leftButton,mouse_2.midButton,mouse_2.rightButton,mouse_2.started,mouse_2.stopped,back_2.started,back_2.stopped,main_prac,fl_cold,fl_colt,fl_set,fl_dcond,fl_tcond,fl_ans,fl_res,fl_corr,fl_rt,fix_fl.started,fix_fl.stopped,targ.started,targ.stopped,j_button.started,j_button.stopped,k_button.started,k_button.stopped,l_button.started,l_button.stopped,j_button2.started,j_button2.stopped,k_button2.started,k_button2.stopped,l_button2.started,l_button2.stopped,mainback.started,mainback.stopped,key_resp.keys,mouse_6.x,mouse_6.y,mouse_6.leftButton,mouse_6.midButton,mouse_6.rightButton,mouse_6.started,mouse_6.stopped,id*,age*,gender*,date,expName,psychopyVersion,frameRate,
,,,,,0,0,0,0,,,,,,,,,None,0.14814815,-0.31666666,0,0,0,1.0054598999795417,None,26.630465100000084,None,76.16025100000024,None,76.16025100000024,None,-0.11574074,-0.035185184,0,0,0,0.011889700000210723,None,,,,,,,,,,,,,,,,,,,,,,,,,,,,,,,,,,,,,,,228,21,Female,2022-06-03_14h32.29.940,Main,2022.1.1,59.99646020884979,
positive,neutral,2,l,j,,,,,0,0,0,17,,,,,,,,,,,,,,,,,,,,,,,,,,79.20706080000036,None,prac,1,1,2,neutral,positive,l,l,1,1.543600499999684,81.2641663000004,82.28365729999996,82.24479629999996,None,81.2641663000004,None,81.2641663000004,None,81.2641663000004,None,83.79513150000002,None,83.79513150000002,None,83.79513150000002,None,,,,,,,,,,,228,21,Female,2022-06-03_14h32.29.940,Main,2022.1.1,59.99646020884979,
negative,negative,2,j,l,,,,,0,1,1,9,,,,,,,,,,,,,,,,,,,,,,,,,,,,prac,1,1,2,negative,negative,j,j,1,1.2161384000000908,84.83482010000034,85.85381970000026,85.81667640000023,None,84.83482010000034,None,84.83482010000034,None,84.83482010000034,None,87.01425270000031,None,87.01425270000031,None,87.01425270000031,None,,,,,,,,,,,228,21,Female,2022-06-03_14h32.29.940,Main,2022.1.1,59.99646020884979,
negative,negative,1,j,l,,,,,0,2,2,0,,,,,,,,,,,,,,,,,,,,,,,,,,,,prac,2,2,1,negative,negative,j,j,1,2.1586655000000974,87.05172660000017,88.0683583,88.03037280000035,None,87.05172660000017,None,87.05172660000017,None,87.05172660000017,None,90.18427310000015,None,90.18427310000015,None,90.18427310000015,None,,,,,,,,,,,228,21,Female,2022-06-03_14h32.29.940,Main,2022.1.1,59.99646020884979,
neutral,neutral,1,k,k,,,,,0,3,3,1,,,,,,,,,,,,,,,,,,,,,,,,,,,,prac,2,2,1,neutral,neutral,k,k,1,1.0748214999998709,91.21569980000004,92.21782050000002,92.19912969999996,None,91.21569980000004,None,91.21569980000004,None,91.21569980000004,None,93.2567241000002,None,93.2567241000002,None,93.2567241000002,None,,,,,,,,,,,228,21,Female,2022-06-03_14h32.29.940,Main,2022.1.1,59.99646020884979,
positive,positive,1,l,j,,,,,0,4,4,2,,,,,,,,,,,,,,,,,,,,,,,,,,,,prac,2,2,1,positive,positive,l,l,1,1.121945500000038,93.29604270000027,94.30971950000003,94.27104350000036,None,93.29604270000027,None,93.29604270000027,None,93.29604270000027,None,95.37958329999996,None,95.37958329999996,None,95.37958329999996,None,,,,,,,,,,,228,21,Female,2022-06-03_14h32.29.940,Main,2022.1.1,59.99646020884979,
negative,neutral,2,j,l,,,,,0,5,5,12,,,,,,,,,,,,,,,,,,,,,,,,,,,,prac,2,2,2,neutral,negative,j,j,1,0.9042303999999604,95.42480160000014,96.43831230000023,96.39975200000026,None,95.42480160000014,None,95.42480160000014,None,95.42480160000014,None,97.28827510000023,None,97.28827510000023,None,97.28827510000023,None,,,,,,,,,,,228,21,Female,2022-06-03_14h32.29.940,Main,2022.1.1,59.99646020884979,
positive,neutral,1,l,j,,,,,0,6,6,8,,,,,,,,,,,,,,,,,,,,,,,,,,,,prac,1,1,1,neutral,positive,l,l,1,0.9540901000000304,97.32851419999997,98.34630310000011,98.30877670000018,None,97.32851419999997,None,97.32851419999997,None,97.32851419999997,None,99.24285740000009,None,99.24285740000009,None,99.24285740000009,None,,,,,,,,,,,228,21,Female,2022-06-03_14h32.29.940,Main,2022.1.1,59.99646020884979,
positive,positive,2,l,j,,,,,0,7,7,11,,,,,,,,,,,,,,,,,,,,,,,,,,,,prac,1,1,2,positive,positive,l,l,1,0.8673616999999467,99.27718219999997,100.28522060000023,100.2662376000003,None,99.27718219999997,None,99.27718219999997,None,99.27718219999997,None,101.11227749999993,None,101.11227749999993,None,101.11227749999993,None,,,,,,,,,,,228,21,Female,2022-06-03_14h32.29.940,Main,2022.1.1,59.99646020884979,
neutral,negative,2,k,k,,,,,0,8,8,16,,,,,,,,,,,,,,,,,,,,,,,,,,,,prac,2,2,2,negative,neutral,k,k,1,0.8478276000000733,101.14080869999998,102.15640180000037,102.11780090000002,None,101.14080869999998,None,101.14080869999998,None,101.14080869999998,None,102.96211070000031,None,102.96211070000031,None,102.96211070000031,None,,,,,,,,,,,228,21,Female,2022-06-03_14h32.29.940,Main,2022.1.1,59.99646020884979,
neutral,positive,2,k,k,,,,,0,9,9,13,,,,,,,,,,,,,,,,,,,,,,,,,,,,prac,2,2,2,positive,neutral,k,k,1,0.7453596000000289,103.00047970000014,104.01567090000026,103.99627600000031,None,103.00047970000014,None,103.00047970000014,None,103.00047970000014,None,104.71076720000023,None,104.71076720000023,None,104.71076720000023,None,,,,,,,,,,,228,21,Female,2022-06-03_14h32.29.940,Main,2022.1.1,59.99646020884979,
neutral,positive,1,k,k,,,,,0,10,10,4,,,,,,,,,,,,,,,,,,,,,,,,,,,,prac,2,2,1,positive,neutral,k,k,1,0.8677089000002525,104.73155530000031,105.73287280000022,105.71436050000011,None,104.73155530000031,None,104.73155530000031,None,104.73155530000031,None,106.57955610000003,None,106.57955610000003,None,106.57955610000003,None,,,,,,,,,,,228,21,Female,2022-06-03_14h32.29.940,Main,2022.1.1,59.99646020884979,
negative,positive,2,j,l,,,,,0,11,11,15,,,,,,,,,,,,,,,,,,,,,,,,,,,,prac,2,2,2,positive,negative,j,j,1,0.7694071999999323,106.6037895000004,107.61840280000024,107.58128000000033,None,106.6037895000004,None,106.6037895000004,None,106.6037895000004,None,108.35324970000015,None,108.35324970000015,None,108.35324970000015,None,,,,,,,,,,,228,21,Female,2022-06-03_14h32.29.940,Main,2022.1.1,59.99646020884979,
negative,positive,1,j,l,,,,,0,12,12,6,,,,,,,,,,,,,,,,,,,,,,,,,,,,prac,2,2,1,positive,negative,j,j,1,0.8128286999999546,108.3761469000001,109.39523290000034,109.35748740000008,None,108.3761469000001,None,108.3761469000001,None,108.3761469000001,None,110.16818349999998,None,110.16818349999998,None,110.16818349999998,None,,,,,,,,,,,228,21,Female,2022-06-03_14h32.29.940,Main,2022.1.1,59.99646020884979,
positive,negative,1,l,j,,,,,0,13,13,5,,,,,,,,,,,,,,,,,,,,,,,,,,,,prac,2,2,1,negative,positive,l,l,1,0.7441472000000431,110.18830620000017,111.20224900000039,111.16428500000029,None,110.18830620000017,None,110.18830620000017,None,110.18830620000017,None,111.91257560000035,None,111.91257560000035,None,111.91257560000035,None,,,,,,,,,,,228,21,Female,2022-06-03_14h32.29.940,Main,2022.1.1,59.99646020884979,
neutral,negative,1,k,k,,,,,0,14,14,7,,,,,,,,,,,,,,,,,,,,,,,,,,,,prac,1,1,1,negative,neutral,k,k,1,0.7680046000000402,111.9510537000001,112.95916729999999,112.94016590000001,None,111.9510537000001,None,111.9510537000001,None,111.9510537000001,None,113.68541310000005,None,113.68541310000005,None,113.68541310000005,None,,,,,,,,,,,228,21,Female,2022-06-03_14h32.29.940,Main,2022.1.1,59.99646020884979,
neutral,neutral,2,k,k,,,,,0,15,15,10,,,,,,,,,,,,,,,,,,,,,,,,,,,,prac,2,2,2,neutral,neutral,k,k,1,0.7138334000001123,113.70444020000014,114.71441900000036,114.67633730000034,None,113.70444020000014,None,113.70444020000014,None,113.70444020000014,None,115.40129500000016,None,115.40129500000016,None,115.40129500000016,None,,,,,,,,,,,228,21,Female,2022-06-03_14h32.29.940,Main,2022.1.1,59.99646020884979,
negative,neutral,1,j,l,,,,,0,16,16,3,,,,,,,,,,,,,,,,,,,,,,,,,,,,prac,2,2,1,neutral,negative,j,j,1,0.777588200000082,115.42187090000016,116.42973990000019,116.41099310000027,None,115.42187090000016,None,115.42187090000016,None,115.42187090000016,None,117.17968049999995,None,117.17968049999995,None,117.17968049999995,None,,,,,,,,,,,228,21,Female,2022-06-03_14h32.29.940,Main,2022.1.1,59.99646020884979,
positive,negative,2,l,j,,,,,0,17,17,14,,,,,,,,,,,,,,,,,,,,,,,,,,,,prac,2,2,2,negative,positive,l,l,1,0.6723987999998826,117.20395129999997,118.21674359999997,118.17737160000024,None,117.20395129999997,None,117.20395129999997,None,117.20395129999997,None,118.85614590000027,None,118.85614590000027,None,118.85614590000027,None,,,,,,,,,,,228,21,Female,2022-06-03_14h32.29.940,Main,2022.1.1,59.99646020884979,
positive,neutral,2,l,j,,,,,1,0,18,17,,,,,,,,,,,,,,,,,,,,,,,,,,,,prac,1,1,2,neutral,positive,l,l,1,0.7151017000001048,118.87788620000038,119.88487950000035,119.86527650000016,None,118.87788620000038,None,118.87788620000038,None,118.87788620000038,None,120.5742654000001,None,120.5742654000001,None,120.5742654000001,None,,,,,,,,,,,228,21,Female,2022-06-03_14h32.29.940,Main,2022.1.1,59.99646020884979,
negative,neutral,2,j,l,,,,,1,1,19,12,,,,,,,,,,,,,,,,,,,,,,,,,,,,prac,2,2,2,neutral,negative,j,j,1,0.835943000000043,120.59553520000009,121.60211570000001,121.58295580000004,None,120.59553520000009,None,120.59553520000009,None,120.59553520000009,None,122.41081590000026,None,122.41081590000026,None,122.41081590000026,None,,,,,,,,,,,228,21,Female,2022-06-03_14h32.29.940,Main,2022.1.1,59.99646020884979,
positive,negative,1,l,j,,,,,1,2,20,5,,,,,,,,,,,,,,,,,,,,,,,,,,,,prac,2,2,1,negative,positive,l,l,1,0.9327759999996488,122.43690610000021,123.45377350000035,123.41457600000012,None,122.43690610000021,None,122.43690610000021,None,122.43690610000021,None,124.34786230000013,None,124.34786230000013,None,124.34786230000013,None,,,,,,,,,,,228,21,Female,2022-06-03_14h32.29.940,Main,2022.1.1,59.99646020884979,
neutral,neutral,1,k,k,,,,,1,3,21,1,,,,,,,,,,,,,,,,,,,,,,,,,,,,prac,1,1,1,neutral,neutral,k,k,1,0.7959545999997317,124.3727057000001,125.37698120000005,125.35821850000002,None,124.3727057000001,None,124.3727057000001,None,124.3727057000001,None,126.14489869999993,None,126.14489869999993,None,126.14489869999993,None,,,,,,,,,,,228,21,Female,2022-06-03_14h32.29.940,Main,2022.1.1,59.99646020884979,
neutral,neutral,2,k,k,,,,,1,4,22,10,,,,,,,,,,,,,,,,,,,,,,,,,,,,prac,1,1,2,neutral,neutral,k,k,1,0.6256563000001734,126.16897960000006,127.17840670000032,127.14124300000003,None,126.16897960000006,None,126.16897960000006,None,126.16897960000006,None,127.77303699999997,None,127.77303699999997,None,127.77303699999997,None,,,,,,,,,,,228,21,Female,2022-06-03_14h32.29.940,Main,2022.1.1,59.99646020884979,
negative,neutral,1,j,l,,,,,1,5,23,3,,,,,,,,,,,,,,,,,,,,,,,,,,,,prac,2,2,1,neutral,negative,j,j,1,0.7538924000000407,127.79547219999995,128.80285920000006,128.78403130000015,None,127.79547219999995,None,127.79547219999995,None,127.79547219999995,None,129.53011139999995,None,129.53011139999995,None,129.53011139999995,None,,,,,,,,,,,228,21,Female,2022-06-03_14h32.29.940,Main,2022.1.1,59.99646020884979,
neutral,negative,1,k,k,,,,,1,6,24,7,,,,,,,,,,,,,,,,,,,,,,,,,,,,prac,2,2,1,negative,neutral,k,k,1,0.8272345999998834,129.5505218000003,130.55316990000028,130.5337472000001,None,129.5505218000003,None,129.5505218000003,None,129.5505218000003,None,131.35940380000017,None,131.35940380000017,None,131.35940380000017,None,,,,,,,,,,,228,21,Female,2022-06-03_14h32.29.940,Main,2022.1.1,59.99646020884979,
positive,positive,2,l,j,,,,,1,7,25,11,,,,,,,,,,,,,,,,,,,,,,,,,,,,prac,1,1,2,positive,positive,l,l,1,0.6546103000000585,131.3834708000004,132.39714219999996,132.3584062,None,131.3834708000004,None,131.3834708000004,None,131.3834708000004,None,133.01804960000032,None,133.01804960000032,None,133.01804960000032,None,,,,,,,,,,,228,21,Female,2022-06-03_14h32.29.940,Main,2022.1.1,59.99646020884979,
neutral,positive,1,k,k,,,,,1,8,26,4,,,,,,,,,,,,,,,,,,,,,,,,,,,,prac,1,1,1,positive,neutral,k,k,1,0.7558403999996699,133.05171850000033,134.06426690000035,134.04504190000034,None,133.05171850000033,None,133.05171850000033,None,133.05171850000033,None,134.77489770000017,None,134.77489770000017,None,134.77489770000017,None,,,,,,,,,,,228,21,Female,2022-06-03_14h32.29.940,Main,2022.1.1,59.99646020884979,
negative,positive,1,j,l,,,,,1,9,27,6,,,,,,,,,,,,,,,,,,,,,,,,,,,,prac,2,2,1,positive,negative,j,j,1,0.6492779000000155,134.79684560000032,135.80958230000033,135.7707220000002,None,134.79684560000032,None,134.79684560000032,None,134.79684560000032,None,136.425863,None,136.425863,None,136.425863,None,,,,,,,,,,,228,21,Female,2022-06-03_14h32.29.940,Main,2022.1.1,59.99646020884979,
negative,negative,1,j,l,,,,,1,10,28,0,,,,,,,,,,,,,,,,,,,,,,,,,,,,prac,2,2,1,negative,negative,j,j,1,0.7140796999997292,136.44707670000025,137.44982570000002,137.43080400000008,None,136.44707670000025,None,136.44707670000025,None,136.44707670000025,None,138.14282420000023,None,138.14282420000023,None,138.14282420000023,None,,,,,,,,,,,228,21,Female,2022-06-03_14h32.29.940,Main,2022.1.1,59.99646020884979,
negative,negative,2,j,l,,,,,1,11,29,9,,,,,,,,,,,,,,,,,,,,,,,,,,,,prac,2,2,2,negative,negative,j,j,1,0.7804499999997461,138.16452430000027,139.17985910000016,139.14269960000001,None,138.16452430000027,None,138.16452430000027,None,138.16452430000027,None,139.92554260000003,None,139.92554260000003,None,139.92554260000003,None,,,,,,,,,,,228,21,Female,2022-06-03_14h32.29.940,Main,2022.1.1,59.99646020884979,
positive,neutral,1,l,j,,,,,1,12,30,8,,,,,,,,,,,,,,,,,,,,,,,,,,,,prac,2,2,1,neutral,positive,l,l,1,0.7390110000001187,139.94554719999996,140.95876960000032,140.91978719999997,None,139.94554719999996,None,139.94554719999996,None,139.94554719999996,None,141.66826339999994,None,141.66826339999994,None,141.66826339999994,None,,,,,,,,,,,228,21,Female,2022-06-03_14h32.29.940,Main,2022.1.1,59.99646020884979,
positive,negative,2,l,j,,,,,1,13,31,14,,,,,,,,,,,,,,,,,,,,,,,,,,,,prac,1,1,2,negative,positive,l,l,1,0.7275012000000061,141.68906910000032,142.69502820000025,142.6760618000003,None,141.68906910000032,None,141.68906910000032,None,141.68906910000032,None,143.4012502000001,None,143.4012502000001,None,143.4012502000001,None,,,,,,,,,,,228,21,Female,2022-06-03_14h32.29.940,Main,2022.1.1,59.99646020884979,
positive,positive,1,l,j,,,,,1,14,32,2,,,,,,,,,,,,,,,,,,,,,,,,,,,,prac,1,1,1,positive,positive,l,l,1,0.6888860999997632,143.41951300000028,144.42203340000015,144.40318240000033,None,143.41951300000028,None,143.41951300000028,None,143.41951300000028,None,145.0894968000003,None,145.0894968000003,None,145.0894968000003,None,,,,,,,,,,,228,21,Female,2022-06-03_14h32.29.940,Main,2022.1.1,59.99646020884979,
neutral,negative,2,k,k,,,,,1,15,33,16,,,,,,,,,,,,,,,,,,,,,,,,,,,,prac,2,2,2,negative,neutral,k,k,1,0.7690361999998458,145.11154390000002,146.1162991000001,146.09826520000024,None,145.11154390000002,None,145.11154390000002,None,145.11154390000002,None,146.86216680000013,None,146.86216680000013,None,146.86216680000013,None,,,,,,,,,,,228,21,Female,2022-06-03_14h32.29.940,Main,2022.1.1,59.99646020884979,
negative,positive,2,j,l,,,,,1,16,34,15,,,,,,,,,,,,,,,,,,,,,,,,,,,,prac,1,1,2,positive,negative,j,j,1,0.6309314999998605,146.88574050000034,147.8986463000001,147.8591993,None,146.88574050000034,None,146.88574050000034,None,146.88574050000034,None,148.4943441000001,None,148.4943441000001,None,148.4943441000001,None,,,,,,,,,,,228,21,Female,2022-06-03_14h32.29.940,Main,2022.1.1,59.99646020884979,
neutral,positive,2,k,k,,,,,1,17,35,13,,,,,,,,,,,,,,,,,,,,,,,,,,,,prac,2,2,2,positive,neutral,k,k,1,0.6686230000000251,148.5193502000002,149.5322056,149.49311920000036,None,148.5193502000002,None,148.5193502000002,None,148.5193502000002,None,150.16755070000005,None,150.16755070000005,None,150.16755070000005,None,,,,,,,,,,,228,21,Female,2022-06-03_14h32.29.940,Main,2022.1.1,59.99646020884979,
,,,,,,,,,,,,,,,,,,,,,,,,,,,,,,,,,,,,,,,,,,,,,,,,,,,,,,,,,,,,,,,,,,150.17375149999998,None,None,,,,,,,,228,21,Female,2022-06-03_14h32.29.940,Main,2022.1.1,59.99646020884979,
,,,,,,,,,,,,,,,,,,,,,,,,,,,,,,,,,,,,,,,,,,,,,,,,,,,,,,,,,,,,,,,,,,,,,-0.17037037,-0.13148148,1,0,0,0.004719600000044011,None,228,21,Female,2022-06-03_14h32.29.940,Main,2022.1.1,59.99646020884979,
neutral,neutral,2,k,k,,,,,,,,,0,0,0,10,,,,,,,,,,,,,,,,,,,,,,152.5479574000001,None,main,1,1,2,neutral,neutral,k,k,1,1.22804270000006,154.56577190000007,155.58048499999995,155.5415591000001,None,154.56577190000007,None,154.56577190000007,None,154.56577190000007,None,156.77346220000032,None,156.77346220000032,None,156.77346220000032,None,,,,,,,,,,,228,21,Female,2022-06-03_14h32.29.940,Main,2022.1.1,59.99646020884979,
positive,neutral,1,l,j,,,,,,,,,0,1,1,8,,,,,,,,,,,,,,,,,,,,,,,,main,2,2,1,neutral,positive,l,l,1,0.7610094000001482,156.80039450000004,157.80946500000027,157.78770620000023,None,156.80039450000004,None,156.80039450000004,None,156.80039450000004,None,158.53970890000033,None,158.53970890000033,None,158.53970890000033,None,,,,,,,,,,,228,21,Female,2022-06-03_14h32.29.940,Main,2022.1.1,59.99646020884979,
positive,negative,1,l,j,,,,,,,,,0,2,2,5,,,,,,,,,,,,,,,,,,,,,,,,main,1,1,1,negative,positive,l,l,1,0.6201562999999624,158.55984430000035,159.56414040000027,159.54460210000025,None,158.55984430000035,None,158.55984430000035,None,158.55984430000035,None,160.16395670000026,None,160.16395670000026,None,160.16395670000026,None,,,,,,,,,,,228,21,Female,2022-06-03_14h32.29.940,Main,2022.1.1,59.99646020884979,
neutral,positive,2,k,k,,,,,,,,,0,3,3,13,,,,,,,,,,,,,,,,,,,,,,,,main,2,2,2,positive,neutral,k,k,1,0.7491348999997172,160.1846802,161.20159300000023,161.16111200000023,None,160.1846802,None,160.1846802,None,160.1846802,None,161.9155709000002,None,161.9155709000002,None,161.9155709000002,None,,,,,,,,,,,228,21,Female,2022-06-03_14h32.29.940,Main,2022.1.1,59.99646020884979,
neutral,negative,2,k,k,,,,,,,,,0,4,4,16,,,,,,,,,,,,,,,,,,,,,,,,main,2,2,2,negative,neutral,k,k,1,0.6940167000002475,161.93570650000038,162.9468426000003,162.9089842000003,None,161.93570650000038,None,161.93570650000038,None,161.93570650000038,None,163.61381410000018,None,163.61381410000018,None,163.61381410000018,None,,,,,,,,,,,228,21,Female,2022-06-03_14h32.29.940,Main,2022.1.1,59.99646020884979,
negative,positive,1,j,l,,,,,,,,,0,5,5,6,,,,,,,,,,,,,,,,,,,,,,,,main,2,2,1,positive,negative,j,j,1,0.5730003000003308,163.6344613000001,164.65431520000038,164.6163421000001,None,163.6344613000001,None,163.6344613000001,None,163.6344613000001,None,165.1873309000003,None,165.1873309000003,None,165.1873309000003,None,,,,,,,,,,,228,21,Female,2022-06-03_14h32.29.940,Main,2022.1.1,59.99646020884979,
neutral,negative,1,k,k,,,,,,,,,0,6,6,7,,,,,,,,,,,,,,,,,,,,,,,,main,2,2,1,negative,neutral,k,k,1,0.6991196000003583,165.20859840000003,166.22414330000038,166.18657610000037,None,165.20859840000003,None,165.20859840000003,None,165.20859840000003,None,166.90043350000008,None,166.90043350000008,None,166.90043350000008,None,,,,,,,,,,,228,21,Female,2022-06-03_14h32.29.940,Main,2022.1.1,59.99646020884979,
negative,negative,1,j,l,,,,,,,,,0,7,7,0,,,,,,,,,,,,,,,,,,,,,,,,main,1,1,1,negative,negative,j,j,1,0.7670726999999715,166.91554300000007,167.92274990000033,167.90028600000005,None,166.91554300000007,None,166.91554300000007,None,166.91554300000007,None,168.65727650000014,None,168.65727650000014,None,168.65727650000014,None,,,,,,,,,,,228,21,Female,2022-06-03_14h32.29.940,Main,2022.1.1,59.99646020884979,
positive,neutral,2,l,j,,,,,,,,,0,8,8,17,,,,,,,,,,,,,,,,,,,,,,,,main,1,1,2,neutral,positive,l,l,1,0.8231540000001587,168.6847775000001,169.70789390000027,169.66365410000026,None,168.6847775000001,None,168.6847775000001,None,168.6847775000001,None,170.48422480000005,None,170.48422480000005,None,170.48422480000005,None,,,,,,,,,,,228,21,Female,2022-06-03_14h32.29.940,Main,2022.1.1,59.99646020884979,
positive,positive,2,l,j,,,,,,,,,0,9,9,11,,,,,,,,,,,,,,,,,,,,,,,,main,1,1,2,positive,positive,l,l,1,0.6046262999998362,170.50713780000024,171.52606379999997,171.4884294000003,None,170.50713780000024,None,170.50713780000024,None,170.50713780000024,None,172.10094200000015,None,172.10094200000015,None,172.10094200000015,None,,,,,,,,,,,228,21,Female,2022-06-03_14h32.29.940,Main,2022.1.1,59.99646020884979,
neutral,positive,1,k,k,,,,,,,,,0,10,10,4,,,,,,,,,,,,,,,,,,,,,,,,main,2,2,1,positive,neutral,k,k,1,0.6515916999996989,172.1131687000002,173.1310652000002,173.1117177000001,None,172.1131687000002,None,172.1131687000002,None,172.1131687000002,None,173.74883330000017,None,173.74883330000017,None,173.74883330000017,None,,,,,,,,,,,228,21,Female,2022-06-03_14h32.29.940,Main,2022.1.1,59.99646020884979,
neutral,neutral,1,k,k,,,,,,,,,0,11,11,1,,,,,,,,,,,,,,,,,,,,,,,,main,1,1,1,neutral,neutral,k,k,1,0.7128336000000672,173.7708859000004,174.77566430000024,174.7566807000003,None,173.7708859000004,None,173.7708859000004,None,173.7708859000004,None,175.46625420000015,None,175.46625420000015,None,175.46625420000015,None,,,,,,,,,,,228,21,Female,2022-06-03_14h32.29.940,Main,2022.1.1,59.99646020884979,
positive,positive,1,l,j,,,,,,,,,0,12,12,2,,,,,,,,,,,,,,,,,,,,,,,,main,2,2,1,positive,positive,l,l,1,0.8440285000001495,175.48813990000008,176.50728560000016,176.46928800000023,None,175.48813990000008,None,175.48813990000008,None,175.48813990000008,None,177.31482090000014,None,177.31482090000014,None,177.31482090000014,None,,,,,,,,,,,228,21,Female,2022-06-03_14h32.29.940,Main,2022.1.1,59.99646020884979,
negative,neutral,1,j,l,,,,,,,,,0,13,13,3,,,,,,,,,,,,,,,,,,,,,,,,main,1,1,1,neutral,negative,j,j,1,0.6125925000001189,177.33835510000017,178.3392289000003,178.3208327000002,None,177.33835510000017,None,177.33835510000017,None,177.33835510000017,None,178.93270780000017,None,178.93270780000017,None,178.93270780000017,None,,,,,,,,,,,228,21,Female,2022-06-03_14h32.29.940,Main,2022.1.1,59.99646020884979,
negative,positive,2,j,l,,,,,,,,,0,14,14,15,,,,,,,,,,,,,,,,,,,,,,,,main,1,1,2,positive,negative,j,j,1,0.7727967999999237,178.95465270000022,179.9607704,179.9416744,None,178.95465270000022,None,178.95465270000022,None,178.95465270000022,None,180.70963380000018,None,180.70963380000018,None,180.70963380000018,None,,,,,,,,,,,228,21,Female,2022-06-03_14h32.29.940,Main,2022.1.1,59.99646020884979,
positive,negative,2,l,j,,,,,,,,,0,15,15,14,,,,,,,,,,,,,,,,,,,,,,,,main,2,2,2,negative,positive,l,l,1,0.6597433999995701,180.7292134000004,181.73964520000027,181.70244790000015,None,180.7292134000004,None,180.7292134000004,None,180.7292134000004,None,182.36948650000028,None,182.36948650000028,None,182.36948650000028,None,,,,,,,,,,,228,21,Female,2022-06-03_14h32.29.940,Main,2022.1.1,59.99646020884979,
negative,neutral,2,j,l,,,,,,,,,0,16,16,12,,,,,,,,,,,,,,,,,,,,,,,,main,1,1,2,neutral,negative,j,j,1,0.8535256000000118,182.39036150000038,183.40129370000022,183.36412740000014,None,182.39036150000038,None,182.39036150000038,None,182.39036150000038,None,184.2283164000001,None,184.2283164000001,None,184.2283164000001,None,,,,,,,,,,,228,21,Female,2022-06-03_14h32.29.940,Main,2022.1.1,59.99646020884979,
negative,negative,2,j,l,,,,,,,,,0,17,17,9,,,,,,,,,,,,,,,,,,,,,,,,main,2,2,2,negative,negative,j,j,1,0.6740546999999424,184.24963780000007,185.25471830000015,185.23557960000016,None,184.24963780000007,None,184.24963780000007,None,184.24963780000007,None,185.90337520000008,None,185.90337520000008,None,185.90337520000008,None,,,,,,,,,,,228,21,Female,2022-06-03_14h32.29.940,Main,2022.1.1,59.99646020884979,
neutral,neutral,1,k,k,,,,,,,,,1,0,18,1,,,,,,,,,,,,,,,,,,,,,,,,main,2,2,1,neutral,neutral,k,k,1,0.6502070000001368,185.9272519000001,186.94654460000038,186.90802640000038,None,185.9272519000001,None,185.9272519000001,None,185.9272519000001,None,187.55585000000025,None,187.55585000000025,None,187.55585000000025,None,,,,,,,,,,,228,21,Female,2022-06-03_14h32.29.940,Main,2022.1.1,59.99646020884979,
positive,neutral,2,l,j,,,,,,,,,1,1,19,17,,,,,,,,,,,,,,,,,,,,,,,,main,1,1,2,neutral,positive,l,l,1,0.7663534000002983,187.57595720000018,188.59708820000014,188.55822810000018,None,187.57595720000018,None,187.57595720000018,None,187.57595720000018,None,189.32673140000003,None,189.32673140000003,None,189.32673140000003,None,,,,,,,,,,,228,21,Female,2022-06-03_14h32.29.940,Main,2022.1.1,59.99646020884979,
negative,neutral,1,j,l,,,,,,,,,1,2,20,3,,,,,,,,,,,,,,,,,,,,,,,,main,2,2,1,neutral,negative,j,j,1,0.616052800000034,189.34956710000006,190.36669819999997,190.3287289,None,189.34956710000006,None,189.34956710000006,None,189.34956710000006,None,190.9449808,None,190.9449808,None,190.9449808,None,,,,,,,,,,,228,21,Female,2022-06-03_14h32.29.940,Main,2022.1.1,59.99646020884979,
positive,neutral,1,l,j,,,,,,,,,1,3,21,8,,,,,,,,,,,,,,,,,,,,,,,,main,2,2,1,neutral,positive,l,l,1,0.805024499999945,190.96634650000033,191.9687267000004,191.94985300000008,None,190.96634650000033,None,190.96634650000033,None,190.96634650000033,None,192.75292280000036,None,192.75292280000036,None,192.75292280000036,None,,,,,,,,,,,228,21,Female,2022-06-03_14h32.29.940,Main,2022.1.1,59.99646020884979,
neutral,positive,2,k,k,,,,,,,,,1,4,22,13,,,,,,,,,,,,,,,,,,,,,,,,main,2,2,2,positive,neutral,k,k,1,0.6336639999999534,192.7776240000003,193.7936934000004,193.75520810000035,None,192.7776240000003,None,192.7776240000003,None,192.7776240000003,None,194.39115240000007,None,194.39115240000007,None,194.39115240000007,None,,,,,,,,,,,228,21,Female,2022-06-03_14h32.29.940,Main,2022.1.1,59.99646020884979,
neutral,negative,1,k,k,,,,,,,,,1,5,23,7,,,,,,,,,,,,,,,,,,,,,,,,main,2,2,1,negative,neutral,k,k,1,0.7679873000001862,194.4115257000003,195.42900520000012,195.3883810000002,None,194.4115257000003,None,194.4115257000003,None,194.4115257000003,None,196.1615867000001,None,196.1615867000001,None,196.1615867000001,None,,,,,,,,,,,228,21,Female,2022-06-03_14h32.29.940,Main,2022.1.1,59.99646020884979,
positive,positive,2,l,j,,,,,,,,,1,6,24,11,,,,,,,,,,,,,,,,,,,,,,,,main,1,1,2,positive,positive,l,l,1,0.7287028999999166,196.18333500000017,197.19948320000003,197.16158020000012,None,196.18333500000017,None,196.18333500000017,None,196.18333500000017,None,197.89461930000022,None,197.89461930000022,None,197.89461930000022,None,,,,,,,,,,,228,21,Female,2022-06-03_14h32.29.940,Main,2022.1.1,59.99646020884979,
negative,positive,2,j,l,,,,,,,,,1,7,25,15,,,,,,,,,,,,,,,,,,,,,,,,main,2,2,2,positive,negative,j,j,1,0.6360072000002219,197.9169976000003,198.9361884,198.89766080000027,None,197.9169976000003,None,197.9169976000003,None,197.9169976000003,None,199.53394759999998,None,199.53394759999998,None,199.53394759999998,None,,,,,,,,,,,228,21,Female,2022-06-03_14h32.29.940,Main,2022.1.1,59.99646020884979,
negative,negative,1,j,l,,,,,,,,,1,8,26,0,,,,,,,,,,,,,,,,,,,,,,,,main,2,2,1,negative,negative,j,j,1,0.6807257000000391,199.5544020000002,200.56526440000016,200.52726150000035,None,199.5544020000002,None,199.5544020000002,None,199.5544020000002,None,201.21720690000035,None,201.21720690000035,None,201.21720690000035,None,,,,,,,,,,,228,21,Female,2022-06-03_14h32.29.940,Main,2022.1.1,59.99646020884979,
positive,negative,2,l,j,,,,,,,,,1,9,27,14,,,,,,,,,,,,,,,,,,,,,,,,main,1,1,2,negative,positive,l,l,1,0.7076391000000513,201.23717460000034,202.24097140000003,202.22258950000014,None,201.23717460000034,None,201.23717460000034,None,201.23717460000034,None,202.92921680000023,None,202.92921680000023,None,202.92921680000023,None,,,,,,,,,,,228,21,Female,2022-06-03_14h32.29.940,Main,2022.1.1,59.99646020884979,
negative,positive,1,j,l,,,,,,,,,1,10,28,6,,,,,,,,,,,,,,,,,,,,,,,,main,1,1,1,positive,negative,j,j,1,0.7178195999999843,202.95062770000004,203.95464149999998,203.93760040000006,None,202.95062770000004,None,202.95062770000004,None,202.95062770000004,None,204.64928349999997,None,204.64928349999997,None,204.64928349999997,None,,,,,,,,,,,228,21,Female,2022-06-03_14h32.29.940,Main,2022.1.1,59.99646020884979,
neutral,positive,1,k,k,,,,,,,,,1,11,29,4,,,,,,,,,,,,,,,,,,,,,,,,main,1,1,1,positive,neutral,k,k,1,0.6271201999998084,204.66986730000008,205.68198260000008,205.64422860000013,None,204.66986730000008,None,204.66986730000008,None,204.66986730000008,None,206.27941190000007,None,206.27941190000007,None,206.27941190000007,None,,,,,,,,,,,228,21,Female,2022-06-03_14h32.29.940,Main,2022.1.1,59.99646020884979,
positive,positive,1,l,j,,,,,,,,,1,12,30,2,,,,,,,,,,,,,,,,,,,,,,,,main,2,2,1,positive,positive,l,l,1,0.7181501999998545,206.30131630000005,207.3044385000003,207.2854113000003,None,206.30131630000005,None,206.30131630000005,None,206.30131630000005,None,207.99992909999997,None,207.99992909999997,None,207.99992909999997,None,,,,,,,,,,,228,21,Female,2022-06-03_14h32.29.940,Main,2022.1.1,59.99646020884979,
negative,negative,2,j,l,,,,,,,,,1,13,31,9,,,,,,,,,,,,,,,,,,,,,,,,main,2,2,2,negative,negative,j,j,1,0.6789083000003302,208.02006840000013,209.03210130000025,208.99344100000008,None,208.02006840000013,None,208.02006840000013,None,208.02006840000013,None,209.68135400000034,None,209.68135400000034,None,209.68135400000034,None,,,,,,,,,,,228,21,Female,2022-06-03_14h32.29.940,Main,2022.1.1,59.99646020884979,
positive,negative,1,l,j,,,,,,,,,1,14,32,5,,,,,,,,,,,,,,,,,,,,,,,,main,2,2,1,negative,positive,l,l,1,0.7324438000000555,209.70321990000002,210.7218441,210.6834656000001,None,209.70321990000002,None,209.70321990000002,None,209.70321990000002,None,211.41632380000016,None,211.41632380000016,None,211.41632380000016,None,,,,,,,,,,,228,21,Female,2022-06-03_14h32.29.940,Main,2022.1.1,59.99646020884979,
negative,neutral,2,j,l,,,,,,,,,1,15,33,12,,,,,,,,,,,,,,,,,,,,,,,,main,1,1,2,neutral,negative,j,j,1,0.5988956000001053,211.4409010000004,212.44943020000028,212.4296405,None,211.4409010000004,None,211.4409010000004,None,211.4409010000004,None,213.02114930000022,None,213.02114930000022,None,213.02114930000022,None,,,,,,,,,,,228,21,Female,2022-06-03_14h32.29.940,Main,2022.1.1,59.99646020884979,
neutral,negative,2,k,k,,,,,,,,,1,16,34,16,,,,,,,,,,,,,,,,,,,,,,,,main,1,1,2,negative,neutral,k,k,1,0.7927949999998418,213.04050270000016,214.04709840000032,214.02723630000037,None,213.04050270000016,None,213.04050270000016,None,213.04050270000016,None,214.81456590000022,None,214.81456590000022,None,214.81456590000022,None,,,,,,,,,,,228,21,Female,2022-06-03_14h32.29.940,Main,2022.1.1,59.99646020884979,
neutral,neutral,2,k,k,,,,,,,,,1,17,35,10,,,,,,,,,,,,,,,,,,,,,,,,main,1,1,2,neutral,neutral,k,k,1,0.5960622000002331,214.8361358000002,215.84349999999995,215.82314180000003,None,214.8361358000002,None,214.8361358000002,None,214.8361358000002,None,216.41379650000005,None,216.41379650000005,None,216.41379650000005,None,,,,,,,,,,,228,21,Female,2022-06-03_14h32.29.940,Main,2022.1.1,59.99646020884979,
negative,neutral,2,j,l,,,,,,,,,2,0,36,12,,,,,,,,,,,,,,,,,,,,,,,,main,2,2,2,neutral,negative,j,j,1,0.7653987999997298,216.43560670000033,217.4559774000004,217.41749980000031,None,216.43560670000033,None,216.43560670000033,None,216.43560670000033,None,218.18263520000033,None,218.18263520000033,None,218.18263520000033,None,,,,,,,,,,,228,21,Female,2022-06-03_14h32.29.940,Main,2022.1.1,59.99646020884979,
negative,positive,1,j,l,,,,,,,,,2,1,37,6,,,,,,,,,,,,,,,,,,,,,,,,main,2,2,1,positive,negative,j,j,1,0.6651680999998462,218.20544310000014,219.2181158000003,219.17842580000024,None,218.20544310000014,None,218.20544310000014,None,218.20544310000014,None,219.85007430000002,None,219.85007430000002,None,219.85007430000002,None,,,,,,,,,,,228,21,Female,2022-06-03_14h32.29.940,Main,2022.1.1,59.99646020884979,
neutral,negative,2,k,k,,,,,,,,,2,2,38,16,,,,,,,,,,,,,,,,,,,,,,,,main,2,2,2,negative,neutral,k,k,1,0.7363924000001134,219.87046940000027,220.88032620000013,220.8612288000004,None,219.87046940000027,None,219.87046940000027,None,219.87046940000027,None,221.59053510000018,None,221.59053510000018,None,221.59053510000018,None,,,,,,,,,,,228,21,Female,2022-06-03_14h32.29.940,Main,2022.1.1,59.99646020884979,
neutral,positive,2,k,k,,,,,,,,,2,3,39,13,,,,,,,,,,,,,,,,,,,,,,,,main,2,2,2,positive,neutral,k,k,1,0.6792124000003241,221.61252670000022,222.63922709999997,222.5919700000004,None,221.61252670000022,None,221.61252670000022,None,221.61252670000022,None,223.2727071,None,223.2727071,None,223.2727071,None,,,,,,,,,,,228,21,Female,2022-06-03_14h32.29.940,Main,2022.1.1,59.99646020884979,
positive,negative,1,l,j,,,,,,,,,2,4,40,5,,,,,,,,,,,,,,,,,,,,,,,,main,2,2,1,negative,positive,l,l,1,0.6906875999998192,223.2946178000002,224.31092030000036,224.27289659999997,None,223.2946178000002,None,223.2946178000002,None,223.2946178000002,None,224.96432929999997,None,224.96432929999997,None,224.96432929999997,None,,,,,,,,,,,228,21,Female,2022-06-03_14h32.29.940,Main,2022.1.1,59.99646020884979,
negative,positive,2,j,l,,,,,,,,,2,5,41,15,,,,,,,,,,,,,,,,,,,,,,,,main,1,1,2,positive,negative,j,j,1,0.6762678000000051,224.98851160000004,225.99807980000014,225.96048840000003,None,224.98851160000004,None,224.98851160000004,None,224.98851160000004,None,226.64366320000005,None,226.64366320000005,None,226.64366320000005,None,,,,,,,,,,,228,21,Female,2022-06-03_14h32.29.940,Main,2022.1.1,59.99646020884979,
neutral,neutral,2,k,k,,,,,,,,,2,6,42,10,,,,,,,,,,,,,,,,,,,,,,,,main,1,1,2,neutral,neutral,k,k,1,0.7537327999998524,226.66447700000026,227.67500259999997,227.63603520000015,None,226.66447700000026,None,226.66447700000026,None,226.66447700000026,None,228.3979420000001,None,228.3979420000001,None,228.3979420000001,None,,,,,,,,,,,228,21,Female,2022-06-03_14h32.29.940,Main,2022.1.1,59.99646020884979,
neutral,negative,1,k,k,,,,,,,,,2,7,43,7,,,,,,,,,,,,,,,,,,,,,,,,main,1,1,1,negative,neutral,k,k,1,0.6314894000001914,228.42406700000038,229.43566959999998,229.41653380000025,None,228.42406700000038,None,228.42406700000038,None,228.42406700000038,None,230.03340040000018,None,230.03340040000018,None,230.03340040000018,None,,,,,,,,,,,228,21,Female,2022-06-03_14h32.29.940,Main,2022.1.1,59.99646020884979,
neutral,positive,1,k,k,,,,,,,,,2,8,44,4,,,,,,,,,,,,,,,,,,,,,,,,main,2,2,1,positive,neutral,k,k,1,0.6734896999996636,230.0576186000003,231.07693240000026,231.03781990000016,None,230.0576186000003,None,230.0576186000003,None,230.0576186000003,None,231.70949079999997,None,231.70949079999997,None,231.70949079999997,None,,,,,,,,,,,228,21,Female,2022-06-03_14h32.29.940,Main,2022.1.1,59.99646020884979,
positive,neutral,2,l,j,,,,,,,,,2,9,45,17,,,,,,,,,,,,,,,,,,,,,,,,main,1,1,2,neutral,positive,l,l,1,0.7374793999997564,231.73069160000023,232.74556090000033,232.70809210000016,None,231.73069160000023,None,231.73069160000023,None,231.73069160000023,None,233.4504322000003,None,233.4504322000003,None,233.4504322000003,None,,,,,,,,,,,228,21,Female,2022-06-03_14h32.29.940,Main,2022.1.1,59.99646020884979,
neutral,neutral,1,k,k,,,,,,,,,2,10,46,1,,,,,,,,,,,,,,,,,,,,,,,,main,2,2,1,neutral,neutral,k,k,1,0.8097517000001062,233.4746024000001,234.481354,234.4626158000001,None,233.4746024000001,None,233.4746024000001,None,233.4746024000001,None,235.26170959999996,None,235.26170959999996,None,235.26170959999996,None,,,,,,,,,,,228,21,Female,2022-06-03_14h32.29.940,Main,2022.1.1,59.99646020884979,
negative,negative,1,j,l,,,,,,,,,2,11,47,0,,,,,,,,,,,,,,,,,,,,,,,,main,2,2,1,negative,negative,j,j,1,0.6549251999999797,235.2838429000003,236.30194660000006,236.26405450000038,None,235.2838429000003,None,235.2838429000003,None,235.2838429000003,None,236.92103559999993,None,236.92103559999993,None,236.92103559999993,None,,,,,,,,,,,228,21,Female,2022-06-03_14h32.29.940,Main,2022.1.1,59.99646020884979,
positive,positive,1,l,j,,,,,,,,,2,12,48,2,,,,,,,,,,,,,,,,,,,,,,,,main,1,1,1,positive,positive,l,l,1,0.654333299999962,236.9428799000002,237.95927530000017,237.92033770000035,None,236.9428799000002,None,236.9428799000002,None,236.9428799000002,None,238.57552579999998,None,238.57552579999998,None,238.57552579999998,None,,,,,,,,,,,228,21,Female,2022-06-03_14h32.29.940,Main,2022.1.1,59.99646020884979,
positive,positive,2,l,j,,,,,,,,,2,13,49,11,,,,,,,,,,,,,,,,,,,,,,,,main,1,1,2,positive,positive,l,l,1,0.7529582000001938,238.59943060000023,239.60491020000018,239.58616210000037,None,238.59943060000023,None,238.59943060000023,None,238.59943060000023,None,240.33492840000014,None,240.33492840000014,None,240.33492840000014,None,,,,,,,,,,,228,21,Female,2022-06-03_14h32.29.940,Main,2022.1.1,59.99646020884979,
positive,negative,2,l,j,,,,,,,,,2,14,50,14,,,,,,,,,,,,,,,,,,,,,,,,main,2,2,2,negative,positive,l,l,1,0.7326540000003661,240.35448290000022,241.3587534000003,241.33932950000008,None,240.35448290000022,None,240.35448290000022,None,240.35448290000022,None,242.07004850000027,None,242.07004850000027,None,242.07004850000027,None,,,,,,,,,,,228,21,Female,2022-06-03_14h32.29.940,Main,2022.1.1,59.99646020884979,
negative,negative,2,j,l,,,,,,,,,2,15,51,9,,,,,,,,,,,,,,,,,,,,,,,,main,2,2,2,negative,negative,j,j,1,0.6942949999997836,242.09215370000038,243.0989295000004,243.0803103000003,None,242.09215370000038,None,242.09215370000038,None,242.09215370000038,None,243.76621830000028,None,243.76621830000028,None,243.76621830000028,None,,,,,,,,,,,228,21,Female,2022-06-03_14h32.29.940,Main,2022.1.1,59.99646020884979,
negative,neutral,1,j,l,,,,,,,,,2,16,52,3,,,,,,,,,,,,,,,,,,,,,,,,main,2,2,1,neutral,negative,j,j,1,0.6633675000002768,243.7901207,244.8024835000001,244.76421730000038,None,243.7901207,None,243.7901207,None,243.7901207,None,245.43096079999992,None,245.43096079999992,None,245.43096079999992,None,,,,,,,,,,,228,21,Female,2022-06-03_14h32.29.940,Main,2022.1.1,59.99646020884979,
positive,neutral,1,l,j,,,,,,,,,2,17,53,8,,,,,,,,,,,,,,,,,,,,,,,,main,2,2,1,neutral,positive,l,l,1,0.7384659999997893,245.45140760000004,246.4620033000001,246.42480360000036,None,245.45140760000004,None,245.45140760000004,None,245.45140760000004,None,247.17343510000006,None,247.17343510000006,None,247.17343510000006,None,,,,,,,,,,,228,21,Female,2022-06-03_14h32.29.940,Main,2022.1.1,59.99646020884979,
neutral,positive,1,k,k,,,,,,,,,3,0,54,4,,,,,,,,,,,,,,,,,,,,,,,,main,1,1,1,positive,neutral,k,k,1,0.6711903000000348,247.19476290000011,248.20541010000034,248.18633810000028,None,247.19476290000011,None,247.19476290000011,None,247.19476290000011,None,248.84908030000003,None,248.84908030000003,None,248.84908030000003,None,,,,,,,,,,,228,21,Female,2022-06-03_14h32.29.940,Main,2022.1.1,59.99646020884979,
negative,neutral,2,j,l,,,,,,,,,3,1,55,12,,,,,,,,,,,,,,,,,,,,,,,,main,1,1,2,neutral,negative,j,j,1,0.713613400000213,248.8717319000002,249.8799167000002,249.84284260000004,None,248.8717319000002,None,248.8717319000002,None,248.8717319000002,None,250.5655843,None,250.5655843,None,250.5655843,None,,,,,,,,,,,228,21,Female,2022-06-03_14h32.29.940,Main,2022.1.1,59.99646020884979,
negative,negative,2,j,l,,,,,,,,,3,2,56,9,,,,,,,,,,,,,,,,,,,,,,,,main,2,2,2,negative,negative,j,j,1,0.6430783999999221,250.58656980000023,251.59471320000011,251.5758450000003,None,250.58656980000023,None,250.58656980000023,None,250.58656980000023,None,252.2090643000002,None,252.2090643000002,None,252.2090643000002,None,,,,,,,,,,,228,21,Female,2022-06-03_14h32.29.940,Main,2022.1.1,59.99646020884979,
neutral,negative,1,k,k,,,,,,,,,3,3,57,7,,,,,,,,,,,,,,,,,,,,,,,,main,2,2,1,negative,neutral,k,k,1,0.7154973000001519,252.22915190000003,253.24242900000036,253.20405879999998,None,252.22915190000003,None,252.22915190000003,None,252.22915190000003,None,253.92767390000023,None,253.92767390000023,None,253.92767390000023,None,,,,,,,,,,,228,21,Female,2022-06-03_14h32.29.940,Main,2022.1.1,59.99646020884979,
negative,negative,1,j,l,,,,,,,,,3,4,58,0,,,,,,,,,,,,,,,,,,,,,,,,main,2,2,1,negative,negative,j,j,1,0.7504733999999189,253.94955500000015,254.95691160000024,254.9375457000001,None,253.94955500000015,None,253.94955500000015,None,253.94955500000015,None,255.6838496000001,None,255.6838496000001,None,255.6838496000001,None,,,,,,,,,,,228,21,Female,2022-06-03_14h32.29.940,Main,2022.1.1,59.99646020884979,
positive,positive,1,l,j,,,,,,,,,3,5,59,2,,,,,,,,,,,,,,,,,,,,,,,,main,1,1,1,positive,positive,l,l,1,0.7099769000001288,255.7064048000002,256.7256045000004,256.68865870000036,None,255.7064048000002,None,255.7064048000002,None,255.7064048000002,None,257.3940478,None,257.3940478,None,257.3940478,None,,,,,,,,,,,228,21,Female,2022-06-03_14h32.29.940,Main,2022.1.1,59.99646020884979,
neutral,positive,2,k,k,,,,,,,,,3,6,60,13,,,,,,,,,,,,,,,,,,,,,,,,main,1,1,2,positive,neutral,k,k,1,0.6929108999997879,257.4148600000003,258.4362712000002,258.38794270000017,None,257.4148600000003,None,257.4148600000003,None,257.4148600000003,None,259.0892392000001,None,259.0892392000001,None,259.0892392000001,None,,,,,,,,,,,228,21,Female,2022-06-03_14h32.29.940,Main,2022.1.1,59.99646020884979,
neutral,neutral,1,k,k,,,,,,,,,3,7,61,1,,,,,,,,,,,,,,,,,,,,,,,,main,1,1,1,neutral,neutral,k,k,1,0.6694740999996611,259.11152530000027,260.1154921000002,260.09541790000003,None,259.11152530000027,None,259.11152530000027,None,259.11152530000027,None,260.76213980000017,None,260.76213980000017,None,260.76213980000017,None,,,,,,,,,,,228,21,Female,2022-06-03_14h32.29.940,Main,2022.1.1,59.99646020884979,
negative,positive,1,j,l,,,,,,,,,3,8,62,6,,,,,,,,,,,,,,,,,,,,,,,,main,2,2,1,positive,negative,j,j,1,0.7299758999997721,260.7861361,261.8006145000004,261.76067980000016,None,260.7861361,None,260.7861361,None,260.7861361,None,262.49371700000034,None,262.49371700000034,None,262.49371700000034,None,,,,,,,,,,,228,21,Female,2022-06-03_14h32.29.940,Main,2022.1.1,59.99646020884979,
positive,neutral,2,l,j,,,,,,,,,3,9,63,17,,,,,,,,,,,,,,,,,,,,,,,,main,2,2,2,neutral,positive,l,l,1,0.6952928999999131,262.5183419,263.5318255000002,263.4936622,None,262.5183419,None,262.5183419,None,262.5183419,None,264.19153580000017,None,264.19153580000017,None,264.19153580000017,None,,,,,,,,,,,228,21,Female,2022-06-03_14h32.29.940,Main,2022.1.1,59.99646020884979,
positive,negative,1,l,j,,,,,,,,,3,10,64,5,,,,,,,,,,,,,,,,,,,,,,,,main,2,2,1,negative,positive,l,l,1,0.7674812999998721,264.2134723000004,265.2291462000003,265.19187580000016,None,264.2134723000004,None,264.2134723000004,None,264.2134723000004,None,265.96152979999994,None,265.96152979999994,None,265.96152979999994,None,,,,,,,,,,,228,21,Female,2022-06-03_14h32.29.940,Main,2022.1.1,59.99646020884979,
neutral,negative,2,k,k,,,,,,,,,3,11,65,16,,,,,,,,,,,,,,,,,,,,,,,,main,1,1,2,negative,neutral,k,k,1,0.6882360999998127,265.98162070000035,266.9854150000001,266.9664782,None,265.98162070000035,None,265.98162070000035,None,265.98162070000035,None,267.65451070000023,None,267.65451070000023,None,267.65451070000023,None,,,,,,,,,,,228,21,Female,2022-06-03_14h32.29.940,Main,2022.1.1,59.99646020884979,
negative,neutral,1,j,l,,,,,,,,,3,12,66,3,,,,,,,,,,,,,,,,,,,,,,,,main,2,2,1,neutral,negative,j,j,1,0.6551267999998345,267.67589190000035,268.68019890000005,268.6619466000002,None,267.67589190000035,None,267.67589190000035,None,267.67589190000035,None,269.3124982,None,269.3124982,None,269.3124982,None,,,,,,,,,,,228,21,Female,2022-06-03_14h32.29.940,Main,2022.1.1,59.99646020884979,
neutral,neutral,2,k,k,,,,,,,,,3,13,67,10,,,,,,,,,,,,,,,,,,,,,,,,main,2,2,2,neutral,neutral,k,k,1,0.7672575000001416,269.33803320000015,270.35127869999997,270.31259090000003,None,269.33803320000015,None,269.33803320000015,None,269.33803320000015,None,271.0830624000001,None,271.0830624000001,None,271.0830624000001,None,,,,,,,,,,,228,21,Female,2022-06-03_14h32.29.940,Main,2022.1.1,59.99646020884979,
positive,negative,2,l,j,,,,,,,,,3,14,68,14,,,,,,,,,,,,,,,,,,,,,,,,main,1,1,2,negative,positive,l,l,1,0.7727875000000495,271.1054584000003,272.1107573000004,272.09183310000026,None,271.1054584000003,None,271.1054584000003,None,271.1054584000003,None,272.8561505000003,None,272.8561505000003,None,272.8561505000003,None,,,,,,,,,,,228,21,Female,2022-06-03_14h32.29.940,Main,2022.1.1,59.99646020884979,
positive,neutral,1,l,j,,,,,,,,,3,15,69,8,,,,,,,,,,,,,,,,,,,,,,,,main,2,2,1,neutral,positive,l,l,1,0.6760828999999831,272.87814670000034,273.89719000000014,273.86008400000037,None,272.87814670000034,None,272.87814670000034,None,272.87814670000034,None,274.53656140000027,None,274.53656140000027,None,274.53656140000027,None,,,,,,,,,,,228,21,Female,2022-06-03_14h32.29.940,Main,2022.1.1,59.99646020884979,
negative,positive,2,j,l,,,,,,,,,3,16,70,15,,,,,,,,,,,,,,,,,,,,,,,,main,2,2,2,positive,negative,j,j,1,0.7818352999997842,274.55829730000005,275.573359,275.5352289000002,None,274.55829730000005,None,274.55829730000005,None,274.55829730000005,None,276.3217631000003,None,276.3217631000003,None,276.3217631000003,None,,,,,,,,,,,228,21,Female,2022-06-03_14h32.29.940,Main,2022.1.1,59.99646020884979,
positive,positive,2,l,j,,,,,,,,,3,17,71,11,,,,,,,,,,,,,,,,,,,,,,,,main,1,1,2,positive,positive,l,l,1,0.6879249000003256,276.344603,277.36131350000005,277.32364140000027,None,276.344603,None,276.344603,None,276.344603,None,278.0149734000002,None,278.0149734000002,None,278.0149734000002,None,,,,,,,,,,,228,21,Female,2022-06-03_14h32.29.940,Main,2022.1.1,59.99646020884979,
neutral,negative,2,k,k,,,,,,,,,4,0,72,16,,,,,,,,,,,,,,,,,,,,,,,,main,1,1,2,negative,neutral,k,k,1,0.7910045999997237,278.03593990000036,279.04198399999996,279.02328000000034,None,278.03593990000036,None,278.03593990000036,None,278.03593990000036,None,279.80746330000017,None,279.80746330000017,None,279.80746330000017,None,,,,,,,,,,,228,21,Female,2022-06-03_14h32.29.940,Main,2022.1.1,59.99646020884979,
positive,neutral,1,l,j,,,,,,,,,4,1,73,8,,,,,,,,,,,,,,,,,,,,,,,,main,2,2,1,neutral,positive,l,l,1,0.8939683999997214,279.8313055000003,280.84363980000035,280.8060555000002,None,279.8313055000003,None,279.8313055000003,None,279.8313055000003,None,281.7043594000002,None,281.7043594000002,None,281.7043594000002,None,,,,,,,,,,,228,21,Female,2022-06-03_14h32.29.940,Main,2022.1.1,59.99646020884979,
negative,negative,2,j,l,,,,,,,,,4,2,74,9,,,,,,,,,,,,,,,,,,,,,,,,main,2,2,2,negative,negative,j,j,1,0.6867557999999008,281.7241237000003,282.7257189000002,282.707621,None,281.7241237000003,None,281.7241237000003,None,281.7241237000003,None,283.39313450000014,None,283.39313450000014,None,283.39313450000014,None,,,,,,,,,,,228,21,Female,2022-06-03_14h32.29.940,Main,2022.1.1,59.99646020884979,
negative,neutral,1,j,l,,,,,,,,,4,3,75,3,,,,,,,,,,,,,,,,,,,,,,,,main,2,2,1,neutral,negative,j,j,1,0.6803264000000127,283.41330860000016,284.42651490000026,284.3868030000003,None,283.41330860000016,None,283.41330860000016,None,283.41330860000016,None,285.07820620000035,None,285.07820620000035,None,285.07820620000035,None,,,,,,,,,,,228,21,Female,2022-06-03_14h32.29.940,Main,2022.1.1,59.99646020884979,
positive,negative,2,l,j,,,,,,,,,4,4,76,14,,,,,,,,,,,,,,,,,,,,,,,,main,1,1,2,negative,positive,l,l,1,0.6461160999997446,285.09773859999996,286.11158000000023,286.0729045000003,None,285.09773859999996,None,285.09773859999996,None,285.09773859999996,None,286.7245977000003,None,286.7245977000003,None,286.7245977000003,None,,,,,,,,,,,228,21,Female,2022-06-03_14h32.29.940,Main,2022.1.1,59.99646020884979,
neutral,negative,1,k,k,,,,,,,,,4,5,77,7,,,,,,,,,,,,,,,,,,,,,,,,main,1,1,1,negative,neutral,k,k,1,0.6799292000000605,286.74891860000025,287.75557879999997,287.7358602000004,None,286.74891860000025,None,286.74891860000025,None,286.74891860000025,None,288.4057722000003,None,288.4057722000003,None,288.4057722000003,None,,,,,,,,,,,228,21,Female,2022-06-03_14h32.29.940,Main,2022.1.1,59.99646020884979,
neutral,positive,1,k,k,,,,,,,,,4,6,78,4,,,,,,,,,,,,,,,,,,,,,,,,main,1,1,1,positive,neutral,k,k,1,0.7481012999996892,288.43604860000005,289.45232450000003,289.43009770000026,None,288.43604860000005,None,288.43604860000005,None,288.43604860000005,None,290.15981300000027,None,290.15981300000027,None,290.15981300000027,None,,,,,,,,,,,228,21,Female,2022-06-03_14h32.29.940,Main,2022.1.1,59.99646020884979,
positive,positive,1,l,j,,,,,,,,,4,7,79,2,,,,,,,,,,,,,,,,,,,,,,,,main,1,1,1,positive,positive,l,l,1,0.835522100000162,290.18021580000004,291.1838995000003,291.1654416000001,None,290.18021580000004,None,290.18021580000004,None,290.18021580000004,None,291.99649700000015,None,291.99649700000015,None,291.99649700000015,None,,,,,,,,,,,228,21,Female,2022-06-03_14h32.29.940,Main,2022.1.1,59.99646020884979,
neutral,neutral,1,k,k,,,,,,,,,4,8,80,1,,,,,,,,,,,,,,,,,,,,,,,,main,2,2,1,neutral,neutral,k,k,1,0.9538190999996914,292.0264164,293.0409982000001,293.0033582000001,None,292.0264164,None,292.0264164,None,292.0264164,None,293.95664070000026,None,293.95664070000026,None,293.95664070000026,None,,,,,,,,,,,228,21,Female,2022-06-03_14h32.29.940,Main,2022.1.1,59.99646020884979,
negative,negative,1,j,l,,,,,,,,,4,9,81,0,,,,,,,,,,,,,,,,,,,,,,,,main,1,1,1,negative,negative,j,j,1,0.6298280999999406,293.9829781000003,294.9969325000002,294.9590879000002,None,293.9829781000003,None,293.9829781000003,None,293.9829781000003,None,295.58989100000014,None,295.58989100000014,None,295.58989100000014,None,,,,,,,,,,,228,21,Female,2022-06-03_14h32.29.940,Main,2022.1.1,59.99646020884979,
positive,neutral,2,l,j,,,,,,,,,4,10,82,17,,,,,,,,,,,,,,,,,,,,,,,,main,1,1,2,neutral,positive,l,l,1,0.6158981999997195,295.61031090000006,296.6187086,296.5992490000003,None,295.61031090000006,None,295.61031090000006,None,295.61031090000006,None,297.20916459999995,None,297.20916459999995,None,297.20916459999995,None,,,,,,,,,,,228,21,Female,2022-06-03_14h32.29.940,Main,2022.1.1,59.99646020884979,
negative,positive,1,j,l,,,,,,,,,4,11,83,6,,,,,,,,,,,,,,,,,,,,,,,,main,2,2,1,positive,negative,j,j,1,0.7555081000000428,297.23024669999995,298.2378762000003,298.21924050000007,None,297.23024669999995,None,297.23024669999995,None,297.23024669999995,None,298.96768590000016,None,298.96768590000016,None,298.96768590000016,None,,,,,,,,,,,228,21,Female,2022-06-03_14h32.29.940,Main,2022.1.1,59.99646020884979,
neutral,neutral,2,k,k,,,,,,,,,4,12,84,10,,,,,,,,,,,,,,,,,,,,,,,,main,1,1,2,neutral,neutral,k,k,1,0.7504413000001477,298.98999090000007,299.99163480000016,299.97274130000005,None,298.98999090000007,None,298.98999090000007,None,298.98999090000007,None,300.7204589000003,None,300.7204589000003,None,300.7204589000003,None,,,,,,,,,,,228,21,Female,2022-06-03_14h32.29.940,Main,2022.1.1,59.99646020884979,
negative,neutral,2,j,l,,,,,,,,,4,13,85,12,,,,,,,,,,,,,,,,,,,,,,,,main,2,2,2,neutral,negative,j,j,1,0.787458499999957,300.7424742000003,301.75034140000025,301.73092480000014,None,300.7424742000003,None,300.7424742000003,None,300.7424742000003,None,302.51255290000023,None,302.51255290000023,None,302.51255290000023,None,,,,,,,,,,,228,21,Female,2022-06-03_14h32.29.940,Main,2022.1.1,59.99646020884979,
positive,positive,2,l,j,,,,,,,,,4,14,86,11,,,,,,,,,,,,,,,,,,,,,,,,main,2,2,2,positive,positive,l,l,1,0.779146899999887,302.5347283000001,303.5620705000001,303.51514160000033,None,302.5347283000001,None,302.5347283000001,None,302.5347283000001,None,304.29428200000035,None,304.29428200000035,None,304.29428200000035,None,,,,,,,,,,,228,21,Female,2022-06-03_14h32.29.940,Main,2022.1.1,59.99646020884979,
neutral,positive,2,k,k,,,,,,,,,4,15,87,13,,,,,,,,,,,,,,,,,,,,,,,,main,1,1,2,positive,neutral,k,k,1,0.6762877999999546,304.31522600000017,305.32204070000034,305.30335230000037,None,304.31522600000017,None,304.31522600000017,None,304.31522600000017,None,305.97140300000007,None,305.97140300000007,None,305.97140300000007,None,,,,,,,,,,,228,21,Female,2022-06-03_14h32.29.940,Main,2022.1.1,59.99646020884979,
negative,positive,2,j,l,,,,,,,,,4,16,88,15,,,,,,,,,,,,,,,,,,,,,,,,main,2,2,2,positive,negative,j,j,1,0.698421000000053,305.99309140000014,306.9950202,306.9755620000001,None,305.99309140000014,None,305.99309140000014,None,305.99309140000014,None,307.671046,None,307.671046,None,307.671046,None,,,,,,,,,,,228,21,Female,2022-06-03_14h32.29.940,Main,2022.1.1,59.99646020884979,
positive,negative,1,l,j,,,,,,,,,4,17,89,5,,,,,,,,,,,,,,,,,,,,,,,,main,1,1,1,negative,positive,l,l,1,0.831779799999822,307.6929753000004,308.70925160000024,308.6817166000001,None,307.6929753000004,None,307.6929753000004,None,307.6929753000004,None,309.5060216000002,None,309.5060216000002,None,309.5060216000002,None,,,,,,,,,,,228,21,Female,2022-06-03_14h32.29.940,Main,2022.1.1,59.99646020884979,
negative,positive,1,j,l,,,,,,,,,5,0,90,6,,,,,,,,,,,,,,,,,,,,,,,,main,2,2,1,positive,negative,j,j,1,0.7469778999998198,309.52747820000013,310.54359109999996,310.50567660000024,None,309.52747820000013,None,309.52747820000013,None,309.52747820000013,None,311.2563158000003,None,311.2563158000003,None,311.2563158000003,None,,,,,,,,,,,228,21,Female,2022-06-03_14h32.29.940,Main,2022.1.1,59.99646020884979,
neutral,neutral,2,k,k,,,,,,,,,5,1,91,10,,,,,,,,,,,,,,,,,,,,,,,,main,2,2,2,neutral,neutral,k,k,1,0.8954142999996293,311.2785438000001,312.2916511000003,312.25427290000016,None,311.2785438000001,None,311.2785438000001,None,311.2785438000001,None,313.15393360000013,None,313.15393360000013,None,313.15393360000013,None,,,,,,,,,,,228,21,Female,2022-06-03_14h32.29.940,Main,2022.1.1,59.99646020884979,
negative,negative,2,j,l,,,,,,,,,5,2,92,9,,,,,,,,,,,,,,,,,,,,,,,,main,1,1,2,negative,negative,j,j,1,0.7585899000000609,313.1750380000003,314.19044120000035,314.15507460000026,None,313.1750380000003,None,313.1750380000003,None,313.1750380000003,None,314.91584259999996,None,314.91584259999996,None,314.91584259999996,None,,,,,,,,,,,228,21,Female,2022-06-03_14h32.29.940,Main,2022.1.1,59.99646020884979,
positive,positive,2,l,j,,,,,,,,,5,3,93,11,,,,,,,,,,,,,,,,,,,,,,,,main,1,1,2,positive,positive,l,l,1,0.6549644000001535,314.9376325000003,315.9400286,315.9218087000004,None,314.9376325000003,None,314.9376325000003,None,314.9376325000003,None,316.5736726999999,None,316.5736726999999,None,316.5736726999999,None,,,,,,,,,,,228,21,Female,2022-06-03_14h32.29.940,Main,2022.1.1,59.99646020884979,
positive,neutral,2,l,j,,,,,,,,,5,4,94,17,,,,,,,,,,,,,,,,,,,,,,,,main,1,1,2,neutral,positive,l,l,1,0.6444956000000275,316.5974868000003,317.6047749000004,317.5854161000002,None,316.5974868000003,None,316.5974868000003,None,316.5974868000003,None,318.21965970000025,None,318.21965970000025,None,318.21965970000025,None,,,,,,,,,,,228,21,Female,2022-06-03_14h32.29.940,Main,2022.1.1,59.99646020884979,
positive,neutral,1,l,j,,,,,,,,,5,5,95,8,,,,,,,,,,,,,,,,,,,,,,,,main,1,1,1,neutral,positive,l,l,1,0.7551791999999296,318.24402390000023,319.25997380000035,319.2218509000004,None,318.24402390000023,None,318.24402390000023,None,318.24402390000023,None,319.97942110000037,None,319.97942110000037,None,319.97942110000037,None,,,,,,,,,,,228,21,Female,2022-06-03_14h32.29.940,Main,2022.1.1,59.99646020884979,
neutral,positive,2,k,k,,,,,,,,,5,6,96,13,,,,,,,,,,,,,,,,,,,,,,,,main,2,2,2,positive,neutral,k,k,1,0.8669145999997454,320.00273500000003,321.01907240000037,320.9816584,None,320.00273500000003,None,320.00273500000003,None,320.00273500000003,None,321.84897320000033,None,321.84897320000033,None,321.84897320000033,None,,,,,,,,,,,228,21,Female,2022-06-03_14h32.29.940,Main,2022.1.1,59.99646020884979,
neutral,positive,1,k,k,,,,,,,,,5,7,97,4,,,,,,,,,,,,,,,,,,,,,,,,main,1,1,1,positive,neutral,k,k,1,0.7669786999999815,321.8704603000001,322.8876256000003,322.8497559000002,None,321.8704603000001,None,321.8704603000001,None,321.8704603000001,None,323.61861170000026,None,323.61861170000026,None,323.61861170000026,None,,,,,,,,,,,228,21,Female,2022-06-03_14h32.29.940,Main,2022.1.1,59.99646020884979,
positive,negative,1,l,j,,,,,,,,,5,8,98,5,,,,,,,,,,,,,,,,,,,,,,,,main,1,1,1,negative,positive,l,l,1,0.7773573999998007,323.6393611000003,324.6528366000002,324.61563479999995,None,323.6393611000003,None,323.6393611000003,None,323.6393611000003,None,325.3986112000003,None,325.3986112000003,None,325.3986112000003,None,,,,,,,,,,,228,21,Female,2022-06-03_14h32.29.940,Main,2022.1.1,59.99646020884979,
negative,neutral,2,j,l,,,,,,,,,5,9,99,12,,,,,,,,,,,,,,,,,,,,,,,,main,1,1,2,neutral,negative,j,j,1,0.7422418999999536,325.4182922,326.4362298000001,326.3984187000001,None,325.4182922,None,325.4182922,None,325.4182922,None,327.1450336000003,None,327.1450336000003,None,327.1450336000003,None,,,,,,,,,,,228,21,Female,2022-06-03_14h32.29.940,Main,2022.1.1,59.99646020884979,
neutral,negative,2,k,k,,,,,,,,,5,10,100,16,,,,,,,,,,,,,,,,,,,,,,,,main,1,1,2,negative,neutral,k,k,1,0.7033648000001449,327.1660197000001,328.16978130000007,328.1505390000002,None,327.1660197000001,None,327.1660197000001,None,327.1660197000001,None,328.8512260000003,None,328.8512260000003,None,328.8512260000003,None,,,,,,,,,,,228,21,Female,2022-06-03_14h32.29.940,Main,2022.1.1,59.99646020884979,
negative,neutral,1,j,l,,,,,,,,,5,11,101,3,,,,,,,,,,,,,,,,,,,,,,,,main,1,1,1,neutral,negative,j,j,1,0.7509494999999333,328.8714642,329.8819767,329.8633086,None,328.8714642,None,328.8714642,None,328.8714642,None,330.60700490000005,None,330.60700490000005,None,330.60700490000005,None,,,,,,,,,,,228,21,Female,2022-06-03_14h32.29.940,Main,2022.1.1,59.99646020884979,
positive,positive,1,l,j,,,,,,,,,5,12,102,2,,,,,,,,,,,,,,,,,,,,,,,,main,1,1,1,positive,positive,l,l,1,0.7287368000002061,330.63091120000036,331.64209370000026,331.60421680000036,None,330.63091120000036,None,330.63091120000036,None,330.63091120000036,None,332.3343366,None,332.3343366,None,332.3343366,None,,,,,,,,,,,228,21,Female,2022-06-03_14h32.29.940,Main,2022.1.1,59.99646020884979,
neutral,negative,1,k,k,,,,,,,,,5,13,103,7,,,,,,,,,,,,,,,,,,,,,,,,main,2,2,1,negative,neutral,k,k,1,0.6969758999998703,332.3597063000002,333.3788609000003,333.3540823000003,None,332.3597063000002,None,332.3597063000002,None,332.3597063000002,None,334.03370290000026,None,334.03370290000026,None,334.03370290000026,None,,,,,,,,,,,228,21,Female,2022-06-03_14h32.29.940,Main,2022.1.1,59.99646020884979,
neutral,neutral,1,k,k,,,,,,,,,5,14,104,1,,,,,,,,,,,,,,,,,,,,,,,,main,2,2,1,neutral,neutral,k,k,1,0.7057064999999056,334.0573220000001,335.06663720000006,335.04796620000025,None,334.0573220000001,None,334.0573220000001,None,334.0573220000001,None,335.74501130000004,None,335.74501130000004,None,335.74501130000004,None,,,,,,,,,,,228,21,Female,2022-06-03_14h32.29.940,Main,2022.1.1,59.99646020884979,
negative,positive,2,j,l,,,,,,,,,5,15,105,15,,,,,,,,,,,,,,,,,,,,,,,,main,1,1,2,positive,negative,j,j,1,0.8055494000000181,335.7690985000004,336.7864668000002,336.74856160000036,None,335.7690985000004,None,335.7690985000004,None,335.7690985000004,None,337.55541450000015,None,337.55541450000015,None,337.55541450000015,None,,,,,,,,,,,228,21,Female,2022-06-03_14h32.29.940,Main,2022.1.1,59.99646020884979,
negative,negative,1,j,l,,,,,,,,,5,16,106,0,,,,,,,,,,,,,,,,,,,,,,,,main,1,1,1,negative,negative,j,j,1,0.8219826999998077,337.57672300000013,338.5890881,338.5511332000001,None,337.57672300000013,None,337.57672300000013,None,337.57672300000013,None,339.37910689999995,None,339.37910689999995,None,339.37910689999995,None,,,,,,,,,,,228,21,Female,2022-06-03_14h32.29.940,Main,2022.1.1,59.99646020884979,
positive,negative,2,l,j,,,,,,,,,5,17,107,14,,,,,,,,,,,,,,,,,,,,,,,,main,2,2,2,negative,positive,l,l,1,0.7682340999999724,339.39913350000006,340.40472150000005,340.3863789000002,None,339.39913350000006,None,339.39913350000006,None,339.39913350000006,None,341.1504498,None,341.1504498,None,341.1504498,None,,,,,,,,,,,228,21,Female,2022-06-03_14h32.29.940,Main,2022.1.1,59.99646020884979,
neutral,positive,2,k,k,,,,,,,,,6,0,108,13,,,,,,,,,,,,,,,,,,,,,,,,main,1,1,2,positive,neutral,k,k,1,0.6523784999999407,341.1744229000001,342.1853704,342.1484644000002,None,341.1744229000001,None,341.1744229000001,None,341.1744229000001,None,342.8073420000001,None,342.8073420000001,None,342.8073420000001,None,,,,,,,,,,,228,21,Female,2022-06-03_14h32.29.940,Main,2022.1.1,59.99646020884979,
neutral,positive,1,k,k,,,,,,,,,6,1,109,4,,,,,,,,,,,,,,,,,,,,,,,,main,2,2,1,positive,neutral,k,k,1,0.6919207999999344,342.8292355000003,343.84803060000013,343.80960200000027,None,342.8292355000003,None,342.8292355000003,None,342.8292355000003,None,344.49972669999994,None,344.49972669999994,None,344.49972669999994,None,,,,,,,,,,,228,21,Female,2022-06-03_14h32.29.940,Main,2022.1.1,59.99646020884979,
negative,neutral,2,j,l,,,,,,,,,6,2,110,12,,,,,,,,,,,,,,,,,,,,,,,,main,1,1,2,neutral,negative,j,j,1,0.6712137999998049,344.52407660000017,345.5425640000003,345.50413930000013,None,344.52407660000017,None,344.52407660000017,None,344.52407660000017,None,346.1756224000001,None,346.1756224000001,None,346.1756224000001,None,,,,,,,,,,,228,21,Female,2022-06-03_14h32.29.940,Main,2022.1.1,59.99646020884979,
negative,negative,2,j,l,,,,,,,,,6,3,111,9,,,,,,,,,,,,,,,,,,,,,,,,main,2,2,2,negative,negative,j,j,1,0.650759300000118,346.19549700000016,347.21031570000014,347.17012680000016,None,346.19549700000016,None,346.19549700000016,None,346.19549700000016,None,347.82843740000004,None,347.82843740000004,None,347.82843740000004,None,,,,,,,,,,,228,21,Female,2022-06-03_14h32.29.940,Main,2022.1.1,59.99646020884979,
positive,positive,1,l,j,,,,,,,,,6,4,112,2,,,,,,,,,,,,,,,,,,,,,,,,main,1,1,1,positive,positive,l,l,1,0.6500414000001911,347.8503045000002,348.8689210000002,348.83039940000026,None,347.8503045000002,None,347.8503045000002,None,347.8503045000002,None,349.48030950000026,None,349.48030950000026,None,349.48030950000026,None,,,,,,,,,,,228,21,Female,2022-06-03_14h32.29.940,Main,2022.1.1,59.99646020884979,
neutral,negative,1,k,k,,,,,,,,,6,5,113,7,,,,,,,,,,,,,,,,,,,,,,,,main,1,1,1,negative,neutral,k,k,1,0.6844747999998617,349.5015601,350.51402750000034,350.47699409999996,None,349.5015601,None,349.5015601,None,349.5015601,None,351.16777110000027,None,351.16777110000027,None,351.16777110000027,None,,,,,,,,,,,228,21,Female,2022-06-03_14h32.29.940,Main,2022.1.1,59.99646020884979,
negative,positive,2,j,l,,,,,,,,,6,6,114,15,,,,,,,,,,,,,,,,,,,,,,,,main,1,1,2,positive,negative,j,j,1,1.3779671000002054,351.1887807000003,352.2054059000002,352.1670772000002,None,351.1887807000003,None,351.1887807000003,None,351.1887807000003,None,353.54864589999994,None,353.54864589999994,None,353.54864589999994,None,,,,,,,,,,,228,21,Female,2022-06-03_14h32.29.940,Main,2022.1.1,59.99646020884979,
positive,negative,2,l,j,,,,,,,,,6,7,115,14,,,,,,,,,,,,,,,,,,,,,,,,main,2,2,2,negative,positive,l,l,1,0.8168350999999348,353.5735460000001,354.58212040000035,354.54455270000017,None,353.5735460000001,None,353.5735460000001,None,353.5735460000001,None,355.3671792999999,None,355.3671792999999,None,355.3671792999999,None,,,,,,,,,,,228,21,Female,2022-06-03_14h32.29.940,Main,2022.1.1,59.99646020884979,
negative,negative,1,j,l,,,,,,,,,6,8,116,0,,,,,,,,,,,,,,,,,,,,,,,,main,1,1,1,negative,negative,j,j,1,0.6245271000002504,355.3920162000004,356.4015763000002,356.36576130000003,None,355.3920162000004,None,355.3920162000004,None,355.3920162000004,None,356.9944358000003,None,356.9944358000003,None,356.9944358000003,None,,,,,,,,,,,228,21,Female,2022-06-03_14h32.29.940,Main,2022.1.1,59.99646020884979,
neutral,negative,2,k,k,,,,,,,,,6,9,117,16,,,,,,,,,,,,,,,,,,,,,,,,main,1,1,2,negative,neutral,k,k,1,0.7583537000000433,357.0153127000003,358.02964550000024,357.9918640000001,None,357.0153127000003,None,357.0153127000003,None,357.0153127000003,None,358.7571695000002,None,358.7571695000002,None,358.7571695000002,None,,,,,,,,,,,228,21,Female,2022-06-03_14h32.29.940,Main,2022.1.1,59.99646020884979,
positive,neutral,1,l,j,,,,,,,,,6,10,118,8,,,,,,,,,,,,,,,,,,,,,,,,main,2,2,1,neutral,positive,l,l,1,0.7465695000000778,358.7781708000002,359.79636100000016,359.7585667000003,None,358.7781708000002,None,358.7781708000002,None,358.7781708000002,None,360.5069790000003,None,360.5069790000003,None,360.5069790000003,None,,,,,,,,,,,228,21,Female,2022-06-03_14h32.29.940,Main,2022.1.1,59.99646020884979,
positive,neutral,2,l,j,,,,,,,,,6,11,119,17,,,,,,,,,,,,,,,,,,,,,,,,main,1,1,2,neutral,positive,l,l,1,0.791225299999951,360.52755909999996,361.5358378000001,361.5172563000001,None,360.52755909999996,None,360.52755909999996,None,360.52755909999996,None,362.30186370000007,None,362.30186370000007,None,362.30186370000007,None,,,,,,,,,,,228,21,Female,2022-06-03_14h32.29.940,Main,2022.1.1,59.99646020884979,
positive,positive,2,l,j,,,,,,,,,6,12,120,11,,,,,,,,,,,,,,,,,,,,,,,,main,2,2,2,positive,positive,l,l,1,0.7938760000001821,362.32231390000015,363.33225230000016,363.31314840000005,None,362.32231390000015,None,362.32231390000015,None,362.32231390000015,None,364.09695800000014,None,364.09695800000014,None,364.09695800000014,None,,,,,,,,,,,228,21,Female,2022-06-03_14h32.29.940,Main,2022.1.1,59.99646020884979,
neutral,neutral,2,k,k,,,,,,,,,6,13,121,10,,,,,,,,,,,,,,,,,,,,,,,,main,1,1,2,neutral,neutral,k,k,1,0.845861899999818,364.11725830000023,365.12598640000033,365.1068044000003,None,364.11725830000023,None,364.11725830000023,None,364.11725830000023,None,365.94533080000025,None,365.94533080000025,None,365.94533080000025,None,,,,,,,,,,,228,21,Female,2022-06-03_14h32.29.940,Main,2022.1.1,59.99646020884979,
negative,neutral,1,j,l,,,,,,,,,6,14,122,3,,,,,,,,,,,,,,,,,,,,,,,,main,2,2,1,neutral,negative,j,j,1,0.7344025000002148,365.96677620000037,366.9723878,366.9529931000002,None,365.96677620000037,None,365.96677620000037,None,365.96677620000037,None,367.683333,None,367.683333,None,367.683333,None,,,,,,,,,,,228,21,Female,2022-06-03_14h32.29.940,Main,2022.1.1,59.99646020884979,
positive,negative,1,l,j,,,,,,,,,6,15,123,5,,,,,,,,,,,,,,,,,,,,,,,,main,1,1,1,negative,positive,l,l,1,0.8368571999999403,367.7060110000002,368.7238580000003,368.6851507000001,None,367.7060110000002,None,367.7060110000002,None,367.7060110000002,None,369.5232425,None,369.5232425,None,369.5232425,None,,,,,,,,,,,228,21,Female,2022-06-03_14h32.29.940,Main,2022.1.1,59.99646020884979,
negative,positive,1,j,l,,,,,,,,,6,16,124,6,,,,,,,,,,,,,,,,,,,,,,,,main,2,2,1,positive,negative,j,j,1,0.7631277999998929,369.5459148,370.55592350000006,370.5366716000003,None,369.5459148,None,369.5459148,None,369.5459148,None,371.2908200000002,None,371.2908200000002,None,371.2908200000002,None,,,,,,,,,,,228,21,Female,2022-06-03_14h32.29.940,Main,2022.1.1,59.99646020884979,
neutral,neutral,1,k,k,,,,,,,,,6,17,125,1,,,,,,,,,,,,,,,,,,,,,,,,main,1,1,1,neutral,neutral,k,k,1,0.7191422000000784,371.3117564000004,372.3136233,372.29478070000005,None,371.3117564000004,None,371.3117564000004,None,371.3117564000004,None,373.0129017,None,373.0129017,None,373.0129017,None,,,,,,,,,,,228,21,Female,2022-06-03_14h32.29.940,Main,2022.1.1,59.99646020884979,
positive,negative,1,l,j,,,,,,,,,7,0,126,5,,,,,,,,,,,,,,,,,,,,,,,,main,2,2,1,negative,positive,l,l,1,1.1475697000000764,373.0371047000003,374.0474362,374.0080552000004,None,373.0371047000003,None,373.0371047000003,None,373.0371047000003,None,375.16245950000035,None,375.16245950000035,None,375.16245950000035,None,,,,,,,,,,,228,21,Female,2022-06-03_14h32.29.940,Main,2022.1.1,59.99646020884979,
positive,neutral,1,l,j,,,,,,,,,7,1,127,8,,,,,,,,,,,,,,,,,,,,,,,,main,1,1,1,neutral,positive,l,l,1,0.6800682999996752,375.18797250000034,376.19671289999997,376.1588450000004,None,375.18797250000034,None,375.18797250000034,None,375.18797250000034,None,376.8452071000002,None,376.8452071000002,None,376.8452071000002,None,,,,,,,,,,,228,21,Female,2022-06-03_14h32.29.940,Main,2022.1.1,59.99646020884979,
negative,neutral,1,j,l,,,,,,,,,7,2,128,3,,,,,,,,,,,,,,,,,,,,,,,,main,2,2,1,neutral,negative,j,j,1,0.833679100000154,376.87083500000017,377.8794819,377.84396140000035,None,376.87083500000017,None,376.87083500000017,None,376.87083500000017,None,378.6813121999999,None,378.6813121999999,None,378.6813121999999,None,,,,,,,,,,,228,21,Female,2022-06-03_14h32.29.940,Main,2022.1.1,59.99646020884979,
negative,positive,1,j,l,,,,,,,,,7,3,129,6,,,,,,,,,,,,,,,,,,,,,,,,main,1,1,1,positive,negative,j,j,1,0.7857743999998092,378.70190649999995,379.710556,379.69197280000026,None,378.70190649999995,None,378.70190649999995,None,378.70190649999995,None,380.4715744999999,None,380.4715744999999,None,380.4715744999999,None,,,,,,,,,,,228,21,Female,2022-06-03_14h32.29.940,Main,2022.1.1,59.99646020884979,
positive,positive,2,l,j,,,,,,,,,7,4,130,11,,,,,,,,,,,,,,,,,,,,,,,,main,2,2,2,positive,positive,l,l,1,0.7042529000000286,380.49250040000015,381.5067726000002,381.4692621000004,None,380.49250040000015,None,380.49250040000015,None,380.49250040000015,None,382.1783877000003,None,382.1783877000003,None,382.1783877000003,None,,,,,,,,,,,228,21,Female,2022-06-03_14h32.29.940,Main,2022.1.1,59.99646020884979,
neutral,neutral,1,k,k,,,,,,,,,7,5,131,1,,,,,,,,,,,,,,,,,,,,,,,,main,1,1,1,neutral,neutral,k,k,1,0.8713387000002513,382.2040442000002,383.21554530000003,383.1776463000001,None,382.2040442000002,None,382.2040442000002,None,382.2040442000002,None,384.0542208000002,None,384.0542208000002,None,384.0542208000002,None,,,,,,,,,,,228,21,Female,2022-06-03_14h32.29.940,Main,2022.1.1,59.99646020884979,
neutral,positive,2,k,k,,,,,,,,,7,6,132,13,,,,,,,,,,,,,,,,,,,,,,,,main,2,2,2,positive,neutral,k,k,1,0.8061760000000504,384.0757744000002,385.09226750000016,385.05457079999996,None,384.0757744000002,None,384.0757744000002,None,384.0757744000002,None,385.8611544000001,None,385.8611544000001,None,385.8611544000001,None,,,,,,,,,,,228,21,Female,2022-06-03_14h32.29.940,Main,2022.1.1,59.99646020884979,
neutral,positive,1,k,k,,,,,,,,,7,7,133,4,,,,,,,,,,,,,,,,,,,,,,,,main,2,2,1,positive,neutral,k,k,1,0.8001181999998153,385.8832575000001,386.8913222000001,386.87219630000027,None,385.8832575000001,None,385.8832575000001,None,385.8832575000001,None,387.6672164000002,None,387.6672164000002,None,387.6672164000002,None,,,,,,,,,,,228,21,Female,2022-06-03_14h32.29.940,Main,2022.1.1,59.99646020884979,
negative,neutral,2,j,l,,,,,,,,,7,8,134,12,,,,,,,,,,,,,,,,,,,,,,,,main,2,2,2,neutral,negative,j,j,1,1.4278713999997308,387.68813530000034,388.7005201000002,388.6613013000001,None,387.68813530000034,None,387.68813530000034,None,387.68813530000034,None,390.1644537999998,None,390.1644537999998,None,390.1644537999998,None,,,,,,,,,,,228,21,Female,2022-06-03_14h32.29.940,Main,2022.1.1,59.99646020884979,
neutral,neutral,2,k,k,,,,,,,,,7,9,135,10,,,,,,,,,,,,,,,,,,,,,,,,main,2,2,2,neutral,neutral,k,k,1,0.7859395000000404,390.1843336000002,391.1974330000003,391.1612513,None,390.1843336000002,None,390.1843336000002,None,390.1843336000002,None,391.95181850000023,None,391.95181850000023,None,391.95181850000023,None,,,,,,,,,,,228,21,Female,2022-06-03_14h32.29.940,Main,2022.1.1,59.99646020884979,
negative,positive,2,j,l,,,,,,,,,7,10,136,15,,,,,,,,,,,,,,,,,,,,,,,,main,2,2,2,positive,negative,j,j,1,0.7069353000001684,391.97198879999996,392.98427390000006,392.9651753000003,None,391.97198879999996,None,391.97198879999996,None,391.97198879999996,None,393.65993090000035,None,393.65993090000035,None,393.65993090000035,None,,,,,,,,,,,228,21,Female,2022-06-03_14h32.29.940,Main,2022.1.1,59.99646020884979,
neutral,negative,1,k,k,,,,,,,,,7,11,137,7,,,,,,,,,,,,,,,,,,,,,,,,main,2,2,1,negative,neutral,k,k,1,0.7640774999999849,393.6798759000003,394.6956457000001,394.6570737000002,None,393.6798759000003,None,393.6798759000003,None,393.6798759000003,None,395.4246811000003,None,395.4246811000003,None,395.4246811000003,None,,,,,,,,,,,228,21,Female,2022-06-03_14h32.29.940,Main,2022.1.1,59.99646020884979,
negative,negative,1,j,l,,,,,,,,,7,12,138,0,,,,,,,,,,,,,,,,,,,,,,,,main,1,1,1,negative,negative,j,j,1,0.7510446000001139,395.4501484000002,396.45532870000034,396.43568900000037,None,395.4501484000002,None,395.4501484000002,None,395.4501484000002,None,397.1817173,None,397.1817173,None,397.1817173,None,,,,,,,,,,,228,21,Female,2022-06-03_14h32.29.940,Main,2022.1.1,59.99646020884979,
positive,neutral,2,l,j,,,,,,,,,7,13,139,17,,,,,,,,,,,,,,,,,,,,,,,,main,2,2,2,neutral,positive,l,l,1,0.5793626000004224,397.20289230000026,398.21689570000035,398.17935320000015,None,397.20289230000026,None,397.20289230000026,None,397.20289230000026,None,398.76155160000013,None,398.76155160000013,None,398.76155160000013,None,,,,,,,,,,,228,21,Female,2022-06-03_14h32.29.940,Main,2022.1.1,59.99646020884979,
positive,negative,2,l,j,,,,,,,,,7,14,140,14,,,,,,,,,,,,,,,,,,,,,,,,main,2,2,2,negative,positive,l,l,1,0.7352278000003025,398.78183290000015,399.7885255000001,399.7693312000001,None,398.78183290000015,None,398.78183290000015,None,398.78183290000015,None,400.50109130000016,None,400.50109130000016,None,400.50109130000016,None,,,,,,,,,,,228,21,Female,2022-06-03_14h32.29.940,Main,2022.1.1,59.99646020884979,
neutral,negative,2,k,k,,,,,,,,,7,15,141,16,,,,,,,,,,,,,,,,,,,,,,,,main,2,2,2,negative,neutral,k,k,1,0.6987059000002773,400.52466619999996,401.53280470000027,401.5141211,None,400.52466619999996,None,400.52466619999996,None,400.52466619999996,None,402.20425870000014,None,402.20425870000014,None,402.20425870000014,None,,,,,,,,,,,228,21,Female,2022-06-03_14h32.29.940,Main,2022.1.1,59.99646020884979,
positive,positive,1,l,j,,,,,,,,,7,16,142,2,,,,,,,,,,,,,,,,,,,,,,,,main,2,2,1,positive,positive,l,l,1,0.761085400000411,402.2277830000003,403.2347500000001,403.2153408000004,None,402.2277830000003,None,402.2277830000003,None,402.2277830000003,None,403.9703514000003,None,403.9703514000003,None,403.9703514000003,None,,,,,,,,,,,228,21,Female,2022-06-03_14h32.29.940,Main,2022.1.1,59.99646020884979,
negative,negative,2,j,l,,,,,,,,,7,17,143,9,,,,,,,,,,,,,,,,,,,,,,,,main,2,2,2,negative,negative,j,j,1,0.691417100000308,403.9923474000002,404.9953121000003,404.97692340000003,None,403.9923474000002,None,403.9923474000002,None,403.9923474000002,None,405.6664822000003,None,405.6664822000003,None,405.6664822000003,None,,,,,,,,,,,228,21,Female,2022-06-03_14h32.29.940,Main,2022.1.1,59.99646020884979,
neutral,neutral,1,k,k,,,,,,,,,8,0,144,1,,,,,,,,,,,,,,,,,,,,,,,,main,1,1,1,neutral,neutral,k,k,1,0.7442142999998396,405.6866165000001,406.69036589999996,406.6706714000002,None,405.6866165000001,None,405.6866165000001,None,405.6866165000001,None,407.4112317,None,407.4112317,None,407.4112317,None,,,,,,,,,,,228,21,Female,2022-06-03_14h32.29.940,Main,2022.1.1,59.99646020884979,
negative,neutral,1,j,l,,,,,,,,,8,1,145,3,,,,,,,,,,,,,,,,,,,,,,,,main,2,2,1,neutral,negative,j,j,1,0.7092520999999579,407.4359955,408.45901300000014,408.41613340000004,None,407.4359955,None,407.4359955,None,407.4359955,None,409.12282039999997,None,409.12282039999997,None,409.12282039999997,None,,,,,,,,,,,228,21,Female,2022-06-03_14h32.29.940,Main,2022.1.1,59.99646020884979,
positive,negative,1,l,j,,,,,,,,,8,2,146,5,,,,,,,,,,,,,,,,,,,,,,,,main,1,1,1,negative,positive,l,l,1,1.1071960999997827,409.1451183000004,410.15766759999997,410.1370661000001,None,409.1451183000004,None,409.1451183000004,None,409.1451183000004,None,411.23428900000005,None,411.23428900000005,None,411.23428900000005,None,,,,,,,,,,,228,21,Female,2022-06-03_14h32.29.940,Main,2022.1.1,59.99646020884979,
negative,neutral,2,j,l,,,,,,,,,8,3,147,12,,,,,,,,,,,,,,,,,,,,,,,,main,2,2,2,neutral,negative,j,j,1,0.6967934999997851,411.2560043000003,412.2618927000003,412.24304680000023,None,411.2560043000003,None,411.2560043000003,None,411.2560043000003,None,412.9355835000002,None,412.9355835000002,None,412.9355835000002,None,,,,,,,,,,,228,21,Female,2022-06-03_14h32.29.940,Main,2022.1.1,59.99646020884979,
negative,positive,1,j,l,,,,,,,,,8,4,148,6,,,,,,,,,,,,,,,,,,,,,,,,main,1,1,1,positive,negative,j,j,1,0.6374603999997817,412.9571070000002,413.96159050000006,413.9422998,None,412.9571070000002,None,412.9571070000002,None,412.9571070000002,None,414.5774498000001,None,414.5774498000001,None,414.5774498000001,None,,,,,,,,,,,228,21,Female,2022-06-03_14h32.29.940,Main,2022.1.1,59.99646020884979,
negative,negative,2,j,l,,,,,,,,,8,5,149,9,,,,,,,,,,,,,,,,,,,,,,,,main,2,2,2,negative,negative,j,j,1,0.835164800000257,414.5975367000001,415.61204510000016,415.5741333000001,None,414.5975367000001,None,414.5975367000001,None,414.5975367000001,None,416.41554420000017,None,416.41554420000017,None,416.41554420000017,None,,,,,,,,,,,228,21,Female,2022-06-03_14h32.29.940,Main,2022.1.1,59.99646020884979,
neutral,positive,1,k,k,,,,,,,,,8,6,150,4,,,,,,,,,,,,,,,,,,,,,,,,main,2,2,1,positive,neutral,k,k,1,0.7240208000002895,416.4373826000001,417.44696840000006,417.42752500000006,None,416.4373826000001,None,416.4373826000001,None,416.4373826000001,None,418.13818720000023,None,418.13818720000023,None,418.13818720000023,None,,,,,,,,,,,228,21,Female,2022-06-03_14h32.29.940,Main,2022.1.1,59.99646020884979,
positive,neutral,2,l,j,,,,,,,,,8,7,151,17,,,,,,,,,,,,,,,,,,,,,,,,main,1,1,2,neutral,positive,l,l,1,0.678002799999831,418.1643565000004,419.18355950000023,419.1446897000001,None,418.1643565000004,None,418.1643565000004,None,418.1643565000004,None,419.81898410000036,None,419.81898410000036,None,419.81898410000036,None,,,,,,,,,,,228,21,Female,2022-06-03_14h32.29.940,Main,2022.1.1,59.99646020884979,
positive,positive,2,l,j,,,,,,,,,8,8,152,11,,,,,,,,,,,,,,,,,,,,,,,,main,2,2,2,positive,positive,l,l,1,0.6526402999998027,419.8411761000002,420.85970270000007,420.8224008000002,None,419.8411761000002,None,419.8411761000002,None,419.8411761000002,None,421.4768727000001,None,421.4768727000001,None,421.4768727000001,None,,,,,,,,,,,228,21,Female,2022-06-03_14h32.29.940,Main,2022.1.1,59.99646020884979,
negative,positive,2,j,l,,,,,,,,,8,9,153,15,,,,,,,,,,,,,,,,,,,,,,,,main,1,1,2,positive,negative,j,j,1,0.7955038000000059,421.49887960000024,422.50355149999996,422.48414060000005,None,421.49887960000024,None,421.49887960000024,None,421.49887960000024,None,423.27315840000034,None,423.27315840000034,None,423.27315840000034,None,,,,,,,,,,,228,21,Female,2022-06-03_14h32.29.940,Main,2022.1.1,59.99646020884979,
neutral,positive,2,k,k,,,,,,,,,8,10,154,13,,,,,,,,,,,,,,,,,,,,,,,,main,1,1,2,positive,neutral,k,k,1,0.7963738999997076,423.2980985000004,424.30629350000027,424.2864248000001,None,423.2980985000004,None,423.2980985000004,None,423.2980985000004,None,425.07256650000005,None,425.07256650000005,None,425.07256650000005,None,,,,,,,,,,,228,21,Female,2022-06-03_14h32.29.940,Main,2022.1.1,59.99646020884979,
positive,positive,1,l,j,,,,,,,,,8,11,155,2,,,,,,,,,,,,,,,,,,,,,,,,main,1,1,1,positive,positive,l,l,1,0.7214374000000134,425.0964831000001,426.1044730000003,426.06690240000034,None,425.0964831000001,None,425.0964831000001,None,425.0964831000001,None,426.79827370000027,None,426.79827370000027,None,426.79827370000027,None,,,,,,,,,,,228,21,Female,2022-06-03_14h32.29.940,Main,2022.1.1,59.99646020884979,
neutral,negative,1,k,k,,,,,,,,,8,12,156,7,,,,,,,,,,,,,,,,,,,,,,,,main,2,2,1,negative,neutral,k,k,1,0.8291171999999278,426.8213162000002,427.8343046,427.7957686,None,426.8213162000002,None,426.8213162000002,None,426.8213162000002,None,428.6298821000001,None,428.6298821000001,None,428.6298821000001,None,,,,,,,,,,,228,21,Female,2022-06-03_14h32.29.940,Main,2022.1.1,59.99646020884979,
positive,neutral,1,l,j,,,,,,,,,8,13,157,8,,,,,,,,,,,,,,,,,,,,,,,,main,2,2,1,neutral,positive,l,l,1,0.7559338999999454,428.65177710000034,429.6597740000002,429.6408897000001,None,428.65177710000034,None,428.65177710000034,None,428.65177710000034,None,430.3867854999999,None,430.3867854999999,None,430.3867854999999,None,,,,,,,,,,,228,21,Female,2022-06-03_14h32.29.940,Main,2022.1.1,59.99646020884979,
positive,negative,2,l,j,,,,,,,,,8,14,158,14,,,,,,,,,,,,,,,,,,,,,,,,main,1,1,2,negative,positive,l,l,1,0.9023688000002039,430.4070435000003,431.4087307,431.3898889000002,None,430.4070435000003,None,430.4070435000003,None,430.4070435000003,None,432.2925281000003,None,432.2925281000003,None,432.2925281000003,None,,,,,,,,,,,228,21,Female,2022-06-03_14h32.29.940,Main,2022.1.1,59.99646020884979,
neutral,negative,2,k,k,,,,,,,,,8,15,159,16,,,,,,,,,,,,,,,,,,,,,,,,main,2,2,2,negative,neutral,k,k,1,0.9608511999999791,432.3172617,433.32274860000007,433.3038657000002,None,432.3172617,None,432.3172617,None,432.3172617,None,434.2549189000002,None,434.2549189000002,None,434.2549189000002,None,,,,,,,,,,,228,21,Female,2022-06-03_14h32.29.940,Main,2022.1.1,59.99646020884979,
neutral,neutral,2,k,k,,,,,,,,,8,16,160,10,,,,,,,,,,,,,,,,,,,,,,,,main,1,1,2,neutral,neutral,k,k,1,0.7441495999996732,434.27892980000024,435.2944493,435.2569853,None,434.27892980000024,None,434.27892980000024,None,434.27892980000024,None,436.00178090000014,None,436.00178090000014,None,436.00178090000014,None,,,,,,,,,,,228,21,Female,2022-06-03_14h32.29.940,Main,2022.1.1,59.99646020884979,
negative,negative,1,j,l,,,,,,,,,8,17,161,0,,,,,,,,,,,,,,,,,,,,,,,,main,1,1,1,negative,negative,j,j,1,0.7859044000001632,436.0230714000004,437.0256343000001,437.00734820000025,None,436.0230714000004,None,436.0230714000004,None,436.0230714000004,None,437.7912089000002,None,437.7912089000002,None,437.7912089000002,None,,,,,,,,,,,228,21,Female,2022-06-03_14h32.29.940,Main,2022.1.1,59.99646020884979,
negative,positive,2,j,l,,,,,,,,,9,0,162,15,,,,,,,,,,,,,,,,,,,,,,,,main,2,2,2,positive,negative,j,j,1,0.8156167000001915,437.8112165000002,438.82197540000016,438.7841884000004,None,437.8112165000002,None,437.8112165000002,None,437.8112165000002,None,439.6099482,None,439.6099482,None,439.6099482,None,,,,,,,,,,,228,21,Female,2022-06-03_14h32.29.940,Main,2022.1.1,59.99646020884979,
negative,neutral,1,j,l,,,,,,,,,9,1,163,3,,,,,,,,,,,,,,,,,,,,,,,,main,1,1,1,neutral,negative,j,j,1,0.9029381000000285,439.62934250000035,440.63353670000015,440.61517840000033,None,439.62934250000035,None,439.62934250000035,None,439.62934250000035,None,441.51539340000005,None,441.51539340000005,None,441.51539340000005,None,,,,,,,,,,,228,21,Female,2022-06-03_14h32.29.940,Main,2022.1.1,59.99646020884979,
negative,negative,2,j,l,,,,,,,,,9,2,164,9,,,,,,,,,,,,,,,,,,,,,,,,main,2,2,2,negative,negative,j,j,1,0.7883877999997821,441.5356112000004,442.5421656000003,442.52364490000036,None,441.5356112000004,None,441.5356112000004,None,441.5356112000004,None,443.3060467000001,None,443.3060467000001,None,443.3060467000001,None,,,,,,,,,,,228,21,Female,2022-06-03_14h32.29.940,Main,2022.1.1,59.99646020884979,
positive,neutral,2,l,j,,,,,,,,,9,3,165,17,,,,,,,,,,,,,,,,,,,,,,,,main,2,2,2,neutral,positive,l,l,1,0.6614960000001702,443.3309760000002,444.3373934000001,444.31833840000036,None,443.3309760000002,None,443.3309760000002,None,443.3309760000002,None,444.9703427,None,444.9703427,None,444.9703427,None,,,,,,,,,,,228,21,Female,2022-06-03_14h32.29.940,Main,2022.1.1,59.99646020884979,
negative,negative,1,j,l,,,,,,,,,9,4,166,0,,,,,,,,,,,,,,,,,,,,,,,,main,2,2,1,negative,negative,j,j,1,0.771122899999682,444.99452770000016,446.0102028000001,445.9719054000002,None,444.99452770000016,None,444.99452770000016,None,444.99452770000016,None,446.7438017,None,446.7438017,None,446.7438017,None,,,,,,,,,,,228,21,Female,2022-06-03_14h32.29.940,Main,2022.1.1,59.99646020884979,
positive,positive,1,l,j,,,,,,,,,9,5,167,2,,,,,,,,,,,,,,,,,,,,,,,,main,1,1,1,positive,positive,l,l,1,0.7640307000001485,446.76633870000023,447.7793891000001,447.7603508000002,None,446.76633870000023,None,446.76633870000023,None,446.76633870000023,None,448.5141355000001,None,448.5141355000001,None,448.5141355000001,None,,,,,,,,,,,228,21,Female,2022-06-03_14h32.29.940,Main,2022.1.1,59.99646020884979,
neutral,neutral,1,k,k,,,,,,,,,9,6,168,1,,,,,,,,,,,,,,,,,,,,,,,,main,2,2,1,neutral,neutral,k,k,1,0.7859843000001092,448.5357984000002,449.54036970000016,449.5216185000004,None,448.5357984000002,None,448.5357984000002,None,448.5357984000002,None,450.30284990000024,None,450.30284990000024,None,450.30284990000024,None,,,,,,,,,,,228,21,Female,2022-06-03_14h32.29.940,Main,2022.1.1,59.99646020884979,
neutral,positive,1,k,k,,,,,,,,,9,7,169,4,,,,,,,,,,,,,,,,,,,,,,,,main,2,2,1,positive,neutral,k,k,1,1.2833120000000235,450.32751410000037,451.3320252000003,451.3128114000001,None,450.32751410000037,None,450.32751410000037,None,450.32751410000037,None,452.5902555000003,None,452.5902555000003,None,452.5902555000003,None,,,,,,,,,,,228,21,Female,2022-06-03_14h32.29.940,Main,2022.1.1,59.99646020884979,
neutral,negative,1,k,k,,,,,,,,,9,8,170,7,,,,,,,,,,,,,,,,,,,,,,,,main,1,1,1,negative,neutral,k,k,1,0.7010263000001942,452.6115133000003,453.6224593000002,453.58481800000027,None,452.6115133000003,None,452.6115133000003,None,452.6115133000003,None,454.2940144,None,454.2940144,None,454.2940144,None,,,,,,,,,,,228,21,Female,2022-06-03_14h32.29.940,Main,2022.1.1,59.99646020884979,
negative,neutral,2,j,l,,,,,,,,,9,9,171,12,,,,,,,,,,,,,,,,,,,,,,,,main,2,2,2,neutral,negative,j,j,1,0.9704815999998573,454.31621710000036,455.3262563000003,455.30633020000005,None,454.31621710000036,None,454.31621710000036,None,454.31621710000036,None,456.26764980000013,None,456.26764980000013,None,456.26764980000013,None,,,,,,,,,,,228,21,Female,2022-06-03_14h32.29.940,Main,2022.1.1,59.99646020884979,
neutral,positive,2,k,k,,,,,,,,,9,10,172,13,,,,,,,,,,,,,,,,,,,,,,,,main,2,2,2,positive,neutral,k,k,1,0.7110855000000811,456.29463250000026,457.30544770000006,457.2672998000003,None,456.29463250000026,None,456.29463250000026,None,456.29463250000026,None,457.9811041000003,None,457.9811041000003,None,457.9811041000003,None,,,,,,,,,,,228,21,Female,2022-06-03_14h32.29.940,Main,2022.1.1,59.99646020884979,
positive,positive,2,l,j,,,,,,,,,9,11,173,11,,,,,,,,,,,,,,,,,,,,,,,,main,2,2,2,positive,positive,l,l,1,0.6797529000000395,458.00498930000003,459.02559580000025,458.9872282000001,None,458.00498930000003,None,458.00498930000003,None,458.00498930000003,None,459.66404050000034,None,459.66404050000034,None,459.66404050000034,None,,,,,,,,,,,228,21,Female,2022-06-03_14h32.29.940,Main,2022.1.1,59.99646020884979,
positive,negative,1,l,j,,,,,,,,,9,12,174,5,,,,,,,,,,,,,,,,,,,,,,,,main,1,1,1,negative,positive,l,l,1,0.824672400000054,459.6876876000001,460.7037747000004,460.6657459000003,None,459.6876876000001,None,459.6876876000001,None,459.6876876000001,None,461.49429259999994,None,461.49429259999994,None,461.49429259999994,None,,,,,,,,,,,228,21,Female,2022-06-03_14h32.29.940,Main,2022.1.1,59.99646020884979,
neutral,negative,2,k,k,,,,,,,,,9,13,175,16,,,,,,,,,,,,,,,,,,,,,,,,main,2,2,2,negative,neutral,k,k,1,0.7162007000001722,461.51505250000037,462.5203411000002,462.5024469,None,461.51505250000037,None,461.51505250000037,None,461.51505250000037,None,463.2131745000002,None,463.2131745000002,None,463.2131745000002,None,,,,,,,,,,,228,21,Female,2022-06-03_14h32.29.940,Main,2022.1.1,59.99646020884979,
positive,neutral,1,l,j,,,,,,,,,9,14,176,8,,,,,,,,,,,,,,,,,,,,,,,,main,1,1,1,neutral,positive,l,l,1,0.8874516000000767,463.23530960000016,464.2417558000002,464.2223931000003,None,463.23530960000016,None,463.23530960000016,None,463.23530960000016,None,465.10346209999994,None,465.10346209999994,None,465.10346209999994,None,,,,,,,,,,,228,21,Female,2022-06-03_14h32.29.940,Main,2022.1.1,59.99646020884979,
negative,positive,1,j,l,,,,,,,,,9,15,177,6,,,,,,,,,,,,,,,,,,,,,,,,main,1,1,1,positive,negative,j,j,1,0.7756535000003169,465.1282107000002,466.14673140000014,466.10799650000035,None,465.1282107000002,None,465.1282107000002,None,465.1282107000002,None,466.8817004000003,None,466.8817004000003,None,466.8817004000003,None,,,,,,,,,,,228,21,Female,2022-06-03_14h32.29.940,Main,2022.1.1,59.99646020884979,
positive,negative,2,l,j,,,,,,,,,9,16,178,14,,,,,,,,,,,,,,,,,,,,,,,,main,1,1,2,negative,positive,l,l,1,0.8060642000000371,466.90325740000026,467.91419710000037,467.8765563000002,None,466.90325740000026,None,466.90325740000026,None,466.90325740000026,None,468.6918789000002,None,468.6918789000002,None,468.6918789000002,None,,,,,,,,,,,228,21,Female,2022-06-03_14h32.29.940,Main,2022.1.1,59.99646020884979,
neutral,neutral,2,k,k,,,,,,,,,9,17,179,10,,,,,,,,,,,,,,,,,,,,,,,,main,1,1,2,neutral,neutral,k,k,1,0.7270809999999983,468.7122185000003,469.7330237000001,469.69388419999996,None,468.7122185000003,None,468.7122185000003,None,468.7122185000003,None,470.4197689000003,None,470.4197689000003,None,470.4197689000003,None,,,,,,,,,,,228,21,Female,2022-06-03_14h32.29.940,Main,2022.1.1,59.99646020884979,
positive,negative,1,l,j,,,,,,,,,10,0,180,5,,,,,,,,,,,,,,,,,,,,,,,,main,1,1,1,negative,positive,l,l,1,0.7140848999997615,470.4406928000003,471.45543320000024,471.41704430000027,None,470.4406928000003,None,470.4406928000003,None,470.4406928000003,None,472.1364147,None,472.1364147,None,472.1364147,None,,,,,,,,,,,228,21,Female,2022-06-03_14h32.29.940,Main,2022.1.1,59.99646020884979,
negative,positive,2,j,l,,,,,,,,,10,1,181,15,,,,,,,,,,,,,,,,,,,,,,,,main,2,2,2,positive,negative,j,j,1,0.7666619000001447,472.15518010000005,473.1731858000003,473.1341846,None,472.15518010000005,None,472.15518010000005,None,472.15518010000005,None,473.9071877000002,None,473.9071877000002,None,473.9071877000002,None,,,,,,,,,,,228,21,Female,2022-06-03_14h32.29.940,Main,2022.1.1,59.99646020884979,
neutral,negative,1,k,k,,,,,,,,,10,2,182,7,,,,,,,,,,,,,,,,,,,,,,,,main,1,1,1,negative,neutral,k,k,1,0.6828375000000051,473.92981210000016,474.93792900000017,474.9003794,None,473.92981210000016,None,473.92981210000016,None,473.92981210000016,None,475.59225599999996,None,475.59225599999996,None,475.59225599999996,None,,,,,,,,,,,228,21,Female,2022-06-03_14h32.29.940,Main,2022.1.1,59.99646020884979,
negative,positive,1,j,l,,,,,,,,,10,3,183,6,,,,,,,,,,,,,,,,,,,,,,,,main,2,2,1,positive,negative,j,j,1,0.6748386000003848,475.6161896000003,476.6352455000001,476.5971158000002,None,475.6161896000003,None,475.6161896000003,None,475.6161896000003,None,477.2718276000001,None,477.2718276000001,None,477.2718276000001,None,,,,,,,,,,,228,21,Female,2022-06-03_14h32.29.940,Main,2022.1.1,59.99646020884979,
positive,neutral,1,l,j,,,,,,,,,10,4,184,8,,,,,,,,,,,,,,,,,,,,,,,,main,1,1,1,neutral,positive,l,l,1,0.6657591000002867,477.29289530000005,478.30714060000037,478.26940950000017,None,477.29289530000005,None,477.29289530000005,None,477.29289530000005,None,478.93994419999996,None,478.93994419999996,None,478.93994419999996,None,,,,,,,,,,,228,21,Female,2022-06-03_14h32.29.940,Main,2022.1.1,59.99646020884979,
negative,negative,2,j,l,,,,,,,,,10,5,185,9,,,,,,,,,,,,,,,,,,,,,,,,main,2,2,2,negative,negative,j,j,1,0.7624405999999908,478.96099840000034,479.97970620000024,479.94294560000026,None,478.96099840000034,None,478.96099840000034,None,478.96099840000034,None,480.70486990000023,None,480.70486990000023,None,480.70486990000023,None,,,,,,,,,,,228,21,Female,2022-06-03_14h32.29.940,Main,2022.1.1,59.99646020884979,
neutral,positive,2,k,k,,,,,,,,,10,6,186,13,,,,,,,,,,,,,,,,,,,,,,,,main,2,2,2,positive,neutral,k,k,1,0.7054447999998956,480.7253738000004,481.73748730000034,481.71600890000036,None,480.7253738000004,None,480.7253738000004,None,480.7253738000004,None,482.41108040000023,None,482.41108040000023,None,482.41108040000023,None,,,,,,,,,,,228,21,Female,2022-06-03_14h32.29.940,Main,2022.1.1,59.99646020884979,
positive,neutral,2,l,j,,,,,,,,,10,7,187,17,,,,,,,,,,,,,,,,,,,,,,,,main,2,2,2,neutral,positive,l,l,1,0.7184723000000304,482.4312334000001,483.4358175000002,483.41712320000033,None,482.4312334000001,None,482.4312334000001,None,482.4312334000001,None,484.13178390000036,None,484.13178390000036,None,484.13178390000036,None,,,,,,,,,,,228,21,Female,2022-06-03_14h32.29.940,Main,2022.1.1,59.99646020884979,
positive,positive,1,l,j,,,,,,,,,10,8,188,2,,,,,,,,,,,,,,,,,,,,,,,,main,1,1,1,positive,positive,l,l,1,0.7519833999999719,484.1559566000001,485.17210520000026,485.1338028,None,484.1559566000001,None,484.1559566000001,None,484.1559566000001,None,485.88826890000024,None,485.88826890000024,None,485.88826890000024,None,,,,,,,,,,,228,21,Female,2022-06-03_14h32.29.940,Main,2022.1.1,59.99646020884979,
positive,negative,2,l,j,,,,,,,,,10,9,189,14,,,,,,,,,,,,,,,,,,,,,,,,main,2,2,2,negative,positive,l,l,1,0.7736970999999357,485.9078763000002,486.91511549999996,486.89635590000034,None,485.9078763000002,None,485.9078763000002,None,485.9078763000002,None,487.66091250000005,None,487.66091250000005,None,487.66091250000005,None,,,,,,,,,,,228,21,Female,2022-06-03_14h32.29.940,Main,2022.1.1,59.99646020884979,
positive,positive,2,l,j,,,,,,,,,10,10,190,11,,,,,,,,,,,,,,,,,,,,,,,,main,1,1,2,positive,positive,l,l,1,0.6300994000002902,487.68471820000013,488.6977708000004,488.6594906,None,487.68471820000013,None,487.68471820000013,None,487.68471820000013,None,489.295189,None,489.295189,None,489.295189,None,,,,,,,,,,,228,21,Female,2022-06-03_14h32.29.940,Main,2022.1.1,59.99646020884979,
neutral,positive,1,k,k,,,,,,,,,10,11,191,4,,,,,,,,,,,,,,,,,,,,,,,,main,2,2,1,positive,neutral,k,k,1,0.8280202999999347,489.3179417000001,490.3365038000002,490.299086,None,489.3179417000001,None,489.3179417000001,None,489.3179417000001,None,491.1265223000001,None,491.1265223000001,None,491.1265223000001,None,,,,,,,,,,,228,21,Female,2022-06-03_14h32.29.940,Main,2022.1.1,59.99646020884979,
negative,neutral,2,j,l,,,,,,,,,10,12,192,12,,,,,,,,,,,,,,,,,,,,,,,,main,2,2,2,neutral,negative,j,j,1,0.5879277999997612,491.14827090000017,492.16389830000026,492.1257909000001,None,491.14827090000017,None,491.14827090000017,None,491.14827090000017,None,492.7188866000002,None,492.7188866000002,None,492.7188866000002,None,,,,,,,,,,,228,21,Female,2022-06-03_14h32.29.940,Main,2022.1.1,59.99646020884979,
neutral,neutral,1,k,k,,,,,,,,,10,13,193,1,,,,,,,,,,,,,,,,,,,,,,,,main,2,2,1,neutral,neutral,k,k,1,0.8521620999999868,492.73907940000026,493.7427531000003,493.72323870000037,None,492.73907940000026,None,492.73907940000026,None,492.73907940000026,None,494.57344560000007,None,494.57344560000007,None,494.57344560000007,None,,,,,,,,,,,228,21,Female,2022-06-03_14h32.29.940,Main,2022.1.1,59.99646020884979,
neutral,neutral,2,k,k,,,,,,,,,10,14,194,10,,,,,,,,,,,,,,,,,,,,,,,,main,1,1,2,neutral,neutral,k,k,1,0.7701603000000432,494.5952362000003,495.5974005000003,495.5786425000001,None,494.5952362000003,None,494.5952362000003,None,494.5952362000003,None,496.34529340000023,None,496.34529340000023,None,496.34529340000023,None,,,,,,,,,,,228,21,Female,2022-06-03_14h32.29.940,Main,2022.1.1,59.99646020884979,
negative,negative,1,j,l,,,,,,,,,10,15,195,0,,,,,,,,,,,,,,,,,,,,,,,,main,2,2,1,negative,negative,j,j,1,0.7282639999998537,496.3678562,497.37904300000037,497.36032390000037,None,496.3678562,None,496.3678562,None,496.3678562,None,498.0777539000001,None,498.0777539000001,None,498.0777539000001,None,,,,,,,,,,,228,21,Female,2022-06-03_14h32.29.940,Main,2022.1.1,59.99646020884979,
negative,neutral,1,j,l,,,,,,,,,10,16,196,3,,,,,,,,,,,,,,,,,,,,,,,,main,2,2,1,neutral,negative,j,j,1,0.8312842999998793,498.0987473,499.10725120000006,499.08714499999996,None,498.0987473,None,498.0987473,None,498.0987473,None,499.91112990000016,None,499.91112990000016,None,499.91112990000016,None,,,,,,,,,,,228,21,Female,2022-06-03_14h32.29.940,Main,2022.1.1,59.99646020884979,
neutral,negative,2,k,k,,,,,,,,,10,17,197,16,,,,,,,,,,,,,,,,,,,,,,,,main,1,1,2,negative,neutral,k,k,1,0.8621390000002975,499.93701439999995,500.95023200000014,500.9123617,None,499.93701439999995,None,499.93701439999995,None,499.93701439999995,None,501.7756731,None,501.7756731,None,501.7756731,None,,,,,,,,,,,228,21,Female,2022-06-03_14h32.29.940,Main,2022.1.1,59.99646020884979,
negative,positive,2,j,l,,,,,,,,,11,0,198,15,,,,,,,,,,,,,,,,,,,,,,,,main,1,1,2,positive,negative,j,j,1,0.7696936999996069,501.7976374,502.79923800000006,502.7806297000002,None,501.7976374,None,501.7976374,None,501.7976374,None,503.54869170000035,None,503.54869170000035,None,503.54869170000035,None,,,,,,,,,,,228,21,Female,2022-06-03_14h32.29.940,Main,2022.1.1,59.99646020884979,
positive,positive,2,l,j,,,,,,,,,11,1,199,11,,,,,,,,,,,,,,,,,,,,,,,,main,1,1,2,positive,positive,l,l,1,0.7075653000001694,503.57308230000035,504.5859878000001,504.5475945000003,None,503.57308230000035,None,503.57308230000035,None,503.57308230000035,None,505.25875550000006,None,505.25875550000006,None,505.25875550000006,None,,,,,,,,,,,228,21,Female,2022-06-03_14h32.29.940,Main,2022.1.1,59.99646020884979,
neutral,neutral,1,k,k,,,,,,,,,11,2,200,1,,,,,,,,,,,,,,,,,,,,,,,,main,1,1,1,neutral,neutral,k,k,1,0.7247310000002471,505.2803004000002,506.2999625000002,506.2625059000002,None,505.2803004000002,None,505.2803004000002,None,505.2803004000002,None,506.98670210000006,None,506.98670210000006,None,506.98670210000006,None,,,,,,,,,,,228,21,Female,2022-06-03_14h32.29.940,Main,2022.1.1,59.99646020884979,
positive,neutral,1,l,j,,,,,,,,,11,3,201,8,,,,,,,,,,,,,,,,,,,,,,,,main,1,1,1,neutral,positive,l,l,1,0.7296117000000777,507.00651370000014,508.0123072000001,507.99360650000017,None,507.00651370000014,None,507.00651370000014,None,507.00651370000014,None,508.7200556000003,None,508.7200556000003,None,508.7200556000003,None,,,,,,,,,,,228,21,Female,2022-06-03_14h32.29.940,Main,2022.1.1,59.99646020884979,
neutral,positive,1,k,k,,,,,,,,,11,4,202,4,,,,,,,,,,,,,,,,,,,,,,,,main,2,2,1,positive,neutral,k,k,1,0.7238982999997461,508.74048660000017,509.7519384000002,509.7146536,None,508.74048660000017,None,508.74048660000017,None,508.74048660000017,None,510.44392999999997,None,510.44392999999997,None,510.44392999999997,None,,,,,,,,,,,228,21,Female,2022-06-03_14h32.29.940,Main,2022.1.1,59.99646020884979,
negative,negative,1,j,l,,,,,,,,,11,5,203,0,,,,,,,,,,,,,,,,,,,,,,,,main,2,2,1,negative,negative,j,j,1,0.9909247999999025,510.4657024000003,511.47530410000036,511.4564554000003,None,510.4657024000003,None,510.4657024000003,None,510.4657024000003,None,512.4398406,None,512.4398406,None,512.4398406,None,,,,,,,,,,,228,21,Female,2022-06-03_14h32.29.940,Main,2022.1.1,59.99646020884979,
negative,positive,1,j,l,,,,,,,,,11,6,204,6,,,,,,,,,,,,,,,,,,,,,,,,main,1,1,1,positive,negative,j,j,1,0.7012088999999833,512.4600456000003,513.4644586000004,513.4464115000001,None,512.4600456000003,None,512.4600456000003,None,512.4600456000003,None,514.1432810000001,None,514.1432810000001,None,514.1432810000001,None,,,,,,,,,,,228,21,Female,2022-06-03_14h32.29.940,Main,2022.1.1,59.99646020884979,
negative,neutral,1,j,l,,,,,,,,,11,7,205,3,,,,,,,,,,,,,,,,,,,,,,,,main,2,2,1,neutral,negative,j,j,1,1.714429800000289,514.1637344000001,515.1778745000001,515.1396851,None,514.1637344000001,None,514.1637344000001,None,514.1637344000001,None,516.8693516000003,None,516.8693516000003,None,516.8693516000003,None,,,,,,,,,,,228,21,Female,2022-06-03_14h32.29.940,Main,2022.1.1,59.99646020884979,
positive,positive,1,l,j,,,,,,,,,11,8,206,2,,,,,,,,,,,,,,,,,,,,,,,,main,2,2,1,positive,positive,l,l,1,0.7396415999996862,517.8953022000001,518.9015302000003,518.8820367000003,None,517.8953022000001,None,517.8953022000001,None,517.8953022000001,None,519.6171939999999,None,519.6171939999999,None,519.6171939999999,None,,,,,,,,,,,228,21,Female,2022-06-03_14h32.29.940,Main,2022.1.1,59.99646020884979,
negative,neutral,2,j,l,,,,,,,,,11,9,207,12,,,,,,,,,,,,,,,,,,,,,,,,main,1,1,2,neutral,negative,j,j,1,0.6662200000000666,519.6370795000003,520.6511821000004,520.6122734,None,519.6370795000003,None,519.6370795000003,None,519.6370795000003,None,521.2868059000002,None,521.2868059000002,None,521.2868059000002,None,,,,,,,,,,,228,21,Female,2022-06-03_14h32.29.940,Main,2022.1.1,59.99646020884979,
negative,negative,2,j,l,,,,,,,,,11,10,208,9,,,,,,,,,,,,,,,,,,,,,,,,main,1,1,2,negative,negative,j,j,1,0.6405017000001862,521.3068031000003,522.3149612000002,522.2950371000002,None,521.3068031000003,None,521.3068031000003,None,521.3068031000003,None,522.9293101000003,None,522.9293101000003,None,522.9293101000003,None,,,,,,,,,,,228,21,Female,2022-06-03_14h32.29.940,Main,2022.1.1,59.99646020884979,
neutral,neutral,2,k,k,,,,,,,,,11,11,209,10,,,,,,,,,,,,,,,,,,,,,,,,main,2,2,2,neutral,neutral,k,k,1,1.1941937999999936,522.9497532,523.9651568000004,523.9274877000003,None,522.9497532,None,522.9497532,None,522.9497532,None,525.1253233000002,None,525.1253233000002,None,525.1253233000002,None,,,,,,,,,,,228,21,Female,2022-06-03_14h32.29.940,Main,2022.1.1,59.99646020884979,
neutral,negative,2,k,k,,,,,,,,,11,12,210,16,,,,,,,,,,,,,,,,,,,,,,,,main,1,1,2,negative,neutral,k,k,1,0.6617919999998776,525.1511845,526.1572832000002,526.1383429000002,None,525.1511845,None,525.1511845,None,525.1511845,None,526.7910667000001,None,526.7910667000001,None,526.7910667000001,None,,,,,,,,,,,228,21,Female,2022-06-03_14h32.29.940,Main,2022.1.1,59.99646020884979,
