target,distractor,set,ans1,ans2,rep_loop2.thisRepN,rep_loop2.thisTrialN,rep_loop2.thisN,rep_loop2.thisIndex,flanker_prac_loop.thisRepN,flanker_prac_loop.thisTrialN,flanker_prac_loop.thisN,flanker_prac_loop.thisIndex,flanker_main_loop.thisRepN,flanker_main_loop.thisTrialN,flanker_main_loop.thisN,flanker_main_loop.thisIndex,fl_inst_resp.keys,mouse.x,mouse.y,mouse.leftButton,mouse.midButton,mouse.rightButton,mouse.started,mouse.stopped,sound_1.started,sound_1.stopped,no_text.started,no_text.stopped,yes_text.started,yes_text.stopped,mouse_2.x,mouse_2.y,mouse_2.leftButton,mouse_2.midButton,mouse_2.rightButton,mouse_2.started,mouse_2.stopped,back_2.started,back_2.stopped,main_prac,fl_cold,fl_colt,fl_set,fl_dcond,fl_tcond,fl_ans,fl_res,fl_corr,fl_rt,fix_fl.started,fix_fl.stopped,targ.started,targ.stopped,j_button.started,j_button.stopped,k_button.started,k_button.stopped,l_button.started,l_button.stopped,j_button2.started,j_button2.stopped,k_button2.started,k_button2.stopped,l_button2.started,l_button2.stopped,mainback.started,mainback.stopped,key_resp.keys,mouse_6.x,mouse_6.y,mouse_6.leftButton,mouse_6.midButton,mouse_6.rightButton,mouse_6.started,mouse_6.stopped,id*,age*,gender*,date,expName,psychopyVersion,frameRate,
,,,,,0,0,0,0,,,,,,,,,None,0.07685185,-0.42314816,0,0,0,1.0420498799999223,None,33.96966526000015,None,71.3676002000002,None,71.3676002000002,None,-0.08240741,-0.0712963,0,0,0,0.007633559999703721,None,,,,,,,,,,,,,,,,,,,,,,,,,,,,,,,,,,,,,,,229,24,Male,2022-06-03_14h21.21.764,Main,2022.1.1,60.119385074802935,
neutral,positive,2,k,k,,,,,0,0,0,13,,,,,,,,,,,,,,,,,,,,,,,,,,74.30099610000025,None,prac,1,1,2,positive,neutral,k,k,1,1.4423978999998326,76.3634089000002,77.3817027,77.33700450000015,None,76.3634089000002,None,76.3634089000002,None,76.3634089000002,None,78.76312876000028,None,78.76312876000028,None,78.76312876000028,None,,,,,,,,,,,229,24,Male,2022-06-03_14h21.21.764,Main,2022.1.1,60.119385074802935,
negative,negative,1,j,l,,,,,0,1,1,0,,,,,,,,,,,,,,,,,,,,,,,,,,,,prac,2,2,1,negative,negative,l,l,1,1.4997578999996222,78.80380630000036,79.82358290000002,79.77940350000017,None,78.80380630000036,None,78.80380630000036,None,78.80380630000036,None,81.2668219600001,None,81.2668219600001,None,81.2668219600001,None,,,,,,,,,,,229,24,Male,2022-06-03_14h21.21.764,Main,2022.1.1,60.119385074802935,
negative,positive,1,j,l,,,,,0,2,2,6,,,,,,,,,,,,,,,,,,,,,,,,,,,,prac,2,2,1,positive,negative,l,l,1,0.7496112999997422,81.2948505000004,82.30614779999996,82.28538400000025,None,81.2948505000004,None,81.2948505000004,None,81.2948505000004,None,83.01603586000019,None,83.01603586000019,None,83.01603586000019,None,,,,,,,,,,,229,24,Male,2022-06-03_14h21.21.764,Main,2022.1.1,60.119385074802935,
positive,positive,1,l,j,,,,,0,3,3,2,,,,,,,,,,,,,,,,,,,,,,,,,,,,prac,2,2,1,positive,positive,j,j,1,0.8863476999999875,83.04796250000027,84.07197670000005,84.02964220000013,None,83.04796250000027,None,83.04796250000027,None,83.04796250000027,None,84.90812426000011,None,84.90812426000011,None,84.90812426000011,None,,,,,,,,,,,229,24,Male,2022-06-03_14h21.21.764,Main,2022.1.1,60.119385074802935,
negative,neutral,1,j,l,,,,,0,4,4,3,,,,,,,,,,,,,,,,,,,,,,,,,,,,prac,2,2,1,neutral,negative,l,l,1,0.7075639999998202,84.93605620000017,85.95146270000032,85.92873550000013,None,84.93605620000017,None,84.93605620000017,None,84.93605620000017,None,86.61800256000024,None,86.61800256000024,None,86.61800256000024,None,,,,,,,,,,,229,24,Male,2022-06-03_14h21.21.764,Main,2022.1.1,60.119385074802935,
neutral,positive,1,k,k,,,,,0,5,5,4,,,,,,,,,,,,,,,,,,,,,,,,,,,,prac,2,2,1,positive,neutral,k,k,1,0.913567100000364,86.64744130000008,87.67730860000029,87.6271756000001,None,86.64744130000008,None,86.64744130000008,None,86.64744130000008,None,88.5354567600003,None,88.5354567600003,None,88.5354567600003,None,,,,,,,,,,,229,24,Male,2022-06-03_14h21.21.764,Main,2022.1.1,60.119385074802935,
negative,neutral,2,j,l,,,,,0,6,6,12,,,,,,,,,,,,,,,,,,,,,,,,,,,,prac,2,2,2,neutral,negative,l,l,1,0.9259401000003891,88.56385490000002,89.57053900000028,89.54968520000011,None,88.56385490000002,None,88.56385490000002,None,88.56385490000002,None,90.46390726000035,None,90.46390726000035,None,90.46390726000035,None,,,,,,,,,,,229,24,Male,2022-06-03_14h21.21.764,Main,2022.1.1,60.119385074802935,
positive,positive,2,l,j,,,,,0,7,7,11,,,,,,,,,,,,,,,,,,,,,,,,,,,,prac,1,1,2,positive,positive,j,j,1,1.038654399999814,90.49129200000016,91.51243830000021,91.47032650000028,None,90.49129200000016,None,90.49129200000016,None,90.49129200000016,None,92.50284255999995,None,92.50284255999995,None,92.50284255999995,None,,,,,,,,,,,229,24,Male,2022-06-03_14h21.21.764,Main,2022.1.1,60.119385074802935,
negative,negative,2,j,l,,,,,0,8,8,9,,,,,,,,,,,,,,,,,,,,,,,,,,,,prac,2,2,2,negative,negative,l,l,1,0.6006999999999607,92.53484100000014,93.54434960000026,93.5224048,None,92.53484100000014,None,92.53484100000014,None,92.53484100000014,None,94.11077725999994,None,94.11077725999994,None,94.11077725999994,None,,,,,,,,,,,229,24,Male,2022-06-03_14h21.21.764,Main,2022.1.1,60.119385074802935,
neutral,neutral,2,k,k,,,,,0,9,9,10,,,,,,,,,,,,,,,,,,,,,,,,,,,,prac,2,2,2,neutral,neutral,k,k,1,0.9870420999995986,94.13579760000039,95.16132640000023,95.11761190000016,None,94.13579760000039,None,94.13579760000039,None,94.13579760000039,None,96.09948575999996,None,96.09948575999996,None,96.09948575999996,None,,,,,,,,,,,229,24,Male,2022-06-03_14h21.21.764,Main,2022.1.1,60.119385074802935,
neutral,negative,2,k,k,,,,,0,10,10,16,,,,,,,,,,,,,,,,,,,,,,,,,,,,prac,1,1,2,negative,neutral,k,k,1,0.7321860000001834,96.12780710000015,97.1340981000003,97.11348120000002,None,96.12780710000015,None,96.12780710000015,None,96.12780710000015,None,97.83652156000025,None,97.83652156000025,None,97.83652156000025,None,,,,,,,,,,,229,24,Male,2022-06-03_14h21.21.764,Main,2022.1.1,60.119385074802935,
positive,negative,2,l,j,,,,,0,11,11,14,,,,,,,,,,,,,,,,,,,,,,,,,,,,prac,2,2,2,negative,positive,j,j,1,1.3370614999998907,97.86317030000009,98.88591870000027,98.84338100000014,None,97.86317030000009,None,97.86317030000009,None,97.86317030000009,None,100.17392636000031,None,100.17392636000031,None,100.17392636000031,None,,,,,,,,,,,229,24,Male,2022-06-03_14h21.21.764,Main,2022.1.1,60.119385074802935,
positive,negative,1,l,j,,,,,0,12,12,5,,,,,,,,,,,,,,,,,,,,,,,,,,,,prac,1,1,1,negative,positive,j,j,1,0.88288220000004,100.20943420000003,101.2307281000003,101.18880639999998,None,100.20943420000003,None,100.20943420000003,None,100.20943420000003,None,102.06077346000038,None,102.06077346000038,None,102.06077346000038,None,,,,,,,,,,,229,24,Male,2022-06-03_14h21.21.764,Main,2022.1.1,60.119385074802935,
neutral,neutral,1,k,k,,,,,0,13,13,1,,,,,,,,,,,,,,,,,,,,,,,,,,,,prac,2,2,1,neutral,neutral,k,k,1,1.119854900000064,102.08669710000004,103.09338650000018,103.07392540000001,None,102.08669710000004,None,102.08669710000004,None,102.08669710000004,None,104.18529476000012,None,104.18529476000012,None,104.18529476000012,None,,,,,,,,,,,229,24,Male,2022-06-03_14h21.21.764,Main,2022.1.1,60.119385074802935,
positive,neutral,2,l,j,,,,,0,14,14,17,,,,,,,,,,,,,,,,,,,,,,,,,,,,prac,2,2,2,neutral,positive,j,j,1,0.7601902999999766,104.2108174,105.22202990000005,105.20006740000008,None,104.2108174,None,104.2108174,None,104.2108174,None,105.94747465999998,None,105.94747465999998,None,105.94747465999998,None,,,,,,,,,,,229,24,Male,2022-06-03_14h21.21.764,Main,2022.1.1,60.119385074802935,
neutral,negative,1,k,k,,,,,0,15,15,7,,,,,,,,,,,,,,,,,,,,,,,,,,,,prac,2,2,1,negative,neutral,k,k,1,0.6939256999999088,105.97539750000033,106.98616010000023,106.96498150000025,None,105.97539750000033,None,105.97539750000033,None,105.97539750000033,None,107.64423236000002,None,107.64423236000002,None,107.64423236000002,None,,,,,,,,,,,229,24,Male,2022-06-03_14h21.21.764,Main,2022.1.1,60.119385074802935,
negative,positive,2,j,l,,,,,0,16,16,15,,,,,,,,,,,,,,,,,,,,,,,,,,,,prac,1,1,2,positive,negative,l,l,1,0.5855888000000959,107.67400829999997,108.69762730000002,108.65442830000029,None,107.67400829999997,None,107.67400829999997,None,107.67400829999997,None,109.23469646000021,None,109.23469646000021,None,109.23469646000021,None,,,,,,,,,,,229,24,Male,2022-06-03_14h21.21.764,Main,2022.1.1,60.119385074802935,
positive,neutral,1,l,j,,,,,0,17,17,8,,,,,,,,,,,,,,,,,,,,,,,,,,,,prac,1,1,1,neutral,positive,j,j,1,0.7008081999997557,109.26179150000007,110.27871540000024,110.25817959999995,None,109.26179150000007,None,109.26179150000007,None,109.26179150000007,None,110.93686265999995,None,110.93686265999995,None,110.93686265999995,None,,,,,,,,,,,229,24,Male,2022-06-03_14h21.21.764,Main,2022.1.1,60.119385074802935,
negative,positive,2,j,l,,,,,1,0,18,15,,,,,,,,,,,,,,,,,,,,,,,,,,,,prac,1,1,2,positive,negative,l,l,1,0.7537244000000101,110.96761600000036,111.97446880000007,111.95014370000035,None,110.96761600000036,None,110.96761600000036,None,110.96761600000036,None,112.69380185999998,None,112.69380185999998,None,112.69380185999998,None,,,,,,,,,,,229,24,Male,2022-06-03_14h21.21.764,Main,2022.1.1,60.119385074802935,
positive,positive,2,l,j,,,,,1,1,19,11,,,,,,,,,,,,,,,,,,,,,,,,,,,,prac,1,1,2,positive,positive,j,j,1,0.6839154000003873,112.71838000000025,113.73757509999996,113.71414010000035,None,112.71838000000025,None,112.71838000000025,None,112.71838000000025,None,114.3822194600003,None,114.3822194600003,None,114.3822194600003,None,,,,,,,,,,,229,24,Male,2022-06-03_14h21.21.764,Main,2022.1.1,60.119385074802935,
negative,neutral,2,j,l,,,,,1,2,20,12,,,,,,,,,,,,,,,,,,,,,,,,,,,,prac,1,1,2,neutral,negative,l,l,1,0.7357897000001685,114.40914460000022,115.42440669999996,115.40423110000029,None,114.40914460000022,None,114.40914460000022,None,114.40914460000022,None,116.11909526000008,None,116.11909526000008,None,116.11909526000008,None,,,,,,,,,,,229,24,Male,2022-06-03_14h21.21.764,Main,2022.1.1,60.119385074802935,
negative,negative,1,j,l,,,,,1,3,21,0,,,,,,,,,,,,,,,,,,,,,,,,,,,,prac,1,1,1,negative,negative,l,l,1,0.7417689999997492,116.14385670000001,117.15351330000021,117.13181430000031,None,116.14385670000001,None,116.14385670000001,None,116.14385670000001,None,117.86482236000037,None,117.86482236000037,None,117.86482236000037,None,,,,,,,,,,,229,24,Male,2022-06-03_14h21.21.764,Main,2022.1.1,60.119385074802935,
neutral,negative,1,k,k,,,,,1,4,22,7,,,,,,,,,,,,,,,,,,,,,,,,,,,,prac,2,2,1,negative,neutral,k,k,1,0.7059346000000915,117.89168550000022,118.90289010000015,118.88278530000025,None,117.89168550000022,None,117.89168550000022,None,117.89168550000022,None,119.57245326000029,None,119.57245326000029,None,119.57245326000029,None,,,,,,,,,,,229,24,Male,2022-06-03_14h21.21.764,Main,2022.1.1,60.119385074802935,
positive,neutral,2,l,j,,,,,1,5,23,17,,,,,,,,,,,,,,,,,,,,,,,,,,,,prac,2,2,2,neutral,positive,j,j,1,0.6680892999997923,119.60180990000026,120.60945500000025,120.58866179999995,None,119.60180990000026,None,119.60180990000026,None,119.60180990000026,None,121.24455855999994,None,121.24455855999994,None,121.24455855999994,None,,,,,,,,,,,229,24,Male,2022-06-03_14h21.21.764,Main,2022.1.1,60.119385074802935,
positive,neutral,1,l,j,,,,,1,6,24,8,,,,,,,,,,,,,,,,,,,,,,,,,,,,prac,1,1,1,neutral,positive,j,j,1,0.7872717999998713,121.2721362000002,122.28036500000007,122.25948430000017,None,121.2721362000002,None,121.2721362000002,None,121.2721362000002,None,123.03310946000019,None,123.03310946000019,None,123.03310946000019,None,,,,,,,,,,,229,24,Male,2022-06-03_14h21.21.764,Main,2022.1.1,60.119385074802935,
positive,positive,1,l,j,,,,,1,7,25,2,,,,,,,,,,,,,,,,,,,,,,,,,,,,prac,2,2,1,positive,positive,j,j,1,0.6132855999999265,123.05749680000008,124.08014810000032,124.03728170000022,None,123.05749680000008,None,123.05749680000008,None,123.05749680000008,None,124.64831646000002,None,124.64831646000002,None,124.64831646000002,None,,,,,,,,,,,229,24,Male,2022-06-03_14h21.21.764,Main,2022.1.1,60.119385074802935,
negative,positive,1,j,l,,,,,1,8,26,6,,,,,,,,,,,,,,,,,,,,,,,,,,,,prac,1,1,1,positive,negative,l,l,1,0.6178963000002113,124.6795218000002,125.69011220000039,125.66953320000039,None,124.6795218000002,None,124.6795218000002,None,124.6795218000002,None,126.2683933600002,None,126.2683933600002,None,126.2683933600002,None,,,,,,,,,,,229,24,Male,2022-06-03_14h21.21.764,Main,2022.1.1,60.119385074802935,
negative,negative,2,j,l,,,,,1,9,27,9,,,,,,,,,,,,,,,,,,,,,,,,,,,,prac,1,1,2,negative,negative,l,l,1,1.061210299999857,126.30047790000026,127.30415680000033,127.28298370000039,None,126.30047790000026,None,126.30047790000026,None,126.30047790000026,None,128.33306126000033,None,128.33306126000033,None,128.33306126000033,None,,,,,,,,,,,229,24,Male,2022-06-03_14h21.21.764,Main,2022.1.1,60.119385074802935,
neutral,neutral,1,k,k,,,,,1,10,28,1,,,,,,,,,,,,,,,,,,,,,,,,,,,,prac,1,1,1,neutral,neutral,k,k,1,0.8239332000002833,128.36220060000005,129.3805865000004,129.33825790000037,None,128.36220060000005,None,128.36220060000005,None,128.36220060000005,None,130.16149896000033,None,130.16149896000033,None,130.16149896000033,None,,,,,,,,,,,229,24,Male,2022-06-03_14h21.21.764,Main,2022.1.1,60.119385074802935,
positive,negative,2,l,j,,,,,1,11,29,14,,,,,,,,,,,,,,,,,,,,,,,,,,,,prac,2,2,2,negative,positive,j,j,1,1.3693229000000429,130.1888157000003,131.2004898,131.18026110000028,None,130.1888157000003,None,130.1888157000003,None,130.1888157000003,None,132.53344446000037,None,132.53344446000037,None,132.53344446000037,None,,,,,,,,,,,229,24,Male,2022-06-03_14h21.21.764,Main,2022.1.1,60.119385074802935,
neutral,positive,2,k,k,,,,,1,12,30,13,,,,,,,,,,,,,,,,,,,,,,,,,,,,prac,1,1,2,positive,neutral,k,k,1,1.0848801000001913,132.55812890000016,133.5668638000002,133.54613570000038,None,132.55812890000016,None,132.55812890000016,None,132.55812890000016,None,134.62247336000027,None,134.62247336000027,None,134.62247336000027,None,,,,,,,,,,,229,24,Male,2022-06-03_14h21.21.764,Main,2022.1.1,60.119385074802935,
neutral,neutral,2,k,k,,,,,1,13,31,10,,,,,,,,,,,,,,,,,,,,,,,,,,,,prac,1,1,2,neutral,neutral,k,k,1,0.7045582999999169,134.6482699000003,135.6723224000002,135.6283555,None,134.6482699000003,None,134.6482699000003,None,134.6482699000003,None,136.32779216000026,None,136.32779216000026,None,136.32779216000026,None,,,,,,,,,,,229,24,Male,2022-06-03_14h21.21.764,Main,2022.1.1,60.119385074802935,
positive,negative,1,l,j,,,,,1,14,32,5,,,,,,,,,,,,,,,,,,,,,,,,,,,,prac,1,1,1,negative,positive,j,j,1,0.6206131999997524,136.35620070000004,137.37636890000022,137.3309704000003,None,136.35620070000004,None,136.35620070000004,None,136.35620070000004,None,137.95347546000002,None,137.95347546000002,None,137.95347546000002,None,,,,,,,,,,,229,24,Male,2022-06-03_14h21.21.764,Main,2022.1.1,60.119385074802935,
negative,neutral,1,j,l,,,,,1,15,33,3,,,,,,,,,,,,,,,,,,,,,,,,,,,,prac,1,1,1,neutral,negative,l,l,1,0.9800273000000743,137.9793120000004,138.98566130000017,138.96412480000026,None,137.9793120000004,None,137.9793120000004,None,137.9793120000004,None,139.9357855600002,None,139.9357855600002,None,139.9357855600002,None,,,,,,,,,,,229,24,Male,2022-06-03_14h21.21.764,Main,2022.1.1,60.119385074802935,
neutral,negative,2,k,k,,,,,1,16,34,16,,,,,,,,,,,,,,,,,,,,,,,,,,,,prac,2,2,2,negative,neutral,k,k,1,0.7934104999999363,139.95958470000005,140.96398820000013,140.94343210000034,None,139.95958470000005,None,139.95958470000005,None,139.95958470000005,None,141.72972106000006,None,141.72972106000006,None,141.72972106000006,None,,,,,,,,,,,229,24,Male,2022-06-03_14h21.21.764,Main,2022.1.1,60.119385074802935,
neutral,positive,1,k,k,,,,,1,17,35,4,,,,,,,,,,,,,,,,,,,,,,,,,,,,prac,2,2,1,positive,neutral,k,k,1,0.7323759000000791,141.7559913,142.76578140000038,142.74430090000033,None,141.7559913,None,141.7559913,None,141.7559913,None,143.4644771600002,None,143.4644771600002,None,143.4644771600002,None,,,,,,,,,,,229,24,Male,2022-06-03_14h21.21.764,Main,2022.1.1,60.119385074802935,
,,,,,,,,,,,,,,,,,,,,,,,,,,,,,,,,,,,,,,,,,,,,,,,,,,,,,,,,,,,,,,,,,,143.47537320000038,None,None,,,,,,,,229,24,Male,2022-06-03_14h21.21.764,Main,2022.1.1,60.119385074802935,
,,,,,,,,,,,,,,,,,,,,,,,,,,,,,,,,,,,,,,,,,,,,,,,,,,,,,,,,,,,,,,,,,,,,,0.031481482,-0.06481481,1,0,0,0.0024292600000990205,None,229,24,Male,2022-06-03_14h21.21.764,Main,2022.1.1,60.119385074802935,
positive,negative,2,l,j,,,,,,,,,0,0,0,14,,,,,,,,,,,,,,,,,,,,,,148.50080360000038,None,main,2,2,2,negative,positive,j,j,1,1.1866998000000422,150.54301860000032,151.56299850000005,151.54110470000023,None,150.54301860000032,None,150.54301860000032,None,150.54301860000032,None,152.70342836000017,None,152.70342836000017,None,152.70342836000017,None,,,,,,,,,,,229,24,Male,2022-06-03_14h21.21.764,Main,2022.1.1,60.119385074802935,
negative,neutral,2,j,l,,,,,,,,,0,1,1,12,,,,,,,,,,,,,,,,,,,,,,,,main,1,1,2,neutral,negative,l,l,1,0.6891096000003927,152.73302330000024,153.73940770000036,153.7201645,None,152.73302330000024,None,152.73302330000024,None,152.73302330000024,None,154.39936246000033,None,154.39936246000033,None,154.39936246000033,None,,,,,,,,,,,229,24,Male,2022-06-03_14h21.21.764,Main,2022.1.1,60.119385074802935,
negative,neutral,1,j,l,,,,,,,,,0,2,2,3,,,,,,,,,,,,,,,,,,,,,,,,main,2,2,1,neutral,negative,l,l,1,0.8185403000002225,154.42140259999996,155.43451790000017,155.41093550000005,None,154.42140259999996,None,154.42140259999996,None,154.42140259999996,None,156.21889466000002,None,156.21889466000002,None,156.21889466000002,None,,,,,,,,,,,229,24,Male,2022-06-03_14h21.21.764,Main,2022.1.1,60.119385074802935,
negative,negative,2,j,l,,,,,,,,,0,3,3,9,,,,,,,,,,,,,,,,,,,,,,,,main,1,1,2,negative,negative,l,l,1,0.719765599999846,156.24373160000005,157.2492073000003,157.2266066000002,None,156.24373160000005,None,156.24373160000005,None,156.24373160000005,None,157.94247046000018,None,157.94247046000018,None,157.94247046000018,None,,,,,,,,,,,229,24,Male,2022-06-03_14h21.21.764,Main,2022.1.1,60.119385074802935,
positive,neutral,2,l,j,,,,,,,,,0,4,4,17,,,,,,,,,,,,,,,,,,,,,,,,main,1,1,2,neutral,positive,j,j,1,0.7293487999995705,157.96905180000022,158.98206819999996,158.9606157000003,None,157.96905180000022,None,157.96905180000022,None,157.96905180000022,None,159.67584406000023,None,159.67584406000023,None,159.67584406000023,None,,,,,,,,,,,229,24,Male,2022-06-03_14h21.21.764,Main,2022.1.1,60.119385074802935,
positive,positive,2,l,j,,,,,,,,,0,5,5,11,,,,,,,,,,,,,,,,,,,,,,,,main,2,2,2,positive,positive,j,j,1,0.6980175000003328,159.70464840000022,160.71564960000023,160.69437940000034,None,159.70464840000022,None,159.70464840000022,None,159.70464840000022,None,161.37498486000013,None,161.37498486000013,None,161.37498486000013,None,,,,,,,,,,,229,24,Male,2022-06-03_14h21.21.764,Main,2022.1.1,60.119385074802935,
neutral,negative,2,k,k,,,,,,,,,0,6,6,16,,,,,,,,,,,,,,,,,,,,,,,,main,2,2,2,negative,neutral,k,k,1,0.7456154999999853,161.40749589999996,162.4303006,162.38616260000026,None,161.40749589999996,None,161.40749589999996,None,161.40749589999996,None,163.1261129600003,None,163.1261129600003,None,163.1261129600003,None,,,,,,,,,,,229,24,Male,2022-06-03_14h21.21.764,Main,2022.1.1,60.119385074802935,
positive,negative,1,l,j,,,,,,,,,0,7,7,5,,,,,,,,,,,,,,,,,,,,,,,,main,1,1,1,negative,positive,j,j,1,0.7446888000004037,163.15260200000012,164.16852910000034,164.1462775,None,163.15260200000012,None,163.15260200000012,None,163.15260200000012,None,164.87213996,None,164.87213996,None,164.87213996,None,,,,,,,,,,,229,24,Male,2022-06-03_14h21.21.764,Main,2022.1.1,60.119385074802935,
neutral,positive,1,k,k,,,,,,,,,0,8,8,4,,,,,,,,,,,,,,,,,,,,,,,,main,1,1,1,positive,neutral,k,k,1,0.7105594999998175,164.89853260000018,165.9144166000001,165.89208540000027,None,164.89853260000018,None,164.89853260000018,None,164.89853260000018,None,166.58582666000038,None,166.58582666000038,None,166.58582666000038,None,,,,,,,,,,,229,24,Male,2022-06-03_14h21.21.764,Main,2022.1.1,60.119385074802935,
neutral,neutral,2,k,k,,,,,,,,,0,9,9,10,,,,,,,,,,,,,,,,,,,,,,,,main,1,1,2,neutral,neutral,k,k,1,0.7024050999998508,166.61037260000012,167.63407870000037,167.59043440000005,None,166.61037260000012,None,166.61037260000012,None,166.61037260000012,None,168.28900355999994,None,168.28900355999994,None,168.28900355999994,None,,,,,,,,,,,229,24,Male,2022-06-03_14h21.21.764,Main,2022.1.1,60.119385074802935,
negative,positive,1,j,l,,,,,,,,,0,10,10,6,,,,,,,,,,,,,,,,,,,,,,,,main,1,1,1,positive,negative,l,l,1,0.7704369000002771,168.32022140000026,169.33872960000008,169.31644010000036,None,168.32022140000026,None,168.32022140000026,None,168.32022140000026,None,170.0634197600003,None,170.0634197600003,None,170.0634197600003,None,,,,,,,,,,,229,24,Male,2022-06-03_14h21.21.764,Main,2022.1.1,60.119385074802935,
neutral,neutral,1,k,k,,,,,,,,,0,11,11,1,,,,,,,,,,,,,,,,,,,,,,,,main,1,1,1,neutral,neutral,k,k,1,0.7249957999997605,170.09671190000017,171.11359260000017,171.09290820000024,None,170.09671190000017,None,170.09671190000017,None,170.09671190000017,None,171.79492536000006,None,171.79492536000006,None,171.79492536000006,None,,,,,,,,,,,229,24,Male,2022-06-03_14h21.21.764,Main,2022.1.1,60.119385074802935,
negative,negative,1,j,l,,,,,,,,,0,12,12,0,,,,,,,,,,,,,,,,,,,,,,,,main,1,1,1,negative,negative,l,l,1,1.1400323999996544,171.82451420000007,172.82820070000025,172.80832980000014,None,171.82451420000007,None,171.82451420000007,None,171.82451420000007,None,173.9386738600002,None,173.9386738600002,None,173.9386738600002,None,,,,,,,,,,,229,24,Male,2022-06-03_14h21.21.764,Main,2022.1.1,60.119385074802935,
neutral,negative,1,k,k,,,,,,,,,0,13,13,7,,,,,,,,,,,,,,,,,,,,,,,,main,2,2,1,negative,neutral,k,k,1,0.6377807999997458,173.96798370000033,174.9845951000002,174.94386380000014,None,173.96798370000033,None,173.96798370000033,None,173.96798370000033,None,175.58051716000008,None,175.58051716000008,None,175.58051716000008,None,,,,,,,,,,,229,24,Male,2022-06-03_14h21.21.764,Main,2022.1.1,60.119385074802935,
positive,neutral,1,l,j,,,,,,,,,0,14,14,8,,,,,,,,,,,,,,,,,,,,,,,,main,1,1,1,neutral,positive,j,j,1,0.7121578999999656,175.6061136000003,176.63077310000017,176.60579589999998,None,175.6061136000003,None,175.6061136000003,None,175.6061136000003,None,177.29610386000022,None,177.29610386000022,None,177.29610386000022,None,,,,,,,,,,,229,24,Male,2022-06-03_14h21.21.764,Main,2022.1.1,60.119385074802935,
negative,positive,2,j,l,,,,,,,,,0,15,15,15,,,,,,,,,,,,,,,,,,,,,,,,main,2,2,2,positive,negative,l,l,1,0.6459435000001577,177.32177520000005,178.33993630000032,178.29810750000024,None,177.32177520000005,None,177.32177520000005,None,177.32177520000005,None,178.9445036600001,None,178.9445036600001,None,178.9445036600001,None,,,,,,,,,,,229,24,Male,2022-06-03_14h21.21.764,Main,2022.1.1,60.119385074802935,
positive,positive,1,l,j,,,,,,,,,0,16,16,2,,,,,,,,,,,,,,,,,,,,,,,,main,1,1,1,positive,positive,j,j,1,0.8115876000001663,178.97251900000037,179.99153620000016,179.95042290000038,None,178.97251900000037,None,178.97251900000037,None,178.97251900000037,None,180.75966116000026,None,180.75966116000026,None,180.75966116000026,None,,,,,,,,,,,229,24,Male,2022-06-03_14h21.21.764,Main,2022.1.1,60.119385074802935,
neutral,positive,2,k,k,,,,,,,,,0,17,17,13,,,,,,,,,,,,,,,,,,,,,,,,main,2,2,2,positive,neutral,k,k,1,0.6851537000002281,180.78512739999996,181.80412780000006,181.76115670000036,None,180.78512739999996,None,180.78512739999996,None,180.78512739999996,None,182.4471262600001,None,182.4471262600001,None,182.4471262600001,None,,,,,,,,,,,229,24,Male,2022-06-03_14h21.21.764,Main,2022.1.1,60.119385074802935,
neutral,neutral,2,k,k,,,,,,,,,1,0,18,10,,,,,,,,,,,,,,,,,,,,,,,,main,2,2,2,neutral,neutral,k,k,1,0.6592457000001559,182.47289160000037,183.4827035000003,183.45898090000037,None,182.47289160000037,None,182.47289160000037,None,182.47289160000037,None,184.10829285999998,None,184.10829285999998,None,184.10829285999998,None,,,,,,,,,,,229,24,Male,2022-06-03_14h21.21.764,Main,2022.1.1,60.119385074802935,
neutral,neutral,1,k,k,,,,,,,,,1,1,19,1,,,,,,,,,,,,,,,,,,,,,,,,main,2,2,1,neutral,neutral,k,k,1,0.7334170000003724,184.1375349,185.14445079999996,185.12395770000012,None,184.1375349,None,184.1375349,None,184.1375349,None,185.8448185600001,None,185.8448185600001,None,185.8448185600001,None,,,,,,,,,,,229,24,Male,2022-06-03_14h21.21.764,Main,2022.1.1,60.119385074802935,
positive,negative,1,l,j,,,,,,,,,1,2,20,5,,,,,,,,,,,,,,,,,,,,,,,,main,1,1,1,negative,positive,j,j,1,0.6519318999999086,185.8743604000001,186.88846950000016,186.86382840000033,None,185.8743604000001,None,185.8743604000001,None,185.8743604000001,None,187.50126406000035,None,187.50126406000035,None,187.50126406000035,None,,,,,,,,,,,229,24,Male,2022-06-03_14h21.21.764,Main,2022.1.1,60.119385074802935,
negative,negative,2,j,l,,,,,,,,,1,3,21,9,,,,,,,,,,,,,,,,,,,,,,,,main,1,1,2,negative,negative,l,l,1,0.6157966999999189,187.53039950000039,188.55407790000027,188.51061800000025,None,187.53039950000039,None,187.53039950000039,None,187.53039950000039,None,189.12350736000016,None,189.12350736000016,None,189.12350736000016,None,,,,,,,,,,,229,24,Male,2022-06-03_14h21.21.764,Main,2022.1.1,60.119385074802935,
negative,positive,2,j,l,,,,,,,,,1,4,22,15,,,,,,,,,,,,,,,,,,,,,,,,main,2,2,2,positive,negative,l,l,1,0.758015400000204,189.14442069999996,190.15778720000026,190.13604669999995,None,189.14442069999996,None,189.14442069999996,None,189.14442069999996,None,190.88164296000022,None,190.88164296000022,None,190.88164296000022,None,,,,,,,,,,,229,24,Male,2022-06-03_14h21.21.764,Main,2022.1.1,60.119385074802935,
negative,negative,1,j,l,,,,,,,,,1,5,23,0,,,,,,,,,,,,,,,,,,,,,,,,main,1,1,1,negative,negative,l,l,1,0.880730400000175,190.91519640000024,191.92724480000015,191.90853289999995,None,190.91519640000024,None,190.91519640000024,None,190.91519640000024,None,192.76989925999996,None,192.76989925999996,None,192.76989925999996,None,,,,,,,,,,,229,24,Male,2022-06-03_14h21.21.764,Main,2022.1.1,60.119385074802935,
positive,neutral,2,l,j,,,,,,,,,1,6,24,17,,,,,,,,,,,,,,,,,,,,,,,,main,1,1,2,neutral,positive,j,j,1,1.150582299999769,192.79383570000027,193.8116331000001,193.7836529000001,None,192.79383570000027,None,192.79383570000027,None,192.79383570000027,None,194.92405536000032,None,194.92405536000032,None,194.92405536000032,None,,,,,,,,,,,229,24,Male,2022-06-03_14h21.21.764,Main,2022.1.1,60.119385074802935,
positive,positive,1,l,j,,,,,,,,,1,7,25,2,,,,,,,,,,,,,,,,,,,,,,,,main,1,1,1,positive,positive,j,j,1,0.6252152999995815,194.9497795000002,195.96886710000035,195.92929700000013,None,194.9497795000002,None,194.9497795000002,None,194.9497795000002,None,196.55114266000018,None,196.55114266000018,None,196.55114266000018,None,,,,,,,,,,,229,24,Male,2022-06-03_14h21.21.764,Main,2022.1.1,60.119385074802935,
negative,positive,1,j,l,,,,,,,,,1,8,26,6,,,,,,,,,,,,,,,,,,,,,,,,main,2,2,1,positive,negative,l,l,1,0.5521026000001257,196.57367079999995,197.57854140000018,197.55828659999997,None,196.57367079999995,None,196.57367079999995,None,196.57367079999995,None,198.10514156000008,None,198.10514156000008,None,198.10514156000008,None,,,,,,,,,,,229,24,Male,2022-06-03_14h21.21.764,Main,2022.1.1,60.119385074802935,
positive,positive,2,l,j,,,,,,,,,1,9,27,11,,,,,,,,,,,,,,,,,,,,,,,,main,2,2,2,positive,positive,j,j,1,0.6894727999997485,198.1277597000003,199.13569430000007,199.11536350000006,None,198.1277597000003,None,198.1277597000003,None,198.1277597000003,None,199.79956656000022,None,199.79956656000022,None,199.79956656000022,None,,,,,,,,,,,229,24,Male,2022-06-03_14h21.21.764,Main,2022.1.1,60.119385074802935,
neutral,negative,2,k,k,,,,,,,,,1,10,28,16,,,,,,,,,,,,,,,,,,,,,,,,main,2,2,2,negative,neutral,k,k,1,0.5789082000001144,199.8189155,200.83703719999994,200.79848280000033,None,199.8189155,None,199.8189155,None,199.8189155,None,201.37921805999994,None,201.37921805999994,None,201.37921805999994,None,,,,,,,,,,,229,24,Male,2022-06-03_14h21.21.764,Main,2022.1.1,60.119385074802935,
neutral,negative,1,k,k,,,,,,,,,1,11,29,7,,,,,,,,,,,,,,,,,,,,,,,,main,2,2,1,negative,neutral,k,k,1,0.6497156999998879,201.40156960000013,202.40870640000003,202.38761539999996,None,201.40156960000013,None,201.40156960000013,None,201.40156960000013,None,203.03373066000003,None,203.03373066000003,None,203.03373066000003,None,,,,,,,,,,,229,24,Male,2022-06-03_14h21.21.764,Main,2022.1.1,60.119385074802935,
negative,neutral,2,j,l,,,,,,,,,1,12,30,12,,,,,,,,,,,,,,,,,,,,,,,,main,1,1,2,neutral,negative,l,l,1,0.6784731000002466,203.05400660000032,204.07451440000023,204.03599740000027,None,203.05400660000032,None,203.05400660000032,None,203.05400660000032,None,204.71235695999994,None,204.71235695999994,None,204.71235695999994,None,,,,,,,,,,,229,24,Male,2022-06-03_14h21.21.764,Main,2022.1.1,60.119385074802935,
negative,neutral,1,j,l,,,,,,,,,1,13,31,3,,,,,,,,,,,,,,,,,,,,,,,,main,2,2,1,neutral,negative,l,k,0,0.6588448000002245,204.73678180000024,205.75395650000019,205.71541730000035,None,204.73678180000024,None,204.73678180000024,None,204.73678180000024,None,206.39812830000028,None,206.39812830000028,None,206.39812830000028,None,,,,,,,,,,,229,24,Male,2022-06-03_14h21.21.764,Main,2022.1.1,60.119385074802935,
neutral,positive,1,k,k,,,,,,,,,1,14,32,4,,,,,,,,,,,,,,,,,,,,,,,,main,1,1,1,positive,neutral,k,k,1,0.7928864000000431,207.41932799999995,208.4340172000002,208.39691240000002,None,207.41932799999995,None,207.41932799999995,None,207.41932799999995,None,209.19362716000032,None,209.19362716000032,None,209.19362716000032,None,,,,,,,,,,,229,24,Male,2022-06-03_14h21.21.764,Main,2022.1.1,60.119385074802935,
positive,neutral,1,l,j,,,,,,,,,1,15,33,8,,,,,,,,,,,,,,,,,,,,,,,,main,1,1,1,neutral,positive,j,j,1,1.0117080999998507,209.21847200000002,210.23195440000018,210.19288300000017,None,209.21847200000002,None,209.21847200000002,None,209.21847200000002,None,211.20962666000023,None,211.20962666000023,None,211.20962666000023,None,,,,,,,,,,,229,24,Male,2022-06-03_14h21.21.764,Main,2022.1.1,60.119385074802935,
neutral,positive,2,k,k,,,,,,,,,1,16,34,13,,,,,,,,,,,,,,,,,,,,,,,,main,1,1,2,positive,neutral,k,k,1,0.8097949999996672,211.2297678,212.24308580000024,212.20299190000014,None,211.2297678,None,211.2297678,None,211.2297678,None,213.0232245600001,None,213.0232245600001,None,213.0232245600001,None,,,,,,,,,,,229,24,Male,2022-06-03_14h21.21.764,Main,2022.1.1,60.119385074802935,
positive,negative,2,l,j,,,,,,,,,1,17,35,14,,,,,,,,,,,,,,,,,,,,,,,,main,1,1,2,negative,positive,j,j,1,0.7227828000000045,213.04287550000026,214.04501900000014,214.02570500000002,None,213.04287550000026,None,213.04287550000026,None,213.04287550000026,None,214.74665435999995,None,214.74665435999995,None,214.74665435999995,None,,,,,,,,,,,229,24,Male,2022-06-03_14h21.21.764,Main,2022.1.1,60.119385074802935,
positive,neutral,1,l,j,,,,,,,,,2,0,36,8,,,,,,,,,,,,,,,,,,,,,,,,main,1,1,1,neutral,positive,j,j,1,0.796906399999898,214.77089270000033,215.77712650000012,215.7587427000003,None,214.77089270000033,None,214.77089270000033,None,214.77089270000033,None,216.5462117600001,None,216.5462117600001,None,216.5462117600001,None,,,,,,,,,,,229,24,Male,2022-06-03_14h21.21.764,Main,2022.1.1,60.119385074802935,
negative,negative,1,j,l,,,,,,,,,2,1,37,0,,,,,,,,,,,,,,,,,,,,,,,,main,2,2,1,negative,negative,l,l,1,1.5050686999998106,216.57316549999996,217.5791274000003,217.54124339999998,None,216.57316549999996,None,216.57316549999996,None,216.57316549999996,None,219.06946620000008,None,219.06946620000008,None,219.06946620000008,None,,,,,,,,,,,229,24,Male,2022-06-03_14h21.21.764,Main,2022.1.1,60.119385074802935,
negative,negative,2,j,l,,,,,,,,,2,2,38,9,,,,,,,,,,,,,,,,,,,,,,,,main,2,2,2,negative,negative,l,l,1,0.8063036999997166,220.0968111000002,221.10634700000037,221.08753950000028,None,220.0968111000002,None,220.0968111000002,None,220.0968111000002,None,221.88429556000037,None,221.88429556000037,None,221.88429556000037,None,,,,,,,,,,,229,24,Male,2022-06-03_14h21.21.764,Main,2022.1.1,60.119385074802935,
negative,neutral,2,j,l,,,,,,,,,2,3,39,12,,,,,,,,,,,,,,,,,,,,,,,,main,2,2,2,neutral,negative,l,l,1,0.6579351000000315,221.90531200000032,222.91282920000003,222.89415570000028,None,221.90531200000032,None,221.90531200000032,None,221.90531200000032,None,223.54422096000016,None,223.54422096000016,None,223.54422096000016,None,,,,,,,,,,,229,24,Male,2022-06-03_14h21.21.764,Main,2022.1.1,60.119385074802935,
neutral,negative,2,k,k,,,,,,,,,2,4,40,16,,,,,,,,,,,,,,,,,,,,,,,,main,2,2,2,negative,neutral,k,k,1,0.6803271999997378,223.56473080000023,224.56896870000037,224.54717970000002,None,223.56473080000023,None,223.56473080000023,None,223.56473080000023,None,225.22866966,None,225.22866966,None,225.22866966,None,,,,,,,,,,,229,24,Male,2022-06-03_14h21.21.764,Main,2022.1.1,60.119385074802935,
neutral,positive,2,k,k,,,,,,,,,2,5,41,13,,,,,,,,,,,,,,,,,,,,,,,,main,1,1,2,positive,neutral,k,k,1,0.7072172000002865,225.24913640000022,226.26366010000038,226.23580149999998,None,225.24913640000022,None,225.24913640000022,None,225.24913640000022,None,226.93758725999996,None,226.93758725999996,None,226.93758725999996,None,,,,,,,,,,,229,24,Male,2022-06-03_14h21.21.764,Main,2022.1.1,60.119385074802935,
neutral,neutral,1,k,k,,,,,,,,,2,6,42,1,,,,,,,,,,,,,,,,,,,,,,,,main,1,1,1,neutral,neutral,k,k,1,0.6512010000001283,226.9589772000004,227.97311830000035,227.93624330000011,None,226.9589772000004,None,226.9589772000004,None,226.9589772000004,None,228.59128616000007,None,228.59128616000007,None,228.59128616000007,None,,,,,,,,,,,229,24,Male,2022-06-03_14h21.21.764,Main,2022.1.1,60.119385074802935,
negative,neutral,1,j,l,,,,,,,,,2,7,43,3,,,,,,,,,,,,,,,,,,,,,,,,main,2,2,1,neutral,negative,l,l,1,0.6381610000003093,228.6118706000002,229.62125830000014,229.6015155,None,228.6118706000002,None,228.6118706000002,None,228.6118706000002,None,230.2344049600002,None,230.2344049600002,None,230.2344049600002,None,,,,,,,,,,,229,24,Male,2022-06-03_14h21.21.764,Main,2022.1.1,60.119385074802935,
positive,neutral,2,l,j,,,,,,,,,2,8,44,17,,,,,,,,,,,,,,,,,,,,,,,,main,1,1,2,neutral,positive,j,j,1,0.642341100000067,230.25518180000017,231.26051320000033,231.24111100000027,None,230.25518180000017,None,230.25518180000017,None,230.25518180000017,None,231.88042305999997,None,231.88042305999997,None,231.88042305999997,None,,,,,,,,,,,229,24,Male,2022-06-03_14h21.21.764,Main,2022.1.1,60.119385074802935,
positive,negative,1,l,j,,,,,,,,,2,9,45,5,,,,,,,,,,,,,,,,,,,,,,,,main,1,1,1,negative,positive,j,j,1,0.7031104999996387,231.9009876,232.90292390000013,232.88423469999998,None,231.9009876,None,231.9009876,None,231.9009876,None,233.58508856000034,None,233.58508856000034,None,233.58508856000034,None,,,,,,,,,,,229,24,Male,2022-06-03_14h21.21.764,Main,2022.1.1,60.119385074802935,
neutral,neutral,2,k,k,,,,,,,,,2,10,46,10,,,,,,,,,,,,,,,,,,,,,,,,main,2,2,2,neutral,neutral,k,k,1,0.7059439999998176,233.60547250000036,234.61547180000025,234.59622360000003,None,233.60547250000036,None,233.60547250000036,None,233.60547250000036,None,235.29398765999994,None,235.29398765999994,None,235.29398765999994,None,,,,,,,,,,,229,24,Male,2022-06-03_14h21.21.764,Main,2022.1.1,60.119385074802935,
positive,negative,2,l,j,,,,,,,,,2,11,47,14,,,,,,,,,,,,,,,,,,,,,,,,main,1,1,2,negative,positive,j,j,1,0.7082376999996995,235.31560760000002,236.33162860000039,236.31203189999997,None,235.31560760000002,None,235.31560760000002,None,235.31560760000002,None,237.00456526000025,None,237.00456526000025,None,237.00456526000025,None,,,,,,,,,,,229,24,Male,2022-06-03_14h21.21.764,Main,2022.1.1,60.119385074802935,
positive,positive,1,l,j,,,,,,,,,2,12,48,2,,,,,,,,,,,,,,,,,,,,,,,,main,1,1,1,positive,positive,j,j,1,0.698367099999814,237.02623800000038,238.03647790000014,238.01730369999996,None,237.02623800000038,None,237.02623800000038,None,237.02623800000038,None,238.70249046000035,None,238.70249046000035,None,238.70249046000035,None,,,,,,,,,,,229,24,Male,2022-06-03_14h21.21.764,Main,2022.1.1,60.119385074802935,
neutral,positive,1,k,k,,,,,,,,,2,13,49,4,,,,,,,,,,,,,,,,,,,,,,,,main,1,1,1,positive,neutral,k,k,1,0.7534629000001587,238.72799780000014,239.74721100000033,239.70712870000034,None,238.72799780000014,None,238.72799780000014,None,238.72799780000014,None,240.46304566000035,None,240.46304566000035,None,240.46304566000035,None,,,,,,,,,,,229,24,Male,2022-06-03_14h21.21.764,Main,2022.1.1,60.119385074802935,
negative,positive,2,j,l,,,,,,,,,2,14,50,15,,,,,,,,,,,,,,,,,,,,,,,,main,2,2,2,positive,negative,l,l,1,0.5712838999997985,240.4838651,241.49572190000026,241.45563440000024,None,240.4838651,None,240.4838651,None,240.4838651,None,242.0365413600003,None,242.0365413600003,None,242.0365413600003,None,,,,,,,,,,,229,24,Male,2022-06-03_14h21.21.764,Main,2022.1.1,60.119385074802935,
neutral,negative,1,k,k,,,,,,,,,2,15,51,7,,,,,,,,,,,,,,,,,,,,,,,,main,2,2,1,negative,neutral,k,k,1,0.6199196000002303,242.0581390000002,243.0822174,243.0519588000002,None,242.0581390000002,None,242.0581390000002,None,242.0581390000002,None,243.6593952600002,None,243.6593952600002,None,243.6593952600002,None,,,,,,,,,,,229,24,Male,2022-06-03_14h21.21.764,Main,2022.1.1,60.119385074802935,
negative,positive,1,j,l,,,,,,,,,2,16,52,6,,,,,,,,,,,,,,,,,,,,,,,,main,1,1,1,positive,negative,l,l,1,0.6539459999999053,243.6921755000003,244.71336650000012,244.68326270000034,None,243.6921755000003,None,243.6921755000003,None,243.6921755000003,None,245.3161054600001,None,245.3161054600001,None,245.3161054600001,None,,,,,,,,,,,229,24,Male,2022-06-03_14h21.21.764,Main,2022.1.1,60.119385074802935,
positive,positive,2,l,j,,,,,,,,,2,17,53,11,,,,,,,,,,,,,,,,,,,,,,,,main,1,1,2,positive,positive,j,j,1,0.5730867000002036,245.34304810000003,246.35913640000035,246.33837760000006,None,245.34304810000003,None,245.34304810000003,None,245.34304810000003,None,246.89279006000024,None,246.89279006000024,None,246.89279006000024,None,,,,,,,,,,,229,24,Male,2022-06-03_14h21.21.764,Main,2022.1.1,60.119385074802935,
negative,negative,1,j,l,,,,,,,,,3,0,54,0,,,,,,,,,,,,,,,,,,,,,,,,main,1,1,1,negative,negative,l,l,1,0.7540343000000576,246.91877760000034,247.94250780000039,247.91709460000038,None,246.91877760000034,None,246.91877760000034,None,246.91877760000034,None,248.6613568200002,None,248.6613568200002,None,248.6613568200002,None,,,,,,,,,,,229,24,Male,2022-06-03_14h21.21.764,Main,2022.1.1,60.119385074802935,
neutral,neutral,2,k,k,,,,,,,,,3,1,55,10,,,,,,,,,,,,,,,,,,,,,,,,main,2,2,2,neutral,neutral,k,k,1,0.6910852999999406,248.69228780000003,249.69908160000023,249.67619439999999,None,248.69228780000003,None,248.69228780000003,None,248.69228780000003,None,250.34506176000022,None,250.34506176000022,None,250.34506176000022,None,,,,,,,,,,,229,24,Male,2022-06-03_14h21.21.764,Main,2022.1.1,60.119385074802935,
negative,neutral,1,j,l,,,,,,,,,3,2,56,3,,,,,,,,,,,,,,,,,,,,,,,,main,1,1,1,neutral,negative,l,l,1,0.7764431999999033,250.3760881000003,251.40468880000026,251.3569961000003,None,250.3760881000003,None,250.3760881000003,None,250.3760881000003,None,252.1279523600002,None,252.1279523600002,None,252.1279523600002,None,,,,,,,,,,,229,24,Male,2022-06-03_14h21.21.764,Main,2022.1.1,60.119385074802935,
negative,positive,2,j,l,,,,,,,,,3,3,57,15,,,,,,,,,,,,,,,,,,,,,,,,main,1,1,2,positive,negative,l,l,1,0.7880264999998872,252.14854920000016,253.17245760000014,253.12420080000038,None,252.14854920000016,None,252.14854920000016,None,252.14854920000016,None,253.9201678600003,None,253.9201678600003,None,253.9201678600003,None,,,,,,,,,,,229,24,Male,2022-06-03_14h21.21.764,Main,2022.1.1,60.119385074802935,
negative,neutral,2,j,l,,,,,,,,,3,4,58,12,,,,,,,,,,,,,,,,,,,,,,,,main,2,2,2,neutral,negative,l,l,1,0.6546155999999428,253.94073430000026,254.94859680000036,254.92974070000037,None,253.94073430000026,None,253.94073430000026,None,253.94073430000026,None,255.57154335999994,None,255.57154335999994,None,255.57154335999994,None,,,,,,,,,,,229,24,Male,2022-06-03_14h21.21.764,Main,2022.1.1,60.119385074802935,
positive,neutral,2,l,j,,,,,,,,,3,5,59,17,,,,,,,,,,,,,,,,,,,,,,,,main,1,1,2,neutral,positive,j,j,1,0.6823215000003984,255.59650069999998,256.60204710000016,256.5829659000001,None,255.59650069999998,None,255.59650069999998,None,255.59650069999998,None,257.2610670600003,None,257.2610670600003,None,257.2610670600003,None,,,,,,,,,,,229,24,Male,2022-06-03_14h21.21.764,Main,2022.1.1,60.119385074802935,
neutral,positive,1,k,k,,,,,,,,,3,6,60,4,,,,,,,,,,,,,,,,,,,,,,,,main,1,1,1,positive,neutral,k,k,1,0.6260201999998571,257.2810363000003,258.28546940000024,258.26451880000013,None,257.2810363000003,None,257.2810363000003,None,257.2810363000003,None,258.88931946000014,None,258.88931946000014,None,258.88931946000014,None,,,,,,,,,,,229,24,Male,2022-06-03_14h21.21.764,Main,2022.1.1,60.119385074802935,
neutral,neutral,1,k,k,,,,,,,,,3,7,61,1,,,,,,,,,,,,,,,,,,,,,,,,main,1,1,1,neutral,neutral,k,k,1,0.6081666999998561,258.9102624000002,259.9244133000002,259.8855558,None,258.9102624000002,None,258.9102624000002,None,258.9102624000002,None,260.50262496000016,None,260.50262496000016,None,260.50262496000016,None,,,,,,,,,,,229,24,Male,2022-06-03_14h21.21.764,Main,2022.1.1,60.119385074802935,
positive,neutral,1,l,j,,,,,,,,,3,8,62,8,,,,,,,,,,,,,,,,,,,,,,,,main,2,2,1,neutral,positive,j,j,1,0.7735670000001846,260.5230623000002,261.5477777000001,261.50216950000004,None,260.5230623000002,None,260.5230623000002,None,260.5230623000002,None,262.27929996000023,None,262.27929996000023,None,262.27929996000023,None,,,,,,,,,,,229,24,Male,2022-06-03_14h21.21.764,Main,2022.1.1,60.119385074802935,
neutral,negative,1,k,k,,,,,,,,,3,9,63,7,,,,,,,,,,,,,,,,,,,,,,,,main,2,2,1,negative,neutral,k,k,1,0.6580923999999868,262.30004180000014,263.30279370000017,263.2835914000002,None,262.30004180000014,None,262.30004180000014,None,262.30004180000014,None,263.9387893600002,None,263.9387893600002,None,263.9387893600002,None,,,,,,,,,,,229,24,Male,2022-06-03_14h21.21.764,Main,2022.1.1,60.119385074802935,
positive,positive,2,l,j,,,,,,,,,3,10,64,11,,,,,,,,,,,,,,,,,,,,,,,,main,2,2,2,positive,positive,j,j,1,0.8788395000001401,263.9596908000003,264.99231320000035,264.9369557,None,263.9596908000003,None,263.9596908000003,None,263.9596908000003,None,265.8205575600001,None,265.8205575600001,None,265.8205575600001,None,,,,,,,,,,,229,24,Male,2022-06-03_14h21.21.764,Main,2022.1.1,60.119385074802935,
positive,negative,2,l,j,,,,,,,,,3,11,65,14,,,,,,,,,,,,,,,,,,,,,,,,main,1,1,2,negative,positive,j,j,1,0.6185272999996414,265.84079050000037,266.8588132,266.8207837,None,265.84079050000037,None,265.84079050000037,None,265.84079050000037,None,267.4421759600001,None,267.4421759600001,None,267.4421759600001,None,,,,,,,,,,,229,24,Male,2022-06-03_14h21.21.764,Main,2022.1.1,60.119385074802935,
negative,negative,2,j,l,,,,,,,,,3,12,66,9,,,,,,,,,,,,,,,,,,,,,,,,main,2,2,2,negative,negative,l,l,1,0.7770087999997486,267.46186910000006,268.4761318000001,268.4391641000002,None,267.46186910000006,None,267.46186910000006,None,267.46186910000006,None,269.22087406,None,269.22087406,None,269.22087406,None,,,,,,,,,,,229,24,Male,2022-06-03_14h21.21.764,Main,2022.1.1,60.119385074802935,
neutral,negative,2,k,k,,,,,,,,,3,13,67,16,,,,,,,,,,,,,,,,,,,,,,,,main,1,1,2,negative,neutral,k,k,1,0.6963630000000194,269.240824,270.2435763000003,270.2245790000002,None,269.240824,None,269.240824,None,269.240824,None,270.9200038600003,None,270.9200038600003,None,270.9200038600003,None,,,,,,,,,,,229,24,Male,2022-06-03_14h21.21.764,Main,2022.1.1,60.119385074802935,
positive,positive,1,l,j,,,,,,,,,3,14,68,2,,,,,,,,,,,,,,,,,,,,,,,,main,1,1,1,positive,positive,j,j,1,0.7831681999996363,270.9404145000003,271.9481936000002,271.9285501000004,None,270.9404145000003,None,270.9404145000003,None,270.9404145000003,None,272.7056632600003,None,272.7056632600003,None,272.7056632600003,None,,,,,,,,,,,229,24,Male,2022-06-03_14h21.21.764,Main,2022.1.1,60.119385074802935,
neutral,positive,2,k,k,,,,,,,,,3,15,69,13,,,,,,,,,,,,,,,,,,,,,,,,main,1,1,2,positive,neutral,k,k,1,0.7959889999997358,272.7258919000001,273.7361357,273.7170992000001,None,272.7258919000001,None,272.7258919000001,None,272.7258919000001,None,274.5030205600002,None,274.5030205600002,None,274.5030205600002,None,,,,,,,,,,,229,24,Male,2022-06-03_14h21.21.764,Main,2022.1.1,60.119385074802935,
positive,negative,1,l,j,,,,,,,,,3,16,70,5,,,,,,,,,,,,,,,,,,,,,,,,main,2,2,1,negative,positive,j,j,1,0.7873074999997698,274.52911280000035,275.54128420000006,275.51292379999995,None,274.52911280000035,None,274.52911280000035,None,274.52911280000035,None,276.29597086000024,None,276.29597086000024,None,276.29597086000024,None,,,,,,,,,,,229,24,Male,2022-06-03_14h21.21.764,Main,2022.1.1,60.119385074802935,
negative,positive,1,j,l,,,,,,,,,3,17,71,6,,,,,,,,,,,,,,,,,,,,,,,,main,1,1,1,positive,negative,l,l,1,0.7365982000001168,276.31577400000015,277.31911949999994,277.30065570000033,None,276.31577400000015,None,276.31577400000015,None,276.31577400000015,None,278.0340095600001,None,278.0340095600001,None,278.0340095600001,None,,,,,,,,,,,229,24,Male,2022-06-03_14h21.21.764,Main,2022.1.1,60.119385074802935,
neutral,negative,2,k,k,,,,,,,,,4,0,72,16,,,,,,,,,,,,,,,,,,,,,,,,main,2,2,2,negative,neutral,k,k,1,0.7164440999999897,278.0553291000001,279.05839349999997,279.03865780000024,None,278.0553291000001,None,278.0553291000001,None,278.0553291000001,None,279.75515406000034,None,279.75515406000034,None,279.75515406000034,None,,,,,,,,,,,229,24,Male,2022-06-03_14h21.21.764,Main,2022.1.1,60.119385074802935,
negative,negative,1,j,l,,,,,,,,,4,1,73,0,,,,,,,,,,,,,,,,,,,,,,,,main,2,2,1,negative,negative,l,l,1,0.6792317999997977,279.7758434000002,280.7835492000004,280.76215249999996,None,279.7758434000002,None,279.7758434000002,None,279.7758434000002,None,281.4349891600001,None,281.4349891600001,None,281.4349891600001,None,,,,,,,,,,,229,24,Male,2022-06-03_14h21.21.764,Main,2022.1.1,60.119385074802935,
negative,neutral,2,j,l,,,,,,,,,4,2,74,12,,,,,,,,,,,,,,,,,,,,,,,,main,1,1,2,neutral,negative,l,l,1,0.6783081000003222,281.45607180000025,282.47604679999995,282.437633,None,281.45607180000025,None,281.45607180000025,None,281.45607180000025,None,283.11515006,None,283.11515006,None,283.11515006,None,,,,,,,,,,,229,24,Male,2022-06-03_14h21.21.764,Main,2022.1.1,60.119385074802935,
negative,negative,2,j,l,,,,,,,,,4,3,75,9,,,,,,,,,,,,,,,,,,,,,,,,main,1,1,2,negative,negative,l,l,1,0.6812952999998743,283.13676940000005,284.1469932,284.1280249000001,None,283.13676940000005,None,283.13676940000005,None,283.13676940000005,None,284.80043295999997,None,284.80043295999997,None,284.80043295999997,None,,,,,,,,,,,229,24,Male,2022-06-03_14h21.21.764,Main,2022.1.1,60.119385074802935,
positive,negative,1,l,j,,,,,,,,,4,4,76,5,,,,,,,,,,,,,,,,,,,,,,,,main,2,2,1,negative,positive,j,j,1,0.9301003000000492,284.8206186000002,285.8427273000002,285.8027586000003,None,284.8206186000002,None,284.8206186000002,None,284.8206186000002,None,286.7343964600001,None,286.7343964600001,None,286.7343964600001,None,,,,,,,,,,,229,24,Male,2022-06-03_14h21.21.764,Main,2022.1.1,60.119385074802935,
neutral,neutral,1,k,k,,,,,,,,,4,5,77,1,,,,,,,,,,,,,,,,,,,,,,,,main,1,1,1,neutral,neutral,k,k,1,0.7309479000000465,286.75532880000037,287.7594114000003,287.73984800000017,None,286.75532880000037,None,286.75532880000037,None,286.75532880000037,None,288.4684564600003,None,288.4684564600003,None,288.4684564600003,None,,,,,,,,,,,229,24,Male,2022-06-03_14h21.21.764,Main,2022.1.1,60.119385074802935,
negative,neutral,1,j,l,,,,,,,,,4,6,78,3,,,,,,,,,,,,,,,,,,,,,,,,main,1,1,1,neutral,negative,l,l,1,1.3521743999999671,288.4883183000002,289.50618980000036,289.4669629,None,288.4883183000002,None,288.4883183000002,None,288.4883183000002,None,290.8219507600003,None,290.8219507600003,None,290.8219507600003,None,,,,,,,,,,,229,24,Male,2022-06-03_14h21.21.764,Main,2022.1.1,60.119385074802935,
positive,positive,2,l,j,,,,,,,,,4,7,79,11,,,,,,,,,,,,,,,,,,,,,,,,main,1,1,2,positive,positive,j,j,1,0.7533919000002243,290.8443803,291.85257720000027,291.8327029000002,None,290.8443803,None,290.8443803,None,290.8443803,None,292.5875006200001,None,292.5875006200001,None,292.5875006200001,None,,,,,,,,,,,229,24,Male,2022-06-03_14h21.21.764,Main,2022.1.1,60.119385074802935,
positive,neutral,2,l,j,,,,,,,,,4,8,80,17,,,,,,,,,,,,,,,,,,,,,,,,main,1,1,2,neutral,positive,j,j,1,0.7453629999999976,292.6035294000003,293.60637840000027,293.60637840000027,None,292.6035294000003,None,292.6035294000003,None,292.6035294000003,None,294.33072486000003,None,294.33072486000003,None,294.33072486000003,None,,,,,,,,,,,229,24,Male,2022-06-03_14h21.21.764,Main,2022.1.1,60.119385074802935,
negative,positive,2,j,l,,,,,,,,,4,9,81,15,,,,,,,,,,,,,,,,,,,,,,,,main,2,2,2,positive,negative,l,l,1,0.6822377999997116,294.35066940000024,295.3542335000002,295.3343106000002,None,294.35066940000024,None,294.35066940000024,None,294.35066940000024,None,296.0152911600004,None,296.0152911600004,None,296.0152911600004,None,,,,,,,,,,,229,24,Male,2022-06-03_14h21.21.764,Main,2022.1.1,60.119385074802935,
positive,neutral,1,l,j,,,,,,,,,4,10,82,8,,,,,,,,,,,,,,,,,,,,,,,,main,2,2,1,neutral,positive,j,j,1,0.9051555000000917,296.03723070000024,297.04772520000006,297.01961359999996,None,296.03723070000024,None,296.03723070000024,None,296.03723070000024,None,297.9211053600003,None,297.9211053600003,None,297.9211053600003,None,,,,,,,,,,,229,24,Male,2022-06-03_14h21.21.764,Main,2022.1.1,60.119385074802935,
neutral,neutral,2,k,k,,,,,,,,,4,11,83,10,,,,,,,,,,,,,,,,,,,,,,,,main,2,2,2,neutral,neutral,k,k,1,0.7137603000001036,297.9434348,298.95797410000023,298.91909550000037,None,297.9434348,None,297.9434348,None,297.9434348,None,299.63700886000026,None,299.63700886000026,None,299.63700886000026,None,,,,,,,,,,,229,24,Male,2022-06-03_14h21.21.764,Main,2022.1.1,60.119385074802935,
positive,positive,1,l,j,,,,,,,,,4,12,84,2,,,,,,,,,,,,,,,,,,,,,,,,main,1,1,1,positive,positive,j,j,1,0.9882210999999188,299.65972009999996,300.66758359999994,300.6463025000003,None,299.65972009999996,None,299.65972009999996,None,299.65972009999996,None,301.6260279600002,None,301.6260279600002,None,301.6260279600002,None,,,,,,,,,,,229,24,Male,2022-06-03_14h21.21.764,Main,2022.1.1,60.119385074802935,
negative,positive,1,j,l,,,,,,,,,4,13,85,6,,,,,,,,,,,,,,,,,,,,,,,,main,1,1,1,positive,negative,l,l,1,0.7262126000000535,301.64927130000024,302.6640689000001,302.62530460000016,None,301.64927130000024,None,301.64927130000024,None,301.64927130000024,None,303.35344626000017,None,303.35344626000017,None,303.35344626000017,None,,,,,,,,,,,229,24,Male,2022-06-03_14h21.21.764,Main,2022.1.1,60.119385074802935,
positive,negative,2,l,j,,,,,,,,,4,14,86,14,,,,,,,,,,,,,,,,,,,,,,,,main,2,2,2,negative,positive,j,j,1,0.6994039000001067,303.38246960000015,304.4017589,304.3635959000003,None,303.38246960000015,None,303.38246960000015,None,303.38246960000015,None,305.0620419600001,None,305.0620419600001,None,305.0620419600001,None,,,,,,,,,,,229,24,Male,2022-06-03_14h21.21.764,Main,2022.1.1,60.119385074802935,
neutral,positive,2,k,k,,,,,,,,,4,15,87,13,,,,,,,,,,,,,,,,,,,,,,,,main,2,2,2,positive,neutral,k,k,1,0.6440229999998337,305.08295339999995,306.0979801000003,306.0561821000001,None,305.08295339999995,None,305.08295339999995,None,305.08295339999995,None,306.70876206000014,None,306.70876206000014,None,306.70876206000014,None,,,,,,,,,,,229,24,Male,2022-06-03_14h21.21.764,Main,2022.1.1,60.119385074802935,
neutral,negative,1,k,k,,,,,,,,,4,16,88,7,,,,,,,,,,,,,,,,,,,,,,,,main,2,2,1,negative,neutral,k,k,1,0.7621069000001626,306.73171560000037,307.7502267,307.71121489999996,None,306.73171560000037,None,306.73171560000037,None,306.73171560000037,None,308.4721111600003,None,308.4721111600003,None,308.4721111600003,None,,,,,,,,,,,229,24,Male,2022-06-03_14h21.21.764,Main,2022.1.1,60.119385074802935,
neutral,positive,1,k,k,,,,,,,,,4,17,89,4,,,,,,,,,,,,,,,,,,,,,,,,main,2,2,1,positive,neutral,k,k,1,0.6969905000000836,308.4937592000001,309.51557230000026,309.47484239999994,None,308.4937592000001,None,308.4937592000001,None,308.4937592000001,None,310.17333956000004,None,310.17333956000004,None,310.17333956000004,None,,,,,,,,,,,229,24,Male,2022-06-03_14h21.21.764,Main,2022.1.1,60.119385074802935,
positive,negative,2,l,j,,,,,,,,,5,0,90,14,,,,,,,,,,,,,,,,,,,,,,,,main,2,2,2,negative,positive,j,j,1,0.830142700000124,310.19383940000034,311.21519450000005,311.17441380000037,None,310.19383940000034,None,310.19383940000034,None,310.19383940000034,None,312.0071890600003,None,312.0071890600003,None,312.0071890600003,None,,,,,,,,,,,229,24,Male,2022-06-03_14h21.21.764,Main,2022.1.1,60.119385074802935,
negative,negative,2,j,l,,,,,,,,,5,1,91,9,,,,,,,,,,,,,,,,,,,,,,,,main,1,1,2,negative,negative,l,l,1,0.6656356999997115,312.0281552000001,313.0411202,313.0024550000003,None,312.0281552000001,None,312.0281552000001,None,312.0281552000001,None,313.6751238600001,None,313.6751238600001,None,313.6751238600001,None,,,,,,,,,,,229,24,Male,2022-06-03_14h21.21.764,Main,2022.1.1,60.119385074802935,
negative,neutral,1,j,l,,,,,,,,,5,2,92,3,,,,,,,,,,,,,,,,,,,,,,,,main,1,1,1,neutral,negative,l,l,1,1.4442619000001287,313.6946336000001,314.7031320000001,314.6845365000004,None,313.6946336000001,None,313.6946336000001,None,313.6946336000001,None,316.11962386000016,None,316.11962386000016,None,316.11962386000016,None,,,,,,,,,,,229,24,Male,2022-06-03_14h21.21.764,Main,2022.1.1,60.119385074802935,
negative,positive,2,j,l,,,,,,,,,5,3,93,15,,,,,,,,,,,,,,,,,,,,,,,,main,1,1,2,positive,negative,l,l,1,0.6705760000004375,316.14358949999996,317.1545253000004,317.11527650000016,None,316.14358949999996,None,316.14358949999996,None,316.14358949999996,None,317.79505966,None,317.79505966,None,317.79505966,None,,,,,,,,,,,229,24,Male,2022-06-03_14h21.21.764,Main,2022.1.1,60.119385074802935,
negative,neutral,2,j,l,,,,,,,,,5,4,94,12,,,,,,,,,,,,,,,,,,,,,,,,main,2,2,2,neutral,negative,l,l,1,0.6469689999998991,317.81473380000034,318.8378792000003,318.7906068000002,None,317.81473380000034,None,317.81473380000034,None,317.81473380000034,None,319.4445494600001,None,319.4445494600001,None,319.4445494600001,None,,,,,,,,,,,229,24,Male,2022-06-03_14h21.21.764,Main,2022.1.1,60.119385074802935,
neutral,neutral,2,k,k,,,,,,,,,5,5,95,10,,,,,,,,,,,,,,,,,,,,,,,,main,2,2,2,neutral,neutral,k,k,1,0.5756085999996685,319.46604320000006,320.4776608000002,320.4588015000004,None,319.46604320000006,None,319.46604320000006,None,319.46604320000006,None,321.02508376000026,None,321.02508376000026,None,321.02508376000026,None,,,,,,,,,,,229,24,Male,2022-06-03_14h21.21.764,Main,2022.1.1,60.119385074802935,
positive,neutral,2,l,j,,,,,,,,,5,6,96,17,,,,,,,,,,,,,,,,,,,,,,,,main,1,1,2,neutral,positive,j,j,1,0.5029869999998482,321.0454601000001,322.0651117000002,322.0273757,None,321.0454601000001,None,321.0454601000001,None,321.0454601000001,None,322.5297635600001,None,322.5297635600001,None,322.5297635600001,None,,,,,,,,,,,229,24,Male,2022-06-03_14h21.21.764,Main,2022.1.1,60.119385074802935,
negative,negative,1,j,l,,,,,,,,,5,7,97,0,,,,,,,,,,,,,,,,,,,,,,,,main,2,2,1,negative,negative,l,l,1,0.5428209000001516,322.55033619999995,323.56487930000003,323.5262018000003,None,322.55033619999995,None,322.55033619999995,None,322.55033619999995,None,324.07558045999997,None,324.07558045999997,None,324.07558045999997,None,,,,,,,,,,,229,24,Male,2022-06-03_14h21.21.764,Main,2022.1.1,60.119385074802935,
neutral,neutral,1,k,k,,,,,,,,,5,8,98,1,,,,,,,,,,,,,,,,,,,,,,,,main,1,1,1,neutral,neutral,k,k,1,0.6691550000000461,324.09560820000024,325.10441400000036,325.0831413000001,None,324.09560820000024,None,324.09560820000024,None,324.09560820000024,None,325.7583827200003,None,325.7583827200003,None,325.7583827200003,None,,,,,,,,,,,229,24,Male,2022-06-03_14h21.21.764,Main,2022.1.1,60.119385074802935,
positive,positive,1,l,j,,,,,,,,,5,9,99,2,,,,,,,,,,,,,,,,,,,,,,,,main,2,2,1,positive,positive,j,j,1,0.727779300000293,325.7711813000001,326.78100380000024,326.76227400000016,None,325.7711813000001,None,325.7711813000001,None,325.7711813000001,None,327.4792708600004,None,327.4792708600004,None,327.4792708600004,None,,,,,,,,,,,229,24,Male,2022-06-03_14h21.21.764,Main,2022.1.1,60.119385074802935,
positive,negative,1,l,j,,,,,,,,,5,10,100,5,,,,,,,,,,,,,,,,,,,,,,,,main,2,2,1,negative,positive,j,j,1,0.7412731999997959,327.50127610000027,328.52129520000017,328.4815509,None,327.50127610000027,None,327.50127610000027,None,327.50127610000027,None,329.22300056000006,None,329.22300056000006,None,329.22300056000006,None,,,,,,,,,,,229,24,Male,2022-06-03_14h21.21.764,Main,2022.1.1,60.119385074802935,
neutral,negative,1,k,k,,,,,,,,,5,11,101,7,,,,,,,,,,,,,,,,,,,,,,,,main,2,2,1,negative,neutral,k,k,1,0.6593514000001051,329.2435515000002,330.2461436000003,330.22774700000036,None,329.2435515000002,None,329.2435515000002,None,329.2435515000002,None,330.88690166000026,None,330.88690166000026,None,330.88690166000026,None,,,,,,,,,,,229,24,Male,2022-06-03_14h21.21.764,Main,2022.1.1,60.119385074802935,
positive,positive,2,l,j,,,,,,,,,5,12,102,11,,,,,,,,,,,,,,,,,,,,,,,,main,1,1,2,positive,positive,j,j,1,0.7320042999999714,330.9087737,331.9218764000002,331.90214719999994,None,330.9087737,None,330.9087737,None,330.9087737,None,332.6225139600002,None,332.6225139600002,None,332.6225139600002,None,,,,,,,,,,,229,24,Male,2022-06-03_14h21.21.764,Main,2022.1.1,60.119385074802935,
neutral,positive,1,k,k,,,,,,,,,5,13,103,4,,,,,,,,,,,,,,,,,,,,,,,,main,1,1,1,positive,neutral,k,k,1,0.6762300000000323,332.64308370000026,333.6639011000002,333.62275590000036,None,332.64308370000026,None,332.64308370000026,None,332.64308370000026,None,334.3022269600002,None,334.3022269600002,None,334.3022269600002,None,,,,,,,,,,,229,24,Male,2022-06-03_14h21.21.764,Main,2022.1.1,60.119385074802935,
positive,neutral,1,l,j,,,,,,,,,5,14,104,8,,,,,,,,,,,,,,,,,,,,,,,,main,2,2,1,neutral,positive,j,j,1,0.797620199999983,334.32252659999995,335.3280999000003,335.30912400000034,None,334.32252659999995,None,334.32252659999995,None,334.32252659999995,None,336.10347146000015,None,336.10347146000015,None,336.10347146000015,None,,,,,,,,,,,229,24,Male,2022-06-03_14h21.21.764,Main,2022.1.1,60.119385074802935,
neutral,positive,2,k,k,,,,,,,,,5,15,105,13,,,,,,,,,,,,,,,,,,,,,,,,main,2,2,2,positive,neutral,k,k,1,0.6715349999999489,336.1230537000001,337.1432516,337.1051518000004,None,336.1230537000001,None,336.1230537000001,None,336.1230537000001,None,337.7753919600001,None,337.7753919600001,None,337.7753919600001,None,,,,,,,,,,,229,24,Male,2022-06-03_14h21.21.764,Main,2022.1.1,60.119385074802935,
negative,positive,1,j,l,,,,,,,,,5,16,106,6,,,,,,,,,,,,,,,,,,,,,,,,main,2,2,1,positive,negative,l,l,1,0.8063975000000028,337.79686790000005,338.8072801000003,338.78799960000015,None,337.79686790000005,None,337.79686790000005,None,337.79686790000005,None,339.58539336000024,None,339.58539336000024,None,339.58539336000024,None,,,,,,,,,,,229,24,Male,2022-06-03_14h21.21.764,Main,2022.1.1,60.119385074802935,
neutral,negative,2,k,k,,,,,,,,,5,17,107,16,,,,,,,,,,,,,,,,,,,,,,,,main,1,1,2,negative,neutral,k,k,1,0.6907634999997754,339.6074079,340.6304004000003,340.5829756000003,None,339.6074079,None,339.6074079,None,339.6074079,None,341.2815375600004,None,341.2815375600004,None,341.2815375600004,None,,,,,,,,,,,229,24,Male,2022-06-03_14h21.21.764,Main,2022.1.1,60.119385074802935,
negative,positive,1,j,l,,,,,,,,,6,0,108,6,,,,,,,,,,,,,,,,,,,,,,,,main,2,2,1,positive,negative,l,l,1,0.844402799999898,341.30433040000025,342.33031359999995,342.2833233000001,None,341.30433040000025,None,341.30433040000025,None,341.30433040000025,None,343.12868126000023,None,343.12868126000023,None,343.12868126000023,None,,,,,,,,,,,229,24,Male,2022-06-03_14h21.21.764,Main,2022.1.1,60.119385074802935,
negative,positive,2,j,l,,,,,,,,,6,1,109,15,,,,,,,,,,,,,,,,,,,,,,,,main,1,1,2,positive,negative,l,l,1,0.8002265999998599,343.1487126000002,344.15351580000015,344.1334859000003,None,343.1487126000002,None,343.1487126000002,None,343.1487126000002,None,344.93152346,None,344.93152346,None,344.93152346,None,,,,,,,,,,,229,24,Male,2022-06-03_14h21.21.764,Main,2022.1.1,60.119385074802935,
positive,positive,1,l,j,,,,,,,,,6,2,110,2,,,,,,,,,,,,,,,,,,,,,,,,main,1,1,1,positive,positive,j,j,1,0.7775386000002982,344.9509683000001,345.9639608000002,345.92439749999994,None,344.9509683000001,None,344.9509683000001,None,344.9509683000001,None,346.7134153600001,None,346.7134153600001,None,346.7134153600001,None,,,,,,,,,,,229,24,Male,2022-06-03_14h21.21.764,Main,2022.1.1,60.119385074802935,
negative,neutral,1,j,l,,,,,,,,,6,3,111,3,,,,,,,,,,,,,,,,,,,,,,,,main,1,1,1,neutral,negative,l,l,1,0.7422958000001927,346.73539960000016,347.74515040000006,347.72476830000005,None,346.73539960000016,None,346.73539960000016,None,346.73539960000016,None,348.4582639600004,None,348.4582639600004,None,348.4582639600004,None,,,,,,,,,,,229,24,Male,2022-06-03_14h21.21.764,Main,2022.1.1,60.119385074802935,
neutral,positive,2,k,k,,,,,,,,,6,4,112,13,,,,,,,,,,,,,,,,,,,,,,,,main,1,1,2,positive,neutral,k,k,1,0.7515126000002965,348.4793141,349.4918193000003,349.45261260000007,None,348.4793141,None,348.4793141,None,348.4793141,None,350.21210526000016,None,350.21210526000016,None,350.21210526000016,None,,,,,,,,,,,229,24,Male,2022-06-03_14h21.21.764,Main,2022.1.1,60.119385074802935,
negative,neutral,2,j,l,,,,,,,,,6,5,113,12,,,,,,,,,,,,,,,,,,,,,,,,main,2,2,2,neutral,negative,l,l,1,0.7219098000000486,350.23337760000004,351.24865150000005,351.21115740000005,None,350.23337760000004,None,350.23337760000004,None,350.23337760000004,None,351.94660632,None,351.94660632,None,351.94660632,None,,,,,,,,,,,229,24,Male,2022-06-03_14h21.21.764,Main,2022.1.1,60.119385074802935,
negative,negative,2,j,l,,,,,,,,,6,6,114,9,,,,,,,,,,,,,,,,,,,,,,,,main,2,2,2,negative,negative,l,l,1,0.6824477999998635,351.9607723000004,352.98866880000014,352.9606265000002,None,351.9607723000004,None,351.9607723000004,None,351.9607723000004,None,353.6264853600002,None,353.6264853600002,None,353.6264853600002,None,,,,,,,,,,,229,24,Male,2022-06-03_14h21.21.764,Main,2022.1.1,60.119385074802935,
positive,negative,1,l,j,,,,,,,,,6,7,115,5,,,,,,,,,,,,,,,,,,,,,,,,main,2,2,1,negative,positive,j,j,1,0.820824100000209,353.6477324000002,354.6501824000002,354.6310308000002,None,353.6477324000002,None,353.6477324000002,None,353.6477324000002,None,355.44868756000017,None,355.44868756000017,None,355.44868756000017,None,,,,,,,,,,,229,24,Male,2022-06-03_14h21.21.764,Main,2022.1.1,60.119385074802935,
neutral,positive,1,k,k,,,,,,,,,6,8,116,4,,,,,,,,,,,,,,,,,,,,,,,,main,2,2,1,positive,neutral,k,k,1,0.6662670000000617,355.4695812,356.4733094000003,356.4543463,None,355.4695812,None,355.4695812,None,355.4695812,None,357.11661866,None,357.11661866,None,357.11661866,None,,,,,,,,,,,229,24,Male,2022-06-03_14h21.21.764,Main,2022.1.1,60.119385074802935,
positive,negative,2,l,j,,,,,,,,,6,9,117,14,,,,,,,,,,,,,,,,,,,,,,,,main,2,2,2,negative,positive,j,j,1,0.7502082000000883,357.1384172000003,358.1602323000002,358.1404931000002,None,357.1384172000003,None,357.1384172000003,None,357.1384172000003,None,358.87237126,None,358.87237126,None,358.87237126,None,,,,,,,,,,,229,24,Male,2022-06-03_14h21.21.764,Main,2022.1.1,60.119385074802935,
positive,neutral,1,l,j,,,,,,,,,6,10,118,8,,,,,,,,,,,,,,,,,,,,,,,,main,2,2,1,neutral,positive,j,j,1,0.7611204999998336,358.89264649999996,359.89770780000026,359.87894830000005,None,358.89264649999996,None,358.89264649999996,None,358.89264649999996,None,360.6364578600002,None,360.6364578600002,None,360.6364578600002,None,,,,,,,,,,,229,24,Male,2022-06-03_14h21.21.764,Main,2022.1.1,60.119385074802935,
positive,positive,2,l,j,,,,,,,,,6,11,119,11,,,,,,,,,,,,,,,,,,,,,,,,main,2,2,2,positive,positive,j,j,1,0.6886682999997902,360.65684150000016,361.66221270000005,361.6431612000001,None,360.65684150000016,None,360.65684150000016,None,360.65684150000016,None,362.32668436000006,None,362.32668436000006,None,362.32668436000006,None,,,,,,,,,,,229,24,Male,2022-06-03_14h21.21.764,Main,2022.1.1,60.119385074802935,
negative,negative,1,j,l,,,,,,,,,6,12,120,0,,,,,,,,,,,,,,,,,,,,,,,,main,1,1,1,negative,negative,l,l,1,0.7713506999998572,362.3466348000002,363.3579299000003,363.31917020000037,None,362.3466348000002,None,362.3466348000002,None,362.3466348000002,None,364.10188696000034,None,364.10188696000034,None,364.10188696000034,None,,,,,,,,,,,229,24,Male,2022-06-03_14h21.21.764,Main,2022.1.1,60.119385074802935,
neutral,negative,2,k,k,,,,,,,,,6,13,121,16,,,,,,,,,,,,,,,,,,,,,,,,main,1,1,2,negative,neutral,k,k,1,0.6887540000002446,364.1229784000002,365.14352150000013,365.10492460000023,None,364.1229784000002,None,364.1229784000002,None,364.1229784000002,None,365.79497582,None,365.79497582,None,365.79497582,None,,,,,,,,,,,229,24,Male,2022-06-03_14h21.21.764,Main,2022.1.1,60.119385074802935,
neutral,neutral,2,k,k,,,,,,,,,6,14,122,10,,,,,,,,,,,,,,,,,,,,,,,,main,2,2,2,neutral,neutral,k,k,1,0.6337837999999465,365.8308121,366.85342519999995,366.81189110000014,None,365.8308121,None,365.8308121,None,365.8308121,None,367.43516716000033,None,367.43516716000033,None,367.43516716000033,None,,,,,,,,,,,229,24,Male,2022-06-03_14h21.21.764,Main,2022.1.1,60.119385074802935,
positive,neutral,2,l,j,,,,,,,,,6,15,123,17,,,,,,,,,,,,,,,,,,,,,,,,main,1,1,2,neutral,positive,j,j,1,0.6808556000000863,367.45699460000014,368.47200599999996,368.45292070000005,None,367.45699460000014,None,367.45699460000014,None,367.45699460000014,None,369.11679646000005,None,369.11679646000005,None,369.11679646000005,None,,,,,,,,,,,229,24,Male,2022-06-03_14h21.21.764,Main,2022.1.1,60.119385074802935,
neutral,negative,1,k,k,,,,,,,,,6,16,124,7,,,,,,,,,,,,,,,,,,,,,,,,main,1,1,1,negative,neutral,k,k,1,0.7119038999999248,369.15220880000015,370.15675880000026,370.1380803000002,None,369.15220880000015,None,369.15220880000015,None,369.15220880000015,None,370.8377635600001,None,370.8377635600001,None,370.8377635600001,None,,,,,,,,,,,229,24,Male,2022-06-03_14h21.21.764,Main,2022.1.1,60.119385074802935,
neutral,neutral,1,k,k,,,,,,,,,6,17,125,1,,,,,,,,,,,,,,,,,,,,,,,,main,1,1,1,neutral,neutral,k,k,1,0.7591013999999632,370.8583966000001,371.8672394,371.84777650000024,None,370.8583966000001,None,370.8583966000001,None,370.8583966000001,None,372.6005814600004,None,372.6005814600004,None,372.6005814600004,None,,,,,,,,,,,229,24,Male,2022-06-03_14h21.21.764,Main,2022.1.1,60.119385074802935,
neutral,negative,2,k,k,,,,,,,,,7,0,126,16,,,,,,,,,,,,,,,,,,,,,,,,main,2,2,2,negative,neutral,k,k,1,0.7107686999997895,372.6224075,373.63653539999996,373.5963538000001,None,372.6224075,None,372.6224075,None,372.6224075,None,374.31289186000015,None,374.31289186000015,None,374.31289186000015,None,,,,,,,,,,,229,24,Male,2022-06-03_14h21.21.764,Main,2022.1.1,60.119385074802935,
neutral,neutral,1,k,k,,,,,,,,,7,1,127,1,,,,,,,,,,,,,,,,,,,,,,,,main,2,2,1,neutral,neutral,k,k,1,0.6444910000000164,374.33537860000024,375.3401834000001,375.3210967,None,374.33537860000024,None,374.33537860000024,None,374.33537860000024,None,375.9612163600001,None,375.9612163600001,None,375.9612163600001,None,,,,,,,,,,,229,24,Male,2022-06-03_14h21.21.764,Main,2022.1.1,60.119385074802935,
positive,positive,1,l,j,,,,,,,,,7,2,128,2,,,,,,,,,,,,,,,,,,,,,,,,main,1,1,1,positive,positive,j,j,1,0.7484245999999075,375.98398,376.9866102000001,376.96867020000036,None,375.98398,None,375.98398,None,375.98398,None,377.7125161600003,None,377.7125161600003,None,377.7125161600003,None,,,,,,,,,,,229,24,Male,2022-06-03_14h21.21.764,Main,2022.1.1,60.119385074802935,
neutral,positive,1,k,k,,,,,,,,,7,3,129,4,,,,,,,,,,,,,,,,,,,,,,,,main,2,2,1,positive,neutral,k,k,1,1.4297919999999067,377.73483639999995,378.7386356000002,378.7195141000002,None,377.73483639999995,None,377.73483639999995,None,377.73483639999995,None,380.14454326,None,380.14454326,None,380.14454326,None,,,,,,,,,,,229,24,Male,2022-06-03_14h21.21.764,Main,2022.1.1,60.119385074802935,
negative,positive,2,j,l,,,,,,,,,7,4,130,15,,,,,,,,,,,,,,,,,,,,,,,,main,2,2,2,positive,negative,l,l,1,0.8462967999998909,380.16491369999994,381.16658860000007,381.1489303000003,None,380.16491369999994,None,380.16491369999994,None,380.16491369999994,None,381.99336356000015,None,381.99336356000015,None,381.99336356000015,None,,,,,,,,,,,229,24,Male,2022-06-03_14h21.21.764,Main,2022.1.1,60.119385074802935,
negative,neutral,1,j,l,,,,,,,,,7,5,131,3,,,,,,,,,,,,,,,,,,,,,,,,main,1,1,1,neutral,negative,l,l,1,0.7258790000000772,382.0137672000001,383.0296002,382.98999660000027,None,382.0137672000001,None,382.0137672000001,None,382.0137672000001,None,383.71982786,None,383.71982786,None,383.71982786,None,,,,,,,,,,,229,24,Male,2022-06-03_14h21.21.764,Main,2022.1.1,60.119385074802935,
neutral,neutral,2,k,k,,,,,,,,,7,6,132,10,,,,,,,,,,,,,,,,,,,,,,,,main,1,1,2,neutral,neutral,k,k,1,0.6444200000000819,383.7417456000003,384.7472653,384.7265645000002,None,383.7417456000003,None,383.7417456000003,None,383.7417456000003,None,385.3631119600001,None,385.3631119600001,None,385.3631119600001,None,,,,,,,,,,,229,24,Male,2022-06-03_14h21.21.764,Main,2022.1.1,60.119385074802935,
positive,negative,1,l,j,,,,,,,,,7,7,133,5,,,,,,,,,,,,,,,,,,,,,,,,main,2,2,1,negative,positive,j,j,1,0.709538000000066,385.38915810000026,386.40594420000025,386.36863760000006,None,385.38915810000026,None,385.38915810000026,None,385.38915810000026,None,387.0805489600003,None,387.0805489600003,None,387.0805489600003,None,,,,,,,,,,,229,24,Male,2022-06-03_14h21.21.764,Main,2022.1.1,60.119385074802935,
neutral,negative,1,k,k,,,,,,,,,7,8,134,7,,,,,,,,,,,,,,,,,,,,,,,,main,2,2,1,negative,neutral,k,k,1,0.8610791000000972,387.1007378000004,388.1099131000001,388.08662110000023,None,387.1007378000004,None,387.1007378000004,None,387.1007378000004,None,388.9461956600004,None,388.9461956600004,None,388.9461956600004,None,,,,,,,,,,,229,24,Male,2022-06-03_14h21.21.764,Main,2022.1.1,60.119385074802935,
negative,negative,2,j,l,,,,,,,,,7,9,135,9,,,,,,,,,,,,,,,,,,,,,,,,main,2,2,2,negative,negative,l,l,1,0.6671430000001237,388.9668221000002,389.9704772,389.9518503000004,None,388.9668221000002,None,388.9668221000002,None,388.9668221000002,None,390.6151333600002,None,390.6151333600002,None,390.6151333600002,None,,,,,,,,,,,229,24,Male,2022-06-03_14h21.21.764,Main,2022.1.1,60.119385074802935,
negative,neutral,2,j,l,,,,,,,,,7,10,136,12,,,,,,,,,,,,,,,,,,,,,,,,main,1,1,2,neutral,negative,l,l,1,0.7571082999997998,390.6357164000001,391.64495190000025,391.62521970000034,None,390.6357164000001,None,390.6357164000001,None,390.6357164000001,None,392.3768671600002,None,392.3768671600002,None,392.3768671600002,None,,,,,,,,,,,229,24,Male,2022-06-03_14h21.21.764,Main,2022.1.1,60.119385074802935,
negative,positive,1,j,l,,,,,,,,,7,11,137,6,,,,,,,,,,,,,,,,,,,,,,,,main,1,1,1,positive,negative,l,l,1,0.7657924000000094,392.3981328,393.4098371,393.38512549999996,None,392.3981328,None,392.3981328,None,392.3981328,None,394.14391246000025,None,394.14391246000025,None,394.14391246000025,None,,,,,,,,,,,229,24,Male,2022-06-03_14h21.21.764,Main,2022.1.1,60.119385074802935,
neutral,positive,2,k,k,,,,,,,,,7,12,138,13,,,,,,,,,,,,,,,,,,,,,,,,main,1,1,2,positive,neutral,k,k,1,0.7372544999998354,394.16461340000023,395.17457430000013,395.1550395000004,None,394.16461340000023,None,394.16461340000023,None,394.16461340000023,None,395.8853387600003,None,395.8853387600003,None,395.8853387600003,None,,,,,,,,,,,229,24,Male,2022-06-03_14h21.21.764,Main,2022.1.1,60.119385074802935,
positive,positive,2,l,j,,,,,,,,,7,13,139,11,,,,,,,,,,,,,,,,,,,,,,,,main,2,2,2,positive,positive,j,j,1,0.806818900000053,395.92694200000005,396.9429027000001,396.88241430000016,None,395.92694200000005,None,395.92694200000005,None,395.92694200000005,None,397.7052366200003,None,397.7052366200003,None,397.7052366200003,None,,,,,,,,,,,229,24,Male,2022-06-03_14h21.21.764,Main,2022.1.1,60.119385074802935,
positive,neutral,2,l,j,,,,,,,,,7,14,140,17,,,,,,,,,,,,,,,,,,,,,,,,main,1,1,2,neutral,positive,j,j,1,0.6873798999999963,397.7204101000002,398.72837210000034,398.70959489999996,None,397.7204101000002,None,397.7204101000002,None,397.7204101000002,None,399.38829486,None,399.38829486,None,399.38829486,None,,,,,,,,,,,229,24,Male,2022-06-03_14h21.21.764,Main,2022.1.1,60.119385074802935,
positive,neutral,1,l,j,,,,,,,,,7,15,141,8,,,,,,,,,,,,,,,,,,,,,,,,main,1,1,1,neutral,positive,j,j,1,0.711715699999786,399.4082249000003,400.42214660000036,400.3826586,None,399.4082249000003,None,399.4082249000003,None,399.4082249000003,None,401.10150166000005,None,401.10150166000005,None,401.10150166000005,None,,,,,,,,,,,229,24,Male,2022-06-03_14h21.21.764,Main,2022.1.1,60.119385074802935,
positive,negative,2,l,j,,,,,,,,,7,16,142,14,,,,,,,,,,,,,,,,,,,,,,,,main,1,1,2,negative,positive,j,j,1,0.6110967999998138,401.12360450000006,402.1380750000003,402.09677580000016,None,401.12360450000006,None,401.12360450000006,None,401.12360450000006,None,402.7162007600001,None,402.7162007600001,None,402.7162007600001,None,,,,,,,,,,,229,24,Male,2022-06-03_14h21.21.764,Main,2022.1.1,60.119385074802935,
negative,negative,1,j,l,,,,,,,,,7,17,143,0,,,,,,,,,,,,,,,,,,,,,,,,main,2,2,1,negative,negative,l,l,1,0.8406540000000859,402.73666679999997,403.74788960000024,403.70962690000033,None,402.73666679999997,None,402.73666679999997,None,402.73666679999997,None,404.55768606000004,None,404.55768606000004,None,404.55768606000004,None,,,,,,,,,,,229,24,Male,2022-06-03_14h21.21.764,Main,2022.1.1,60.119385074802935,
neutral,neutral,2,k,k,,,,,,,,,8,0,144,10,,,,,,,,,,,,,,,,,,,,,,,,main,2,2,2,neutral,neutral,k,k,1,0.726763099999971,404.57979810000006,405.59616210000013,405.55726410000034,None,404.57979810000006,None,404.57979810000006,None,404.57979810000006,None,406.2878269600002,None,406.2878269600002,None,406.2878269600002,None,,,,,,,,,,,229,24,Male,2022-06-03_14h21.21.764,Main,2022.1.1,60.119385074802935,
neutral,negative,2,k,k,,,,,,,,,8,1,145,16,,,,,,,,,,,,,,,,,,,,,,,,main,1,1,2,negative,neutral,k,k,1,0.6226016999999047,406.3075407000001,407.32135590000007,407.28275410000015,None,406.3075407000001,None,406.3075407000001,None,406.3075407000001,None,407.91432666000003,None,407.91432666000003,None,407.91432666000003,None,,,,,,,,,,,229,24,Male,2022-06-03_14h21.21.764,Main,2022.1.1,60.119385074802935,
neutral,positive,1,k,k,,,,,,,,,8,2,146,4,,,,,,,,,,,,,,,,,,,,,,,,main,2,2,1,positive,neutral,k,k,1,0.6498915000001944,407.9350147,408.94315860000006,408.92391510000016,None,407.9350147,None,407.9350147,None,407.9350147,None,409.56621916000006,None,409.56621916000006,None,409.56621916000006,None,,,,,,,,,,,229,24,Male,2022-06-03_14h21.21.764,Main,2022.1.1,60.119385074802935,
negative,negative,1,j,l,,,,,,,,,8,3,147,0,,,,,,,,,,,,,,,,,,,,,,,,main,1,1,1,negative,negative,l,l,1,0.7108109999999215,409.58947920000037,410.5963978,410.57644930000015,None,409.58947920000037,None,409.58947920000037,None,409.58947920000037,None,411.2832134600004,None,411.2832134600004,None,411.2832134600004,None,,,,,,,,,,,229,24,Male,2022-06-03_14h21.21.764,Main,2022.1.1,60.119385074802935,
positive,negative,2,l,j,,,,,,,,,8,4,148,14,,,,,,,,,,,,,,,,,,,,,,,,main,1,1,2,negative,positive,j,j,1,0.7908793999999943,411.30361710000034,412.31914340000003,412.2818868000004,None,411.30361710000034,None,411.30361710000034,None,411.30361710000034,None,413.07804376000024,None,413.07804376000024,None,413.07804376000024,None,,,,,,,,,,,229,24,Male,2022-06-03_14h21.21.764,Main,2022.1.1,60.119385074802935,
positive,neutral,2,l,j,,,,,,,,,8,5,149,17,,,,,,,,,,,,,,,,,,,,,,,,main,1,1,2,neutral,positive,j,j,1,0.6079185000003235,413.0985974,414.1089803,414.09012610000036,None,413.0985974,None,413.0985974,None,413.0985974,None,414.6871647600002,None,414.6871647600002,None,414.6871647600002,None,,,,,,,,,,,229,24,Male,2022-06-03_14h21.21.764,Main,2022.1.1,60.119385074802935,
positive,positive,1,l,j,,,,,,,,,8,6,150,2,,,,,,,,,,,,,,,,,,,,,,,,main,2,2,1,positive,positive,j,j,1,0.8469028999998045,414.70858850000013,415.72204420000025,415.68426530000033,None,414.70858850000013,None,414.70858850000013,None,414.70858850000013,None,416.53661926000007,None,416.53661926000007,None,416.53661926000007,None,,,,,,,,,,,229,24,Male,2022-06-03_14h21.21.764,Main,2022.1.1,60.119385074802935,
negative,neutral,1,j,l,,,,,,,,,8,7,151,3,,,,,,,,,,,,,,,,,,,,,,,,main,2,2,1,neutral,negative,l,l,1,0.7106721000000107,416.55688550000013,417.5710174000001,417.53390979999995,None,416.55688550000013,None,416.55688550000013,None,416.55688550000013,None,418.2503221600001,None,418.2503221600001,None,418.2503221600001,None,,,,,,,,,,,229,24,Male,2022-06-03_14h21.21.764,Main,2022.1.1,60.119385074802935,
neutral,neutral,1,k,k,,,,,,,,,8,8,152,1,,,,,,,,,,,,,,,,,,,,,,,,main,2,2,1,neutral,neutral,k,k,1,0.7677929000001313,418.27046180000025,419.2897645000003,419.2511650000001,None,418.27046180000025,None,418.27046180000025,None,418.27046180000025,None,420.02131316,None,420.02131316,None,420.02131316,None,,,,,,,,,,,229,24,Male,2022-06-03_14h21.21.764,Main,2022.1.1,60.119385074802935,
negative,neutral,2,j,l,,,,,,,,,8,9,153,12,,,,,,,,,,,,,,,,,,,,,,,,main,1,1,2,neutral,negative,l,l,1,0.746458900000107,420.0420686000002,421.05508260000033,421.01679950000016,None,420.0420686000002,None,420.0420686000002,None,420.0420686000002,None,421.76938015999997,None,421.76938015999997,None,421.76938015999997,None,,,,,,,,,,,229,24,Male,2022-06-03_14h21.21.764,Main,2022.1.1,60.119385074802935,
positive,negative,1,l,j,,,,,,,,,8,10,154,5,,,,,,,,,,,,,,,,,,,,,,,,main,2,2,1,negative,positive,j,j,1,0.884708099999898,421.7917714,422.7948134000003,422.7753651000003,None,421.7917714,None,421.7917714,None,421.7917714,None,423.65748096000027,None,423.65748096000027,None,423.65748096000027,None,,,,,,,,,,,229,24,Male,2022-06-03_14h21.21.764,Main,2022.1.1,60.119385074802935,
neutral,negative,1,k,k,,,,,,,,,8,11,155,7,,,,,,,,,,,,,,,,,,,,,,,,main,2,2,1,negative,neutral,k,k,1,0.725684700000329,423.67816660000017,424.6877746,424.6690384000003,None,423.67816660000017,None,423.67816660000017,None,423.67816660000017,None,425.38430506,None,425.38430506,None,425.38430506,None,,,,,,,,,,,229,24,Male,2022-06-03_14h21.21.764,Main,2022.1.1,60.119385074802935,
negative,positive,2,j,l,,,,,,,,,8,12,156,15,,,,,,,,,,,,,,,,,,,,,,,,main,2,2,2,positive,negative,l,l,1,0.7269796999999016,425.40739040000017,426.4114781000003,426.3918904000002,None,425.40739040000017,None,425.40739040000017,None,425.40739040000017,None,427.1148209600002,None,427.1148209600002,None,427.1148209600002,None,,,,,,,,,,,229,24,Male,2022-06-03_14h21.21.764,Main,2022.1.1,60.119385074802935,
negative,negative,2,j,l,,,,,,,,,8,13,157,9,,,,,,,,,,,,,,,,,,,,,,,,main,2,2,2,negative,negative,l,l,1,0.6843311000002359,427.1349070000001,428.14519940000037,428.1250215,None,427.1349070000001,None,427.1349070000001,None,427.1349070000001,None,428.8032729600001,None,428.8032729600001,None,428.8032729600001,None,,,,,,,,,,,229,24,Male,2022-06-03_14h21.21.764,Main,2022.1.1,60.119385074802935,
positive,neutral,1,l,j,,,,,,,,,8,14,158,8,,,,,,,,,,,,,,,,,,,,,,,,main,2,2,1,neutral,positive,j,j,1,0.7201104999999188,428.8237402,429.83076260000007,429.8122069000001,None,428.8237402,None,428.8237402,None,428.8237402,None,430.52618396000037,None,430.52618396000037,None,430.52618396000037,None,,,,,,,,,,,229,24,Male,2022-06-03_14h21.21.764,Main,2022.1.1,60.119385074802935,
negative,positive,1,j,l,,,,,,,,,8,15,159,6,,,,,,,,,,,,,,,,,,,,,,,,main,2,2,1,positive,negative,l,l,1,0.6719121999999516,430.54711910000015,431.5652207000003,431.5267732000002,None,430.54711910000015,None,430.54711910000015,None,430.54711910000015,None,432.1973451600003,None,432.1973451600003,None,432.1973451600003,None,,,,,,,,,,,229,24,Male,2022-06-03_14h21.21.764,Main,2022.1.1,60.119385074802935,
positive,positive,2,l,j,,,,,,,,,8,16,160,11,,,,,,,,,,,,,,,,,,,,,,,,main,1,1,2,positive,positive,j,j,1,0.6841749000000164,432.2206390000001,433.24175030000015,433.2014416000002,None,432.2206390000001,None,432.2206390000001,None,432.2206390000001,None,433.88885526000024,None,433.88885526000024,None,433.88885526000024,None,,,,,,,,,,,229,24,Male,2022-06-03_14h21.21.764,Main,2022.1.1,60.119385074802935,
neutral,positive,2,k,k,,,,,,,,,8,17,161,13,,,,,,,,,,,,,,,,,,,,,,,,main,2,2,2,positive,neutral,k,k,1,0.7696376000003511,433.91033940000034,434.9304852,434.89239620000035,None,433.91033940000034,None,433.91033940000034,None,433.91033940000034,None,435.6617128600002,None,435.6617128600002,None,435.6617128600002,None,,,,,,,,,,,229,24,Male,2022-06-03_14h21.21.764,Main,2022.1.1,60.119385074802935,
positive,negative,2,l,j,,,,,,,,,9,0,162,14,,,,,,,,,,,,,,,,,,,,,,,,main,1,1,2,negative,positive,j,j,1,1.0112220000000889,435.6822999000001,436.6884162000001,436.66883989999997,None,435.6822999000001,None,435.6822999000001,None,435.6822999000001,None,437.6756361600002,None,437.6756361600002,None,437.6756361600002,None,,,,,,,,,,,229,24,Male,2022-06-03_14h21.21.764,Main,2022.1.1,60.119385074802935,
positive,positive,1,l,j,,,,,,,,,9,1,163,2,,,,,,,,,,,,,,,,,,,,,,,,main,2,2,1,positive,positive,j,j,1,0.7186237999999321,437.69705790000035,438.6995826000002,438.6811452000002,None,437.69705790000035,None,437.69705790000035,None,437.69705790000035,None,439.3960249600001,None,439.3960249600001,None,439.3960249600001,None,,,,,,,,,,,229,24,Male,2022-06-03_14h21.21.764,Main,2022.1.1,60.119385074802935,
positive,positive,2,l,j,,,,,,,,,9,2,164,11,,,,,,,,,,,,,,,,,,,,,,,,main,1,1,2,positive,positive,j,j,1,0.6918912000001001,439.4177504000004,440.4321538000004,440.3945288,None,439.4177504000004,None,439.4177504000004,None,439.4177504000004,None,441.09201896000025,None,441.09201896000025,None,441.09201896000025,None,,,,,,,,,,,229,24,Male,2022-06-03_14h21.21.764,Main,2022.1.1,60.119385074802935,
positive,neutral,1,l,j,,,,,,,,,9,3,165,8,,,,,,,,,,,,,,,,,,,,,,,,main,2,2,1,neutral,positive,j,j,1,0.611478299999817,441.1148307000003,442.1222236000003,442.1023180000002,None,441.1148307000003,None,441.1148307000003,None,441.1148307000003,None,442.7050590600003,None,442.7050590600003,None,442.7050590600003,None,,,,,,,,,,,229,24,Male,2022-06-03_14h21.21.764,Main,2022.1.1,60.119385074802935,
negative,positive,2,j,l,,,,,,,,,9,4,166,15,,,,,,,,,,,,,,,,,,,,,,,,main,2,2,2,positive,negative,l,l,1,0.7449022999999215,442.72578380000004,443.7276033000003,443.70855470000015,None,442.72578380000004,None,442.72578380000004,None,442.72578380000004,None,444.45360386000004,None,444.45360386000004,None,444.45360386000004,None,,,,,,,,,,,229,24,Male,2022-06-03_14h21.21.764,Main,2022.1.1,60.119385074802935,
neutral,positive,1,k,k,,,,,,,,,9,5,167,4,,,,,,,,,,,,,,,,,,,,,,,,main,2,2,1,positive,neutral,k,k,1,1.0191752999999153,444.4741957000001,445.4946172,445.45472910000035,None,444.4741957000001,None,444.4741957000001,None,444.4741957000001,None,446.47543696000014,None,446.47543696000014,None,446.47543696000014,None,,,,,,,,,,,229,24,Male,2022-06-03_14h21.21.764,Main,2022.1.1,60.119385074802935,
positive,neutral,2,l,j,,,,,,,,,9,6,168,17,,,,,,,,,,,,,,,,,,,,,,,,main,1,1,2,neutral,positive,j,j,1,0.8351563000001079,446.4959466,447.5086682000001,447.4697206000001,None,446.4959466,None,446.4959466,None,446.4959466,None,448.3154783600004,None,448.3154783600004,None,448.3154783600004,None,,,,,,,,,,,229,24,Male,2022-06-03_14h21.21.764,Main,2022.1.1,60.119385074802935,
neutral,positive,2,k,k,,,,,,,,,9,7,169,13,,,,,,,,,,,,,,,,,,,,,,,,main,2,2,2,positive,neutral,k,k,1,0.7688925999996172,448.33610799999997,449.36472700000013,449.31710550000025,None,448.33610799999997,None,448.33610799999997,None,448.33610799999997,None,450.0854112600001,None,450.0854112600001,None,450.0854112600001,None,,,,,,,,,,,229,24,Male,2022-06-03_14h21.21.764,Main,2022.1.1,60.119385074802935,
negative,neutral,2,j,l,,,,,,,,,9,8,170,12,,,,,,,,,,,,,,,,,,,,,,,,main,1,1,2,neutral,negative,l,l,1,0.8053569999997308,450.10640420000027,451.1125783000002,451.09276950000003,None,450.10640420000027,None,450.10640420000027,None,450.10640420000027,None,451.90230492000023,None,451.90230492000023,None,451.90230492000023,None,,,,,,,,,,,229,24,Male,2022-06-03_14h21.21.764,Main,2022.1.1,60.119385074802935,
negative,positive,1,j,l,,,,,,,,,9,9,171,6,,,,,,,,,,,,,,,,,,,,,,,,main,2,2,1,positive,negative,l,l,1,0.6887532999999166,451.9210602000003,452.93888590000006,452.9016867,None,451.9210602000003,None,451.9210602000003,None,451.9210602000003,None,453.58545386000026,None,453.58545386000026,None,453.58545386000026,None,,,,,,,,,,,229,24,Male,2022-06-03_14h21.21.764,Main,2022.1.1,60.119385074802935,
neutral,negative,1,k,k,,,,,,,,,9,10,172,7,,,,,,,,,,,,,,,,,,,,,,,,main,2,2,1,negative,neutral,k,k,1,0.7557459999998173,453.60729900000024,454.61364189999995,454.5940453000003,None,453.60729900000024,None,453.60729900000024,None,453.60729900000024,None,455.34629296000014,None,455.34629296000014,None,455.34629296000014,None,,,,,,,,,,,229,24,Male,2022-06-03_14h21.21.764,Main,2022.1.1,60.119385074802935,
positive,negative,1,l,j,,,,,,,,,9,11,173,5,,,,,,,,,,,,,,,,,,,,,,,,main,1,1,1,negative,positive,j,j,1,0.7024412999999186,455.36661860000004,456.3827179,456.3400213,None,455.36661860000004,None,455.36661860000004,None,455.36661860000004,None,457.05025076000004,None,457.05025076000004,None,457.05025076000004,None,,,,,,,,,,,229,24,Male,2022-06-03_14h21.21.764,Main,2022.1.1,60.119385074802935,
negative,neutral,1,j,l,,,,,,,,,9,12,174,3,,,,,,,,,,,,,,,,,,,,,,,,main,2,2,1,neutral,negative,l,l,1,0.7862410000002455,457.07098829999995,458.08864140000014,458.06690320000007,None,457.07098829999995,None,457.07098829999995,None,457.07098829999995,None,458.8406167600002,None,458.8406167600002,None,458.8406167600002,None,,,,,,,,,,,229,24,Male,2022-06-03_14h21.21.764,Main,2022.1.1,60.119385074802935,
negative,negative,2,j,l,,,,,,,,,9,13,175,9,,,,,,,,,,,,,,,,,,,,,,,,main,1,1,2,negative,negative,l,l,1,0.7129815000002964,458.8608081000002,459.87642410000035,459.8369947000001,None,458.8608081000002,None,458.8608081000002,None,458.8608081000002,None,460.5532967600003,None,460.5532967600003,None,460.5532967600003,None,,,,,,,,,,,229,24,Male,2022-06-03_14h21.21.764,Main,2022.1.1,60.119385074802935,
neutral,neutral,2,k,k,,,,,,,,,9,14,176,10,,,,,,,,,,,,,,,,,,,,,,,,main,1,1,2,neutral,neutral,k,k,1,0.7473602000000028,460.57510360000015,461.5938793,461.55420950000007,None,460.57510360000015,None,460.57510360000015,None,460.57510360000015,None,462.3059050600001,None,462.3059050600001,None,462.3059050600001,None,,,,,,,,,,,229,24,Male,2022-06-03_14h21.21.764,Main,2022.1.1,60.119385074802935,
negative,negative,1,j,l,,,,,,,,,9,15,177,0,,,,,,,,,,,,,,,,,,,,,,,,main,1,1,1,negative,negative,l,l,1,0.7448574000000008,462.3285087000004,463.35031019999997,463.3018573000004,None,462.3285087000004,None,462.3285087000004,None,462.3285087000004,None,464.05372696000006,None,464.05372696000006,None,464.05372696000006,None,,,,,,,,,,,229,24,Male,2022-06-03_14h21.21.764,Main,2022.1.1,60.119385074802935,
neutral,negative,2,k,k,,,,,,,,,9,16,178,16,,,,,,,,,,,,,,,,,,,,,,,,main,2,2,2,negative,neutral,k,k,1,0.7088661000002503,464.0736393000002,465.09011180000016,465.0514497000004,None,464.0736393000002,None,464.0736393000002,None,464.0736393000002,None,465.76371286000006,None,465.76371286000006,None,465.76371286000006,None,,,,,,,,,,,229,24,Male,2022-06-03_14h21.21.764,Main,2022.1.1,60.119385074802935,
neutral,neutral,1,k,k,,,,,,,,,9,17,179,1,,,,,,,,,,,,,,,,,,,,,,,,main,2,2,1,neutral,neutral,k,k,1,0.6779210999998213,465.78480370000034,466.8051349000002,466.76660949999996,None,465.78480370000034,None,465.78480370000034,None,465.78480370000034,None,467.4444472600004,None,467.4444472600004,None,467.4444472600004,None,,,,,,,,,,,229,24,Male,2022-06-03_14h21.21.764,Main,2022.1.1,60.119385074802935,
positive,neutral,1,l,j,,,,,,,,,10,0,180,8,,,,,,,,,,,,,,,,,,,,,,,,main,1,1,1,neutral,positive,j,j,1,0.9473290000000816,467.46439009999995,468.47344120000025,468.4536932000001,None,467.46439009999995,None,467.46439009999995,None,467.46439009999995,None,469.39266406000036,None,469.39266406000036,None,469.39266406000036,None,,,,,,,,,,,229,24,Male,2022-06-03_14h21.21.764,Main,2022.1.1,60.119385074802935,
positive,negative,1,l,j,,,,,,,,,10,1,181,5,,,,,,,,,,,,,,,,,,,,,,,,main,1,1,1,negative,positive,j,j,1,0.6710199999997712,469.4172190000004,470.43054340000026,470.3932539000002,None,469.4172190000004,None,469.4172190000004,None,469.4172190000004,None,471.0700549600002,None,471.0700549600002,None,471.0700549600002,None,,,,,,,,,,,229,24,Male,2022-06-03_14h21.21.764,Main,2022.1.1,60.119385074802935,
positive,negative,2,l,j,,,,,,,,,10,2,182,14,,,,,,,,,,,,,,,,,,,,,,,,main,2,2,2,negative,positive,j,j,1,0.6548023000000285,471.08976900000016,472.1018107,472.0733809000003,None,471.08976900000016,None,471.08976900000016,None,471.08976900000016,None,472.7263251599999,None,472.7263251599999,None,472.7263251599999,None,,,,,,,,,,,229,24,Male,2022-06-03_14h21.21.764,Main,2022.1.1,60.119385074802935,
positive,neutral,2,l,j,,,,,,,,,10,3,183,17,,,,,,,,,,,,,,,,,,,,,,,,main,2,2,2,neutral,positive,j,j,1,0.6986866999995982,472.7482428000003,473.7656414000003,473.72872430000007,None,472.7482428000003,None,472.7482428000003,None,472.7482428000003,None,474.4277027600002,None,474.4277027600002,None,474.4277027600002,None,,,,,,,,,,,229,24,Male,2022-06-03_14h21.21.764,Main,2022.1.1,60.119385074802935,
neutral,neutral,1,k,k,,,,,,,,,10,4,184,1,,,,,,,,,,,,,,,,,,,,,,,,main,1,1,1,neutral,neutral,k,k,1,0.7593107000002419,474.4495971000006,475.45366639999975,475.4333618999999,None,474.4495971000006,None,474.4495971000006,None,474.4495971000006,None,476.1900107600005,None,476.1900107600005,None,476.1900107600005,None,,,,,,,,,,,229,24,Male,2022-06-03_14h21.21.764,Main,2022.1.1,60.119385074802935,
neutral,neutral,2,k,k,,,,,,,,,10,5,185,10,,,,,,,,,,,,,,,,,,,,,,,,main,2,2,2,neutral,neutral,k,k,1,0.7051007000000027,476.20999200000006,477.2273752000001,477.1897144000004,None,476.20999200000006,None,476.20999200000006,None,476.20999200000006,None,477.8985050600005,None,477.8985050600005,None,477.8985050600005,None,,,,,,,,,,,229,24,Male,2022-06-03_14h21.21.764,Main,2022.1.1,60.119385074802935,
negative,neutral,2,j,l,,,,,,,,,10,6,186,12,,,,,,,,,,,,,,,,,,,,,,,,main,1,1,2,neutral,negative,l,l,1,0.6920266999995874,477.9180664000005,478.9388991000005,478.89992429999984,None,477.9180664000005,None,477.9180664000005,None,477.9180664000005,None,479.5917783599999,None,479.5917783599999,None,479.5917783599999,None,,,,,,,,,,,229,24,Male,2022-06-03_14h21.21.764,Main,2022.1.1,60.119385074802935,
neutral,negative,1,k,k,,,,,,,,,10,7,187,7,,,,,,,,,,,,,,,,,,,,,,,,main,1,1,1,negative,neutral,k,k,1,0.7314799000005223,479.61217880000004,480.62026779999997,480.60110669999995,None,479.61217880000004,None,479.61217880000004,None,479.61217880000004,None,481.33639272000005,None,481.33639272000005,None,481.33639272000005,None,,,,,,,,,,,229,24,Male,2022-06-03_14h21.21.764,Main,2022.1.1,60.119385074802935,
negative,neutral,1,j,l,,,,,,,,,10,8,188,3,,,,,,,,,,,,,,,,,,,,,,,,main,1,1,1,neutral,negative,l,l,1,0.7284378999993351,481.3467394999998,482.3619797000001,482.3433879000004,None,481.3467394999998,None,481.3467394999998,None,481.3467394999998,None,483.05716576000043,None,483.05716576000043,None,483.05716576000043,None,,,,,,,,,,,229,24,Male,2022-06-03_14h21.21.764,Main,2022.1.1,60.119385074802935,
positive,positive,2,l,j,,,,,,,,,10,9,189,11,,,,,,,,,,,,,,,,,,,,,,,,main,1,1,2,positive,positive,j,j,1,0.7928709000007075,483.07773629999974,484.08286279999993,484.0633464000002,None,483.07773629999974,None,483.07773629999974,None,483.07773629999974,None,484.86113472000056,None,484.86113472000056,None,484.86113472000056,None,,,,,,,,,,,229,24,Male,2022-06-03_14h21.21.764,Main,2022.1.1,60.119385074802935,
negative,positive,2,j,l,,,,,,,,,10,10,190,15,,,,,,,,,,,,,,,,,,,,,,,,main,2,2,2,positive,negative,l,l,1,0.7435616999991908,484.88443520000055,485.9020602999999,485.8630592999998,None,484.88443520000055,None,484.88443520000055,None,484.88443520000055,None,486.6015801599998,None,486.6015801599998,None,486.6015801599998,None,,,,,,,,,,,229,24,Male,2022-06-03_14h21.21.764,Main,2022.1.1,60.119385074802935,
neutral,negative,2,k,k,,,,,,,,,10,11,191,16,,,,,,,,,,,,,,,,,,,,,,,,main,2,2,2,negative,neutral,k,k,1,0.7482105999997657,486.6245527000001,487.62862099999984,487.60918589999983,None,486.6245527000001,None,486.6245527000001,None,486.6245527000001,None,488.35102456000016,None,488.35102456000016,None,488.35102456000016,None,,,,,,,,,,,229,24,Male,2022-06-03_14h21.21.764,Main,2022.1.1,60.119385074802935,
negative,negative,2,j,l,,,,,,,,,10,12,192,9,,,,,,,,,,,,,,,,,,,,,,,,main,1,1,2,negative,negative,l,l,1,0.8873285999998188,488.3732385000003,489.3782017000003,489.3585356000003,None,488.3732385000003,None,488.3732385000003,None,488.3732385000003,None,490.24428936000015,None,490.24428936000015,None,490.24428936000015,None,,,,,,,,,,,229,24,Male,2022-06-03_14h21.21.764,Main,2022.1.1,60.119385074802935,
neutral,positive,2,k,k,,,,,,,,,10,13,193,13,,,,,,,,,,,,,,,,,,,,,,,,main,2,2,2,positive,neutral,k,k,1,0.7179930000002059,490.26567799999975,491.28269640000053,491.2629305999999,None,490.26567799999975,None,490.26567799999975,None,490.26567799999975,None,491.9653571600003,None,491.9653571600003,None,491.9653571600003,None,,,,,,,,,,,229,24,Male,2022-06-03_14h21.21.764,Main,2022.1.1,60.119385074802935,
negative,positive,1,j,l,,,,,,,,,10,14,194,6,,,,,,,,,,,,,,,,,,,,,,,,main,2,2,1,positive,negative,l,l,1,0.8536641999999119,491.9860653000005,492.99937969999974,492.95957420000013,None,491.9860653000005,None,491.9860653000005,None,491.9860653000005,None,493.82004496,None,493.82004496,None,493.82004496,None,,,,,,,,,,,229,24,Male,2022-06-03_14h21.21.764,Main,2022.1.1,60.119385074802935,
neutral,positive,1,k,k,,,,,,,,,10,15,195,4,,,,,,,,,,,,,,,,,,,,,,,,main,1,1,1,positive,neutral,k,k,1,0.6989629999998215,493.8418259,494.8476390000005,494.82713090000016,None,493.8418259,None,493.8418259,None,493.8418259,None,495.52188346000014,None,495.52188346000014,None,495.52188346000014,None,,,,,,,,,,,229,24,Male,2022-06-03_14h21.21.764,Main,2022.1.1,60.119385074802935,
positive,positive,1,l,j,,,,,,,,,10,16,196,2,,,,,,,,,,,,,,,,,,,,,,,,main,1,1,1,positive,positive,j,j,1,0.7809244999998555,495.5445453000002,496.5498081000005,496.53087380000034,None,495.5445453000002,None,495.5445453000002,None,495.5445453000002,None,497.3080761600005,None,497.3080761600005,None,497.3080761600005,None,,,,,,,,,,,229,24,Male,2022-06-03_14h21.21.764,Main,2022.1.1,60.119385074802935,
negative,negative,1,j,l,,,,,,,,,10,17,197,0,,,,,,,,,,,,,,,,,,,,,,,,main,1,1,1,negative,negative,l,l,1,0.6816195000001244,497.3280440999997,498.3425545,498.30311489999985,None,497.3280440999997,None,497.3280440999997,None,497.3280440999997,None,498.9916400600006,None,498.9916400600006,None,498.9916400600006,None,,,,,,,,,,,229,24,Male,2022-06-03_14h21.21.764,Main,2022.1.1,60.119385074802935,
neutral,positive,2,k,k,,,,,,,,,11,0,198,13,,,,,,,,,,,,,,,,,,,,,,,,main,1,1,2,positive,neutral,k,k,1,0.6902075999996669,499.0120136000005,500.0264569000001,499.98671100000047,None,499.0120136000005,None,499.0120136000005,None,499.0120136000005,None,500.6834335599998,None,500.6834335599998,None,500.6834335599998,None,,,,,,,,,,,229,24,Male,2022-06-03_14h21.21.764,Main,2022.1.1,60.119385074802935,
negative,negative,2,j,l,,,,,,,,,11,1,199,9,,,,,,,,,,,,,,,,,,,,,,,,main,2,2,2,negative,negative,l,l,1,0.7883189000003767,500.7060994000003,501.72537490000013,501.6767968000004,None,500.7060994000003,None,500.7060994000003,None,500.7060994000003,None,502.4761293600005,None,502.4761293600005,None,502.4761293600005,None,,,,,,,,,,,229,24,Male,2022-06-03_14h21.21.764,Main,2022.1.1,60.119385074802935,
neutral,negative,2,k,k,,,,,,,,,11,2,200,16,,,,,,,,,,,,,,,,,,,,,,,,main,2,2,2,negative,neutral,k,k,1,0.6572370999992927,502.49615129999984,503.52311139999983,503.47525959999984,None,502.49615129999984,None,502.49615129999984,None,502.49615129999984,None,504.13706876000026,None,504.13706876000026,None,504.13706876000026,None,,,,,,,,,,,229,24,Male,2022-06-03_14h21.21.764,Main,2022.1.1,60.119385074802935,
positive,positive,1,l,j,,,,,,,,,11,3,201,2,,,,,,,,,,,,,,,,,,,,,,,,main,2,2,1,positive,positive,j,j,1,0.7432388999995965,504.1570314999999,505.16301010000006,505.1444906000006,None,504.1570314999999,None,504.1570314999999,None,504.1570314999999,None,505.88099376,None,505.88099376,None,505.88099376,None,,,,,,,,,,,229,24,Male,2022-06-03_14h21.21.764,Main,2022.1.1,60.119385074802935,
neutral,neutral,1,k,k,,,,,,,,,11,4,202,1,,,,,,,,,,,,,,,,,,,,,,,,main,1,1,1,neutral,neutral,k,k,1,0.7555382000000463,505.9014197000006,506.91566710000006,506.8766409,None,505.9014197000006,None,505.9014197000006,None,505.9014197000006,None,507.64112615999977,None,507.64112615999977,None,507.64112615999977,None,,,,,,,,,,,229,24,Male,2022-06-03_14h21.21.764,Main,2022.1.1,60.119385074802935,
negative,neutral,2,j,l,,,,,,,,,11,5,203,12,,,,,,,,,,,,,,,,,,,,,,,,main,2,2,2,neutral,negative,l,l,1,0.716502400000536,507.66119119999985,508.6694905000004,508.64965850000044,None,507.66119119999985,None,507.66119119999985,None,507.66119119999985,None,509.3696110200001,None,509.3696110200001,None,509.3696110200001,None,,,,,,,,,,,229,24,Male,2022-06-03_14h21.21.764,Main,2022.1.1,60.119385074802935,
positive,positive,2,l,j,,,,,,,,,11,6,204,11,,,,,,,,,,,,,,,,,,,,,,,,main,1,1,2,positive,positive,j,j,1,1.0992250000008426,509.3824603000003,510.39567590000024,510.37626999999975,None,509.3824603000003,None,509.3824603000003,None,509.3824603000003,None,511.4620912600004,None,511.4620912600004,None,511.4620912600004,None,,,,,,,,,,,229,24,Male,2022-06-03_14h21.21.764,Main,2022.1.1,60.119385074802935,
positive,negative,1,l,j,,,,,,,,,11,7,205,5,,,,,,,,,,,,,,,,,,,,,,,,main,2,2,1,negative,positive,j,j,1,0.7854092999996283,511.48268160000043,512.4920356000002,512.4732844,None,511.48268160000043,None,511.48268160000043,None,511.48268160000043,None,513.2521745599998,None,513.2521745599998,None,513.2521745599998,None,,,,,,,,,,,229,24,Male,2022-06-03_14h21.21.764,Main,2022.1.1,60.119385074802935,
neutral,positive,1,k,k,,,,,,,,,11,8,206,4,,,,,,,,,,,,,,,,,,,,,,,,main,1,1,1,positive,neutral,k,k,1,0.6982340000004115,513.2732831000003,514.2765608999998,514.2575097999998,None,513.2732831000003,None,513.2732831000003,None,513.2732831000003,None,514.9541611599999,None,514.9541611599999,None,514.9541611599999,None,,,,,,,,,,,229,24,Male,2022-06-03_14h21.21.764,Main,2022.1.1,60.119385074802935,
positive,neutral,2,l,j,,,,,,,,,11,9,207,17,,,,,,,,,,,,,,,,,,,,,,,,main,1,1,2,neutral,positive,j,j,1,0.7073920000002545,514.9753150000006,515.9884471000005,515.9491607,None,514.9753150000006,None,514.9753150000006,None,514.9753150000006,None,516.6637360599999,None,516.6637360599999,None,516.6637360599999,None,,,,,,,,,,,229,24,Male,2022-06-03_14h21.21.764,Main,2022.1.1,60.119385074802935,
negative,positive,1,j,l,,,,,,,,,11,10,208,6,,,,,,,,,,,,,,,,,,,,,,,,main,2,2,1,positive,negative,l,l,1,0.5900758000007045,516.6861502000002,517.6892011,517.6708415000003,None,516.6861502000002,None,516.6861502000002,None,516.6861502000002,None,518.2542532600002,None,518.2542532600002,None,518.2542532600002,None,,,,,,,,,,,229,24,Male,2022-06-03_14h21.21.764,Main,2022.1.1,60.119385074802935,
negative,positive,2,j,l,,,,,,,,,11,11,209,15,,,,,,,,,,,,,,,,,,,,,,,,main,2,2,2,positive,negative,l,l,1,0.6061218999993798,518.2770232000003,519.2927454000001,519.2535453,None,518.2770232000003,None,518.2770232000003,None,518.2770232000003,None,519.8662344599999,None,519.8662344599999,None,519.8662344599999,None,,,,,,,,,,,229,24,Male,2022-06-03_14h21.21.764,Main,2022.1.1,60.119385074802935,
positive,negative,2,l,j,,,,,,,,,11,12,210,14,,,,,,,,,,,,,,,,,,,,,,,,main,1,1,2,negative,positive,j,j,1,0.9062481999999363,519.8867326,520.8890246000001,520.8705017000002,None,519.8867326,None,519.8867326,None,519.8867326,None,521.7725917600002,None,521.7725917600002,None,521.7725917600002,None,,,,,,,,,,,229,24,Male,2022-06-03_14h21.21.764,Main,2022.1.1,60.119385074802935,
neutral,negative,1,k,k,,,,,,,,,11,13,211,7,,,,,,,,,,,,,,,,,,,,,,,,main,1,1,1,negative,neutral,k,k,1,0.8256607999992411,521.7942290999999,522.8125122000001,522.7738349000001,None,521.7942290999999,None,521.7942290999999,None,521.7942290999999,None,523.6017242600002,None,523.6017242600002,None,523.6017242600002,None,,,,,,,,,,,229,24,Male,2022-06-03_14h21.21.764,Main,2022.1.1,60.119385074802935,
