target,distractor,set,ans1,ans2,rep_loop2.thisRepN,rep_loop2.thisTrialN,rep_loop2.thisN,rep_loop2.thisIndex,flanker_prac_loop.thisRepN,flanker_prac_loop.thisTrialN,flanker_prac_loop.thisN,flanker_prac_loop.thisIndex,flanker_main_loop.thisRepN,flanker_main_loop.thisTrialN,flanker_main_loop.thisN,flanker_main_loop.thisIndex,fl_inst_resp.keys,mouse.x,mouse.y,mouse.leftButton,mouse.midButton,mouse.rightButton,mouse.started,mouse.stopped,sound_1.started,sound_1.stopped,no_text.started,no_text.stopped,yes_text.started,yes_text.stopped,mouse_2.x,mouse_2.y,mouse_2.leftButton,mouse_2.midButton,mouse_2.rightButton,mouse_2.started,mouse_2.stopped,back_2.started,back_2.stopped,main_prac,fl_cold,fl_colt,fl_set,fl_dcond,fl_tcond,fl_ans,fl_res,fl_corr,fl_rt,fix_fl.started,fix_fl.stopped,targ.started,targ.stopped,j_button.started,j_button.stopped,k_button.started,k_button.stopped,l_button.started,l_button.stopped,j_button2.started,j_button2.stopped,k_button2.started,k_button2.stopped,l_button2.started,l_button2.stopped,mainback.started,mainback.stopped,key_resp.keys,mouse_6.x,mouse_6.y,mouse_6.leftButton,mouse_6.midButton,mouse_6.rightButton,mouse_6.started,mouse_6.stopped,id*,age*,gender*,date,expName,psychopyVersion,frameRate,
,,,,,0,0,0,0,,,,,,,,,None,0.24351852,-0.42962962,0,0,0,1.228076199951829,None,30.278480299999682,None,61.24268740000116,None,61.24268740000116,None,-0.10277778,-0.08055556,0,0,0,0.0017900000002555316,None,,,,,,,,,,,,,,,,,,,,,,,,,,,,,,,,,,,,,,,230,19,Male,2022-06-03_16h24.23.383,Main,2022.1.1,60.015219860149315,
positive,positive,1,l,j,,,,,0,0,0,2,,,,,,,,,,,,,,,,,,,,,,,,,,64.22398310000062,None,prac,1,1,1,positive,positive,l,l,1,2.906226899998728,66.2875425000002,67.29030140000032,67.2708590000002,None,66.2875425000002,None,66.2875425000002,None,66.2875425000002,None,70.19609630000014,None,70.19609630000014,None,70.19609630000014,None,,,,,,,,,,,230,19,Male,2022-06-03_16h24.23.383,Main,2022.1.1,60.015219860149315,
neutral,negative,1,k,k,,,,,0,1,1,7,,,,,,,,,,,,,,,,,,,,,,,,,,,,prac,2,2,1,negative,neutral,k,k,1,1.1325180000003456,71.22773250000137,72.24319810000088,72.2036177000009,None,71.22773250000137,None,71.22773250000137,None,71.22773250000137,None,73.33055500000064,None,73.33055500000064,None,73.33055500000064,None,,,,,,,,,,,230,19,Male,2022-06-03_16h24.23.383,Main,2022.1.1,60.015219860149315,
negative,positive,1,j,l,,,,,0,2,2,6,,,,,,,,,,,,,,,,,,,,,,,,,,,,prac,1,1,1,positive,negative,j,j,1,1.1035232000012911,73.35887449999973,74.37092990000019,74.34299330000067,None,73.35887449999973,None,73.35887449999973,None,73.35887449999973,None,75.43898690000078,None,75.43898690000078,None,75.43898690000078,None,,,,,,,,,,,230,19,Male,2022-06-03_16h24.23.383,Main,2022.1.1,60.015219860149315,
negative,neutral,1,j,l,,,,,0,3,3,3,,,,,,,,,,,,,,,,,,,,,,,,,,,,prac,2,2,1,neutral,negative,j,l,0,1.3079964999997173,75.4640083000013,76.48736890000146,76.44632840000122,None,75.4640083000013,None,75.4640083000013,None,75.4640083000013,None,77.76460020000013,None,77.76460020000013,None,77.76460020000013,None,,,,,,,,,,,230,19,Male,2022-06-03_16h24.23.383,Main,2022.1.1,60.015219860149315,
positive,negative,1,l,j,,,,,0,4,4,5,,,,,,,,,,,,,,,,,,,,,,,,,,,,prac,2,2,1,negative,positive,l,l,1,0.9330749000000651,78.78917770000044,79.80355510000118,79.76533949999975,None,78.78917770000044,None,78.78917770000044,None,78.78917770000044,None,80.69683590000041,None,80.69683590000041,None,80.69683590000041,None,,,,,,,,,,,230,19,Male,2022-06-03_16h24.23.383,Main,2022.1.1,60.015219860149315,
positive,negative,2,l,j,,,,,0,5,5,14,,,,,,,,,,,,,,,,,,,,,,,,,,,,prac,2,2,2,negative,positive,l,l,1,1.0393614000004163,80.72567280000112,81.74158250000073,81.7218456999999,None,80.72567280000112,None,80.72567280000112,None,80.72567280000112,None,82.74016070000125,None,82.74016070000125,None,82.74016070000125,None,,,,,,,,,,,230,19,Male,2022-06-03_16h24.23.383,Main,2022.1.1,60.015219860149315,
positive,neutral,1,l,j,,,,,0,6,6,8,,,,,,,,,,,,,,,,,,,,,,,,,,,,prac,1,1,1,neutral,positive,l,l,1,1.2408298000009381,82.76675860000068,83.78634740000052,83.74727760000133,None,82.76675860000068,None,82.76675860000068,None,82.76675860000068,None,84.98119760000027,None,84.98119760000027,None,84.98119760000027,None,,,,,,,,,,,230,19,Male,2022-06-03_16h24.23.383,Main,2022.1.1,60.015219860149315,
neutral,positive,1,k,k,,,,,0,7,7,4,,,,,,,,,,,,,,,,,,,,,,,,,,,,prac,2,2,1,positive,neutral,k,k,1,0.8121771999994962,85.00880030000008,86.01294290000078,85.99406140000065,None,85.00880030000008,None,85.00880030000008,None,85.00880030000008,None,86.79597210000084,None,86.79597210000084,None,86.79597210000084,None,,,,,,,,,,,230,19,Male,2022-06-03_16h24.23.383,Main,2022.1.1,60.015219860149315,
positive,positive,2,l,j,,,,,0,8,8,11,,,,,,,,,,,,,,,,,,,,,,,,,,,,prac,1,1,2,positive,positive,l,l,1,0.8620355000002746,86.82404580000002,87.84356740000112,87.82428570000047,None,86.82404580000002,None,86.82404580000002,None,86.82404580000002,None,88.65855940000093,None,88.65855940000093,None,88.65855940000093,None,,,,,,,,,,,230,19,Male,2022-06-03_16h24.23.383,Main,2022.1.1,60.015219860149315,
negative,negative,2,j,l,,,,,0,9,9,9,,,,,,,,,,,,,,,,,,,,,,,,,,,,prac,2,2,2,negative,negative,j,j,1,0.8512933000001794,88.67994870000075,89.69978360000096,89.66150290000041,None,88.67994870000075,None,88.67994870000075,None,88.67994870000075,None,90.51360310000037,None,90.51360310000037,None,90.51360310000037,None,,,,,,,,,,,230,19,Male,2022-06-03_16h24.23.383,Main,2022.1.1,60.015219860149315,
neutral,negative,2,k,k,,,,,0,10,10,16,,,,,,,,,,,,,,,,,,,,,,,,,,,,prac,2,2,2,negative,neutral,k,k,1,0.8576565999992454,90.54324600000109,91.56333489999997,91.52486250000038,None,90.54324600000109,None,90.54324600000109,None,90.54324600000109,None,92.37522110000118,None,92.37522110000118,None,92.37522110000118,None,,,,,,,,,,,230,19,Male,2022-06-03_16h24.23.383,Main,2022.1.1,60.015219860149315,
negative,negative,1,j,l,,,,,0,11,11,0,,,,,,,,,,,,,,,,,,,,,,,,,,,,prac,2,2,1,negative,negative,j,j,1,1.408927999998923,92.3951902000008,93.3990044000002,93.38000040000043,None,92.3951902000008,None,92.3951902000008,None,92.3951902000008,None,94.78764480000082,None,94.78764480000082,None,94.78764480000082,None,,,,,,,,,,,230,19,Male,2022-06-03_16h24.23.383,Main,2022.1.1,60.015219860149315,
neutral,neutral,1,k,k,,,,,0,12,12,1,,,,,,,,,,,,,,,,,,,,,,,,,,,,prac,2,2,1,neutral,neutral,k,k,1,0.9046405000008235,94.8099312000013,95.81670400000075,95.78050330000042,None,94.8099312000013,None,94.8099312000013,None,94.8099312000013,None,96.69241900000107,None,96.69241900000107,None,96.69241900000107,None,,,,,,,,,,,230,19,Male,2022-06-03_16h24.23.383,Main,2022.1.1,60.015219860149315,
negative,neutral,2,j,l,,,,,0,13,13,12,,,,,,,,,,,,,,,,,,,,,,,,,,,,prac,2,2,2,neutral,negative,j,j,1,1.4346485999994911,96.72025320000103,97.73600249999981,97.71598129999984,None,96.72025320000103,None,96.72025320000103,None,96.72025320000103,None,99.12937200000142,None,99.12937200000142,None,99.12937200000142,None,,,,,,,,,,,230,19,Male,2022-06-03_16h24.23.383,Main,2022.1.1,60.015219860149315,
positive,neutral,2,l,j,,,,,0,14,14,17,,,,,,,,,,,,,,,,,,,,,,,,,,,,prac,2,2,2,neutral,positive,l,l,1,0.861969699999463,99.14974940000138,100.16748890000054,100.1396464999998,None,99.14974940000138,None,99.14974940000138,None,99.14974940000138,None,100.9938409999997,None,100.9938409999997,None,100.9938409999997,None,,,,,,,,,,,230,19,Male,2022-06-03_16h24.23.383,Main,2022.1.1,60.015219860149315,
negative,positive,2,j,l,,,,,0,15,15,15,,,,,,,,,,,,,,,,,,,,,,,,,,,,prac,1,1,2,positive,negative,j,k,0,1.1155849000006128,101.02129330000025,102.0306313000001,102.01100750000114,None,101.02129330000025,None,101.02129330000025,None,101.02129330000025,None,103.11720390000119,None,103.11720390000119,None,103.11720390000119,None,,,,,,,,,,,230,19,Male,2022-06-03_16h24.23.383,Main,2022.1.1,60.015219860149315,
neutral,neutral,2,k,k,,,,,0,16,16,10,,,,,,,,,,,,,,,,,,,,,,,,,,,,prac,1,1,2,neutral,neutral,k,k,1,0.8574867000006634,104.14121700000032,105.15760420000151,105.1190002000003,None,104.14121700000032,None,104.14121700000032,None,104.14121700000032,None,105.9697087000006,None,105.9697087000006,None,105.9697087000006,None,,,,,,,,,,,230,19,Male,2022-06-03_16h24.23.383,Main,2022.1.1,60.015219860149315,
neutral,positive,2,k,k,,,,,0,17,17,13,,,,,,,,,,,,,,,,,,,,,,,,,,,,prac,1,1,2,positive,neutral,k,k,1,0.8606039000005694,105.98972289999983,106.9984682000013,106.97907680000026,None,105.98972289999983,None,105.98972289999983,None,105.98972289999983,None,107.8328481999999,None,107.8328481999999,None,107.8328481999999,None,,,,,,,,,,,230,19,Male,2022-06-03_16h24.23.383,Main,2022.1.1,60.015219860149315,
neutral,positive,2,k,k,,,,,1,0,18,13,,,,,,,,,,,,,,,,,,,,,,,,,,,,prac,2,2,2,positive,neutral,k,k,1,0.7424473999999464,107.85925390000011,108.87432220000119,108.85510820000127,None,107.85925390000011,None,107.85925390000011,None,107.85925390000011,None,109.57574980000045,None,109.57574980000045,None,109.57574980000045,None,,,,,,,,,,,230,19,Male,2022-06-03_16h24.23.383,Main,2022.1.1,60.015219860149315,
negative,neutral,1,j,l,,,,,1,1,19,3,,,,,,,,,,,,,,,,,,,,,,,,,,,,prac,2,2,1,neutral,negative,j,j,1,1.5171813999986625,109.5973243999997,110.59836320000068,110.58123690000139,None,109.5973243999997,None,109.5973243999997,None,109.5973243999997,None,112.10105720000138,None,112.10105720000138,None,112.10105720000138,None,,,,,,,,,,,230,19,Male,2022-06-03_16h24.23.383,Main,2022.1.1,60.015219860149315,
negative,positive,1,j,l,,,,,1,2,20,6,,,,,,,,,,,,,,,,,,,,,,,,,,,,prac,1,1,1,positive,negative,j,j,1,0.9038026999987778,113.11268180000116,114.12368470000001,114.10420650000015,None,113.11268180000116,None,113.11268180000116,None,113.11268180000116,None,114.99650649999985,None,114.99650649999985,None,114.99650649999985,None,,,,,,,,,,,230,19,Male,2022-06-03_16h24.23.383,Main,2022.1.1,60.015219860149315,
neutral,neutral,1,k,k,,,,,1,3,21,1,,,,,,,,,,,,,,,,,,,,,,,,,,,,prac,1,1,1,neutral,neutral,k,k,1,0.7430292999997619,115.0171046000014,116.02923440000086,115.99092390000078,None,115.0171046000014,None,115.0171046000014,None,115.0171046000014,None,116.74179490000115,None,116.74179490000115,None,116.74179490000115,None,,,,,,,,,,,230,19,Male,2022-06-03_16h24.23.383,Main,2022.1.1,60.015219860149315,
positive,negative,1,l,j,,,,,1,4,22,5,,,,,,,,,,,,,,,,,,,,,,,,,,,,prac,2,2,1,negative,positive,l,l,1,0.7068566999987524,116.76226390000011,117.76335130000007,117.74528330000066,None,116.76226390000011,None,116.76226390000011,None,116.76226390000011,None,118.45306050000018,None,118.45306050000018,None,118.45306050000018,None,,,,,,,,,,,230,19,Male,2022-06-03_16h24.23.383,Main,2022.1.1,60.015219860149315,
positive,neutral,2,l,j,,,,,1,5,23,17,,,,,,,,,,,,,,,,,,,,,,,,,,,,prac,1,1,2,neutral,positive,l,l,1,0.8341964000010194,118.47344239999984,119.4810690000013,119.4619797000014,None,118.47344239999984,None,118.47344239999984,None,118.47344239999984,None,120.28912460000011,None,120.28912460000011,None,120.28912460000011,None,,,,,,,,,,,230,19,Male,2022-06-03_16h24.23.383,Main,2022.1.1,60.015219860149315,
neutral,negative,1,k,k,,,,,1,6,24,7,,,,,,,,,,,,,,,,,,,,,,,,,,,,prac,2,2,1,negative,neutral,k,k,1,0.8476057999996556,120.30975630000103,121.3223252000007,121.28306100000009,None,120.30975630000103,None,120.30975630000103,None,120.30975630000103,None,122.13926730000112,None,122.13926730000112,None,122.13926730000112,None,,,,,,,,,,,230,19,Male,2022-06-03_16h24.23.383,Main,2022.1.1,60.015219860149315,
positive,positive,2,l,j,,,,,1,7,25,11,,,,,,,,,,,,,,,,,,,,,,,,,,,,prac,2,2,2,positive,positive,l,l,1,0.9806582999990496,122.15990150000107,123.16337420000127,123.14626640000097,None,122.15990150000107,None,122.15990150000107,None,122.15990150000107,None,124.12215990000023,None,124.12215990000023,None,124.12215990000023,None,,,,,,,,,,,230,19,Male,2022-06-03_16h24.23.383,Main,2022.1.1,60.015219860149315,
neutral,negative,2,k,k,,,,,1,8,26,16,,,,,,,,,,,,,,,,,,,,,,,,,,,,prac,1,1,2,negative,neutral,k,k,1,0.8176678999989235,124.14470710000023,125.15144000000146,125.13101210000059,None,124.14470710000023,None,124.14470710000023,None,124.14470710000023,None,125.94160779999966,None,125.94160779999966,None,125.94160779999966,None,,,,,,,,,,,230,19,Male,2022-06-03_16h24.23.383,Main,2022.1.1,60.015219860149315,
neutral,positive,1,k,k,,,,,1,9,27,4,,,,,,,,,,,,,,,,,,,,,,,,,,,,prac,2,2,1,positive,neutral,k,k,1,0.7348958000002312,125.96599270000115,126.98320729999978,126.94427060000089,None,125.96599270000115,None,125.96599270000115,None,125.96599270000115,None,127.681609200001,None,127.681609200001,None,127.681609200001,None,,,,,,,,,,,230,19,Male,2022-06-03_16h24.23.383,Main,2022.1.1,60.015219860149315,
negative,neutral,2,j,l,,,,,1,10,28,12,,,,,,,,,,,,,,,,,,,,,,,,,,,,prac,2,2,2,neutral,negative,j,j,1,0.9593958999994356,127.70266559999982,128.7052975000006,128.6852467000008,None,127.70266559999982,None,127.70266559999982,None,127.70266559999982,None,129.64133580000106,None,129.64133580000106,None,129.64133580000106,None,,,,,,,,,,,230,19,Male,2022-06-03_16h24.23.383,Main,2022.1.1,60.015219860149315,
negative,positive,2,j,l,,,,,1,11,29,15,,,,,,,,,,,,,,,,,,,,,,,,,,,,prac,1,1,2,positive,negative,j,j,1,0.7962662999998429,129.6610563000013,130.6659348000012,130.64645850000124,None,129.6610563000013,None,129.6610563000013,None,129.6610563000013,None,131.4395666000002,None,131.4395666000002,None,131.4395666000002,None,,,,,,,,,,,230,19,Male,2022-06-03_16h24.23.383,Main,2022.1.1,60.015219860149315,
positive,neutral,1,l,j,,,,,1,12,30,8,,,,,,,,,,,,,,,,,,,,,,,,,,,,prac,2,2,1,neutral,positive,l,l,1,1.080103299998882,131.4596247999998,132.4789524000007,132.44075760000123,None,131.4596247999998,None,131.4596247999998,None,131.4596247999998,None,133.52171629999992,None,133.52171629999992,None,133.52171629999992,None,,,,,,,,,,,230,19,Male,2022-06-03_16h24.23.383,Main,2022.1.1,60.015219860149315,
neutral,neutral,2,k,k,,,,,1,13,31,10,,,,,,,,,,,,,,,,,,,,,,,,,,,,prac,2,2,2,neutral,neutral,k,k,1,0.8020773000007466,133.54453490000014,134.54975700000068,134.53004099999998,None,133.54453490000014,None,133.54453490000014,None,133.54453490000014,None,135.3288695000012,None,135.3288695000012,None,135.3288695000012,None,,,,,,,,,,,230,19,Male,2022-06-03_16h24.23.383,Main,2022.1.1,60.015219860149315,
negative,negative,2,j,l,,,,,1,14,32,9,,,,,,,,,,,,,,,,,,,,,,,,,,,,prac,1,1,2,negative,negative,j,j,1,0.8080905000006169,135.35051130000102,136.3651633999998,136.32533420000073,None,135.35051130000102,None,135.35051130000102,None,135.35051130000102,None,137.13756459999985,None,137.13756459999985,None,137.13756459999985,None,,,,,,,,,,,230,19,Male,2022-06-03_16h24.23.383,Main,2022.1.1,60.015219860149315,
negative,negative,1,j,l,,,,,1,15,33,0,,,,,,,,,,,,,,,,,,,,,,,,,,,,prac,1,1,1,negative,negative,j,j,1,0.9959273999993457,137.16881060000014,138.18401799999992,138.1652707000012,None,137.16881060000014,None,137.16881060000014,None,137.16881060000014,None,139.13615750000116,None,139.13615750000116,None,139.13615750000116,None,,,,,,,,,,,230,19,Male,2022-06-03_16h24.23.383,Main,2022.1.1,60.015219860149315,
positive,negative,2,l,j,,,,,1,16,34,14,,,,,,,,,,,,,,,,,,,,,,,,,,,,prac,2,2,2,negative,positive,l,l,1,0.8799404000001232,139.1563229000003,140.17064930000015,140.13148,None,139.1563229000003,None,139.1563229000003,None,139.1563229000003,None,141.01892679999963,None,141.01892679999963,None,141.01892679999963,None,,,,,,,,,,,230,19,Male,2022-06-03_16h24.23.383,Main,2022.1.1,60.015219860149315,
positive,positive,1,l,j,,,,,1,17,35,2,,,,,,,,,,,,,,,,,,,,,,,,,,,,prac,1,1,1,positive,positive,l,l,1,0.731551999999283,141.03880019999997,142.0570860000007,142.01878960000067,None,141.03880019999997,None,141.03880019999997,None,141.03880019999997,None,142.75319040000085,None,142.75319040000085,None,142.75319040000085,None,,,,,,,,,,,230,19,Male,2022-06-03_16h24.23.383,Main,2022.1.1,60.015219860149315,
,,,,,,,,,,,,,,,,,,,,,,,,,,,,,,,,,,,,,,,,,,,,,,,,,,,,,,,,,,,,,,,,,,142.7598566000015,None,None,,,,,,,,230,19,Male,2022-06-03_16h24.23.383,Main,2022.1.1,60.015219860149315,
,,,,,,,,,,,,,,,,,,,,,,,,,,,,,,,,,,,,,,,,,,,,,,,,,,,,,,,,,,,,,,,,,,,,,0.68333334,-0.25555557,1,0,0,0.0051640000001498265,None,230,19,Male,2022-06-03_16h24.23.383,Main,2022.1.1,60.015219860149315,
positive,neutral,1,l,j,,,,,,,,,0,0,0,8,,,,,,,,,,,,,,,,,,,,,,145.7635609000008,None,main,2,2,1,neutral,positive,l,l,1,0.8439407999994728,147.78383469999972,148.78556650000064,148.7670790000011,None,147.78383469999972,None,147.78383469999972,None,147.78383469999972,None,149.60641270000104,None,149.60641270000104,None,149.60641270000104,None,,,,,,,,,,,230,19,Male,2022-06-03_16h24.23.383,Main,2022.1.1,60.015219860149315,
negative,neutral,1,j,l,,,,,,,,,0,1,1,3,,,,,,,,,,,,,,,,,,,,,,,,main,1,1,1,neutral,negative,j,l,0,0.8793045000002166,149.633511,150.6397289000015,150.62070810000114,None,149.633511,None,149.633511,None,149.633511,None,151.4956234000001,None,151.4956234000001,None,151.4956234000001,None,,,,,,,,,,,230,19,Male,2022-06-03_16h24.23.383,Main,2022.1.1,60.015219860149315,
positive,neutral,2,l,j,,,,,,,,,0,2,2,17,,,,,,,,,,,,,,,,,,,,,,,,main,2,2,2,neutral,positive,l,l,1,0.7843246000011277,152.50778570000148,153.51308690000042,153.49374360000002,None,152.50778570000148,None,152.50778570000148,None,152.50778570000148,None,154.27230890000118,None,154.27230890000118,None,154.27230890000118,None,,,,,,,,,,,230,19,Male,2022-06-03_16h24.23.383,Main,2022.1.1,60.015219860149315,
neutral,neutral,1,k,k,,,,,,,,,0,3,3,1,,,,,,,,,,,,,,,,,,,,,,,,main,2,2,1,neutral,neutral,k,k,1,0.7373688999996375,154.29230410000127,155.30738550000024,155.2854593000011,None,154.29230410000127,None,154.29230410000127,None,154.29230410000127,None,156.0142042999998,None,156.0142042999998,None,156.0142042999998,None,,,,,,,,,,,230,19,Male,2022-06-03_16h24.23.383,Main,2022.1.1,60.015219860149315,
negative,positive,1,j,l,,,,,,,,,0,4,4,6,,,,,,,,,,,,,,,,,,,,,,,,main,1,1,1,positive,negative,j,j,1,1.013123299999279,156.03378840000005,157.04053750000094,157.02197070000148,None,156.03378840000005,None,156.03378840000005,None,156.03378840000005,None,158.0299777000002,None,158.0299777000002,None,158.0299777000002,None,,,,,,,,,,,230,19,Male,2022-06-03_16h24.23.383,Main,2022.1.1,60.015219860149315,
negative,positive,2,j,l,,,,,,,,,0,5,5,15,,,,,,,,,,,,,,,,,,,,,,,,main,2,2,2,positive,negative,j,j,1,0.8552657999989606,158.05048859999988,159.06903500000044,159.02978280000025,None,158.05048859999988,None,158.05048859999988,None,158.05048859999988,None,159.88594349999966,None,159.88594349999966,None,159.88594349999966,None,,,,,,,,,,,230,19,Male,2022-06-03_16h24.23.383,Main,2022.1.1,60.015219860149315,
positive,positive,2,l,j,,,,,,,,,0,6,6,11,,,,,,,,,,,,,,,,,,,,,,,,main,2,2,2,positive,positive,l,l,1,0.8302643000006356,159.90782850000141,160.92566129999977,160.88666680000097,None,159.90782850000141,None,159.90782850000141,None,159.90782850000141,None,161.71977910000004,None,161.71977910000004,None,161.71977910000004,None,,,,,,,,,,,230,19,Male,2022-06-03_16h24.23.383,Main,2022.1.1,60.015219860149315,
positive,negative,2,l,j,,,,,,,,,0,7,7,14,,,,,,,,,,,,,,,,,,,,,,,,main,1,1,2,negative,positive,l,l,1,0.7498482999999396,161.7400075000005,162.75765169999977,162.71923500000048,None,161.7400075000005,None,161.7400075000005,None,161.7400075000005,None,163.4717153000003,None,163.4717153000003,None,163.4717153000003,None,,,,,,,,,,,230,19,Male,2022-06-03_16h24.23.383,Main,2022.1.1,60.015219860149315,
neutral,negative,2,k,k,,,,,,,,,0,8,8,16,,,,,,,,,,,,,,,,,,,,,,,,main,2,2,2,negative,neutral,k,k,1,0.7749739999999292,163.49228930000027,164.49557340000138,164.47608240000045,None,163.49228930000027,None,163.49228930000027,None,163.49228930000027,None,165.25006899999988,None,165.25006899999988,None,165.25006899999988,None,,,,,,,,,,,230,19,Male,2022-06-03_16h24.23.383,Main,2022.1.1,60.015219860149315,
neutral,positive,1,k,k,,,,,,,,,0,9,9,4,,,,,,,,,,,,,,,,,,,,,,,,main,1,1,1,positive,neutral,k,k,1,0.7660489000008965,165.27116790000036,166.27550230000088,166.25679740000123,None,165.27116790000036,None,165.27116790000036,None,165.27116790000036,None,167.0181542000011,None,167.0181542000011,None,167.0181542000011,None,,,,,,,,,,,230,19,Male,2022-06-03_16h24.23.383,Main,2022.1.1,60.015219860149315,
neutral,neutral,2,k,k,,,,,,,,,0,10,10,10,,,,,,,,,,,,,,,,,,,,,,,,main,1,1,2,neutral,neutral,k,k,1,0.752198899999712,167.038970900001,168.05881580000096,168.02032099999997,None,167.038970900001,None,167.038970900001,None,167.038970900001,None,168.77355209999968,None,168.77355209999968,None,168.77355209999968,None,,,,,,,,,,,230,19,Male,2022-06-03_16h24.23.383,Main,2022.1.1,60.015219860149315,
neutral,negative,1,k,k,,,,,,,,,0,11,11,7,,,,,,,,,,,,,,,,,,,,,,,,main,2,2,1,negative,neutral,k,k,1,0.7977291000006517,168.79363209999974,169.802015700001,169.78182070000003,None,168.79363209999974,None,168.79363209999974,None,168.79363209999974,None,170.57534890000005,None,170.57534890000005,None,170.57534890000005,None,,,,,,,,,,,230,19,Male,2022-06-03_16h24.23.383,Main,2022.1.1,60.015219860149315,
negative,neutral,2,j,l,,,,,,,,,0,12,12,12,,,,,,,,,,,,,,,,,,,,,,,,main,1,1,2,neutral,negative,j,j,1,0.8620673999994324,170.59574720000091,171.60792690000017,171.56934050000018,None,170.59574720000091,None,170.59574720000091,None,170.59574720000091,None,172.44036100000102,None,172.44036100000102,None,172.44036100000102,None,,,,,,,,,,,230,19,Male,2022-06-03_16h24.23.383,Main,2022.1.1,60.015219860149315,
positive,positive,1,l,j,,,,,,,,,0,13,13,2,,,,,,,,,,,,,,,,,,,,,,,,main,1,1,1,positive,positive,l,l,1,0.8177369000004546,172.46304710000004,173.47787570000037,173.43956620000063,None,172.46304710000004,None,172.46304710000004,None,172.46304710000004,None,174.2600161000011,None,174.2600161000011,None,174.2600161000011,None,,,,,,,,,,,230,19,Male,2022-06-03_16h24.23.383,Main,2022.1.1,60.015219860149315,
negative,negative,2,j,l,,,,,,,,,0,14,14,9,,,,,,,,,,,,,,,,,,,,,,,,main,2,2,2,negative,negative,j,j,1,0.9996257000002515,174.2795987999998,175.28426800000125,175.26522880000084,None,174.2795987999998,None,174.2795987999998,None,174.2795987999998,None,176.26226350000087,None,176.26226350000087,None,176.26226350000087,None,,,,,,,,,,,230,19,Male,2022-06-03_16h24.23.383,Main,2022.1.1,60.015219860149315,
neutral,positive,2,k,k,,,,,,,,,0,15,15,13,,,,,,,,,,,,,,,,,,,,,,,,main,1,1,2,positive,neutral,k,k,1,0.8184735999984696,176.28311490000124,177.2921040000001,177.2720975000011,None,176.28311490000124,None,176.28311490000124,None,176.28311490000124,None,178.08213110000014,None,178.08213110000014,None,178.08213110000014,None,,,,,,,,,,,230,19,Male,2022-06-03_16h24.23.383,Main,2022.1.1,60.015219860149315,
positive,negative,1,l,j,,,,,,,,,0,16,16,5,,,,,,,,,,,,,,,,,,,,,,,,main,2,2,1,negative,positive,l,l,1,0.8844699999990553,178.1041505000012,179.1079062000008,179.0884643999998,None,178.1041505000012,None,178.1041505000012,None,178.1041505000012,None,179.96940790000025,None,179.96940790000025,None,179.96940790000025,None,,,,,,,,,,,230,19,Male,2022-06-03_16h24.23.383,Main,2022.1.1,60.015219860149315,
negative,negative,1,j,l,,,,,,,,,0,17,17,0,,,,,,,,,,,,,,,,,,,,,,,,main,1,1,1,negative,negative,j,j,1,1.0447156999998697,179.9914039000014,181.0114768000003,180.9724763000013,None,179.9914039000014,None,179.9914039000014,None,179.9914039000014,None,182.0185303,None,182.0185303,None,182.0185303,None,,,,,,,,,,,230,19,Male,2022-06-03_16h24.23.383,Main,2022.1.1,60.015219860149315,
negative,negative,1,j,l,,,,,,,,,1,0,18,0,,,,,,,,,,,,,,,,,,,,,,,,main,1,1,1,negative,negative,j,j,1,0.7387874999985797,182.03931340000054,183.04204680000112,183.0225158000012,None,182.03931340000054,None,182.03931340000054,None,182.03931340000054,None,183.7606441000009,None,183.7606441000009,None,183.7606441000009,None,,,,,,,,,,,230,19,Male,2022-06-03_16h24.23.383,Main,2022.1.1,60.015219860149315,
negative,positive,1,j,l,,,,,,,,,1,1,19,6,,,,,,,,,,,,,,,,,,,,,,,,main,2,2,1,positive,negative,j,j,1,0.7185903999998118,183.78254480000032,184.79846210000142,184.7595084000004,None,183.78254480000032,None,183.78254480000032,None,183.78254480000032,None,185.48102099999977,None,185.48102099999977,None,185.48102099999977,None,,,,,,,,,,,230,19,Male,2022-06-03_16h24.23.383,Main,2022.1.1,60.015219860149315,
negative,neutral,2,j,l,,,,,,,,,1,2,20,12,,,,,,,,,,,,,,,,,,,,,,,,main,2,2,2,neutral,negative,j,j,1,0.7961001000003307,185.5033129000003,186.52301869999974,186.48546780000106,None,185.5033129000003,None,185.5033129000003,None,185.5033129000003,None,187.28122679999996,None,187.28122679999996,None,187.28122679999996,None,,,,,,,,,,,230,19,Male,2022-06-03_16h24.23.383,Main,2022.1.1,60.015219860149315,
positive,neutral,1,l,j,,,,,,,,,1,3,21,8,,,,,,,,,,,,,,,,,,,,,,,,main,1,1,1,neutral,positive,l,j,0,0.7193821999990178,187.30185710000114,188.30507810000017,188.28842059999988,None,187.30185710000114,None,187.30185710000114,None,187.30185710000114,None,189.00867950000065,None,189.00867950000065,None,189.00867950000065,None,,,,,,,,,,,230,19,Male,2022-06-03_16h24.23.383,Main,2022.1.1,60.015219860149315,
positive,negative,2,l,j,,,,,,,,,1,4,22,14,,,,,,,,,,,,,,,,,,,,,,,,main,1,1,2,negative,positive,l,l,1,0.7648241999995662,190.02475030000096,191.03240750000077,191.0137082000001,None,190.02475030000096,None,190.02475030000096,None,190.02475030000096,None,191.76512890000066,None,191.76512890000066,None,191.76512890000066,None,,,,,,,,,,,230,19,Male,2022-06-03_16h24.23.383,Main,2022.1.1,60.015219860149315,
neutral,negative,1,k,k,,,,,,,,,1,5,23,7,,,,,,,,,,,,,,,,,,,,,,,,main,1,1,1,negative,neutral,k,k,1,0.6020437000006496,191.78785250000146,192.8011778,192.7627334000008,None,191.78785250000146,None,191.78785250000146,None,191.78785250000146,None,193.37107430000123,None,193.37107430000123,None,193.37107430000123,None,,,,,,,,,,,230,19,Male,2022-06-03_16h24.23.383,Main,2022.1.1,60.015219860149315,
neutral,negative,2,k,k,,,,,,,,,1,6,24,16,,,,,,,,,,,,,,,,,,,,,,,,main,2,2,2,negative,neutral,k,k,1,0.7472500999992917,193.3903416000012,194.4070423000012,194.3676403999998,None,193.3903416000012,None,193.3903416000012,None,193.3903416000012,None,195.12131840000092,None,195.12131840000092,None,195.12131840000092,None,,,,,,,,,,,230,19,Male,2022-06-03_16h24.23.383,Main,2022.1.1,60.015219860149315,
positive,positive,2,l,j,,,,,,,,,1,7,25,11,,,,,,,,,,,,,,,,,,,,,,,,main,2,2,2,positive,positive,l,l,1,0.600776199999018,195.1415409000001,196.16143170000032,196.12229310000112,None,195.1415409000001,None,195.1415409000001,None,195.1415409000001,None,196.72473499999995,None,196.72473499999995,None,196.72473499999995,None,,,,,,,,,,,230,19,Male,2022-06-03_16h24.23.383,Main,2022.1.1,60.015219860149315,
neutral,neutral,1,k,k,,,,,,,,,1,8,26,1,,,,,,,,,,,,,,,,,,,,,,,,main,1,1,1,neutral,neutral,k,k,1,0.801269500001581,196.7445727000013,197.75467019999996,197.7172924000006,None,196.7445727000013,None,196.7445727000013,None,196.7445727000013,None,198.52834710000042,None,198.52834710000042,None,198.52834710000042,None,,,,,,,,,,,230,19,Male,2022-06-03_16h24.23.383,Main,2022.1.1,60.015219860149315,
negative,neutral,1,j,l,,,,,,,,,1,9,27,3,,,,,,,,,,,,,,,,,,,,,,,,main,2,2,1,neutral,negative,j,j,1,0.5616946999998618,198.54896890000055,199.55127189999985,199.53183630000058,None,198.54896890000055,None,198.54896890000055,None,198.54896890000055,None,200.09443330000084,None,200.09443330000084,None,200.09443330000084,None,,,,,,,,,,,230,19,Male,2022-06-03_16h24.23.383,Main,2022.1.1,60.015219860149315,
positive,negative,1,l,j,,,,,,,,,1,10,28,5,,,,,,,,,,,,,,,,,,,,,,,,main,1,1,1,negative,positive,l,l,1,0.7933236999997462,200.11637150000024,201.12660430000142,201.10754220000126,None,200.11637150000024,None,200.11637150000024,None,200.11637150000024,None,201.89201710000106,None,201.89201710000106,None,201.89201710000106,None,,,,,,,,,,,230,19,Male,2022-06-03_16h24.23.383,Main,2022.1.1,60.015219860149315,
neutral,positive,1,k,k,,,,,,,,,1,11,29,4,,,,,,,,,,,,,,,,,,,,,,,,main,2,2,1,positive,neutral,k,k,1,0.9903544000007969,201.9128797000012,202.91790050000054,202.89906190000147,None,201.9128797000012,None,201.9128797000012,None,201.9128797000012,None,203.8869529000005,None,203.8869529000005,None,203.8869529000005,None,,,,,,,,,,,230,19,Male,2022-06-03_16h24.23.383,Main,2022.1.1,60.015219860149315,
positive,positive,1,l,j,,,,,,,,,1,12,30,2,,,,,,,,,,,,,,,,,,,,,,,,main,1,1,1,positive,positive,l,l,1,0.83598400000119,203.9073982000009,204.91286320000108,204.89413200000126,None,203.9073982000009,None,203.9073982000009,None,203.9073982000009,None,205.72530820000082,None,205.72530820000082,None,205.72530820000082,None,,,,,,,,,,,230,19,Male,2022-06-03_16h24.23.383,Main,2022.1.1,60.015219860149315,
neutral,positive,2,k,k,,,,,,,,,1,13,31,13,,,,,,,,,,,,,,,,,,,,,,,,main,2,2,2,positive,neutral,k,k,1,0.7421802000008029,205.74585210000077,206.7521082000003,206.73266820000026,None,205.74585210000077,None,205.74585210000077,None,205.74585210000077,None,207.47119870000114,None,207.47119870000114,None,207.47119870000114,None,,,,,,,,,,,230,19,Male,2022-06-03_16h24.23.383,Main,2022.1.1,60.015219860149315,
negative,positive,2,j,l,,,,,,,,,1,14,32,15,,,,,,,,,,,,,,,,,,,,,,,,main,2,2,2,positive,negative,j,l,0,0.7409915999996883,207.49149790000047,208.5102474000014,208.47072509999998,None,207.49149790000047,None,207.49149790000047,None,207.49149790000047,None,209.22007870000016,None,209.22007870000016,None,209.22007870000016,None,,,,,,,,,,,230,19,Male,2022-06-03_16h24.23.383,Main,2022.1.1,60.015219860149315,
negative,negative,2,j,l,,,,,,,,,1,15,33,9,,,,,,,,,,,,,,,,,,,,,,,,main,1,1,2,negative,negative,j,j,1,0.8491401999999653,210.2331535000012,211.23521970000002,211.21595830000115,None,210.2331535000012,None,210.2331535000012,None,210.2331535000012,None,212.0626111000003,None,212.0626111000003,None,212.0626111000003,None,,,,,,,,,,,230,19,Male,2022-06-03_16h24.23.383,Main,2022.1.1,60.015219860149315,
neutral,neutral,2,k,k,,,,,,,,,1,16,34,10,,,,,,,,,,,,,,,,,,,,,,,,main,2,2,2,neutral,neutral,k,k,1,0.6616054000005533,212.08413120000114,213.10161570000128,213.06348190000062,None,212.08413120000114,None,212.08413120000114,None,212.08413120000114,None,213.7275709999996,None,213.7275709999996,None,213.7275709999996,None,,,,,,,,,,,230,19,Male,2022-06-03_16h24.23.383,Main,2022.1.1,60.015219860149315,
positive,neutral,2,l,j,,,,,,,,,1,17,35,17,,,,,,,,,,,,,,,,,,,,,,,,main,2,2,2,neutral,positive,l,l,1,0.8301525999995647,213.74844210000083,214.76465319999988,214.72438590000093,None,213.74844210000083,None,213.74844210000083,None,213.74844210000083,None,215.55971049999988,None,215.55971049999988,None,215.55971049999988,None,,,,,,,,,,,230,19,Male,2022-06-03_16h24.23.383,Main,2022.1.1,60.015219860149315,
positive,negative,1,l,j,,,,,,,,,2,0,36,5,,,,,,,,,,,,,,,,,,,,,,,,main,2,2,1,negative,positive,l,l,1,1.0131744000009348,215.58157860000028,216.6018376000011,216.56172920000063,None,215.58157860000028,None,215.58157860000028,None,215.58157860000028,None,217.57593710000054,None,217.57593710000054,None,217.57593710000054,None,,,,,,,,,,,230,19,Male,2022-06-03_16h24.23.383,Main,2022.1.1,60.015219860149315,
positive,negative,2,l,j,,,,,,,,,2,1,37,14,,,,,,,,,,,,,,,,,,,,,,,,main,2,2,2,negative,positive,l,l,1,0.7705992000010156,217.59758560000046,218.6144185000012,218.57657760000075,None,217.59758560000046,None,217.59758560000046,None,217.59758560000046,None,219.35117650000046,None,219.35117650000046,None,219.35117650000046,None,,,,,,,,,,,230,19,Male,2022-06-03_16h24.23.383,Main,2022.1.1,60.015219860149315,
negative,negative,2,j,l,,,,,,,,,2,2,38,9,,,,,,,,,,,,,,,,,,,,,,,,main,2,2,2,negative,negative,j,j,1,0.8041960999998992,219.37117340000077,220.3858777000005,220.3478337000015,None,219.37117340000077,None,219.37117340000077,None,219.37117340000077,None,221.1578052000006,None,221.1578052000006,None,221.1578052000006,None,,,,,,,,,,,230,19,Male,2022-06-03_16h24.23.383,Main,2022.1.1,60.015219860149315,
positive,neutral,2,l,j,,,,,,,,,2,3,39,17,,,,,,,,,,,,,,,,,,,,,,,,main,1,1,2,neutral,positive,l,l,1,0.8011392000007618,221.17836870000065,222.18410940000103,222.1670821000007,None,221.17836870000065,None,221.17836870000065,None,221.17836870000065,None,222.9615409,None,222.9615409,None,222.9615409,None,,,,,,,,,,,230,19,Male,2022-06-03_16h24.23.383,Main,2022.1.1,60.015219860149315,
neutral,negative,2,k,k,,,,,,,,,2,4,40,16,,,,,,,,,,,,,,,,,,,,,,,,main,2,2,2,negative,neutral,k,k,1,0.7367254000000685,222.98368780000055,224.00482069999998,223.96589780000068,None,222.98368780000055,None,222.98368780000055,None,222.98368780000055,None,224.70250470000082,None,224.70250470000082,None,224.70250470000082,None,,,,,,,,,,,230,19,Male,2022-06-03_16h24.23.383,Main,2022.1.1,60.015219860149315,
neutral,positive,1,k,k,,,,,,,,,2,5,41,4,,,,,,,,,,,,,,,,,,,,,,,,main,2,2,1,positive,neutral,k,k,1,0.7054272999994282,224.7230053000003,225.7259568999998,225.70674660000077,None,224.7230053000003,None,224.7230053000003,None,224.7230053000003,None,226.40914300000094,None,226.40914300000094,None,226.40914300000094,None,,,,,,,,,,,230,19,Male,2022-06-03_16h24.23.383,Main,2022.1.1,60.015219860149315,
neutral,negative,1,k,k,,,,,,,,,2,6,42,7,,,,,,,,,,,,,,,,,,,,,,,,main,2,2,1,negative,neutral,k,k,1,0.6831228999999439,226.43131020000146,227.44068049999987,227.42133210000065,None,226.43131020000146,None,226.43131020000146,None,226.43131020000146,None,228.09363460000003,None,228.09363460000003,None,228.09363460000003,None,,,,,,,,,,,230,19,Male,2022-06-03_16h24.23.383,Main,2022.1.1,60.015219860149315,
negative,negative,1,j,l,,,,,,,,,2,7,43,0,,,,,,,,,,,,,,,,,,,,,,,,main,1,1,1,negative,negative,j,j,1,1.2819080999997823,228.11676650000118,229.11955099999977,229.0999350000002,None,228.11676650000118,None,228.11676650000118,None,228.11676650000118,None,230.37906330000095,None,230.37906330000095,None,230.37906330000095,None,,,,,,,,,,,230,19,Male,2022-06-03_16h24.23.383,Main,2022.1.1,60.015219860149315,
positive,positive,2,l,j,,,,,,,,,2,8,44,11,,,,,,,,,,,,,,,,,,,,,,,,main,1,1,2,positive,positive,l,l,1,0.7170868000011978,230.40158730000076,231.41732120000052,231.37854400000106,None,230.40158730000076,None,230.40158730000076,None,230.40158730000076,None,232.0978506000012,None,232.0978506000012,None,232.0978506000012,None,,,,,,,,,,,230,19,Male,2022-06-03_16h24.23.383,Main,2022.1.1,60.015219860149315,
positive,positive,1,l,j,,,,,,,,,2,9,45,2,,,,,,,,,,,,,,,,,,,,,,,,main,1,1,1,positive,positive,l,l,1,1.60936109999966,232.1204875000003,233.12475050000103,233.10623260000102,None,232.1204875000003,None,232.1204875000003,None,232.1204875000003,None,234.71798620000118,None,234.71798620000118,None,234.71798620000118,None,,,,,,,,,,,230,19,Male,2022-06-03_16h24.23.383,Main,2022.1.1,60.015219860149315,
neutral,positive,2,k,k,,,,,,,,,2,10,46,13,,,,,,,,,,,,,,,,,,,,,,,,main,1,1,2,positive,neutral,k,k,1,0.642937599999641,235.73044320000008,236.73246950000066,236.71282560000145,None,235.73044320000008,None,235.73044320000008,None,235.73044320000008,None,237.35509590000055,None,237.35509590000055,None,237.35509590000055,None,,,,,,,,,,,230,19,Male,2022-06-03_16h24.23.383,Main,2022.1.1,60.015219860149315,
negative,neutral,1,j,l,,,,,,,,,2,11,47,3,,,,,,,,,,,,,,,,,,,,,,,,main,2,2,1,neutral,negative,j,j,1,0.8362762000015209,237.37629440000092,238.39544490000117,238.35703130000002,None,237.37629440000092,None,237.37629440000092,None,237.37629440000092,None,239.19449290000028,None,239.19449290000028,None,239.19449290000028,None,,,,,,,,,,,230,19,Male,2022-06-03_16h24.23.383,Main,2022.1.1,60.015219860149315,
negative,positive,2,j,l,,,,,,,,,2,12,48,15,,,,,,,,,,,,,,,,,,,,,,,,main,2,2,2,positive,negative,j,j,1,0.7947210000002087,239.2153412000007,240.23073130000012,240.19242550000126,None,239.2153412000007,None,239.2153412000007,None,239.2153412000007,None,240.9914122000011,None,240.9914122000011,None,240.9914122000011,None,,,,,,,,,,,230,19,Male,2022-06-03_16h24.23.383,Main,2022.1.1,60.015219860149315,
positive,neutral,1,l,j,,,,,,,,,2,13,49,8,,,,,,,,,,,,,,,,,,,,,,,,main,1,1,1,neutral,positive,l,l,1,1.3453003000013268,241.01316370000131,242.02959350000128,241.99270200000137,None,241.01316370000131,None,241.01316370000131,None,241.01316370000131,None,243.3385129,None,243.3385129,None,243.3385129,None,,,,,,,,,,,230,19,Male,2022-06-03_16h24.23.383,Main,2022.1.1,60.015219860149315,
negative,neutral,2,j,l,,,,,,,,,2,14,50,12,,,,,,,,,,,,,,,,,,,,,,,,main,2,2,2,neutral,negative,j,j,1,0.8156591000006301,243.36087960000077,244.38181799999984,244.34305080000013,None,243.36087960000077,None,243.36087960000077,None,243.36087960000077,None,245.15786010000028,None,245.15786010000028,None,245.15786010000028,None,,,,,,,,,,,230,19,Male,2022-06-03_16h24.23.383,Main,2022.1.1,60.015219860149315,
negative,positive,1,j,l,,,,,,,,,2,15,51,6,,,,,,,,,,,,,,,,,,,,,,,,main,1,1,1,positive,negative,j,j,1,0.9835926999985531,245.1787441000015,246.19400719999976,246.1555387999997,None,245.1787441000015,None,245.1787441000015,None,245.1787441000015,None,247.14397950000074,None,247.14397950000074,None,247.14397950000074,None,,,,,,,,,,,230,19,Male,2022-06-03_16h24.23.383,Main,2022.1.1,60.015219860149315,
neutral,neutral,1,k,k,,,,,,,,,2,16,52,1,,,,,,,,,,,,,,,,,,,,,,,,main,2,2,1,neutral,neutral,k,k,1,0.7977535000009084,247.1675133000008,248.17143060000126,248.15196190000097,None,247.1675133000008,None,247.1675133000008,None,247.1675133000008,None,248.9444060000007,None,248.9444060000007,None,248.9444060000007,None,,,,,,,,,,,230,19,Male,2022-06-03_16h24.23.383,Main,2022.1.1,60.015219860149315,
neutral,neutral,2,k,k,,,,,,,,,2,17,53,10,,,,,,,,,,,,,,,,,,,,,,,,main,2,2,2,neutral,neutral,k,k,1,0.7977279999995517,248.96457240000018,249.97004160000142,249.95051720000083,None,248.96457240000018,None,248.96457240000018,None,248.96457240000018,None,250.74468429999996,None,250.74468429999996,None,250.74468429999996,None,,,,,,,,,,,230,19,Male,2022-06-03_16h24.23.383,Main,2022.1.1,60.015219860149315,
neutral,positive,1,k,k,,,,,,,,,3,0,54,4,,,,,,,,,,,,,,,,,,,,,,,,main,1,1,1,positive,neutral,k,k,1,0.7139810000007856,250.76472699999977,251.78089569999975,251.7432241000006,None,250.76472699999977,None,250.76472699999977,None,250.76472699999977,None,252.46153050000083,None,252.46153050000083,None,252.46153050000083,None,,,,,,,,,,,230,19,Male,2022-06-03_16h24.23.383,Main,2022.1.1,60.015219860149315,
positive,negative,1,l,j,,,,,,,,,3,1,55,5,,,,,,,,,,,,,,,,,,,,,,,,main,2,2,1,negative,positive,l,l,1,0.8662716999988334,252.48485170000095,253.49021100000027,253.47109120000096,None,252.48485170000095,None,252.48485170000095,None,252.48485170000095,None,254.3314157000006,None,254.3314157000006,None,254.3314157000006,None,,,,,,,,,,,230,19,Male,2022-06-03_16h24.23.383,Main,2022.1.1,60.015219860149315,
neutral,negative,1,k,k,,,,,,,,,3,2,56,7,,,,,,,,,,,,,,,,,,,,,,,,main,1,1,1,negative,neutral,k,k,1,0.7578536000000895,254.3511866000008,255.3554830000012,255.3360171000004,None,254.3511866000008,None,254.3511866000008,None,254.3511866000008,None,256.0888555000003,None,256.0888555000003,None,256.0888555000003,None,,,,,,,,,,,230,19,Male,2022-06-03_16h24.23.383,Main,2022.1.1,60.015219860149315,
neutral,negative,2,k,k,,,,,,,,,3,3,57,16,,,,,,,,,,,,,,,,,,,,,,,,main,2,2,2,negative,neutral,k,k,1,0.7088856999998825,256.1118492000005,257.1258933000008,257.0876010000011,None,256.1118492000005,None,256.1118492000005,None,256.1118492000005,None,257.8033649999999,None,257.8033649999999,None,257.8033649999999,None,,,,,,,,,,,230,19,Male,2022-06-03_16h24.23.383,Main,2022.1.1,60.015219860149315,
negative,negative,2,j,l,,,,,,,,,3,4,58,9,,,,,,,,,,,,,,,,,,,,,,,,main,2,2,2,negative,negative,j,j,1,0.7963624999993044,257.8244904000003,258.8328082000007,258.8132665000012,None,257.8244904000003,None,257.8244904000003,None,257.8244904000003,None,259.6037882000002,None,259.6037882000002,None,259.6037882000002,None,,,,,,,,,,,230,19,Male,2022-06-03_16h24.23.383,Main,2022.1.1,60.015219860149315,
positive,neutral,2,l,j,,,,,,,,,3,5,59,17,,,,,,,,,,,,,,,,,,,,,,,,main,1,1,2,neutral,positive,l,l,1,0.8278236999994988,259.6250151000004,260.6439171000002,260.60524930000065,None,259.6250151000004,None,259.6250151000004,None,259.6250151000004,None,261.43627360000045,None,261.43627360000045,None,261.43627360000045,None,,,,,,,,,,,230,19,Male,2022-06-03_16h24.23.383,Main,2022.1.1,60.015219860149315,
positive,negative,2,l,j,,,,,,,,,3,6,60,14,,,,,,,,,,,,,,,,,,,,,,,,main,2,2,2,negative,positive,l,l,1,0.6873744999993505,261.4580371000011,262.4692937,262.43004180000025,None,261.4580371000011,None,261.4580371000011,None,261.4580371000011,None,263.12650480000065,None,263.12650480000065,None,263.12650480000065,None,,,,,,,,,,,230,19,Male,2022-06-03_16h24.23.383,Main,2022.1.1,60.015219860149315,
negative,neutral,1,j,l,,,,,,,,,3,7,61,3,,,,,,,,,,,,,,,,,,,,,,,,main,2,2,1,neutral,negative,j,j,1,1.2414169999992737,263.1468502000007,264.1557049000003,264.1370274000001,None,263.1468502000007,None,263.1468502000007,None,263.1468502000007,None,265.37057550000117,None,265.37057550000117,None,265.37057550000117,None,,,,,,,,,,,230,19,Male,2022-06-03_16h24.23.383,Main,2022.1.1,60.015219860149315,
negative,negative,1,j,l,,,,,,,,,3,8,62,0,,,,,,,,,,,,,,,,,,,,,,,,main,2,2,1,negative,negative,j,j,1,0.7491241000006994,265.39156580000054,266.4017941000002,266.3821523000006,None,265.39156580000054,None,265.39156580000054,None,265.39156580000054,None,267.12243719999987,None,267.12243719999987,None,267.12243719999987,None,,,,,,,,,,,230,19,Male,2022-06-03_16h24.23.383,Main,2022.1.1,60.015219860149315,
negative,positive,1,j,l,,,,,,,,,3,9,63,6,,,,,,,,,,,,,,,,,,,,,,,,main,1,1,1,positive,negative,j,j,1,0.7049989999995887,267.1435121000013,268.15160000000105,268.1316955000002,None,267.1435121000013,None,267.1435121000013,None,267.1435121000013,None,268.83213880000056,None,268.83213880000056,None,268.83213880000056,None,,,,,,,,,,,230,19,Male,2022-06-03_16h24.23.383,Main,2022.1.1,60.015219860149315,
neutral,neutral,2,k,k,,,,,,,,,3,10,64,10,,,,,,,,,,,,,,,,,,,,,,,,main,2,2,2,neutral,neutral,k,k,1,0.7460317999994004,268.8530273000015,269.8604688000014,269.841319000001,None,268.8530273000015,None,268.8530273000015,None,268.8530273000015,None,270.5793532999998,None,270.5793532999998,None,270.5793532999998,None,,,,,,,,,,,230,19,Male,2022-06-03_16h24.23.383,Main,2022.1.1,60.015219860149315,
neutral,positive,2,k,k,,,,,,,,,3,11,65,13,,,,,,,,,,,,,,,,,,,,,,,,main,1,1,2,positive,neutral,k,k,1,0.681674400000702,270.6010659000003,271.60873750000064,271.58867360000113,None,270.6010659000003,None,270.6010659000003,None,270.6010659000003,None,272.26482179999965,None,272.26482179999965,None,272.26482179999965,None,,,,,,,,,,,230,19,Male,2022-06-03_16h24.23.383,Main,2022.1.1,60.015219860149315,
positive,positive,2,l,j,,,,,,,,,3,12,66,11,,,,,,,,,,,,,,,,,,,,,,,,main,1,1,2,positive,positive,l,l,1,0.7388989999999467,272.28611400000045,273.2884474000002,273.26950560000114,None,272.28611400000045,None,272.28611400000045,None,272.28611400000045,None,274.00275060000075,None,274.00275060000075,None,274.00275060000075,None,,,,,,,,,,,230,19,Male,2022-06-03_16h24.23.383,Main,2022.1.1,60.015219860149315,
positive,neutral,1,l,j,,,,,,,,,3,13,67,8,,,,,,,,,,,,,,,,,,,,,,,,main,1,1,1,neutral,positive,l,l,1,0.9116940999992948,274.02574210000057,275.04368460000114,275.00765240000146,None,274.02574210000057,None,274.02574210000057,None,274.02574210000057,None,275.9185319000009,None,275.9185319000009,None,275.9185319000009,None,,,,,,,,,,,230,19,Male,2022-06-03_16h24.23.383,Main,2022.1.1,60.015219860149315,
neutral,neutral,1,k,k,,,,,,,,,3,14,68,1,,,,,,,,,,,,,,,,,,,,,,,,main,1,1,1,neutral,neutral,k,k,1,0.9243079000007128,275.93874890000006,276.9434297000007,276.9266129000007,None,275.93874890000006,None,275.93874890000006,None,275.93874890000006,None,277.84674000000103,None,277.84674000000103,None,277.84674000000103,None,,,,,,,,,,,230,19,Male,2022-06-03_16h24.23.383,Main,2022.1.1,60.015219860149315,
negative,neutral,2,j,l,,,,,,,,,3,15,69,12,,,,,,,,,,,,,,,,,,,,,,,,main,2,2,2,neutral,negative,j,j,1,0.8624280999993061,277.86635540000134,278.8828807000009,278.84314470000027,None,277.86635540000134,None,277.86635540000134,None,277.86635540000134,None,279.71235429999996,None,279.71235429999996,None,279.71235429999996,None,,,,,,,,,,,230,19,Male,2022-06-03_16h24.23.383,Main,2022.1.1,60.015219860149315,
negative,positive,2,j,l,,,,,,,,,3,16,70,15,,,,,,,,,,,,,,,,,,,,,,,,main,2,2,2,positive,negative,j,j,1,0.6999431000003824,279.7318799000004,280.7364404,280.7178511000002,None,279.7318799000004,None,279.7318799000004,None,279.7318799000004,None,281.414696,None,281.414696,None,281.414696,None,,,,,,,,,,,230,19,Male,2022-06-03_16h24.23.383,Main,2022.1.1,60.015219860149315,
positive,positive,1,l,j,,,,,,,,,3,17,71,2,,,,,,,,,,,,,,,,,,,,,,,,main,2,2,1,positive,positive,l,l,1,0.8810052999997424,281.4361114000003,282.4423209000015,282.4229703000001,None,281.4361114000003,None,281.4361114000003,None,281.4361114000003,None,283.2974758000002,None,283.2974758000002,None,283.2974758000002,None,,,,,,,,,,,230,19,Male,2022-06-03_16h24.23.383,Main,2022.1.1,60.015219860149315,
negative,positive,2,j,l,,,,,,,,,4,0,72,15,,,,,,,,,,,,,,,,,,,,,,,,main,2,2,2,positive,negative,j,j,1,0.829322300000058,283.318134000001,284.3326969999998,284.29314090000116,None,283.318134000001,None,283.318134000001,None,283.318134000001,None,285.12997340000055,None,285.12997340000055,None,285.12997340000055,None,,,,,,,,,,,230,19,Male,2022-06-03_16h24.23.383,Main,2022.1.1,60.015219860149315,
positive,negative,2,l,j,,,,,,,,,4,1,73,14,,,,,,,,,,,,,,,,,,,,,,,,main,2,2,2,negative,positive,l,l,1,0.8111361999999644,285.1507849000009,286.152687400001,286.1335596000008,None,285.1507849000009,None,285.1507849000009,None,285.1507849000009,None,286.94332270000103,None,286.94332270000103,None,286.94332270000103,None,,,,,,,,,,,230,19,Male,2022-06-03_16h24.23.383,Main,2022.1.1,60.015219860149315,
neutral,positive,1,k,k,,,,,,,,,4,2,74,4,,,,,,,,,,,,,,,,,,,,,,,,main,2,2,1,positive,neutral,k,k,1,0.8615386000001308,286.9639137000013,287.96984090000115,287.95046920000095,None,286.9639137000013,None,286.9639137000013,None,286.9639137000013,None,288.80560069999973,None,288.80560069999973,None,288.80560069999973,None,,,,,,,,,,,230,19,Male,2022-06-03_16h24.23.383,Main,2022.1.1,60.015219860149315,
positive,positive,1,l,j,,,,,,,,,4,3,75,2,,,,,,,,,,,,,,,,,,,,,,,,main,2,2,1,positive,positive,l,l,1,1.1141364999984944,288.82957480000005,289.83109820000027,289.8121099,None,288.82957480000005,None,288.82957480000005,None,288.82957480000005,None,290.92201490000133,None,290.92201490000133,None,290.92201490000133,None,,,,,,,,,,,230,19,Male,2022-06-03_16h24.23.383,Main,2022.1.1,60.015219860149315,
positive,neutral,1,l,j,,,,,,,,,4,4,76,8,,,,,,,,,,,,,,,,,,,,,,,,main,2,2,1,neutral,positive,l,l,1,0.7343172000000777,290.94266570000036,291.9451129000008,291.9262741000002,None,290.94266570000036,None,290.94266570000036,None,290.94266570000036,None,292.6613048000001,None,292.6613048000001,None,292.6613048000001,None,,,,,,,,,,,230,19,Male,2022-06-03_16h24.23.383,Main,2022.1.1,60.015219860149315,
positive,positive,2,l,j,,,,,,,,,4,5,77,11,,,,,,,,,,,,,,,,,,,,,,,,main,2,2,2,positive,positive,l,l,1,0.726816799999142,292.6805382000002,293.68808910000007,293.6694647000004,None,292.6805382000002,None,292.6805382000002,None,292.6805382000002,None,294.38890999999984,None,294.38890999999984,None,294.38890999999984,None,,,,,,,,,,,230,19,Male,2022-06-03_16h24.23.383,Main,2022.1.1,60.015219860149315,
negative,neutral,2,j,l,,,,,,,,,4,6,78,12,,,,,,,,,,,,,,,,,,,,,,,,main,2,2,2,neutral,negative,j,j,1,0.8338463000000047,294.41046500000084,295.41202070000145,295.3929169000003,None,294.41046500000084,None,294.41046500000084,None,294.41046500000084,None,296.22683200000046,None,296.22683200000046,None,296.22683200000046,None,,,,,,,,,,,230,19,Male,2022-06-03_16h24.23.383,Main,2022.1.1,60.015219860149315,
negative,negative,1,j,l,,,,,,,,,4,7,79,0,,,,,,,,,,,,,,,,,,,,,,,,main,2,2,1,negative,negative,j,j,1,0.8131364000000758,296.24727560000065,297.2621185000007,297.2237767000006,None,296.24727560000065,None,296.24727560000065,None,296.24727560000065,None,298.04272900000086,None,298.04272900000086,None,298.04272900000086,None,,,,,,,,,,,230,19,Male,2022-06-03_16h24.23.383,Main,2022.1.1,60.015219860149315,
positive,negative,1,l,j,,,,,,,,,4,8,80,5,,,,,,,,,,,,,,,,,,,,,,,,main,1,1,1,negative,positive,l,l,1,0.8562524000008125,298.0634620000001,299.08269100000143,299.04244740000104,None,298.0634620000001,None,298.0634620000001,None,298.0634620000001,None,299.8994905000001,None,299.8994905000001,None,299.8994905000001,None,,,,,,,,,,,230,19,Male,2022-06-03_16h24.23.383,Main,2022.1.1,60.015219860149315,
negative,negative,2,j,l,,,,,,,,,4,9,81,9,,,,,,,,,,,,,,,,,,,,,,,,main,2,2,2,negative,negative,j,j,1,0.9220059999988734,299.9213318000002,300.93956980000075,300.9015768999998,None,299.9213318000002,None,299.9213318000002,None,299.9213318000002,None,301.8264756999999,None,301.8264756999999,None,301.8264756999999,None,,,,,,,,,,,230,19,Male,2022-06-03_16h24.23.383,Main,2022.1.1,60.015219860149315,
negative,positive,1,j,l,,,,,,,,,4,10,82,6,,,,,,,,,,,,,,,,,,,,,,,,main,1,1,1,positive,negative,j,l,0,0.8351017999993928,301.84716910000134,302.8491436000004,302.8295839000002,None,301.84716910000134,None,301.84716910000134,None,301.84716910000134,None,303.66929020000134,None,303.66929020000134,None,303.66929020000134,None,,,,,,,,,,,230,19,Male,2022-06-03_16h24.23.383,Main,2022.1.1,60.015219860149315,
neutral,negative,1,k,k,,,,,,,,,4,11,83,7,,,,,,,,,,,,,,,,,,,,,,,,main,2,2,1,negative,neutral,k,k,1,0.8820873999993637,304.6888190000009,305.6936803999997,305.6742826999998,None,304.6888190000009,None,304.6888190000009,None,304.6888190000009,None,306.54852650000083,None,306.54852650000083,None,306.54852650000083,None,,,,,,,,,,,230,19,Male,2022-06-03_16h24.23.383,Main,2022.1.1,60.015219860149315,
neutral,neutral,1,k,k,,,,,,,,,4,12,84,1,,,,,,,,,,,,,,,,,,,,,,,,main,1,1,1,neutral,neutral,k,k,1,0.9424180000005435,306.57229030000053,307.590298000001,307.5527811000011,None,306.57229030000053,None,306.57229030000053,None,306.57229030000053,None,308.4978886999999,None,308.4978886999999,None,308.4978886999999,None,,,,,,,,,,,230,19,Male,2022-06-03_16h24.23.383,Main,2022.1.1,60.015219860149315,
negative,neutral,1,j,l,,,,,,,,,4,13,85,3,,,,,,,,,,,,,,,,,,,,,,,,main,1,1,1,neutral,negative,j,j,1,1.093280799999775,308.5205134000007,309.5389982000015,309.50064680000105,None,308.5205134000007,None,308.5205134000007,None,308.5205134000007,None,310.5953467000001,None,310.5953467000001,None,310.5953467000001,None,,,,,,,,,,,230,19,Male,2022-06-03_16h24.23.383,Main,2022.1.1,60.015219860149315,
neutral,positive,2,k,k,,,,,,,,,4,14,86,13,,,,,,,,,,,,,,,,,,,,,,,,main,2,2,2,positive,neutral,k,k,1,0.9354559999992489,310.6163039000003,311.6193594000015,311.6001640000013,None,310.6163039000003,None,310.6163039000003,None,310.6163039000003,None,312.5332794000007,None,312.5332794000007,None,312.5332794000007,None,,,,,,,,,,,230,19,Male,2022-06-03_16h24.23.383,Main,2022.1.1,60.015219860149315,
neutral,negative,2,k,k,,,,,,,,,4,15,87,16,,,,,,,,,,,,,,,,,,,,,,,,main,2,2,2,negative,neutral,k,k,1,0.7343610999996599,312.5563619000004,313.5586906999997,313.53922070000044,None,312.5563619000004,None,312.5563619000004,None,312.5563619000004,None,314.2733280000013,None,314.2733280000013,None,314.2733280000013,None,,,,,,,,,,,230,19,Male,2022-06-03_16h24.23.383,Main,2022.1.1,60.015219860149315,
neutral,neutral,2,k,k,,,,,,,,,4,16,88,10,,,,,,,,,,,,,,,,,,,,,,,,main,1,1,2,neutral,neutral,k,k,1,0.6621817000013834,314.29323509999995,315.30021040000065,315.28143310000087,None,314.29323509999995,None,314.29323509999995,None,314.29323509999995,None,315.93495079999974,None,315.93495079999974,None,315.93495079999974,None,,,,,,,,,,,230,19,Male,2022-06-03_16h24.23.383,Main,2022.1.1,60.015219860149315,
positive,neutral,2,l,j,,,,,,,,,4,17,89,17,,,,,,,,,,,,,,,,,,,,,,,,main,1,1,2,neutral,positive,l,l,1,0.7688867999986542,315.9568850000014,316.9722591000009,316.93452120000075,None,315.9568850000014,None,315.9568850000014,None,315.9568850000014,None,317.70888120000035,None,317.70888120000035,None,317.70888120000035,None,,,,,,,,,,,230,19,Male,2022-06-03_16h24.23.383,Main,2022.1.1,60.015219860149315,
positive,neutral,2,l,j,,,,,,,,,5,0,90,17,,,,,,,,,,,,,,,,,,,,,,,,main,1,1,2,neutral,positive,l,l,1,0.6731085999999777,317.7298812000008,318.7465806,318.70586600000024,None,317.7298812000008,None,317.7298812000008,None,317.7298812000008,None,319.3832320000003,None,319.3832320000003,None,319.3832320000003,None,,,,,,,,,,,230,19,Male,2022-06-03_16h24.23.383,Main,2022.1.1,60.015219860149315,
negative,negative,1,j,l,,,,,,,,,5,1,91,0,,,,,,,,,,,,,,,,,,,,,,,,main,1,1,1,negative,negative,j,j,1,0.7813495000009425,319.40329010000096,320.40937640000084,320.3890104000002,None,319.40329010000096,None,319.40329010000096,None,319.40329010000096,None,321.16634990000074,None,321.16634990000074,None,321.16634990000074,None,,,,,,,,,,,230,19,Male,2022-06-03_16h24.23.383,Main,2022.1.1,60.015219860149315,
negative,neutral,2,j,l,,,,,,,,,5,2,92,12,,,,,,,,,,,,,,,,,,,,,,,,main,2,2,2,neutral,negative,j,j,1,0.8995157000008476,321.18704770000113,322.1973057000014,322.1776346000006,None,321.18704770000113,None,321.18704770000113,None,321.18704770000113,None,323.06797469999964,None,323.06797469999964,None,323.06797469999964,None,,,,,,,,,,,230,19,Male,2022-06-03_16h24.23.383,Main,2022.1.1,60.015219860149315,
neutral,negative,2,k,k,,,,,,,,,5,3,93,16,,,,,,,,,,,,,,,,,,,,,,,,main,1,1,2,negative,neutral,k,k,1,0.8262704999997368,323.0895433000005,324.1047337,324.067928800001,None,323.0895433000005,None,323.0895433000005,None,323.0895433000005,None,324.8973286000002,None,324.8973286000002,None,324.8973286000002,None,,,,,,,,,,,230,19,Male,2022-06-03_16h24.23.383,Main,2022.1.1,60.015219860149315,
positive,negative,1,l,j,,,,,,,,,5,4,94,5,,,,,,,,,,,,,,,,,,,,,,,,main,1,1,1,negative,positive,l,l,1,0.9820010999992519,324.9187270000002,325.9324163000001,325.89474359999986,None,324.9187270000002,None,324.9187270000002,None,324.9187270000002,None,326.8814972000002,None,326.8814972000002,None,326.8814972000002,None,,,,,,,,,,,230,19,Male,2022-06-03_16h24.23.383,Main,2022.1.1,60.015219860149315,
negative,positive,2,j,l,,,,,,,,,5,5,95,15,,,,,,,,,,,,,,,,,,,,,,,,main,1,1,2,positive,negative,j,j,1,0.8080805000008695,326.9024193000005,327.9154077000003,327.87684080000145,None,326.9024193000005,None,326.9024193000005,None,326.9024193000005,None,328.6947469000008,None,328.6947469000008,None,328.6947469000008,None,,,,,,,,,,,230,19,Male,2022-06-03_16h24.23.383,Main,2022.1.1,60.015219860149315,
neutral,positive,1,k,k,,,,,,,,,5,6,96,4,,,,,,,,,,,,,,,,,,,,,,,,main,1,1,1,positive,neutral,k,k,1,0.6932946999986598,328.7161743000015,329.7345538999998,329.6966310000007,None,328.7161743000015,None,328.7161743000015,None,328.7161743000015,None,330.3931845000008,None,330.3931845000008,None,330.3931845000008,None,,,,,,,,,,,230,19,Male,2022-06-03_16h24.23.383,Main,2022.1.1,60.015219860149315,
negative,positive,1,j,l,,,,,,,,,5,7,97,6,,,,,,,,,,,,,,,,,,,,,,,,main,1,1,1,positive,negative,j,j,1,0.8076719000000594,330.4144694000006,331.4294417000001,331.38995350000005,None,330.4144694000006,None,330.4144694000006,None,330.4144694000006,None,332.20625910000143,None,332.20625910000143,None,332.20625910000143,None,,,,,,,,,,,230,19,Male,2022-06-03_16h24.23.383,Main,2022.1.1,60.015219860149315,
positive,neutral,1,l,j,,,,,,,,,5,8,98,8,,,,,,,,,,,,,,,,,,,,,,,,main,2,2,1,neutral,positive,l,l,1,0.8340649999991001,332.22606989999986,333.23151789999974,333.2109225000004,None,332.22606989999986,None,332.22606989999986,None,332.22606989999986,None,334.042600500001,None,334.042600500001,None,334.042600500001,None,,,,,,,,,,,230,19,Male,2022-06-03_16h24.23.383,Main,2022.1.1,60.015219860149315,
positive,positive,2,l,j,,,,,,,,,5,9,99,11,,,,,,,,,,,,,,,,,,,,,,,,main,2,2,2,positive,positive,l,l,1,0.794250999999349,334.06392589999996,335.0783012000011,335.0380589000015,None,334.06392589999996,None,334.06392589999996,None,334.06392589999996,None,335.8411218000003,None,335.8411218000003,None,335.8411218000003,None,,,,,,,,,,,230,19,Male,2022-06-03_16h24.23.383,Main,2022.1.1,60.015219860149315,
neutral,neutral,1,k,k,,,,,,,,,5,10,100,1,,,,,,,,,,,,,,,,,,,,,,,,main,1,1,1,neutral,neutral,k,k,1,0.88165730000037,335.86380160000044,336.8759824000008,336.8369435000004,None,335.86380160000044,None,335.86380160000044,None,335.86380160000044,None,337.72761999999983,None,337.72761999999983,None,337.72761999999983,None,,,,,,,,,,,230,19,Male,2022-06-03_16h24.23.383,Main,2022.1.1,60.015219860149315,
neutral,neutral,2,k,k,,,,,,,,,5,11,101,10,,,,,,,,,,,,,,,,,,,,,,,,main,2,2,2,neutral,neutral,k,k,1,0.6217558000007557,337.747602200001,338.7499345000015,338.7308076999998,None,337.747602200001,None,337.747602200001,None,337.747602200001,None,339.3535322999998,None,339.3535322999998,None,339.3535322999998,None,,,,,,,,,,,230,19,Male,2022-06-03_16h24.23.383,Main,2022.1.1,60.015219860149315,
positive,negative,2,l,j,,,,,,,,,5,12,102,14,,,,,,,,,,,,,,,,,,,,,,,,main,1,1,2,negative,positive,l,l,1,1.176249199999802,339.3731777000012,340.39079950000087,340.37014310000086,None,339.3731777000012,None,339.3731777000012,None,339.3731777000012,None,341.53020680000026,None,341.53020680000026,None,341.53020680000026,None,,,,,,,,,,,230,19,Male,2022-06-03_16h24.23.383,Main,2022.1.1,60.015219860149315,
neutral,positive,2,k,k,,,,,,,,,5,13,103,13,,,,,,,,,,,,,,,,,,,,,,,,main,1,1,2,positive,neutral,k,k,1,0.7803545999995549,341.5507995000007,342.5535884000001,342.5347388000009,None,341.5507995000007,None,341.5507995000007,None,341.5507995000007,None,343.3132851000011,None,343.3132851000011,None,343.3132851000011,None,,,,,,,,,,,230,19,Male,2022-06-03_16h24.23.383,Main,2022.1.1,60.015219860149315,
neutral,negative,1,k,k,,,,,,,,,5,14,104,7,,,,,,,,,,,,,,,,,,,,,,,,main,2,2,1,negative,neutral,k,j,0,0.523878899999545,343.3333770999998,344.3517978,344.3136617,None,343.3333770999998,None,343.3333770999998,None,343.3333770999998,None,344.84686730000067,None,344.84686730000067,None,344.84686730000067,None,,,,,,,,,,,230,19,Male,2022-06-03_16h24.23.383,Main,2022.1.1,60.015219860149315,
negative,neutral,1,j,l,,,,,,,,,5,15,105,3,,,,,,,,,,,,,,,,,,,,,,,,main,1,1,1,neutral,negative,j,j,1,0.8224344999998721,345.86770070000057,346.8803781000006,346.8614155000014,None,345.86770070000057,None,345.86770070000057,None,345.86770070000057,None,347.6711154000006,None,347.6711154000006,None,347.6711154000006,None,,,,,,,,,,,230,19,Male,2022-06-03_16h24.23.383,Main,2022.1.1,60.015219860149315,
positive,positive,1,l,j,,,,,,,,,5,16,106,2,,,,,,,,,,,,,,,,,,,,,,,,main,1,1,1,positive,positive,l,l,1,0.9429273000005196,347.69105560000025,348.70686340000066,348.6674019000002,None,347.69105560000025,None,347.69105560000025,None,347.69105560000025,None,349.6142489000014,None,349.6142489000014,None,349.6142489000014,None,,,,,,,,,,,230,19,Male,2022-06-03_16h24.23.383,Main,2022.1.1,60.015219860149315,
negative,negative,2,j,l,,,,,,,,,5,17,107,9,,,,,,,,,,,,,,,,,,,,,,,,main,2,2,2,negative,negative,j,j,1,0.7863985000003595,349.6351360000008,350.6540494000001,350.61688219999996,None,349.6351360000008,None,349.6351360000008,None,349.6351360000008,None,351.4059631000002,None,351.4059631000002,None,351.4059631000002,None,,,,,,,,,,,230,19,Male,2022-06-03_16h24.23.383,Main,2022.1.1,60.015219860149315,
negative,negative,1,j,l,,,,,,,,,6,0,108,0,,,,,,,,,,,,,,,,,,,,,,,,main,2,2,1,negative,negative,j,j,1,0.9941545000001497,351.42690480000056,352.4300347999997,352.41092019999996,None,351.42690480000056,None,351.42690480000056,None,351.42690480000056,None,353.40050569999966,None,353.40050569999966,None,353.40050569999966,None,,,,,,,,,,,230,19,Male,2022-06-03_16h24.23.383,Main,2022.1.1,60.015219860149315,
positive,positive,1,l,j,,,,,,,,,6,1,109,2,,,,,,,,,,,,,,,,,,,,,,,,main,2,2,1,positive,positive,l,l,1,0.9280526000002283,353.42647620000025,354.43783989999974,354.4184451000001,None,353.42647620000025,None,353.42647620000025,None,353.42647620000025,None,355.33157800000134,None,355.33157800000134,None,355.33157800000134,None,,,,,,,,,,,230,19,Male,2022-06-03_16h24.23.383,Main,2022.1.1,60.015219860149315,
positive,neutral,1,l,j,,,,,,,,,6,2,110,8,,,,,,,,,,,,,,,,,,,,,,,,main,2,2,1,neutral,positive,l,l,1,0.7843893000008393,355.3521872000001,356.3606568000014,356.3419549000009,None,355.3521872000001,None,355.3521872000001,None,355.3521872000001,None,357.11994539999995,None,357.11994539999995,None,357.11994539999995,None,,,,,,,,,,,230,19,Male,2022-06-03_16h24.23.383,Main,2022.1.1,60.015219860149315,
neutral,positive,2,k,k,,,,,,,,,6,3,111,13,,,,,,,,,,,,,,,,,,,,,,,,main,2,2,2,positive,neutral,k,k,1,0.7680577999999514,357.14143220000005,358.14989460000106,358.1304725000009,None,357.14143220000005,None,357.14143220000005,None,357.14143220000005,None,358.89087130000024,None,358.89087130000024,None,358.89087130000024,None,,,,,,,,,,,230,19,Male,2022-06-03_16h24.23.383,Main,2022.1.1,60.015219860149315,
negative,positive,1,j,l,,,,,,,,,6,4,112,6,,,,,,,,,,,,,,,,,,,,,,,,main,1,1,1,positive,negative,j,j,1,0.7883942000007664,358.91194280000127,359.92800350000107,359.88939390000087,None,358.91194280000127,None,358.91194280000127,None,358.91194280000127,None,360.6844941000001,None,360.6844941000001,None,360.6844941000001,None,,,,,,,,,,,230,19,Male,2022-06-03_16h24.23.383,Main,2022.1.1,60.015219860149315,
negative,neutral,2,j,l,,,,,,,,,6,5,113,12,,,,,,,,,,,,,,,,,,,,,,,,main,1,1,2,neutral,negative,j,j,1,0.9344313999990845,360.70585720000054,361.7206533999997,361.6813649000014,None,360.70585720000054,None,360.70585720000054,None,360.70585720000054,None,362.6219660999997,None,362.6219660999997,None,362.6219660999997,None,,,,,,,,,,,230,19,Male,2022-06-03_16h24.23.383,Main,2022.1.1,60.015219860149315,
neutral,negative,2,k,k,,,,,,,,,6,6,114,16,,,,,,,,,,,,,,,,,,,,,,,,main,1,1,2,negative,neutral,k,k,1,0.7116672000011022,362.64145590000044,363.6432945000015,363.62437000000136,None,362.64145590000044,None,362.64145590000044,None,362.64145590000044,None,364.3383059999998,None,364.3383059999998,None,364.3383059999998,None,,,,,,,,,,,230,19,Male,2022-06-03_16h24.23.383,Main,2022.1.1,60.015219860149315,
negative,neutral,1,j,l,,,,,,,,,6,7,115,3,,,,,,,,,,,,,,,,,,,,,,,,main,2,2,1,neutral,negative,j,j,1,0.8415787000012642,364.3598774000002,365.37844829999995,365.3389767999997,None,364.3598774000002,None,364.3598774000002,None,364.3598774000002,None,366.18322650000135,None,366.18322650000135,None,366.18322650000135,None,,,,,,,,,,,230,19,Male,2022-06-03_16h24.23.383,Main,2022.1.1,60.015219860149315,
negative,positive,2,j,l,,,,,,,,,6,8,116,15,,,,,,,,,,,,,,,,,,,,,,,,main,1,1,2,positive,negative,j,j,1,0.7316508000003523,366.2031932000009,367.2047315,367.18610510000144,None,366.2031932000009,None,366.2031932000009,None,366.2031932000009,None,367.91745830000053,None,367.91745830000053,None,367.91745830000053,None,,,,,,,,,,,230,19,Male,2022-06-03_16h24.23.383,Main,2022.1.1,60.015219860149315,
positive,positive,2,l,j,,,,,,,,,6,9,117,11,,,,,,,,,,,,,,,,,,,,,,,,main,2,2,2,positive,positive,l,l,1,0.8047242000011465,367.94019480000134,368.9438616000007,368.9252142000005,None,367.94019480000134,None,367.94019480000134,None,367.94019480000134,None,369.72298840000093,None,369.72298840000093,None,369.72298840000093,None,,,,,,,,,,,230,19,Male,2022-06-03_16h24.23.383,Main,2022.1.1,60.015219860149315,
neutral,positive,1,k,k,,,,,,,,,6,10,118,4,,,,,,,,,,,,,,,,,,,,,,,,main,1,1,1,positive,neutral,k,k,1,0.7553810000008525,369.7444733000011,370.76240380000127,370.7245019000002,None,369.7444733000011,None,369.7444733000011,None,369.7444733000011,None,371.4842588000012,None,371.4842588000012,None,371.4842588000012,None,,,,,,,,,,,230,19,Male,2022-06-03_16h24.23.383,Main,2022.1.1,60.015219860149315,
neutral,neutral,1,k,k,,,,,,,,,6,11,119,1,,,,,,,,,,,,,,,,,,,,,,,,main,2,2,1,neutral,neutral,k,k,1,0.7768276000006153,371.5046189000004,372.50933280000027,372.49041039999975,None,371.5046189000004,None,371.5046189000004,None,371.5046189000004,None,373.26121580000125,None,373.26121580000125,None,373.26121580000125,None,,,,,,,,,,,230,19,Male,2022-06-03_16h24.23.383,Main,2022.1.1,60.015219860149315,
positive,neutral,2,l,j,,,,,,,,,6,12,120,17,,,,,,,,,,,,,,,,,,,,,,,,main,1,1,2,neutral,positive,l,l,1,0.7703172000001359,373.28147490000083,374.28276990000086,374.2640449999999,None,373.28147490000083,None,373.28147490000083,None,373.28147490000083,None,375.0365259000011,None,375.0365259000011,None,375.0365259000011,None,,,,,,,,,,,230,19,Male,2022-06-03_16h24.23.383,Main,2022.1.1,60.015219860149315,
neutral,neutral,2,k,k,,,,,,,,,6,13,121,10,,,,,,,,,,,,,,,,,,,,,,,,main,2,2,2,neutral,neutral,k,k,1,0.7429410999993706,375.0554411000012,376.0625620999999,376.0438877000015,None,375.0554411000012,None,375.0554411000012,None,375.0554411000012,None,376.7815322999997,None,376.7815322999997,None,376.7815322999997,None,,,,,,,,,,,230,19,Male,2022-06-03_16h24.23.383,Main,2022.1.1,60.015219860149315,
neutral,negative,1,k,k,,,,,,,,,6,14,122,7,,,,,,,,,,,,,,,,,,,,,,,,main,1,1,1,negative,neutral,k,k,1,0.8229922999998962,376.8063157000015,377.8079515999998,377.78888069999994,None,376.8063157000015,None,376.8063157000015,None,376.8063157000015,None,378.6066012000012,None,378.6066012000012,None,378.6066012000012,None,,,,,,,,,,,230,19,Male,2022-06-03_16h24.23.383,Main,2022.1.1,60.015219860149315,
positive,negative,2,l,j,,,,,,,,,6,15,123,14,,,,,,,,,,,,,,,,,,,,,,,,main,2,2,2,negative,positive,l,l,1,0.803605900000548,378.62778940000135,379.6363790000014,379.6164370000006,None,378.62778940000135,None,378.62778940000135,None,378.62778940000135,None,380.4150148999999,None,380.4150148999999,None,380.4150148999999,None,,,,,,,,,,,230,19,Male,2022-06-03_16h24.23.383,Main,2022.1.1,60.015219860149315,
negative,negative,2,j,l,,,,,,,,,6,16,124,9,,,,,,,,,,,,,,,,,,,,,,,,main,2,2,2,negative,negative,j,j,1,0.7908707000005961,380.433903000001,381.45088770000075,381.4122313000007,None,380.433903000001,None,380.433903000001,None,380.433903000001,None,382.20666890000047,None,382.20666890000047,None,382.20666890000047,None,,,,,,,,,,,230,19,Male,2022-06-03_16h24.23.383,Main,2022.1.1,60.015219860149315,
positive,negative,1,l,j,,,,,,,,,6,17,125,5,,,,,,,,,,,,,,,,,,,,,,,,main,2,2,1,negative,positive,l,l,1,1.0154407000009087,382.2264851,383.2363211000011,383.21669029999975,None,382.2264851,None,382.2264851,None,382.2264851,None,384.22375839999967,None,384.22375839999967,None,384.22375839999967,None,,,,,,,,,,,230,19,Male,2022-06-03_16h24.23.383,Main,2022.1.1,60.015219860149315,
neutral,positive,2,k,k,,,,,,,,,7,0,126,13,,,,,,,,,,,,,,,,,,,,,,,,main,1,1,2,positive,neutral,k,k,1,0.9058894000008877,384.2446510000009,385.2597719000005,385.2223847000005,None,384.2446510000009,None,384.2446510000009,None,384.2446510000009,None,386.1345777999997,None,386.1345777999997,None,386.1345777999997,None,,,,,,,,,,,230,19,Male,2022-06-03_16h24.23.383,Main,2022.1.1,60.015219860149315,
neutral,negative,2,k,k,,,,,,,,,7,1,127,16,,,,,,,,,,,,,,,,,,,,,,,,main,1,1,2,negative,neutral,k,k,1,0.681542399999671,386.1561794999998,387.17625920000137,387.1377323000015,None,386.1561794999998,None,386.1561794999998,None,386.1561794999998,None,387.8184987000006,None,387.8184987000006,None,387.8184987000006,None,,,,,,,,,,,230,19,Male,2022-06-03_16h24.23.383,Main,2022.1.1,60.015219860149315,
negative,positive,2,j,l,,,,,,,,,7,2,128,15,,,,,,,,,,,,,,,,,,,,,,,,main,2,2,2,positive,negative,j,j,1,0.8105597000012494,387.83825480000087,388.8530948000007,388.8335691000011,None,387.83825480000087,None,387.83825480000087,None,387.83825480000087,None,389.63150909999985,None,389.63150909999985,None,389.63150909999985,None,,,,,,,,,,,230,19,Male,2022-06-03_16h24.23.383,Main,2022.1.1,60.015219860149315,
positive,negative,1,l,j,,,,,,,,,7,3,129,5,,,,,,,,,,,,,,,,,,,,,,,,main,2,2,1,negative,positive,l,l,1,0.9163496000001032,389.65169100000094,390.6565748000012,390.63772810000046,None,389.65169100000094,None,389.65169100000094,None,389.65169100000094,None,391.5500685000008,None,391.5500685000008,None,391.5500685000008,None,,,,,,,,,,,230,19,Male,2022-06-03_16h24.23.383,Main,2022.1.1,60.015219860149315,
positive,positive,2,l,j,,,,,,,,,7,4,130,11,,,,,,,,,,,,,,,,,,,,,,,,main,2,2,2,positive,positive,l,k,0,0.8272174000012456,391.5714215000007,392.5773014000006,392.55794270000115,None,391.5714215000007,None,391.5714215000007,None,391.5714215000007,None,393.3867986000005,None,393.3867986000005,None,393.3867986000005,None,,,,,,,,,,,230,19,Male,2022-06-03_16h24.23.383,Main,2022.1.1,60.015219860149315,
positive,neutral,2,l,j,,,,,,,,,7,5,131,17,,,,,,,,,,,,,,,,,,,,,,,,main,2,2,2,neutral,positive,l,l,1,0.7898543999999674,394.410225900001,395.42272200000116,395.40336860000025,None,394.410225900001,None,394.410225900001,None,394.410225900001,None,396.1817745000009,None,396.1817745000009,None,396.1817745000009,None,,,,,,,,,,,230,19,Male,2022-06-03_16h24.23.383,Main,2022.1.1,60.015219860149315,
negative,negative,1,j,l,,,,,,,,,7,6,132,0,,,,,,,,,,,,,,,,,,,,,,,,main,1,1,1,negative,negative,j,j,1,0.8666689999990922,396.20310430000063,397.21836200000143,397.179020900001,None,396.20310430000063,None,396.20310430000063,None,396.20310430000063,None,398.0515649999999,None,398.0515649999999,None,398.0515649999999,None,,,,,,,,,,,230,19,Male,2022-06-03_16h24.23.383,Main,2022.1.1,60.015219860149315,
neutral,positive,1,k,k,,,,,,,,,7,7,133,4,,,,,,,,,,,,,,,,,,,,,,,,main,1,1,1,positive,neutral,k,k,1,0.8529920000000857,398.07320679999975,399.0764369999997,399.05789970000114,None,398.07320679999975,None,398.07320679999975,None,398.07320679999975,None,399.9078929999998,None,399.9078929999998,None,399.9078929999998,None,,,,,,,,,,,230,19,Male,2022-06-03_16h24.23.383,Main,2022.1.1,60.015219860149315,
positive,negative,2,l,j,,,,,,,,,7,8,134,14,,,,,,,,,,,,,,,,,,,,,,,,main,2,2,2,negative,positive,l,l,1,0.7794238000005862,399.9312256000012,400.95082189999994,400.9113680999999,None,399.9312256000012,None,399.9312256000012,None,399.9312256000012,None,401.6899965000013,None,401.6899965000013,None,401.6899965000013,None,,,,,,,,,,,230,19,Male,2022-06-03_16h24.23.383,Main,2022.1.1,60.015219860149315,
neutral,negative,1,k,k,,,,,,,,,7,9,135,7,,,,,,,,,,,,,,,,,,,,,,,,main,2,2,1,negative,neutral,k,k,1,0.8124920999998722,401.71456970000145,402.7262554000008,402.68683390000115,None,401.71456970000145,None,401.71456970000145,None,401.71456970000145,None,403.5049354000004,None,403.5049354000004,None,403.5049354000004,None,,,,,,,,,,,230,19,Male,2022-06-03_16h24.23.383,Main,2022.1.1,60.015219860149315,
positive,neutral,1,l,j,,,,,,,,,7,10,136,8,,,,,,,,,,,,,,,,,,,,,,,,main,2,2,1,neutral,positive,l,l,1,0.8675614999992831,403.52618670000084,404.54349809999985,404.5049319000009,None,403.52618670000084,None,403.52618670000084,None,403.52618670000084,None,405.37716420000123,None,405.37716420000123,None,405.37716420000123,None,,,,,,,,,,,230,19,Male,2022-06-03_16h24.23.383,Main,2022.1.1,60.015219860149315,
negative,neutral,1,j,l,,,,,,,,,7,11,137,3,,,,,,,,,,,,,,,,,,,,,,,,main,1,1,1,neutral,negative,j,j,1,0.6245247000006202,405.39731200000097,406.4030548999999,406.38371650000045,None,405.39731200000097,None,405.39731200000097,None,405.39731200000097,None,407.0030021000004,None,407.0030021000004,None,407.0030021000004,None,,,,,,,,,,,230,19,Male,2022-06-03_16h24.23.383,Main,2022.1.1,60.015219860149315,
neutral,neutral,1,k,k,,,,,,,,,7,12,138,1,,,,,,,,,,,,,,,,,,,,,,,,main,1,1,1,neutral,neutral,k,k,1,0.8261160999991262,407.02305650000017,408.0404534999998,408.00248190000093,None,407.02305650000017,None,407.02305650000017,None,407.02305650000017,None,408.8322740000005,None,408.8322740000005,None,408.8322740000005,None,,,,,,,,,,,230,19,Male,2022-06-03_16h24.23.383,Main,2022.1.1,60.015219860149315,
negative,neutral,2,j,l,,,,,,,,,7,13,139,12,,,,,,,,,,,,,,,,,,,,,,,,main,1,1,2,neutral,negative,j,j,1,1.2882893999994849,408.85372090000055,409.85691510000106,409.837988700001,None,408.85372090000055,None,408.85372090000055,None,408.85372090000055,None,411.12406740000023,None,411.12406740000023,None,411.12406740000023,None,,,,,,,,,,,230,19,Male,2022-06-03_16h24.23.383,Main,2022.1.1,60.015219860149315,
negative,positive,1,j,l,,,,,,,,,7,14,140,6,,,,,,,,,,,,,,,,,,,,,,,,main,1,1,1,positive,negative,j,j,1,0.982115499999054,411.14905870000075,412.1566789999997,412.13727389999985,None,411.14905870000075,None,411.14905870000075,None,411.14905870000075,None,413.1106597,None,413.1106597,None,413.1106597,None,,,,,,,,,,,230,19,Male,2022-06-03_16h24.23.383,Main,2022.1.1,60.015219860149315,
negative,negative,2,j,l,,,,,,,,,7,15,141,9,,,,,,,,,,,,,,,,,,,,,,,,main,2,2,2,negative,negative,j,j,1,0.8258232999996835,413.1308347000013,414.14641870000014,414.10820740000054,None,413.1308347000013,None,413.1308347000013,None,413.1308347000013,None,414.9372631999997,None,414.9372631999997,None,414.9372631999997,None,,,,,,,,,,,230,19,Male,2022-06-03_16h24.23.383,Main,2022.1.1,60.015219860149315,
neutral,neutral,2,k,k,,,,,,,,,7,16,142,10,,,,,,,,,,,,,,,,,,,,,,,,main,2,2,2,neutral,neutral,k,k,1,0.6320730000006733,414.9578988000012,415.96556969999983,415.9462643000006,None,414.9578988000012,None,414.9578988000012,None,414.9578988000012,None,416.57075190000086,None,416.57075190000086,None,416.57075190000086,None,,,,,,,,,,,230,19,Male,2022-06-03_16h24.23.383,Main,2022.1.1,60.015219860149315,
positive,positive,1,l,j,,,,,,,,,7,17,143,2,,,,,,,,,,,,,,,,,,,,,,,,main,2,2,1,positive,positive,l,l,1,0.7023403999992297,416.5922344999999,417.61291359999996,417.57369990000007,None,416.5922344999999,None,416.5922344999999,None,416.5922344999999,None,418.27812170000124,None,418.27812170000124,None,418.27812170000124,None,,,,,,,,,,,230,19,Male,2022-06-03_16h24.23.383,Main,2022.1.1,60.015219860149315,
neutral,neutral,1,k,k,,,,,,,,,8,0,144,1,,,,,,,,,,,,,,,,,,,,,,,,main,1,1,1,neutral,neutral,k,k,1,0.7262556999994558,418.2984527000008,419.3103398000003,419.27247680000073,None,418.2984527000008,None,418.2984527000008,None,418.2984527000008,None,420.0054952000011,None,420.0054952000011,None,420.0054952000011,None,,,,,,,,,,,230,19,Male,2022-06-03_16h24.23.383,Main,2022.1.1,60.015219860149315,
positive,positive,2,l,j,,,,,,,,,8,1,145,11,,,,,,,,,,,,,,,,,,,,,,,,main,2,2,2,positive,positive,l,l,1,0.695836099999724,420.02967850000095,421.03956930000095,421.0012099000014,None,420.02967850000095,None,420.02967850000095,None,420.02967850000095,None,421.70348890000076,None,421.70348890000076,None,421.70348890000076,None,,,,,,,,,,,230,19,Male,2022-06-03_16h24.23.383,Main,2022.1.1,60.015219860149315,
neutral,neutral,2,k,k,,,,,,,,,8,2,146,10,,,,,,,,,,,,,,,,,,,,,,,,main,2,2,2,neutral,neutral,k,k,1,0.7567906999993284,421.7240767000003,422.72868370000106,422.7089895000008,None,421.7240767000003,None,421.7240767000003,None,421.7240767000003,None,423.4645581000006,None,423.4645581000006,None,423.4645581000006,None,,,,,,,,,,,230,19,Male,2022-06-03_16h24.23.383,Main,2022.1.1,60.015219860149315,
positive,neutral,1,l,j,,,,,,,,,8,3,147,8,,,,,,,,,,,,,,,,,,,,,,,,main,1,1,1,neutral,positive,l,l,1,0.811281099999178,423.484883000001,424.48687560000144,424.4680634000015,None,423.484883000001,None,423.484883000001,None,423.484883000001,None,425.27876099999975,None,425.27876099999975,None,425.27876099999975,None,,,,,,,,,,,230,19,Male,2022-06-03_16h24.23.383,Main,2022.1.1,60.015219860149315,
neutral,negative,1,k,k,,,,,,,,,8,4,148,7,,,,,,,,,,,,,,,,,,,,,,,,main,2,2,1,negative,neutral,k,k,1,0.8009662999993452,425.3008778000003,426.30342030000065,426.2844599,None,425.3008778000003,None,425.3008778000003,None,425.3008778000003,None,427.0832142000001,None,427.0832142000001,None,427.0832142000001,None,,,,,,,,,,,230,19,Male,2022-06-03_16h24.23.383,Main,2022.1.1,60.015219860149315,
neutral,positive,2,k,k,,,,,,,,,8,5,149,13,,,,,,,,,,,,,,,,,,,,,,,,main,1,1,2,positive,neutral,k,k,1,0.7137003000007098,427.1034760000002,428.1220680000006,428.0841739000007,None,427.1034760000002,None,427.1034760000002,None,427.1034760000002,None,428.79849120000125,None,428.79849120000125,None,428.79849120000125,None,,,,,,,,,,,230,19,Male,2022-06-03_16h24.23.383,Main,2022.1.1,60.015219860149315,
positive,negative,2,l,j,,,,,,,,,8,6,150,14,,,,,,,,,,,,,,,,,,,,,,,,main,2,2,2,negative,positive,l,l,1,0.7980141000007279,428.8205013000006,429.8276426000011,429.8080952,None,428.8205013000006,None,428.8205013000006,None,428.8205013000006,None,430.60029670000057,None,430.60029670000057,None,430.60029670000057,None,,,,,,,,,,,230,19,Male,2022-06-03_16h24.23.383,Main,2022.1.1,60.015219860149315,
neutral,negative,2,k,k,,,,,,,,,8,7,151,16,,,,,,,,,,,,,,,,,,,,,,,,main,2,2,2,negative,neutral,k,k,1,0.734528599999976,430.62055280000095,431.6231963000009,431.60299940000004,None,430.62055280000095,None,430.62055280000095,None,430.62055280000095,None,432.3374467000014,None,432.3374467000014,None,432.3374467000014,None,,,,,,,,,,,230,19,Male,2022-06-03_16h24.23.383,Main,2022.1.1,60.015219860149315,
neutral,positive,1,k,k,,,,,,,,,8,8,152,4,,,,,,,,,,,,,,,,,,,,,,,,main,2,2,1,positive,neutral,k,k,1,0.6693927999986045,432.35970989999987,433.36769240000103,433.348920800001,None,432.35970989999987,None,432.35970989999987,None,432.35970989999987,None,434.0116147999999,None,434.0116147999999,None,434.0116147999999,None,,,,,,,,,,,230,19,Male,2022-06-03_16h24.23.383,Main,2022.1.1,60.015219860149315,
negative,positive,1,j,l,,,,,,,,,8,9,153,6,,,,,,,,,,,,,,,,,,,,,,,,main,2,2,1,positive,negative,j,l,0,0.72952499999883,434.0318141000007,435.06099760000143,435.0133553000014,None,434.0318141000007,None,434.0318141000007,None,434.0318141000007,None,435.7504740000004,None,435.7504740000004,None,435.7504740000004,None,,,,,,,,,,,230,19,Male,2022-06-03_16h24.23.383,Main,2022.1.1,60.015219860149315,
negative,positive,2,j,l,,,,,,,,,8,10,154,15,,,,,,,,,,,,,,,,,,,,,,,,main,1,1,2,positive,negative,j,j,1,1.1865677000005235,436.7716567000007,437.77391850000095,437.7549295000008,None,436.7716567000007,None,436.7716567000007,None,436.7716567000007,None,438.9399900999999,None,438.9399900999999,None,438.9399900999999,None,,,,,,,,,,,230,19,Male,2022-06-03_16h24.23.383,Main,2022.1.1,60.015219860149315,
positive,positive,1,l,j,,,,,,,,,8,11,155,2,,,,,,,,,,,,,,,,,,,,,,,,main,2,2,1,positive,positive,l,l,1,0.8052512999984174,438.9607498000005,439.97093160000077,439.9516937999997,None,438.9607498000005,None,438.9607498000005,None,438.9607498000005,None,440.74734180000104,None,440.74734180000104,None,440.74734180000104,None,,,,,,,,,,,230,19,Male,2022-06-03_16h24.23.383,Main,2022.1.1,60.015219860149315,
negative,neutral,2,j,l,,,,,,,,,8,12,156,12,,,,,,,,,,,,,,,,,,,,,,,,main,2,2,2,neutral,negative,j,j,1,0.8732894000004308,440.76957140000013,441.7737304000002,441.7552938000008,None,440.76957140000013,None,440.76957140000013,None,440.76957140000013,None,442.6259841000012,None,442.6259841000012,None,442.6259841000012,None,,,,,,,,,,,230,19,Male,2022-06-03_16h24.23.383,Main,2022.1.1,60.015219860149315,
negative,negative,2,j,l,,,,,,,,,8,13,157,9,,,,,,,,,,,,,,,,,,,,,,,,main,1,1,2,negative,negative,j,j,1,0.6941274000000703,442.64592000000084,443.66076350000003,443.62210290000075,None,442.64592000000084,None,442.64592000000084,None,442.64592000000084,None,444.3214855999997,None,444.3214855999997,None,444.3214855999997,None,,,,,,,,,,,230,19,Male,2022-06-03_16h24.23.383,Main,2022.1.1,60.015219860149315,
negative,neutral,1,j,l,,,,,,,,,8,14,158,3,,,,,,,,,,,,,,,,,,,,,,,,main,1,1,1,neutral,negative,j,j,1,0.8466914000000543,444.3416186000013,445.3628048999999,445.32369260000087,None,444.3416186000013,None,444.3416186000013,None,444.3416186000013,None,446.17249590000046,None,446.17249590000046,None,446.17249590000046,None,,,,,,,,,,,230,19,Male,2022-06-03_16h24.23.383,Main,2022.1.1,60.015219860149315,
negative,negative,1,j,l,,,,,,,,,8,15,159,0,,,,,,,,,,,,,,,,,,,,,,,,main,2,2,1,negative,negative,j,l,0,0.8935588999993342,446.19316960000106,447.2096429000012,447.1704905000006,None,446.19316960000106,None,446.19316960000106,None,446.19316960000106,None,448.0722424000014,None,448.0722424000014,None,448.0722424000014,None,,,,,,,,,,,230,19,Male,2022-06-03_16h24.23.383,Main,2022.1.1,60.015219860149315,
positive,neutral,2,l,j,,,,,,,,,8,16,160,17,,,,,,,,,,,,,,,,,,,,,,,,main,2,2,2,neutral,positive,l,l,1,1.3848662000000331,449.0879859000015,450.1089053000014,450.0700652000014,None,449.0879859000015,None,449.0879859000015,None,449.0879859000015,None,451.4512421000001,None,451.4512421000001,None,451.4512421000001,None,,,,,,,,,,,230,19,Male,2022-06-03_16h24.23.383,Main,2022.1.1,60.015219860149315,
positive,negative,1,l,j,,,,,,,,,8,17,161,5,,,,,,,,,,,,,,,,,,,,,,,,main,2,2,1,negative,positive,l,l,1,0.9200113999995665,451.4723195000006,452.48179710000113,452.4628399000012,None,451.4723195000006,None,451.4723195000006,None,451.4723195000006,None,453.37631619999974,None,453.37631619999974,None,453.37631619999974,None,,,,,,,,,,,230,19,Male,2022-06-03_16h24.23.383,Main,2022.1.1,60.015219860149315,
negative,positive,2,j,l,,,,,,,,,9,0,162,15,,,,,,,,,,,,,,,,,,,,,,,,main,1,1,2,positive,negative,j,j,1,0.7762185000010504,453.3979756000008,454.4184995000014,454.3793220000007,None,453.3979756000008,None,453.3979756000008,None,453.3979756000008,None,455.1575709999999,None,455.1575709999999,None,455.1575709999999,None,,,,,,,,,,,230,19,Male,2022-06-03_16h24.23.383,Main,2022.1.1,60.015219860149315,
neutral,neutral,2,k,k,,,,,,,,,9,1,163,10,,,,,,,,,,,,,,,,,,,,,,,,main,2,2,2,neutral,neutral,k,k,1,0.8772523000006913,455.17775390000133,456.1969583000009,456.15707620000103,None,455.17775390000133,None,455.17775390000133,None,455.17775390000133,None,457.0375025000014,None,457.0375025000014,None,457.0375025000014,None,,,,,,,,,,,230,19,Male,2022-06-03_16h24.23.383,Main,2022.1.1,60.015219860149315,
positive,neutral,1,l,j,,,,,,,,,9,2,164,8,,,,,,,,,,,,,,,,,,,,,,,,main,1,1,1,neutral,positive,l,l,1,0.784378000000288,457.05754230000093,458.0713145999998,458.0333461000009,None,457.05754230000093,None,457.05754230000093,None,457.05754230000093,None,458.82432350000107,None,458.82432350000107,None,458.82432350000107,None,,,,,,,,,,,230,19,Male,2022-06-03_16h24.23.383,Main,2022.1.1,60.015219860149315,
neutral,negative,2,k,k,,,,,,,,,9,3,165,16,,,,,,,,,,,,,,,,,,,,,,,,main,1,1,2,negative,neutral,k,k,1,0.9036581000000297,458.8447105000014,459.8607245000003,459.82177440000123,None,458.8447105000014,None,458.8447105000014,None,458.8447105000014,None,460.72882450000014,None,460.72882450000014,None,460.72882450000014,None,,,,,,,,,,,230,19,Male,2022-06-03_16h24.23.383,Main,2022.1.1,60.015219860149315,
negative,negative,2,j,l,,,,,,,,,9,4,166,9,,,,,,,,,,,,,,,,,,,,,,,,main,1,1,2,negative,negative,j,j,1,0.9473953999986406,460.7510835000012,461.7681487000009,461.73025980000057,None,460.7510835000012,None,460.7510835000012,None,460.7510835000012,None,462.6784915000009,None,462.6784915000009,None,462.6784915000009,None,,,,,,,,,,,230,19,Male,2022-06-03_16h24.23.383,Main,2022.1.1,60.015219860149315,
negative,neutral,2,j,l,,,,,,,,,9,5,167,12,,,,,,,,,,,,,,,,,,,,,,,,main,1,1,2,neutral,negative,j,j,1,0.6596491000000242,462.7017715000002,463.7048317000008,463.6861122999999,None,462.7017715000002,None,462.7017715000002,None,462.7017715000002,None,464.3428956999998,None,464.3428956999998,None,464.3428956999998,None,,,,,,,,,,,230,19,Male,2022-06-03_16h24.23.383,Main,2022.1.1,60.015219860149315,
positive,positive,1,l,j,,,,,,,,,9,6,168,2,,,,,,,,,,,,,,,,,,,,,,,,main,2,2,1,positive,positive,l,l,1,0.8966713999998319,464.36347840000053,465.36857580000105,465.3490375000001,None,464.36347840000053,None,464.36347840000053,None,464.36347840000053,None,466.2438118000011,None,466.2438118000011,None,466.2438118000011,None,,,,,,,,,,,230,19,Male,2022-06-03_16h24.23.383,Main,2022.1.1,60.015219860149315,
neutral,positive,1,k,k,,,,,,,,,9,7,169,4,,,,,,,,,,,,,,,,,,,,,,,,main,2,2,1,positive,neutral,k,k,1,0.8351679999996122,466.2659788000001,467.2821801000009,467.2459036,None,466.2659788000001,None,466.2659788000001,None,466.2659788000001,None,468.0823523000001,None,468.0823523000001,None,468.0823523000001,None,,,,,,,,,,,230,19,Male,2022-06-03_16h24.23.383,Main,2022.1.1,60.015219860149315,
neutral,neutral,1,k,k,,,,,,,,,9,8,170,1,,,,,,,,,,,,,,,,,,,,,,,,main,2,2,1,neutral,neutral,k,k,1,0.7129249999998137,468.10325400000147,469.12252009999975,469.08400410000104,None,468.10325400000147,None,468.10325400000147,None,468.10325400000147,None,469.7976085000011,None,469.7976085000011,None,469.7976085000011,None,,,,,,,,,,,230,19,Male,2022-06-03_16h24.23.383,Main,2022.1.1,60.015219860149315,
neutral,positive,2,k,k,,,,,,,,,9,9,171,13,,,,,,,,,,,,,,,,,,,,,,,,main,1,1,2,positive,neutral,k,k,1,0.749290400000973,469.81966869999997,470.83459700000094,470.79584690000047,None,469.81966869999997,None,469.81966869999997,None,469.81966869999997,None,471.54887360000083,None,471.54887360000083,None,471.54887360000083,None,,,,,,,,,,,230,19,Male,2022-06-03_16h24.23.383,Main,2022.1.1,60.015219860149315,
neutral,negative,1,k,k,,,,,,,,,9,10,172,7,,,,,,,,,,,,,,,,,,,,,,,,main,1,1,1,negative,neutral,k,k,1,0.6761105000005045,471.5751541999998,472.5925691000011,472.5532686000006,None,471.5751541999998,None,471.5751541999998,None,471.5751541999998,None,473.22851780000036,None,473.22851780000036,None,473.22851780000036,None,,,,,,,,,,,230,19,Male,2022-06-03_16h24.23.383,Main,2022.1.1,60.015219860149315,
positive,negative,1,l,j,,,,,,,,,9,11,173,5,,,,,,,,,,,,,,,,,,,,,,,,main,2,2,1,negative,positive,l,l,1,0.7192383000001428,473.25055930000053,474.2683431000005,474.22965079999994,None,473.25055930000053,None,473.25055930000053,None,473.25055930000053,None,474.94905450000095,None,474.94905450000095,None,474.94905450000095,None,,,,,,,,,,,230,19,Male,2022-06-03_16h24.23.383,Main,2022.1.1,60.015219860149315,
positive,neutral,2,l,j,,,,,,,,,9,12,174,17,,,,,,,,,,,,,,,,,,,,,,,,main,2,2,2,neutral,positive,l,l,1,0.6131387000004906,474.9719427,475.98416069999985,475.96504749999986,None,474.9719427,None,474.9719427,None,474.9719427,None,476.56693410000133,None,476.56693410000133,None,476.56693410000133,None,,,,,,,,,,,230,19,Male,2022-06-03_16h24.23.383,Main,2022.1.1,60.015219860149315,
positive,negative,2,l,j,,,,,,,,,9,13,175,14,,,,,,,,,,,,,,,,,,,,,,,,main,2,2,2,negative,positive,l,l,1,0.6370043000006262,476.5867474000006,477.60497150000083,477.5664256,None,476.5867474000006,None,476.5867474000006,None,476.5867474000006,None,478.2080138000003,None,478.2080138000003,None,478.2080138000003,None,,,,,,,,,,,230,19,Male,2022-06-03_16h24.23.383,Main,2022.1.1,60.015219860149315,
positive,positive,2,l,j,,,,,,,,,9,14,176,11,,,,,,,,,,,,,,,,,,,,,,,,main,2,2,2,positive,positive,l,l,1,0.6703372000010859,478.22876820000056,479.2320092000009,479.21261980000054,None,478.22876820000056,None,478.22876820000056,None,478.22876820000056,None,479.8806822999997,None,479.8806822999997,None,479.8806822999997,None,,,,,,,,,,,230,19,Male,2022-06-03_16h24.23.383,Main,2022.1.1,60.015219860149315,
negative,neutral,1,j,l,,,,,,,,,9,15,177,3,,,,,,,,,,,,,,,,,,,,,,,,main,2,2,1,neutral,negative,j,j,1,0.5495639000000665,479.905262100001,480.9077565000007,480.8879142000005,None,479.905262100001,None,479.905262100001,None,479.905262100001,None,481.43501940000004,None,481.43501940000004,None,481.43501940000004,None,,,,,,,,,,,230,19,Male,2022-06-03_16h24.23.383,Main,2022.1.1,60.015219860149315,
negative,positive,1,j,l,,,,,,,,,9,16,178,6,,,,,,,,,,,,,,,,,,,,,,,,main,1,1,1,positive,negative,j,j,1,0.6464304000000993,481.45657420000134,482.46094319999975,482.44159260000015,None,481.45657420000134,None,481.45657420000134,None,481.45657420000134,None,483.08367259999994,None,483.08367259999994,None,483.08367259999994,None,,,,,,,,,,,230,19,Male,2022-06-03_16h24.23.383,Main,2022.1.1,60.015219860149315,
negative,negative,1,j,l,,,,,,,,,9,17,179,0,,,,,,,,,,,,,,,,,,,,,,,,main,2,2,1,negative,negative,j,j,1,0.9750452000007499,483.10330910000084,484.11146050000025,484.09203479999996,None,483.10330910000084,None,483.10330910000084,None,483.10330910000084,None,485.0602806000008,None,485.0602806000008,None,485.0602806000008,None,,,,,,,,,,,230,19,Male,2022-06-03_16h24.23.383,Main,2022.1.1,60.015219860149315,
negative,positive,1,j,l,,,,,,,,,10,0,180,6,,,,,,,,,,,,,,,,,,,,,,,,main,2,2,1,positive,negative,j,j,1,0.6059781000003568,485.0827145000003,486.08774410000115,486.0685204000001,None,485.0827145000003,None,485.0827145000003,None,485.0827145000003,None,486.67143910000067,None,486.67143910000067,None,486.67143910000067,None,,,,,,,,,,,230,19,Male,2022-06-03_16h24.23.383,Main,2022.1.1,60.015219860149315,
positive,positive,1,l,j,,,,,,,,,10,1,181,2,,,,,,,,,,,,,,,,,,,,,,,,main,1,1,1,positive,positive,l,l,1,0.829349399999046,486.69195930000024,487.71047,487.6732404000013,None,486.69195930000024,None,486.69195930000024,None,486.69195930000024,None,488.50165100000066,None,488.50165100000066,None,488.50165100000066,None,,,,,,,,,,,230,19,Male,2022-06-03_16h24.23.383,Main,2022.1.1,60.015219860149315,
neutral,negative,2,k,k,,,,,,,,,10,2,182,16,,,,,,,,,,,,,,,,,,,,,,,,main,1,1,2,negative,neutral,k,k,1,0.6248433000000659,488.52267660000143,489.52837929999987,489.50946509999994,None,488.52267660000143,None,488.52267660000143,None,488.52267660000143,None,490.12868830000133,None,490.12868830000133,None,490.12868830000133,None,,,,,,,,,,,230,19,Male,2022-06-03_16h24.23.383,Main,2022.1.1,60.015219860149315,
neutral,positive,2,k,k,,,,,,,,,10,3,183,13,,,,,,,,,,,,,,,,,,,,,,,,main,2,2,2,positive,neutral,k,k,1,0.7185603999987507,490.1504158000007,491.16908160000094,491.1295316000014,None,490.1504158000007,None,490.1504158000007,None,490.1504158000007,None,491.85215439999973,None,491.85215439999973,None,491.85215439999973,None,,,,,,,,,,,230,19,Male,2022-06-03_16h24.23.383,Main,2022.1.1,60.015219860149315,
neutral,negative,1,k,k,,,,,,,,,10,4,184,7,,,,,,,,,,,,,,,,,,,,,,,,main,2,2,1,negative,neutral,k,k,1,0.6745813999987149,491.87568120000105,492.8898592000005,492.8703385000008,None,491.87568120000105,None,491.87568120000105,None,491.87568120000105,None,493.52678720000057,None,493.52678720000057,None,493.52678720000057,None,,,,,,,,,,,230,19,Male,2022-06-03_16h24.23.383,Main,2022.1.1,60.015219860149315,
positive,neutral,2,l,j,,,,,,,,,10,5,185,17,,,,,,,,,,,,,,,,,,,,,,,,main,1,1,2,neutral,positive,l,l,1,0.7753295000002254,493.5475834000008,494.5560217000002,494.5367647000003,None,493.5475834000008,None,493.5475834000008,None,493.5475834000008,None,495.3050404999996,None,495.3050404999996,None,495.3050404999996,None,,,,,,,,,,,230,19,Male,2022-06-03_16h24.23.383,Main,2022.1.1,60.015219860149315,
neutral,neutral,1,k,k,,,,,,,,,10,6,186,1,,,,,,,,,,,,,,,,,,,,,,,,main,1,1,1,neutral,neutral,k,k,1,0.7093375000004016,495.3283654000006,496.3468463999998,496.3091863999998,None,495.3283654000006,None,495.3283654000006,None,495.3283654000006,None,497.02072940000124,None,497.02072940000124,None,497.02072940000124,None,,,,,,,,,,,230,19,Male,2022-06-03_16h24.23.383,Main,2022.1.1,60.015219860149315,
positive,neutral,1,l,j,,,,,,,,,10,7,187,8,,,,,,,,,,,,,,,,,,,,,,,,main,2,2,1,neutral,positive,l,l,1,0.8764064000006329,497.04186330000084,498.0439698000009,498.02477230000113,None,497.04186330000084,None,497.04186330000084,None,497.04186330000084,None,498.8980733999999,None,498.8980733999999,None,498.8980733999999,None,,,,,,,,,,,230,19,Male,2022-06-03_16h24.23.383,Main,2022.1.1,60.015219860149315,
neutral,positive,1,k,k,,,,,,,,,10,8,188,4,,,,,,,,,,,,,,,,,,,,,,,,main,2,2,1,positive,neutral,k,k,1,0.847143999999389,498.9180833999999,499.93037730000106,499.8918854000003,None,498.9180833999999,None,498.9180833999999,None,498.9180833999999,None,500.7489094000013,None,500.7489094000013,None,500.7489094000013,None,,,,,,,,,,,230,19,Male,2022-06-03_16h24.23.383,Main,2022.1.1,60.015219860149315,
positive,positive,2,l,j,,,,,,,,,10,9,189,11,,,,,,,,,,,,,,,,,,,,,,,,main,2,2,2,positive,positive,l,l,1,0.7742892999995092,500.7717682000002,501.7868090000011,501.7465794,None,500.7717682000002,None,500.7717682000002,None,500.7717682000002,None,502.5239308000002,None,502.5239308000002,None,502.5239308000002,None,,,,,,,,,,,230,19,Male,2022-06-03_16h24.23.383,Main,2022.1.1,60.015219860149315,
negative,negative,2,j,l,,,,,,,,,10,10,190,9,,,,,,,,,,,,,,,,,,,,,,,,main,2,2,2,negative,negative,j,j,1,0.9486056000005192,502.5441694000001,503.5489725000007,503.52981490000093,None,502.5441694000001,None,502.5441694000001,None,502.5441694000001,None,504.4751366000002,None,504.4751366000002,None,504.4751366000002,None,,,,,,,,,,,230,19,Male,2022-06-03_16h24.23.383,Main,2022.1.1,60.015219860149315,
negative,positive,2,j,l,,,,,,,,,10,11,191,15,,,,,,,,,,,,,,,,,,,,,,,,main,1,1,2,positive,negative,j,j,1,0.7736748999996053,504.49691090000124,505.51558000000114,505.4772690000009,None,504.49691090000124,None,504.49691090000124,None,504.49691090000124,None,506.25272460000105,None,506.25272460000105,None,506.25272460000105,None,,,,,,,,,,,230,19,Male,2022-06-03_16h24.23.383,Main,2022.1.1,60.015219860149315,
positive,negative,2,l,j,,,,,,,,,10,12,192,14,,,,,,,,,,,,,,,,,,,,,,,,main,2,2,2,negative,positive,l,l,1,0.7730513000005885,506.27426170000035,507.2929006000013,507.2544796000002,None,506.27426170000035,None,506.27426170000035,None,506.27426170000035,None,508.02676270000137,None,508.02676270000137,None,508.02676270000137,None,,,,,,,,,,,230,19,Male,2022-06-03_16h24.23.383,Main,2022.1.1,60.015219860149315,
negative,neutral,1,j,l,,,,,,,,,10,13,193,3,,,,,,,,,,,,,,,,,,,,,,,,main,1,1,1,neutral,negative,j,j,1,0.9702575000010256,508.04875450000145,509.0581028000015,509.0395690000005,None,508.04875450000145,None,508.04875450000145,None,508.04875450000145,None,510.00344760000024,None,510.00344760000024,None,510.00344760000024,None,,,,,,,,,,,230,19,Male,2022-06-03_16h24.23.383,Main,2022.1.1,60.015219860149315,
negative,negative,1,j,l,,,,,,,,,10,14,194,0,,,,,,,,,,,,,,,,,,,,,,,,main,1,1,1,negative,negative,j,j,1,0.7121812000004866,510.0247724000001,511.0368775000006,510.99724100000094,None,510.0247724000001,None,510.0247724000001,None,510.0247724000001,None,511.7198631000012,None,511.7198631000012,None,511.7198631000012,None,,,,,,,,,,,230,19,Male,2022-06-03_16h24.23.383,Main,2022.1.1,60.015219860149315,
neutral,neutral,2,k,k,,,,,,,,,10,15,195,10,,,,,,,,,,,,,,,,,,,,,,,,main,2,2,2,neutral,neutral,k,k,1,0.792446800000107,511.7415964000011,512.758644900001,512.7202348999999,None,511.7415964000011,None,511.7415964000011,None,511.7415964000011,None,513.5163113000001,None,513.5163113000001,None,513.5163113000001,None,,,,,,,,,,,230,19,Male,2022-06-03_16h24.23.383,Main,2022.1.1,60.015219860149315,
positive,negative,1,l,j,,,,,,,,,10,16,196,5,,,,,,,,,,,,,,,,,,,,,,,,main,2,2,1,negative,positive,l,l,1,0.9322033999997075,513.536490800001,514.5392441000004,514.5199540000012,None,513.536490800001,None,513.536490800001,None,513.536490800001,None,515.4510220000013,None,515.4510220000013,None,515.4510220000013,None,,,,,,,,,,,230,19,Male,2022-06-03_16h24.23.383,Main,2022.1.1,60.015219860149315,
negative,neutral,2,j,l,,,,,,,,,10,17,197,12,,,,,,,,,,,,,,,,,,,,,,,,main,2,2,2,neutral,negative,j,j,1,0.8080533000011201,515.4724172000006,516.491556500001,516.4528172999999,None,515.4724172000006,None,515.4724172000006,None,515.4724172000006,None,517.2595967,None,517.2595967,None,517.2595967,None,,,,,,,,,,,230,19,Male,2022-06-03_16h24.23.383,Main,2022.1.1,60.015219860149315,
neutral,neutral,2,k,k,,,,,,,,,11,0,198,10,,,,,,,,,,,,,,,,,,,,,,,,main,1,1,2,neutral,neutral,k,k,1,0.785942000000432,517.2811345000009,518.2968488000006,518.2582032000009,None,517.2811345000009,None,517.2811345000009,None,517.2811345000009,None,519.0503558000003,None,519.0503558000003,None,519.0503558000003,None,,,,,,,,,,,230,19,Male,2022-06-03_16h24.23.383,Main,2022.1.1,60.015219860149315,
neutral,negative,1,k,k,,,,,,,,,11,1,199,7,,,,,,,,,,,,,,,,,,,,,,,,main,1,1,1,negative,neutral,k,k,1,0.7573710000015126,519.0708298999998,520.0725004000014,520.0537908000006,None,519.0708298999998,None,519.0708298999998,None,519.0708298999998,None,520.8091884000007,None,520.8091884000007,None,520.8091884000007,None,,,,,,,,,,,230,19,Male,2022-06-03_16h24.23.383,Main,2022.1.1,60.015219860149315,
negative,negative,1,j,l,,,,,,,,,11,2,200,0,,,,,,,,,,,,,,,,,,,,,,,,main,1,1,1,negative,negative,j,j,1,1.6268897999998444,520.828457900001,521.8388211000001,521.8186710000009,None,520.828457900001,None,520.828457900001,None,520.828457900001,None,523.4450242000003,None,523.4450242000003,None,523.4450242000003,None,,,,,,,,,,,230,19,Male,2022-06-03_16h24.23.383,Main,2022.1.1,60.015219860149315,
neutral,negative,2,k,k,,,,,,,,,11,3,201,16,,,,,,,,,,,,,,,,,,,,,,,,main,2,2,2,negative,neutral,k,k,1,0.8477373000005173,524.4611996000003,525.4750232000006,525.4565094999998,None,524.4611996000003,None,524.4611996000003,None,524.4611996000003,None,526.2877566999998,None,526.2877566999998,None,526.2877566999998,None,,,,,,,,,,,230,19,Male,2022-06-03_16h24.23.383,Main,2022.1.1,60.015219860149315,
neutral,positive,1,k,k,,,,,,,,,11,4,202,4,,,,,,,,,,,,,,,,,,,,,,,,main,2,2,1,positive,neutral,k,k,1,0.6881354999986797,526.308915900001,527.3160493000014,527.2965181,None,526.308915900001,None,526.308915900001,None,526.308915900001,None,527.9807203000003,None,527.9807203000003,None,527.9807203000003,None,,,,,,,,,,,230,19,Male,2022-06-03_16h24.23.383,Main,2022.1.1,60.015219860149315,
positive,neutral,2,l,j,,,,,,,,,11,5,203,17,,,,,,,,,,,,,,,,,,,,,,,,main,1,1,2,neutral,positive,l,l,1,0.7911043999993126,528.001056000001,529.0211190000009,528.9821217999997,None,528.001056000001,None,528.001056000001,None,528.001056000001,None,529.7728284000007,None,529.7728284000007,None,529.7728284000007,None,,,,,,,,,,,230,19,Male,2022-06-03_16h24.23.383,Main,2022.1.1,60.015219860149315,
negative,positive,2,j,l,,,,,,,,,11,6,204,15,,,,,,,,,,,,,,,,,,,,,,,,main,1,1,2,positive,negative,j,j,1,1.3689280999988114,529.7942742000014,530.8117769,530.7735092000003,None,529.7942742000014,None,529.7942742000014,None,529.7942742000014,None,532.1460821000003,None,532.1460821000003,None,532.1460821000003,None,,,,,,,,,,,230,19,Male,2022-06-03_16h24.23.383,Main,2022.1.1,60.015219860149315,
neutral,positive,2,k,k,,,,,,,,,11,7,205,13,,,,,,,,,,,,,,,,,,,,,,,,main,1,1,2,positive,neutral,k,k,1,0.7019404000002396,532.1666041000008,533.1838578000006,533.1449465000005,None,532.1666041000008,None,532.1666041000008,None,532.1666041000008,None,533.8505931000002,None,533.8505931000002,None,533.8505931000002,None,,,,,,,,,,,230,19,Male,2022-06-03_16h24.23.383,Main,2022.1.1,60.015219860149315,
positive,neutral,1,l,j,,,,,,,,,11,8,206,8,,,,,,,,,,,,,,,,,,,,,,,,main,1,1,1,neutral,positive,l,l,1,1.245525299998917,533.8707778000007,534.8894574000005,534.8504080000002,None,533.8707778000007,None,533.8707778000007,None,533.8707778000007,None,536.1003265000002,None,536.1003265000002,None,536.1003265000002,None,,,,,,,,,,,230,19,Male,2022-06-03_16h24.23.383,Main,2022.1.1,60.015219860149315,
negative,neutral,2,j,l,,,,,,,,,11,9,207,12,,,,,,,,,,,,,,,,,,,,,,,,main,2,2,2,neutral,negative,j,j,1,0.8452992999991693,536.1206941,537.1329788000003,537.0937764000009,None,536.1206941,None,536.1206941,None,536.1206941,None,537.9498818000013,None,537.9498818000013,None,537.9498818000013,None,,,,,,,,,,,230,19,Male,2022-06-03_16h24.23.383,Main,2022.1.1,60.015219860149315,
positive,negative,1,l,j,,,,,,,,,11,10,208,5,,,,,,,,,,,,,,,,,,,,,,,,main,2,2,1,negative,positive,l,l,1,1.2335088999989239,537.9704132000006,538.9900709000012,538.9519705000002,None,537.9704132000006,None,537.9704132000006,None,537.9704132000006,None,540.1860670000008,None,540.1860670000008,None,540.1860670000008,None,,,,,,,,,,,230,19,Male,2022-06-03_16h24.23.383,Main,2022.1.1,60.015219860149315,
negative,negative,2,j,l,,,,,,,,,11,11,209,9,,,,,,,,,,,,,,,,,,,,,,,,main,1,1,2,negative,negative,j,j,1,0.7546081000000413,540.2067318000009,541.2240759000015,541.1864598000011,None,540.2067318000009,None,540.2067318000009,None,540.2067318000009,None,541.9452442000004,None,541.9452442000004,None,541.9452442000004,None,,,,,,,,,,,230,19,Male,2022-06-03_16h24.23.383,Main,2022.1.1,60.015219860149315,
