target,distractor,set,ans1,ans2,rep_loop2.thisRepN,rep_loop2.thisTrialN,rep_loop2.thisN,rep_loop2.thisIndex,flanker_prac_loop.thisRepN,flanker_prac_loop.thisTrialN,flanker_prac_loop.thisN,flanker_prac_loop.thisIndex,flanker_main_loop.thisRepN,flanker_main_loop.thisTrialN,flanker_main_loop.thisN,flanker_main_loop.thisIndex,fl_inst_resp.keys,mouse.x,mouse.y,mouse.leftButton,mouse.midButton,mouse.rightButton,mouse.started,mouse.stopped,sound_1.started,sound_1.stopped,no_text.started,no_text.stopped,yes_text.started,yes_text.stopped,mouse_2.x,mouse_2.y,mouse_2.leftButton,mouse_2.midButton,mouse_2.rightButton,mouse_2.started,mouse_2.stopped,back_2.started,back_2.stopped,main_prac,fl_cold,fl_colt,fl_set,fl_dcond,fl_tcond,fl_ans,fl_res,fl_corr,fl_rt,fix_fl.started,fix_fl.stopped,targ.started,targ.stopped,j_button.started,j_button.stopped,k_button.started,k_button.stopped,l_button.started,l_button.stopped,j_button2.started,j_button2.stopped,k_button2.started,k_button2.stopped,l_button2.started,l_button2.stopped,mainback.started,mainback.stopped,key_resp.keys,mouse_6.x,mouse_6.y,mouse_6.leftButton,mouse_6.midButton,mouse_6.rightButton,mouse_6.started,mouse_6.stopped,id*,age*,gender*,date,expName,psychopyVersion,frameRate,
,,,,,0,0,0,0,,,,,,,,,None,0.3175926,-0.32222223,0,0,0,1.001379350006573,None,21.27477423000032,None,71.27093229999991,None,71.27093229999991,None,-0.098148145,-0.035185184,0,0,0,0.012568130000090605,None,,,,,,,,,,,,,,,,,,,,,,,,,,,,,,,,,,,,,,,231,22,Female,2022-06-03_17h44.07.929,Main,2022.1.1,59.97893539781601,
neutral,positive,1,k,k,,,,,0,0,0,4,,,,,,,,,,,,,,,,,,,,,,,,,,74.51784560000033,None,prac,2,2,1,positive,neutral,k,k,1,1.3099453999998332,76.57561699999997,77.57973540000012,77.56092330000001,None,76.57561699999997,None,76.57561699999997,None,76.57561699999997,None,78.84646973000012,None,78.84646973000012,None,78.84646973000012,None,,,,,,,,,,,231,22,Female,2022-06-03_17h44.07.929,Main,2022.1.1,59.97893539781601,
negative,negative,1,j,l,,,,,0,1,1,0,,,,,,,,,,,,,,,,,,,,,,,,,,,,prac,1,1,1,negative,negative,l,l,1,1.3937246999998933,78.88622459999988,79.89536750000025,79.85785669999996,None,78.88622459999988,None,78.88622459999988,None,78.88622459999988,None,81.24233523000025,None,81.24233523000025,None,81.24233523000025,None,,,,,,,,,,,231,22,Female,2022-06-03_17h44.07.929,Main,2022.1.1,59.97893539781601,
negative,positive,2,j,l,,,,,0,2,2,15,,,,,,,,,,,,,,,,,,,,,,,,,,,,prac,2,2,2,positive,negative,l,l,1,0.7963118000002396,81.2801442,82.28993889999992,82.27093100000002,None,81.2801442,None,81.2801442,None,81.2801442,None,83.04164992999999,None,83.04164992999999,None,83.04164992999999,None,,,,,,,,,,,231,22,Female,2022-06-03_17h44.07.929,Main,2022.1.1,59.97893539781601,
neutral,positive,2,k,k,,,,,0,3,3,13,,,,,,,,,,,,,,,,,,,,,,,,,,,,prac,2,2,2,positive,neutral,k,k,1,0.7950538000000051,83.0723167000001,84.08954459999995,84.07066420000001,None,83.0723167000001,None,83.0723167000001,None,83.0723167000001,None,84.83879603000018,None,84.83879603000018,None,84.83879603000018,None,,,,,,,,,,,231,22,Female,2022-06-03_17h44.07.929,Main,2022.1.1,59.97893539781601,
positive,positive,2,l,j,,,,,0,4,4,11,,,,,,,,,,,,,,,,,,,,,,,,,,,,prac,2,2,2,positive,positive,j,j,1,0.7664730999999847,84.85959730000013,85.87997180000002,85.84066960000018,None,84.85959730000013,None,84.85959730000013,None,84.85959730000013,None,86.60708183000001,None,86.60708183000001,None,86.60708183000001,None,,,,,,,,,,,231,22,Female,2022-06-03_17h44.07.929,Main,2022.1.1,59.97893539781601,
positive,negative,2,l,j,,,,,0,5,5,14,,,,,,,,,,,,,,,,,,,,,,,,,,,,prac,1,1,2,negative,positive,j,j,1,0.7755287999998473,86.6510588000001,87.66828209999994,87.6298568000002,None,86.6510588000001,None,86.6510588000001,None,86.6510588000001,None,88.38786823000014,None,88.38786823000014,None,88.38786823000014,None,,,,,,,,,,,231,22,Female,2022-06-03_17h44.07.929,Main,2022.1.1,59.97893539781601,
negative,negative,2,j,l,,,,,0,6,6,9,,,,,,,,,,,,,,,,,,,,,,,,,,,,prac,1,1,2,negative,negative,l,l,1,0.7670423999998093,88.40852640000003,89.41363790000014,89.39472060000026,None,88.40852640000003,None,88.40852640000003,None,88.40852640000003,None,90.15664883000004,None,90.15664883000004,None,90.15664883000004,None,,,,,,,,,,,231,22,Female,2022-06-03_17h44.07.929,Main,2022.1.1,59.97893539781601,
neutral,negative,1,k,k,,,,,0,7,7,7,,,,,,,,,,,,,,,,,,,,,,,,,,,,prac,2,2,1,negative,neutral,k,k,1,0.5547495999999228,90.19473430000016,91.19591089999994,91.17718400000012,None,90.19473430000016,None,90.19473430000016,None,90.19473430000016,None,91.71493003000027,None,91.71493003000027,None,91.71493003000027,None,,,,,,,,,,,231,22,Female,2022-06-03_17h44.07.929,Main,2022.1.1,59.97893539781601,
negative,positive,1,j,l,,,,,0,8,8,6,,,,,,,,,,,,,,,,,,,,,,,,,,,,prac,1,1,1,positive,negative,l,l,1,0.6261844999999084,91.7522813999999,92.7633063000003,92.72557610000013,None,91.7522813999999,None,91.7522813999999,None,91.7522813999999,None,93.34112153000028,None,93.34112153000028,None,93.34112153000028,None,,,,,,,,,,,231,22,Female,2022-06-03_17h44.07.929,Main,2022.1.1,59.97893539781601,
positive,neutral,1,l,j,,,,,0,9,9,8,,,,,,,,,,,,,,,,,,,,,,,,,,,,prac,2,2,1,neutral,positive,j,j,1,0.731276699999853,93.375227,94.38014569999996,94.3615979000001,None,93.375227,None,93.375227,None,93.375227,None,95.07527742999996,None,95.07527742999996,None,95.07527742999996,None,,,,,,,,,,,231,22,Female,2022-06-03_17h44.07.929,Main,2022.1.1,59.97893539781601,
neutral,neutral,2,k,k,,,,,0,10,10,10,,,,,,,,,,,,,,,,,,,,,,,,,,,,prac,1,1,2,neutral,neutral,k,k,1,0.8023121999999603,95.11036349999995,96.11552410000013,96.0961500000003,None,95.11036349999995,None,95.11036349999995,None,95.11036349999995,None,96.8815260300003,None,96.8815260300003,None,96.8815260300003,None,,,,,,,,,,,231,22,Female,2022-06-03_17h44.07.929,Main,2022.1.1,59.97893539781601,
positive,neutral,2,l,j,,,,,0,11,11,17,,,,,,,,,,,,,,,,,,,,,,,,,,,,prac,2,2,2,neutral,positive,j,j,1,0.8432453000000351,96.91015809999999,97.9179709,97.89866660000007,None,96.91015809999999,None,96.91015809999999,None,96.91015809999999,None,98.72488843000023,None,98.72488843000023,None,98.72488843000023,None,,,,,,,,,,,231,22,Female,2022-06-03_17h44.07.929,Main,2022.1.1,59.97893539781601,
neutral,negative,2,k,k,,,,,0,12,12,16,,,,,,,,,,,,,,,,,,,,,,,,,,,,prac,1,1,2,negative,neutral,k,k,1,0.6187696000001779,98.74842119999994,99.75292480000007,99.73375669999996,None,98.74842119999994,None,98.74842119999994,None,98.74842119999994,None,100.34772603000015,None,100.34772603000015,None,100.34772603000015,None,,,,,,,,,,,231,22,Female,2022-06-03_17h44.07.929,Main,2022.1.1,59.97893539781601,
neutral,neutral,1,k,k,,,,,0,13,13,1,,,,,,,,,,,,,,,,,,,,,,,,,,,,prac,2,2,1,neutral,neutral,k,k,1,0.6464681000002201,100.37030910000021,101.37771410000005,101.34003370000028,None,100.37030910000021,None,100.37030910000021,None,100.37030910000021,None,101.99348343000024,None,101.99348343000024,None,101.99348343000024,None,,,,,,,,,,,231,22,Female,2022-06-03_17h44.07.929,Main,2022.1.1,59.97893539781601,
positive,negative,1,l,j,,,,,0,14,14,5,,,,,,,,,,,,,,,,,,,,,,,,,,,,prac,2,2,1,negative,positive,j,j,1,1.025245199999972,102.0190606000001,103.02264000000014,103.00377170000002,None,102.0190606000001,None,102.0190606000001,None,102.0190606000001,None,104.02207163000007,None,104.02207163000007,None,104.02207163000007,None,,,,,,,,,,,231,22,Female,2022-06-03_17h44.07.929,Main,2022.1.1,59.97893539781601,
positive,positive,1,l,j,,,,,0,15,15,2,,,,,,,,,,,,,,,,,,,,,,,,,,,,prac,1,1,1,positive,positive,j,j,1,1.8040082000002258,104.04311060000009,105.05456860000004,105.01637230000006,None,104.04311060000009,None,104.04311060000009,None,104.04311060000009,None,106.85686179999993,None,106.85686179999993,None,106.85686179999993,None,,,,,,,,,,,231,22,Female,2022-06-03_17h44.07.929,Main,2022.1.1,59.97893539781601,
negative,neutral,1,j,l,,,,,0,16,16,3,,,,,,,,,,,,,,,,,,,,,,,,,,,,prac,2,2,1,neutral,negative,l,l,1,1.2038666999997076,107.87536929999987,108.87722930000018,108.85857350000015,None,107.87536929999987,None,107.87536929999987,None,107.87536929999987,None,110.05941712999997,None,110.05941712999997,None,110.05941712999997,None,,,,,,,,,,,231,22,Female,2022-06-03_17h44.07.929,Main,2022.1.1,59.97893539781601,
negative,neutral,2,j,l,,,,,0,17,17,12,,,,,,,,,,,,,,,,,,,,,,,,,,,,prac,2,2,2,neutral,negative,l,l,1,0.6806117999999515,110.0811692000002,111.09002499999997,111.07056020000027,None,110.0811692000002,None,110.0811692000002,None,110.0811692000002,None,111.74447822999996,None,111.74447822999996,None,111.74447822999996,None,,,,,,,,,,,231,22,Female,2022-06-03_17h44.07.929,Main,2022.1.1,59.97893539781601,
negative,neutral,1,j,l,,,,,1,0,18,3,,,,,,,,,,,,,,,,,,,,,,,,,,,,prac,2,2,1,neutral,negative,l,l,1,0.6355671999999686,111.76479259999996,112.77369820000013,112.75502270000015,None,111.76479259999996,None,111.76479259999996,None,111.76479259999996,None,113.38331143000009,None,113.38331143000009,None,113.38331143000009,None,,,,,,,,,,,231,22,Female,2022-06-03_17h44.07.929,Main,2022.1.1,59.97893539781601,
positive,neutral,1,l,j,,,,,1,1,19,8,,,,,,,,,,,,,,,,,,,,,,,,,,,,prac,2,2,1,neutral,positive,j,j,1,0.8680508999996164,113.40446900000006,114.41670590000012,114.3782970000002,None,113.40446900000006,None,113.40446900000006,None,113.40446900000006,None,115.25331413000008,None,115.25331413000008,None,115.25331413000008,None,,,,,,,,,,,231,22,Female,2022-06-03_17h44.07.929,Main,2022.1.1,59.97893539781601,
neutral,neutral,2,k,k,,,,,1,2,20,10,,,,,,,,,,,,,,,,,,,,,,,,,,,,prac,1,1,2,neutral,neutral,k,k,1,0.7104863999998088,115.27339130000018,116.27753460000031,116.2587695000002,None,115.27339130000018,None,115.27339130000018,None,115.27339130000018,None,116.96750383000021,None,116.96750383000021,None,116.96750383000021,None,,,,,,,,,,,231,22,Female,2022-06-03_17h44.07.929,Main,2022.1.1,59.97893539781601,
positive,neutral,2,l,j,,,,,1,3,21,17,,,,,,,,,,,,,,,,,,,,,,,,,,,,prac,2,2,2,neutral,positive,j,j,1,0.7006885000000693,116.98753530000022,117.99857819999988,117.9600204000003,None,116.98753530000022,None,116.98753530000022,None,116.98753530000022,None,118.6701500300001,None,118.6701500300001,None,118.6701500300001,None,,,,,,,,,,,231,22,Female,2022-06-03_17h44.07.929,Main,2022.1.1,59.97893539781601,
neutral,negative,1,k,k,,,,,1,4,22,7,,,,,,,,,,,,,,,,,,,,,,,,,,,,prac,2,2,1,negative,neutral,k,k,1,0.6913651999998365,118.69790199999989,119.70791520000012,119.67055389999996,None,118.69790199999989,None,118.69790199999989,None,118.69790199999989,None,120.36552932999989,None,120.36552932999989,None,120.36552932999989,None,,,,,,,,,,,231,22,Female,2022-06-03_17h44.07.929,Main,2022.1.1,59.97893539781601,
positive,negative,2,l,j,,,,,1,5,23,14,,,,,,,,,,,,,,,,,,,,,,,,,,,,prac,2,2,2,negative,positive,j,j,1,0.7662411999999676,120.40055010000015,121.40828469999997,121.3891848000003,None,120.40055010000015,None,120.40055010000015,None,120.40055010000015,None,122.13524563000014,None,122.13524563000014,None,122.13524563000014,None,,,,,,,,,,,231,22,Female,2022-06-03_17h44.07.929,Main,2022.1.1,59.97893539781601,
neutral,negative,2,k,k,,,,,1,6,24,16,,,,,,,,,,,,,,,,,,,,,,,,,,,,prac,1,1,2,negative,neutral,k,k,1,0.5330344000003606,122.15463040000031,123.15595410000014,123.13711990000002,None,122.15463040000031,None,122.15463040000031,None,122.15463040000031,None,123.67007672999993,None,123.67007672999993,None,123.67007672999993,None,,,,,,,,,,,231,22,Female,2022-06-03_17h44.07.929,Main,2022.1.1,59.97893539781601,
positive,positive,2,l,j,,,,,1,7,25,11,,,,,,,,,,,,,,,,,,,,,,,,,,,,prac,1,1,2,positive,positive,j,j,1,0.7451144999999997,123.7005065000003,124.71207929999991,124.69291320000002,None,123.7005065000003,None,123.7005065000003,None,123.7005065000003,None,125.41743093000018,None,125.41743093000018,None,125.41743093000018,None,,,,,,,,,,,231,22,Female,2022-06-03_17h44.07.929,Main,2022.1.1,59.97893539781601,
negative,positive,1,j,l,,,,,1,8,26,6,,,,,,,,,,,,,,,,,,,,,,,,,,,,prac,2,2,1,positive,negative,l,l,1,0.7581887999999708,125.43977600000017,126.46384919999991,126.41767830000026,None,125.43977600000017,None,125.43977600000017,None,125.43977600000017,None,127.17912943000015,None,127.17912943000015,None,127.17912943000015,None,,,,,,,,,,,231,22,Female,2022-06-03_17h44.07.929,Main,2022.1.1,59.97893539781601,
negative,negative,2,j,l,,,,,1,9,27,9,,,,,,,,,,,,,,,,,,,,,,,,,,,,prac,2,2,2,negative,negative,l,l,1,1.1965073999999731,127.19877290000022,128.2122105000003,128.17482270000028,None,127.19877290000022,None,127.19877290000022,None,127.19877290000022,None,129.3783929300003,None,129.3783929300003,None,129.3783929300003,None,,,,,,,,,,,231,22,Female,2022-06-03_17h44.07.929,Main,2022.1.1,59.97893539781601,
negative,negative,1,j,l,,,,,1,10,28,0,,,,,,,,,,,,,,,,,,,,,,,,,,,,prac,2,2,1,negative,negative,l,l,1,0.7120107000000644,129.39954810000017,130.41389160000017,130.37433099999998,None,129.39954810000017,None,129.39954810000017,None,129.39954810000017,None,131.09037983000013,None,131.09037983000013,None,131.09037983000013,None,,,,,,,,,,,231,22,Female,2022-06-03_17h44.07.929,Main,2022.1.1,59.97893539781601,
neutral,positive,2,k,k,,,,,1,11,29,13,,,,,,,,,,,,,,,,,,,,,,,,,,,,prac,2,2,2,positive,neutral,k,k,1,0.6228036000002248,131.11446250000017,132.11698830000023,132.09795680000025,None,131.11446250000017,None,131.11446250000017,None,131.11446250000017,None,132.71626683000028,None,132.71626683000028,None,132.71626683000028,None,,,,,,,,,,,231,22,Female,2022-06-03_17h44.07.929,Main,2022.1.1,59.97893539781601,
negative,neutral,2,j,l,,,,,1,12,30,12,,,,,,,,,,,,,,,,,,,,,,,,,,,,prac,1,1,2,neutral,negative,l,l,1,0.7134783999999854,132.73707060000015,133.7398401999999,133.7207309999999,None,132.73707060000015,None,132.73707060000015,None,132.73707060000015,None,134.43113863000013,None,134.43113863000013,None,134.43113863000013,None,,,,,,,,,,,231,22,Female,2022-06-03_17h44.07.929,Main,2022.1.1,59.97893539781601,
positive,positive,1,l,j,,,,,1,13,31,2,,,,,,,,,,,,,,,,,,,,,,,,,,,,prac,1,1,1,positive,positive,j,j,1,0.8299175000001924,134.45393970000032,135.46240050000006,135.4434636000001,None,134.45393970000032,None,134.45393970000032,None,134.45393970000032,None,136.26508383000015,None,136.26508383000015,None,136.26508383000015,None,,,,,,,,,,,231,22,Female,2022-06-03_17h44.07.929,Main,2022.1.1,59.97893539781601,
positive,negative,1,l,j,,,,,1,14,32,5,,,,,,,,,,,,,,,,,,,,,,,,,,,,prac,1,1,1,negative,positive,j,j,1,0.7755444999997962,136.28498600000012,137.30027900000005,137.26223800000025,None,136.28498600000012,None,136.28498600000012,None,136.28498600000012,None,138.0452113300003,None,138.0452113300003,None,138.0452113300003,None,,,,,,,,,,,231,22,Female,2022-06-03_17h44.07.929,Main,2022.1.1,59.97893539781601,
neutral,neutral,1,k,k,,,,,1,15,33,1,,,,,,,,,,,,,,,,,,,,,,,,,,,,prac,1,1,1,neutral,neutral,k,k,1,1.0593362999998135,138.0819120000001,139.09379910000007,139.05583800000022,None,138.0819120000001,None,138.0819120000001,None,138.0819120000001,None,140.1065595300002,None,140.1065595300002,None,140.1065595300002,None,,,,,,,,,,,231,22,Female,2022-06-03_17h44.07.929,Main,2022.1.1,59.97893539781601,
neutral,positive,1,k,k,,,,,1,16,34,4,,,,,,,,,,,,,,,,,,,,,,,,,,,,prac,2,2,1,positive,neutral,k,k,1,0.5935425999996369,140.12616770000022,141.14358089999996,141.10412590000033,None,140.12616770000022,None,140.12616770000022,None,140.12616770000022,None,141.69986303000002,None,141.69986303000002,None,141.69986303000002,None,,,,,,,,,,,231,22,Female,2022-06-03_17h44.07.929,Main,2022.1.1,59.97893539781601,
negative,positive,2,j,l,,,,,1,17,35,15,,,,,,,,,,,,,,,,,,,,,,,,,,,,prac,2,2,2,positive,negative,l,l,1,0.8157957999997052,141.72148860000016,142.73063580000007,142.71210470000005,None,141.72148860000016,None,141.72148860000016,None,141.72148860000016,None,143.51898953000006,None,143.51898953000006,None,143.51898953000006,None,,,,,,,,,,,231,22,Female,2022-06-03_17h44.07.929,Main,2022.1.1,59.97893539781601,
,,,,,,,,,,,,,,,,,,,,,,,,,,,,,,,,,,,,,,,,,,,,,,,,,,,,,,,,,,,,,,,,,,143.52798389999998,None,None,,,,,,,,231,22,Female,2022-06-03_17h44.07.929,Main,2022.1.1,59.97893539781601,
,,,,,,,,,,,,,,,,,,,,,,,,,,,,,,,,,,,,,,,,,,,,,,,,,,,,,,,,,,,,,,,,,,,,,0.11111111,-0.15185185,1,0,0,0.004301529999793274,None,231,22,Female,2022-06-03_17h44.07.929,Main,2022.1.1,59.97893539781601,
neutral,neutral,2,k,k,,,,,,,,,0,0,0,10,,,,,,,,,,,,,,,,,,,,,,151.22489010000027,None,main,2,2,2,neutral,neutral,k,k,1,0.6577793999999813,153.24413380000033,154.25094119999994,154.2318908000002,None,153.24413380000033,None,153.24413380000033,None,153.24413380000033,None,154.8815713300001,None,154.8815713300001,None,154.8815713300001,None,,,,,,,,,,,231,22,Female,2022-06-03_17h44.07.929,Main,2022.1.1,59.97893539781601,
positive,neutral,2,l,j,,,,,,,,,0,1,1,17,,,,,,,,,,,,,,,,,,,,,,,,main,1,1,2,neutral,positive,j,j,1,0.6451658999999381,154.9052799000001,155.91902000000027,155.88124909999988,None,154.9052799000001,None,154.9052799000001,None,154.9052799000001,None,156.5311670300003,None,156.5311670300003,None,156.5311670300003,None,,,,,,,,,,,231,22,Female,2022-06-03_17h44.07.929,Main,2022.1.1,59.97893539781601,
negative,positive,1,j,l,,,,,,,,,0,2,2,6,,,,,,,,,,,,,,,,,,,,,,,,main,2,2,1,positive,negative,l,l,1,0.8881845999999314,156.5518087999999,157.56396010000026,157.52440079999997,None,156.5518087999999,None,156.5518087999999,None,156.5518087999999,None,158.42322563000022,None,158.42322563000022,None,158.42322563000022,None,,,,,,,,,,,231,22,Female,2022-06-03_17h44.07.929,Main,2022.1.1,59.97893539781601,
neutral,negative,2,k,k,,,,,,,,,0,3,3,16,,,,,,,,,,,,,,,,,,,,,,,,main,2,2,2,negative,neutral,k,k,1,0.47114179999971384,158.44379789999994,159.45760870000004,159.41955280000002,None,158.44379789999994,None,158.44379789999994,None,158.44379789999994,None,159.89590013000003,None,159.89590013000003,None,159.89590013000003,None,,,,,,,,,,,231,22,Female,2022-06-03_17h44.07.929,Main,2022.1.1,59.97893539781601,
positive,neutral,1,l,j,,,,,,,,,0,4,4,8,,,,,,,,,,,,,,,,,,,,,,,,main,1,1,1,neutral,positive,j,j,1,0.707287699999597,159.91578030000028,160.91969560000007,160.90023830000018,None,159.91578030000028,None,159.91578030000028,None,159.91578030000028,None,161.60743082999994,None,161.60743082999994,None,161.60743082999994,None,,,,,,,,,,,231,22,Female,2022-06-03_17h44.07.929,Main,2022.1.1,59.97893539781601,
negative,negative,2,j,l,,,,,,,,,0,5,5,9,,,,,,,,,,,,,,,,,,,,,,,,main,1,1,2,negative,negative,l,l,1,0.6709509000002072,161.62680790000013,162.63095449999992,162.6123934000002,None,161.62680790000013,None,161.62680790000013,None,161.62680790000013,None,163.27930333,None,163.27930333,None,163.27930333,None,,,,,,,,,,,231,22,Female,2022-06-03_17h44.07.929,Main,2022.1.1,59.97893539781601,
positive,negative,2,l,j,,,,,,,,,0,6,6,14,,,,,,,,,,,,,,,,,,,,,,,,main,1,1,2,negative,positive,j,j,1,0.7237982999999986,163.3015894,164.30207659999996,164.2840444000003,None,163.3015894,None,163.3015894,None,163.3015894,None,165.00733563,None,165.00733563,None,165.00733563,None,,,,,,,,,,,231,22,Female,2022-06-03_17h44.07.929,Main,2022.1.1,59.97893539781601,
neutral,neutral,1,k,k,,,,,,,,,0,7,7,1,,,,,,,,,,,,,,,,,,,,,,,,main,2,2,1,neutral,neutral,k,k,1,0.64515960000017,165.02999520000003,166.04199460000018,166.00313020000021,None,165.02999520000003,None,165.02999520000003,None,165.02999520000003,None,166.65532343,None,166.65532343,None,166.65532343,None,,,,,,,,,,,231,22,Female,2022-06-03_17h44.07.929,Main,2022.1.1,59.97893539781601,
negative,neutral,1,j,l,,,,,,,,,0,8,8,3,,,,,,,,,,,,,,,,,,,,,,,,main,2,2,1,neutral,negative,l,l,1,0.63510610000003,166.67704270000013,167.67901970000003,167.66032790000008,None,166.67704270000013,None,166.67704270000013,None,166.67704270000013,None,168.29387703000026,None,168.29387703000026,None,168.29387703000026,None,,,,,,,,,,,231,22,Female,2022-06-03_17h44.07.929,Main,2022.1.1,59.97893539781601,
neutral,positive,1,k,k,,,,,,,,,0,9,9,4,,,,,,,,,,,,,,,,,,,,,,,,main,1,1,1,positive,neutral,k,k,1,0.5845484000001306,168.31533130000025,169.32543430000032,169.286697,None,168.31533130000025,None,168.31533130000025,None,168.31533130000025,None,169.8815396300002,None,169.8815396300002,None,169.8815396300002,None,,,,,,,,,,,231,22,Female,2022-06-03_17h44.07.929,Main,2022.1.1,59.97893539781601,
positive,positive,1,l,j,,,,,,,,,0,10,10,2,,,,,,,,,,,,,,,,,,,,,,,,main,2,2,1,positive,positive,j,j,1,0.5696410000000469,169.90224119999993,170.91259880000007,170.89327159999993,None,169.90224119999993,None,169.90224119999993,None,169.90224119999993,None,171.45577713000017,None,171.45577713000017,None,171.45577713000017,None,,,,,,,,,,,231,22,Female,2022-06-03_17h44.07.929,Main,2022.1.1,59.97893539781601,
neutral,positive,2,k,k,,,,,,,,,0,11,11,13,,,,,,,,,,,,,,,,,,,,,,,,main,1,1,2,positive,neutral,k,k,1,0.49044400000002497,171.47789610000018,172.48872950000032,172.4514876000003,None,171.47789610000018,None,171.47789610000018,None,171.47789610000018,None,172.9463968300002,None,172.9463968300002,None,172.9463968300002,None,,,,,,,,,,,231,22,Female,2022-06-03_17h44.07.929,Main,2022.1.1,59.97893539781601,
positive,negative,1,l,j,,,,,,,,,0,12,12,5,,,,,,,,,,,,,,,,,,,,,,,,main,1,1,1,negative,positive,j,j,1,0.7185015999998541,172.96698229999993,173.97686750000003,173.95772979999992,None,172.96698229999993,None,172.96698229999993,None,172.96698229999993,None,174.66956823000015,None,174.66956823000015,None,174.66956823000015,None,,,,,,,,,,,231,22,Female,2022-06-03_17h44.07.929,Main,2022.1.1,59.97893539781601,
neutral,negative,1,k,k,,,,,,,,,0,13,13,7,,,,,,,,,,,,,,,,,,,,,,,,main,2,2,1,negative,neutral,k,k,1,0.5310484000001452,174.68929639999988,175.7015706000002,175.66348870000002,None,174.68929639999988,None,174.68929639999988,None,174.68929639999988,None,176.20253623000013,None,176.20253623000013,None,176.20253623000013,None,,,,,,,,,,,231,22,Female,2022-06-03_17h44.07.929,Main,2022.1.1,59.97893539781601,
negative,neutral,2,j,l,,,,,,,,,0,14,14,12,,,,,,,,,,,,,,,,,,,,,,,,main,2,2,2,neutral,negative,l,l,1,0.9149751999998443,176.22334249999994,177.2336562999999,177.21312949999992,None,176.22334249999994,None,176.22334249999994,None,176.22334249999994,None,178.11883513000026,None,178.11883513000026,None,178.11883513000026,None,,,,,,,,,,,231,22,Female,2022-06-03_17h44.07.929,Main,2022.1.1,59.97893539781601,
positive,positive,2,l,j,,,,,,,,,0,15,15,11,,,,,,,,,,,,,,,,,,,,,,,,main,1,1,2,positive,positive,j,j,1,0.7251848000000791,178.14000729999998,179.14612609999995,179.1272027,None,178.14000729999998,None,178.14000729999998,None,178.14000729999998,None,179.84541853000025,None,179.84541853000025,None,179.84541853000025,None,,,,,,,,,,,231,22,Female,2022-06-03_17h44.07.929,Main,2022.1.1,59.97893539781601,
negative,negative,1,j,l,,,,,,,,,0,16,16,0,,,,,,,,,,,,,,,,,,,,,,,,main,1,1,1,negative,negative,l,k,0,0.5710563999996339,179.8708061000002,180.8821750000002,180.84455819999994,None,179.8708061000002,None,179.8708061000002,None,179.8708061000002,None,181.43303650000007,None,181.43303650000007,None,181.43303650000007,None,,,,,,,,,,,231,22,Female,2022-06-03_17h44.07.929,Main,2022.1.1,59.97893539781601,
negative,positive,2,j,l,,,,,,,,,0,17,17,15,,,,,,,,,,,,,,,,,,,,,,,,main,1,1,2,positive,negative,l,l,1,0.7178601999999046,182.44924230000015,183.46138530000007,183.4422867000003,None,182.44924230000015,None,182.44924230000015,None,182.44924230000015,None,184.14708253000032,None,184.14708253000032,None,184.14708253000032,None,,,,,,,,,,,231,22,Female,2022-06-03_17h44.07.929,Main,2022.1.1,59.97893539781601,
negative,positive,2,j,l,,,,,,,,,1,0,18,15,,,,,,,,,,,,,,,,,,,,,,,,main,1,1,2,positive,negative,l,l,1,0.7368192999997518,184.1674226,185.18004500000006,185.14288720000013,None,184.1674226,None,184.1674226,None,184.1674226,None,185.88837343000029,None,185.88837343000029,None,185.88837343000029,None,,,,,,,,,,,231,22,Female,2022-06-03_17h44.07.929,Main,2022.1.1,59.97893539781601,
negative,neutral,2,j,l,,,,,,,,,1,1,19,12,,,,,,,,,,,,,,,,,,,,,,,,main,2,2,2,neutral,negative,l,l,1,0.6903277000001253,185.90937089999989,186.91175350000003,186.89275180000004,None,185.90937089999989,None,185.90937089999989,None,185.90937089999989,None,187.57900243,None,187.57900243,None,187.57900243,None,,,,,,,,,,,231,22,Female,2022-06-03_17h44.07.929,Main,2022.1.1,59.97893539781601,
positive,positive,2,l,j,,,,,,,,,1,2,20,11,,,,,,,,,,,,,,,,,,,,,,,,main,2,2,2,positive,positive,j,j,1,0.6776341999998294,187.5998423000001,188.60986120000007,188.59094129999994,None,187.5998423000001,None,187.5998423000001,None,187.5998423000001,None,189.25921243,None,189.25921243,None,189.25921243,None,,,,,,,,,,,231,22,Female,2022-06-03_17h44.07.929,Main,2022.1.1,59.97893539781601,
positive,negative,1,l,j,,,,,,,,,1,3,21,5,,,,,,,,,,,,,,,,,,,,,,,,main,2,2,1,negative,positive,j,j,1,0.6267268999999942,189.27979300000015,190.2937323000001,190.25511170000027,None,189.27979300000015,None,189.27979300000015,None,189.27979300000015,None,190.89055773000024,None,190.89055773000024,None,190.89055773000024,None,,,,,,,,,,,231,22,Female,2022-06-03_17h44.07.929,Main,2022.1.1,59.97893539781601,
positive,positive,1,l,j,,,,,,,,,1,4,22,2,,,,,,,,,,,,,,,,,,,,,,,,main,2,2,1,positive,positive,j,j,1,0.6118273000001864,190.9123112000002,191.92779599999994,191.8886035999999,None,190.9123112000002,None,190.9123112000002,None,190.9123112000002,None,192.50576933000008,None,192.50576933000008,None,192.50576933000008,None,,,,,,,,,,,231,22,Female,2022-06-03_17h44.07.929,Main,2022.1.1,59.97893539781601,
neutral,negative,2,k,k,,,,,,,,,1,5,23,16,,,,,,,,,,,,,,,,,,,,,,,,main,2,2,2,negative,neutral,k,k,1,0.5525630000001911,192.52705130000004,193.5450952000001,193.50735329999998,None,192.52705130000004,None,192.52705130000004,None,192.52705130000004,None,194.06134062999996,None,194.06134062999996,None,194.06134062999996,None,,,,,,,,,,,231,22,Female,2022-06-03_17h44.07.929,Main,2022.1.1,59.97893539781601,
neutral,negative,1,k,k,,,,,,,,,1,6,24,7,,,,,,,,,,,,,,,,,,,,,,,,main,2,2,1,negative,neutral,k,k,1,0.5506611000000703,194.08146420000003,195.09743310000022,195.06018050000011,None,194.08146420000003,None,194.08146420000003,None,194.08146420000003,None,195.6172092299999,None,195.6172092299999,None,195.6172092299999,None,,,,,,,,,,,231,22,Female,2022-06-03_17h44.07.929,Main,2022.1.1,59.97893539781601,
positive,negative,2,l,j,,,,,,,,,1,7,25,14,,,,,,,,,,,,,,,,,,,,,,,,main,2,2,2,negative,positive,j,j,1,0.6466753999998218,195.64035270000022,196.65564630000017,196.61581550000028,None,195.64035270000022,None,195.64035270000022,None,195.64035270000022,None,197.26449063000024,None,197.26449063000024,None,197.26449063000024,None,,,,,,,,,,,231,22,Female,2022-06-03_17h44.07.929,Main,2022.1.1,59.97893539781601,
neutral,neutral,1,k,k,,,,,,,,,1,8,26,1,,,,,,,,,,,,,,,,,,,,,,,,main,2,2,1,neutral,neutral,k,k,1,0.6759114999999838,197.28859710000006,198.29274000000032,198.27367970000023,None,197.28859710000006,None,197.28859710000006,None,197.28859710000006,None,198.9430615300003,None,198.9430615300003,None,198.9430615300003,None,,,,,,,,,,,231,22,Female,2022-06-03_17h44.07.929,Main,2022.1.1,59.97893539781601,
positive,neutral,1,l,j,,,,,,,,,1,9,27,8,,,,,,,,,,,,,,,,,,,,,,,,main,1,1,1,neutral,positive,j,j,1,0.7261101999997663,198.9639513000002,199.98283020000008,199.94357489999993,None,198.9639513000002,None,198.9639513000002,None,198.9639513000002,None,200.67335783000004,None,200.67335783000004,None,200.67335783000004,None,,,,,,,,,,,231,22,Female,2022-06-03_17h44.07.929,Main,2022.1.1,59.97893539781601,
positive,neutral,2,l,j,,,,,,,,,1,10,28,17,,,,,,,,,,,,,,,,,,,,,,,,main,2,2,2,neutral,positive,j,j,1,0.8194911999999022,200.69465880000007,201.7470426,201.7282083,None,200.69465880000007,None,200.69465880000007,None,200.69465880000007,None,202.49507703000023,None,202.49507703000023,None,202.49507703000023,None,,,,,,,,,,,231,22,Female,2022-06-03_17h44.07.929,Main,2022.1.1,59.97893539781601,
negative,neutral,1,j,l,,,,,,,,,1,11,29,3,,,,,,,,,,,,,,,,,,,,,,,,main,2,2,1,neutral,negative,l,l,1,0.715169799999785,202.51566159999993,203.52319750000015,203.50391080000009,None,202.51566159999993,None,202.51566159999993,None,202.51566159999993,None,204.21486193000015,None,204.21486193000015,None,204.21486193000015,None,,,,,,,,,,,231,22,Female,2022-06-03_17h44.07.929,Main,2022.1.1,59.97893539781601,
neutral,neutral,2,k,k,,,,,,,,,1,12,30,10,,,,,,,,,,,,,,,,,,,,,,,,main,2,2,2,neutral,neutral,k,k,1,0.6993532999999843,204.2349607000001,205.24298090000002,205.2241366000003,None,204.2349607000001,None,204.2349607000001,None,204.2349607000001,None,205.91706492999998,None,205.91706492999998,None,205.91706492999998,None,,,,,,,,,,,231,22,Female,2022-06-03_17h44.07.929,Main,2022.1.1,59.97893539781601,
negative,negative,1,j,l,,,,,,,,,1,13,31,0,,,,,,,,,,,,,,,,,,,,,,,,main,2,2,1,negative,negative,l,,0,1.0611241999999947,205.94027330000017,206.9530006,206.91372279999996,None,205.94027330000017,None,205.94027330000017,None,205.94027330000017,None,207.9879731000001,None,207.9879731000001,None,207.9879731000001,None,,,,,,,,,,,231,22,Female,2022-06-03_17h44.07.929,Main,2022.1.1,59.97893539781601,
neutral,positive,2,k,k,,,,,,,,,1,14,32,13,,,,,,,,,,,,,,,,,,,,,,,,main,1,1,2,positive,neutral,k,k,1,0.7545155000002524,209.01251720000027,210.01980490000005,210.00030800000013,None,209.01251720000027,None,209.01251720000027,None,209.01251720000027,None,210.74546732999994,None,210.74546732999994,None,210.74546732999994,None,,,,,,,,,,,231,22,Female,2022-06-03_17h44.07.929,Main,2022.1.1,59.97893539781601,
negative,positive,1,j,l,,,,,,,,,1,15,33,6,,,,,,,,,,,,,,,,,,,,,,,,main,1,1,1,positive,negative,l,l,1,0.7804658999998537,210.76697560000002,211.7877923000001,211.74873520000028,None,210.76697560000002,None,210.76697560000002,None,210.76697560000002,None,212.5322443300002,None,212.5322443300002,None,212.5322443300002,None,,,,,,,,,,,231,22,Female,2022-06-03_17h44.07.929,Main,2022.1.1,59.97893539781601,
neutral,positive,1,k,k,,,,,,,,,1,16,34,4,,,,,,,,,,,,,,,,,,,,,,,,main,2,2,1,positive,neutral,k,k,1,0.7331913000002714,212.5519749,213.56253340000012,213.52511030000005,None,212.5519749,None,212.5519749,None,212.5519749,None,214.26746172999998,None,214.26746172999998,None,214.26746172999998,None,,,,,,,,,,,231,22,Female,2022-06-03_17h44.07.929,Main,2022.1.1,59.97893539781601,
negative,negative,2,j,l,,,,,,,,,1,17,35,9,,,,,,,,,,,,,,,,,,,,,,,,main,1,1,2,negative,negative,l,l,1,0.7061244000001352,214.2876056,215.2924181000003,215.27361070000006,None,214.2876056,None,214.2876056,None,214.2876056,None,215.97429223000023,None,215.97429223000023,None,215.97429223000023,None,,,,,,,,,,,231,22,Female,2022-06-03_17h44.07.929,Main,2022.1.1,59.97893539781601,
neutral,neutral,2,k,k,,,,,,,,,2,0,36,10,,,,,,,,,,,,,,,,,,,,,,,,main,1,1,2,neutral,neutral,k,k,1,0.6982054000000062,215.99471570000014,217.01281700000027,216.97565440000017,None,215.99471570000014,None,215.99471570000014,None,215.99471570000014,None,217.67505823000016,None,217.67505823000016,None,217.67505823000016,None,,,,,,,,,,,231,22,Female,2022-06-03_17h44.07.929,Main,2022.1.1,59.97893539781601,
positive,neutral,2,l,j,,,,,,,,,2,1,37,17,,,,,,,,,,,,,,,,,,,,,,,,main,2,2,2,neutral,positive,j,j,1,0.6237416999997549,217.6962513000003,218.70958770000016,218.6713365999999,None,217.6962513000003,None,217.6962513000003,None,217.6962513000003,None,219.3036507299999,None,219.3036507299999,None,219.3036507299999,None,,,,,,,,,,,231,22,Female,2022-06-03_17h44.07.929,Main,2022.1.1,59.97893539781601,
positive,negative,1,l,j,,,,,,,,,2,2,38,5,,,,,,,,,,,,,,,,,,,,,,,,main,1,1,1,negative,positive,j,j,1,0.9152146000001267,219.32399299999997,220.3330662000003,220.3136456000002,None,219.32399299999997,None,219.32399299999997,None,219.32399299999997,None,221.22169643000012,None,221.22169643000012,None,221.22169643000012,None,,,,,,,,,,,231,22,Female,2022-06-03_17h44.07.929,Main,2022.1.1,59.97893539781601,
neutral,positive,1,k,k,,,,,,,,,2,3,39,4,,,,,,,,,,,,,,,,,,,,,,,,main,1,1,1,positive,neutral,k,k,1,0.7155308000001241,221.24325420000014,222.25236930000028,222.23314699999992,None,221.24325420000014,None,221.24325420000014,None,221.24325420000014,None,222.93903172999995,None,222.93903172999995,None,222.93903172999995,None,,,,,,,,,,,231,22,Female,2022-06-03_17h44.07.929,Main,2022.1.1,59.97893539781601,
negative,positive,2,j,l,,,,,,,,,2,4,40,15,,,,,,,,,,,,,,,,,,,,,,,,main,1,1,2,positive,negative,l,l,1,0.5531992999999602,222.9597721,223.9609889000003,223.94215350000013,None,222.9597721,None,222.9597721,None,222.9597721,None,224.4968963300003,None,224.4968963300003,None,224.4968963300003,None,,,,,,,,,,,231,22,Female,2022-06-03_17h44.07.929,Main,2022.1.1,59.97893539781601,
neutral,negative,2,k,k,,,,,,,,,2,5,41,16,,,,,,,,,,,,,,,,,,,,,,,,main,1,1,2,negative,neutral,k,k,1,0.6404889999998886,224.51784110000017,225.52975370000013,225.4932020000001,None,224.51784110000017,None,224.51784110000017,None,224.51784110000017,None,226.13820562999996,None,226.13820562999996,None,226.13820562999996,None,,,,,,,,,,,231,22,Female,2022-06-03_17h44.07.929,Main,2022.1.1,59.97893539781601,
negative,neutral,1,j,l,,,,,,,,,2,6,42,3,,,,,,,,,,,,,,,,,,,,,,,,main,1,1,1,neutral,negative,l,l,1,0.6475046999998995,226.16033160000006,227.1789987000002,227.14181469999994,None,226.16033160000006,None,226.16033160000006,None,226.16033160000006,None,227.78930793000023,None,227.78930793000023,None,227.78930793000023,None,,,,,,,,,,,231,22,Female,2022-06-03_17h44.07.929,Main,2022.1.1,59.97893539781601,
negative,negative,1,j,l,,,,,,,,,2,7,43,0,,,,,,,,,,,,,,,,,,,,,,,,main,2,2,1,negative,negative,l,l,1,0.6394900000000234,227.81170810000003,228.8200627000001,228.800976,None,227.81170810000003,None,227.81170810000003,None,227.81170810000003,None,229.43407342999996,None,229.43407342999996,None,229.43407342999996,None,,,,,,,,,,,231,22,Female,2022-06-03_17h44.07.929,Main,2022.1.1,59.97893539781601,
positive,negative,2,l,j,,,,,,,,,2,8,44,14,,,,,,,,,,,,,,,,,,,,,,,,main,1,1,2,negative,positive,j,j,1,0.9345401999999012,229.45508539999992,230.47009639999987,230.4308891999999,None,229.45508539999992,None,229.45508539999992,None,229.45508539999992,None,231.3715449300003,None,231.3715449300003,None,231.3715449300003,None,,,,,,,,,,,231,22,Female,2022-06-03_17h44.07.929,Main,2022.1.1,59.97893539781601,
neutral,negative,1,k,k,,,,,,,,,2,9,45,7,,,,,,,,,,,,,,,,,,,,,,,,main,2,2,1,negative,neutral,k,k,1,0.9630954999997812,231.39256049999995,232.4052998000002,232.36866259999988,None,231.39256049999995,None,231.39256049999995,None,231.39256049999995,None,233.33650513000026,None,233.33650513000026,None,233.33650513000026,None,,,,,,,,,,,231,22,Female,2022-06-03_17h44.07.929,Main,2022.1.1,59.97893539781601,
negative,positive,1,j,l,,,,,,,,,2,10,46,6,,,,,,,,,,,,,,,,,,,,,,,,main,2,2,1,positive,negative,l,l,1,0.8405364000000191,233.3572548000002,234.3681031000001,234.34948340000028,None,233.3572548000002,None,233.3572548000002,None,233.3572548000002,None,235.18076183,None,235.18076183,None,235.18076183,None,,,,,,,,,,,231,22,Female,2022-06-03_17h44.07.929,Main,2022.1.1,59.97893539781601,
positive,positive,2,l,j,,,,,,,,,2,11,47,11,,,,,,,,,,,,,,,,,,,,,,,,main,2,2,2,positive,positive,j,j,1,0.6610745999996652,235.20394320000014,236.2106716000003,236.1921496,None,235.20394320000014,None,235.20394320000014,None,235.20394320000014,None,236.84581133000034,None,236.84581133000034,None,236.84581133000034,None,,,,,,,,,,,231,22,Female,2022-06-03_17h44.07.929,Main,2022.1.1,59.97893539781601,
negative,neutral,2,j,l,,,,,,,,,2,12,48,12,,,,,,,,,,,,,,,,,,,,,,,,main,1,1,2,neutral,negative,l,l,1,0.6770126999999775,236.86652370000002,237.87465370000018,237.8554997000001,None,236.86652370000002,None,236.86652370000002,None,236.86652370000002,None,238.52307552999997,None,238.52307552999997,None,238.52307552999997,None,,,,,,,,,,,231,22,Female,2022-06-03_17h44.07.929,Main,2022.1.1,59.97893539781601,
neutral,neutral,1,k,k,,,,,,,,,2,13,49,1,,,,,,,,,,,,,,,,,,,,,,,,main,2,2,1,neutral,neutral,k,k,1,0.6584201000000576,238.54707770000005,239.55610930000012,239.53852529999995,None,238.54707770000005,None,238.54707770000005,None,238.54707770000005,None,240.1871717300001,None,240.1871717300001,None,240.1871717300001,None,,,,,,,,,,,231,22,Female,2022-06-03_17h44.07.929,Main,2022.1.1,59.97893539781601,
positive,positive,1,l,j,,,,,,,,,2,14,50,2,,,,,,,,,,,,,,,,,,,,,,,,main,2,2,1,positive,positive,j,j,1,0.5022417999998652,240.2076591,241.21021150000024,241.19134320000012,None,240.2076591,None,240.2076591,None,240.2076591,None,241.69310493000017,None,241.69310493000017,None,241.69310493000017,None,,,,,,,,,,,231,22,Female,2022-06-03_17h44.07.929,Main,2022.1.1,59.97893539781601,
negative,negative,2,j,l,,,,,,,,,2,15,51,9,,,,,,,,,,,,,,,,,,,,,,,,main,2,2,2,negative,negative,l,l,1,0.728913299999931,241.71295520000012,242.719474,242.69903109999996,None,241.71295520000012,None,241.71295520000012,None,241.71295520000012,None,243.42229883000033,None,243.42229883000033,None,243.42229883000033,None,,,,,,,,,,,231,22,Female,2022-06-03_17h44.07.929,Main,2022.1.1,59.97893539781601,
neutral,positive,2,k,k,,,,,,,,,2,16,52,13,,,,,,,,,,,,,,,,,,,,,,,,main,2,2,2,positive,neutral,k,k,1,0.6287817000002178,243.44692220000024,244.45620940000026,244.4186936000001,None,243.44692220000024,None,243.44692220000024,None,243.44692220000024,None,245.05419603000024,None,245.05419603000024,None,245.05419603000024,None,,,,,,,,,,,231,22,Female,2022-06-03_17h44.07.929,Main,2022.1.1,59.97893539781601,
positive,neutral,1,l,j,,,,,,,,,2,17,53,8,,,,,,,,,,,,,,,,,,,,,,,,main,1,1,1,neutral,positive,j,j,1,0.5344814999998562,245.0739407000001,246.09237660000008,246.0537333000002,None,245.0739407000001,None,245.0739407000001,None,245.0739407000001,None,246.59126863000034,None,246.59126863000034,None,246.59126863000034,None,,,,,,,,,,,231,22,Female,2022-06-03_17h44.07.929,Main,2022.1.1,59.97893539781601,
neutral,positive,2,k,k,,,,,,,,,3,0,54,13,,,,,,,,,,,,,,,,,,,,,,,,main,1,1,2,positive,neutral,k,k,1,0.6428221000001031,246.61669789999996,247.62222070000007,247.6032783999999,None,246.61669789999996,None,246.61669789999996,None,246.61669789999996,None,248.23631093,None,248.23631093,None,248.23631093,None,,,,,,,,,,,231,22,Female,2022-06-03_17h44.07.929,Main,2022.1.1,59.97893539781601,
positive,negative,2,l,j,,,,,,,,,3,1,55,14,,,,,,,,,,,,,,,,,,,,,,,,main,1,1,2,negative,positive,j,j,1,0.738851699999941,248.25700869999991,249.26955120000002,249.2315112000001,None,248.25700869999991,None,248.25700869999991,None,248.25700869999991,None,249.97804213000023,None,249.97804213000023,None,249.97804213000023,None,,,,,,,,,,,231,22,Female,2022-06-03_17h44.07.929,Main,2022.1.1,59.97893539781601,
negative,positive,2,j,l,,,,,,,,,3,2,56,15,,,,,,,,,,,,,,,,,,,,,,,,main,1,1,2,positive,negative,l,l,1,0.603733899999952,250.0010497000003,251.0051751000001,250.98713739999994,None,250.0010497000003,None,250.0010497000003,None,250.0010497000003,None,251.58384742999993,None,251.58384742999993,None,251.58384742999993,None,,,,,,,,,,,231,22,Female,2022-06-03_17h44.07.929,Main,2022.1.1,59.97893539781601,
neutral,neutral,2,k,k,,,,,,,,,3,3,57,10,,,,,,,,,,,,,,,,,,,,,,,,main,2,2,2,neutral,neutral,k,k,1,0.5269396999997298,251.60650740000028,252.60860249999996,252.59185090000028,None,251.60650740000028,None,251.60650740000028,None,251.60650740000028,None,253.1154152300001,None,253.1154152300001,None,253.1154152300001,None,,,,,,,,,,,231,22,Female,2022-06-03_17h44.07.929,Main,2022.1.1,59.97893539781601,
negative,neutral,2,j,l,,,,,,,,,3,4,58,12,,,,,,,,,,,,,,,,,,,,,,,,main,2,2,2,neutral,negative,l,l,1,0.6928884999997535,253.13681940000015,254.13945090000016,254.12036609999996,None,253.13681940000015,None,253.13681940000015,None,253.13681940000015,None,254.81275253000018,None,254.81275253000018,None,254.81275253000018,None,,,,,,,,,,,231,22,Female,2022-06-03_17h44.07.929,Main,2022.1.1,59.97893539781601,
neutral,negative,1,k,k,,,,,,,,,3,5,59,7,,,,,,,,,,,,,,,,,,,,,,,,main,1,1,1,negative,neutral,k,k,1,0.6559831999998096,254.8346985000003,255.83753789999992,255.8186450000003,None,254.8346985000003,None,254.8346985000003,None,254.8346985000003,None,256.46892913000016,None,256.46892913000016,None,256.46892913000016,None,,,,,,,,,,,231,22,Female,2022-06-03_17h44.07.929,Main,2022.1.1,59.97893539781601,
neutral,neutral,1,k,k,,,,,,,,,3,6,60,1,,,,,,,,,,,,,,,,,,,,,,,,main,2,2,1,neutral,neutral,k,k,1,0.5865353000003779,256.4913342,257.5057167,257.4676214000001,None,256.4913342,None,256.4913342,None,256.4913342,None,258.06049113000023,None,258.06049113000023,None,258.06049113000023,None,,,,,,,,,,,231,22,Female,2022-06-03_17h44.07.929,Main,2022.1.1,59.97893539781601,
positive,negative,1,l,j,,,,,,,,,3,7,61,5,,,,,,,,,,,,,,,,,,,,,,,,main,1,1,1,negative,positive,j,j,1,0.6266714999997021,258.0836996000003,259.0924703999999,259.0554139999999,None,258.0836996000003,None,258.0836996000003,None,258.0836996000003,None,259.6872773300002,None,259.6872773300002,None,259.6872773300002,None,,,,,,,,,,,231,22,Female,2022-06-03_17h44.07.929,Main,2022.1.1,59.97893539781601,
negative,positive,1,j,l,,,,,,,,,3,8,62,6,,,,,,,,,,,,,,,,,,,,,,,,main,2,2,1,positive,negative,l,l,1,0.6618578000002344,259.7125824,260.7190061000001,260.6995975,None,259.7125824,None,259.7125824,None,259.7125824,None,261.35337953000004,None,261.35337953000004,None,261.35337953000004,None,,,,,,,,,,,231,22,Female,2022-06-03_17h44.07.929,Main,2022.1.1,59.97893539781601,
neutral,negative,2,k,k,,,,,,,,,3,9,63,16,,,,,,,,,,,,,,,,,,,,,,,,main,1,1,2,negative,neutral,k,k,1,0.7473799999997937,261.3744225999999,262.3822224999999,262.3629120999999,None,261.3744225999999,None,261.3744225999999,None,261.3744225999999,None,263.10331833000015,None,263.10331833000015,None,263.10331833000015,None,,,,,,,,,,,231,22,Female,2022-06-03_17h44.07.929,Main,2022.1.1,59.97893539781601,
positive,positive,2,l,j,,,,,,,,,3,10,64,11,,,,,,,,,,,,,,,,,,,,,,,,main,2,2,2,positive,positive,j,j,1,0.9805286000000706,263.12702320000017,264.14167910000015,264.10383420000016,None,263.12702320000017,None,263.12702320000017,None,263.12702320000017,None,265.0854531300002,None,265.0854531300002,None,265.0854531300002,None,,,,,,,,,,,231,22,Female,2022-06-03_17h44.07.929,Main,2022.1.1,59.97893539781601,
negative,neutral,1,j,l,,,,,,,,,3,11,65,3,,,,,,,,,,,,,,,,,,,,,,,,main,1,1,1,neutral,negative,l,l,1,0.8046868000001268,265.11087320000024,266.1308577,266.0900475000003,None,265.11087320000024,None,265.11087320000024,None,265.11087320000024,None,266.8955946300003,None,266.8955946300003,None,266.8955946300003,None,,,,,,,,,,,231,22,Female,2022-06-03_17h44.07.929,Main,2022.1.1,59.97893539781601,
positive,neutral,1,l,j,,,,,,,,,3,12,66,8,,,,,,,,,,,,,,,,,,,,,,,,main,1,1,1,neutral,positive,j,j,1,0.6297838000000411,266.9175430999999,267.9185081999999,267.90015029999995,None,266.9175430999999,None,266.9175430999999,None,266.9175430999999,None,268.52858513000007,None,268.52858513000007,None,268.52858513000007,None,,,,,,,,,,,231,22,Female,2022-06-03_17h44.07.929,Main,2022.1.1,59.97893539781601,
negative,negative,2,j,l,,,,,,,,,3,13,67,9,,,,,,,,,,,,,,,,,,,,,,,,main,1,1,2,negative,negative,l,l,1,0.7642669000001661,268.5480502999999,269.5505341000003,269.5321162,None,268.5480502999999,None,268.5480502999999,None,268.5480502999999,None,270.2957241300001,None,270.2957241300001,None,270.2957241300001,None,,,,,,,,,,,231,22,Female,2022-06-03_17h44.07.929,Main,2022.1.1,59.97893539781601,
neutral,positive,1,k,k,,,,,,,,,3,14,68,4,,,,,,,,,,,,,,,,,,,,,,,,main,2,2,1,positive,neutral,k,k,1,0.6176196000001255,270.3184408000002,271.3222169999999,271.3030808000003,None,270.3184408000002,None,270.3184408000002,None,270.3184408000002,None,271.91467923000033,None,271.91467923000033,None,271.91467923000033,None,,,,,,,,,,,231,22,Female,2022-06-03_17h44.07.929,Main,2022.1.1,59.97893539781601,
positive,positive,1,l,j,,,,,,,,,3,15,69,2,,,,,,,,,,,,,,,,,,,,,,,,main,2,2,1,positive,positive,j,j,1,0.6153718000000481,271.9374017,272.95365900000024,272.9155442000001,None,271.9374017,None,271.9374017,None,271.9374017,None,273.5331556300003,None,273.5331556300003,None,273.5331556300003,None,,,,,,,,,,,231,22,Female,2022-06-03_17h44.07.929,Main,2022.1.1,59.97893539781601,
positive,neutral,2,l,j,,,,,,,,,3,16,70,17,,,,,,,,,,,,,,,,,,,,,,,,main,1,1,2,neutral,positive,j,j,1,0.6950388000000203,273.55469949999997,274.56378380000024,274.5450347000001,None,273.55469949999997,None,273.55469949999997,None,273.55469949999997,None,275.2309953300001,None,275.2309953300001,None,275.2309953300001,None,,,,,,,,,,,231,22,Female,2022-06-03_17h44.07.929,Main,2022.1.1,59.97893539781601,
negative,negative,1,j,l,,,,,,,,,3,17,71,0,,,,,,,,,,,,,,,,,,,,,,,,main,2,2,1,negative,negative,l,l,1,0.7345359000000826,275.2519271000001,276.2760108000002,276.2292900000002,None,275.2519271000001,None,275.2519271000001,None,275.2519271000001,None,276.96801193000016,None,276.96801193000016,None,276.96801193000016,None,,,,,,,,,,,231,22,Female,2022-06-03_17h44.07.929,Main,2022.1.1,59.97893539781601,
negative,neutral,2,j,l,,,,,,,,,4,0,72,12,,,,,,,,,,,,,,,,,,,,,,,,main,2,2,2,neutral,negative,l,l,1,0.671658600000228,276.9876105000003,277.9968033,277.97790639999994,None,276.9876105000003,None,276.9876105000003,None,276.9876105000003,None,278.64412303000023,None,278.64412303000023,None,278.64412303000023,None,,,,,,,,,,,231,22,Female,2022-06-03_17h44.07.929,Main,2022.1.1,59.97893539781601,
positive,positive,2,l,j,,,,,,,,,4,1,73,11,,,,,,,,,,,,,,,,,,,,,,,,main,1,1,2,positive,positive,j,j,1,0.740316299999904,278.66530150000017,279.67204790000005,279.6532176999999,None,278.66530150000017,None,278.66530150000017,None,278.66530150000017,None,280.38501243000024,None,280.38501243000024,None,280.38501243000024,None,,,,,,,,,,,231,22,Female,2022-06-03_17h44.07.929,Main,2022.1.1,59.97893539781601,
neutral,negative,1,k,k,,,,,,,,,4,2,74,7,,,,,,,,,,,,,,,,,,,,,,,,main,2,2,1,negative,neutral,k,k,1,0.6782301000002917,280.4099997000003,281.42946410000013,281.39172830000007,None,280.4099997000003,None,280.4099997000003,None,280.4099997000003,None,282.0642406299999,None,282.0642406299999,None,282.0642406299999,None,,,,,,,,,,,231,22,Female,2022-06-03_17h44.07.929,Main,2022.1.1,59.97893539781601,
neutral,neutral,2,k,k,,,,,,,,,4,3,75,10,,,,,,,,,,,,,,,,,,,,,,,,main,2,2,2,neutral,neutral,k,k,1,0.7990340000001197,282.08662570000024,283.10162990000026,283.06313580000005,None,282.08662570000024,None,282.08662570000024,None,282.08662570000024,None,283.86722113,None,283.86722113,None,283.86722113,None,,,,,,,,,,,231,22,Female,2022-06-03_17h44.07.929,Main,2022.1.1,59.97893539781601,
positive,neutral,2,l,j,,,,,,,,,4,4,76,17,,,,,,,,,,,,,,,,,,,,,,,,main,2,2,2,neutral,positive,j,j,1,0.7994045999998889,283.8917687000003,284.9016608000002,284.8633907000003,None,283.8917687000003,None,283.8917687000003,None,283.8917687000003,None,285.6699746300001,None,285.6699746300001,None,285.6699746300001,None,,,,,,,,,,,231,22,Female,2022-06-03_17h44.07.929,Main,2022.1.1,59.97893539781601,
negative,neutral,1,j,l,,,,,,,,,4,5,77,3,,,,,,,,,,,,,,,,,,,,,,,,main,1,1,1,neutral,negative,l,l,1,0.6984145999999782,285.69470520000004,286.70243770000025,286.6832285999999,None,285.69470520000004,None,285.69470520000004,None,285.69470520000004,None,287.37144883000025,None,287.37144883000025,None,287.37144883000025,None,,,,,,,,,,,231,22,Female,2022-06-03_17h44.07.929,Main,2022.1.1,59.97893539781601,
negative,negative,1,j,l,,,,,,,,,4,6,78,0,,,,,,,,,,,,,,,,,,,,,,,,main,2,2,1,negative,negative,l,l,1,0.7378895000001648,287.3928264000001,288.3972240000003,288.37814930000013,None,287.3928264000001,None,287.3928264000001,None,287.3928264000001,None,289.1104203300002,None,289.1104203300002,None,289.1104203300002,None,,,,,,,,,,,231,22,Female,2022-06-03_17h44.07.929,Main,2022.1.1,59.97893539781601,
negative,negative,2,j,l,,,,,,,,,4,7,79,9,,,,,,,,,,,,,,,,,,,,,,,,main,2,2,2,negative,negative,l,l,1,1.0400712999999087,289.1336715000002,290.15270480000027,290.11538280000013,None,289.1336715000002,None,289.1336715000002,None,289.1336715000002,None,291.15702523000033,None,291.15702523000033,None,291.15702523000033,None,,,,,,,,,,,231,22,Female,2022-06-03_17h44.07.929,Main,2022.1.1,59.97893539781601,
neutral,negative,2,k,k,,,,,,,,,4,8,80,16,,,,,,,,,,,,,,,,,,,,,,,,main,2,2,2,negative,neutral,k,k,1,0.5160940000000664,291.1762458000003,292.18331320000016,292.16484990000026,None,291.1762458000003,None,291.1762458000003,None,291.1762458000003,None,292.67513213000035,None,292.67513213000035,None,292.67513213000035,None,,,,,,,,,,,231,22,Female,2022-06-03_17h44.07.929,Main,2022.1.1,59.97893539781601,
positive,neutral,1,l,j,,,,,,,,,4,9,81,8,,,,,,,,,,,,,,,,,,,,,,,,main,1,1,1,neutral,positive,j,l,0,-0.2288431000001765,292.70118600000023,None,None,None,292.70118600000023,None,292.70118600000023,None,292.70118600000023,None,293.4647987000003,None,293.4647987000003,None,293.4647987000003,None,,,,,,,,,,,231,22,Female,2022-06-03_17h44.07.929,Main,2022.1.1,59.97893539781601,
neutral,neutral,1,k,k,,,,,,,,,4,10,82,1,,,,,,,,,,,,,,,,,,,,,,,,main,1,1,1,neutral,neutral,k,k,1,0.77394699999968,296.4845472000002,297.49630400000024,297.4776428,None,296.4845472000002,None,296.4845472000002,None,296.4845472000002,None,298.2406419300001,None,298.2406419300001,None,298.2406419300001,None,,,,,,,,,,,231,22,Female,2022-06-03_17h44.07.929,Main,2022.1.1,59.97893539781601,
positive,positive,1,l,j,,,,,,,,,4,11,83,2,,,,,,,,,,,,,,,,,,,,,,,,main,2,2,1,positive,positive,j,j,1,0.7326601999998275,298.26066290000017,299.28213619999997,299.24197219999996,None,298.26066290000017,None,298.26066290000017,None,298.26066290000017,None,299.97556303000016,None,299.97556303000016,None,299.97556303000016,None,,,,,,,,,,,231,22,Female,2022-06-03_17h44.07.929,Main,2022.1.1,59.97893539781601,
neutral,positive,1,k,k,,,,,,,,,4,12,84,4,,,,,,,,,,,,,,,,,,,,,,,,main,1,1,1,positive,neutral,k,k,1,0.6394497000001138,299.99586420000014,301.0066096999999,300.9684169000002,None,299.99586420000014,None,299.99586420000014,None,299.99586420000014,None,301.61778763000035,None,301.61778763000035,None,301.61778763000035,None,,,,,,,,,,,231,22,Female,2022-06-03_17h44.07.929,Main,2022.1.1,59.97893539781601,
neutral,positive,2,k,k,,,,,,,,,4,13,85,13,,,,,,,,,,,,,,,,,,,,,,,,main,1,1,2,positive,neutral,k,k,1,0.5587964000001193,301.63803929999995,302.6596569000003,302.6202639000003,None,301.63803929999995,None,301.63803929999995,None,301.63803929999995,None,303.19032356000037,None,303.19032356000037,None,303.19032356000037,None,,,,,,,,,,,231,22,Female,2022-06-03_17h44.07.929,Main,2022.1.1,59.97893539781601,
negative,positive,1,j,l,,,,,,,,,4,14,86,6,,,,,,,,,,,,,,,,,,,,,,,,main,2,2,1,positive,negative,l,l,1,0.721036500000082,303.2049130999999,304.2130072,304.1937879000002,None,303.2049130999999,None,303.2049130999999,None,303.2049130999999,None,304.90480963000033,None,304.90480963000033,None,304.90480963000033,None,,,,,,,,,,,231,22,Female,2022-06-03_17h44.07.929,Main,2022.1.1,59.97893539781601,
negative,positive,2,j,l,,,,,,,,,4,15,87,15,,,,,,,,,,,,,,,,,,,,,,,,main,1,1,2,positive,negative,l,l,1,0.682429399999819,304.9258259000003,305.9349807000003,305.89679810000007,None,304.9258259000003,None,304.9258259000003,None,304.9258259000003,None,306.58945623000005,None,306.58945623000005,None,306.58945623000005,None,,,,,,,,,,,231,22,Female,2022-06-03_17h44.07.929,Main,2022.1.1,59.97893539781601,
positive,negative,1,l,j,,,,,,,,,4,16,88,5,,,,,,,,,,,,,,,,,,,,,,,,main,2,2,1,negative,positive,j,j,1,0.7931401999999252,306.61106210000025,307.6134632000003,307.59510050000017,None,306.61106210000025,None,306.61106210000025,None,306.61106210000025,None,308.3830775300003,None,308.3830775300003,None,308.3830775300003,None,,,,,,,,,,,231,22,Female,2022-06-03_17h44.07.929,Main,2022.1.1,59.97893539781601,
positive,negative,2,l,j,,,,,,,,,4,17,89,14,,,,,,,,,,,,,,,,,,,,,,,,main,2,2,2,negative,positive,j,j,1,0.6474823000003198,308.40357410000024,309.4205844000003,309.3815162000001,None,308.40357410000024,None,308.40357410000024,None,308.40357410000024,None,310.0330192300003,None,310.0330192300003,None,310.0330192300003,None,,,,,,,,,,,231,22,Female,2022-06-03_17h44.07.929,Main,2022.1.1,59.97893539781601,
negative,negative,2,j,l,,,,,,,,,5,0,90,9,,,,,,,,,,,,,,,,,,,,,,,,main,1,1,2,negative,negative,l,l,1,0.703056800000013,310.05340000000024,311.0734878000003,311.0344703999999,None,310.05340000000024,None,310.05340000000024,None,310.05340000000024,None,311.74132332999994,None,311.74132332999994,None,311.74132332999994,None,,,,,,,,,,,231,22,Female,2022-06-03_17h44.07.929,Main,2022.1.1,59.97893539781601,
positive,negative,2,l,j,,,,,,,,,5,1,91,14,,,,,,,,,,,,,,,,,,,,,,,,main,1,1,2,negative,positive,j,j,1,0.7327387000000272,311.7619233999999,312.7809503000003,312.74295770000026,None,311.7619233999999,None,311.7619233999999,None,311.7619233999999,None,313.47714563000005,None,313.47714563000005,None,313.47714563000005,None,,,,,,,,,,,231,22,Female,2022-06-03_17h44.07.929,Main,2022.1.1,59.97893539781601,
neutral,negative,2,k,k,,,,,,,,,5,2,92,16,,,,,,,,,,,,,,,,,,,,,,,,main,1,1,2,negative,neutral,k,k,1,0.5098468999999568,313.4964635000001,314.4997435,314.4809341,None,313.4964635000001,None,313.4964635000001,None,313.4964635000001,None,314.99052553000007,None,314.99052553000007,None,314.99052553000007,None,,,,,,,,,,,231,22,Female,2022-06-03_17h44.07.929,Main,2022.1.1,59.97893539781601,
neutral,positive,2,k,k,,,,,,,,,5,3,93,13,,,,,,,,,,,,,,,,,,,,,,,,main,2,2,2,positive,neutral,k,k,1,0.571664999999939,315.01120919999994,316.0276509999999,315.9900726000001,None,315.01120919999994,None,315.01120919999994,None,315.01120919999994,None,316.56667453000006,None,316.56667453000006,None,316.56667453000006,None,,,,,,,,,,,231,22,Female,2022-06-03_17h44.07.929,Main,2022.1.1,59.97893539781601,
negative,negative,1,j,l,,,,,,,,,5,4,94,0,,,,,,,,,,,,,,,,,,,,,,,,main,1,1,1,negative,negative,l,,0,0.8983546999997998,316.5857645000001,317.59669250000024,317.5586252000003,None,316.5857645000001,None,316.5857645000001,None,316.5857645000001,None,318.4737715000001,None,318.4737715000001,None,318.4737715000001,None,,,,,,,,,,,231,22,Female,2022-06-03_17h44.07.929,Main,2022.1.1,59.97893539781601,
positive,negative,1,l,j,,,,,,,,,5,5,95,5,,,,,,,,,,,,,,,,,,,,,,,,main,1,1,1,negative,positive,j,j,1,0.7529193999998824,319.4972864000001,320.51008420000016,320.4916991,None,319.4972864000001,None,319.4972864000001,None,319.4972864000001,None,321.23334573000017,None,321.23334573000017,None,321.23334573000017,None,,,,,,,,,,,231,22,Female,2022-06-03_17h44.07.929,Main,2022.1.1,59.97893539781601,
neutral,positive,1,k,k,,,,,,,,,5,6,96,4,,,,,,,,,,,,,,,,,,,,,,,,main,2,2,1,positive,neutral,k,k,1,0.6977280000000974,321.254359,322.2615744,322.24209340000016,None,321.254359,None,321.254359,None,321.254359,None,322.93222463000035,None,322.93222463000035,None,322.93222463000035,None,,,,,,,,,,,231,22,Female,2022-06-03_17h44.07.929,Main,2022.1.1,59.97893539781601,
negative,neutral,2,j,l,,,,,,,,,5,7,97,12,,,,,,,,,,,,,,,,,,,,,,,,main,2,2,2,neutral,negative,l,l,1,0.6794451999999183,322.9573757000003,323.9628628999999,323.9434546000002,None,322.9573757000003,None,322.9573757000003,None,322.9573757000003,None,324.6165244300001,None,324.6165244300001,None,324.6165244300001,None,,,,,,,,,,,231,22,Female,2022-06-03_17h44.07.929,Main,2022.1.1,59.97893539781601,
positive,positive,1,l,j,,,,,,,,,5,8,98,2,,,,,,,,,,,,,,,,,,,,,,,,main,1,1,1,positive,positive,j,j,1,0.6448447000002488,324.63836500000025,325.64743720000024,325.6266407000003,None,324.63836500000025,None,324.63836500000025,None,324.63836500000025,None,326.26546563000016,None,326.26546563000016,None,326.26546563000016,None,,,,,,,,,,,231,22,Female,2022-06-03_17h44.07.929,Main,2022.1.1,59.97893539781601,
neutral,neutral,1,k,k,,,,,,,,,5,9,99,1,,,,,,,,,,,,,,,,,,,,,,,,main,1,1,1,neutral,neutral,k,k,1,0.7032134999999471,326.28554600000007,327.28798300000017,327.26905609999994,None,326.28554600000007,None,326.28554600000007,None,326.28554600000007,None,327.9699761299999,None,327.9699761299999,None,327.9699761299999,None,,,,,,,,,,,231,22,Female,2022-06-03_17h44.07.929,Main,2022.1.1,59.97893539781601,
positive,positive,2,l,j,,,,,,,,,5,10,100,11,,,,,,,,,,,,,,,,,,,,,,,,main,2,2,2,positive,positive,j,j,1,0.7296277000000373,327.9927775000001,329.00260290000006,328.98335810000026,None,327.9927775000001,None,327.9927775000001,None,327.9927775000001,None,329.70378953000005,None,329.70378953000005,None,329.70378953000005,None,,,,,,,,,,,231,22,Female,2022-06-03_17h44.07.929,Main,2022.1.1,59.97893539781601,
neutral,negative,1,k,k,,,,,,,,,5,11,101,7,,,,,,,,,,,,,,,,,,,,,,,,main,1,1,1,negative,neutral,k,k,1,0.6752624000000651,329.7235301999999,330.7289813000002,330.7102782000002,None,329.7235301999999,None,329.7235301999999,None,329.7235301999999,None,331.38021553000004,None,331.38021553000004,None,331.38021553000004,None,,,,,,,,,,,231,22,Female,2022-06-03_17h44.07.929,Main,2022.1.1,59.97893539781601,
positive,neutral,2,l,j,,,,,,,,,5,12,102,17,,,,,,,,,,,,,,,,,,,,,,,,main,2,2,2,neutral,positive,j,j,1,0.6643456000001606,331.4003972999999,332.41305360000024,332.3734870000003,None,331.4003972999999,None,331.4003972999999,None,331.4003972999999,None,333.0466345300002,None,333.0466345300002,None,333.0466345300002,None,,,,,,,,,,,231,22,Female,2022-06-03_17h44.07.929,Main,2022.1.1,59.97893539781601,
neutral,neutral,2,k,k,,,,,,,,,5,13,103,10,,,,,,,,,,,,,,,,,,,,,,,,main,1,1,2,neutral,neutral,k,k,1,0.5487145000001874,333.0712432999999,334.08914000000004,334.05150219999996,None,333.0712432999999,None,333.0712432999999,None,333.0712432999999,None,334.59956762999997,None,334.59956762999997,None,334.59956762999997,None,,,,,,,,,,,231,22,Female,2022-06-03_17h44.07.929,Main,2022.1.1,59.97893539781601,
positive,neutral,1,l,j,,,,,,,,,5,14,104,8,,,,,,,,,,,,,,,,,,,,,,,,main,1,1,1,neutral,positive,j,j,1,0.6241405000000668,334.6184183999999,335.6313645,335.59566330000007,None,334.6184183999999,None,334.6184183999999,None,334.6184183999999,None,336.22462163000006,None,336.22462163000006,None,336.22462163000006,None,,,,,,,,,,,231,22,Female,2022-06-03_17h44.07.929,Main,2022.1.1,59.97893539781601,
negative,positive,1,j,l,,,,,,,,,5,15,105,6,,,,,,,,,,,,,,,,,,,,,,,,main,2,2,1,positive,negative,l,l,1,0.5925707000001239,336.24512170000025,337.2634307000003,337.2258995000002,None,336.24512170000025,None,336.24512170000025,None,336.24512170000025,None,337.8192745300003,None,337.8192745300003,None,337.8192745300003,None,,,,,,,,,,,231,22,Female,2022-06-03_17h44.07.929,Main,2022.1.1,59.97893539781601,
negative,positive,2,j,l,,,,,,,,,5,16,106,15,,,,,,,,,,,,,,,,,,,,,,,,main,2,2,2,positive,negative,l,l,1,0.7009829000003265,337.8422279000001,338.8545739000001,338.8154572000003,None,337.8422279000001,None,337.8422279000001,None,337.8422279000001,None,339.5244824300003,None,339.5244824300003,None,339.5244824300003,None,,,,,,,,,,,231,22,Female,2022-06-03_17h44.07.929,Main,2022.1.1,59.97893539781601,
negative,neutral,1,j,l,,,,,,,,,5,17,107,3,,,,,,,,,,,,,,,,,,,,,,,,main,2,2,1,neutral,negative,l,l,1,0.6891916999998102,339.5457768000001,340.5484031000001,340.52961110000024,None,339.5457768000001,None,339.5457768000001,None,339.5457768000001,None,341.2181673300002,None,341.2181673300002,None,341.2181673300002,None,,,,,,,,,,,231,22,Female,2022-06-03_17h44.07.929,Main,2022.1.1,59.97893539781601,
negative,positive,2,j,l,,,,,,,,,6,0,108,15,,,,,,,,,,,,,,,,,,,,,,,,main,2,2,2,positive,negative,l,l,1,0.5608270000002449,341.23839850000013,342.24431760000016,342.22542410000005,None,341.23839850000013,None,341.23839850000013,None,341.23839850000013,None,342.78118963000003,None,342.78118963000003,None,342.78118963000003,None,,,,,,,,,,,231,22,Female,2022-06-03_17h44.07.929,Main,2022.1.1,59.97893539781601,
positive,negative,1,l,j,,,,,,,,,6,1,109,5,,,,,,,,,,,,,,,,,,,,,,,,main,1,1,1,negative,positive,j,j,1,0.723368599999958,342.8037445,343.81365800000003,343.7931520000002,None,342.8037445,None,342.8037445,None,342.8037445,None,344.5054894300002,None,344.5054894300002,None,344.5054894300002,None,,,,,,,,,,,231,22,Female,2022-06-03_17h44.07.929,Main,2022.1.1,59.97893539781601,
positive,positive,2,l,j,,,,,,,,,6,2,110,11,,,,,,,,,,,,,,,,,,,,,,,,main,2,2,2,positive,positive,j,j,1,0.604203299999881,344.52727700000014,345.53874870000027,345.4998356000001,None,344.52727700000014,None,344.52727700000014,None,344.52727700000014,None,346.11352083000025,None,346.11352083000025,None,346.11352083000025,None,,,,,,,,,,,231,22,Female,2022-06-03_17h44.07.929,Main,2022.1.1,59.97893539781601,
negative,neutral,2,j,l,,,,,,,,,6,3,111,12,,,,,,,,,,,,,,,,,,,,,,,,main,2,2,2,neutral,negative,l,j,0,0.5606551000000763,346.13685320000013,347.1579741999999,347.1183507999999,None,346.13685320000013,None,346.13685320000013,None,346.13685320000013,None,347.68082129999993,None,347.68082129999993,None,347.68082129999993,None,,,,,,,,,,,231,22,Female,2022-06-03_17h44.07.929,Main,2022.1.1,59.97893539781601,
negative,negative,2,j,l,,,,,,,,,6,4,112,9,,,,,,,,,,,,,,,,,,,,,,,,main,2,2,2,negative,negative,l,l,1,0.6874480000001313,348.69486340000003,349.69655809999995,349.67780300000004,None,348.69486340000003,None,348.69486340000003,None,348.69486340000003,None,350.3612613300002,None,350.3612613300002,None,350.3612613300002,None,,,,,,,,,,,231,22,Female,2022-06-03_17h44.07.929,Main,2022.1.1,59.97893539781601,
positive,positive,1,l,j,,,,,,,,,6,5,113,2,,,,,,,,,,,,,,,,,,,,,,,,main,2,2,1,positive,positive,j,j,1,0.6808435999996618,350.3873123000003,351.39543030000004,351.37677220000023,None,350.3873123000003,None,350.3873123000003,None,350.3873123000003,None,352.04530002999996,None,352.04530002999996,None,352.04530002999996,None,,,,,,,,,,,231,22,Female,2022-06-03_17h44.07.929,Main,2022.1.1,59.97893539781601,
neutral,neutral,2,k,k,,,,,,,,,6,6,114,10,,,,,,,,,,,,,,,,,,,,,,,,main,1,1,2,neutral,neutral,k,k,1,0.5955381000003399,352.06668820000004,353.0711441000003,353.05094099999997,None,352.06668820000004,None,352.06668820000004,None,352.06668820000004,None,353.6449176300003,None,353.6449176300003,None,353.6449176300003,None,,,,,,,,,,,231,22,Female,2022-06-03_17h44.07.929,Main,2022.1.1,59.97893539781601,
positive,neutral,1,l,j,,,,,,,,,6,7,115,8,,,,,,,,,,,,,,,,,,,,,,,,main,1,1,1,neutral,positive,j,j,1,0.6088384999998198,353.6655598000002,354.6850265000003,354.6459156000001,None,353.6655598000002,None,353.6655598000002,None,353.6655598000002,None,355.2560247300003,None,355.2560247300003,None,355.2560247300003,None,,,,,,,,,,,231,22,Female,2022-06-03_17h44.07.929,Main,2022.1.1,59.97893539781601,
neutral,positive,1,k,k,,,,,,,,,6,8,116,4,,,,,,,,,,,,,,,,,,,,,,,,main,1,1,1,positive,neutral,k,k,1,0.7732774000000973,355.2760192999999,356.2845605000002,356.2656184000002,None,355.2760192999999,None,355.2760192999999,None,355.2760192999999,None,357.0319381300001,None,357.0319381300001,None,357.0319381300001,None,,,,,,,,,,,231,22,Female,2022-06-03_17h44.07.929,Main,2022.1.1,59.97893539781601,
neutral,negative,1,k,k,,,,,,,,,6,9,117,7,,,,,,,,,,,,,,,,,,,,,,,,main,2,2,1,negative,neutral,k,k,1,0.7517160999996122,357.0546158000002,358.0610350000002,358.0427093000003,None,357.0546158000002,None,357.0546158000002,None,357.0546158000002,None,358.78674313000016,None,358.78674313000016,None,358.78674313000016,None,,,,,,,,,,,231,22,Female,2022-06-03_17h44.07.929,Main,2022.1.1,59.97893539781601,
neutral,positive,2,k,k,,,,,,,,,6,10,118,13,,,,,,,,,,,,,,,,,,,,,,,,main,2,2,2,positive,neutral,k,k,1,0.5726151999997455,358.8071175,359.8244073000001,359.7854666000003,None,358.8071175,None,358.8071175,None,358.8071175,None,360.3636163300003,None,360.3636163300003,None,360.3636163300003,None,,,,,,,,,,,231,22,Female,2022-06-03_17h44.07.929,Main,2022.1.1,59.97893539781601,
negative,positive,1,j,l,,,,,,,,,6,11,119,6,,,,,,,,,,,,,,,,,,,,,,,,main,1,1,1,positive,negative,l,l,1,0.5544002999999975,360.38574370000015,361.3975912000001,361.36032479999994,None,360.38574370000015,None,360.38574370000015,None,360.38574370000015,None,361.91990753000033,None,361.91990753000033,None,361.91990753000033,None,,,,,,,,,,,231,22,Female,2022-06-03_17h44.07.929,Main,2022.1.1,59.97893539781601,
neutral,negative,2,k,k,,,,,,,,,6,12,120,16,,,,,,,,,,,,,,,,,,,,,,,,main,1,1,2,negative,neutral,k,k,1,0.6405037999998058,361.9403041999999,362.9530095,362.91441840000016,None,361.9403041999999,None,361.9403041999999,None,361.9403041999999,None,363.5644088300001,None,363.5644088300001,None,363.5644088300001,None,,,,,,,,,,,231,22,Female,2022-06-03_17h44.07.929,Main,2022.1.1,59.97893539781601,
positive,neutral,2,l,j,,,,,,,,,6,13,121,17,,,,,,,,,,,,,,,,,,,,,,,,main,2,2,2,neutral,positive,j,j,1,0.7603675000000294,363.5851069,364.60317840000016,364.5638850999999,None,363.5851069,None,363.5851069,None,363.5851069,None,365.32802523000015,None,365.32802523000015,None,365.32802523000015,None,,,,,,,,,,,231,22,Female,2022-06-03_17h44.07.929,Main,2022.1.1,59.97893539781601,
positive,negative,2,l,j,,,,,,,,,6,14,122,14,,,,,,,,,,,,,,,,,,,,,,,,main,1,1,2,negative,positive,j,j,1,0.8011188999998922,365.3486812000001,366.35933950000026,366.3232399000003,None,365.3486812000001,None,365.3486812000001,None,365.3486812000001,None,367.1311448300003,None,367.1311448300003,None,367.1311448300003,None,,,,,,,,,,,231,22,Female,2022-06-03_17h44.07.929,Main,2022.1.1,59.97893539781601,
neutral,neutral,1,k,k,,,,,,,,,6,15,123,1,,,,,,,,,,,,,,,,,,,,,,,,main,2,2,1,neutral,neutral,k,k,1,0.7103637000000163,367.1508813999999,368.1563240999999,368.1371468000002,None,367.1508813999999,None,367.1508813999999,None,367.1508813999999,None,368.84427573,None,368.84427573,None,368.84427573,None,,,,,,,,,,,231,22,Female,2022-06-03_17h44.07.929,Main,2022.1.1,59.97893539781601,
negative,neutral,1,j,l,,,,,,,,,6,16,124,3,,,,,,,,,,,,,,,,,,,,,,,,main,2,2,1,neutral,negative,l,l,1,0.874256399999922,368.8635899000001,369.8764110000002,369.8377069000003,None,368.8635899000001,None,368.8635899000001,None,368.8635899000001,None,370.71879993,None,370.71879993,None,370.71879993,None,,,,,,,,,,,231,22,Female,2022-06-03_17h44.07.929,Main,2022.1.1,59.97893539781601,
negative,negative,1,j,l,,,,,,,,,6,17,125,0,,,,,,,,,,,,,,,,,,,,,,,,main,1,1,1,negative,negative,l,l,1,0.7704706999998052,370.7405923000001,371.7482433,371.7274302999999,None,370.7405923000001,None,370.7405923000001,None,370.7405923000001,None,372.49208353,None,372.49208353,None,372.49208353,None,,,,,,,,,,,231,22,Female,2022-06-03_17h44.07.929,Main,2022.1.1,59.97893539781601,
neutral,neutral,1,k,k,,,,,,,,,7,0,126,1,,,,,,,,,,,,,,,,,,,,,,,,main,1,1,1,neutral,neutral,k,k,1,0.6609682000002977,372.5163113000003,373.52635910000026,373.49006869999994,None,372.5163113000003,None,372.5163113000003,None,372.5163113000003,None,374.1545870300002,None,374.1545870300002,None,374.1545870300002,None,,,,,,,,,,,231,22,Female,2022-06-03_17h44.07.929,Main,2022.1.1,59.97893539781601,
negative,negative,1,j,l,,,,,,,,,7,1,127,0,,,,,,,,,,,,,,,,,,,,,,,,main,2,2,1,negative,negative,l,l,1,0.7048546999999417,374.18024300000025,375.19586819999995,375.15697750000027,None,374.18024300000025,None,374.18024300000025,None,374.18024300000025,None,375.86529982999997,None,375.86529982999997,None,375.86529982999997,None,,,,,,,,,,,231,22,Female,2022-06-03_17h44.07.929,Main,2022.1.1,59.97893539781601,
neutral,positive,2,k,k,,,,,,,,,7,2,128,13,,,,,,,,,,,,,,,,,,,,,,,,main,1,1,2,positive,neutral,k,k,1,0.7016696999999112,375.8853366000003,376.8977617999999,376.8589314000001,None,375.8853366000003,None,375.8853366000003,None,375.8853366000003,None,377.56939702999995,None,377.56939702999995,None,377.56939702999995,None,,,,,,,,,,,231,22,Female,2022-06-03_17h44.07.929,Main,2022.1.1,59.97893539781601,
positive,negative,2,l,j,,,,,,,,,7,3,129,14,,,,,,,,,,,,,,,,,,,,,,,,main,2,2,2,negative,positive,j,j,1,0.80298780000021,377.5909021000002,378.6095375,378.57212070000014,None,377.5909021000002,None,377.5909021000002,None,377.5909021000002,None,379.3771465300002,None,379.3771465300002,None,379.3771465300002,None,,,,,,,,,,,231,22,Female,2022-06-03_17h44.07.929,Main,2022.1.1,59.97893539781601,
negative,positive,2,j,l,,,,,,,,,7,4,130,15,,,,,,,,,,,,,,,,,,,,,,,,main,1,1,2,positive,negative,l,l,1,0.9853330000000824,379.3969283000001,380.4076946,380.38759130000017,None,379.3969283000001,None,379.3969283000001,None,379.3969283000001,None,381.3649256300001,None,381.3649256300001,None,381.3649256300001,None,,,,,,,,,,,231,22,Female,2022-06-03_17h44.07.929,Main,2022.1.1,59.97893539781601,
positive,positive,2,l,j,,,,,,,,,7,5,131,11,,,,,,,,,,,,,,,,,,,,,,,,main,1,1,2,positive,positive,j,j,1,0.7420870000000832,381.3865794000003,382.4001429,382.3612925000002,None,381.3865794000003,None,381.3865794000003,None,381.3865794000003,None,383.11127773000004,None,383.11127773000004,None,383.11127773000004,None,,,,,,,,,,,231,22,Female,2022-06-03_17h44.07.929,Main,2022.1.1,59.97893539781601,
neutral,negative,2,k,k,,,,,,,,,7,6,132,16,,,,,,,,,,,,,,,,,,,,,,,,main,2,2,2,negative,neutral,k,k,1,0.6512869999996838,383.13175219999994,384.13366440000027,384.1146266999999,None,383.13175219999994,None,383.13175219999994,None,383.13175219999994,None,384.76562353000014,None,384.76562353000014,None,384.76562353000014,None,,,,,,,,,,,231,22,Female,2022-06-03_17h44.07.929,Main,2022.1.1,59.97893539781601,
negative,neutral,2,j,l,,,,,,,,,7,7,133,12,,,,,,,,,,,,,,,,,,,,,,,,main,1,1,2,neutral,negative,l,l,1,0.9760314999998627,384.78548679999994,385.7916158000003,385.77272230000017,None,384.78548679999994,None,384.78548679999994,None,384.78548679999994,None,386.74612883000015,None,386.74612883000015,None,386.74612883000015,None,,,,,,,,,,,231,22,Female,2022-06-03_17h44.07.929,Main,2022.1.1,59.97893539781601,
neutral,negative,1,k,k,,,,,,,,,7,8,134,7,,,,,,,,,,,,,,,,,,,,,,,,main,1,1,1,negative,neutral,k,k,1,0.594306399999823,386.7652438,387.7851270000001,387.7469153000002,None,386.7652438,None,386.7652438,None,386.7652438,None,388.34258073000007,None,388.34258073000007,None,388.34258073000007,None,,,,,,,,,,,231,22,Female,2022-06-03_17h44.07.929,Main,2022.1.1,59.97893539781601,
negative,negative,2,j,l,,,,,,,,,7,9,135,9,,,,,,,,,,,,,,,,,,,,,,,,main,2,2,2,negative,negative,l,l,1,0.6752234999999018,388.36245670000017,389.36836730000005,389.3494194,None,388.36245670000017,None,388.36245670000017,None,388.36245670000017,None,390.0183315300001,None,390.0183315300001,None,390.0183315300001,None,,,,,,,,,,,231,22,Female,2022-06-03_17h44.07.929,Main,2022.1.1,59.97893539781601,
positive,positive,1,l,j,,,,,,,,,7,10,136,2,,,,,,,,,,,,,,,,,,,,,,,,main,1,1,1,positive,positive,j,j,1,0.7069040999999743,390.0386661000002,391.0415044000001,391.0226617000003,None,390.0386661000002,None,390.0386661000002,None,390.0386661000002,None,391.7298686300001,None,391.7298686300001,None,391.7298686300001,None,,,,,,,,,,,231,22,Female,2022-06-03_17h44.07.929,Main,2022.1.1,59.97893539781601,
neutral,positive,1,k,k,,,,,,,,,7,11,137,4,,,,,,,,,,,,,,,,,,,,,,,,main,1,1,1,positive,neutral,k,k,1,0.48745929999995496,391.75072520000003,392.76205740000023,392.7223739000001,None,391.75072520000003,None,391.75072520000003,None,391.75072520000003,None,393.21865393000013,None,393.21865393000013,None,393.21865393000013,None,,,,,,,,,,,231,22,Female,2022-06-03_17h44.07.929,Main,2022.1.1,59.97893539781601,
positive,negative,1,l,j,,,,,,,,,7,12,138,5,,,,,,,,,,,,,,,,,,,,,,,,main,2,2,1,negative,positive,j,j,1,0.8634738000000652,393.2400312,394.2545121000003,394.21678169999996,None,393.2400312,None,393.2400312,None,393.2400312,None,395.08438623000035,None,395.08438623000035,None,395.08438623000035,None,,,,,,,,,,,231,22,Female,2022-06-03_17h44.07.929,Main,2022.1.1,59.97893539781601,
negative,neutral,1,j,l,,,,,,,,,7,13,139,3,,,,,,,,,,,,,,,,,,,,,,,,main,2,2,1,neutral,negative,l,l,1,0.7657430999997814,395.10558260000016,396.1244264000002,396.08522840000023,None,395.10558260000016,None,395.10558260000016,None,395.10558260000016,None,396.85269552999995,None,396.85269552999995,None,396.85269552999995,None,,,,,,,,,,,231,22,Female,2022-06-03_17h44.07.929,Main,2022.1.1,59.97893539781601,
positive,neutral,1,l,j,,,,,,,,,7,14,140,8,,,,,,,,,,,,,,,,,,,,,,,,main,2,2,1,neutral,positive,j,j,1,0.8517080000001442,396.87268859999995,397.88644280000017,397.8498665000002,None,396.87268859999995,None,396.87268859999995,None,396.87268859999995,None,398.70661423000007,None,398.70661423000007,None,398.70661423000007,None,,,,,,,,,,,231,22,Female,2022-06-03_17h44.07.929,Main,2022.1.1,59.97893539781601,
neutral,neutral,2,k,k,,,,,,,,,7,15,141,10,,,,,,,,,,,,,,,,,,,,,,,,main,1,1,2,neutral,neutral,k,k,1,0.6762970999998288,398.7313492000003,399.7400514000001,399.72165350000023,None,398.7313492000003,None,398.7313492000003,None,398.7313492000003,None,400.3858265300001,None,400.3858265300001,None,400.3858265300001,None,,,,,,,,,,,231,22,Female,2022-06-03_17h44.07.929,Main,2022.1.1,59.97893539781601,
negative,positive,1,j,l,,,,,,,,,7,16,142,6,,,,,,,,,,,,,,,,,,,,,,,,main,1,1,1,positive,negative,l,l,1,0.9214016000000811,400.40620100000024,401.4164854999999,401.3974562000003,None,400.40620100000024,None,400.40620100000024,None,400.40620100000024,None,402.31123863,None,402.31123863,None,402.31123863,None,,,,,,,,,,,231,22,Female,2022-06-03_17h44.07.929,Main,2022.1.1,59.97893539781601,
positive,neutral,2,l,j,,,,,,,,,7,17,143,17,,,,,,,,,,,,,,,,,,,,,,,,main,2,2,2,neutral,positive,j,j,1,0.7407677000001058,402.33202900000015,403.34538840000005,403.30646130000014,None,402.33202900000015,None,402.33202900000015,None,402.33202900000015,None,404.0556729300002,None,404.0556729300002,None,404.0556729300002,None,,,,,,,,,,,231,22,Female,2022-06-03_17h44.07.929,Main,2022.1.1,59.97893539781601,
neutral,neutral,2,k,k,,,,,,,,,8,0,144,10,,,,,,,,,,,,,,,,,,,,,,,,main,1,1,2,neutral,neutral,k,k,1,0.6462499000003845,404.0750949000003,405.08930450000025,405.0523608000003,None,404.0750949000003,None,404.0750949000003,None,404.0750949000003,None,405.7024219300002,None,405.7024219300002,None,405.7024219300002,None,,,,,,,,,,,231,22,Female,2022-06-03_17h44.07.929,Main,2022.1.1,59.97893539781601,
positive,neutral,2,l,j,,,,,,,,,8,1,145,17,,,,,,,,,,,,,,,,,,,,,,,,main,2,2,2,neutral,positive,j,j,1,0.9783241000000089,405.72660640000004,406.7384870000001,406.6995073000003,None,405.72660640000004,None,405.72660640000004,None,405.72660640000004,None,407.68313623,None,407.68313623,None,407.68313623,None,,,,,,,,,,,231,22,Female,2022-06-03_17h44.07.929,Main,2022.1.1,59.97893539781601,
neutral,positive,1,k,k,,,,,,,,,8,2,146,4,,,,,,,,,,,,,,,,,,,,,,,,main,2,2,1,positive,neutral,k,k,1,0.6721407999998519,407.70481689999997,408.7227657000003,408.6833455000001,None,407.70481689999997,None,407.70481689999997,None,407.70481689999997,None,409.3587217300001,None,409.3587217300001,None,409.3587217300001,None,,,,,,,,,,,231,22,Female,2022-06-03_17h44.07.929,Main,2022.1.1,59.97893539781601,
negative,neutral,2,j,l,,,,,,,,,8,3,147,12,,,,,,,,,,,,,,,,,,,,,,,,main,2,2,2,neutral,negative,l,l,1,0.8485169000000496,409.3809113000002,410.3855212000003,410.36659370000007,None,409.3809113000002,None,409.3809113000002,None,409.3809113000002,None,411.2108649299999,None,411.2108649299999,None,411.2108649299999,None,,,,,,,,,,,231,22,Female,2022-06-03_17h44.07.929,Main,2022.1.1,59.97893539781601,
positive,neutral,1,l,j,,,,,,,,,8,4,148,8,,,,,,,,,,,,,,,,,,,,,,,,main,2,2,1,neutral,positive,j,j,1,0.7075301999998374,411.2320899000001,412.24456929999997,412.20527549999997,None,411.2320899000001,None,411.2320899000001,None,411.2320899000001,None,412.92089673000015,None,412.92089673000015,None,412.92089673000015,None,,,,,,,,,,,231,22,Female,2022-06-03_17h44.07.929,Main,2022.1.1,59.97893539781601,
negative,positive,2,j,l,,,,,,,,,8,5,149,15,,,,,,,,,,,,,,,,,,,,,,,,main,1,1,2,positive,negative,l,l,1,0.7655004000002918,412.94690470000023,413.95745639999996,413.93799720000015,None,412.94690470000023,None,412.94690470000023,None,412.94690470000023,None,414.6907099300002,None,414.6907099300002,None,414.6907099300002,None,,,,,,,,,,,231,22,Female,2022-06-03_17h44.07.929,Main,2022.1.1,59.97893539781601,
negative,negative,2,j,l,,,,,,,,,8,6,150,9,,,,,,,,,,,,,,,,,,,,,,,,main,2,2,2,negative,negative,l,l,1,0.9123485000000073,414.71075040000005,415.7266089,415.70584400000007,None,414.71075040000005,None,414.71075040000005,None,414.71075040000005,None,416.6013825300002,None,416.6013825300002,None,416.6013825300002,None,,,,,,,,,,,231,22,Female,2022-06-03_17h44.07.929,Main,2022.1.1,59.97893539781601,
negative,negative,1,j,l,,,,,,,,,8,7,151,0,,,,,,,,,,,,,,,,,,,,,,,,main,1,1,1,negative,negative,l,l,1,0.8565697000003638,416.6280409000001,417.6409042,417.6020727,None,416.6280409000001,None,416.6280409000001,None,416.6280409000001,None,418.46240243000017,None,418.46240243000017,None,418.46240243000017,None,,,,,,,,,,,231,22,Female,2022-06-03_17h44.07.929,Main,2022.1.1,59.97893539781601,
positive,positive,2,l,j,,,,,,,,,8,8,152,11,,,,,,,,,,,,,,,,,,,,,,,,main,2,2,2,positive,positive,j,j,1,0.6917681999998422,418.4843530000003,419.5025473999999,419.4646633000002,None,418.4843530000003,None,418.4843530000003,None,418.4843530000003,None,420.1587278299999,None,420.1587278299999,None,420.1587278299999,None,,,,,,,,,,,231,22,Female,2022-06-03_17h44.07.929,Main,2022.1.1,59.97893539781601,
neutral,positive,2,k,k,,,,,,,,,8,9,153,13,,,,,,,,,,,,,,,,,,,,,,,,main,1,1,2,positive,neutral,k,k,1,0.9397797000001447,420.1801181999999,421.18338470000026,421.1641104999999,None,420.1801181999999,None,420.1801181999999,None,420.1801181999999,None,422.0996279300003,None,422.0996279300003,None,422.0996279300003,None,,,,,,,,,,,231,22,Female,2022-06-03_17h44.07.929,Main,2022.1.1,59.97893539781601,
neutral,negative,2,k,k,,,,,,,,,8,10,154,16,,,,,,,,,,,,,,,,,,,,,,,,main,1,1,2,negative,neutral,k,k,1,0.7049012000002222,422.11881070000027,423.1290664000003,423.0921939,None,422.11881070000027,None,422.11881070000027,None,422.11881070000027,None,423.8088742300002,None,423.8088742300002,None,423.8088742300002,None,,,,,,,,,,,231,22,Female,2022-06-03_17h44.07.929,Main,2022.1.1,59.97893539781601,
neutral,negative,1,k,k,,,,,,,,,8,11,155,7,,,,,,,,,,,,,,,,,,,,,,,,main,2,2,1,negative,neutral,k,k,1,0.8244064000000435,423.82880190000014,424.8328799000001,424.8141707,None,423.82880190000014,None,423.82880190000014,None,423.82880190000014,None,425.6334685299999,None,425.6334685299999,None,425.6334685299999,None,,,,,,,,,,,231,22,Female,2022-06-03_17h44.07.929,Main,2022.1.1,59.97893539781601,
positive,negative,1,l,j,,,,,,,,,8,12,156,5,,,,,,,,,,,,,,,,,,,,,,,,main,1,1,1,negative,positive,j,j,1,1.175796700000319,425.6564478,426.65989590000027,426.6390566,None,425.6564478,None,425.6564478,None,425.6564478,None,427.8118365300002,None,427.8118365300002,None,427.8118365300002,None,,,,,,,,,,,231,22,Female,2022-06-03_17h44.07.929,Main,2022.1.1,59.97893539781601,
neutral,neutral,1,k,k,,,,,,,,,8,13,157,1,,,,,,,,,,,,,,,,,,,,,,,,main,2,2,1,neutral,neutral,k,k,1,0.7205344999997578,427.83351519999997,428.8489098,428.81120680000004,None,427.83351519999997,None,427.83351519999997,None,427.83351519999997,None,429.53811113000035,None,429.53811113000035,None,429.53811113000035,None,,,,,,,,,,,231,22,Female,2022-06-03_17h44.07.929,Main,2022.1.1,59.97893539781601,
positive,positive,1,l,j,,,,,,,,,8,14,158,2,,,,,,,,,,,,,,,,,,,,,,,,main,1,1,1,positive,positive,j,j,1,0.900788299999931,429.55746610000006,430.56129090000013,430.54221270000016,None,429.55746610000006,None,429.55746610000006,None,429.55746610000006,None,431.44140582999995,None,431.44140582999995,None,431.44140582999995,None,,,,,,,,,,,231,22,Female,2022-06-03_17h44.07.929,Main,2022.1.1,59.97893539781601,
negative,neutral,1,j,l,,,,,,,,,8,15,159,3,,,,,,,,,,,,,,,,,,,,,,,,main,2,2,1,neutral,negative,l,l,1,0.6926868999998987,431.4625602000001,432.4649247000002,432.4460793000003,None,431.4625602000001,None,431.4625602000001,None,431.4625602000001,None,433.1360933300003,None,433.1360933300003,None,433.1360933300003,None,,,,,,,,,,,231,22,Female,2022-06-03_17h44.07.929,Main,2022.1.1,59.97893539781601,
positive,negative,2,l,j,,,,,,,,,8,16,160,14,,,,,,,,,,,,,,,,,,,,,,,,main,2,2,2,negative,positive,j,j,1,0.6758257000001322,433.1580874000001,434.1615675000003,434.1426770000003,None,433.1580874000001,None,433.1580874000001,None,433.1580874000001,None,434.8128404300001,None,434.8128404300001,None,434.8128404300001,None,,,,,,,,,,,231,22,Female,2022-06-03_17h44.07.929,Main,2022.1.1,59.97893539781601,
negative,positive,1,j,l,,,,,,,,,8,17,161,6,,,,,,,,,,,,,,,,,,,,,,,,main,1,1,1,positive,negative,l,l,1,1.034971300000052,434.83461020000004,435.85052769999993,435.8124189,None,434.83461020000004,None,434.83461020000004,None,434.83461020000004,None,436.85373463,None,436.85373463,None,436.85373463,None,,,,,,,,,,,231,22,Female,2022-06-03_17h44.07.929,Main,2022.1.1,59.97893539781601,
positive,positive,2,l,j,,,,,,,,,9,0,162,11,,,,,,,,,,,,,,,,,,,,,,,,main,2,2,2,positive,positive,j,j,1,0.7101333000000523,436.87649120000015,437.8928496000003,437.85203649999994,None,436.87649120000015,None,436.87649120000015,None,436.87649120000015,None,438.56441303000025,None,438.56441303000025,None,438.56441303000025,None,,,,,,,,,,,231,22,Female,2022-06-03_17h44.07.929,Main,2022.1.1,59.97893539781601,
negative,negative,2,j,l,,,,,,,,,9,1,163,9,,,,,,,,,,,,,,,,,,,,,,,,main,1,1,2,negative,negative,l,l,1,0.798252500000217,438.5845628000002,439.58574690000023,439.56717660000004,None,438.5845628000002,None,438.5845628000002,None,438.5845628000002,None,440.36507003,None,440.36507003,None,440.36507003,None,,,,,,,,,,,231,22,Female,2022-06-03_17h44.07.929,Main,2022.1.1,59.97893539781601,
positive,neutral,2,l,j,,,,,,,,,9,2,164,17,,,,,,,,,,,,,,,,,,,,,,,,main,1,1,2,neutral,positive,j,j,1,0.6933258999997634,440.39060960000006,441.3924001999999,441.37309000000005,None,440.39060960000006,None,440.39060960000006,None,440.39060960000006,None,442.06095033000025,None,442.06095033000025,None,442.06095033000025,None,,,,,,,,,,,231,22,Female,2022-06-03_17h44.07.929,Main,2022.1.1,59.97893539781601,
neutral,positive,2,k,k,,,,,,,,,9,3,165,13,,,,,,,,,,,,,,,,,,,,,,,,main,2,2,2,positive,neutral,k,k,1,0.7229486000001089,442.0827459000002,443.0945912000002,443.0567371000002,None,442.0827459000002,None,442.0827459000002,None,442.0827459000002,None,443.78914683,None,443.78914683,None,443.78914683,None,,,,,,,,,,,231,22,Female,2022-06-03_17h44.07.929,Main,2022.1.1,59.97893539781601,
positive,negative,1,l,j,,,,,,,,,9,4,166,5,,,,,,,,,,,,,,,,,,,,,,,,main,2,2,1,negative,positive,j,j,1,0.7716820000000553,443.8101624000001,444.8275825999999,444.7887773000002,None,443.8101624000001,None,443.8101624000001,None,443.8101624000001,None,445.56121283,None,445.56121283,None,445.56121283,None,,,,,,,,,,,231,22,Female,2022-06-03_17h44.07.929,Main,2022.1.1,59.97893539781601,
neutral,positive,1,k,k,,,,,,,,,9,5,167,4,,,,,,,,,,,,,,,,,,,,,,,,main,2,2,1,positive,neutral,k,k,1,0.6622468999999,445.5821028999999,446.5911765999999,446.57164520000015,None,445.5821028999999,None,445.5821028999999,None,445.5821028999999,None,447.22683603,None,447.22683603,None,447.22683603,None,,,,,,,,,,,231,22,Female,2022-06-03_17h44.07.929,Main,2022.1.1,59.97893539781601,
negative,positive,1,j,l,,,,,,,,,9,6,168,6,,,,,,,,,,,,,,,,,,,,,,,,main,1,1,1,positive,negative,l,l,1,0.715557699999863,447.24639620000016,448.2564032999999,448.2372551000003,None,447.24639620000016,None,447.24639620000016,None,447.24639620000016,None,448.94423943,None,448.94423943,None,448.94423943,None,,,,,,,,,,,231,22,Female,2022-06-03_17h44.07.929,Main,2022.1.1,59.97893539781601,
negative,neutral,2,j,l,,,,,,,,,9,7,169,12,,,,,,,,,,,,,,,,,,,,,,,,main,1,1,2,neutral,negative,l,l,1,0.7520908999999847,448.96450959999993,449.97406150000006,449.95498,None,448.96450959999993,None,448.96450959999993,None,448.96450959999993,None,450.7012390300002,None,450.7012390300002,None,450.7012390300002,None,,,,,,,,,,,231,22,Female,2022-06-03_17h44.07.929,Main,2022.1.1,59.97893539781601,
positive,negative,2,l,j,,,,,,,,,9,8,170,14,,,,,,,,,,,,,,,,,,,,,,,,main,1,1,2,negative,positive,j,l,0,0.6039989000000787,450.72246440000026,451.7326777000003,451.6955312,None,450.72246440000026,None,450.72246440000026,None,450.72246440000026,None,452.3130833,None,452.3130833,None,452.3130833,None,,,,,,,,,,,231,22,Female,2022-06-03_17h44.07.929,Main,2022.1.1,59.97893539781601,
neutral,neutral,2,k,k,,,,,,,,,9,9,171,10,,,,,,,,,,,,,,,,,,,,,,,,main,1,1,2,neutral,neutral,k,k,1,0.6937784000001557,453.3303500000002,454.34248260000004,454.3236741999999,None,453.3303500000002,None,453.3303500000002,None,453.3303500000002,None,455.00681383000034,None,455.00681383000034,None,455.00681383000034,None,,,,,,,,,,,231,22,Female,2022-06-03_17h44.07.929,Main,2022.1.1,59.97893539781601,
negative,neutral,1,j,l,,,,,,,,,9,10,172,3,,,,,,,,,,,,,,,,,,,,,,,,main,2,2,1,neutral,negative,l,l,1,0.8231309000002511,455.02784950000023,456.03299960000004,456.01416310000013,None,455.02784950000023,None,455.02784950000023,None,455.02784950000023,None,456.8349769300003,None,456.8349769300003,None,456.8349769300003,None,,,,,,,,,,,231,22,Female,2022-06-03_17h44.07.929,Main,2022.1.1,59.97893539781601,
positive,positive,1,l,j,,,,,,,,,9,11,173,2,,,,,,,,,,,,,,,,,,,,,,,,main,2,2,1,positive,positive,j,j,1,0.6757119000003513,456.8551124999999,457.8590997000001,457.8402003000001,None,456.8551124999999,None,456.8551124999999,None,456.8551124999999,None,458.5114726299999,None,458.5114726299999,None,458.5114726299999,None,,,,,,,,,,,231,22,Female,2022-06-03_17h44.07.929,Main,2022.1.1,59.97893539781601,
positive,neutral,1,l,j,,,,,,,,,9,12,174,8,,,,,,,,,,,,,,,,,,,,,,,,main,2,2,1,neutral,positive,j,j,1,0.843832300000031,458.5315220000002,459.53837079999994,459.51967820000027,None,458.5315220000002,None,458.5315220000002,None,458.5315220000002,None,460.3576831300002,None,460.3576831300002,None,460.3576831300002,None,,,,,,,,,,,231,22,Female,2022-06-03_17h44.07.929,Main,2022.1.1,59.97893539781601,
neutral,negative,2,k,k,,,,,,,,,9,13,175,16,,,,,,,,,,,,,,,,,,,,,,,,main,1,1,2,negative,neutral,k,k,1,1.014710699999796,460.3804347999999,461.38235269999996,461.3634999000001,None,460.3804347999999,None,460.3804347999999,None,460.3804347999999,None,462.3759193300003,None,462.3759193300003,None,462.3759193300003,None,,,,,,,,,,,231,22,Female,2022-06-03_17h44.07.929,Main,2022.1.1,59.97893539781601,
neutral,neutral,1,k,k,,,,,,,,,9,14,176,1,,,,,,,,,,,,,,,,,,,,,,,,main,1,1,1,neutral,neutral,k,k,1,0.7229565000002367,462.39634750000005,463.3975574000001,463.3793152000003,None,462.39634750000005,None,462.39634750000005,None,462.39634750000005,None,464.1036989300001,None,464.1036989300001,None,464.1036989300001,None,,,,,,,,,,,231,22,Female,2022-06-03_17h44.07.929,Main,2022.1.1,59.97893539781601,
neutral,negative,1,k,k,,,,,,,,,9,15,177,7,,,,,,,,,,,,,,,,,,,,,,,,main,1,1,1,negative,neutral,k,k,1,0.5695863999999347,464.12460379999993,465.1352333,465.0977390000003,None,464.12460379999993,None,464.12460379999993,None,464.12460379999993,None,465.67259393,None,465.67259393,None,465.67259393,None,,,,,,,,,,,231,22,Female,2022-06-03_17h44.07.929,Main,2022.1.1,59.97893539781601,
negative,negative,1,j,l,,,,,,,,,9,16,178,0,,,,,,,,,,,,,,,,,,,,,,,,main,2,2,1,negative,negative,l,l,1,0.7822466999996323,465.6944911999999,466.7121946000002,466.67409050000015,None,465.6944911999999,None,465.6944911999999,None,465.6944911999999,None,467.4583173300003,None,467.4583173300003,None,467.4583173300003,None,,,,,,,,,,,231,22,Female,2022-06-03_17h44.07.929,Main,2022.1.1,59.97893539781601,
negative,positive,2,j,l,,,,,,,,,9,17,179,15,,,,,,,,,,,,,,,,,,,,,,,,main,2,2,2,positive,negative,l,l,1,0.9202260000001843,467.4792662,468.48833790000026,468.4682714999999,None,467.4792662,None,467.4792662,None,467.4792662,None,469.3833131300003,None,469.3833131300003,None,469.3833131300003,None,,,,,,,,,,,231,22,Female,2022-06-03_17h44.07.929,Main,2022.1.1,59.97893539781601,
neutral,neutral,1,k,k,,,,,,,,,10,0,180,1,,,,,,,,,,,,,,,,,,,,,,,,main,2,2,1,neutral,neutral,k,k,1,0.6785457000000861,469.4029426000002,470.4145778000002,470.37575760000027,None,469.4029426000002,None,469.4029426000002,None,469.4029426000002,None,471.06215603000015,None,471.06215603000015,None,471.06215603000015,None,,,,,,,,,,,231,22,Female,2022-06-03_17h44.07.929,Main,2022.1.1,59.97893539781601,
negative,negative,1,j,l,,,,,,,,,10,1,181,0,,,,,,,,,,,,,,,,,,,,,,,,main,1,1,1,negative,negative,l,l,1,0.7138369999997849,471.082719,472.0878136000001,472.0675577000002,None,471.082719,None,471.082719,None,471.082719,None,472.7807536300002,None,472.7807536300002,None,472.7807536300002,None,,,,,,,,,,,231,22,Female,2022-06-03_17h44.07.929,Main,2022.1.1,59.97893539781601,
negative,neutral,1,j,l,,,,,,,,,10,2,182,3,,,,,,,,,,,,,,,,,,,,,,,,main,2,2,1,neutral,negative,l,l,1,0.6778156000000308,472.8032065000002,473.8075659000001,473.7893650000001,None,472.8032065000002,None,472.8032065000002,None,472.8032065000002,None,474.45919063000025,None,474.45919063000025,None,474.45919063000025,None,,,,,,,,,,,231,22,Female,2022-06-03_17h44.07.929,Main,2022.1.1,59.97893539781601,
positive,positive,1,l,j,,,,,,,,,10,3,183,2,,,,,,,,,,,,,,,,,,,,,,,,main,2,2,1,positive,positive,j,j,1,0.7676146000003428,474.4794326000001,475.4840615000003,475.4643791000003,None,474.4794326000001,None,474.4794326000001,None,474.4794326000001,None,476.23093563000026,None,476.23093563000026,None,476.23093563000026,None,,,,,,,,,,,231,22,Female,2022-06-03_17h44.07.929,Main,2022.1.1,59.97893539781601,
neutral,neutral,2,k,k,,,,,,,,,10,4,184,10,,,,,,,,,,,,,,,,,,,,,,,,main,1,1,2,neutral,neutral,k,k,1,0.6689806999997927,476.2512016999999,477.2547988000001,477.23563379999996,None,476.2512016999999,None,476.2512016999999,None,476.2512016999999,None,477.90258073,None,477.90258073,None,477.90258073,None,,,,,,,,,,,231,22,Female,2022-06-03_17h44.07.929,Main,2022.1.1,59.97893539781601,
negative,negative,2,j,l,,,,,,,,,10,5,185,9,,,,,,,,,,,,,,,,,,,,,,,,main,1,1,2,negative,negative,l,l,1,0.6664162000001852,477.9227476000001,478.94116729999996,478.9020883000003,None,477.9227476000001,None,477.9227476000001,None,477.9227476000001,None,479.5714118300003,None,479.5714118300003,None,479.5714118300003,None,,,,,,,,,,,231,22,Female,2022-06-03_17h44.07.929,Main,2022.1.1,59.97893539781601,
negative,positive,1,j,l,,,,,,,,,10,6,186,6,,,,,,,,,,,,,,,,,,,,,,,,main,2,2,1,positive,negative,l,l,1,0.6835177000002659,479.59404270000005,480.60209840000016,480.58256140000003,None,479.59404270000005,None,479.59404270000005,None,479.59404270000005,None,481.25763173,None,481.25763173,None,481.25763173,None,,,,,,,,,,,231,22,Female,2022-06-03_17h44.07.929,Main,2022.1.1,59.97893539781601,
positive,negative,1,l,j,,,,,,,,,10,7,187,5,,,,,,,,,,,,,,,,,,,,,,,,main,1,1,1,negative,positive,j,j,1,0.7493669000000409,481.2775730000003,482.2968616000003,482.2595481000003,None,481.2775730000003,None,481.2775730000003,None,481.2775730000003,None,483.0091867300003,None,483.0091867300003,None,483.0091867300003,None,,,,,,,,,,,231,22,Female,2022-06-03_17h44.07.929,Main,2022.1.1,59.97893539781601,
positive,negative,2,l,j,,,,,,,,,10,8,188,14,,,,,,,,,,,,,,,,,,,,,,,,main,1,1,2,negative,positive,j,j,1,1.1448961999999483,483.0337881999999,484.0494337,484.0118758000003,None,483.0337881999999,None,483.0337881999999,None,483.0337881999999,None,485.1565735300001,None,485.1565735300001,None,485.1565735300001,None,,,,,,,,,,,231,22,Female,2022-06-03_17h44.07.929,Main,2022.1.1,59.97893539781601,
neutral,negative,1,k,k,,,,,,,,,10,9,189,7,,,,,,,,,,,,,,,,,,,,,,,,main,2,2,1,negative,neutral,k,k,1,0.6728843999999299,485.17645859999993,486.19183010000006,486.15358300000025,None,485.17645859999993,None,485.17645859999993,None,485.17645859999993,None,486.83365193000014,None,486.83365193000014,None,486.83365193000014,None,,,,,,,,,,,231,22,Female,2022-06-03_17h44.07.929,Main,2022.1.1,59.97893539781601,
positive,neutral,2,l,j,,,,,,,,,10,10,190,17,,,,,,,,,,,,,,,,,,,,,,,,main,1,1,2,neutral,positive,j,j,1,0.6738847999999962,486.8551044000001,487.8626484000001,487.84388480000007,None,486.8551044000001,None,486.8551044000001,None,486.8551044000001,None,488.50824302999996,None,488.50824302999996,None,488.50824302999996,None,,,,,,,,,,,231,22,Female,2022-06-03_17h44.07.929,Main,2022.1.1,59.97893539781601,
positive,positive,2,l,j,,,,,,,,,10,11,191,11,,,,,,,,,,,,,,,,,,,,,,,,main,1,1,2,positive,positive,j,j,1,0.7759409999998752,488.5325014,489.5381250999999,489.5196799,None,488.5325014,None,488.5325014,None,488.5325014,None,490.28670023,None,490.28670023,None,490.28670023,None,,,,,,,,,,,231,22,Female,2022-06-03_17h44.07.929,Main,2022.1.1,59.97893539781601,
positive,neutral,1,l,j,,,,,,,,,10,12,192,8,,,,,,,,,,,,,,,,,,,,,,,,main,2,2,1,neutral,positive,j,j,1,0.6920564000001832,490.3082217000001,491.31078370000023,491.2920873000003,None,490.3082217000001,None,490.3082217000001,None,490.3082217000001,None,491.98195653,None,491.98195653,None,491.98195653,None,,,,,,,,,,,231,22,Female,2022-06-03_17h44.07.929,Main,2022.1.1,59.97893539781601,
neutral,positive,2,k,k,,,,,,,,,10,13,193,13,,,,,,,,,,,,,,,,,,,,,,,,main,2,2,2,positive,neutral,k,k,1,0.8895495000001574,492.00487090000024,493.01122609999993,492.9944817999999,None,492.00487090000024,None,492.00487090000024,None,492.00487090000024,None,493.87325283000024,None,493.87325283000024,None,493.87325283000024,None,,,,,,,,,,,231,22,Female,2022-06-03_17h44.07.929,Main,2022.1.1,59.97893539781601,
negative,neutral,2,j,l,,,,,,,,,10,14,194,12,,,,,,,,,,,,,,,,,,,,,,,,main,1,1,2,neutral,negative,l,l,1,0.8024126000000251,493.8943340999999,494.9001613999999,494.8807262,None,493.8943340999999,None,493.8943340999999,None,493.8943340999999,None,495.68045833,None,495.68045833,None,495.68045833,None,,,,,,,,,,,231,22,Female,2022-06-03_17h44.07.929,Main,2022.1.1,59.97893539781601,
neutral,negative,2,k,k,,,,,,,,,10,15,195,16,,,,,,,,,,,,,,,,,,,,,,,,main,2,2,2,negative,neutral,k,k,1,0.7471654000000854,495.6999575,496.7076099000001,496.6869651000002,None,495.6999575,None,495.6999575,None,495.6999575,None,497.4297732300002,None,497.4297732300002,None,497.4297732300002,None,,,,,,,,,,,231,22,Female,2022-06-03_17h44.07.929,Main,2022.1.1,59.97893539781601,
negative,positive,2,j,l,,,,,,,,,10,16,196,15,,,,,,,,,,,,,,,,,,,,,,,,main,1,1,2,positive,negative,l,l,1,0.777777000000242,497.44982900000014,498.46431570000004,498.4452320999999,None,497.44982900000014,None,497.44982900000014,None,497.44982900000014,None,499.2102694300002,None,499.2102694300002,None,499.2102694300002,None,,,,,,,,,,,231,22,Female,2022-06-03_17h44.07.929,Main,2022.1.1,59.97893539781601,
neutral,positive,1,k,k,,,,,,,,,10,17,197,4,,,,,,,,,,,,,,,,,,,,,,,,main,2,2,1,positive,neutral,k,k,1,0.6818776000000071,499.23184990000027,500.2412055,500.2222689,None,499.23184990000027,None,499.23184990000027,None,499.23184990000027,None,500.89364753000024,None,500.89364753000024,None,500.89364753000024,None,,,,,,,,,,,231,22,Female,2022-06-03_17h44.07.929,Main,2022.1.1,59.97893539781601,
negative,neutral,1,j,l,,,,,,,,,11,0,198,3,,,,,,,,,,,,,,,,,,,,,,,,main,1,1,1,neutral,negative,l,l,1,0.6820674000000508,500.91910540000026,501.9369249000001,501.90019250000023,None,500.91910540000026,None,500.91910540000026,None,500.91910540000026,None,502.5788944300003,None,502.5788944300003,None,502.5788944300003,None,,,,,,,,,,,231,22,Female,2022-06-03_17h44.07.929,Main,2022.1.1,59.97893539781601,
neutral,negative,2,k,k,,,,,,,,,11,1,199,16,,,,,,,,,,,,,,,,,,,,,,,,main,1,1,2,negative,neutral,k,k,1,0.564306900000247,502.60252100000025,503.6302495,503.5836237000003,None,502.60252100000025,None,502.60252100000025,None,502.60252100000025,None,504.14725023000034,None,504.14725023000034,None,504.14725023000034,None,,,,,,,,,,,231,22,Female,2022-06-03_17h44.07.929,Main,2022.1.1,59.97893539781601,
neutral,positive,1,k,k,,,,,,,,,11,2,200,4,,,,,,,,,,,,,,,,,,,,,,,,main,1,1,1,positive,neutral,k,k,1,0.5712659000000713,504.1689215000001,505.1827539000001,505.14375070000006,None,504.1689215000001,None,504.1689215000001,None,504.1689215000001,None,505.7187908300003,None,505.7187908300003,None,505.7187908300003,None,,,,,,,,,,,231,22,Female,2022-06-03_17h44.07.929,Main,2022.1.1,59.97893539781601,
positive,positive,2,l,j,,,,,,,,,11,3,201,11,,,,,,,,,,,,,,,,,,,,,,,,main,2,2,2,positive,positive,j,j,1,0.682214599999952,505.73962010000014,506.7500479999999,506.73049820000006,None,505.73962010000014,None,505.73962010000014,None,505.73962010000014,None,507.4036774300003,None,507.4036774300003,None,507.4036774300003,None,,,,,,,,,,,231,22,Female,2022-06-03_17h44.07.929,Main,2022.1.1,59.97893539781601,
positive,neutral,1,l,j,,,,,,,,,11,4,202,8,,,,,,,,,,,,,,,,,,,,,,,,main,1,1,1,neutral,positive,j,j,1,0.751614199999949,507.4239872000003,508.43757240000014,508.39984300000015,None,507.4239872000003,None,507.4239872000003,None,507.4239872000003,None,509.15879722999995,None,509.15879722999995,None,509.15879722999995,None,,,,,,,,,,,231,22,Female,2022-06-03_17h44.07.929,Main,2022.1.1,59.97893539781601,
negative,neutral,2,j,l,,,,,,,,,11,5,203,12,,,,,,,,,,,,,,,,,,,,,,,,main,2,2,2,neutral,negative,l,l,1,0.6161813000003349,509.1823952,510.2013128000003,510.1625921,None,509.1823952,None,509.1823952,None,509.1823952,None,510.7783614300002,None,510.7783614300002,None,510.7783614300002,None,,,,,,,,,,,231,22,Female,2022-06-03_17h44.07.929,Main,2022.1.1,59.97893539781601,
negative,positive,1,j,l,,,,,,,,,11,6,204,6,,,,,,,,,,,,,,,,,,,,,,,,main,2,2,1,positive,negative,l,l,1,0.5833732999999484,510.8010711000002,511.8075587000003,511.7885203000001,None,510.8010711000002,None,510.8010711000002,None,510.8010711000002,None,512.3641819300001,None,512.3641819300001,None,512.3641819300001,None,,,,,,,,,,,231,22,Female,2022-06-03_17h44.07.929,Main,2022.1.1,59.97893539781601,
neutral,neutral,2,k,k,,,,,,,,,11,7,205,10,,,,,,,,,,,,,,,,,,,,,,,,main,2,2,2,neutral,neutral,k,k,1,0.5753593999997975,512.3842494,513.3866009000003,513.3680554000002,None,512.3842494,None,512.3842494,None,512.3842494,None,513.9411672300002,None,513.9411672300002,None,513.9411672300002,None,,,,,,,,,,,231,22,Female,2022-06-03_17h44.07.929,Main,2022.1.1,59.97893539781601,
positive,positive,1,l,j,,,,,,,,,11,8,206,2,,,,,,,,,,,,,,,,,,,,,,,,main,2,2,1,positive,positive,j,j,1,0.776563900000383,513.9621824999999,514.9697982000002,514.9511697000003,None,513.9621824999999,None,513.9621824999999,None,513.9621824999999,None,515.7197532300002,None,515.7197532300002,None,515.7197532300002,None,,,,,,,,,,,231,22,Female,2022-06-03_17h44.07.929,Main,2022.1.1,59.97893539781601,
neutral,neutral,1,k,k,,,,,,,,,11,9,207,1,,,,,,,,,,,,,,,,,,,,,,,,main,1,1,1,neutral,neutral,k,k,1,0.5866934999999103,515.7409666000003,516.7574534999999,516.7183061999999,None,515.7409666000003,None,515.7409666000003,None,515.7409666000003,None,517.3110282299999,None,517.3110282299999,None,517.3110282299999,None,,,,,,,,,,,231,22,Female,2022-06-03_17h44.07.929,Main,2022.1.1,59.97893539781601,
negative,negative,2,j,l,,,,,,,,,11,10,208,9,,,,,,,,,,,,,,,,,,,,,,,,main,2,2,2,negative,negative,l,l,1,0.6354313000001639,517.3336099000003,518.3369686999999,518.3181224,None,517.3336099000003,None,517.3336099000003,None,517.3336099000003,None,518.9491808299999,None,518.9491808299999,None,518.9491808299999,None,,,,,,,,,,,231,22,Female,2022-06-03_17h44.07.929,Main,2022.1.1,59.97893539781601,
neutral,negative,1,k,k,,,,,,,,,11,11,209,7,,,,,,,,,,,,,,,,,,,,,,,,main,2,2,1,negative,neutral,k,k,1,0.6071996999999101,518.9710843000003,519.9856176000003,519.9472912000001,None,518.9710843000003,None,518.9710843000003,None,518.9710843000003,None,520.56025963,None,520.56025963,None,520.56025963,None,,,,,,,,,,,231,22,Female,2022-06-03_17h44.07.929,Main,2022.1.1,59.97893539781601,
neutral,positive,2,k,k,,,,,,,,,11,12,210,13,,,,,,,,,,,,,,,,,,,,,,,,main,1,1,2,positive,neutral,k,l,0,0.5783996000000116,520.5802539000001,521.5869800999999,521.5678465000001,None,520.5802539000001,None,520.5802539000001,None,520.5802539000001,None,522.1471541999999,None,522.1471541999999,None,522.1471541999999,None,,,,,,,,,,,231,22,Female,2022-06-03_17h44.07.929,Main,2022.1.1,59.97893539781601,
negative,positive,2,j,l,,,,,,,,,11,13,211,15,,,,,,,,,,,,,,,,,,,,,,,,main,2,2,2,positive,negative,l,l,1,0.7210048000001734,523.1720929000003,524.1848934,524.1656511000001,None,523.1720929000003,None,523.1720929000003,None,523.1720929000003,None,524.87312453,None,524.87312453,None,524.87312453,None,,,,,,,,,,,231,22,Female,2022-06-03_17h44.07.929,Main,2022.1.1,59.97893539781601,
