target,distractor,set,ans1,ans2,rep_loop2.thisRepN,rep_loop2.thisTrialN,rep_loop2.thisN,rep_loop2.thisIndex,flanker_prac_loop.thisRepN,flanker_prac_loop.thisTrialN,flanker_prac_loop.thisN,flanker_prac_loop.thisIndex,flanker_main_loop.thisRepN,flanker_main_loop.thisTrialN,flanker_main_loop.thisN,flanker_main_loop.thisIndex,fl_inst_resp.keys,mouse.x,mouse.y,mouse.leftButton,mouse.midButton,mouse.rightButton,mouse.started,mouse.stopped,sound_1.started,sound_1.stopped,no_text.started,no_text.stopped,yes_text.started,yes_text.stopped,mouse_2.x,mouse_2.y,mouse_2.leftButton,mouse_2.midButton,mouse_2.rightButton,mouse_2.started,mouse_2.stopped,back_2.started,back_2.stopped,main_prac,fl_cold,fl_colt,fl_set,fl_dcond,fl_tcond,fl_ans,fl_res,fl_corr,fl_rt,fix_fl.started,fix_fl.stopped,targ.started,targ.stopped,j_button.started,j_button.stopped,k_button.started,k_button.stopped,l_button.started,l_button.stopped,j_button2.started,j_button2.stopped,k_button2.started,k_button2.stopped,l_button2.started,l_button2.stopped,mainback.started,mainback.stopped,key_resp.keys,mouse_6.x,mouse_6.y,mouse_6.leftButton,mouse_6.midButton,mouse_6.rightButton,mouse_6.started,mouse_6.stopped,id*,age*,gender*,date,expName,psychopyVersion,frameRate,
,,,,,0,0,0,0,,,,,,,,,None,0.016666668,-0.40185186,0,0,0,1.0118823100006011,None,23.425207990000263,None,72.67094170000018,None,72.67094170000018,None,-0.08148148,-0.09074074,0,0,0,0.013003589999698306,None,,,,,,,,,,,,,,,,,,,,,,,,,,,,,,,,,,,,,,,232,19,Female,2022-06-10_14h24.08.783,Main,2022.1.1,60.001968064585746,
neutral,positive,1,k,k,,,,,0,0,0,4,,,,,,,,,,,,,,,,,,,,,,,,,,76.11855820000028,None,prac,2,2,1,positive,neutral,k,k,1,2.0407384999998612,78.17796080000016,79.19203150000021,79.1553770999999,None,78.17796080000016,None,78.17796080000016,None,78.17796080000016,None,81.20648530000017,None,81.20648530000017,None,81.20648530000017,None,,,,,,,,,,,232,19,Female,2022-06-10_14h24.08.783,Main,2022.1.1,60.001968064585746,
neutral,negative,1,k,k,,,,,0,1,1,7,,,,,,,,,,,,,,,,,,,,,,,,,,,,prac,2,2,1,negative,neutral,k,k,1,0.9685635999999249,82.24474439999995,83.246083,83.2278237999999,None,82.24474439999995,None,82.24474439999995,None,82.24474439999995,None,84.17758818999987,None,84.17758818999987,None,84.17758818999987,None,,,,,,,,,,,232,19,Female,2022-06-10_14h24.08.783,Main,2022.1.1,60.001968064585746,
positive,negative,1,l,j,,,,,0,2,2,5,,,,,,,,,,,,,,,,,,,,,,,,,,,,prac,2,2,1,negative,positive,l,l,1,1.142018999999891,84.20113070000025,85.21697960000029,85.17931769999996,None,84.20113070000025,None,84.20113070000025,None,84.20113070000025,None,86.32285059000019,None,86.32285059000019,None,86.32285059000019,None,,,,,,,,,,,232,19,Female,2022-06-10_14h24.08.783,Main,2022.1.1,60.001968064585746,
neutral,neutral,1,k,k,,,,,0,3,3,1,,,,,,,,,,,,,,,,,,,,,,,,,,,,prac,2,2,1,neutral,neutral,k,k,1,0.8539157000000159,86.35724750000008,87.362662,87.32636790000015,None,86.35724750000008,None,86.35724750000008,None,86.35724750000008,None,88.18194969000028,None,88.18194969000028,None,88.18194969000028,None,,,,,,,,,,,232,19,Female,2022-06-10_14h24.08.783,Main,2022.1.1,60.001968064585746,
neutral,negative,2,k,k,,,,,0,4,4,16,,,,,,,,,,,,,,,,,,,,,,,,,,,,prac,1,1,2,negative,neutral,k,k,1,0.9836424000000079,88.2216483000002,89.22682759999998,89.1904497999999,None,88.2216483000002,None,88.2216483000002,None,88.2216483000002,None,90.16617928999999,None,90.16617928999999,None,90.16617928999999,None,,,,,,,,,,,232,19,Female,2022-06-10_14h24.08.783,Main,2022.1.1,60.001968064585746,
positive,negative,2,l,j,,,,,0,5,5,14,,,,,,,,,,,,,,,,,,,,,,,,,,,,prac,1,1,2,negative,positive,l,l,1,2.013117500000135,90.20254849999992,91.20508610000024,91.1863515,None,90.20254849999992,None,90.20254849999992,None,90.20254849999992,None,93.18897250000009,None,93.18897250000009,None,93.18897250000009,None,,,,,,,,,,,232,19,Female,2022-06-10_14h24.08.783,Main,2022.1.1,60.001968064585746,
negative,positive,1,j,l,,,,,0,6,6,6,,,,,,,,,,,,,,,,,,,,,,,,,,,,prac,2,2,1,positive,negative,j,j,1,1.7478219000004174,94.20938479999995,95.22316090000004,95.18670100000008,None,94.20938479999995,None,94.20938479999995,None,94.20938479999995,None,96.94138109999994,None,96.94138109999994,None,96.94138109999994,None,,,,,,,,,,,232,19,Female,2022-06-10_14h24.08.783,Main,2022.1.1,60.001968064585746,
neutral,neutral,2,k,k,,,,,0,7,7,10,,,,,,,,,,,,,,,,,,,,,,,,,,,,prac,2,2,2,neutral,neutral,k,k,1,0.9067857000000004,97.97539989999996,98.9859750999999,98.96719489999987,None,97.97539989999996,None,97.97539989999996,None,97.97539989999996,None,99.84874509000024,None,99.84874509000024,None,99.84874509000024,None,,,,,,,,,,,232,19,Female,2022-06-10_14h24.08.783,Main,2022.1.1,60.001968064585746,
positive,positive,1,l,j,,,,,0,8,8,2,,,,,,,,,,,,,,,,,,,,,,,,,,,,prac,2,2,1,positive,positive,l,l,1,0.9216434999998455,99.8709300999999,100.88961030000019,100.85316629999988,None,99.8709300999999,None,99.8709300999999,None,99.8709300999999,None,101.76955228999991,None,101.76955228999991,None,101.76955228999991,None,,,,,,,,,,,232,19,Female,2022-06-10_14h24.08.783,Main,2022.1.1,60.001968064585746,
positive,positive,2,l,j,,,,,0,9,9,11,,,,,,,,,,,,,,,,,,,,,,,,,,,,prac,1,1,2,positive,positive,l,l,1,0.8978798999996798,101.80134070000031,102.81281369999988,102.79427140000007,None,101.80134070000031,None,101.80134070000031,None,101.80134070000031,None,103.67190338999994,None,103.67190338999994,None,103.67190338999994,None,,,,,,,,,,,232,19,Female,2022-06-10_14h24.08.783,Main,2022.1.1,60.001968064585746,
neutral,positive,2,k,k,,,,,0,10,10,13,,,,,,,,,,,,,,,,,,,,,,,,,,,,prac,1,1,2,positive,neutral,k,k,1,0.7580383999998048,103.69149610000022,104.70449310000004,104.66727100000026,None,103.69149610000022,None,103.69149610000022,None,103.69149610000022,None,105.43342639000006,None,105.43342639000006,None,105.43342639000006,None,,,,,,,,,,,232,19,Female,2022-06-10_14h24.08.783,Main,2022.1.1,60.001968064585746,
negative,neutral,1,j,l,,,,,0,11,11,3,,,,,,,,,,,,,,,,,,,,,,,,,,,,prac,2,2,1,neutral,negative,j,j,1,0.6728209000002607,105.45342320000009,106.47114210000018,106.43467379999993,None,105.45342320000009,None,105.45342320000009,None,105.45342320000009,None,107.10716729000028,None,107.10716729000028,None,107.10716729000028,None,,,,,,,,,,,232,19,Female,2022-06-10_14h24.08.783,Main,2022.1.1,60.001968064585746,
negative,positive,2,j,l,,,,,0,12,12,15,,,,,,,,,,,,,,,,,,,,,,,,,,,,prac,1,1,2,positive,negative,j,j,1,0.7141885999999431,107.12778209999988,108.14323920000015,108.10720880000008,None,107.12778209999988,None,107.12778209999988,None,107.12778209999988,None,108.82328739000017,None,108.82328739000017,None,108.82328739000017,None,,,,,,,,,,,232,19,Female,2022-06-10_14h24.08.783,Main,2022.1.1,60.001968064585746,
positive,neutral,2,l,j,,,,,0,13,13,17,,,,,,,,,,,,,,,,,,,,,,,,,,,,prac,1,1,2,neutral,positive,l,l,1,0.9569298999999774,108.85587029999988,109.86906480000016,109.85083470000018,None,108.85587029999988,None,108.85587029999988,None,108.85587029999988,None,110.78415399000009,None,110.78415399000009,None,110.78415399000009,None,,,,,,,,,,,232,19,Female,2022-06-10_14h24.08.783,Main,2022.1.1,60.001968064585746,
negative,negative,1,j,l,,,,,0,14,14,0,,,,,,,,,,,,,,,,,,,,,,,,,,,,prac,1,1,1,negative,negative,j,j,1,1.0156176999998934,110.81765429999996,111.81885199999988,111.80028549999997,None,110.81765429999996,None,110.81765429999996,None,110.81765429999996,None,112.80234518999991,None,112.80234518999991,None,112.80234518999991,None,,,,,,,,,,,232,19,Female,2022-06-10_14h24.08.783,Main,2022.1.1,60.001968064585746,
negative,neutral,2,j,l,,,,,0,15,15,12,,,,,,,,,,,,,,,,,,,,,,,,,,,,prac,2,2,2,neutral,negative,j,j,1,0.7715056000001823,112.83553389999997,113.84772329999987,113.82724600000029,None,112.83553389999997,None,112.83553389999997,None,112.83553389999997,None,114.57580289000002,None,114.57580289000002,None,114.57580289000002,None,,,,,,,,,,,232,19,Female,2022-06-10_14h24.08.783,Main,2022.1.1,60.001968064585746,
negative,negative,2,j,l,,,,,0,16,16,9,,,,,,,,,,,,,,,,,,,,,,,,,,,,prac,2,2,2,negative,negative,j,j,1,0.6345796000000519,114.60698279999997,115.61292989999993,115.59362910000027,None,114.60698279999997,None,114.60698279999997,None,114.60698279999997,None,116.21451999000014,None,116.21451999000014,None,116.21451999000014,None,,,,,,,,,,,232,19,Female,2022-06-10_14h24.08.783,Main,2022.1.1,60.001968064585746,
positive,neutral,1,l,j,,,,,0,17,17,8,,,,,,,,,,,,,,,,,,,,,,,,,,,,prac,2,2,1,neutral,positive,l,l,1,0.7654052000002594,116.23553059999995,117.24368110000023,117.20738940000001,None,116.23553059999995,None,116.23553059999995,None,116.23553059999995,None,117.98202688999986,None,117.98202688999986,None,117.98202688999986,None,,,,,,,,,,,232,19,Female,2022-06-10_14h24.08.783,Main,2022.1.1,60.001968064585746,
negative,positive,1,j,l,,,,,1,0,18,6,,,,,,,,,,,,,,,,,,,,,,,,,,,,prac,1,1,1,positive,negative,j,j,1,0.7510606999999254,118.01828139999998,119.0252757000003,119.00688170000012,None,118.01828139999998,None,118.01828139999998,None,118.01828139999998,None,119.73479739000008,None,119.73479739000008,None,119.73479739000008,None,,,,,,,,,,,232,19,Female,2022-06-10_14h24.08.783,Main,2022.1.1,60.001968064585746,
negative,negative,2,j,l,,,,,1,1,19,9,,,,,,,,,,,,,,,,,,,,,,,,,,,,prac,1,1,2,negative,negative,j,j,1,0.7517131999998128,119.75461940000014,120.7583568,120.74025819999997,None,119.75461940000014,None,119.75461940000014,None,119.75461940000014,None,121.48706808999991,None,121.48706808999991,None,121.48706808999991,None,,,,,,,,,,,232,19,Female,2022-06-10_14h24.08.783,Main,2022.1.1,60.001968064585746,
neutral,positive,2,k,k,,,,,1,2,20,13,,,,,,,,,,,,,,,,,,,,,,,,,,,,prac,2,2,2,positive,neutral,k,k,1,1.2402866000002177,121.51952560000018,122.53857930000004,122.50115510000023,None,121.51952560000018,None,121.51952560000018,None,121.51952560000018,None,123.73265778999989,None,123.73265778999989,None,123.73265778999989,None,,,,,,,,,,,232,19,Female,2022-06-10_14h24.08.783,Main,2022.1.1,60.001968064585746,
neutral,neutral,1,k,k,,,,,1,3,21,1,,,,,,,,,,,,,,,,,,,,,,,,,,,,prac,2,2,1,neutral,neutral,k,k,1,0.7285432000003311,123.75355070000023,124.75665019999997,124.7380019000002,None,123.75355070000023,None,123.75355070000023,None,123.75355070000023,None,125.46566329000011,None,125.46566329000011,None,125.46566329000011,None,,,,,,,,,,,232,19,Female,2022-06-10_14h24.08.783,Main,2022.1.1,60.001968064585746,
neutral,positive,1,k,k,,,,,1,4,22,4,,,,,,,,,,,,,,,,,,,,,,,,,,,,prac,1,1,1,positive,neutral,k,k,1,0.6520936000001711,125.49123009999994,126.50952099999995,126.48643760000004,None,125.49123009999994,None,125.49123009999994,None,125.49123009999994,None,127.11766438999989,None,127.11766438999989,None,127.11766438999989,None,,,,,,,,,,,232,19,Female,2022-06-10_14h24.08.783,Main,2022.1.1,60.001968064585746,
negative,negative,1,j,l,,,,,1,5,23,0,,,,,,,,,,,,,,,,,,,,,,,,,,,,prac,1,1,1,negative,negative,j,j,1,0.7600302000000738,127.14011830000027,128.14715980000028,128.12870490000023,None,127.14011830000027,None,127.14011830000027,None,127.14011830000027,None,128.8836491900002,None,128.8836491900002,None,128.8836491900002,None,,,,,,,,,,,232,19,Female,2022-06-10_14h24.08.783,Main,2022.1.1,60.001968064585746,
positive,negative,2,l,j,,,,,1,6,24,14,,,,,,,,,,,,,,,,,,,,,,,,,,,,prac,2,2,2,negative,positive,l,l,1,0.924348000000009,128.9052945000003,129.9196879000001,129.88290210000014,None,128.9052945000003,None,128.9052945000003,None,128.9052945000003,None,130.81202218999994,None,130.81202218999994,None,130.81202218999994,None,,,,,,,,,,,232,19,Female,2022-06-10_14h24.08.783,Main,2022.1.1,60.001968064585746,
neutral,neutral,2,k,k,,,,,1,7,25,10,,,,,,,,,,,,,,,,,,,,,,,,,,,,prac,2,2,2,neutral,neutral,k,k,1,0.6872054999998909,130.8334404000002,131.84513300000026,131.80801259999998,None,130.8334404000002,None,130.8334404000002,None,130.8334404000002,None,132.50104769000023,None,132.50104769000023,None,132.50104769000023,None,,,,,,,,,,,232,19,Female,2022-06-10_14h24.08.783,Main,2022.1.1,60.001968064585746,
positive,positive,1,l,j,,,,,1,8,26,2,,,,,,,,,,,,,,,,,,,,,,,,,,,,prac,1,1,1,positive,positive,l,l,1,0.8991053999998257,132.5211830000003,133.5248962999999,133.5065537999999,None,132.5211830000003,None,132.5211830000003,None,132.5211830000003,None,134.40169608999992,None,134.40169608999992,None,134.40169608999992,None,,,,,,,,,,,232,19,Female,2022-06-10_14h24.08.783,Main,2022.1.1,60.001968064585746,
negative,positive,2,j,l,,,,,1,9,27,15,,,,,,,,,,,,,,,,,,,,,,,,,,,,prac,2,2,2,positive,negative,j,j,1,0.6744487000000845,134.42266400000017,135.4411181999999,135.4038617000001,None,134.42266400000017,None,134.42266400000017,None,134.42266400000017,None,136.08061119000018,None,136.08061119000018,None,136.08061119000018,None,,,,,,,,,,,232,19,Female,2022-06-10_14h24.08.783,Main,2022.1.1,60.001968064585746,
negative,neutral,2,j,l,,,,,1,10,28,12,,,,,,,,,,,,,,,,,,,,,,,,,,,,prac,1,1,2,neutral,negative,j,j,1,0.6564268999995875,136.09977560000016,137.10693960000026,137.08890210000027,None,136.09977560000016,None,136.09977560000016,None,136.09977560000016,None,137.73970358999992,None,137.73970358999992,None,137.73970358999992,None,,,,,,,,,,,232,19,Female,2022-06-10_14h24.08.783,Main,2022.1.1,60.001968064585746,
neutral,negative,1,k,k,,,,,1,11,29,7,,,,,,,,,,,,,,,,,,,,,,,,,,,,prac,1,1,1,negative,neutral,k,k,1,0.7525515000002088,137.7619678000001,138.7714959,138.73479150000003,None,137.7619678000001,None,137.7619678000001,None,137.7619678000001,None,139.49442989000005,None,139.49442989000005,None,139.49442989000005,None,,,,,,,,,,,232,19,Female,2022-06-10_14h24.08.783,Main,2022.1.1,60.001968064585746,
positive,positive,2,l,j,,,,,1,12,30,11,,,,,,,,,,,,,,,,,,,,,,,,,,,,prac,2,2,2,positive,positive,l,l,1,0.8540761999997812,139.51570029999993,140.5331569,140.49550940000017,None,139.51570029999993,None,139.51570029999993,None,139.51570029999993,None,141.3503162900002,None,141.3503162900002,None,141.3503162900002,None,,,,,,,,,,,232,19,Female,2022-06-10_14h24.08.783,Main,2022.1.1,60.001968064585746,
negative,neutral,1,j,l,,,,,1,13,31,3,,,,,,,,,,,,,,,,,,,,,,,,,,,,prac,2,2,1,neutral,negative,j,j,1,0.8245229000003746,141.37187210000002,142.3875754999999,142.35104189999993,None,141.37187210000002,None,141.37187210000002,None,141.37187210000002,None,143.17880899000016,None,143.17880899000016,None,143.17880899000016,None,,,,,,,,,,,232,19,Female,2022-06-10_14h24.08.783,Main,2022.1.1,60.001968064585746,
positive,neutral,1,l,j,,,,,1,14,32,8,,,,,,,,,,,,,,,,,,,,,,,,,,,,prac,1,1,1,neutral,positive,l,l,1,0.9077643000000535,143.21369660000028,144.22069009999996,144.20273480000014,None,143.21369660000028,None,143.21369660000028,None,143.21369660000028,None,145.08713829000004,None,145.08713829000004,None,145.08713829000004,None,,,,,,,,,,,232,19,Female,2022-06-10_14h24.08.783,Main,2022.1.1,60.001968064585746,
positive,neutral,2,l,j,,,,,1,15,33,17,,,,,,,,,,,,,,,,,,,,,,,,,,,,prac,2,2,2,neutral,positive,l,l,1,1.1158500000001368,145.1106638000001,146.12630200000012,146.08778400000028,None,145.1106638000001,None,145.1106638000001,None,145.1106638000001,None,147.2058430900002,None,147.2058430900002,None,147.2058430900002,None,,,,,,,,,,,232,19,Female,2022-06-10_14h24.08.783,Main,2022.1.1,60.001968064585746,
neutral,negative,2,k,k,,,,,1,16,34,16,,,,,,,,,,,,,,,,,,,,,,,,,,,,prac,2,2,2,negative,neutral,k,k,1,0.6579747999999199,147.22883760000013,148.23821249999992,148.19944810000015,None,147.22883760000013,None,147.22883760000013,None,147.22883760000013,None,148.8655871900001,None,148.8655871900001,None,148.8655871900001,None,,,,,,,,,,,232,19,Female,2022-06-10_14h24.08.783,Main,2022.1.1,60.001968064585746,
positive,negative,1,l,j,,,,,1,17,35,5,,,,,,,,,,,,,,,,,,,,,,,,,,,,prac,1,1,1,negative,positive,l,l,1,0.838274900000215,148.88598920000004,149.90089669999998,149.86430010000004,None,148.88598920000004,None,148.88598920000004,None,148.88598920000004,None,150.70511248999998,None,150.70511248999998,None,150.70511248999998,None,,,,,,,,,,,232,19,Female,2022-06-10_14h24.08.783,Main,2022.1.1,60.001968064585746,
,,,,,,,,,,,,,,,,,,,,,,,,,,,,,,,,,,,,,,,,,,,,,,,,,,,,,,,,,,,,,,,,,,150.71488529999988,None,None,,,,,,,,232,19,Female,2022-06-10_14h24.08.783,Main,2022.1.1,60.001968064585746,
,,,,,,,,,,,,,,,,,,,,,,,,,,,,,,,,,,,,,,,,,,,,,,,,,,,,,,,,,,,,,,,,,,,,,0.030555556,-0.10092592,1,0,0,0.0026310899993404746,None,232,19,Female,2022-06-10_14h24.08.783,Main,2022.1.1,60.001968064585746,
neutral,neutral,2,k,k,,,,,,,,,0,0,0,10,,,,,,,,,,,,,,,,,,,,,,156.20850610000025,None,main,1,1,2,neutral,neutral,k,k,1,0.9607856000002357,158.2281138000003,159.23926089999986,159.2113890999999,None,158.2281138000003,None,158.2281138000003,None,158.2281138000003,None,160.16803059,None,160.16803059,None,160.16803059,None,,,,,,,,,,,232,19,Female,2022-06-10_14h24.08.783,Main,2022.1.1,60.001968064585746,
positive,neutral,2,l,j,,,,,,,,,0,1,1,17,,,,,,,,,,,,,,,,,,,,,,,,main,2,2,2,neutral,positive,l,l,1,0.8449574999999641,160.19326690000025,161.2034649000002,161.1672351000002,None,160.19326690000025,None,160.19326690000025,None,160.19326690000025,None,162.0157099900003,None,162.0157099900003,None,162.0157099900003,None,,,,,,,,,,,232,19,Female,2022-06-10_14h24.08.783,Main,2022.1.1,60.001968064585746,
positive,positive,2,l,j,,,,,,,,,0,2,2,11,,,,,,,,,,,,,,,,,,,,,,,,main,2,2,2,positive,positive,l,l,1,0.6891208000001825,162.0405436000001,163.05164190000005,163.01521450000018,None,162.0405436000001,None,162.0405436000001,None,162.0405436000001,None,163.71028338999992,None,163.71028338999992,None,163.71028338999992,None,,,,,,,,,,,232,19,Female,2022-06-10_14h24.08.783,Main,2022.1.1,60.001968064585746,
negative,negative,1,j,l,,,,,,,,,0,3,3,0,,,,,,,,,,,,,,,,,,,,,,,,main,2,2,1,negative,negative,j,j,1,0.683060999999725,163.7317321999999,164.7425562000003,164.70493440000018,None,163.7317321999999,None,163.7317321999999,None,163.7317321999999,None,165.3966499900003,None,165.3966499900003,None,165.3966499900003,None,,,,,,,,,,,232,19,Female,2022-06-10_14h24.08.783,Main,2022.1.1,60.001968064585746,
negative,positive,2,j,l,,,,,,,,,0,4,4,15,,,,,,,,,,,,,,,,,,,,,,,,main,1,1,2,positive,negative,j,j,1,0.6325364999997873,165.4169483999999,166.43316670000013,166.39676830000008,None,165.4169483999999,None,165.4169483999999,None,165.4169483999999,None,167.0316150899999,None,167.0316150899999,None,167.0316150899999,None,,,,,,,,,,,232,19,Female,2022-06-10_14h24.08.783,Main,2022.1.1,60.001968064585746,
positive,positive,1,l,j,,,,,,,,,0,5,5,2,,,,,,,,,,,,,,,,,,,,,,,,main,1,1,1,positive,positive,l,l,1,0.9122397000001001,167.05220009999994,168.06746909999993,168.0312675,None,167.05220009999994,None,167.05220009999994,None,167.05220009999994,None,168.94633439000023,None,168.94633439000023,None,168.94633439000023,None,,,,,,,,,,,232,19,Female,2022-06-10_14h24.08.783,Main,2022.1.1,60.001968064585746,
negative,negative,2,j,l,,,,,,,,,0,6,6,9,,,,,,,,,,,,,,,,,,,,,,,,main,2,2,2,negative,negative,j,j,1,0.7061633000002985,168.96665410000014,169.96717579999995,169.94906450000008,None,168.96665410000014,None,168.96665410000014,None,168.96665410000014,None,170.6563070900002,None,170.6563070900002,None,170.6563070900002,None,,,,,,,,,,,232,19,Female,2022-06-10_14h24.08.783,Main,2022.1.1,60.001968064585746,
neutral,positive,1,k,k,,,,,,,,,0,7,7,4,,,,,,,,,,,,,,,,,,,,,,,,main,1,1,1,positive,neutral,k,k,1,0.6285063999998783,170.6782404999999,171.68624360000013,171.64925369999992,None,170.6782404999999,None,170.6782404999999,None,170.6782404999999,None,172.28827598999993,None,172.28827598999993,None,172.28827598999993,None,,,,,,,,,,,232,19,Female,2022-06-10_14h24.08.783,Main,2022.1.1,60.001968064585746,
neutral,neutral,1,k,k,,,,,,,,,0,8,8,1,,,,,,,,,,,,,,,,,,,,,,,,main,2,2,1,neutral,neutral,k,k,1,0.8070103000000017,172.30820510000012,173.3197752000001,173.28350640000008,None,172.30820510000012,None,172.30820510000012,None,172.30820510000012,None,174.0958849899999,None,174.0958849899999,None,174.0958849899999,None,,,,,,,,,,,232,19,Female,2022-06-10_14h24.08.783,Main,2022.1.1,60.001968064585746,
neutral,negative,2,k,k,,,,,,,,,0,9,9,16,,,,,,,,,,,,,,,,,,,,,,,,main,1,1,2,negative,neutral,k,k,1,0.7236462000000756,174.11597870000014,175.11821770000006,175.1002982,None,174.11597870000014,None,174.11597870000014,None,174.11597870000014,None,175.82391619000015,None,175.82391619000015,None,175.82391619000015,None,,,,,,,,,,,232,19,Female,2022-06-10_14h24.08.783,Main,2022.1.1,60.001968064585746,
positive,neutral,1,l,j,,,,,,,,,0,10,10,8,,,,,,,,,,,,,,,,,,,,,,,,main,2,2,1,neutral,positive,l,l,1,0.7943602000000283,175.84628870000006,176.8498609000003,176.82947169999989,None,175.84628870000006,None,175.84628870000006,None,175.84628870000006,None,177.61826798999988,None,177.61826798999988,None,177.61826798999988,None,,,,,,,,,,,232,19,Female,2022-06-10_14h24.08.783,Main,2022.1.1,60.001968064585746,
neutral,negative,1,k,k,,,,,,,,,0,11,11,7,,,,,,,,,,,,,,,,,,,,,,,,main,1,1,1,negative,neutral,k,k,1,0.7526880999998866,177.64224520000016,178.6527142,178.61625920000006,None,177.64224520000016,None,177.64224520000016,None,177.64224520000016,None,179.37563619000008,None,179.37563619000008,None,179.37563619000008,None,,,,,,,,,,,232,19,Female,2022-06-10_14h24.08.783,Main,2022.1.1,60.001968064585746,
positive,negative,2,l,j,,,,,,,,,0,12,12,14,,,,,,,,,,,,,,,,,,,,,,,,main,1,1,2,negative,positive,l,l,1,0.7349965000003067,179.39595860000009,180.40153820000023,180.38303459999997,None,179.39595860000009,None,179.39595860000009,None,179.39595860000009,None,181.1125169900002,None,181.1125169900002,None,181.1125169900002,None,,,,,,,,,,,232,19,Female,2022-06-10_14h24.08.783,Main,2022.1.1,60.001968064585746,
negative,neutral,1,j,l,,,,,,,,,0,13,13,3,,,,,,,,,,,,,,,,,,,,,,,,main,2,2,1,neutral,negative,j,k,0,1.3343261999998504,181.13363789999994,182.1548729000001,182.11596499999996,None,181.13363789999994,None,181.13363789999994,None,181.13363789999994,None,183.46130690000018,None,183.46130690000018,None,183.46130690000018,None,,,,,,,,,,,232,19,Female,2022-06-10_14h24.08.783,Main,2022.1.1,60.001968064585746,
positive,negative,1,l,j,,,,,,,,,0,14,14,5,,,,,,,,,,,,,,,,,,,,,,,,main,2,2,1,negative,positive,l,l,1,1.0482027000002745,184.48133580000012,185.4834837000003,185.46534780000002,None,184.48133580000012,None,184.48133580000012,None,184.48133580000012,None,186.5109592899999,None,186.5109592899999,None,186.5109592899999,None,,,,,,,,,,,232,19,Female,2022-06-10_14h24.08.783,Main,2022.1.1,60.001968064585746,
neutral,positive,2,k,k,,,,,,,,,0,15,15,13,,,,,,,,,,,,,,,,,,,,,,,,main,1,1,2,positive,neutral,k,k,1,0.9027937000000748,186.5314432,187.5443405000001,187.50750070000004,None,186.5314432,None,186.5314432,None,186.5314432,None,188.4161819900001,None,188.4161819900001,None,188.4161819900001,None,,,,,,,,,,,232,19,Female,2022-06-10_14h24.08.783,Main,2022.1.1,60.001968064585746,
negative,neutral,2,j,l,,,,,,,,,0,16,16,12,,,,,,,,,,,,,,,,,,,,,,,,main,1,1,2,neutral,negative,j,j,1,0.6877817999998115,188.4398715000002,189.4557534999999,189.41762500000004,None,188.4398715000002,None,188.4398715000002,None,188.4398715000002,None,190.10869848999988,None,190.10869848999988,None,190.10869848999988,None,,,,,,,,,,,232,19,Female,2022-06-10_14h24.08.783,Main,2022.1.1,60.001968064585746,
negative,positive,1,j,l,,,,,,,,,0,17,17,6,,,,,,,,,,,,,,,,,,,,,,,,main,1,1,1,positive,negative,j,j,1,0.5883735999996134,190.12886160000016,191.1331140000002,191.11498359999996,None,190.12886160000016,None,190.12886160000016,None,190.12886160000016,None,191.69942038999994,None,191.69942038999994,None,191.69942038999994,None,,,,,,,,,,,232,19,Female,2022-06-10_14h24.08.783,Main,2022.1.1,60.001968064585746,
neutral,positive,1,k,k,,,,,,,,,1,0,18,4,,,,,,,,,,,,,,,,,,,,,,,,main,1,1,1,positive,neutral,k,k,1,0.732868900000085,191.7225595,192.72520310000027,192.7073101000001,None,191.7225595,None,191.7225595,None,191.7225595,None,193.4365680900001,None,193.4365680900001,None,193.4365680900001,None,,,,,,,,,,,232,19,Female,2022-06-10_14h24.08.783,Main,2022.1.1,60.001968064585746,
negative,negative,1,j,l,,,,,,,,,1,1,19,0,,,,,,,,,,,,,,,,,,,,,,,,main,1,1,1,negative,negative,j,j,1,0.7570096999997986,193.4587077000001,194.46570350000002,194.42938189999995,None,193.4587077000001,None,193.4587077000001,None,193.4587077000001,None,195.19418859000012,None,195.19418859000012,None,195.19418859000012,None,,,,,,,,,,,232,19,Female,2022-06-10_14h24.08.783,Main,2022.1.1,60.001968064585746,
positive,negative,2,l,j,,,,,,,,,1,2,20,14,,,,,,,,,,,,,,,,,,,,,,,,main,1,1,2,negative,positive,l,l,1,0.762580799999796,195.2149228000003,196.21948359999988,196.2002808000002,None,195.2149228000003,None,195.2149228000003,None,195.2149228000003,None,196.95940989000025,None,196.95940989000025,None,196.95940989000025,None,,,,,,,,,,,232,19,Female,2022-06-10_14h24.08.783,Main,2022.1.1,60.001968064585746,
neutral,negative,2,k,k,,,,,,,,,1,3,21,16,,,,,,,,,,,,,,,,,,,,,,,,main,2,2,2,negative,neutral,k,k,1,0.7646153999999115,196.98195140000007,197.9968071000003,197.96016970000028,None,196.98195140000007,None,196.98195140000007,None,196.98195140000007,None,198.7266622900002,None,198.7266622900002,None,198.7266622900002,None,,,,,,,,,,,232,19,Female,2022-06-10_14h24.08.783,Main,2022.1.1,60.001968064585746,
positive,neutral,2,l,j,,,,,,,,,1,4,22,17,,,,,,,,,,,,,,,,,,,,,,,,main,1,1,2,neutral,positive,l,l,1,0.8990061999998034,198.74769330000026,199.75942609999993,199.72315879999996,None,198.74769330000026,None,198.74769330000026,None,198.74769330000026,None,200.62853598999988,None,200.62853598999988,None,200.62853598999988,None,,,,,,,,,,,232,19,Female,2022-06-10_14h24.08.783,Main,2022.1.1,60.001968064585746,
neutral,positive,2,k,k,,,,,,,,,1,5,23,13,,,,,,,,,,,,,,,,,,,,,,,,main,1,1,2,positive,neutral,k,k,1,0.6880981999997857,200.6527731000001,201.66438180000023,201.62750640000013,None,200.6527731000001,None,200.6527731000001,None,200.6527731000001,None,202.32100449000023,None,202.32100449000023,None,202.32100449000023,None,,,,,,,,,,,232,19,Female,2022-06-10_14h24.08.783,Main,2022.1.1,60.001968064585746,
negative,positive,2,j,l,,,,,,,,,1,6,24,15,,,,,,,,,,,,,,,,,,,,,,,,main,1,1,2,positive,negative,j,j,1,0.7122073999998975,202.34180650000008,203.34489609999991,203.32689200000004,None,202.34180650000008,None,202.34180650000008,None,202.34180650000008,None,204.03671659000025,None,204.03671659000025,None,204.03671659000025,None,,,,,,,,,,,232,19,Female,2022-06-10_14h24.08.783,Main,2022.1.1,60.001968064585746,
neutral,negative,1,k,k,,,,,,,,,1,7,25,7,,,,,,,,,,,,,,,,,,,,,,,,main,2,2,1,negative,neutral,k,k,1,0.7735586999997395,204.05742240000018,205.0625267999999,205.04411870000013,None,204.05742240000018,None,204.05742240000018,None,204.05742240000018,None,205.8091794900002,None,205.8091794900002,None,205.8091794900002,None,,,,,,,,,,,232,19,Female,2022-06-10_14h24.08.783,Main,2022.1.1,60.001968064585746,
positive,positive,2,l,j,,,,,,,,,1,8,26,11,,,,,,,,,,,,,,,,,,,,,,,,main,2,2,2,positive,positive,l,l,1,0.5736700000002202,205.83166040000015,206.84566570000015,206.8097729000001,None,205.83166040000015,None,205.83166040000015,None,205.83166040000015,None,207.38885099000032,None,207.38885099000032,None,207.38885099000032,None,,,,,,,,,,,232,19,Female,2022-06-10_14h24.08.783,Main,2022.1.1,60.001968064585746,
negative,negative,2,j,l,,,,,,,,,1,9,27,9,,,,,,,,,,,,,,,,,,,,,,,,main,1,1,2,negative,negative,j,j,1,0.68474950000018,207.41182490000028,208.42960140000014,208.3919493000003,None,207.41182490000028,None,207.41182490000028,None,207.41182490000028,None,209.07724418999993,None,209.07724418999993,None,209.07724418999993,None,,,,,,,,,,,232,19,Female,2022-06-10_14h24.08.783,Main,2022.1.1,60.001968064585746,
positive,positive,1,l,j,,,,,,,,,1,10,28,2,,,,,,,,,,,,,,,,,,,,,,,,main,2,2,1,positive,positive,l,l,1,0.7643991999998434,209.0973325,210.1052709999999,210.08682940000017,None,209.0973325,None,209.0973325,None,209.0973325,None,210.84392439000027,None,210.84392439000027,None,210.84392439000027,None,,,,,,,,,,,232,19,Female,2022-06-10_14h24.08.783,Main,2022.1.1,60.001968064585746,
positive,neutral,1,l,j,,,,,,,,,1,11,29,8,,,,,,,,,,,,,,,,,,,,,,,,main,2,2,1,neutral,positive,l,l,1,0.7229453999998441,210.86466800000017,211.87978770000018,211.84363410000014,None,210.86466800000017,None,210.86466800000017,None,210.86466800000017,None,212.5715402900001,None,212.5715402900001,None,212.5715402900001,None,,,,,,,,,,,232,19,Female,2022-06-10_14h24.08.783,Main,2022.1.1,60.001968064585746,
negative,positive,1,j,l,,,,,,,,,1,12,30,6,,,,,,,,,,,,,,,,,,,,,,,,main,1,1,1,positive,negative,j,j,1,0.7467227000001913,212.5931286,213.61179130000028,213.57384839999986,None,212.5931286,None,212.5931286,None,212.5931286,None,214.32254989000018,None,214.32254989000018,None,214.32254989000018,None,,,,,,,,,,,232,19,Female,2022-06-10_14h24.08.783,Main,2022.1.1,60.001968064585746,
neutral,neutral,2,k,k,,,,,,,,,1,13,31,10,,,,,,,,,,,,,,,,,,,,,,,,main,1,1,2,neutral,neutral,k,k,1,0.7216398000000481,214.34241659999998,215.35049460000027,215.33078350000005,None,214.34241659999998,None,214.34241659999998,None,214.34241659999998,None,216.04629299000004,None,216.04629299000004,None,216.04629299000004,None,,,,,,,,,,,232,19,Female,2022-06-10_14h24.08.783,Main,2022.1.1,60.001968064585746,
negative,neutral,1,j,l,,,,,,,,,1,14,32,3,,,,,,,,,,,,,,,,,,,,,,,,main,1,1,1,neutral,negative,j,j,1,0.7433347999999569,216.07040129999996,217.07504659999995,217.05684100000008,None,216.07040129999996,None,216.07040129999996,None,216.07040129999996,None,217.79220309,None,217.79220309,None,217.79220309,None,,,,,,,,,,,232,19,Female,2022-06-10_14h24.08.783,Main,2022.1.1,60.001968064585746,
negative,neutral,2,j,l,,,,,,,,,1,15,33,12,,,,,,,,,,,,,,,,,,,,,,,,main,2,2,2,neutral,negative,j,j,1,0.7494799000000967,217.81247089999988,218.81693050000013,218.79821930000026,None,217.81247089999988,None,217.81247089999988,None,217.81247089999988,None,219.54389339000005,None,219.54389339000005,None,219.54389339000005,None,,,,,,,,,,,232,19,Female,2022-06-10_14h24.08.783,Main,2022.1.1,60.001968064585746,
positive,negative,1,l,j,,,,,,,,,1,16,34,5,,,,,,,,,,,,,,,,,,,,,,,,main,1,1,1,negative,positive,l,l,1,0.7025939000000108,219.5637297000003,220.57719889999998,220.5400883000002,None,219.5637297000003,None,219.5637297000003,None,219.5637297000003,None,221.25088249000015,None,221.25088249000015,None,221.25088249000015,None,,,,,,,,,,,232,19,Female,2022-06-10_14h24.08.783,Main,2022.1.1,60.001968064585746,
neutral,neutral,1,k,k,,,,,,,,,1,17,35,1,,,,,,,,,,,,,,,,,,,,,,,,main,2,2,1,neutral,neutral,k,k,1,0.7151523999996243,221.27195540000002,222.2794288,222.25914020000027,None,221.27195540000002,None,221.27195540000002,None,221.27195540000002,None,222.9685452899999,None,222.9685452899999,None,222.9685452899999,None,,,,,,,,,,,232,19,Female,2022-06-10_14h24.08.783,Main,2022.1.1,60.001968064585746,
negative,positive,1,j,l,,,,,,,,,2,0,36,6,,,,,,,,,,,,,,,,,,,,,,,,main,1,1,1,positive,negative,j,j,1,0.6676755000003141,222.9898320000002,224.00499919999993,223.9683384,None,222.9898320000002,None,222.9898320000002,None,222.9898320000002,None,224.63987039,None,224.63987039,None,224.63987039,None,,,,,,,,,,,232,19,Female,2022-06-10_14h24.08.783,Main,2022.1.1,60.001968064585746,
negative,negative,2,j,l,,,,,,,,,2,1,37,9,,,,,,,,,,,,,,,,,,,,,,,,main,1,1,2,negative,negative,j,j,1,0.7347229000001789,224.6597053999999,225.67385240000021,225.63711280000007,None,224.6597053999999,None,224.6597053999999,None,224.6597053999999,None,226.37517909000013,None,226.37517909000013,None,226.37517909000013,None,,,,,,,,,,,232,19,Female,2022-06-10_14h24.08.783,Main,2022.1.1,60.001968064585746,
neutral,positive,2,k,k,,,,,,,,,2,2,38,13,,,,,,,,,,,,,,,,,,,,,,,,main,2,2,2,positive,neutral,k,k,1,0.7947731999997814,226.40037140000004,227.4065101000001,227.3885064000001,None,226.40037140000004,None,226.40037140000004,None,226.40037140000004,None,228.1731259900003,None,228.1731259900003,None,228.1731259900003,None,,,,,,,,,,,232,19,Female,2022-06-10_14h24.08.783,Main,2022.1.1,60.001968064585746,
neutral,neutral,1,k,k,,,,,,,,,2,3,39,1,,,,,,,,,,,,,,,,,,,,,,,,main,2,2,1,neutral,neutral,k,k,1,0.7329939999999624,228.1951512999999,229.20368689999987,229.18496660000028,None,228.1951512999999,None,228.1951512999999,None,228.1951512999999,None,229.90930149000002,None,229.90930149000002,None,229.90930149000002,None,,,,,,,,,,,232,19,Female,2022-06-10_14h24.08.783,Main,2022.1.1,60.001968064585746,
neutral,neutral,2,k,k,,,,,,,,,2,4,40,10,,,,,,,,,,,,,,,,,,,,,,,,main,2,2,2,neutral,neutral,k,k,1,0.6546440000001894,229.93129690000023,230.9367368000003,230.91724190000014,None,229.93129690000023,None,229.93129690000023,None,229.93129690000023,None,231.56990429000012,None,231.56990429000012,None,231.56990429000012,None,,,,,,,,,,,232,19,Female,2022-06-10_14h24.08.783,Main,2022.1.1,60.001968064585746,
positive,negative,1,l,j,,,,,,,,,2,5,41,5,,,,,,,,,,,,,,,,,,,,,,,,main,1,1,1,negative,positive,l,l,1,0.64645500000006,231.5919425000002,232.60473600000023,232.56820070000003,None,231.5919425000002,None,231.5919425000002,None,231.5919425000002,None,233.2200538900002,None,233.2200538900002,None,233.2200538900002,None,,,,,,,,,,,232,19,Female,2022-06-10_14h24.08.783,Main,2022.1.1,60.001968064585746,
positive,neutral,1,l,j,,,,,,,,,2,6,42,8,,,,,,,,,,,,,,,,,,,,,,,,main,2,2,1,neutral,positive,l,l,1,0.5333939999995891,233.24221420000003,234.25444229999994,234.21824289999995,None,233.24221420000003,None,233.24221420000003,None,233.24221420000003,None,234.7567548900002,None,234.7567548900002,None,234.7567548900002,None,,,,,,,,,,,232,19,Female,2022-06-10_14h24.08.783,Main,2022.1.1,60.001968064585746,
positive,positive,1,l,j,,,,,,,,,2,7,43,2,,,,,,,,,,,,,,,,,,,,,,,,main,2,2,1,positive,positive,l,l,1,0.5747615000000224,234.77817559999994,235.79225709999992,235.75515619999987,None,234.77817559999994,None,234.77817559999994,None,234.77817559999994,None,236.33577739000026,None,236.33577739000026,None,236.33577739000026,None,,,,,,,,,,,232,19,Female,2022-06-10_14h24.08.783,Main,2022.1.1,60.001968064585746,
neutral,positive,1,k,k,,,,,,,,,2,8,44,4,,,,,,,,,,,,,,,,,,,,,,,,main,2,2,1,positive,neutral,k,k,1,0.7516411000001426,236.35728719999997,237.36125059999995,237.34452880000026,None,236.35728719999997,None,236.35728719999997,None,236.35728719999997,None,238.09048169000022,None,238.09048169000022,None,238.09048169000022,None,,,,,,,,,,,232,19,Female,2022-06-10_14h24.08.783,Main,2022.1.1,60.001968064585746,
neutral,negative,1,k,k,,,,,,,,,2,9,45,7,,,,,,,,,,,,,,,,,,,,,,,,main,1,1,1,negative,neutral,k,k,1,1.1442845999999918,238.11413549999997,239.12303900000006,239.08742949999987,None,238.11413549999997,None,238.11413549999997,None,238.11413549999997,None,240.23716229000007,None,240.23716229000007,None,240.23716229000007,None,,,,,,,,,,,232,19,Female,2022-06-10_14h24.08.783,Main,2022.1.1,60.001968064585746,
positive,neutral,2,l,j,,,,,,,,,2,10,46,17,,,,,,,,,,,,,,,,,,,,,,,,main,2,2,2,neutral,positive,l,l,1,0.873805899999752,240.2575727000003,241.27367860000004,241.23700610000014,None,240.2575727000003,None,240.2575727000003,None,240.2575727000003,None,242.1148486900002,None,242.1148486900002,None,242.1148486900002,None,,,,,,,,,,,232,19,Female,2022-06-10_14h24.08.783,Main,2022.1.1,60.001968064585746,
negative,neutral,1,j,l,,,,,,,,,2,11,47,3,,,,,,,,,,,,,,,,,,,,,,,,main,2,2,1,neutral,negative,j,j,1,0.705422400000316,242.1361254000003,243.1527461999999,243.11530300000004,None,242.1361254000003,None,242.1361254000003,None,242.1361254000003,None,243.82012438999988,None,243.82012438999988,None,243.82012438999988,None,,,,,,,,,,,232,19,Female,2022-06-10_14h24.08.783,Main,2022.1.1,60.001968064585746,
positive,positive,2,l,j,,,,,,,,,2,12,48,11,,,,,,,,,,,,,,,,,,,,,,,,main,1,1,2,positive,positive,l,l,1,0.6323701000001165,243.84205569999995,244.8561926000002,244.8194824000002,None,243.84205569999995,None,243.84205569999995,None,243.84205569999995,None,245.45420689000008,None,245.45420689000008,None,245.45420689000008,None,,,,,,,,,,,232,19,Female,2022-06-10_14h24.08.783,Main,2022.1.1,60.001968064585746,
negative,positive,2,j,l,,,,,,,,,2,13,49,15,,,,,,,,,,,,,,,,,,,,,,,,main,1,1,2,positive,negative,j,j,1,0.7215192999997271,245.47668520000025,246.48363440000003,246.4632302,None,245.47668520000025,None,245.47668520000025,None,245.47668520000025,None,247.18183209000023,None,247.18183209000023,None,247.18183209000023,None,,,,,,,,,,,232,19,Female,2022-06-10_14h24.08.783,Main,2022.1.1,60.001968064585746,
negative,negative,1,j,l,,,,,,,,,2,14,50,0,,,,,,,,,,,,,,,,,,,,,,,,main,2,2,1,negative,negative,j,j,1,0.7138790999997582,247.20374279999987,248.20591300000024,248.18737869999995,None,247.20374279999987,None,247.20374279999987,None,247.20374279999987,None,248.8985031900002,None,248.8985031900002,None,248.8985031900002,None,,,,,,,,,,,232,19,Female,2022-06-10_14h24.08.783,Main,2022.1.1,60.001968064585746,
positive,negative,2,l,j,,,,,,,,,2,15,51,14,,,,,,,,,,,,,,,,,,,,,,,,main,2,2,2,negative,positive,l,l,1,0.7450059000002511,248.91863439999997,249.93172460000005,249.89273619999994,None,248.91863439999997,None,248.91863439999997,None,248.91863439999997,None,250.64598529000028,None,250.64598529000028,None,250.64598529000028,None,,,,,,,,,,,232,19,Female,2022-06-10_14h24.08.783,Main,2022.1.1,60.001968064585746,
neutral,negative,2,k,k,,,,,,,,,2,16,52,16,,,,,,,,,,,,,,,,,,,,,,,,main,2,2,2,negative,neutral,k,k,1,0.6570049000001745,250.6682639999999,251.671652,251.6521643000001,None,250.6682639999999,None,250.6682639999999,None,250.6682639999999,None,252.30418029000026,None,252.30418029000026,None,252.30418029000026,None,,,,,,,,,,,232,19,Female,2022-06-10_14h24.08.783,Main,2022.1.1,60.001968064585746,
negative,neutral,2,j,l,,,,,,,,,2,17,53,12,,,,,,,,,,,,,,,,,,,,,,,,main,2,2,2,neutral,negative,j,,0,1.1324905999999828,252.32538410000006,253.33103849999998,253.3123316000001,None,252.32538410000006,None,252.32538410000006,None,252.32538410000006,None,254.44676479999998,None,254.44676479999998,None,254.44676479999998,None,,,,,,,,,,,232,19,Female,2022-06-10_14h24.08.783,Main,2022.1.1,60.001968064585746,
positive,positive,2,l,j,,,,,,,,,3,0,54,11,,,,,,,,,,,,,,,,,,,,,,,,main,2,2,2,positive,positive,l,l,1,0.8700055000003886,255.4725983000003,256.49263180000025,256.45457590000024,None,255.4725983000003,None,255.4725983000003,None,255.4725983000003,None,257.33610478,None,257.33610478,None,257.33610478,None,,,,,,,,,,,232,19,Female,2022-06-10_14h24.08.783,Main,2022.1.1,60.001968064585746,
negative,negative,2,j,l,,,,,,,,,3,1,55,9,,,,,,,,,,,,,,,,,,,,,,,,main,2,2,2,negative,negative,j,j,1,0.7110109999998713,257.35302290000027,258.3682799000003,258.34823170000027,None,257.35302290000027,None,257.35302290000027,None,257.35302290000027,None,259.0415508900001,None,259.0415508900001,None,259.0415508900001,None,,,,,,,,,,,232,19,Female,2022-06-10_14h24.08.783,Main,2022.1.1,60.001968064585746,
positive,neutral,2,l,j,,,,,,,,,3,2,56,17,,,,,,,,,,,,,,,,,,,,,,,,main,2,2,2,neutral,positive,l,l,1,0.821108600000116,259.06406890000017,260.0671511999999,260.0487820000003,None,259.06406890000017,None,259.06406890000017,None,259.06406890000017,None,260.8656499899999,None,260.8656499899999,None,260.8656499899999,None,,,,,,,,,,,232,19,Female,2022-06-10_14h24.08.783,Main,2022.1.1,60.001968064585746,
positive,negative,2,l,j,,,,,,,,,3,3,57,14,,,,,,,,,,,,,,,,,,,,,,,,main,2,2,2,negative,positive,l,l,1,0.7011735000000954,260.88613269999996,261.9039760999999,261.86375850000013,None,260.88613269999996,None,260.88613269999996,None,260.88613269999996,None,262.5696629899999,None,262.5696629899999,None,262.5696629899999,None,,,,,,,,,,,232,19,Female,2022-06-10_14h24.08.783,Main,2022.1.1,60.001968064585746,
positive,neutral,1,l,j,,,,,,,,,3,4,58,8,,,,,,,,,,,,,,,,,,,,,,,,main,1,1,1,neutral,positive,l,l,1,0.8175360000000182,262.59065550000014,263.5912889000001,263.5745320000001,None,262.59065550000014,None,262.59065550000014,None,262.59065550000014,None,264.38944609000015,None,264.38944609000015,None,264.38944609000015,None,,,,,,,,,,,232,19,Female,2022-06-10_14h24.08.783,Main,2022.1.1,60.001968064585746,
positive,negative,1,l,j,,,,,,,,,3,5,59,5,,,,,,,,,,,,,,,,,,,,,,,,main,1,1,1,negative,positive,l,l,1,0.6372427999999672,264.41322160000027,265.4234065999999,265.38714789999995,None,264.41322160000027,None,264.41322160000027,None,264.41322160000027,None,266.0312301899999,None,266.0312301899999,None,266.0312301899999,None,,,,,,,,,,,232,19,Female,2022-06-10_14h24.08.783,Main,2022.1.1,60.001968064585746,
positive,positive,1,l,j,,,,,,,,,3,6,60,2,,,,,,,,,,,,,,,,,,,,,,,,main,2,2,1,positive,positive,l,l,1,0.6425634000001992,266.0523366000002,267.0564797000002,267.0382881999999,None,266.0523366000002,None,266.0523366000002,None,266.0523366000002,None,267.67798279000004,None,267.67798279000004,None,267.67798279000004,None,,,,,,,,,,,232,19,Female,2022-06-10_14h24.08.783,Main,2022.1.1,60.001968064585746,
negative,neutral,2,j,l,,,,,,,,,3,7,61,12,,,,,,,,,,,,,,,,,,,,,,,,main,2,2,2,neutral,negative,j,j,1,0.6662917999997262,267.69929619999994,268.71124229999987,268.6733546999999,None,267.69929619999994,None,267.69929619999994,None,267.69929619999994,None,269.3470174899999,None,269.3470174899999,None,269.3470174899999,None,,,,,,,,,,,232,19,Female,2022-06-10_14h24.08.783,Main,2022.1.1,60.001968064585746,
neutral,positive,2,k,k,,,,,,,,,3,8,62,13,,,,,,,,,,,,,,,,,,,,,,,,main,1,1,2,positive,neutral,k,k,1,0.7919782999997551,269.36811780000016,270.3833453000002,270.3473365,None,269.36811780000016,None,269.36811780000016,None,269.36811780000016,None,271.14211139000014,None,271.14211139000014,None,271.14211139000014,None,,,,,,,,,,,232,19,Female,2022-06-10_14h24.08.783,Main,2022.1.1,60.001968064585746,
neutral,negative,1,k,k,,,,,,,,,3,9,63,7,,,,,,,,,,,,,,,,,,,,,,,,main,2,2,1,negative,neutral,k,k,1,0.7322223000001031,271.1633222999999,272.1766445000003,272.13874609999993,None,271.1633222999999,None,271.1633222999999,None,271.1633222999999,None,272.8783271900002,None,272.8783271900002,None,272.8783271900002,None,,,,,,,,,,,232,19,Female,2022-06-10_14h24.08.783,Main,2022.1.1,60.001968064585746,
neutral,negative,2,k,k,,,,,,,,,3,10,64,16,,,,,,,,,,,,,,,,,,,,,,,,main,2,2,2,negative,neutral,k,k,1,0.7533589999998185,272.89767519999987,273.90677030000006,273.86953399999993,None,272.89767519999987,None,272.89767519999987,None,272.89767519999987,None,274.6325042899999,None,274.6325042899999,None,274.6325042899999,None,,,,,,,,,,,232,19,Female,2022-06-10_14h24.08.783,Main,2022.1.1,60.001968064585746,
neutral,neutral,2,k,k,,,,,,,,,3,11,65,10,,,,,,,,,,,,,,,,,,,,,,,,main,2,2,2,neutral,neutral,k,k,1,0.6977356000002146,274.65448730000026,275.6597056999999,275.6406079000003,None,274.65448730000026,None,274.65448730000026,None,274.65448730000026,None,276.33289969000003,None,276.33289969000003,None,276.33289969000003,None,,,,,,,,,,,232,19,Female,2022-06-10_14h24.08.783,Main,2022.1.1,60.001968064585746,
negative,neutral,1,j,l,,,,,,,,,3,12,66,3,,,,,,,,,,,,,,,,,,,,,,,,main,2,2,1,neutral,negative,j,j,1,0.7331233999998403,276.35320980000006,277.3641625,277.32293770000024,None,276.35320980000006,None,276.35320980000006,None,276.35320980000006,None,278.0681668900002,None,278.0681668900002,None,278.0681668900002,None,,,,,,,,,,,232,19,Female,2022-06-10_14h24.08.783,Main,2022.1.1,60.001968064585746,
negative,negative,1,j,l,,,,,,,,,3,13,67,0,,,,,,,,,,,,,,,,,,,,,,,,main,1,1,1,negative,negative,j,j,1,0.7045481000000109,278.08937939999987,279.09920169999987,279.0622555,None,278.08937939999987,None,278.08937939999987,None,278.08937939999987,None,279.7771568900003,None,279.7771568900003,None,279.7771568900003,None,,,,,,,,,,,232,19,Female,2022-06-10_14h24.08.783,Main,2022.1.1,60.001968064585746,
neutral,positive,1,k,k,,,,,,,,,3,14,68,4,,,,,,,,,,,,,,,,,,,,,,,,main,2,2,1,positive,neutral,k,k,1,0.7456373999998505,279.7985364000001,280.8087751000003,280.77159230000007,None,279.7985364000001,None,279.7985364000001,None,279.7985364000001,None,281.5250011900003,None,281.5250011900003,None,281.5250011900003,None,,,,,,,,,,,232,19,Female,2022-06-10_14h24.08.783,Main,2022.1.1,60.001968064585746,
negative,positive,1,j,l,,,,,,,,,3,15,69,6,,,,,,,,,,,,,,,,,,,,,,,,main,1,1,1,positive,negative,j,j,1,0.7411243000001377,281.5475919999999,282.55875620000006,282.5195584000003,None,281.5475919999999,None,281.5475919999999,None,281.5475919999999,None,283.2674083900002,None,283.2674083900002,None,283.2674083900002,None,,,,,,,,,,,232,19,Female,2022-06-10_14h24.08.783,Main,2022.1.1,60.001968064585746,
neutral,neutral,1,k,k,,,,,,,,,3,16,70,1,,,,,,,,,,,,,,,,,,,,,,,,main,1,1,1,neutral,neutral,k,k,1,0.6842916000000514,283.2886443000002,284.30550600000015,284.2690149,None,283.2886443000002,None,283.2886443000002,None,283.2886443000002,None,284.9545024899999,None,284.9545024899999,None,284.9545024899999,None,,,,,,,,,,,232,19,Female,2022-06-10_14h24.08.783,Main,2022.1.1,60.001968064585746,
negative,positive,2,j,l,,,,,,,,,3,17,71,15,,,,,,,,,,,,,,,,,,,,,,,,main,2,2,2,positive,negative,j,j,1,0.8665688000000955,284.97384450000027,285.98159480000004,285.96388290000004,None,284.97384450000027,None,284.97384450000027,None,284.97384450000027,None,286.82466039000025,None,286.82466039000025,None,286.82466039000025,None,,,,,,,,,,,232,19,Female,2022-06-10_14h24.08.783,Main,2022.1.1,60.001968064585746,
neutral,positive,2,k,k,,,,,,,,,4,0,72,13,,,,,,,,,,,,,,,,,,,,,,,,main,1,1,2,positive,neutral,k,k,1,0.7013750000000982,286.8467894999999,287.8598248000003,287.82123920000004,None,286.8467894999999,None,286.8467894999999,None,286.8467894999999,None,288.52838069000023,None,288.52838069000023,None,288.52838069000023,None,,,,,,,,,,,232,19,Female,2022-06-10_14h24.08.783,Main,2022.1.1,60.001968064585746,
positive,positive,1,l,j,,,,,,,,,4,1,73,2,,,,,,,,,,,,,,,,,,,,,,,,main,2,2,1,positive,positive,l,l,1,0.8127086999998028,288.551684,289.5580003,289.5392228999999,None,288.551684,None,288.551684,None,288.551684,None,290.3455333900002,None,290.3455333900002,None,290.3455333900002,None,,,,,,,,,,,232,19,Female,2022-06-10_14h24.08.783,Main,2022.1.1,60.001968064585746,
negative,neutral,1,j,l,,,,,,,,,4,2,74,3,,,,,,,,,,,,,,,,,,,,,,,,main,1,1,1,neutral,negative,j,j,1,0.7686635000000024,290.3659858000001,291.3701110000002,291.35170449999987,None,290.3659858000001,None,290.3659858000001,None,290.3659858000001,None,292.1167448900001,None,292.1167448900001,None,292.1167448900001,None,,,,,,,,,,,232,19,Female,2022-06-10_14h24.08.783,Main,2022.1.1,60.001968064585746,
positive,neutral,2,l,j,,,,,,,,,4,3,75,17,,,,,,,,,,,,,,,,,,,,,,,,main,2,2,2,neutral,positive,l,l,1,1.228348300000107,292.1376802,293.1477218,293.1114090000001,None,292.1376802,None,292.1376802,None,292.1376802,None,294.34758788999994,None,294.34758788999994,None,294.34758788999994,None,,,,,,,,,,,232,19,Female,2022-06-10_14h24.08.783,Main,2022.1.1,60.001968064585746,
positive,neutral,1,l,j,,,,,,,,,4,4,76,8,,,,,,,,,,,,,,,,,,,,,,,,main,2,2,1,neutral,positive,l,l,1,0.7216662000000724,294.36857770000006,295.3849018000001,295.34687280000026,None,294.36857770000006,None,294.36857770000006,None,294.36857770000006,None,296.0739066900001,None,296.0739066900001,None,296.0739066900001,None,,,,,,,,,,,232,19,Female,2022-06-10_14h24.08.783,Main,2022.1.1,60.001968064585746,
neutral,positive,1,k,k,,,,,,,,,4,5,77,4,,,,,,,,,,,,,,,,,,,,,,,,main,2,2,1,positive,neutral,k,k,1,0.7254259000001184,296.0957449000002,297.11109540000007,297.07368480000014,None,296.0957449000002,None,296.0957449000002,None,296.0957449000002,None,297.7994412900003,None,297.7994412900003,None,297.7994412900003,None,,,,,,,,,,,232,19,Female,2022-06-10_14h24.08.783,Main,2022.1.1,60.001968064585746,
negative,negative,2,j,l,,,,,,,,,4,6,78,9,,,,,,,,,,,,,,,,,,,,,,,,main,2,2,2,negative,negative,j,j,1,1.2443579999999201,297.8252330999999,298.8277146999999,298.8092243000001,None,297.8252330999999,None,297.8252330999999,None,297.8252330999999,None,300.0470176899999,None,300.0470176899999,None,300.0470176899999,None,,,,,,,,,,,232,19,Female,2022-06-10_14h24.08.783,Main,2022.1.1,60.001968064585746,
neutral,negative,1,k,k,,,,,,,,,4,7,79,7,,,,,,,,,,,,,,,,,,,,,,,,main,2,2,1,negative,neutral,k,k,1,0.772102299999915,300.06764680000015,301.073398,301.0532538000002,None,300.06764680000015,None,300.06764680000015,None,300.06764680000015,None,301.8233502900003,None,301.8233502900003,None,301.8233502900003,None,,,,,,,,,,,232,19,Female,2022-06-10_14h24.08.783,Main,2022.1.1,60.001968064585746,
positive,negative,1,l,j,,,,,,,,,4,8,80,5,,,,,,,,,,,,,,,,,,,,,,,,main,2,2,1,negative,positive,l,l,1,0.8268011000000115,301.84499110000024,302.8616843,302.82471750000013,None,301.84499110000024,None,301.84499110000024,None,301.84499110000024,None,303.65251079000024,None,303.65251079000024,None,303.65251079000024,None,,,,,,,,,,,232,19,Female,2022-06-10_14h24.08.783,Main,2022.1.1,60.001968064585746,
positive,positive,2,l,j,,,,,,,,,4,9,81,11,,,,,,,,,,,,,,,,,,,,,,,,main,2,2,2,positive,positive,l,l,1,0.8241652000001523,303.67234240000016,304.68508969999993,304.6486553,None,303.67234240000016,None,303.67234240000016,None,303.67234240000016,None,305.4771164899999,None,305.4771164899999,None,305.4771164899999,None,,,,,,,,,,,232,19,Female,2022-06-10_14h24.08.783,Main,2022.1.1,60.001968064585746,
neutral,neutral,2,k,k,,,,,,,,,4,10,82,10,,,,,,,,,,,,,,,,,,,,,,,,main,2,2,2,neutral,neutral,k,k,1,0.7147105000003648,305.49908200000027,306.5055583000003,306.4860822999999,None,305.49908200000027,None,305.49908200000027,None,305.49908200000027,None,307.1959399900002,None,307.1959399900002,None,307.1959399900002,None,,,,,,,,,,,232,19,Female,2022-06-10_14h24.08.783,Main,2022.1.1,60.001968064585746,
neutral,negative,2,k,k,,,,,,,,,4,11,83,16,,,,,,,,,,,,,,,,,,,,,,,,main,2,2,2,negative,neutral,k,k,1,0.6993470999996134,307.21717750000016,308.23127969999996,308.1946788,None,307.21717750000016,None,307.21717750000016,None,307.21717750000016,None,308.8979959900003,None,308.8979959900003,None,308.8979959900003,None,,,,,,,,,,,232,19,Female,2022-06-10_14h24.08.783,Main,2022.1.1,60.001968064585746,
negative,negative,1,j,l,,,,,,,,,4,12,84,0,,,,,,,,,,,,,,,,,,,,,,,,main,2,2,1,negative,negative,j,j,1,0.7465395999997781,308.9187172000002,309.9288329000001,309.8915726,None,308.9187172000002,None,308.9187172000002,None,308.9187172000002,None,310.64696089000023,None,310.64696089000023,None,310.64696089000023,None,,,,,,,,,,,232,19,Female,2022-06-10_14h24.08.783,Main,2022.1.1,60.001968064585746,
positive,negative,2,l,j,,,,,,,,,4,13,85,14,,,,,,,,,,,,,,,,,,,,,,,,main,1,1,2,negative,positive,l,l,1,0.926530300000195,310.67211320000024,311.686459,311.64930060000006,None,310.67211320000024,None,310.67211320000024,None,310.67211320000024,None,312.57591639000026,None,312.57591639000026,None,312.57591639000026,None,,,,,,,,,,,232,19,Female,2022-06-10_14h24.08.783,Main,2022.1.1,60.001968064585746,
negative,positive,2,j,l,,,,,,,,,4,14,86,15,,,,,,,,,,,,,,,,,,,,,,,,main,1,1,2,positive,negative,j,j,1,1.1841310999998313,312.5980325999999,313.6019074999999,313.5841085000002,None,312.5980325999999,None,312.5980325999999,None,312.5980325999999,None,314.76369009000024,None,314.76369009000024,None,314.76369009000024,None,,,,,,,,,,,232,19,Female,2022-06-10_14h24.08.783,Main,2022.1.1,60.001968064585746,
negative,neutral,2,j,l,,,,,,,,,4,15,87,12,,,,,,,,,,,,,,,,,,,,,,,,main,1,1,2,neutral,negative,j,j,1,0.7142455000002883,314.7886897000003,315.79560100000026,315.7776936,None,314.7886897000003,None,314.7886897000003,None,314.7886897000003,None,316.48262248999987,None,316.48262248999987,None,316.48262248999987,None,,,,,,,,,,,232,19,Female,2022-06-10_14h24.08.783,Main,2022.1.1,60.001968064585746,
neutral,neutral,1,k,k,,,,,,,,,4,16,88,1,,,,,,,,,,,,,,,,,,,,,,,,main,2,2,1,neutral,neutral,k,k,1,0.7458349999997154,316.5020429000001,317.5114867000002,317.47512030000007,None,316.5020429000001,None,316.5020429000001,None,316.5020429000001,None,318.23066759,None,318.23066759,None,318.23066759,None,,,,,,,,,,,232,19,Female,2022-06-10_14h24.08.783,Main,2022.1.1,60.001968064585746,
negative,positive,1,j,l,,,,,,,,,4,17,89,6,,,,,,,,,,,,,,,,,,,,,,,,main,1,1,1,positive,negative,j,j,1,0.744691899999907,318.2508616,319.26771880000024,319.23116419999997,None,318.2508616,None,318.2508616,None,318.2508616,None,319.97768979000017,None,319.97768979000017,None,319.97768979000017,None,,,,,,,,,,,232,19,Female,2022-06-10_14h24.08.783,Main,2022.1.1,60.001968064585746,
positive,positive,2,l,j,,,,,,,,,5,0,90,11,,,,,,,,,,,,,,,,,,,,,,,,main,1,1,2,positive,positive,l,l,1,0.7796528000003491,319.99961269999994,321.01616790000026,320.9773161000003,None,319.99961269999994,None,319.99961269999994,None,319.99961269999994,None,321.7604574900002,None,321.7604574900002,None,321.7604574900002,None,,,,,,,,,,,232,19,Female,2022-06-10_14h24.08.783,Main,2022.1.1,60.001968064585746,
positive,neutral,1,l,j,,,,,,,,,5,1,91,8,,,,,,,,,,,,,,,,,,,,,,,,main,2,2,1,neutral,positive,l,l,1,0.7267210999998497,321.78133560000015,322.78267140000025,322.7646989,None,321.78133560000015,None,321.78133560000015,None,321.78133560000015,None,323.49123208999987,None,323.49123208999987,None,323.49123208999987,None,,,,,,,,,,,232,19,Female,2022-06-10_14h24.08.783,Main,2022.1.1,60.001968064585746,
positive,positive,1,l,j,,,,,,,,,5,2,92,2,,,,,,,,,,,,,,,,,,,,,,,,main,2,2,1,positive,positive,l,l,1,0.6009429999999156,323.5122073000002,324.5160149000003,324.4964138,None,323.5122073000002,None,323.5122073000002,None,323.5122073000002,None,325.0946421899999,None,325.0946421899999,None,325.0946421899999,None,,,,,,,,,,,232,19,Female,2022-06-10_14h24.08.783,Main,2022.1.1,60.001968064585746,
negative,neutral,1,j,l,,,,,,,,,5,3,93,3,,,,,,,,,,,,,,,,,,,,,,,,main,1,1,1,neutral,negative,j,j,1,0.7738076000000547,325.1153597000002,326.1215715000003,326.10317650000025,None,325.1153597000002,None,325.1153597000002,None,325.1153597000002,None,326.8731833900002,None,326.8731833900002,None,326.8731833900002,None,,,,,,,,,,,232,19,Female,2022-06-10_14h24.08.783,Main,2022.1.1,60.001968064585746,
neutral,positive,1,k,k,,,,,,,,,5,4,94,4,,,,,,,,,,,,,,,,,,,,,,,,main,2,2,1,positive,neutral,k,k,1,1.3985428999999385,326.8949628999999,327.9109684,327.8738017999999,None,326.8949628999999,None,326.8949628999999,None,326.8949628999999,None,329.2746513900002,None,329.2746513900002,None,329.2746513900002,None,,,,,,,,,,,232,19,Female,2022-06-10_14h24.08.783,Main,2022.1.1,60.001968064585746,
negative,negative,2,j,l,,,,,,,,,5,5,95,9,,,,,,,,,,,,,,,,,,,,,,,,main,1,1,2,negative,negative,j,j,1,1.024445100000321,329.29518340000004,330.31166970000004,330.2736364000002,None,329.29518340000004,None,329.29518340000004,None,329.29518340000004,None,331.3037584899999,None,331.3037584899999,None,331.3037584899999,None,,,,,,,,,,,232,19,Female,2022-06-10_14h24.08.783,Main,2022.1.1,60.001968064585746,
negative,negative,1,j,l,,,,,,,,,5,6,96,0,,,,,,,,,,,,,,,,,,,,,,,,main,1,1,1,negative,negative,j,j,1,0.8049369000000297,331.32441259999996,332.32981389999986,332.3117978,None,331.32441259999996,None,331.32441259999996,None,331.32441259999996,None,333.10910339000026,None,333.10910339000026,None,333.10910339000026,None,,,,,,,,,,,232,19,Female,2022-06-10_14h24.08.783,Main,2022.1.1,60.001968064585746,
neutral,negative,1,k,k,,,,,,,,,5,7,97,7,,,,,,,,,,,,,,,,,,,,,,,,main,2,2,1,negative,neutral,k,k,1,0.8640455999998267,333.12933380000004,334.1451712000003,334.10704810000016,None,333.12933380000004,None,333.12933380000004,None,333.12933380000004,None,334.9746588900003,None,334.9746588900003,None,334.9746588900003,None,,,,,,,,,,,232,19,Female,2022-06-10_14h24.08.783,Main,2022.1.1,60.001968064585746,
negative,neutral,2,j,l,,,,,,,,,5,8,98,12,,,,,,,,,,,,,,,,,,,,,,,,main,1,1,2,neutral,negative,j,j,1,0.8738396000003377,334.9965468999999,336.01464050000004,335.9774445000003,None,334.9965468999999,None,334.9965468999999,None,334.9965468999999,None,336.85424358999995,None,336.85424358999995,None,336.85424358999995,None,,,,,,,,,,,232,19,Female,2022-06-10_14h24.08.783,Main,2022.1.1,60.001968064585746,
positive,negative,2,l,j,,,,,,,,,5,9,99,14,,,,,,,,,,,,,,,,,,,,,,,,main,1,1,2,negative,positive,l,l,1,0.8746450999997251,336.8759178999999,337.8916617,337.85566689999996,None,336.8759178999999,None,336.8759178999999,None,336.8759178999999,None,338.7315883900001,None,338.7315883900001,None,338.7315883900001,None,,,,,,,,,,,232,19,Female,2022-06-10_14h24.08.783,Main,2022.1.1,60.001968064585746,
neutral,neutral,1,k,k,,,,,,,,,5,10,100,1,,,,,,,,,,,,,,,,,,,,,,,,main,2,2,1,neutral,neutral,k,k,1,1.0750683000001118,338.75471689999995,339.7652796000002,339.7295128999999,None,338.75471689999995,None,338.75471689999995,None,338.75471689999995,None,340.80834119000025,None,340.80834119000025,None,340.80834119000025,None,,,,,,,,,,,232,19,Female,2022-06-10_14h24.08.783,Main,2022.1.1,60.001968064585746,
positive,neutral,2,l,j,,,,,,,,,5,11,101,17,,,,,,,,,,,,,,,,,,,,,,,,main,2,2,2,neutral,positive,l,l,1,0.8372822999999698,340.82835969999996,341.84061120000024,341.803269,None,340.82835969999996,None,340.82835969999996,None,340.82835969999996,None,342.6493356900001,None,342.6493356900001,None,342.6493356900001,None,,,,,,,,,,,232,19,Female,2022-06-10_14h24.08.783,Main,2022.1.1,60.001968064585746,
neutral,negative,2,k,k,,,,,,,,,5,12,102,16,,,,,,,,,,,,,,,,,,,,,,,,main,2,2,2,negative,neutral,k,k,1,0.8095142000001943,342.67098609999994,343.6793783000003,343.6414159000001,None,342.67098609999994,None,342.67098609999994,None,342.67098609999994,None,344.4594599900002,None,344.4594599900002,None,344.4594599900002,None,,,,,,,,,,,232,19,Female,2022-06-10_14h24.08.783,Main,2022.1.1,60.001968064585746,
negative,positive,1,j,l,,,,,,,,,5,13,103,6,,,,,,,,,,,,,,,,,,,,,,,,main,2,2,1,positive,negative,j,j,1,0.8206772999997156,344.48484080000026,345.49650359999987,345.45963900000015,None,344.48484080000026,None,344.48484080000026,None,344.48484080000026,None,346.28453249,None,346.28453249,None,346.28453249,None,,,,,,,,,,,232,19,Female,2022-06-10_14h24.08.783,Main,2022.1.1,60.001968064585746,
neutral,neutral,2,k,k,,,,,,,,,5,14,104,10,,,,,,,,,,,,,,,,,,,,,,,,main,2,2,2,neutral,neutral,k,k,1,0.7711405999998533,346.30598839999993,347.306873,347.28856730000007,None,346.30598839999993,None,346.30598839999993,None,346.30598839999993,None,348.0556119900003,None,348.0556119900003,None,348.0556119900003,None,,,,,,,,,,,232,19,Female,2022-06-10_14h24.08.783,Main,2022.1.1,60.001968064585746,
negative,positive,2,j,l,,,,,,,,,5,15,105,15,,,,,,,,,,,,,,,,,,,,,,,,main,1,1,2,positive,negative,j,j,1,1.0806463000003532,348.07734789999995,349.07779630000005,349.05980390000013,None,348.07734789999995,None,348.07734789999995,None,348.07734789999995,None,350.14019059000026,None,350.14019059000026,None,350.14019059000026,None,,,,,,,,,,,232,19,Female,2022-06-10_14h24.08.783,Main,2022.1.1,60.001968064585746,
neutral,positive,2,k,k,,,,,,,,,5,16,106,13,,,,,,,,,,,,,,,,,,,,,,,,main,1,1,2,positive,neutral,k,k,1,0.7991494000002604,350.1605933999999,351.17749200000026,351.1404504000002,None,350.1605933999999,None,350.1605933999999,None,350.1605933999999,None,351.94168569000027,None,351.94168569000027,None,351.94168569000027,None,,,,,,,,,,,232,19,Female,2022-06-10_14h24.08.783,Main,2022.1.1,60.001968064585746,
positive,negative,1,l,j,,,,,,,,,5,17,107,5,,,,,,,,,,,,,,,,,,,,,,,,main,1,1,1,negative,positive,l,l,1,1.0099430000000211,351.9621801000003,352.97648200000003,352.9398056,None,351.9621801000003,None,351.9621801000003,None,351.9621801000003,None,353.95480299000025,None,353.95480299000025,None,353.95480299000025,None,,,,,,,,,,,232,19,Female,2022-06-10_14h24.08.783,Main,2022.1.1,60.001968064585746,
negative,positive,1,j,l,,,,,,,,,6,0,108,6,,,,,,,,,,,,,,,,,,,,,,,,main,2,2,1,positive,negative,j,j,1,0.7440562000001592,353.9750678999999,354.99092359999986,354.9546042000002,None,353.9750678999999,None,353.9750678999999,None,353.9750678999999,None,355.70269589000014,None,355.70269589000014,None,355.70269589000014,None,,,,,,,,,,,232,19,Female,2022-06-10_14h24.08.783,Main,2022.1.1,60.001968064585746,
positive,neutral,2,l,j,,,,,,,,,6,1,109,17,,,,,,,,,,,,,,,,,,,,,,,,main,1,1,2,neutral,positive,l,l,1,0.8118781999996827,355.7250346999999,356.7390117,356.7021539000002,None,355.7250346999999,None,355.7250346999999,None,355.7250346999999,None,357.51982759000026,None,357.51982759000026,None,357.51982759000026,None,,,,,,,,,,,232,19,Female,2022-06-10_14h24.08.783,Main,2022.1.1,60.001968064585746,
positive,neutral,1,l,j,,,,,,,,,6,2,110,8,,,,,,,,,,,,,,,,,,,,,,,,main,2,2,1,neutral,positive,l,l,1,1.2894935000003898,357.54084790000024,358.54884089999996,358.5294533000001,None,357.54084790000024,None,357.54084790000024,None,357.54084790000024,None,359.8128318899999,None,359.8128318899999,None,359.8128318899999,None,,,,,,,,,,,232,19,Female,2022-06-10_14h24.08.783,Main,2022.1.1,60.001968064585746,
neutral,negative,1,k,k,,,,,,,,,6,3,111,7,,,,,,,,,,,,,,,,,,,,,,,,main,2,2,1,negative,neutral,k,k,1,0.7696469000002253,359.83362590000024,360.8402747,360.8219085999999,None,359.83362590000024,None,359.83362590000024,None,359.83362590000024,None,361.5862652900001,None,361.5862652900001,None,361.5862652900001,None,,,,,,,,,,,232,19,Female,2022-06-10_14h24.08.783,Main,2022.1.1,60.001968064585746,
positive,positive,2,l,j,,,,,,,,,6,4,112,11,,,,,,,,,,,,,,,,,,,,,,,,main,2,2,2,positive,positive,l,l,1,0.6087514999999257,361.6074586,362.61957710000024,362.5813505000001,None,361.6074586,None,361.6074586,None,361.6074586,None,363.19926279,None,363.19926279,None,363.19926279,None,,,,,,,,,,,232,19,Female,2022-06-10_14h24.08.783,Main,2022.1.1,60.001968064585746,
negative,negative,1,j,l,,,,,,,,,6,5,113,0,,,,,,,,,,,,,,,,,,,,,,,,main,1,1,1,negative,negative,j,j,1,0.9897347999999511,363.2205447000001,364.23562679999986,364.1980278000001,None,363.2205447000001,None,363.2205447000001,None,363.2205447000001,None,365.1897634900002,None,365.1897634900002,None,365.1897634900002,None,,,,,,,,,,,232,19,Female,2022-06-10_14h24.08.783,Main,2022.1.1,60.001968064585746,
negative,neutral,1,j,l,,,,,,,,,6,6,114,3,,,,,,,,,,,,,,,,,,,,,,,,main,1,1,1,neutral,negative,j,j,1,0.7805841999997938,365.2104360000003,366.2163171000002,366.1980005999999,None,365.2104360000003,None,365.2104360000003,None,365.2104360000003,None,366.9730802899999,None,366.9730802899999,None,366.9730802899999,None,,,,,,,,,,,232,19,Female,2022-06-10_14h24.08.783,Main,2022.1.1,60.001968064585746,
neutral,neutral,2,k,k,,,,,,,,,6,7,115,10,,,,,,,,,,,,,,,,,,,,,,,,main,2,2,2,neutral,neutral,k,k,1,0.9804422000001978,366.99361690000023,368.0049543,367.96847590000016,None,366.99361690000023,None,366.99361690000023,None,366.99361690000023,None,368.95599049000026,None,368.95599049000026,None,368.95599049000026,None,,,,,,,,,,,232,19,Female,2022-06-10_14h24.08.783,Main,2022.1.1,60.001968064585746,
neutral,positive,1,k,k,,,,,,,,,6,8,116,4,,,,,,,,,,,,,,,,,,,,,,,,main,1,1,1,positive,neutral,k,k,1,0.7751711999999316,368.97742830000016,369.98971310000024,369.9536694000003,None,368.97742830000016,None,368.97742830000016,None,368.97742830000016,None,370.7336343900002,None,370.7336343900002,None,370.7336343900002,None,,,,,,,,,,,232,19,Female,2022-06-10_14h24.08.783,Main,2022.1.1,60.001968064585746,
neutral,neutral,1,k,k,,,,,,,,,6,9,117,1,,,,,,,,,,,,,,,,,,,,,,,,main,1,1,1,neutral,neutral,k,k,1,0.7306855000001633,370.7543337000002,371.7547867000003,371.73677970000017,None,370.7543337000002,None,370.7543337000002,None,370.7543337000002,None,372.4689679900003,None,372.4689679900003,None,372.4689679900003,None,,,,,,,,,,,232,19,Female,2022-06-10_14h24.08.783,Main,2022.1.1,60.001968064585746,
neutral,negative,2,k,k,,,,,,,,,6,10,118,16,,,,,,,,,,,,,,,,,,,,,,,,main,2,2,2,negative,neutral,k,k,1,0.7195175000001655,372.48953770000026,373.5050817000001,373.46884739999996,None,372.48953770000026,None,372.48953770000026,None,372.48953770000026,None,374.1919540899999,None,374.1919540899999,None,374.1919540899999,None,,,,,,,,,,,232,19,Female,2022-06-10_14h24.08.783,Main,2022.1.1,60.001968064585746,
negative,negative,2,j,l,,,,,,,,,6,11,119,9,,,,,,,,,,,,,,,,,,,,,,,,main,2,2,2,negative,negative,j,j,1,0.7441258999997444,374.2138181999999,375.22284720000016,375.1866914000002,None,374.2138181999999,None,374.2138181999999,None,374.2138181999999,None,375.93795319,None,375.93795319,None,375.93795319,None,,,,,,,,,,,232,19,Female,2022-06-10_14h24.08.783,Main,2022.1.1,60.001968064585746,
neutral,positive,2,k,k,,,,,,,,,6,12,120,13,,,,,,,,,,,,,,,,,,,,,,,,main,2,2,2,positive,neutral,k,k,1,0.7047560999999405,375.9586975000002,376.97751259999995,376.93997149999996,None,375.9586975000002,None,375.9586975000002,None,375.9586975000002,None,377.6469808900002,None,377.6469808900002,None,377.6469808900002,None,,,,,,,,,,,232,19,Female,2022-06-10_14h24.08.783,Main,2022.1.1,60.001968064585746,
negative,positive,2,j,l,,,,,,,,,6,13,121,15,,,,,,,,,,,,,,,,,,,,,,,,main,1,1,2,positive,negative,j,j,1,0.7047953000001144,377.66616250000015,378.6838695000001,378.6468454000001,None,377.66616250000015,None,377.66616250000015,None,377.66616250000015,None,379.3528848900001,None,379.3528848900001,None,379.3528848900001,None,,,,,,,,,,,232,19,Female,2022-06-10_14h24.08.783,Main,2022.1.1,60.001968064585746,
negative,neutral,2,j,l,,,,,,,,,6,14,122,12,,,,,,,,,,,,,,,,,,,,,,,,main,1,1,2,neutral,negative,j,j,1,0.7436560999999529,379.3715959000001,380.3763621000003,380.3580968000001,None,379.3715959000001,None,379.3715959000001,None,379.3715959000001,None,381.1008638900003,None,381.1008638900003,None,381.1008638900003,None,,,,,,,,,,,232,19,Female,2022-06-10_14h24.08.783,Main,2022.1.1,60.001968064585746,
positive,negative,1,l,j,,,,,,,,,6,15,123,5,,,,,,,,,,,,,,,,,,,,,,,,main,1,1,1,negative,positive,l,l,1,1.6445370000001276,381.1209514000002,382.1386719000002,382.1025791000002,None,381.1209514000002,None,381.1209514000002,None,381.1209514000002,None,383.7549429999999,None,383.7549429999999,None,383.7549429999999,None,,,,,,,,,,,232,19,Female,2022-06-10_14h24.08.783,Main,2022.1.1,60.001968064585746,
positive,positive,1,l,j,,,,,,,,,6,16,124,2,,,,,,,,,,,,,,,,,,,,,,,,main,2,2,1,positive,positive,l,l,1,0.7906032999999297,384.7725885,385.77867620000006,385.7596727,None,384.7725885,None,384.7725885,None,384.7725885,None,386.5458364900001,None,386.5458364900001,None,386.5458364900001,None,,,,,,,,,,,232,19,Female,2022-06-10_14h24.08.783,Main,2022.1.1,60.001968064585746,
positive,negative,2,l,j,,,,,,,,,6,17,125,14,,,,,,,,,,,,,,,,,,,,,,,,main,2,2,2,negative,positive,l,l,1,0.6758371000000807,386.5676115000001,387.5741406000002,387.55577070000027,None,386.5676115000001,None,386.5676115000001,None,386.5676115000001,None,388.2231648900002,None,388.2231648900002,None,388.2231648900002,None,,,,,,,,,,,232,19,Female,2022-06-10_14h24.08.783,Main,2022.1.1,60.001968064585746,
neutral,negative,2,k,k,,,,,,,,,7,0,126,16,,,,,,,,,,,,,,,,,,,,,,,,main,2,2,2,negative,neutral,k,k,1,0.714724699999806,388.2431211000003,389.2487993,389.2299802000002,None,388.2431211000003,None,388.2431211000003,None,388.2431211000003,None,389.93874108999995,None,389.93874108999995,None,389.93874108999995,None,,,,,,,,,,,232,19,Female,2022-06-10_14h24.08.783,Main,2022.1.1,60.001968064585746,
negative,negative,1,j,l,,,,,,,,,7,1,127,0,,,,,,,,,,,,,,,,,,,,,,,,main,2,2,1,negative,negative,j,j,1,0.7311016999997264,389.96389339999996,390.97554290000016,390.9391163999999,None,389.96389339999996,None,389.96389339999996,None,389.96389339999996,None,391.67380228999997,None,391.67380228999997,None,391.67380228999997,None,,,,,,,,,,,232,19,Female,2022-06-10_14h24.08.783,Main,2022.1.1,60.001968064585746,
positive,positive,1,l,j,,,,,,,,,7,2,128,2,,,,,,,,,,,,,,,,,,,,,,,,main,2,2,1,positive,positive,l,l,1,0.7379365000001599,391.6951959000003,392.70694140000023,392.68894980000005,None,391.6951959000003,None,391.6951959000003,None,391.6951959000003,None,393.41612218999995,None,393.41612218999995,None,393.41612218999995,None,,,,,,,,,,,232,19,Female,2022-06-10_14h24.08.783,Main,2022.1.1,60.001968064585746,
negative,neutral,1,j,l,,,,,,,,,7,3,129,3,,,,,,,,,,,,,,,,,,,,,,,,main,1,1,1,neutral,negative,j,j,1,0.7833380000001853,393.4361895000002,394.4398261000001,394.42156120000027,None,393.4361895000002,None,393.4361895000002,None,393.4361895000002,None,395.20204449,None,395.20204449,None,395.20204449,None,,,,,,,,,,,232,19,Female,2022-06-10_14h24.08.783,Main,2022.1.1,60.001968064585746,
neutral,negative,1,k,k,,,,,,,,,7,4,130,7,,,,,,,,,,,,,,,,,,,,,,,,main,1,1,1,negative,neutral,k,k,1,0.7633569999998144,395.22230500000023,396.23394700000017,396.19682250000005,None,395.22230500000023,None,395.22230500000023,None,395.22230500000023,None,396.9660774899999,None,396.9660774899999,None,396.9660774899999,None,,,,,,,,,,,232,19,Female,2022-06-10_14h24.08.783,Main,2022.1.1,60.001968064585746,
positive,neutral,1,l,j,,,,,,,,,7,5,131,8,,,,,,,,,,,,,,,,,,,,,,,,main,1,1,1,neutral,positive,l,l,1,0.7565844000000652,396.99113720000014,398.0062143,397.9704939000003,None,396.99113720000014,None,396.99113720000014,None,396.99113720000014,None,398.7291601900002,None,398.7291601900002,None,398.7291601900002,None,,,,,,,,,,,232,19,Female,2022-06-10_14h24.08.783,Main,2022.1.1,60.001968064585746,
negative,neutral,2,j,l,,,,,,,,,7,6,132,12,,,,,,,,,,,,,,,,,,,,,,,,main,1,1,2,neutral,negative,j,j,1,0.7153993000001719,398.74896390000004,399.7520878999999,399.73278359999995,None,398.74896390000004,None,398.74896390000004,None,398.74896390000004,None,400.4482978900001,None,400.4482978900001,None,400.4482978900001,None,,,,,,,,,,,232,19,Female,2022-06-10_14h24.08.783,Main,2022.1.1,60.001968064585746,
positive,neutral,2,l,j,,,,,,,,,7,7,133,17,,,,,,,,,,,,,,,,,,,,,,,,main,2,2,2,neutral,positive,l,l,1,0.8315206000002036,400.46891670000014,401.47669940000014,401.45699680000007,None,400.46891670000014,None,400.46891670000014,None,400.46891670000014,None,402.28214179,None,402.28214179,None,402.28214179,None,,,,,,,,,,,232,19,Female,2022-06-10_14h24.08.783,Main,2022.1.1,60.001968064585746,
negative,negative,2,j,l,,,,,,,,,7,8,134,9,,,,,,,,,,,,,,,,,,,,,,,,main,2,2,2,negative,negative,j,j,1,0.9019025999996302,402.3031199000002,403.31764440000006,403.2802236000002,None,402.3031199000002,None,402.3031199000002,None,402.3031199000002,None,404.18675648999994,None,404.18675648999994,None,404.18675648999994,None,,,,,,,,,,,232,19,Female,2022-06-10_14h24.08.783,Main,2022.1.1,60.001968064585746,
neutral,neutral,2,k,k,,,,,,,,,7,9,135,10,,,,,,,,,,,,,,,,,,,,,,,,main,2,2,2,neutral,neutral,k,k,1,0.7950614000001224,404.21031700000003,405.2133552999999,405.1945439000001,None,404.21031700000003,None,404.21031700000003,None,404.21031700000003,None,405.98476089,None,405.98476089,None,405.98476089,None,,,,,,,,,,,232,19,Female,2022-06-10_14h24.08.783,Main,2022.1.1,60.001968064585746,
neutral,positive,2,k,k,,,,,,,,,7,10,136,13,,,,,,,,,,,,,,,,,,,,,,,,main,1,1,2,positive,neutral,k,k,1,0.8574069999999665,406.0045553,407.00683860000026,406.98868600000014,None,406.0045553,None,406.0045553,None,406.0045553,None,407.84546129000006,None,407.84546129000006,None,407.84546129000006,None,,,,,,,,,,,232,19,Female,2022-06-10_14h24.08.783,Main,2022.1.1,60.001968064585746,
positive,positive,2,l,j,,,,,,,,,7,11,137,11,,,,,,,,,,,,,,,,,,,,,,,,main,2,2,2,positive,positive,l,l,1,0.8430665000000772,407.8672982000003,408.86941049999996,408.8509449000003,None,407.8672982000003,None,407.8672982000003,None,407.8672982000003,None,409.69338608999993,None,409.69338608999993,None,409.69338608999993,None,,,,,,,,,,,232,19,Female,2022-06-10_14h24.08.783,Main,2022.1.1,60.001968064585746,
positive,negative,1,l,j,,,,,,,,,7,12,138,5,,,,,,,,,,,,,,,,,,,,,,,,main,2,2,1,negative,positive,l,l,1,0.8502739999998994,409.7146200000002,410.7323389000003,410.69481270000006,None,409.7146200000002,None,409.7146200000002,None,409.7146200000002,None,411.5461453900003,None,411.5461453900003,None,411.5461453900003,None,,,,,,,,,,,232,19,Female,2022-06-10_14h24.08.783,Main,2022.1.1,60.001968064585746,
neutral,positive,1,k,k,,,,,,,,,7,13,139,4,,,,,,,,,,,,,,,,,,,,,,,,main,2,2,1,positive,neutral,k,k,1,0.8827728000001116,411.566918,412.56829449999987,412.5504065,None,411.566918,None,411.566918,None,411.566918,None,413.42997249000024,None,413.42997249000024,None,413.42997249000024,None,,,,,,,,,,,232,19,Female,2022-06-10_14h24.08.783,Main,2022.1.1,60.001968064585746,
positive,negative,2,l,j,,,,,,,,,7,14,140,14,,,,,,,,,,,,,,,,,,,,,,,,main,2,2,2,negative,positive,l,l,1,0.9262613000000783,413.45307390000016,414.4582668000003,414.4389583000002,None,413.45307390000016,None,413.45307390000016,None,413.45307390000016,None,415.36140669,None,415.36140669,None,415.36140669,None,,,,,,,,,,,232,19,Female,2022-06-10_14h24.08.783,Main,2022.1.1,60.001968064585746,
negative,positive,1,j,l,,,,,,,,,7,15,141,6,,,,,,,,,,,,,,,,,,,,,,,,main,1,1,1,positive,negative,j,j,1,0.600642699999753,415.38410650000014,416.38581410000006,416.3679084999999,None,415.38410650000014,None,415.38410650000014,None,415.38410650000014,None,416.9658604900001,None,416.9658604900001,None,416.9658604900001,None,,,,,,,,,,,232,19,Female,2022-06-10_14h24.08.783,Main,2022.1.1,60.001968064585746,
negative,positive,2,j,l,,,,,,,,,7,16,142,15,,,,,,,,,,,,,,,,,,,,,,,,main,1,1,2,positive,negative,j,j,1,0.6884350000000268,416.9884191000001,417.99144090000027,417.97174189999987,None,416.9884191000001,None,416.9884191000001,None,416.9884191000001,None,418.6605501899999,None,418.6605501899999,None,418.6605501899999,None,,,,,,,,,,,232,19,Female,2022-06-10_14h24.08.783,Main,2022.1.1,60.001968064585746,
neutral,neutral,1,k,k,,,,,,,,,7,17,143,1,,,,,,,,,,,,,,,,,,,,,,,,main,2,2,1,neutral,neutral,k,k,1,0.7308048999998391,418.6799737000001,419.6837709000001,419.6656602000003,None,418.6799737000001,None,418.6799737000001,None,418.6799737000001,None,420.3934271900003,None,420.3934271900003,None,420.3934271900003,None,,,,,,,,,,,232,19,Female,2022-06-10_14h24.08.783,Main,2022.1.1,60.001968064585746,
negative,negative,1,j,l,,,,,,,,,8,0,144,0,,,,,,,,,,,,,,,,,,,,,,,,main,2,2,1,negative,negative,j,j,1,0.7499342999999499,420.4144940000001,421.4172115000001,421.39888040000005,None,420.4144940000001,None,420.4144940000001,None,420.4144940000001,None,422.1451128899999,None,422.1451128899999,None,422.1451128899999,None,,,,,,,,,,,232,19,Female,2022-06-10_14h24.08.783,Main,2022.1.1,60.001968064585746,
neutral,neutral,1,k,k,,,,,,,,,8,1,145,1,,,,,,,,,,,,,,,,,,,,,,,,main,1,1,1,neutral,neutral,k,k,1,0.7676160000000891,422.1671716999999,423.1848250000003,423.14873160000025,None,422.1671716999999,None,422.1671716999999,None,422.1671716999999,None,423.91614319000024,None,423.91614319000024,None,423.91614319000024,None,,,,,,,,,,,232,19,Female,2022-06-10_14h24.08.783,Main,2022.1.1,60.001968064585746,
negative,negative,2,j,l,,,,,,,,,8,2,146,9,,,,,,,,,,,,,,,,,,,,,,,,main,2,2,2,negative,negative,j,j,1,1.0702311999998528,423.93688900000006,424.94043880000027,424.92024420000007,None,423.93688900000006,None,423.93688900000006,None,423.93688900000006,None,425.99140459000006,None,425.99140459000006,None,425.99140459000006,None,,,,,,,,,,,232,19,Female,2022-06-10_14h24.08.783,Main,2022.1.1,60.001968064585746,
negative,positive,1,j,l,,,,,,,,,8,3,147,6,,,,,,,,,,,,,,,,,,,,,,,,main,1,1,1,positive,negative,j,j,1,0.6886442999998508,426.01246070000025,427.0270507,426.98723400000017,None,426.01246070000025,None,426.01246070000025,None,426.01246070000025,None,427.68080388999994,None,427.68080388999994,None,427.68080388999994,None,,,,,,,,,,,232,19,Female,2022-06-10_14h24.08.783,Main,2022.1.1,60.001968064585746,
positive,negative,2,l,j,,,,,,,,,8,4,148,14,,,,,,,,,,,,,,,,,,,,,,,,main,2,2,2,negative,positive,l,l,1,0.6160168999999769,427.70102020000013,428.70341689999987,428.68539629999987,None,427.70102020000013,None,427.70102020000013,None,427.70102020000013,None,429.29901619000026,None,429.29901619000026,None,429.29901619000026,None,,,,,,,,,,,232,19,Female,2022-06-10_14h24.08.783,Main,2022.1.1,60.001968064585746,
neutral,positive,2,k,k,,,,,,,,,8,5,149,13,,,,,,,,,,,,,,,,,,,,,,,,main,2,2,2,positive,neutral,k,k,1,0.6838606000001164,429.31993330000023,430.33740560000024,430.3008976000001,None,429.31993330000023,None,429.31993330000023,None,429.31993330000023,None,430.98596059000016,None,430.98596059000016,None,430.98596059000016,None,,,,,,,,,,,232,19,Female,2022-06-10_14h24.08.783,Main,2022.1.1,60.001968064585746,
negative,neutral,2,j,l,,,,,,,,,8,6,150,12,,,,,,,,,,,,,,,,,,,,,,,,main,1,1,2,neutral,negative,j,j,1,0.8469309000001886,431.00557200000003,432.0228176999999,431.9857943000002,None,431.00557200000003,None,431.00557200000003,None,431.00557200000003,None,432.8371199900003,None,432.8371199900003,None,432.8371199900003,None,,,,,,,,,,,232,19,Female,2022-06-10_14h24.08.783,Main,2022.1.1,60.001968064585746,
negative,positive,2,j,l,,,,,,,,,8,7,151,15,,,,,,,,,,,,,,,,,,,,,,,,main,2,2,2,positive,negative,j,j,1,0.775085300000228,432.8562047999999,433.8681211000003,433.8311120000003,None,432.8562047999999,None,432.8562047999999,None,432.8562047999999,None,434.61278609000016,None,434.61278609000016,None,434.61278609000016,None,,,,,,,,,,,232,19,Female,2022-06-10_14h24.08.783,Main,2022.1.1,60.001968064585746,
neutral,positive,1,k,k,,,,,,,,,8,8,152,4,,,,,,,,,,,,,,,,,,,,,,,,main,1,1,1,positive,neutral,k,k,1,1.17674500000021,434.633597,435.6345710999999,435.61626380000007,None,434.633597,None,434.633597,None,434.633597,None,436.7935463899999,None,436.7935463899999,None,436.7935463899999,None,,,,,,,,,,,232,19,Female,2022-06-10_14h24.08.783,Main,2022.1.1,60.001968064585746,
positive,positive,2,l,j,,,,,,,,,8,9,153,11,,,,,,,,,,,,,,,,,,,,,,,,main,2,2,2,positive,positive,l,l,1,0.9974309999997786,436.8152447000002,437.8194429,437.8010594000002,None,436.8152447000002,None,436.8152447000002,None,436.8152447000002,None,438.7938183900001,None,438.7938183900001,None,438.7938183900001,None,,,,,,,,,,,232,19,Female,2022-06-10_14h24.08.783,Main,2022.1.1,60.001968064585746,
positive,neutral,1,l,j,,,,,,,,,8,10,154,8,,,,,,,,,,,,,,,,,,,,,,,,main,2,2,1,neutral,positive,l,l,1,1.321165899999869,438.8149103999999,439.8301056999999,439.79341969999996,None,438.8149103999999,None,438.8149103999999,None,438.8149103999999,None,441.1192196900002,None,441.1192196900002,None,441.1192196900002,None,,,,,,,,,,,232,19,Female,2022-06-10_14h24.08.783,Main,2022.1.1,60.001968064585746,
neutral,negative,1,k,k,,,,,,,,,8,11,155,7,,,,,,,,,,,,,,,,,,,,,,,,main,2,2,1,negative,neutral,k,k,1,0.6520631999997022,441.14239450000014,442.15532470000016,442.1180661000003,None,441.14239450000014,None,441.14239450000014,None,441.14239450000014,None,442.77424159000026,None,442.77424159000026,None,442.77424159000026,None,,,,,,,,,,,232,19,Female,2022-06-10_14h24.08.783,Main,2022.1.1,60.001968064585746,
neutral,negative,2,k,k,,,,,,,,,8,12,156,16,,,,,,,,,,,,,,,,,,,,,,,,main,2,2,2,negative,neutral,k,k,1,0.6745019999998476,442.7952934,443.80591830000003,443.7691047000003,None,442.7952934,None,442.7952934,None,442.7952934,None,444.45092209,None,444.45092209,None,444.45092209,None,,,,,,,,,,,232,19,Female,2022-06-10_14h24.08.783,Main,2022.1.1,60.001968064585746,
negative,neutral,1,j,l,,,,,,,,,8,13,157,3,,,,,,,,,,,,,,,,,,,,,,,,main,2,2,1,neutral,negative,j,j,1,0.813477299999704,444.4739936000001,445.4845138999999,445.4477084,None,444.4739936000001,None,444.4739936000001,None,444.4739936000001,None,446.26703378999997,None,446.26703378999997,None,446.26703378999997,None,,,,,,,,,,,232,19,Female,2022-06-10_14h24.08.783,Main,2022.1.1,60.001968064585746,
neutral,neutral,2,k,k,,,,,,,,,8,14,158,10,,,,,,,,,,,,,,,,,,,,,,,,main,1,1,2,neutral,neutral,k,k,1,0.737677700000404,446.29002089999994,447.300659,447.2645219000001,None,446.29002089999994,None,446.29002089999994,None,446.29002089999994,None,448.00883609,None,448.00883609,None,448.00883609,None,,,,,,,,,,,232,19,Female,2022-06-10_14h24.08.783,Main,2022.1.1,60.001968064585746,
positive,positive,1,l,j,,,,,,,,,8,15,159,2,,,,,,,,,,,,,,,,,,,,,,,,main,1,1,1,positive,positive,l,l,1,0.8433477999997194,448.0310778000003,449.03451970000015,449.01694020000014,None,448.0310778000003,None,448.0310778000003,None,448.0310778000003,None,449.85581228999996,None,449.85581228999996,None,449.85581228999996,None,,,,,,,,,,,232,19,Female,2022-06-10_14h24.08.783,Main,2022.1.1,60.001968064585746,
positive,negative,1,l,j,,,,,,,,,8,16,160,5,,,,,,,,,,,,,,,,,,,,,,,,main,1,1,1,negative,positive,l,l,1,0.7212986999998066,449.87595580000016,450.8898658000003,450.8513137,None,449.87595580000016,None,449.87595580000016,None,449.87595580000016,None,451.5789481900002,None,451.5789481900002,None,451.5789481900002,None,,,,,,,,,,,232,19,Female,2022-06-10_14h24.08.783,Main,2022.1.1,60.001968064585746,
positive,neutral,2,l,j,,,,,,,,,8,17,161,17,,,,,,,,,,,,,,,,,,,,,,,,main,1,1,2,neutral,positive,l,l,1,0.7978582999999162,451.5989149000002,452.6025651,452.58259240000007,None,451.5989149000002,None,451.5989149000002,None,451.5989149000002,None,453.37938789000015,None,453.37938789000015,None,453.37938789000015,None,,,,,,,,,,,232,19,Female,2022-06-10_14h24.08.783,Main,2022.1.1,60.001968064585746,
positive,positive,2,l,j,,,,,,,,,9,0,162,11,,,,,,,,,,,,,,,,,,,,,,,,main,2,2,2,positive,positive,l,l,1,0.3218080999999984,453.4035060000001,454.41704660000005,454.38079770000013,None,453.4035060000001,None,453.4035060000001,None,453.4035060000001,None,454.7049003900002,None,454.7049003900002,None,454.7049003900002,None,,,,,,,,,,,232,19,Female,2022-06-10_14h24.08.783,Main,2022.1.1,60.001968064585746,
neutral,positive,2,k,k,,,,,,,,,9,1,163,13,,,,,,,,,,,,,,,,,,,,,,,,main,1,1,2,positive,neutral,k,k,1,0.7210211999999956,454.72599949999994,455.73663179999994,455.6993502,None,454.72599949999994,None,454.72599949999994,None,454.72599949999994,None,456.42696858999994,None,456.42696858999994,None,456.42696858999994,None,,,,,,,,,,,232,19,Female,2022-06-10_14h24.08.783,Main,2022.1.1,60.001968064585746,
neutral,negative,1,k,k,,,,,,,,,9,2,164,7,,,,,,,,,,,,,,,,,,,,,,,,main,1,1,1,negative,neutral,k,k,1,0.6828534000001127,456.44732150000027,457.46251440000015,457.4242015,None,456.44732150000027,None,456.44732150000027,None,456.44732150000027,None,458.1123993900001,None,458.1123993900001,None,458.1123993900001,None,,,,,,,,,,,232,19,Female,2022-06-10_14h24.08.783,Main,2022.1.1,60.001968064585746,
negative,positive,1,j,l,,,,,,,,,9,3,165,6,,,,,,,,,,,,,,,,,,,,,,,,main,1,1,1,positive,negative,j,j,1,0.7356406999997489,458.1335942999999,459.1532973000003,459.11543500000016,None,458.1335942999999,None,458.1335942999999,None,458.1335942999999,None,459.85242649000025,None,459.85242649000025,None,459.85242649000025,None,,,,,,,,,,,232,19,Female,2022-06-10_14h24.08.783,Main,2022.1.1,60.001968064585746,
negative,negative,2,j,l,,,,,,,,,9,4,166,9,,,,,,,,,,,,,,,,,,,,,,,,main,2,2,2,negative,negative,j,j,1,1.2340374999998858,459.87220490000027,460.8859658000001,460.84894110000005,None,459.87220490000027,None,459.87220490000027,None,459.87220490000027,None,462.0890929900002,None,462.0890929900002,None,462.0890929900002,None,,,,,,,,,,,232,19,Female,2022-06-10_14h24.08.783,Main,2022.1.1,60.001968064585746,
neutral,neutral,2,k,k,,,,,,,,,9,5,167,10,,,,,,,,,,,,,,,,,,,,,,,,main,2,2,2,neutral,neutral,k,k,1,0.8438696000002892,462.1119262000002,463.12476830000014,463.08781880000015,None,462.1119262000002,None,462.1119262000002,None,462.1119262000002,None,463.9386707899999,None,463.9386707899999,None,463.9386707899999,None,,,,,,,,,,,232,19,Female,2022-06-10_14h24.08.783,Main,2022.1.1,60.001968064585746,
positive,negative,2,l,j,,,,,,,,,9,6,168,14,,,,,,,,,,,,,,,,,,,,,,,,main,2,2,2,negative,positive,l,l,1,0.8138804000000164,463.95890420000023,464.97289869999986,464.9354923000001,None,463.95890420000023,None,463.95890420000023,None,463.95890420000023,None,465.7568104900002,None,465.7568104900002,None,465.7568104900002,None,,,,,,,,,,,232,19,Female,2022-06-10_14h24.08.783,Main,2022.1.1,60.001968064585746,
negative,positive,2,j,l,,,,,,,,,9,7,169,15,,,,,,,,,,,,,,,,,,,,,,,,main,1,1,2,positive,negative,j,j,1,0.733308500000021,465.7776305000002,466.7961215999999,466.7591456,None,465.7776305000002,None,465.7776305000002,None,465.7776305000002,None,467.4929555899999,None,467.4929555899999,None,467.4929555899999,None,,,,,,,,,,,232,19,Female,2022-06-10_14h24.08.783,Main,2022.1.1,60.001968064585746,
positive,negative,1,l,j,,,,,,,,,9,8,170,5,,,,,,,,,,,,,,,,,,,,,,,,main,2,2,1,negative,positive,l,l,1,0.9963129000002482,467.5146886000002,468.5275408000002,468.49024099999997,None,467.5146886000002,None,467.5146886000002,None,467.5146886000002,None,469.49184479,None,469.49184479,None,469.49184479,None,,,,,,,,,,,232,19,Female,2022-06-10_14h24.08.783,Main,2022.1.1,60.001968064585746,
positive,positive,1,l,j,,,,,,,,,9,9,171,2,,,,,,,,,,,,,,,,,,,,,,,,main,2,2,1,positive,positive,l,l,1,0.662758599999961,469.5131987,470.5184333000002,470.4993456000002,None,469.5131987,None,469.5131987,None,469.5131987,None,471.15716578999996,None,471.15716578999996,None,471.15716578999996,None,,,,,,,,,,,232,19,Female,2022-06-10_14h24.08.783,Main,2022.1.1,60.001968064585746,
negative,negative,1,j,l,,,,,,,,,9,10,172,0,,,,,,,,,,,,,,,,,,,,,,,,main,2,2,1,negative,negative,j,j,1,0.7379713000000265,471.17769580000004,472.1926556000003,472.15576120000014,None,471.17769580000004,None,471.17769580000004,None,471.17769580000004,None,472.8972296900002,None,472.8972296900002,None,472.8972296900002,None,,,,,,,,,,,232,19,Female,2022-06-10_14h24.08.783,Main,2022.1.1,60.001968064585746,
positive,neutral,2,l,j,,,,,,,,,9,11,173,17,,,,,,,,,,,,,,,,,,,,,,,,main,2,2,2,neutral,positive,l,l,1,0.7599386000001687,472.92099940000026,473.93834700000025,473.90084430000024,None,472.92099940000026,None,472.92099940000026,None,472.92099940000026,None,474.6595658900001,None,474.6595658900001,None,474.6595658900001,None,,,,,,,,,,,232,19,Female,2022-06-10_14h24.08.783,Main,2022.1.1,60.001968064585746,
positive,neutral,1,l,j,,,,,,,,,9,12,174,8,,,,,,,,,,,,,,,,,,,,,,,,main,1,1,1,neutral,positive,l,l,1,0.9566666000000623,474.6844494000002,475.6907538999999,475.6720945000002,None,474.6844494000002,None,474.6844494000002,None,474.6844494000002,None,476.61980099,None,476.61980099,None,476.61980099,None,,,,,,,,,,,232,19,Female,2022-06-10_14h24.08.783,Main,2022.1.1,60.001968064585746,
neutral,neutral,1,k,k,,,,,,,,,9,13,175,1,,,,,,,,,,,,,,,,,,,,,,,,main,2,2,1,neutral,neutral,k,k,1,0.8757727000001978,476.65096040000026,477.6625941000002,477.62617679999994,None,476.65096040000026,None,476.65096040000026,None,476.65096040000026,None,478.5025767900002,None,478.5025767900002,None,478.5025767900002,None,,,,,,,,,,,232,19,Female,2022-06-10_14h24.08.783,Main,2022.1.1,60.001968064585746,
negative,neutral,2,j,l,,,,,,,,,9,14,176,12,,,,,,,,,,,,,,,,,,,,,,,,main,1,1,2,neutral,negative,j,j,1,0.7716945000001942,478.5237962000001,479.5419955000002,479.50527650000004,None,478.5237962000001,None,478.5237962000001,None,478.5237962000001,None,480.27540029000016,None,480.27540029000016,None,480.27540029000016,None,,,,,,,,,,,232,19,Female,2022-06-10_14h24.08.783,Main,2022.1.1,60.001968064585746,
neutral,positive,1,k,k,,,,,,,,,9,15,177,4,,,,,,,,,,,,,,,,,,,,,,,,main,2,2,1,positive,neutral,k,k,1,1.050250600000254,480.29658169999993,481.30648250000013,481.26898389999997,None,480.29658169999993,None,480.29658169999993,None,480.29658169999993,None,482.32958659,None,482.32958659,None,482.32958659,None,,,,,,,,,,,232,19,Female,2022-06-10_14h24.08.783,Main,2022.1.1,60.001968064585746,
neutral,negative,2,k,k,,,,,,,,,9,16,178,16,,,,,,,,,,,,,,,,,,,,,,,,main,2,2,2,negative,neutral,k,k,1,0.7380283000002237,482.3540347000003,483.3634006000002,483.3273199,None,482.3540347000003,None,482.3540347000003,None,482.3540347000003,None,484.0709733899999,None,484.0709733899999,None,484.0709733899999,None,,,,,,,,,,,232,19,Female,2022-06-10_14h24.08.783,Main,2022.1.1,60.001968064585746,
negative,neutral,1,j,l,,,,,,,,,9,17,179,3,,,,,,,,,,,,,,,,,,,,,,,,main,2,2,1,neutral,negative,j,j,1,1.1775384000002305,484.0917703,485.1040747000002,485.0665420999999,None,484.0917703,None,484.0917703,None,484.0917703,None,486.25288349,None,486.25288349,None,486.25288349,None,,,,,,,,,,,232,19,Female,2022-06-10_14h24.08.783,Main,2022.1.1,60.001968064585746,
neutral,neutral,1,k,k,,,,,,,,,10,0,180,1,,,,,,,,,,,,,,,,,,,,,,,,main,2,2,1,neutral,neutral,k,k,1,0.6832794000001741,486.27330500000016,487.2906966999999,487.25366269999995,None,486.27330500000016,None,486.27330500000016,None,486.27330500000016,None,487.93912039,None,487.93912039,None,487.93912039,None,,,,,,,,,,,232,19,Female,2022-06-10_14h24.08.783,Main,2022.1.1,60.001968064585746,
positive,negative,2,l,j,,,,,,,,,10,1,181,14,,,,,,,,,,,,,,,,,,,,,,,,main,2,2,2,negative,positive,l,l,1,0.675873700000011,487.9592934000002,488.9657615000001,488.9468092000002,None,487.9592934000002,None,487.9592934000002,None,487.9592934000002,None,489.61862978999994,None,489.61862978999994,None,489.61862978999994,None,,,,,,,,,,,232,19,Female,2022-06-10_14h24.08.783,Main,2022.1.1,60.001968064585746,
neutral,negative,1,k,k,,,,,,,,,10,2,182,7,,,,,,,,,,,,,,,,,,,,,,,,main,2,2,1,negative,neutral,k,k,1,0.9034323000000768,489.6391613999999,490.6457009999999,490.6274069000001,None,489.6391613999999,None,489.6391613999999,None,489.6391613999999,None,491.52528019000016,None,491.52528019000016,None,491.52528019000016,None,,,,,,,,,,,232,19,Female,2022-06-10_14h24.08.783,Main,2022.1.1,60.001968064585746,
positive,positive,1,l,j,,,,,,,,,10,3,183,2,,,,,,,,,,,,,,,,,,,,,,,,main,2,2,1,positive,positive,l,l,1,0.7692561000003479,491.5486372999999,492.5593165999999,492.5216263000002,None,491.5486372999999,None,491.5486372999999,None,491.5486372999999,None,493.2985022900003,None,493.2985022900003,None,493.2985022900003,None,,,,,,,,,,,232,19,Female,2022-06-10_14h24.08.783,Main,2022.1.1,60.001968064585746,
neutral,positive,2,k,k,,,,,,,,,10,4,184,13,,,,,,,,,,,,,,,,,,,,,,,,main,2,2,2,positive,neutral,k,k,1,0.7128550000002178,493.32081879999987,494.3319340000003,494.29356880000023,None,493.32081879999987,None,493.32081879999987,None,493.32081879999987,None,495.01399309000004,None,495.01399309000004,None,495.01399309000004,None,,,,,,,,,,,232,19,Female,2022-06-10_14h24.08.783,Main,2022.1.1,60.001968064585746,
negative,negative,2,j,l,,,,,,,,,10,5,185,9,,,,,,,,,,,,,,,,,,,,,,,,main,2,2,2,negative,negative,j,j,1,0.7568537000001925,495.03325570000015,496.03929000000016,496.0210135000002,None,495.03325570000015,None,495.03325570000015,None,495.03325570000015,None,496.77211459000006,None,496.77211459000006,None,496.77211459000006,None,,,,,,,,,,,232,19,Female,2022-06-10_14h24.08.783,Main,2022.1.1,60.001968064585746,
negative,neutral,2,j,l,,,,,,,,,10,6,186,12,,,,,,,,,,,,,,,,,,,,,,,,main,1,1,2,neutral,negative,j,j,1,0.6781307999999626,496.7934190000001,497.8092550000001,497.77251479999995,None,496.7934190000001,None,496.7934190000001,None,496.7934190000001,None,498.4530655899999,None,498.4530655899999,None,498.4530655899999,None,,,,,,,,,,,232,19,Female,2022-06-10_14h24.08.783,Main,2022.1.1,60.001968064585746,
positive,positive,2,l,j,,,,,,,,,10,7,187,11,,,,,,,,,,,,,,,,,,,,,,,,main,2,2,2,positive,positive,l,l,1,0.7808064000000741,498.47342930000013,499.4755989,499.457484,None,498.47342930000013,None,498.47342930000013,None,498.47342930000013,None,500.23600799,None,500.23600799,None,500.23600799,None,,,,,,,,,,,232,19,Female,2022-06-10_14h24.08.783,Main,2022.1.1,60.001968064585746,
positive,neutral,1,l,j,,,,,,,,,10,8,188,8,,,,,,,,,,,,,,,,,,,,,,,,main,1,1,1,neutral,positive,l,l,1,0.6376235000002453,500.25736480000023,501.2737083000002,501.23796660000016,None,500.25736480000023,None,500.25736480000023,None,500.25736480000023,None,501.87697439000027,None,501.87697439000027,None,501.87697439000027,None,,,,,,,,,,,232,19,Female,2022-06-10_14h24.08.783,Main,2022.1.1,60.001968064585746,
neutral,negative,2,k,k,,,,,,,,,10,9,189,16,,,,,,,,,,,,,,,,,,,,,,,,main,2,2,2,negative,neutral,k,k,1,0.5795333999999457,501.8963521999999,502.90516960000014,502.86928020000005,None,501.8963521999999,None,501.8963521999999,None,501.8963521999999,None,503.46065829000014,None,503.46065829000014,None,503.46065829000014,None,,,,,,,,,,,232,19,Female,2022-06-10_14h24.08.783,Main,2022.1.1,60.001968064585746,
negative,negative,1,j,l,,,,,,,,,10,10,190,0,,,,,,,,,,,,,,,,,,,,,,,,main,1,1,1,negative,negative,j,j,1,0.7838215000001583,503.47962340000004,504.4820058999999,504.46362640000007,None,503.47962340000004,None,503.47962340000004,None,503.47962340000004,None,505.2467375900001,None,505.2467375900001,None,505.2467375900001,None,,,,,,,,,,,232,19,Female,2022-06-10_14h24.08.783,Main,2022.1.1,60.001968064585746,
positive,negative,1,l,j,,,,,,,,,10,11,191,5,,,,,,,,,,,,,,,,,,,,,,,,main,1,1,1,negative,positive,l,l,1,1.6348825000000033,505.2690550000002,506.27291160000004,506.25482310000007,None,505.2690550000002,None,505.2690550000002,None,505.2690550000002,None,507.88911210000015,None,507.88911210000015,None,507.88911210000015,None,,,,,,,,,,,232,19,Female,2022-06-10_14h24.08.783,Main,2022.1.1,60.001968064585746,
negative,positive,1,j,l,,,,,,,,,10,12,192,6,,,,,,,,,,,,,,,,,,,,,,,,main,2,2,1,positive,negative,j,j,1,0.8145251000000826,508.9066723000001,509.9087778000003,509.89072220000025,None,508.9066723000001,None,508.9066723000001,None,508.9066723000001,None,510.70302879000025,None,510.70302879000025,None,510.70302879000025,None,,,,,,,,,,,232,19,Female,2022-06-10_14h24.08.783,Main,2022.1.1,60.001968064585746,
neutral,neutral,2,k,k,,,,,,,,,10,13,193,10,,,,,,,,,,,,,,,,,,,,,,,,main,1,1,2,neutral,neutral,k,k,1,0.7447433000002093,510.7318411000001,511.7431510000001,511.70568300000014,None,510.7318411000001,None,510.7318411000001,None,510.7318411000001,None,512.4511418900001,None,512.4511418900001,None,512.4511418900001,None,,,,,,,,,,,232,19,Female,2022-06-10_14h24.08.783,Main,2022.1.1,60.001968064585746,
negative,neutral,1,j,l,,,,,,,,,10,14,194,3,,,,,,,,,,,,,,,,,,,,,,,,main,1,1,1,neutral,negative,j,j,1,0.7187039000000368,512.4708524000002,513.4866505,513.4502707000001,None,512.4708524000002,None,512.4708524000002,None,512.4708524000002,None,514.1712025900001,None,514.1712025900001,None,514.1712025900001,None,,,,,,,,,,,232,19,Female,2022-06-10_14h24.08.783,Main,2022.1.1,60.001968064585746,
positive,neutral,2,l,j,,,,,,,,,10,15,195,17,,,,,,,,,,,,,,,,,,,,,,,,main,2,2,2,neutral,positive,l,l,1,0.639160499999889,514.1937462000001,515.2020818999999,515.1839551000003,None,514.1937462000001,None,514.1937462000001,None,514.1937462000001,None,515.8159176899999,None,515.8159176899999,None,515.8159176899999,None,,,,,,,,,,,232,19,Female,2022-06-10_14h24.08.783,Main,2022.1.1,60.001968064585746,
neutral,positive,1,k,k,,,,,,,,,10,16,196,4,,,,,,,,,,,,,,,,,,,,,,,,main,2,2,1,positive,neutral,k,k,1,0.7035410999997112,515.8377577000001,516.8469731999999,516.8247661999999,None,515.8377577000001,None,515.8377577000001,None,515.8377577000001,None,517.5211956900002,None,517.5211956900002,None,517.5211956900002,None,,,,,,,,,,,232,19,Female,2022-06-10_14h24.08.783,Main,2022.1.1,60.001968064585746,
negative,positive,2,j,l,,,,,,,,,10,17,197,15,,,,,,,,,,,,,,,,,,,,,,,,main,2,2,2,positive,negative,j,j,1,0.7262249000000338,517.5463573000002,518.5580782000002,518.5219514,None,517.5463573000002,None,517.5463573000002,None,517.5463573000002,None,519.2518376900002,None,519.2518376900002,None,519.2518376900002,None,,,,,,,,,,,232,19,Female,2022-06-10_14h24.08.783,Main,2022.1.1,60.001968064585746,
positive,neutral,1,l,j,,,,,,,,,11,0,198,8,,,,,,,,,,,,,,,,,,,,,,,,main,2,2,1,neutral,positive,l,l,1,0.7280046000000766,519.2720529000003,520.2783450000002,520.2586065999999,None,519.2720529000003,None,519.2720529000003,None,519.2720529000003,None,520.98363509,None,520.98363509,None,520.98363509,None,,,,,,,,,,,232,19,Female,2022-06-10_14h24.08.783,Main,2022.1.1,60.001968064585746,
neutral,neutral,1,k,k,,,,,,,,,11,1,199,1,,,,,,,,,,,,,,,,,,,,,,,,main,1,1,1,neutral,neutral,k,k,1,0.6865950999999768,521.0056680000002,522.0222936,521.9856439999999,None,521.0056680000002,None,521.0056680000002,None,521.0056680000002,None,522.6723143899999,None,522.6723143899999,None,522.6723143899999,None,,,,,,,,,,,232,19,Female,2022-06-10_14h24.08.783,Main,2022.1.1,60.001968064585746,
negative,neutral,2,j,l,,,,,,,,,11,2,200,12,,,,,,,,,,,,,,,,,,,,,,,,main,2,2,2,neutral,negative,j,j,1,0.7492459000000053,522.6965039000002,523.7023016000003,523.6829923999999,None,522.6965039000002,None,522.6965039000002,None,522.6965039000002,None,524.42619749,None,524.42619749,None,524.42619749,None,,,,,,,,,,,232,19,Female,2022-06-10_14h24.08.783,Main,2022.1.1,60.001968064585746,
neutral,positive,1,k,k,,,,,,,,,11,3,201,4,,,,,,,,,,,,,,,,,,,,,,,,main,2,2,1,positive,neutral,k,k,1,0.6576230000000578,524.4482987000001,525.4567287,525.4198526999999,None,524.4482987000001,None,524.4482987000001,None,524.4482987000001,None,526.0844589900003,None,526.0844589900003,None,526.0844589900003,None,,,,,,,,,,,232,19,Female,2022-06-10_14h24.08.783,Main,2022.1.1,60.001968064585746,
positive,positive,2,l,j,,,,,,,,,11,4,202,11,,,,,,,,,,,,,,,,,,,,,,,,main,1,1,2,positive,positive,l,l,1,0.559494800000266,526.1050347,527.1229547000003,527.0868669000001,None,526.1050347,None,526.1050347,None,526.1050347,None,527.6480344900001,None,527.6480344900001,None,527.6480344900001,None,,,,,,,,,,,232,19,Female,2022-06-10_14h24.08.783,Main,2022.1.1,60.001968064585746,
neutral,neutral,2,k,k,,,,,,,,,11,5,203,10,,,,,,,,,,,,,,,,,,,,,,,,main,2,2,2,neutral,neutral,k,k,1,0.7260467999999491,527.6682696000003,528.6771564999999,528.6578998,None,527.6682696000003,None,527.6682696000003,None,527.6682696000003,None,529.3788733900001,None,529.3788733900001,None,529.3788733900001,None,,,,,,,,,,,232,19,Female,2022-06-10_14h24.08.783,Main,2022.1.1,60.001968064585746,
neutral,negative,2,k,k,,,,,,,,,11,6,204,16,,,,,,,,,,,,,,,,,,,,,,,,main,2,2,2,negative,neutral,k,k,1,1.188418499999898,529.3993319000001,530.4021529000001,530.3841133999999,None,529.3993319000001,None,529.3993319000001,None,529.3993319000001,None,531.5679873899999,None,531.5679873899999,None,531.5679873899999,None,,,,,,,,,,,232,19,Female,2022-06-10_14h24.08.783,Main,2022.1.1,60.001968064585746,
negative,positive,1,j,l,,,,,,,,,11,7,205,6,,,,,,,,,,,,,,,,,,,,,,,,main,1,1,1,positive,negative,j,j,1,0.7042535999999018,531.5903971000002,532.6011973,532.5647133000002,None,531.5903971000002,None,531.5903971000002,None,531.5903971000002,None,533.27768109,None,533.27768109,None,533.27768109,None,,,,,,,,,,,232,19,Female,2022-06-10_14h24.08.783,Main,2022.1.1,60.001968064585746,
negative,positive,2,j,l,,,,,,,,,11,8,206,15,,,,,,,,,,,,,,,,,,,,,,,,main,2,2,2,positive,negative,j,j,1,1.467012000000068,533.2987496000001,534.3121787999999,534.2744388000001,None,533.2987496000001,None,533.2987496000001,None,533.2987496000001,None,535.74754919,None,535.74754919,None,535.74754919,None,,,,,,,,,,,232,19,Female,2022-06-10_14h24.08.783,Main,2022.1.1,60.001968064585746,
neutral,positive,2,k,k,,,,,,,,,11,9,207,13,,,,,,,,,,,,,,,,,,,,,,,,main,2,2,2,positive,neutral,k,k,1,0.8506596999995963,535.7685595000003,536.7768675000002,536.7565099000003,None,535.7685595000003,None,535.7685595000003,None,535.7685595000003,None,537.6001266900003,None,537.6001266900003,None,537.6001266900003,None,,,,,,,,,,,232,19,Female,2022-06-10_14h24.08.783,Main,2022.1.1,60.001968064585746,
positive,positive,1,l,j,,,,,,,,,11,10,208,2,,,,,,,,,,,,,,,,,,,,,,,,main,2,2,1,positive,positive,l,l,1,0.8252456000000166,537.6217513000001,538.6273646,538.6091861,None,537.6217513000001,None,537.6217513000001,None,537.6217513000001,None,539.4304448900002,None,539.4304448900002,None,539.4304448900002,None,,,,,,,,,,,232,19,Female,2022-06-10_14h24.08.783,Main,2022.1.1,60.001968064585746,
negative,negative,2,j,l,,,,,,,,,11,11,209,9,,,,,,,,,,,,,,,,,,,,,,,,main,1,1,2,negative,negative,j,j,1,1.504232399999637,539.4511403000001,540.4643048000003,540.4273238999999,None,539.4511403000001,None,539.4511403000001,None,539.4511403000001,None,541.9438981000003,None,541.9438981000003,None,541.9438981000003,None,,,,,,,,,,,232,19,Female,2022-06-10_14h24.08.783,Main,2022.1.1,60.001968064585746,
positive,neutral,2,l,j,,,,,,,,,11,12,210,17,,,,,,,,,,,,,,,,,,,,,,,,main,2,2,2,neutral,positive,l,l,1,0.8408197999997356,542.9697590999999,543.9878291,543.9512072000002,None,542.9697590999999,None,542.9697590999999,None,542.9697590999999,None,544.7932875900001,None,544.7932875900001,None,544.7932875900001,None,,,,,,,,,,,232,19,Female,2022-06-10_14h24.08.783,Main,2022.1.1,60.001968064585746,
