target,distractor,set,ans1,ans2,rep_loop2.thisRepN,rep_loop2.thisTrialN,rep_loop2.thisN,rep_loop2.thisIndex,flanker_prac_loop.thisRepN,flanker_prac_loop.thisTrialN,flanker_prac_loop.thisN,flanker_prac_loop.thisIndex,flanker_main_loop.thisRepN,flanker_main_loop.thisTrialN,flanker_main_loop.thisN,flanker_main_loop.thisIndex,fl_inst_resp.keys,mouse.x,mouse.y,mouse.leftButton,mouse.midButton,mouse.rightButton,mouse.started,mouse.stopped,sound_1.started,sound_1.stopped,no_text.started,no_text.stopped,yes_text.started,yes_text.stopped,mouse_2.x,mouse_2.y,mouse_2.leftButton,mouse_2.midButton,mouse_2.rightButton,mouse_2.started,mouse_2.stopped,back_2.started,back_2.stopped,main_prac,fl_cold,fl_colt,fl_set,fl_dcond,fl_tcond,fl_ans,fl_res,fl_corr,fl_rt,fix_fl.started,fix_fl.stopped,targ.started,targ.stopped,j_button.started,j_button.stopped,k_button.started,k_button.stopped,l_button.started,l_button.stopped,j_button2.started,j_button2.stopped,k_button2.started,k_button2.stopped,l_button2.started,l_button2.stopped,mainback.started,mainback.stopped,key_resp.keys,mouse_6.x,mouse_6.y,mouse_6.leftButton,mouse_6.midButton,mouse_6.rightButton,mouse_6.started,mouse_6.stopped,id*,age*,gender*,date,expName,psychopyVersion,frameRate,
,,,,,0,0,0,0,,,,,,,,,None,0.46944445,-0.40833333,0,0,0,1.0136325999701512,None,20.254444469999726,None,70.79934589999993,None,70.79934589999993,None,-0.10555556,-0.075,0,0,0,0.012097369999537477,None,,,,,,,,,,,,,,,,,,,,,,,,,,,,,,,,,,,,,,,233,28,Female,2022-06-13_18h20.34.327,Main,2022.1.1,60.01035778781126,
neutral,negative,1,k,k,,,,,0,0,0,7,,,,,,,,,,,,,,,,,,,,,,,,,,74.63032939999994,None,prac,2,2,1,negative,neutral,k,k,1,1.331551700000091,76.68936039999971,77.69668490000004,77.67549500000041,None,76.68936039999971,None,76.68936039999971,None,76.68936039999971,None,78.98049996999998,None,78.98049996999998,None,78.98049996999998,None,,,,,,,,,,,233,28,Female,2022-06-13_18h20.34.327,Main,2022.1.1,60.01035778781126,
positive,negative,1,l,j,,,,,0,1,1,5,,,,,,,,,,,,,,,,,,,,,,,,,,,,prac,2,2,1,negative,positive,j,j,1,1.1728422999995018,79.01708130000043,80.02210509999986,80.00220640000043,None,79.01708130000043,None,79.01708130000043,None,79.01708130000043,None,81.15470236999954,None,81.15470236999954,None,81.15470236999954,None,,,,,,,,,,,233,28,Female,2022-06-13_18h20.34.327,Main,2022.1.1,60.01035778781126,
neutral,negative,2,k,k,,,,,0,2,2,16,,,,,,,,,,,,,,,,,,,,,,,,,,,,prac,2,2,2,negative,neutral,k,k,1,0.9966023999995741,81.20057309999993,82.2036251999998,82.18332519999967,None,81.20057309999993,None,81.20057309999993,None,81.20057309999993,None,83.1547523700001,None,83.1547523700001,None,83.1547523700001,None,,,,,,,,,,,233,28,Female,2022-06-13_18h20.34.327,Main,2022.1.1,60.01035778781126,
neutral,positive,2,k,k,,,,,0,3,3,13,,,,,,,,,,,,,,,,,,,,,,,,,,,,prac,1,1,2,positive,neutral,k,k,1,0.768696899999668,83.19857010000032,84.20669069999985,84.16823680000016,None,83.19857010000032,None,83.19857010000032,None,83.19857010000032,None,84.92851956999948,None,84.92851956999948,None,84.92851956999948,None,,,,,,,,,,,233,28,Female,2022-06-13_18h20.34.327,Main,2022.1.1,60.01035778781126,
neutral,positive,1,k,k,,,,,0,4,4,4,,,,,,,,,,,,,,,,,,,,,,,,,,,,prac,2,2,1,positive,neutral,k,k,1,1.0126167000007626,84.96178830000008,85.98449660000006,85.96269070000017,None,84.96178830000008,None,84.96178830000008,None,84.96178830000008,None,86.9376739700001,None,86.9376739700001,None,86.9376739700001,None,,,,,,,,,,,233,28,Female,2022-06-13_18h20.34.327,Main,2022.1.1,60.01035778781126,
negative,positive,1,j,l,,,,,0,5,5,6,,,,,,,,,,,,,,,,,,,,,,,,,,,,prac,2,2,1,positive,negative,l,k,0,1.1115040000004228,86.96154070000011,87.98197410000012,87.93996309999966,None,86.96154070000011,None,86.96154070000011,None,86.96154070000011,None,89.07103449999977,None,89.07103449999977,None,89.07103449999977,None,,,,,,,,,,,233,28,Female,2022-06-13_18h20.34.327,Main,2022.1.1,60.01035778781126,
positive,neutral,1,l,j,,,,,0,6,6,8,,,,,,,,,,,,,,,,,,,,,,,,,,,,prac,1,1,1,neutral,positive,j,j,1,0.8844567000005554,90.11252799999966,91.12830440000016,91.08825770000021,None,90.11252799999966,None,90.11252799999966,None,90.11252799999966,None,91.95377296999959,None,91.95377296999959,None,91.95377296999959,None,,,,,,,,,,,233,28,Female,2022-06-13_18h20.34.327,Main,2022.1.1,60.01035778781126,
positive,positive,2,l,j,,,,,0,7,7,11,,,,,,,,,,,,,,,,,,,,,,,,,,,,prac,2,2,2,positive,positive,j,j,1,1.476538499999151,91.99377339999955,93.01540329999989,92.9738895999999,None,91.99377339999955,None,91.99377339999955,None,91.99377339999955,None,94.4328853699999,None,94.4328853699999,None,94.4328853699999,None,,,,,,,,,,,233,28,Female,2022-06-13_18h20.34.327,Main,2022.1.1,60.01035778781126,
neutral,neutral,1,k,k,,,,,0,8,8,1,,,,,,,,,,,,,,,,,,,,,,,,,,,,prac,2,2,1,neutral,neutral,k,k,1,0.8639196999993146,94.46527950000018,95.47325439999986,95.45177260000037,None,94.46527950000018,None,94.46527950000018,None,94.46527950000018,None,96.29975557000034,None,96.29975557000034,None,96.29975557000034,None,,,,,,,,,,,233,28,Female,2022-06-13_18h20.34.327,Main,2022.1.1,60.01035778781126,
positive,neutral,2,l,j,,,,,0,9,9,17,,,,,,,,,,,,,,,,,,,,,,,,,,,,prac,2,2,2,neutral,positive,j,j,1,0.8807725999995455,96.3248481999999,97.33795910000026,97.31853010000032,None,96.3248481999999,None,96.3248481999999,None,96.3248481999999,None,98.18271877000006,None,98.18271877000006,None,98.18271877000006,None,,,,,,,,,,,233,28,Female,2022-06-13_18h20.34.327,Main,2022.1.1,60.01035778781126,
negative,neutral,2,j,l,,,,,0,10,10,12,,,,,,,,,,,,,,,,,,,,,,,,,,,,prac,2,2,2,neutral,negative,l,l,1,0.8459290000000692,98.20465849999982,99.20616940000036,99.18949280000015,None,98.20465849999982,None,98.20465849999982,None,98.20465849999982,None,100.03166977000001,None,100.03166977000001,None,100.03166977000001,None,,,,,,,,,,,233,28,Female,2022-06-13_18h20.34.327,Main,2022.1.1,60.01035778781126,
positive,positive,1,l,j,,,,,0,11,11,2,,,,,,,,,,,,,,,,,,,,,,,,,,,,prac,2,2,1,positive,positive,j,j,1,0.8818529999998646,100.05336230000012,101.06540620000033,101.04402149999987,None,100.05336230000012,None,100.05336230000012,None,100.05336230000012,None,101.9161607699998,None,101.9161607699998,None,101.9161607699998,None,,,,,,,,,,,233,28,Female,2022-06-13_18h20.34.327,Main,2022.1.1,60.01035778781126,
negative,negative,2,j,l,,,,,0,12,12,9,,,,,,,,,,,,,,,,,,,,,,,,,,,,prac,2,2,2,negative,negative,l,l,1,0.8670505999998568,101.9363016999996,102.93957210000008,102.92000399999961,None,101.9363016999996,None,101.9363016999996,None,101.9363016999996,None,103.78510267000001,None,103.78510267000001,None,103.78510267000001,None,,,,,,,,,,,233,28,Female,2022-06-13_18h20.34.327,Main,2022.1.1,60.01035778781126,
negative,neutral,1,j,l,,,,,0,13,13,3,,,,,,,,,,,,,,,,,,,,,,,,,,,,prac,2,2,1,neutral,negative,l,l,1,0.7288149000005433,103.80741920000037,104.83052580000003,104.7882083000004,None,103.80741920000037,None,103.80741920000037,None,103.80741920000037,None,105.51715426999999,None,105.51715426999999,None,105.51715426999999,None,,,,,,,,,,,233,28,Female,2022-06-13_18h20.34.327,Main,2022.1.1,60.01035778781126,
negative,positive,2,j,l,,,,,0,14,14,15,,,,,,,,,,,,,,,,,,,,,,,,,,,,prac,1,1,2,positive,negative,l,l,1,0.7168750000000728,105.55179719999978,106.57200730000022,106.55255920000036,None,105.55179719999978,None,105.55179719999978,None,105.55179719999978,None,107.23892797000008,None,107.23892797000008,None,107.23892797000008,None,,,,,,,,,,,233,28,Female,2022-06-13_18h20.34.327,Main,2022.1.1,60.01035778781126,
positive,negative,2,l,j,,,,,0,15,15,14,,,,,,,,,,,,,,,,,,,,,,,,,,,,prac,1,1,2,negative,positive,j,j,1,0.9209395999996559,107.26980590000039,108.27268749999985,108.27268749999985,None,107.26980590000039,None,107.26980590000039,None,107.26980590000039,None,109.16186186999948,None,109.16186186999948,None,109.16186186999948,None,,,,,,,,,,,233,28,Female,2022-06-13_18h20.34.327,Main,2022.1.1,60.01035778781126,
negative,negative,1,j,l,,,,,0,16,16,0,,,,,,,,,,,,,,,,,,,,,,,,,,,,prac,2,2,1,negative,negative,l,l,1,0.7370200000004843,109.18391770000017,110.1890911999999,110.17004160000033,None,109.18391770000017,None,109.18391770000017,None,109.18391770000017,None,110.90133766999952,None,110.90133766999952,None,110.90133766999952,None,,,,,,,,,,,233,28,Female,2022-06-13_18h20.34.327,Main,2022.1.1,60.01035778781126,
neutral,neutral,2,k,k,,,,,0,17,17,10,,,,,,,,,,,,,,,,,,,,,,,,,,,,prac,1,1,2,neutral,neutral,k,k,1,1.1025783999994019,110.93422639999972,111.93799969999964,111.91850559999966,None,110.93422639999972,None,110.93422639999972,None,110.93422639999972,None,113.00904506999996,None,113.00904506999996,None,113.00904506999996,None,,,,,,,,,,,233,28,Female,2022-06-13_18h20.34.327,Main,2022.1.1,60.01035778781126,
neutral,negative,1,k,k,,,,,1,0,18,7,,,,,,,,,,,,,,,,,,,,,,,,,,,,prac,2,2,1,negative,neutral,k,k,1,0.8567174999998315,113.03303340000002,114.03839750000043,114.01899020000019,None,113.03303340000002,None,113.03303340000002,None,113.03303340000002,None,114.87019407000025,None,114.87019407000025,None,114.87019407000025,None,,,,,,,,,,,233,28,Female,2022-06-13_18h20.34.327,Main,2022.1.1,60.01035778781126,
positive,positive,1,l,j,,,,,1,1,19,2,,,,,,,,,,,,,,,,,,,,,,,,,,,,prac,1,1,1,positive,positive,j,j,1,1.1428373999997348,114.90043289999994,115.90318550000029,115.8836024000002,None,114.90043289999994,None,114.90043289999994,None,114.90043289999994,None,117.01309457000025,None,117.01309457000025,None,117.01309457000025,None,,,,,,,,,,,233,28,Female,2022-06-13_18h20.34.327,Main,2022.1.1,60.01035778781126,
neutral,positive,1,k,k,,,,,1,2,20,4,,,,,,,,,,,,,,,,,,,,,,,,,,,,prac,2,2,1,positive,neutral,k,k,1,1.1055907999998453,117.03510670000014,118.05397520000042,118.01444919999994,None,117.03510670000014,None,117.03510670000014,None,117.03510670000014,None,119.12280197000018,None,119.12280197000018,None,119.12280197000018,None,,,,,,,,,,,233,28,Female,2022-06-13_18h20.34.327,Main,2022.1.1,60.01035778781126,
negative,negative,2,j,l,,,,,1,3,21,9,,,,,,,,,,,,,,,,,,,,,,,,,,,,prac,1,1,2,negative,negative,l,l,1,1.3292110999991564,119.14318920000005,120.16444750000028,120.12474740000016,None,119.14318920000005,None,119.14318920000005,None,119.14318920000005,None,121.45518096999967,None,121.45518096999967,None,121.45518096999967,None,,,,,,,,,,,233,28,Female,2022-06-13_18h20.34.327,Main,2022.1.1,60.01035778781126,
negative,negative,1,j,l,,,,,1,4,22,0,,,,,,,,,,,,,,,,,,,,,,,,,,,,prac,1,1,1,negative,negative,l,l,1,0.6682552000002033,121.4925315999999,122.50345879999986,122.46319560000029,None,121.4925315999999,None,121.4925315999999,None,121.4925315999999,None,123.12355317000038,None,123.12355317000038,None,123.12355317000038,None,,,,,,,,,,,233,28,Female,2022-06-13_18h20.34.327,Main,2022.1.1,60.01035778781126,
negative,neutral,2,j,l,,,,,1,5,23,12,,,,,,,,,,,,,,,,,,,,,,,,,,,,prac,1,1,2,neutral,negative,l,l,1,0.7550081999997929,123.14530740000009,124.15427029999955,124.13468769999963,None,123.14530740000009,None,123.14530740000009,None,123.14530740000009,None,124.8784950700001,None,124.8784950700001,None,124.8784950700001,None,,,,,,,,,,,233,28,Female,2022-06-13_18h20.34.327,Main,2022.1.1,60.01035778781126,
neutral,negative,2,k,k,,,,,1,6,24,16,,,,,,,,,,,,,,,,,,,,,,,,,,,,prac,2,2,2,negative,neutral,k,k,1,0.9055324999999357,124.90085999999974,125.92080830000032,125.88207010000042,None,124.90085999999974,None,124.90085999999974,None,124.90085999999974,None,126.79036966999956,None,126.79036966999956,None,126.79036966999956,None,,,,,,,,,,,233,28,Female,2022-06-13_18h20.34.327,Main,2022.1.1,60.01035778781126,
negative,positive,2,j,l,,,,,1,7,25,15,,,,,,,,,,,,,,,,,,,,,,,,,,,,prac,1,1,2,positive,negative,l,l,1,0.6758871000001818,126.81031499999972,127.81981910000013,127.79964010000003,None,126.81031499999972,None,126.81031499999972,None,126.81031499999972,None,128.46538936999968,None,128.46538936999968,None,128.46538936999968,None,,,,,,,,,,,233,28,Female,2022-06-13_18h20.34.327,Main,2022.1.1,60.01035778781126,
negative,positive,1,j,l,,,,,1,8,26,6,,,,,,,,,,,,,,,,,,,,,,,,,,,,prac,2,2,1,positive,negative,l,l,1,0.7282461000004332,128.48631360000036,129.50371460000042,129.46363949999977,None,128.48631360000036,None,128.48631360000036,None,128.48631360000036,None,130.19463816999996,None,130.19463816999996,None,130.19463816999996,None,,,,,,,,,,,233,28,Female,2022-06-13_18h20.34.327,Main,2022.1.1,60.01035778781126,
positive,neutral,1,l,j,,,,,1,9,27,8,,,,,,,,,,,,,,,,,,,,,,,,,,,,prac,1,1,1,neutral,positive,j,j,1,0.88474320000023,130.21781790000023,131.23683259999962,131.19830430000002,None,130.21781790000023,None,130.21781790000023,None,130.21781790000023,None,132.08299656999952,None,132.08299656999952,None,132.08299656999952,None,,,,,,,,,,,233,28,Female,2022-06-13_18h20.34.327,Main,2022.1.1,60.01035778781126,
positive,neutral,2,l,j,,,,,1,10,28,17,,,,,,,,,,,,,,,,,,,,,,,,,,,,prac,2,2,2,neutral,positive,j,j,1,0.9846619999998438,132.1039356000001,133.1179734999996,133.0976486999998,None,132.1039356000001,None,132.1039356000001,None,132.1039356000001,None,134.07257116999972,None,134.07257116999972,None,134.07257116999972,None,,,,,,,,,,,233,28,Female,2022-06-13_18h20.34.327,Main,2022.1.1,60.01035778781126,
neutral,neutral,1,k,k,,,,,1,11,29,1,,,,,,,,,,,,,,,,,,,,,,,,,,,,prac,1,1,1,neutral,neutral,k,k,1,1.1481457999998383,134.09358499999962,135.09691529999964,135.07806359999995,None,134.09358499999962,None,134.09358499999962,None,134.09358499999962,None,136.22287506999965,None,136.22287506999965,None,136.22287506999965,None,,,,,,,,,,,233,28,Female,2022-06-13_18h20.34.327,Main,2022.1.1,60.01035778781126,
negative,neutral,1,j,l,,,,,1,12,30,3,,,,,,,,,,,,,,,,,,,,,,,,,,,,prac,1,1,1,neutral,negative,l,l,1,0.7817575999997644,136.24379210000006,137.2668248,137.22600239999974,None,136.24379210000006,None,136.24379210000006,None,136.24379210000006,None,138.00714167000024,None,138.00714167000024,None,138.00714167000024,None,,,,,,,,,,,233,28,Female,2022-06-13_18h20.34.327,Main,2022.1.1,60.01035778781126,
neutral,positive,2,k,k,,,,,1,13,31,13,,,,,,,,,,,,,,,,,,,,,,,,,,,,prac,1,1,2,positive,neutral,k,k,1,0.9363840000005439,138.02700430000004,139.03531480000038,139.0157637000002,None,138.02700430000004,None,138.02700430000004,None,138.02700430000004,None,139.94427977000032,None,139.94427977000032,None,139.94427977000032,None,,,,,,,,,,,233,28,Female,2022-06-13_18h20.34.327,Main,2022.1.1,60.01035778781126,
positive,negative,1,l,j,,,,,1,14,32,5,,,,,,,,,,,,,,,,,,,,,,,,,,,,prac,1,1,1,negative,positive,j,j,1,0.9159952999998495,139.9654061000001,140.96738970000024,140.94819989999996,None,139.9654061000001,None,139.9654061000001,None,139.9654061000001,None,141.8623289699999,None,141.8623289699999,None,141.8623289699999,None,,,,,,,,,,,233,28,Female,2022-06-13_18h20.34.327,Main,2022.1.1,60.01035778781126,
positive,positive,2,l,j,,,,,1,15,33,11,,,,,,,,,,,,,,,,,,,,,,,,,,,,prac,2,2,2,positive,positive,j,j,1,0.8159218999999212,141.8835153,142.89127050000025,142.86854909999965,None,141.8835153,None,141.8835153,None,141.8835153,None,143.68088946999978,None,143.68088946999978,None,143.68088946999978,None,,,,,,,,,,,233,28,Female,2022-06-13_18h20.34.327,Main,2022.1.1,60.01035778781126,
neutral,neutral,2,k,k,,,,,1,16,34,10,,,,,,,,,,,,,,,,,,,,,,,,,,,,prac,2,2,2,neutral,neutral,k,k,1,0.8313207000001057,143.7046049999999,144.71239499999956,144.6925653999997,None,143.7046049999999,None,143.7046049999999,None,143.7046049999999,None,145.5172032700002,None,145.5172032700002,None,145.5172032700002,None,,,,,,,,,,,233,28,Female,2022-06-13_18h20.34.327,Main,2022.1.1,60.01035778781126,
positive,negative,2,l,j,,,,,1,17,35,14,,,,,,,,,,,,,,,,,,,,,,,,,,,,prac,1,1,2,negative,positive,j,j,1,0.9096848999997746,145.5385650999997,146.55877690000034,146.51726979999967,None,145.5385650999997,None,145.5385650999997,None,145.5385650999997,None,147.42693506999967,None,147.42693506999967,None,147.42693506999967,None,,,,,,,,,,,233,28,Female,2022-06-13_18h20.34.327,Main,2022.1.1,60.01035778781126,
,,,,,,,,,,,,,,,,,,,,,,,,,,,,,,,,,,,,,,,,,,,,,,,,,,,,,,,,,,,,,,,,,,147.43315220000022,None,None,,,,,,,,233,28,Female,2022-06-13_18h20.34.327,Main,2022.1.1,60.01035778781126,
,,,,,,,,,,,,,,,,,,,,,,,,,,,,,,,,,,,,,,,,,,,,,,,,,,,,,,,,,,,,,,,,,,,,,0.25092593,-0.106481485,1,0,0,0.004481969999687863,None,233,28,Female,2022-06-13_18h20.34.327,Main,2022.1.1,60.01035778781126,
neutral,positive,2,k,k,,,,,,,,,0,0,0,13,,,,,,,,,,,,,,,,,,,,,,153.1538903999999,None,main,1,1,2,positive,neutral,k,k,1,1.0336280000001352,155.17316370000026,156.17981940000027,156.1601283,None,155.17316370000026,None,155.17316370000026,None,155.17316370000026,None,157.18854247000036,None,157.18854247000036,None,157.18854247000036,None,,,,,,,,,,,233,28,Female,2022-06-13_18h20.34.327,Main,2022.1.1,60.01035778781126,
negative,negative,2,j,l,,,,,,,,,0,1,1,9,,,,,,,,,,,,,,,,,,,,,,,,main,2,2,2,negative,negative,l,l,1,0.6937080999996397,157.21313199999986,158.2152917000003,158.19618439999977,None,157.21313199999986,None,157.21313199999986,None,157.21313199999986,None,158.88884056999996,None,158.88884056999996,None,158.88884056999996,None,,,,,,,,,,,233,28,Female,2022-06-13_18h20.34.327,Main,2022.1.1,60.01035778781126,
negative,negative,1,j,l,,,,,,,,,0,2,2,0,,,,,,,,,,,,,,,,,,,,,,,,main,2,2,1,negative,negative,l,l,1,0.7355329000001802,158.91296650000004,159.9213848999998,159.90087909999966,None,158.91296650000004,None,158.91296650000004,None,158.91296650000004,None,160.62815517000035,None,160.62815517000035,None,160.62815517000035,None,,,,,,,,,,,233,28,Female,2022-06-13_18h20.34.327,Main,2022.1.1,60.01035778781126,
positive,positive,1,l,j,,,,,,,,,0,3,3,2,,,,,,,,,,,,,,,,,,,,,,,,main,1,1,1,positive,positive,j,j,1,0.6751506999999037,160.65495040000042,161.6597941,161.64016710000033,None,160.65495040000042,None,160.65495040000042,None,160.65495040000042,None,162.30671867,None,162.30671867,None,162.30671867,None,,,,,,,,,,,233,28,Female,2022-06-13_18h20.34.327,Main,2022.1.1,60.01035778781126,
negative,positive,1,j,l,,,,,,,,,0,4,4,6,,,,,,,,,,,,,,,,,,,,,,,,main,1,1,1,positive,negative,l,l,1,0.8363853999999264,162.3288167999999,163.33680939999977,163.31590630000028,None,162.3288167999999,None,162.3288167999999,None,162.3288167999999,None,164.1474852700003,None,164.1474852700003,None,164.1474852700003,None,,,,,,,,,,,233,28,Female,2022-06-13_18h20.34.327,Main,2022.1.1,60.01035778781126,
neutral,negative,2,k,k,,,,,,,,,0,5,5,16,,,,,,,,,,,,,,,,,,,,,,,,main,2,2,2,negative,neutral,k,k,1,0.7703089000006003,164.17271280000023,165.1924385000002,165.15191119999963,None,164.17271280000023,None,164.17271280000023,None,164.17271280000023,None,165.92112476999955,None,165.92112476999955,None,165.92112476999955,None,,,,,,,,,,,233,28,Female,2022-06-13_18h20.34.327,Main,2022.1.1,60.01035778781126,
neutral,neutral,1,k,k,,,,,,,,,0,6,6,1,,,,,,,,,,,,,,,,,,,,,,,,main,2,2,1,neutral,neutral,k,k,1,0.8316920000006576,165.94405089999964,166.94710250000026,166.93009249999977,None,165.94405089999964,None,165.94405089999964,None,165.94405089999964,None,167.75549357,None,167.75549357,None,167.75549357,None,,,,,,,,,,,233,28,Female,2022-06-13_18h20.34.327,Main,2022.1.1,60.01035778781126,
neutral,positive,1,k,k,,,,,,,,,0,7,7,4,,,,,,,,,,,,,,,,,,,,,,,,main,1,1,1,positive,neutral,k,k,1,0.5894719999996596,167.77806340000006,168.79743400000007,168.75938769999993,None,167.77806340000006,None,167.77806340000006,None,167.77806340000006,None,169.3504837700002,None,169.3504837700002,None,169.3504837700002,None,,,,,,,,,,,233,28,Female,2022-06-13_18h20.34.327,Main,2022.1.1,60.01035778781126,
negative,positive,2,j,l,,,,,,,,,0,8,8,15,,,,,,,,,,,,,,,,,,,,,,,,main,2,2,2,positive,negative,l,l,1,0.7830900000008114,169.3728361000003,170.38522850000027,170.36427550000008,None,169.3728361000003,None,169.3728361000003,None,169.3728361000003,None,171.13607907000005,None,171.13607907000005,None,171.13607907000005,None,,,,,,,,,,,233,28,Female,2022-06-13_18h20.34.327,Main,2022.1.1,60.01035778781126,
positive,positive,2,l,j,,,,,,,,,0,9,9,11,,,,,,,,,,,,,,,,,,,,,,,,main,1,1,2,positive,positive,j,j,1,0.6194746999999552,171.15905899999962,172.17368480000005,172.15303909999966,None,171.15905899999962,None,171.15905899999962,None,171.15905899999962,None,172.75748426999962,None,172.75748426999962,None,172.75748426999962,None,,,,,,,,,,,233,28,Female,2022-06-13_18h20.34.327,Main,2022.1.1,60.01035778781126,
positive,negative,1,l,j,,,,,,,,,0,10,10,5,,,,,,,,,,,,,,,,,,,,,,,,main,1,1,1,negative,positive,j,j,1,0.6494567999998253,172.77886359999957,173.78180390000034,173.76230570000007,None,172.77886359999957,None,172.77886359999957,None,172.77886359999957,None,174.40994816999955,None,174.40994816999955,None,174.40994816999955,None,,,,,,,,,,,233,28,Female,2022-06-13_18h20.34.327,Main,2022.1.1,60.01035778781126,
positive,negative,2,l,j,,,,,,,,,0,11,11,14,,,,,,,,,,,,,,,,,,,,,,,,main,2,2,2,negative,positive,j,j,1,0.5550681999993685,174.4352074999997,175.44536470000003,175.42569139999978,None,174.4352074999997,None,174.4352074999997,None,174.4352074999997,None,175.97022536999975,None,175.97022536999975,None,175.97022536999975,None,,,,,,,,,,,233,28,Female,2022-06-13_18h20.34.327,Main,2022.1.1,60.01035778781126,
neutral,neutral,2,k,k,,,,,,,,,0,12,12,10,,,,,,,,,,,,,,,,,,,,,,,,main,2,2,2,neutral,neutral,k,k,1,0.7584071000001131,175.99245849999988,177.0061668999997,176.9849850999999,None,175.99245849999988,None,175.99245849999988,None,175.99245849999988,None,177.73430147,None,177.73430147,None,177.73430147,None,,,,,,,,,,,233,28,Female,2022-06-13_18h20.34.327,Main,2022.1.1,60.01035778781126,
positive,neutral,2,l,j,,,,,,,,,0,13,13,17,,,,,,,,,,,,,,,,,,,,,,,,main,1,1,2,neutral,positive,j,j,1,0.763029199999437,177.75804640000024,178.77149800000007,178.7512697000002,None,177.75804640000024,None,177.75804640000024,None,177.75804640000024,None,179.50016597000013,None,179.50016597000013,None,179.50016597000013,None,,,,,,,,,,,233,28,Female,2022-06-13_18h20.34.327,Main,2022.1.1,60.01035778781126,
negative,neutral,1,j,l,,,,,,,,,0,14,14,3,,,,,,,,,,,,,,,,,,,,,,,,main,2,2,1,neutral,negative,l,l,1,0.7572125000006054,179.52432059999956,180.5290285000001,180.5124421999999,None,179.52432059999956,None,179.52432059999956,None,179.52432059999956,None,181.2573890699996,None,181.2573890699996,None,181.2573890699996,None,,,,,,,,,,,233,28,Female,2022-06-13_18h20.34.327,Main,2022.1.1,60.01035778781126,
positive,neutral,1,l,j,,,,,,,,,0,15,15,8,,,,,,,,,,,,,,,,,,,,,,,,main,1,1,1,neutral,positive,j,j,1,0.7633904000003895,181.28331119999984,182.30017529999986,182.2597955000001,None,181.28331119999984,None,181.28331119999984,None,181.28331119999984,None,183.02345496999988,None,183.02345496999988,None,183.02345496999988,None,,,,,,,,,,,233,28,Female,2022-06-13_18h20.34.327,Main,2022.1.1,60.01035778781126,
neutral,negative,1,k,k,,,,,,,,,0,16,16,7,,,,,,,,,,,,,,,,,,,,,,,,main,2,2,1,negative,neutral,k,k,1,0.6883115000000544,183.04973059999975,184.06376480000017,184.02411399999983,None,183.04973059999975,None,183.04973059999975,None,183.04973059999975,None,184.71660636999968,None,184.71660636999968,None,184.71660636999968,None,,,,,,,,,,,233,28,Female,2022-06-13_18h20.34.327,Main,2022.1.1,60.01035778781126,
negative,neutral,2,j,l,,,,,,,,,0,17,17,12,,,,,,,,,,,,,,,,,,,,,,,,main,1,1,2,neutral,negative,l,j,0,0.8257536999999502,184.7389247000001,185.7576167999996,185.71670110000014,None,184.7389247000001,None,184.7389247000001,None,184.7389247000001,None,186.55333969999992,None,186.55333969999992,None,186.55333969999992,None,,,,,,,,,,,233,28,Female,2022-06-13_18h20.34.327,Main,2022.1.1,60.01035778781126,
negative,neutral,1,j,l,,,,,,,,,1,0,18,3,,,,,,,,,,,,,,,,,,,,,,,,main,2,2,1,neutral,negative,l,l,1,0.8843258999995669,187.57862560000012,188.5893576999997,188.5698013000001,None,187.57862560000012,None,187.57862560000012,None,187.57862560000012,None,189.44087746999958,None,189.44087746999958,None,189.44087746999958,None,,,,,,,,,,,233,28,Female,2022-06-13_18h20.34.327,Main,2022.1.1,60.01035778781126,
neutral,positive,2,k,k,,,,,,,,,1,1,19,13,,,,,,,,,,,,,,,,,,,,,,,,main,1,1,2,positive,neutral,k,k,1,0.8453943999993498,189.46697210000002,190.47727680000025,190.4410058000003,None,189.46697210000002,None,189.46697210000002,None,189.46697210000002,None,191.2895506699997,None,191.2895506699997,None,191.2895506699997,None,,,,,,,,,,,233,28,Female,2022-06-13_18h20.34.327,Main,2022.1.1,60.01035778781126,
positive,negative,1,l,j,,,,,,,,,1,2,20,5,,,,,,,,,,,,,,,,,,,,,,,,main,1,1,1,negative,positive,j,j,1,0.8146682999995392,191.31468479999967,192.3359534000001,192.29275190000044,None,191.31468479999967,None,191.31468479999967,None,191.31468479999967,None,193.10694996999973,None,193.10694996999973,None,193.10694996999973,None,,,,,,,,,,,233,28,Female,2022-06-13_18h20.34.327,Main,2022.1.1,60.01035778781126,
positive,positive,1,l,j,,,,,,,,,1,3,21,2,,,,,,,,,,,,,,,,,,,,,,,,main,2,2,1,positive,positive,j,j,1,0.7002392000003965,193.12878439999986,194.14317599999958,194.12350359999982,None,193.12878439999986,None,193.12878439999986,None,193.12878439999986,None,194.81234486999983,None,194.81234486999983,None,194.81234486999983,None,,,,,,,,,,,233,28,Female,2022-06-13_18h20.34.327,Main,2022.1.1,60.01035778781126,
neutral,neutral,1,k,k,,,,,,,,,1,4,22,1,,,,,,,,,,,,,,,,,,,,,,,,main,1,1,1,neutral,neutral,k,l,0,0.8738705999994636,194.83306809999976,195.84367589999965,195.82447909999973,None,194.83306809999976,None,194.83306809999976,None,194.83306809999976,None,196.6915369999997,None,196.6915369999997,None,196.6915369999997,None,,,,,,,,,,,233,28,Female,2022-06-13_18h20.34.327,Main,2022.1.1,60.01035778781126,
negative,negative,2,j,l,,,,,,,,,1,5,23,9,,,,,,,,,,,,,,,,,,,,,,,,main,1,1,2,negative,negative,l,l,1,1.1644070000002102,197.7111778999997,198.73281740000039,198.69232290000036,None,197.7111778999997,None,197.7111778999997,None,197.7111778999997,None,199.85234236999986,None,199.85234236999986,None,199.85234236999986,None,,,,,,,,,,,233,28,Female,2022-06-13_18h20.34.327,Main,2022.1.1,60.01035778781126,
negative,positive,2,j,l,,,,,,,,,1,6,24,15,,,,,,,,,,,,,,,,,,,,,,,,main,1,1,2,positive,negative,l,l,1,0.9040908999995736,199.8795884000001,200.8933688999996,200.85440300000027,None,199.8795884000001,None,199.8795884000001,None,199.8795884000001,None,201.76344527000037,None,201.76344527000037,None,201.76344527000037,None,,,,,,,,,,,233,28,Female,2022-06-13_18h20.34.327,Main,2022.1.1,60.01035778781126,
neutral,neutral,2,k,k,,,,,,,,,1,7,25,10,,,,,,,,,,,,,,,,,,,,,,,,main,2,2,2,neutral,neutral,k,k,1,0.8268842999996195,201.78507160000026,202.80300139999963,202.7593079999997,None,201.78507160000026,None,201.78507160000026,None,201.78507160000026,None,203.59071587000017,None,203.59071587000017,None,203.59071587000017,None,,,,,,,,,,,233,28,Female,2022-06-13_18h20.34.327,Main,2022.1.1,60.01035778781126,
positive,neutral,1,l,j,,,,,,,,,1,8,26,8,,,,,,,,,,,,,,,,,,,,,,,,main,2,2,1,neutral,positive,j,j,1,0.7477018999998108,203.61581089999981,204.63464810000005,204.59349779999957,None,203.61581089999981,None,203.61581089999981,None,203.61581089999981,None,205.34034347000033,None,205.34034347000033,None,205.34034347000033,None,,,,,,,,,,,233,28,Female,2022-06-13_18h20.34.327,Main,2022.1.1,60.01035778781126,
neutral,negative,2,k,k,,,,,,,,,1,9,27,16,,,,,,,,,,,,,,,,,,,,,,,,main,2,2,2,negative,neutral,k,k,1,0.7617114000004221,205.36517360000016,206.3819426,206.34050209999987,None,205.36517360000016,None,205.36517360000016,None,205.36517360000016,None,207.10480406999977,None,207.10480406999977,None,207.10480406999977,None,,,,,,,,,,,233,28,Female,2022-06-13_18h20.34.327,Main,2022.1.1,60.01035778781126,
negative,positive,1,j,l,,,,,,,,,1,10,28,6,,,,,,,,,,,,,,,,,,,,,,,,main,2,2,1,positive,negative,l,l,1,0.783922700000403,207.13055840000015,208.14598039999964,208.10539489999974,None,207.13055840000015,None,207.13055840000015,None,207.13055840000015,None,208.89370186999986,None,208.89370186999986,None,208.89370186999986,None,,,,,,,,,,,233,28,Female,2022-06-13_18h20.34.327,Main,2022.1.1,60.01035778781126,
negative,neutral,2,j,l,,,,,,,,,1,11,29,12,,,,,,,,,,,,,,,,,,,,,,,,main,1,1,2,neutral,negative,l,l,1,0.7943303000001833,208.91389809999964,209.9230077000002,209.90366530000028,None,208.91389809999964,None,208.91389809999964,None,208.91389809999964,None,210.68798117000006,None,210.68798117000006,None,210.68798117000006,None,,,,,,,,,,,233,28,Female,2022-06-13_18h20.34.327,Main,2022.1.1,60.01035778781126,
positive,negative,2,l,j,,,,,,,,,1,12,30,14,,,,,,,,,,,,,,,,,,,,,,,,main,2,2,2,negative,positive,j,j,1,0.8275457000008828,210.71466080000027,211.73003309999967,211.6898917999997,None,210.71466080000027,None,210.71466080000027,None,210.71466080000027,None,212.5193355700003,None,212.5193355700003,None,212.5193355700003,None,,,,,,,,,,,233,28,Female,2022-06-13_18h20.34.327,Main,2022.1.1,60.01035778781126,
neutral,negative,1,k,k,,,,,,,,,1,13,31,7,,,,,,,,,,,,,,,,,,,,,,,,main,1,1,1,negative,neutral,k,k,1,0.792805899999621,212.5401971000001,213.55056390000027,213.52978859999985,None,212.5401971000001,None,212.5401971000001,None,212.5401971000001,None,214.31635367000035,None,214.31635367000035,None,214.31635367000035,None,,,,,,,,,,,233,28,Female,2022-06-13_18h20.34.327,Main,2022.1.1,60.01035778781126,
negative,negative,1,j,l,,,,,,,,,1,14,32,0,,,,,,,,,,,,,,,,,,,,,,,,main,1,1,1,negative,negative,l,l,1,0.8172488999998677,214.33992990000024,215.35783549999996,215.31530269999985,None,214.33992990000024,None,214.33992990000024,None,214.33992990000024,None,216.1362288700002,None,216.1362288700002,None,216.1362288700002,None,,,,,,,,,,,233,28,Female,2022-06-13_18h20.34.327,Main,2022.1.1,60.01035778781126,
positive,neutral,2,l,j,,,,,,,,,1,15,33,17,,,,,,,,,,,,,,,,,,,,,,,,main,1,1,2,neutral,positive,j,j,1,0.8525238000001991,216.15808469999956,217.16781460000038,217.14665979999972,None,216.15808469999956,None,216.15808469999956,None,216.15808469999956,None,217.99493576999976,None,217.99493576999976,None,217.99493576999976,None,,,,,,,,,,,233,28,Female,2022-06-13_18h20.34.327,Main,2022.1.1,60.01035778781126,
positive,positive,2,l,j,,,,,,,,,1,16,34,11,,,,,,,,,,,,,,,,,,,,,,,,main,1,1,2,positive,positive,j,j,1,0.8455316999998104,218.0167848000001,219.0242919000002,219.00461639999958,None,218.0167848000001,None,218.0167848000001,None,218.0167848000001,None,219.8432753699999,None,219.8432753699999,None,219.8432753699999,None,,,,,,,,,,,233,28,Female,2022-06-13_18h20.34.327,Main,2022.1.1,60.01035778781126,
neutral,positive,1,k,k,,,,,,,,,1,17,35,4,,,,,,,,,,,,,,,,,,,,,,,,main,1,1,1,positive,neutral,k,k,1,0.74872250000044,219.86438949999956,220.86959540000043,220.85031299999991,None,219.86438949999956,None,219.86438949999956,None,219.86438949999956,None,221.59418766999988,None,221.59418766999988,None,221.59418766999988,None,,,,,,,,,,,233,28,Female,2022-06-13_18h20.34.327,Main,2022.1.1,60.01035778781126,
negative,positive,2,j,l,,,,,,,,,2,0,36,15,,,,,,,,,,,,,,,,,,,,,,,,main,2,2,2,positive,negative,l,l,1,0.8283792000001995,221.61500760000035,222.63334080000004,222.59025670000028,None,221.61500760000035,None,221.61500760000035,None,221.61500760000035,None,223.42248406999988,None,223.42248406999988,None,223.42248406999988,None,,,,,,,,,,,233,28,Female,2022-06-13_18h20.34.327,Main,2022.1.1,60.01035778781126,
neutral,positive,1,k,k,,,,,,,,,2,1,37,4,,,,,,,,,,,,,,,,,,,,,,,,main,2,2,1,positive,neutral,k,k,1,1.0443501999998261,223.44409540000015,224.45396600000004,224.43422759999976,None,223.44409540000015,None,223.44409540000015,None,223.44409540000015,None,225.46950726999967,None,225.46950726999967,None,225.46950726999967,None,,,,,,,,,,,233,28,Female,2022-06-13_18h20.34.327,Main,2022.1.1,60.01035778781126,
neutral,neutral,2,k,k,,,,,,,,,2,2,38,10,,,,,,,,,,,,,,,,,,,,,,,,main,2,2,2,neutral,neutral,k,k,1,0.7650649000006524,225.49493350000012,226.51122759999998,226.46895200000017,None,225.49493350000012,None,225.49493350000012,None,225.49493350000012,None,227.23702866999975,None,227.23702866999975,None,227.23702866999975,None,,,,,,,,,,,233,28,Female,2022-06-13_18h20.34.327,Main,2022.1.1,60.01035778781126,
negative,neutral,1,j,l,,,,,,,,,2,3,39,3,,,,,,,,,,,,,,,,,,,,,,,,main,1,1,1,neutral,negative,l,l,1,0.8979815999991843,227.25825749999967,228.27420139999958,228.23395119999986,None,227.25825749999967,None,227.25825749999967,None,227.25825749999967,None,229.13814036999975,None,229.13814036999975,None,229.13814036999975,None,,,,,,,,,,,233,28,Female,2022-06-13_18h20.34.327,Main,2022.1.1,60.01035778781126,
positive,neutral,2,l,j,,,,,,,,,2,4,40,17,,,,,,,,,,,,,,,,,,,,,,,,main,2,2,2,neutral,positive,j,j,1,0.8301805999999488,229.16370480000023,230.1761974000001,230.15535770000042,None,229.16370480000023,None,229.16370480000023,None,229.16370480000023,None,230.96893117000036,None,230.96893117000036,None,230.96893117000036,None,,,,,,,,,,,233,28,Female,2022-06-13_18h20.34.327,Main,2022.1.1,60.01035778781126,
neutral,neutral,1,k,k,,,,,,,,,2,5,41,1,,,,,,,,,,,,,,,,,,,,,,,,main,2,2,1,neutral,neutral,k,k,1,0.8313607000000047,230.9955541999998,232.0173832999999,231.977175,None,230.9955541999998,None,230.9955541999998,None,230.9955541999998,None,232.80445657000018,None,232.80445657000018,None,232.80445657000018,None,,,,,,,,,,,233,28,Female,2022-06-13_18h20.34.327,Main,2022.1.1,60.01035778781126,
negative,negative,1,j,l,,,,,,,,,2,6,42,0,,,,,,,,,,,,,,,,,,,,,,,,main,1,1,1,negative,negative,l,l,1,0.8767139999999927,232.82547429999977,233.8477515000004,233.80635939999956,None,232.82547429999977,None,232.82547429999977,None,232.82547429999977,None,234.6836184699996,None,234.6836184699996,None,234.6836184699996,None,,,,,,,,,,,233,28,Female,2022-06-13_18h20.34.327,Main,2022.1.1,60.01035778781126,
positive,neutral,1,l,j,,,,,,,,,2,7,43,8,,,,,,,,,,,,,,,,,,,,,,,,main,1,1,1,neutral,positive,j,j,1,0.7905319000001327,234.70841579999978,235.71753389999958,235.69826740000008,None,234.70841579999978,None,234.70841579999978,None,234.70841579999978,None,236.47930346999965,None,236.47930346999965,None,236.47930346999965,None,,,,,,,,,,,233,28,Female,2022-06-13_18h20.34.327,Main,2022.1.1,60.01035778781126,
positive,positive,2,l,j,,,,,,,,,2,8,44,11,,,,,,,,,,,,,,,,,,,,,,,,main,1,1,2,positive,positive,j,j,1,0.6048180999996475,236.5001425999999,237.50591710000026,237.48616399999992,None,236.5001425999999,None,236.5001425999999,None,236.5001425999999,None,238.08906126999955,None,238.08906126999955,None,238.08906126999955,None,,,,,,,,,,,233,28,Female,2022-06-13_18h20.34.327,Main,2022.1.1,60.01035778781126,
neutral,negative,2,k,k,,,,,,,,,2,9,45,16,,,,,,,,,,,,,,,,,,,,,,,,main,1,1,2,negative,neutral,k,k,1,0.662880299999415,238.10996429999977,239.13167309999972,239.08926650000012,None,238.10996429999977,None,238.10996429999977,None,238.10996429999977,None,239.7500537699998,None,239.7500537699998,None,239.7500537699998,None,,,,,,,,,,,233,28,Female,2022-06-13_18h20.34.327,Main,2022.1.1,60.01035778781126,
positive,negative,1,l,j,,,,,,,,,2,10,46,5,,,,,,,,,,,,,,,,,,,,,,,,main,1,1,1,negative,positive,j,j,1,1.1268324000002394,239.77728709999974,240.79395560000012,240.75363449999986,None,239.77728709999974,None,239.77728709999974,None,239.77728709999974,None,241.88122726999973,None,241.88122726999973,None,241.88122726999973,None,,,,,,,,,,,233,28,Female,2022-06-13_18h20.34.327,Main,2022.1.1,60.01035778781126,
neutral,negative,1,k,k,,,,,,,,,2,11,47,7,,,,,,,,,,,,,,,,,,,,,,,,main,2,2,1,negative,neutral,k,k,1,0.7690997999998217,241.9024171000001,242.90675190000002,242.88670449999972,None,241.9024171000001,None,241.9024171000001,None,241.9024171000001,None,243.6551671699999,None,243.6551671699999,None,243.6551671699999,None,,,,,,,,,,,233,28,Female,2022-06-13_18h20.34.327,Main,2022.1.1,60.01035778781126,
negative,positive,1,j,l,,,,,,,,,2,12,48,6,,,,,,,,,,,,,,,,,,,,,,,,main,2,2,1,positive,negative,l,l,1,0.9434325000001991,243.6755645000003,244.68598440000005,244.6665882999996,None,243.6755645000003,None,243.6755645000003,None,243.6755645000003,None,245.59816587000023,None,245.59816587000023,None,245.59816587000023,None,,,,,,,,,,,233,28,Female,2022-06-13_18h20.34.327,Main,2022.1.1,60.01035778781126,
negative,neutral,2,j,l,,,,,,,,,2,13,49,12,,,,,,,,,,,,,,,,,,,,,,,,main,1,1,2,neutral,negative,l,l,1,0.8008324000002176,245.61961650000012,246.64185999999972,246.60184670000035,None,245.61961650000012,None,245.61961650000012,None,245.61961650000012,None,247.40454426999986,None,247.40454426999986,None,247.40454426999986,None,,,,,,,,,,,233,28,Female,2022-06-13_18h20.34.327,Main,2022.1.1,60.01035778781126,
negative,negative,2,j,l,,,,,,,,,2,14,50,9,,,,,,,,,,,,,,,,,,,,,,,,main,2,2,2,negative,negative,l,l,1,0.662748300000203,247.42904650000037,248.44886450000013,248.4085081000003,None,247.42904650000037,None,247.42904650000037,None,247.42904650000037,None,249.07053696999992,None,249.07053696999992,None,249.07053696999992,None,,,,,,,,,,,233,28,Female,2022-06-13_18h20.34.327,Main,2022.1.1,60.01035778781126,
positive,negative,2,l,j,,,,,,,,,2,15,51,14,,,,,,,,,,,,,,,,,,,,,,,,main,1,1,2,negative,positive,j,j,1,0.8351141000002826,249.09041230000003,250.09979449999992,250.0808906000002,None,249.09041230000003,None,249.09041230000003,None,249.09041230000003,None,250.90854106999996,None,250.90854106999996,None,250.90854106999996,None,,,,,,,,,,,233,28,Female,2022-06-13_18h20.34.327,Main,2022.1.1,60.01035778781126,
positive,positive,1,l,j,,,,,,,,,2,16,52,2,,,,,,,,,,,,,,,,,,,,,,,,main,1,1,1,positive,positive,j,j,1,0.6399280999994517,250.9300701000002,251.94104320000042,251.90154429999984,None,250.9300701000002,None,250.9300701000002,None,250.9300701000002,None,252.54820676999952,None,252.54820676999952,None,252.54820676999952,None,,,,,,,,,,,233,28,Female,2022-06-13_18h20.34.327,Main,2022.1.1,60.01035778781126,
neutral,positive,2,k,k,,,,,,,,,2,17,53,13,,,,,,,,,,,,,,,,,,,,,,,,main,1,1,2,positive,neutral,k,k,1,0.765596899999764,252.5698835000003,253.5906189999996,253.54875230000016,None,252.5698835000003,None,252.5698835000003,None,252.5698835000003,None,254.31628706999982,None,254.31628706999982,None,254.31628706999982,None,,,,,,,,,,,233,28,Female,2022-06-13_18h20.34.327,Main,2022.1.1,60.01035778781126,
positive,positive,1,l,j,,,,,,,,,3,0,54,2,,,,,,,,,,,,,,,,,,,,,,,,main,2,2,1,positive,positive,j,j,1,0.8936649999996007,254.34190659999967,255.34621470000002,255.32424019999962,None,254.34190659999967,None,254.34190659999967,None,254.34190659999967,None,256.21307927,None,256.21307927,None,256.21307927,None,,,,,,,,,,,233,28,Female,2022-06-13_18h20.34.327,Main,2022.1.1,60.01035778781126,
negative,positive,1,j,l,,,,,,,,,3,1,55,6,,,,,,,,,,,,,,,,,,,,,,,,main,2,2,1,positive,negative,l,l,1,1.4157878999994864,256.2355053000001,257.24473279999984,257.22355940000034,None,256.2355053000001,None,256.2355053000001,None,256.2355053000001,None,258.6308868699998,None,258.6308868699998,None,258.6308868699998,None,,,,,,,,,,,233,28,Female,2022-06-13_18h20.34.327,Main,2022.1.1,60.01035778781126,
neutral,positive,2,k,k,,,,,,,,,3,2,56,13,,,,,,,,,,,,,,,,,,,,,,,,main,2,2,2,positive,neutral,k,k,1,0.7640254999996614,258.6582939,259.6657844000001,259.64629570000034,None,258.6582939,None,258.6582939,None,258.6582939,None,260.39708706999954,None,260.39708706999954,None,260.39708706999954,None,,,,,,,,,,,233,28,Female,2022-06-13_18h20.34.327,Main,2022.1.1,60.01035778781126,
negative,positive,2,j,l,,,,,,,,,3,3,57,15,,,,,,,,,,,,,,,,,,,,,,,,main,2,2,2,positive,negative,l,l,1,1.0379753999995955,260.41946069999995,261.4398607000003,261.41946889999963,None,260.41946069999995,None,260.41946069999995,None,260.41946069999995,None,262.44027757000003,None,262.44027757000003,None,262.44027757000003,None,,,,,,,,,,,233,28,Female,2022-06-13_18h20.34.327,Main,2022.1.1,60.01035778781126,
positive,negative,2,l,j,,,,,,,,,3,4,58,14,,,,,,,,,,,,,,,,,,,,,,,,main,2,2,2,negative,positive,j,j,1,0.8305280999993556,262.46281999999974,263.4681773000002,263.44909430000007,None,262.46281999999974,None,262.46281999999974,None,262.46281999999974,None,264.27416086999983,None,264.27416086999983,None,264.27416086999983,None,,,,,,,,,,,233,28,Female,2022-06-13_18h20.34.327,Main,2022.1.1,60.01035778781126,
positive,positive,2,l,j,,,,,,,,,3,5,59,11,,,,,,,,,,,,,,,,,,,,,,,,main,2,2,2,positive,positive,j,j,1,0.8429222999993726,264.2987141000003,265.31030999999984,265.28932879999957,None,264.2987141000003,None,264.2987141000003,None,264.2987141000003,None,266.12167856999986,None,266.12167856999986,None,266.12167856999986,None,,,,,,,,,,,233,28,Female,2022-06-13_18h20.34.327,Main,2022.1.1,60.01035778781126,
negative,neutral,2,j,l,,,,,,,,,3,6,60,12,,,,,,,,,,,,,,,,,,,,,,,,main,2,2,2,neutral,negative,l,l,1,0.8490159000002677,266.14460169999984,267.1649977999996,267.1259855999997,None,266.14460169999984,None,266.14460169999984,None,266.14460169999984,None,267.97337806999985,None,267.97337806999985,None,267.97337806999985,None,,,,,,,,,,,233,28,Female,2022-06-13_18h20.34.327,Main,2022.1.1,60.01035778781126,
positive,negative,1,l,j,,,,,,,,,3,7,61,5,,,,,,,,,,,,,,,,,,,,,,,,main,1,1,1,negative,positive,j,j,1,0.7723439999999755,267.99449879999975,269.0068664999999,268.9847196999999,None,267.99449879999975,None,267.99449879999975,None,267.99449879999975,None,269.75016767000034,None,269.75016767000034,None,269.75016767000034,None,,,,,,,,,,,233,28,Female,2022-06-13_18h20.34.327,Main,2022.1.1,60.01035778781126,
positive,neutral,2,l,j,,,,,,,,,3,8,62,17,,,,,,,,,,,,,,,,,,,,,,,,main,2,2,2,neutral,positive,j,j,1,0.7537124999998923,269.7716161999997,270.79567659999975,270.7533395999999,None,269.7716161999997,None,269.7716161999997,None,269.7716161999997,None,271.5063918699998,None,271.5063918699998,None,271.5063918699998,None,,,,,,,,,,,233,28,Female,2022-06-13_18h20.34.327,Main,2022.1.1,60.01035778781126,
positive,neutral,1,l,j,,,,,,,,,3,9,63,8,,,,,,,,,,,,,,,,,,,,,,,,main,1,1,1,neutral,positive,j,j,1,0.7586556000005658,271.52632300000005,272.5441558000002,272.50149899999997,None,271.52632300000005,None,271.52632300000005,None,271.52632300000005,None,273.26606466999965,None,273.26606466999965,None,273.26606466999965,None,,,,,,,,,,,233,28,Female,2022-06-13_18h20.34.327,Main,2022.1.1,60.01035778781126,
neutral,positive,1,k,k,,,,,,,,,3,10,64,4,,,,,,,,,,,,,,,,,,,,,,,,main,2,2,1,positive,neutral,k,k,1,0.92410960000052,273.2872507000002,274.2989811999996,274.27749779999976,None,273.2872507000002,None,273.2872507000002,None,273.2872507000002,None,275.19186766999974,None,275.19186766999974,None,275.19186766999974,None,,,,,,,,,,,233,28,Female,2022-06-13_18h20.34.327,Main,2022.1.1,60.01035778781126,
neutral,neutral,1,k,k,,,,,,,,,3,11,65,1,,,,,,,,,,,,,,,,,,,,,,,,main,1,1,1,neutral,neutral,k,k,1,0.7207228999996005,275.21672430000035,276.2333663999998,276.1942889000002,None,275.21672430000035,None,275.21672430000035,None,275.21672430000035,None,276.92012307000005,None,276.92012307000005,None,276.92012307000005,None,,,,,,,,,,,233,28,Female,2022-06-13_18h20.34.327,Main,2022.1.1,60.01035778781126,
neutral,negative,1,k,k,,,,,,,,,3,12,66,7,,,,,,,,,,,,,,,,,,,,,,,,main,2,2,1,negative,neutral,k,k,1,1.2676400999998805,276.9427112000003,277.9520587999996,277.93213410000044,None,276.9427112000003,None,276.9427112000003,None,276.9427112000003,None,279.1901821700003,None,279.1901821700003,None,279.1901821700003,None,,,,,,,,,,,233,28,Female,2022-06-13_18h20.34.327,Main,2022.1.1,60.01035778781126,
negative,neutral,1,j,l,,,,,,,,,3,13,67,3,,,,,,,,,,,,,,,,,,,,,,,,main,2,2,1,neutral,negative,l,l,1,0.9533096000004662,279.21210470000005,280.2180814000003,280.1974111999998,None,279.21210470000005,None,279.21210470000005,None,279.21210470000005,None,281.1438697699996,None,281.1438697699996,None,281.1438697699996,None,,,,,,,,,,,233,28,Female,2022-06-13_18h20.34.327,Main,2022.1.1,60.01035778781126,
neutral,negative,2,k,k,,,,,,,,,3,14,68,16,,,,,,,,,,,,,,,,,,,,,,,,main,2,2,2,negative,neutral,k,k,1,0.7975739999992584,281.1667986000002,282.17813620000015,282.1583002999996,None,281.1667986000002,None,281.1667986000002,None,281.1667986000002,None,282.9457511700002,None,282.9457511700002,None,282.9457511700002,None,,,,,,,,,,,233,28,Female,2022-06-13_18h20.34.327,Main,2022.1.1,60.01035778781126,
negative,negative,1,j,l,,,,,,,,,3,15,69,0,,,,,,,,,,,,,,,,,,,,,,,,main,2,2,1,negative,negative,l,l,1,1.0208880999998655,282.97116189999997,283.9757147999999,283.95474230000036,None,282.97116189999997,None,282.97116189999997,None,282.97116189999997,None,284.97155767000004,None,284.97155767000004,None,284.97155767000004,None,,,,,,,,,,,233,28,Female,2022-06-13_18h20.34.327,Main,2022.1.1,60.01035778781126,
neutral,neutral,2,k,k,,,,,,,,,3,16,70,10,,,,,,,,,,,,,,,,,,,,,,,,main,1,1,2,neutral,neutral,k,k,1,0.7537922000001345,284.9954977999996,286.00291990000005,285.9816529999998,None,284.9954977999996,None,284.9954977999996,None,284.9954977999996,None,286.72781347,None,286.72781347,None,286.72781347,None,,,,,,,,,,,233,28,Female,2022-06-13_18h20.34.327,Main,2022.1.1,60.01035778781126,
negative,negative,2,j,l,,,,,,,,,3,17,71,9,,,,,,,,,,,,,,,,,,,,,,,,main,2,2,2,negative,negative,l,l,1,0.8906216000004861,286.7539512000003,287.7624329,287.74240929999996,None,286.7539512000003,None,286.7539512000003,None,286.7539512000003,None,288.62265166999987,None,288.62265166999987,None,288.62265166999987,None,,,,,,,,,,,233,28,Female,2022-06-13_18h20.34.327,Main,2022.1.1,60.01035778781126,
neutral,neutral,1,k,k,,,,,,,,,4,0,72,1,,,,,,,,,,,,,,,,,,,,,,,,main,1,1,1,neutral,neutral,k,k,1,0.7700547000004008,288.64297199999965,289.64873890000035,289.63035089999994,None,288.64297199999965,None,288.64297199999965,None,288.64297199999965,None,290.39535646999957,None,290.39535646999957,None,290.39535646999957,None,,,,,,,,,,,233,28,Female,2022-06-13_18h20.34.327,Main,2022.1.1,60.01035778781126,
positive,neutral,1,l,j,,,,,,,,,4,1,73,8,,,,,,,,,,,,,,,,,,,,,,,,main,1,1,1,neutral,positive,j,j,1,1.137462499999856,290.42023679999966,291.42942310000035,291.40921890000027,None,290.42023679999966,None,290.42023679999966,None,290.42023679999966,None,292.53791677000027,None,292.53791677000027,None,292.53791677000027,None,,,,,,,,,,,233,28,Female,2022-06-13_18h20.34.327,Main,2022.1.1,60.01035778781126,
negative,neutral,1,j,l,,,,,,,,,4,2,74,3,,,,,,,,,,,,,,,,,,,,,,,,main,2,2,1,neutral,negative,l,l,1,0.789784000000509,292.5598068999998,293.56228199999987,293.54291209999974,None,292.5598068999998,None,292.5598068999998,None,292.5598068999998,None,294.33241826999983,None,294.33241826999983,None,294.33241826999983,None,,,,,,,,,,,233,28,Female,2022-06-13_18h20.34.327,Main,2022.1.1,60.01035778781126,
neutral,negative,2,k,k,,,,,,,,,4,3,75,16,,,,,,,,,,,,,,,,,,,,,,,,main,2,2,2,negative,neutral,k,k,1,0.8706865000003745,294.35317810000015,295.3593842999999,295.34006620000036,None,294.35317810000015,None,294.35317810000015,None,294.35317810000015,None,296.2038989699995,None,296.2038989699995,None,296.2038989699995,None,,,,,,,,,,,233,28,Female,2022-06-13_18h20.34.327,Main,2022.1.1,60.01035778781126,
positive,neutral,2,l,j,,,,,,,,,4,4,76,17,,,,,,,,,,,,,,,,,,,,,,,,main,2,2,2,neutral,positive,j,j,1,1.0717613999995592,296.2283417999997,297.24507879999965,297.20555539999987,None,296.2283417999997,None,296.2283417999997,None,296.2283417999997,None,298.2824052699998,None,298.2824052699998,None,298.2824052699998,None,,,,,,,,,,,233,28,Female,2022-06-13_18h20.34.327,Main,2022.1.1,60.01035778781126,
negative,negative,1,j,l,,,,,,,,,4,5,77,0,,,,,,,,,,,,,,,,,,,,,,,,main,2,2,1,negative,negative,l,l,1,0.9889305000006061,298.3044872999999,299.3259882000002,299.2857623,None,298.3044872999999,None,298.3044872999999,None,298.3044872999999,None,300.27180047,None,300.27180047,None,300.27180047,None,,,,,,,,,,,233,28,Female,2022-06-13_18h20.34.327,Main,2022.1.1,60.01035778781126,
neutral,positive,2,k,k,,,,,,,,,4,6,78,13,,,,,,,,,,,,,,,,,,,,,,,,main,2,2,2,positive,neutral,k,k,1,0.93064030000005,300.2942413999999,301.3096168000002,301.28924300000017,None,300.2942413999999,None,300.2942413999999,None,300.2942413999999,None,302.20604757,None,302.20604757,None,302.20604757,None,,,,,,,,,,,233,28,Female,2022-06-13_18h20.34.327,Main,2022.1.1,60.01035778781126,
positive,negative,1,l,j,,,,,,,,,4,7,79,5,,,,,,,,,,,,,,,,,,,,,,,,main,1,1,1,negative,positive,j,j,1,1.9303173999996943,302.2277217999999,303.23725829999967,303.2172743000001,None,302.2277217999999,None,302.2277217999999,None,302.2277217999999,None,305.1551540999999,None,305.1551540999999,None,305.1551540999999,None,,,,,,,,,,,233,28,Female,2022-06-13_18h20.34.327,Main,2022.1.1,60.01035778781126,
positive,positive,2,l,j,,,,,,,,,4,8,80,11,,,,,,,,,,,,,,,,,,,,,,,,main,2,2,2,positive,positive,j,j,1,1.0591254000000845,306.17966669999987,307.18515560000014,307.16463029999977,None,306.17966669999987,None,306.17966669999987,None,306.17966669999987,None,308.2196940699996,None,308.2196940699996,None,308.2196940699996,None,,,,,,,,,,,233,28,Female,2022-06-13_18h20.34.327,Main,2022.1.1,60.01035778781126,
negative,positive,1,j,l,,,,,,,,,4,9,81,6,,,,,,,,,,,,,,,,,,,,,,,,main,1,1,1,positive,negative,l,l,1,0.8259047999999893,308.2412387000004,309.2505424000001,309.2294195000004,None,308.2412387000004,None,308.2412387000004,None,308.2412387000004,None,310.0508674699995,None,310.0508674699995,None,310.0508674699995,None,,,,,,,,,,,233,28,Female,2022-06-13_18h20.34.327,Main,2022.1.1,60.01035778781126,
positive,negative,2,l,j,,,,,,,,,4,10,82,14,,,,,,,,,,,,,,,,,,,,,,,,main,2,2,2,negative,positive,j,j,1,0.9539064000000508,310.0710775999996,311.07607910000024,311.0567117999999,None,310.0710775999996,None,310.0710775999996,None,310.0710775999996,None,312.0052789700003,None,312.0052789700003,None,312.0052789700003,None,,,,,,,,,,,233,28,Female,2022-06-13_18h20.34.327,Main,2022.1.1,60.01035778781126,
neutral,neutral,2,k,k,,,,,,,,,4,11,83,10,,,,,,,,,,,,,,,,,,,,,,,,main,2,2,2,neutral,neutral,k,k,1,0.9033108999992692,312.0275786000002,313.04529379999985,313.0062176000001,None,312.0275786000002,None,312.0275786000002,None,312.0275786000002,None,313.91321876999973,None,313.91321876999973,None,313.91321876999973,None,,,,,,,,,,,233,28,Female,2022-06-13_18h20.34.327,Main,2022.1.1,60.01035778781126,
negative,positive,2,j,l,,,,,,,,,4,12,84,15,,,,,,,,,,,,,,,,,,,,,,,,main,2,2,2,positive,negative,l,l,1,1.118467999999666,313.9339210999997,314.94221219999963,314.92266910000035,None,313.9339210999997,None,313.9339210999997,None,313.9339210999997,None,316.03410107000036,None,316.03410107000036,None,316.03410107000036,None,,,,,,,,,,,233,28,Female,2022-06-13_18h20.34.327,Main,2022.1.1,60.01035778781126,
negative,negative,2,j,l,,,,,,,,,4,13,85,9,,,,,,,,,,,,,,,,,,,,,,,,main,2,2,2,negative,negative,l,l,1,0.7505025000000387,316.0551968,317.05857840000044,317.0394501999999,None,316.0551968,None,316.0551968,None,316.0551968,None,317.78804536999996,None,317.78804536999996,None,317.78804536999996,None,,,,,,,,,,,233,28,Female,2022-06-13_18h20.34.327,Main,2022.1.1,60.01035778781126,
neutral,positive,1,k,k,,,,,,,,,4,14,86,4,,,,,,,,,,,,,,,,,,,,,,,,main,1,1,1,positive,neutral,k,k,1,0.816486800000348,317.80852890000006,318.81549749999976,318.79507999999987,None,317.80852890000006,None,317.80852890000006,None,317.80852890000006,None,319.6061048700003,None,319.6061048700003,None,319.6061048700003,None,,,,,,,,,,,233,28,Female,2022-06-13_18h20.34.327,Main,2022.1.1,60.01035778781126,
neutral,negative,1,k,k,,,,,,,,,4,15,87,7,,,,,,,,,,,,,,,,,,,,,,,,main,2,2,1,negative,neutral,k,k,1,1.0793010999996113,319.6276418999996,320.64862749999975,320.6072747999997,None,319.6276418999996,None,319.6276418999996,None,319.6276418999996,None,321.6883115700002,None,321.6883115700002,None,321.6883115700002,None,,,,,,,,,,,233,28,Female,2022-06-13_18h20.34.327,Main,2022.1.1,60.01035778781126,
positive,positive,1,l,j,,,,,,,,,4,16,88,2,,,,,,,,,,,,,,,,,,,,,,,,main,1,1,1,positive,positive,j,j,1,0.8632125000003725,321.7092487,322.7177082999997,322.6963501,None,321.7092487,None,321.7092487,None,321.7092487,None,323.5542874699995,None,323.5542874699995,None,323.5542874699995,None,,,,,,,,,,,233,28,Female,2022-06-13_18h20.34.327,Main,2022.1.1,60.01035778781126,
negative,neutral,2,j,l,,,,,,,,,4,17,89,12,,,,,,,,,,,,,,,,,,,,,,,,main,2,2,2,neutral,negative,l,l,1,0.8397936000001209,323.5752897000002,324.5892352000001,324.5695628000003,None,323.5752897000002,None,323.5752897000002,None,323.5752897000002,None,325.3950192700004,None,325.3950192700004,None,325.3950192700004,None,,,,,,,,,,,233,28,Female,2022-06-13_18h20.34.327,Main,2022.1.1,60.01035778781126,
neutral,neutral,1,k,k,,,,,,,,,5,0,90,1,,,,,,,,,,,,,,,,,,,,,,,,main,2,2,1,neutral,neutral,k,k,1,0.7872302999994645,325.41981399999986,326.42621990000043,326.4068083000002,None,325.41981399999986,None,325.41981399999986,None,325.41981399999986,None,327.1871752699999,None,327.1871752699999,None,327.1871752699999,None,,,,,,,,,,,233,28,Female,2022-06-13_18h20.34.327,Main,2022.1.1,60.01035778781126,
positive,neutral,1,l,j,,,,,,,,,5,1,91,8,,,,,,,,,,,,,,,,,,,,,,,,main,2,2,1,neutral,positive,j,j,1,0.9706803999997646,327.2075498000004,328.2271105,328.1877731000004,None,327.2075498000004,None,327.2075498000004,None,327.2075498000004,None,329.1625482700001,None,329.1625482700001,None,329.1625482700001,None,,,,,,,,,,,233,28,Female,2022-06-13_18h20.34.327,Main,2022.1.1,60.01035778781126,
negative,neutral,1,j,l,,,,,,,,,5,2,92,3,,,,,,,,,,,,,,,,,,,,,,,,main,2,2,1,neutral,negative,l,l,1,0.9088398000003508,329.185571,330.20594450000044,330.16524579999987,None,329.185571,None,329.185571,None,329.185571,None,331.07142116999967,None,331.07142116999967,None,331.07142116999967,None,,,,,,,,,,,233,28,Female,2022-06-13_18h20.34.327,Main,2022.1.1,60.01035778781126,
positive,neutral,2,l,j,,,,,,,,,5,3,93,17,,,,,,,,,,,,,,,,,,,,,,,,main,2,2,2,neutral,positive,j,j,1,0.9185615000005782,331.09644240000034,332.1101590999997,332.0708969999996,None,331.09644240000034,None,331.09644240000034,None,331.09644240000034,None,332.99518057000023,None,332.99518057000023,None,332.99518057000023,None,,,,,,,,,,,233,28,Female,2022-06-13_18h20.34.327,Main,2022.1.1,60.01035778781126,
neutral,neutral,2,k,k,,,,,,,,,5,4,94,10,,,,,,,,,,,,,,,,,,,,,,,,main,2,2,2,neutral,neutral,k,k,1,1.0843628000002354,333.0183979000003,334.0347614000002,333.9925599999997,None,333.0183979000003,None,333.0183979000003,None,333.0183979000003,None,335.0819753699998,None,335.0819753699998,None,335.0819753699998,None,,,,,,,,,,,233,28,Female,2022-06-13_18h20.34.327,Main,2022.1.1,60.01035778781126,
positive,negative,1,l,j,,,,,,,,,5,5,95,5,,,,,,,,,,,,,,,,,,,,,,,,main,2,2,1,negative,positive,j,j,1,0.8056292999999641,335.10310240000035,336.1175804000004,336.09626409999964,None,335.10310240000035,None,335.10310240000035,None,335.10310240000035,None,336.88872627,None,336.88872627,None,336.88872627,None,,,,,,,,,,,233,28,Female,2022-06-13_18h20.34.327,Main,2022.1.1,60.01035778781126,
negative,negative,2,j,l,,,,,,,,,5,6,96,9,,,,,,,,,,,,,,,,,,,,,,,,main,2,2,2,negative,negative,l,l,1,0.9018403000000035,336.9141007999997,337.92257979999977,337.9029827000004,None,336.9141007999997,None,336.9141007999997,None,336.9141007999997,None,338.7960880700002,None,338.7960880700002,None,338.7960880700002,None,,,,,,,,,,,233,28,Female,2022-06-13_18h20.34.327,Main,2022.1.1,60.01035778781126,
neutral,negative,2,k,k,,,,,,,,,5,7,97,16,,,,,,,,,,,,,,,,,,,,,,,,main,2,2,2,negative,neutral,k,k,1,0.9658024000000296,338.8182319999996,339.8221080000003,339.80244589999984,None,338.8182319999996,None,338.8182319999996,None,338.8182319999996,None,340.76516096999967,None,340.76516096999967,None,340.76516096999967,None,,,,,,,,,,,233,28,Female,2022-06-13_18h20.34.327,Main,2022.1.1,60.01035778781126,
negative,positive,1,j,l,,,,,,,,,5,8,98,6,,,,,,,,,,,,,,,,,,,,,,,,main,2,2,1,positive,negative,l,j,0,0.9933633999999074,340.78945399999975,341.7918903,341.77225830000043,None,340.78945399999975,None,340.78945399999975,None,340.78945399999975,None,342.76940060000015,None,342.76940060000015,None,342.76940060000015,None,,,,,,,,,,,233,28,Female,2022-06-13_18h20.34.327,Main,2022.1.1,60.01035778781126,
negative,positive,2,j,l,,,,,,,,,5,9,99,15,,,,,,,,,,,,,,,,,,,,,,,,main,1,1,2,positive,negative,l,l,1,0.9926860000005036,343.79056690000016,344.79958160000024,344.7792489000003,None,343.79056690000016,None,343.79056690000016,None,343.79056690000016,None,345.7648114699996,None,345.7648114699996,None,345.7648114699996,None,,,,,,,,,,,233,28,Female,2022-06-13_18h20.34.327,Main,2022.1.1,60.01035778781126,
positive,negative,2,l,j,,,,,,,,,5,10,100,14,,,,,,,,,,,,,,,,,,,,,,,,main,2,2,2,negative,positive,j,j,1,1.3818621999998868,345.78770970000005,346.79763960000037,346.77439680000043,None,345.78770970000005,None,345.78770970000005,None,345.78770970000005,None,348.14990577000026,None,348.14990577000026,None,348.14990577000026,None,,,,,,,,,,,233,28,Female,2022-06-13_18h20.34.327,Main,2022.1.1,60.01035778781126,
positive,positive,1,l,j,,,,,,,,,5,11,101,2,,,,,,,,,,,,,,,,,,,,,,,,main,2,2,1,positive,positive,j,j,1,0.8162505000000237,348.1720769000003,349.1916061000002,349.1498610999997,None,348.1720769000003,None,348.1720769000003,None,348.1720769000003,None,349.9689521700002,None,349.9689521700002,None,349.9689521700002,None,,,,,,,,,,,233,28,Female,2022-06-13_18h20.34.327,Main,2022.1.1,60.01035778781126,
negative,negative,1,j,l,,,,,,,,,5,12,102,0,,,,,,,,,,,,,,,,,,,,,,,,main,1,1,1,negative,negative,l,l,1,0.8450071000006574,349.99376310000025,351.00597319999997,350.9652623000002,None,349.99376310000025,None,349.99376310000025,None,349.99376310000025,None,351.8165051699998,None,351.8165051699998,None,351.8165051699998,None,,,,,,,,,,,233,28,Female,2022-06-13_18h20.34.327,Main,2022.1.1,60.01035778781126,
neutral,negative,1,k,k,,,,,,,,,5,13,103,7,,,,,,,,,,,,,,,,,,,,,,,,main,2,2,1,negative,neutral,k,k,1,0.7872794999993857,351.83736130000034,352.83915330000036,352.8197819999996,None,351.83736130000034,None,351.83736130000034,None,351.83736130000034,None,353.6059037699997,None,353.6059037699997,None,353.6059037699997,None,,,,,,,,,,,233,28,Female,2022-06-13_18h20.34.327,Main,2022.1.1,60.01035778781126,
positive,positive,2,l,j,,,,,,,,,5,14,104,11,,,,,,,,,,,,,,,,,,,,,,,,main,2,2,2,positive,positive,j,j,1,0.7177520999994158,353.63260660000014,354.63509559999966,354.6155583999998,None,353.63260660000014,None,353.63260660000014,None,353.63260660000014,None,355.3283877699996,None,355.3283877699996,None,355.3283877699996,None,,,,,,,,,,,233,28,Female,2022-06-13_18h20.34.327,Main,2022.1.1,60.01035778781126,
neutral,positive,1,k,k,,,,,,,,,5,15,105,4,,,,,,,,,,,,,,,,,,,,,,,,main,1,1,1,positive,neutral,k,k,1,0.8245025000005626,355.3506018999997,356.36821210000016,356.3276705999997,None,355.3506018999997,None,355.3506018999997,None,355.3506018999997,None,357.15727136999976,None,357.15727136999976,None,357.15727136999976,None,,,,,,,,,,,233,28,Female,2022-06-13_18h20.34.327,Main,2022.1.1,60.01035778781126,
neutral,positive,2,k,k,,,,,,,,,5,16,106,13,,,,,,,,,,,,,,,,,,,,,,,,main,1,1,2,positive,neutral,k,k,1,0.7344625999994605,357.1777417000003,358.18646100000024,358.16693060000034,None,357.1777417000003,None,357.1777417000003,None,357.1777417000003,None,358.89403157000015,None,358.89403157000015,None,358.89403157000015,None,,,,,,,,,,,233,28,Female,2022-06-13_18h20.34.327,Main,2022.1.1,60.01035778781126,
negative,neutral,2,j,l,,,,,,,,,5,17,107,12,,,,,,,,,,,,,,,,,,,,,,,,main,2,2,2,neutral,negative,l,l,1,0.7695167000001675,358.9148189999996,359.92193700000007,359.90229759999966,None,358.9148189999996,None,358.9148189999996,None,358.9148189999996,None,360.66426326999954,None,360.66426326999954,None,360.66426326999954,None,,,,,,,,,,,233,28,Female,2022-06-13_18h20.34.327,Main,2022.1.1,60.01035778781126,
negative,negative,1,j,l,,,,,,,,,6,0,108,0,,,,,,,,,,,,,,,,,,,,,,,,main,2,2,1,negative,negative,l,l,1,0.8168443000004117,360.68523860000005,361.69379839999965,361.67309680000017,None,360.68523860000005,None,360.68523860000005,None,360.68523860000005,None,362.4840124700004,None,362.4840124700004,None,362.4840124700004,None,,,,,,,,,,,233,28,Female,2022-06-13_18h20.34.327,Main,2022.1.1,60.01035778781126,
positive,positive,2,l,j,,,,,,,,,6,1,109,11,,,,,,,,,,,,,,,,,,,,,,,,main,2,2,2,positive,positive,j,j,1,1.7142063000001144,362.50666900000033,363.52310320000015,363.4836763000003,None,362.50666900000033,None,362.50666900000033,None,362.50666900000033,None,365.2096234999999,None,365.2096234999999,None,365.2096234999999,None,,,,,,,,,,,233,28,Female,2022-06-13_18h20.34.327,Main,2022.1.1,60.01035778781126,
positive,negative,2,l,j,,,,,,,,,6,2,110,14,,,,,,,,,,,,,,,,,,,,,,,,main,1,1,2,negative,positive,j,j,1,0.8402090999998109,366.2215907,367.23502439999993,367.2157963999998,None,366.2215907,None,366.2215907,None,366.2215907,None,368.04325227000027,None,368.04325227000027,None,368.04325227000027,None,,,,,,,,,,,233,28,Female,2022-06-13_18h20.34.327,Main,2022.1.1,60.01035778781126,
positive,neutral,1,l,j,,,,,,,,,6,3,111,8,,,,,,,,,,,,,,,,,,,,,,,,main,1,1,1,neutral,positive,j,j,1,0.8639996000001702,368.06390159999955,369.06598479999957,369.04669470000044,None,368.06390159999955,None,368.06390159999955,None,368.06390159999955,None,369.91057447000003,None,369.91057447000003,None,369.91057447000003,None,,,,,,,,,,,233,28,Female,2022-06-13_18h20.34.327,Main,2022.1.1,60.01035778781126,
positive,positive,1,l,j,,,,,,,,,6,4,112,2,,,,,,,,,,,,,,,,,,,,,,,,main,1,1,1,positive,positive,j,j,1,1.106408300000112,369.9331849,370.94795299999987,370.90657399999964,None,369.9331849,None,369.9331849,None,369.9331849,None,372.0194785699996,None,372.0194785699996,None,372.0194785699996,None,,,,,,,,,,,233,28,Female,2022-06-13_18h20.34.327,Main,2022.1.1,60.01035778781126,
negative,negative,2,j,l,,,,,,,,,6,5,113,9,,,,,,,,,,,,,,,,,,,,,,,,main,1,1,2,negative,negative,l,l,1,0.7840811999994912,372.04010089999974,373.0495406,373.0305887000004,None,372.04010089999974,None,372.04010089999974,None,372.04010089999974,None,373.80813657,None,373.80813657,None,373.80813657,None,,,,,,,,,,,233,28,Female,2022-06-13_18h20.34.327,Main,2022.1.1,60.01035778781126,
negative,positive,2,j,l,,,,,,,,,6,6,114,15,,,,,,,,,,,,,,,,,,,,,,,,main,1,1,2,positive,negative,l,l,1,0.7741225999998278,373.8298912999999,374.8327913000003,374.81294049999997,None,373.8298912999999,None,373.8298912999999,None,373.8298912999999,None,375.5821710700002,None,375.5821710700002,None,375.5821710700002,None,,,,,,,,,,,233,28,Female,2022-06-13_18h20.34.327,Main,2022.1.1,60.01035778781126,
negative,neutral,1,j,l,,,,,,,,,6,7,115,3,,,,,,,,,,,,,,,,,,,,,,,,main,2,2,1,neutral,negative,l,l,1,0.7170575000000099,375.6050046999999,376.61844649999966,376.5790882000001,None,375.6050046999999,None,375.6050046999999,None,375.6050046999999,None,377.3041419700003,None,377.3041419700003,None,377.3041419700003,None,,,,,,,,,,,233,28,Female,2022-06-13_18h20.34.327,Main,2022.1.1,60.01035778781126,
neutral,positive,1,k,k,,,,,,,,,6,8,116,4,,,,,,,,,,,,,,,,,,,,,,,,main,2,2,1,positive,neutral,k,k,1,0.8280019999992874,377.3248805000003,378.34095909999996,378.30008459999954,None,377.3248805000003,None,377.3248805000003,None,377.3248805000003,None,379.1323372699999,None,379.1323372699999,None,379.1323372699999,None,,,,,,,,,,,233,28,Female,2022-06-13_18h20.34.327,Main,2022.1.1,60.01035778781126,
neutral,neutral,2,k,k,,,,,,,,,6,9,117,10,,,,,,,,,,,,,,,,,,,,,,,,main,2,2,2,neutral,neutral,k,k,1,0.7523217999996632,379.15548820000004,380.1652285,380.14594000000034,None,379.15548820000004,None,379.15548820000004,None,379.15548820000004,None,380.89007587000015,None,380.89007587000015,None,380.89007587000015,None,,,,,,,,,,,233,28,Female,2022-06-13_18h20.34.327,Main,2022.1.1,60.01035778781126,
negative,neutral,2,j,l,,,,,,,,,6,10,118,12,,,,,,,,,,,,,,,,,,,,,,,,main,1,1,2,neutral,negative,l,l,1,0.8577126999998654,380.9124082999997,381.92501249999987,381.8842464999998,None,380.9124082999997,None,380.9124082999997,None,380.9124082999997,None,382.74730786999953,None,382.74730786999953,None,382.74730786999953,None,,,,,,,,,,,233,28,Female,2022-06-13_18h20.34.327,Main,2022.1.1,60.01035778781126,
positive,neutral,2,l,j,,,,,,,,,6,11,119,17,,,,,,,,,,,,,,,,,,,,,,,,main,2,2,2,neutral,positive,j,j,1,0.7069564000003083,382.7689547,383.78435269999954,383.764271,None,382.7689547,None,382.7689547,None,382.7689547,None,384.45944407000025,None,384.45944407000025,None,384.45944407000025,None,,,,,,,,,,,233,28,Female,2022-06-13_18h20.34.327,Main,2022.1.1,60.01035778781126,
neutral,negative,2,k,k,,,,,,,,,6,12,120,16,,,,,,,,,,,,,,,,,,,,,,,,main,2,2,2,negative,neutral,k,k,1,0.725521899999876,384.4838651,385.50313089999963,385.4639183999998,None,384.4838651,None,384.4838651,None,384.4838651,None,386.1910999700003,None,386.1910999700003,None,386.1910999700003,None,,,,,,,,,,,233,28,Female,2022-06-13_18h20.34.327,Main,2022.1.1,60.01035778781126,
negative,positive,1,j,l,,,,,,,,,6,13,121,6,,,,,,,,,,,,,,,,,,,,,,,,main,2,2,1,positive,negative,l,l,1,0.9068176999999196,386.2143659000003,387.23222910000004,387.19356179999977,None,386.2143659000003,None,386.2143659000003,None,386.2143659000003,None,388.1026966700001,None,388.1026966700001,None,388.1026966700001,None,,,,,,,,,,,233,28,Female,2022-06-13_18h20.34.327,Main,2022.1.1,60.01035778781126,
neutral,negative,1,k,k,,,,,,,,,6,14,122,7,,,,,,,,,,,,,,,,,,,,,,,,main,2,2,1,negative,neutral,k,k,1,0.7601112000002104,388.1235663999996,389.1332196000003,389.1139581999996,None,388.1235663999996,None,388.1235663999996,None,388.1235663999996,None,389.86277797,None,389.86277797,None,389.86277797,None,,,,,,,,,,,233,28,Female,2022-06-13_18h20.34.327,Main,2022.1.1,60.01035778781126,
neutral,neutral,1,k,k,,,,,,,,,6,15,123,1,,,,,,,,,,,,,,,,,,,,,,,,main,1,1,1,neutral,neutral,k,k,1,0.6181623000002219,389.8838138000001,390.89919009999994,390.86088349999955,None,389.8838138000001,None,389.8838138000001,None,389.8838138000001,None,391.48389056999986,None,391.48389056999986,None,391.48389056999986,None,,,,,,,,,,,233,28,Female,2022-06-13_18h20.34.327,Main,2022.1.1,60.01035778781126,
positive,negative,1,l,j,,,,,,,,,6,16,124,5,,,,,,,,,,,,,,,,,,,,,,,,main,2,2,1,negative,positive,j,j,1,0.9287779999995109,391.5076411,392.51909539999997,392.48023959999955,None,391.5076411,None,391.5076411,None,391.5076411,None,393.4142527699996,None,393.4142527699996,None,393.4142527699996,None,,,,,,,,,,,233,28,Female,2022-06-13_18h20.34.327,Main,2022.1.1,60.01035778781126,
neutral,positive,2,k,k,,,,,,,,,6,17,125,13,,,,,,,,,,,,,,,,,,,,,,,,main,1,1,2,positive,neutral,k,k,1,1.005045699999755,393.43482740000036,394.4560841000002,394.4154553999997,None,393.43482740000036,None,393.43482740000036,None,393.43482740000036,None,395.42488397000034,None,395.42488397000034,None,395.42488397000034,None,,,,,,,,,,,233,28,Female,2022-06-13_18h20.34.327,Main,2022.1.1,60.01035778781126,
negative,positive,2,j,l,,,,,,,,,7,0,126,15,,,,,,,,,,,,,,,,,,,,,,,,main,2,2,2,positive,negative,l,l,1,0.8545160000003307,395.44722420000016,396.46032039999955,396.4391016999998,None,395.44722420000016,None,395.44722420000016,None,395.44722420000016,None,397.28570457000023,None,397.28570457000023,None,397.28570457000023,None,,,,,,,,,,,233,28,Female,2022-06-13_18h20.34.327,Main,2022.1.1,60.01035778781126,
negative,negative,2,j,l,,,,,,,,,7,1,127,9,,,,,,,,,,,,,,,,,,,,,,,,main,2,2,2,negative,negative,l,l,1,0.8024278000002596,397.30603319999955,398.32755240000006,398.2854662,None,397.30603319999955,None,397.30603319999955,None,397.30603319999955,None,399.09057157000007,None,399.09057157000007,None,399.09057157000007,None,,,,,,,,,,,233,28,Female,2022-06-13_18h20.34.327,Main,2022.1.1,60.01035778781126,
positive,neutral,1,l,j,,,,,,,,,7,2,128,8,,,,,,,,,,,,,,,,,,,,,,,,main,2,2,1,neutral,positive,j,j,1,0.9534483999996155,399.1112794999999,400.1180653000001,400.09719479999967,None,399.1112794999999,None,399.1112794999999,None,399.1112794999999,None,401.04391717,None,401.04391717,None,401.04391717,None,,,,,,,,,,,233,28,Female,2022-06-13_18h20.34.327,Main,2022.1.1,60.01035778781126,
positive,neutral,2,l,j,,,,,,,,,7,3,129,17,,,,,,,,,,,,,,,,,,,,,,,,main,2,2,2,neutral,positive,j,j,1,0.6651416000004247,401.06610379999984,402.08388639999976,402.04435529999955,None,401.06610379999984,None,401.06610379999984,None,401.06610379999984,None,402.71319227000004,None,402.71319227000004,None,402.71319227000004,None,,,,,,,,,,,233,28,Female,2022-06-13_18h20.34.327,Main,2022.1.1,60.01035778781126,
neutral,negative,2,k,k,,,,,,,,,7,4,130,16,,,,,,,,,,,,,,,,,,,,,,,,main,2,2,2,negative,neutral,k,k,1,0.9878951000000598,402.73744890000035,403.7593235000004,403.71740469999986,None,402.73744890000035,None,402.73744890000035,None,402.73744890000035,None,404.70624087000033,None,404.70624087000033,None,404.70624087000033,None,,,,,,,,,,,233,28,Female,2022-06-13_18h20.34.327,Main,2022.1.1,60.01035778781126,
negative,neutral,2,j,l,,,,,,,,,7,5,131,12,,,,,,,,,,,,,,,,,,,,,,,,main,2,2,2,neutral,negative,l,l,1,0.8909351999991486,404.72805400000016,405.7322340999999,405.7113483000003,None,404.72805400000016,None,404.72805400000016,None,404.72805400000016,None,406.60097037000014,None,406.60097037000014,None,406.60097037000014,None,,,,,,,,,,,233,28,Female,2022-06-13_18h20.34.327,Main,2022.1.1,60.01035778781126,
neutral,neutral,1,k,k,,,,,,,,,7,6,132,1,,,,,,,,,,,,,,,,,,,,,,,,main,2,2,1,neutral,neutral,k,k,1,0.798484400000234,406.62288269999954,407.63484940000035,407.5955753999997,None,406.62288269999954,None,406.62288269999954,None,406.62288269999954,None,408.4019809700003,None,408.4019809700003,None,408.4019809700003,None,,,,,,,,,,,233,28,Female,2022-06-13_18h20.34.327,Main,2022.1.1,60.01035778781126,
neutral,negative,1,k,k,,,,,,,,,7,7,133,7,,,,,,,,,,,,,,,,,,,,,,,,main,1,1,1,negative,neutral,k,k,1,0.6937413000005108,408.42391549999957,409.43258719999994,409.41240990000006,None,408.42391549999957,None,408.42391549999957,None,408.42391549999957,None,410.09925077000025,None,410.09925077000025,None,410.09925077000025,None,,,,,,,,,,,233,28,Female,2022-06-13_18h20.34.327,Main,2022.1.1,60.01035778781126,
positive,positive,2,l,j,,,,,,,,,7,8,134,11,,,,,,,,,,,,,,,,,,,,,,,,main,2,2,2,positive,positive,j,j,1,0.792467499999475,410.1205173999997,411.1365115999997,411.0957808000003,None,410.1205173999997,None,410.1205173999997,None,410.1205173999997,None,411.8920742700002,None,411.8920742700002,None,411.8920742700002,None,,,,,,,,,,,233,28,Female,2022-06-13_18h20.34.327,Main,2022.1.1,60.01035778781126,
neutral,neutral,2,k,k,,,,,,,,,7,9,135,10,,,,,,,,,,,,,,,,,,,,,,,,main,1,1,2,neutral,neutral,k,k,1,1.3141740999999456,411.91268669999954,412.92056179999963,412.89842299999964,None,411.91268669999954,None,411.91268669999954,None,411.91268669999954,None,414.2091512699999,None,414.2091512699999,None,414.2091512699999,None,,,,,,,,,,,233,28,Female,2022-06-13_18h20.34.327,Main,2022.1.1,60.01035778781126,
positive,negative,1,l,j,,,,,,,,,7,10,136,5,,,,,,,,,,,,,,,,,,,,,,,,main,2,2,1,negative,positive,j,j,1,0.6910346999993635,414.2301444000004,415.24868349999997,415.20985420000034,None,414.2301444000004,None,414.2301444000004,None,414.2301444000004,None,415.90492557000016,None,415.90492557000016,None,415.90492557000016,None,,,,,,,,,,,233,28,Female,2022-06-13_18h20.34.327,Main,2022.1.1,60.01035778781126,
positive,positive,1,l,j,,,,,,,,,7,11,137,2,,,,,,,,,,,,,,,,,,,,,,,,main,1,1,1,positive,positive,j,j,1,0.6996854999997595,415.9285369999998,416.9380559000001,416.91699289999997,None,415.9285369999998,None,415.9285369999998,None,415.9285369999998,None,417.60875616999965,None,417.60875616999965,None,417.60875616999965,None,,,,,,,,,,,233,28,Female,2022-06-13_18h20.34.327,Main,2022.1.1,60.01035778781126,
negative,neutral,1,j,l,,,,,,,,,7,12,138,3,,,,,,,,,,,,,,,,,,,,,,,,main,1,1,1,neutral,negative,l,l,1,0.9494321000001946,417.63522490000014,418.6545619999997,418.6141656,None,417.63522490000014,None,417.63522490000014,None,417.63522490000014,None,419.5613963699998,None,419.5613963699998,None,419.5613963699998,None,,,,,,,,,,,233,28,Female,2022-06-13_18h20.34.327,Main,2022.1.1,60.01035778781126,
positive,negative,2,l,j,,,,,,,,,7,13,139,14,,,,,,,,,,,,,,,,,,,,,,,,main,1,1,2,negative,positive,j,j,1,0.9693467999995846,419.58639200000016,420.5898622000004,420.56944289999956,None,419.58639200000016,None,419.58639200000016,None,419.58639200000016,None,421.53600867000023,None,421.53600867000023,None,421.53600867000023,None,,,,,,,,,,,233,28,Female,2022-06-13_18h20.34.327,Main,2022.1.1,60.01035778781126,
negative,negative,1,j,l,,,,,,,,,7,14,140,0,,,,,,,,,,,,,,,,,,,,,,,,main,1,1,1,negative,negative,l,l,1,1.4119110000001456,421.55825939999977,422.56566790000034,422.5461994999996,None,421.55825939999977,None,421.55825939999977,None,421.55825939999977,None,423.9499671699996,None,423.9499671699996,None,423.9499671699996,None,,,,,,,,,,,233,28,Female,2022-06-13_18h20.34.327,Main,2022.1.1,60.01035778781126,
negative,positive,1,j,l,,,,,,,,,7,15,141,6,,,,,,,,,,,,,,,,,,,,,,,,main,2,2,1,positive,negative,l,l,1,0.8321470999999292,423.97107179999966,424.99091020000014,424.9478949000004,None,423.97107179999966,None,423.97107179999966,None,423.97107179999966,None,425.78484527,None,425.78484527,None,425.78484527,None,,,,,,,,,,,233,28,Female,2022-06-13_18h20.34.327,Main,2022.1.1,60.01035778781126,
neutral,positive,1,k,k,,,,,,,,,7,16,142,4,,,,,,,,,,,,,,,,,,,,,,,,main,2,2,1,positive,neutral,k,k,1,0.8296731000000364,425.8062958999999,426.8250544000002,426.7840906000001,None,425.8062958999999,None,425.8062958999999,None,425.8062958999999,None,427.61754437000036,None,427.61754437000036,None,427.61754437000036,None,,,,,,,,,,,233,28,Female,2022-06-13_18h20.34.327,Main,2022.1.1,60.01035778781126,
neutral,positive,2,k,k,,,,,,,,,7,17,143,13,,,,,,,,,,,,,,,,,,,,,,,,main,1,1,2,positive,neutral,k,k,1,0.7741249000000607,427.6391381000003,428.6460659000004,428.6269728999996,None,427.6391381000003,None,427.6391381000003,None,427.6391381000003,None,429.39132037000036,None,429.39132037000036,None,429.39132037000036,None,,,,,,,,,,,233,28,Female,2022-06-13_18h20.34.327,Main,2022.1.1,60.01035778781126,
neutral,negative,1,k,k,,,,,,,,,8,0,144,7,,,,,,,,,,,,,,,,,,,,,,,,main,1,1,1,negative,neutral,k,k,1,0.7130973000002996,429.4168917999996,430.42350239999996,430.40138879999995,None,429.4168917999996,None,429.4168917999996,None,429.4168917999996,None,431.1069390699995,None,431.1069390699995,None,431.1069390699995,None,,,,,,,,,,,233,28,Female,2022-06-13_18h20.34.327,Main,2022.1.1,60.01035778781126,
negative,positive,1,j,l,,,,,,,,,8,1,145,6,,,,,,,,,,,,,,,,,,,,,,,,main,1,1,1,positive,negative,l,l,1,0.9478827000002639,431.12850160000016,432.144542,432.1059759999998,None,431.12850160000016,None,431.12850160000016,None,431.12850160000016,None,433.05685016999996,None,433.05685016999996,None,433.05685016999996,None,,,,,,,,,,,233,28,Female,2022-06-13_18h20.34.327,Main,2022.1.1,60.01035778781126,
negative,positive,2,j,l,,,,,,,,,8,2,146,15,,,,,,,,,,,,,,,,,,,,,,,,main,1,1,2,positive,negative,l,l,1,1.171889100000044,433.07819219999965,434.07977459999984,434.0605464999999,None,433.07819219999965,None,433.07819219999965,None,433.07819219999965,None,435.23414496999976,None,435.23414496999976,None,435.23414496999976,None,,,,,,,,,,,233,28,Female,2022-06-13_18h20.34.327,Main,2022.1.1,60.01035778781126,
negative,neutral,1,j,l,,,,,,,,,8,3,147,3,,,,,,,,,,,,,,,,,,,,,,,,main,2,2,1,neutral,negative,l,l,1,0.7383178999998563,435.25629019999997,436.26378980000027,436.2443357000002,None,435.25629019999997,None,435.25629019999997,None,435.25629019999997,None,436.97277527000006,None,436.97277527000006,None,436.97277527000006,None,,,,,,,,,,,233,28,Female,2022-06-13_18h20.34.327,Main,2022.1.1,60.01035778781126,
negative,neutral,2,j,l,,,,,,,,,8,4,148,12,,,,,,,,,,,,,,,,,,,,,,,,main,1,1,2,neutral,negative,l,l,1,1.2252589999998236,436.9940853999997,437.99785090000023,437.97688089999974,None,436.9940853999997,None,436.9940853999997,None,436.9940853999997,None,439.2030449699996,None,439.2030449699996,None,439.2030449699996,None,,,,,,,,,,,233,28,Female,2022-06-13_18h20.34.327,Main,2022.1.1,60.01035778781126,
neutral,negative,2,k,k,,,,,,,,,8,5,149,16,,,,,,,,,,,,,,,,,,,,,,,,main,1,1,2,negative,neutral,k,k,1,1.3178619999998773,439.2271995000001,440.22962199999984,440.2103532000001,None,439.2271995000001,None,439.2271995000001,None,439.2271995000001,None,441.5249450700003,None,441.5249450700003,None,441.5249450700003,None,,,,,,,,,,,233,28,Female,2022-06-13_18h20.34.327,Main,2022.1.1,60.01035778781126,
neutral,neutral,2,k,k,,,,,,,,,8,6,150,10,,,,,,,,,,,,,,,,,,,,,,,,main,2,2,2,neutral,neutral,k,k,1,0.6125318999993397,441.55055429999993,442.5548781999996,442.53347360000043,None,441.55055429999993,None,441.55055429999993,None,441.55055429999993,None,443.14032726999994,None,443.14032726999994,None,443.14032726999994,None,,,,,,,,,,,233,28,Female,2022-06-13_18h20.34.327,Main,2022.1.1,60.01035778781126,
positive,neutral,2,l,j,,,,,,,,,8,7,151,17,,,,,,,,,,,,,,,,,,,,,,,,main,2,2,2,neutral,positive,j,j,1,1.2728010999999242,443.1622100000004,444.17658049999955,444.1392085999996,None,443.1622100000004,None,443.1622100000004,None,443.1622100000004,None,445.41740866999953,None,445.41740866999953,None,445.41740866999953,None,,,,,,,,,,,233,28,Female,2022-06-13_18h20.34.327,Main,2022.1.1,60.01035778781126,
positive,positive,2,l,j,,,,,,,,,8,8,152,11,,,,,,,,,,,,,,,,,,,,,,,,main,2,2,2,positive,positive,j,j,1,1.2651646000003893,445.44210999999996,446.4551604999997,446.4343743999998,None,445.44210999999996,None,445.44210999999996,None,445.44210999999996,None,447.68724647,None,447.68724647,None,447.68724647,None,,,,,,,,,,,233,28,Female,2022-06-13_18h20.34.327,Main,2022.1.1,60.01035778781126,
neutral,neutral,1,k,k,,,,,,,,,8,9,153,1,,,,,,,,,,,,,,,,,,,,,,,,main,2,2,1,neutral,neutral,k,k,1,0.8267508999997517,447.7092478000004,448.72800610000013,448.6892957,None,447.7092478000004,None,447.7092478000004,None,447.7092478000004,None,449.5183587700003,None,449.5183587700003,None,449.5183587700003,None,,,,,,,,,,,233,28,Female,2022-06-13_18h20.34.327,Main,2022.1.1,60.01035778781126,
positive,positive,1,l,j,,,,,,,,,8,10,154,2,,,,,,,,,,,,,,,,,,,,,,,,main,1,1,1,positive,positive,j,j,1,0.8740161999994598,449.5408551999999,450.54397270000027,450.52692690000003,None,449.5408551999999,None,449.5408551999999,None,449.5408551999999,None,451.3978682699999,None,451.3978682699999,None,451.3978682699999,None,,,,,,,,,,,233,28,Female,2022-06-13_18h20.34.327,Main,2022.1.1,60.01035778781126,
positive,negative,1,l,j,,,,,,,,,8,11,155,5,,,,,,,,,,,,,,,,,,,,,,,,main,2,2,1,negative,positive,j,j,1,1.092700700000023,451.4213079000001,452.42702180000015,452.4075052999997,None,451.4213079000001,None,451.4213079000001,None,451.4213079000001,None,453.4931111699998,None,453.4931111699998,None,453.4931111699998,None,,,,,,,,,,,233,28,Female,2022-06-13_18h20.34.327,Main,2022.1.1,60.01035778781126,
neutral,positive,1,k,k,,,,,,,,,8,12,156,4,,,,,,,,,,,,,,,,,,,,,,,,main,1,1,1,positive,neutral,k,k,1,1.002269100000376,453.51663290000033,454.5259904000004,454.50594699999965,None,453.51663290000033,None,453.51663290000033,None,453.51663290000033,None,455.49758226999984,None,455.49758226999984,None,455.49758226999984,None,,,,,,,,,,,233,28,Female,2022-06-13_18h20.34.327,Main,2022.1.1,60.01035778781126,
negative,negative,2,j,l,,,,,,,,,8,13,157,9,,,,,,,,,,,,,,,,,,,,,,,,main,2,2,2,negative,negative,l,l,1,1.016369100000702,455.5214023999997,456.5279005000002,456.50829220000014,None,455.5214023999997,None,455.5214023999997,None,455.5214023999997,None,457.5165942699996,None,457.5165942699996,None,457.5165942699996,None,,,,,,,,,,,233,28,Female,2022-06-13_18h20.34.327,Main,2022.1.1,60.01035778781126,
positive,neutral,1,l,j,,,,,,,,,8,14,158,8,,,,,,,,,,,,,,,,,,,,,,,,main,2,2,1,neutral,positive,j,j,1,1.1391099000002214,457.5386688999997,458.5521294,458.5312737000004,None,457.5386688999997,None,457.5386688999997,None,457.5386688999997,None,459.66085697000017,None,459.66085697000017,None,459.66085697000017,None,,,,,,,,,,,233,28,Female,2022-06-13_18h20.34.327,Main,2022.1.1,60.01035778781126,
positive,negative,2,l,j,,,,,,,,,8,15,159,14,,,,,,,,,,,,,,,,,,,,,,,,main,2,2,2,negative,positive,j,j,1,0.7072651999997106,459.68240590000005,460.70272209999985,460.6611229,None,459.68240590000005,None,459.68240590000005,None,459.68240590000005,None,461.3695492699999,None,461.3695492699999,None,461.3695492699999,None,,,,,,,,,,,233,28,Female,2022-06-13_18h20.34.327,Main,2022.1.1,60.01035778781126,
neutral,positive,2,k,k,,,,,,,,,8,16,160,13,,,,,,,,,,,,,,,,,,,,,,,,main,1,1,2,positive,neutral,k,k,1,0.7358712999994168,461.3906611000002,462.4048875999997,462.3847249999999,None,461.3906611000002,None,461.3906611000002,None,461.3906611000002,None,463.1099595699998,None,463.1099595699998,None,463.1099595699998,None,,,,,,,,,,,233,28,Female,2022-06-13_18h20.34.327,Main,2022.1.1,60.01035778781126,
negative,negative,1,j,l,,,,,,,,,8,17,161,0,,,,,,,,,,,,,,,,,,,,,,,,main,1,1,1,negative,negative,l,l,1,0.9519560999997339,463.13046940000004,464.13467279999986,464.11346330000015,None,463.13046940000004,None,463.13046940000004,None,463.13046940000004,None,465.06437406999976,None,465.06437406999976,None,465.06437406999976,None,,,,,,,,,,,233,28,Female,2022-06-13_18h20.34.327,Main,2022.1.1,60.01035778781126,
positive,positive,1,l,j,,,,,,,,,9,0,162,2,,,,,,,,,,,,,,,,,,,,,,,,main,1,1,1,positive,positive,j,j,1,0.7938254999999117,465.0848877999997,466.0914022999996,466.0718499000004,None,465.0848877999997,None,465.0848877999997,None,465.0848877999997,None,466.8622427700002,None,466.8622427700002,None,466.8622427700002,None,,,,,,,,,,,233,28,Female,2022-06-13_18h20.34.327,Main,2022.1.1,60.01035778781126,
neutral,positive,2,k,k,,,,,,,,,9,1,163,13,,,,,,,,,,,,,,,,,,,,,,,,main,2,2,2,positive,neutral,k,k,1,0.7256480999994892,466.8834428,467.8996645999996,467.8576329999996,None,466.8834428,None,466.8834428,None,466.8834428,None,468.5879301699997,None,468.5879301699997,None,468.5879301699997,None,,,,,,,,,,,233,28,Female,2022-06-13_18h20.34.327,Main,2022.1.1,60.01035778781126,
negative,negative,1,j,l,,,,,,,,,9,2,164,0,,,,,,,,,,,,,,,,,,,,,,,,main,1,1,1,negative,negative,l,l,1,0.8000210999998671,468.6128689999996,469.62235520000013,469.60294539999995,None,468.6128689999996,None,468.6128689999996,None,468.6128689999996,None,470.3933019699998,None,470.3933019699998,None,470.3933019699998,None,,,,,,,,,,,233,28,Female,2022-06-13_18h20.34.327,Main,2022.1.1,60.01035778781126,
neutral,positive,1,k,k,,,,,,,,,9,3,165,4,,,,,,,,,,,,,,,,,,,,,,,,main,2,2,1,positive,neutral,k,k,1,0.782306700000845,470.4144809999998,471.42653359999986,471.40566240000044,None,470.4144809999998,None,470.4144809999998,None,470.4144809999998,None,472.1779274700002,None,472.1779274700002,None,472.1779274700002,None,,,,,,,,,,,233,28,Female,2022-06-13_18h20.34.327,Main,2022.1.1,60.01035778781126,
negative,positive,1,j,l,,,,,,,,,9,4,166,6,,,,,,,,,,,,,,,,,,,,,,,,main,2,2,1,positive,negative,l,l,1,0.8482260999999198,472.2005196,473.2136024000001,473.1912265000001,None,472.2005196,None,472.2005196,None,472.2005196,None,474.0286862699995,None,474.0286862699995,None,474.0286862699995,None,,,,,,,,,,,233,28,Female,2022-06-13_18h20.34.327,Main,2022.1.1,60.01035778781126,
positive,neutral,2,l,j,,,,,,,,,9,5,167,17,,,,,,,,,,,,,,,,,,,,,,,,main,2,2,2,neutral,positive,j,j,1,0.7275494000004983,474.04962460000024,475.0663604000001,475.0242406999996,None,474.04962460000024,None,474.04962460000024,None,474.04962460000024,None,475.75838546999967,None,475.75838546999967,None,475.75838546999967,None,,,,,,,,,,,233,28,Female,2022-06-13_18h20.34.327,Main,2022.1.1,60.01035778781126,
neutral,neutral,2,k,k,,,,,,,,,9,6,168,10,,,,,,,,,,,,,,,,,,,,,,,,main,1,1,2,neutral,neutral,k,k,1,0.7244547000000239,475.77933610000036,476.80053169999974,476.7581521000002,None,475.77933610000036,None,475.77933610000036,None,475.77933610000036,None,477.48326877,None,477.48326877,None,477.48326877,None,,,,,,,,,,,233,28,Female,2022-06-13_18h20.34.327,Main,2022.1.1,60.01035778781126,
positive,neutral,1,l,j,,,,,,,,,9,7,169,8,,,,,,,,,,,,,,,,,,,,,,,,main,1,1,1,neutral,positive,j,j,1,1.0328632999999172,477.5072098999999,478.51177800000005,478.49102109999967,None,477.5072098999999,None,477.5072098999999,None,477.5072098999999,None,479.5201763699997,None,479.5201763699997,None,479.5201763699997,None,,,,,,,,,,,233,28,Female,2022-06-13_18h20.34.327,Main,2022.1.1,60.01035778781126,
positive,negative,1,l,j,,,,,,,,,9,8,170,5,,,,,,,,,,,,,,,,,,,,,,,,main,2,2,1,negative,positive,j,j,1,0.7807517999999618,479.54524130000027,480.55349939999996,480.5342578,None,479.54524130000027,None,479.54524130000027,None,479.54524130000027,None,481.30314956999973,None,481.30314956999973,None,481.30314956999973,None,,,,,,,,,,,233,28,Female,2022-06-13_18h20.34.327,Main,2022.1.1,60.01035778781126,
negative,neutral,1,j,l,,,,,,,,,9,9,171,3,,,,,,,,,,,,,,,,,,,,,,,,main,2,2,1,neutral,negative,l,j,0,0.9510190000000875,481.32449369999995,482.34581009999965,482.30509150000034,None,481.32449369999995,None,481.32449369999995,None,481.32449369999995,None,483.26789929999995,None,483.26789929999995,None,483.26789929999995,None,,,,,,,,,,,233,28,Female,2022-06-13_18h20.34.327,Main,2022.1.1,60.01035778781126,
neutral,neutral,1,k,k,,,,,,,,,9,10,172,1,,,,,,,,,,,,,,,,,,,,,,,,main,2,2,1,neutral,neutral,k,k,1,1.1060766000000513,484.28955060000044,485.3039203999997,485.28422090000004,None,484.28955060000044,None,484.28955060000044,None,484.28955060000044,None,486.37680226999964,None,486.37680226999964,None,486.37680226999964,None,,,,,,,,,,,233,28,Female,2022-06-13_18h20.34.327,Main,2022.1.1,60.01035778781126,
positive,positive,2,l,j,,,,,,,,,9,11,173,11,,,,,,,,,,,,,,,,,,,,,,,,main,2,2,2,positive,positive,j,j,1,0.8442406000003757,486.39991699999973,487.40983640000013,487.38949409999987,None,486.39991699999973,None,486.39991699999973,None,486.39991699999973,None,488.22426557000017,None,488.22426557000017,None,488.22426557000017,None,,,,,,,,,,,233,28,Female,2022-06-13_18h20.34.327,Main,2022.1.1,60.01035778781126,
negative,positive,2,j,l,,,,,,,,,9,12,174,15,,,,,,,,,,,,,,,,,,,,,,,,main,1,1,2,positive,negative,l,l,1,1.1467400000001362,488.2451251000002,489.26021909999963,489.21895680000034,None,488.2451251000002,None,488.2451251000002,None,488.2451251000002,None,490.37129327,None,490.37129327,None,490.37129327,None,,,,,,,,,,,233,28,Female,2022-06-13_18h20.34.327,Main,2022.1.1,60.01035778781126,
negative,neutral,2,j,l,,,,,,,,,9,13,175,12,,,,,,,,,,,,,,,,,,,,,,,,main,2,2,2,neutral,negative,l,l,1,0.8844250000001921,490.3950463000001,491.4019193000004,491.38253840000016,None,490.3950463000001,None,490.3950463000001,None,490.3950463000001,None,492.26052787000026,None,492.26052787000026,None,492.26052787000026,None,,,,,,,,,,,233,28,Female,2022-06-13_18h20.34.327,Main,2022.1.1,60.01035778781126,
negative,negative,2,j,l,,,,,,,,,9,14,176,9,,,,,,,,,,,,,,,,,,,,,,,,main,1,1,2,negative,negative,l,l,1,0.8459358000000066,492.28271179999956,493.3032337000004,493.2641900999997,None,492.28271179999956,None,492.28271179999956,None,492.28271179999956,None,494.10932136999963,None,494.10932136999963,None,494.10932136999963,None,,,,,,,,,,,233,28,Female,2022-06-13_18h20.34.327,Main,2022.1.1,60.01035778781126,
neutral,negative,2,k,k,,,,,,,,,9,15,177,16,,,,,,,,,,,,,,,,,,,,,,,,main,1,1,2,negative,neutral,k,k,1,1.089000799999667,494.1314003999996,495.1328620000004,495.1141109,None,494.1314003999996,None,494.1314003999996,None,494.1314003999996,None,496.1981944700001,None,496.1981944700001,None,496.1981944700001,None,,,,,,,,,,,233,28,Female,2022-06-13_18h20.34.327,Main,2022.1.1,60.01035778781126,
neutral,negative,1,k,k,,,,,,,,,9,16,178,7,,,,,,,,,,,,,,,,,,,,,,,,main,2,2,1,negative,neutral,k,k,1,0.8120546000000104,496.2195609999999,497.2289960999997,497.2089593999999,None,496.2195609999999,None,496.2195609999999,None,496.2195609999999,None,498.01281627000026,None,498.01281627000026,None,498.01281627000026,None,,,,,,,,,,,233,28,Female,2022-06-13_18h20.34.327,Main,2022.1.1,60.01035778781126,
positive,negative,2,l,j,,,,,,,,,9,17,179,14,,,,,,,,,,,,,,,,,,,,,,,,main,1,1,2,negative,positive,j,j,1,0.7675196999998661,498.0341715000004,499.05471690000013,499.0145644000004,None,498.0341715000004,None,498.0341715000004,None,498.0341715000004,None,499.78349127,None,499.78349127,None,499.78349127,None,,,,,,,,,,,233,28,Female,2022-06-13_18h20.34.327,Main,2022.1.1,60.01035778781126,
neutral,positive,2,k,k,,,,,,,,,10,0,180,13,,,,,,,,,,,,,,,,,,,,,,,,main,1,1,2,positive,neutral,k,k,1,0.8955181000001176,499.80551360000027,500.80976329999976,500.78844599999957,None,499.80551360000027,None,499.80551360000027,None,499.80551360000027,None,501.68223217000013,None,501.68223217000013,None,501.68223217000013,None,,,,,,,,,,,233,28,Female,2022-06-13_18h20.34.327,Main,2022.1.1,60.01035778781126,
neutral,negative,2,k,k,,,,,,,,,10,1,181,16,,,,,,,,,,,,,,,,,,,,,,,,main,2,2,2,negative,neutral,k,k,1,0.8475271999996039,501.7081852000001,502.7305051000003,502.68941300000006,None,501.7081852000001,None,501.7081852000001,None,501.7081852000001,None,503.5322543700004,None,503.5322543700004,None,503.5322543700004,None,,,,,,,,,,,233,28,Female,2022-06-13_18h20.34.327,Main,2022.1.1,60.01035778781126,
negative,neutral,1,j,l,,,,,,,,,10,2,182,3,,,,,,,,,,,,,,,,,,,,,,,,main,2,2,1,neutral,negative,l,l,1,0.9514036999999007,503.55691620000016,504.57066920000034,504.5319139000003,None,503.55691620000016,None,503.55691620000016,None,503.55691620000016,None,505.4862068699995,None,505.4862068699995,None,505.4862068699995,None,,,,,,,,,,,233,28,Female,2022-06-13_18h20.34.327,Main,2022.1.1,60.01035778781126,
positive,positive,1,l,j,,,,,,,,,10,3,183,2,,,,,,,,,,,,,,,,,,,,,,,,main,1,1,1,positive,positive,j,j,1,1.791951400000471,505.50701000000026,506.52067259999967,506.4822700000004,None,505.50701000000026,None,505.50701000000026,None,505.50701000000026,None,508.2869472000002,None,508.2869472000002,None,508.2869472000002,None,,,,,,,,,,,233,28,Female,2022-06-13_18h20.34.327,Main,2022.1.1,60.01035778781126,
positive,neutral,2,l,j,,,,,,,,,10,4,184,17,,,,,,,,,,,,,,,,,,,,,,,,main,1,1,2,neutral,positive,j,j,1,0.581198900000345,509.3027572000001,510.31680589999996,510.2977775999998,None,509.3027572000001,None,509.3027572000001,None,509.3027572000001,None,510.86305146999985,None,510.86305146999985,None,510.86305146999985,None,,,,,,,,,,,233,28,Female,2022-06-13_18h20.34.327,Main,2022.1.1,60.01035778781126,
negative,neutral,2,j,l,,,,,,,,,10,5,185,12,,,,,,,,,,,,,,,,,,,,,,,,main,1,1,2,neutral,negative,l,l,1,0.8405941999999413,510.88533559999996,511.9040289000004,511.8637812999996,None,510.88533559999996,None,510.88533559999996,None,510.88533559999996,None,512.7091472700004,None,512.7091472700004,None,512.7091472700004,None,,,,,,,,,,,233,28,Female,2022-06-13_18h20.34.327,Main,2022.1.1,60.01035778781126,
neutral,positive,1,k,k,,,,,,,,,10,6,186,4,,,,,,,,,,,,,,,,,,,,,,,,main,1,1,1,positive,neutral,k,k,1,1.027567999999519,512.7303388999999,513.7452138999997,513.7240510000001,None,512.7303388999999,None,512.7303388999999,None,512.7303388999999,None,514.7418189700002,None,514.7418189700002,None,514.7418189700002,None,,,,,,,,,,,233,28,Female,2022-06-13_18h20.34.327,Main,2022.1.1,60.01035778781126,
positive,negative,2,l,j,,,,,,,,,10,7,187,14,,,,,,,,,,,,,,,,,,,,,,,,main,1,1,2,negative,positive,j,j,1,0.9419115999999121,514.7645427999996,515.7677456000001,515.7483291999997,None,514.7645427999996,None,514.7645427999996,None,514.7645427999996,None,516.6889245700004,None,516.6889245700004,None,516.6889245700004,None,,,,,,,,,,,233,28,Female,2022-06-13_18h20.34.327,Main,2022.1.1,60.01035778781126,
neutral,neutral,1,k,k,,,,,,,,,10,8,188,1,,,,,,,,,,,,,,,,,,,,,,,,main,1,1,1,neutral,neutral,k,k,1,0.8422779000002265,516.7081429,517.7284516999998,517.6862155999997,None,516.7081429,None,516.7081429,None,516.7081429,None,518.53068377,None,518.53068377,None,518.53068377,None,,,,,,,,,,,233,28,Female,2022-06-13_18h20.34.327,Main,2022.1.1,60.01035778781126,
neutral,negative,1,k,k,,,,,,,,,10,9,189,7,,,,,,,,,,,,,,,,,,,,,,,,main,2,2,1,negative,neutral,k,k,1,0.7395307999995566,518.5521312999999,519.5653960999998,519.5457560000004,None,518.5521312999999,None,518.5521312999999,None,518.5521312999999,None,520.2754129699997,None,520.2754129699997,None,520.2754129699997,None,,,,,,,,,,,233,28,Female,2022-06-13_18h20.34.327,Main,2022.1.1,60.01035778781126,
positive,negative,1,l,j,,,,,,,,,10,10,190,5,,,,,,,,,,,,,,,,,,,,,,,,main,1,1,1,negative,positive,j,j,1,0.9736422999994829,520.2958343999999,521.3075601,521.2859904999996,None,520.2958343999999,None,520.2958343999999,None,520.2958343999999,None,522.2522048700002,None,522.2522048700002,None,522.2522048700002,None,,,,,,,,,,,233,28,Female,2022-06-13_18h20.34.327,Main,2022.1.1,60.01035778781126,
negative,negative,1,j,l,,,,,,,,,10,11,191,0,,,,,,,,,,,,,,,,,,,,,,,,main,2,2,1,negative,negative,l,l,1,1.002332199999728,522.2741441999997,523.2850203999997,523.2656281,None,522.2741441999997,None,522.2741441999997,None,522.2741441999997,None,524.2585008699998,None,524.2585008699998,None,524.2585008699998,None,,,,,,,,,,,233,28,Female,2022-06-13_18h20.34.327,Main,2022.1.1,60.01035778781126,
negative,positive,1,j,l,,,,,,,,,10,12,192,6,,,,,,,,,,,,,,,,,,,,,,,,main,1,1,1,positive,negative,l,l,1,0.9361546000000089,524.2795747999999,525.2847826999996,525.2655912999999,None,524.2795747999999,None,524.2795747999999,None,524.2795747999999,None,526.1964662700002,None,526.1964662700002,None,526.1964662700002,None,,,,,,,,,,,233,28,Female,2022-06-13_18h20.34.327,Main,2022.1.1,60.01035778781126,
positive,neutral,1,l,j,,,,,,,,,10,13,193,8,,,,,,,,,,,,,,,,,,,,,,,,main,1,1,1,neutral,positive,j,j,1,0.9203115999998772,526.2179446999999,527.2415539000003,527.1994086000004,None,526.2179446999999,None,526.2179446999999,None,526.2179446999999,None,528.1225831700003,None,528.1225831700003,None,528.1225831700003,None,,,,,,,,,,,233,28,Female,2022-06-13_18h20.34.327,Main,2022.1.1,60.01035778781126,
positive,positive,2,l,j,,,,,,,,,10,14,194,11,,,,,,,,,,,,,,,,,,,,,,,,main,2,2,2,positive,positive,j,j,1,0.6797644999996919,528.1446095000001,529.1519752000004,529.1320828999997,None,528.1446095000001,None,528.1446095000001,None,528.1446095000001,None,529.8048732699999,None,529.8048732699999,None,529.8048732699999,None,,,,,,,,,,,233,28,Female,2022-06-13_18h20.34.327,Main,2022.1.1,60.01035778781126,
negative,negative,2,j,l,,,,,,,,,10,15,195,9,,,,,,,,,,,,,,,,,,,,,,,,main,2,2,2,negative,negative,l,l,1,0.8096614999994927,529.8272370000004,530.8303926999997,530.8113739,None,529.8272370000004,None,529.8272370000004,None,529.8272370000004,None,531.6168846700002,None,531.6168846700002,None,531.6168846700002,None,,,,,,,,,,,233,28,Female,2022-06-13_18h20.34.327,Main,2022.1.1,60.01035778781126,
negative,positive,2,j,l,,,,,,,,,10,16,196,15,,,,,,,,,,,,,,,,,,,,,,,,main,2,2,2,positive,negative,l,l,1,0.8445595000002868,531.6383696000003,532.6492135999997,532.6299491999998,None,531.6383696000003,None,531.6383696000003,None,531.6383696000003,None,533.46013907,None,533.46013907,None,533.46013907,None,,,,,,,,,,,233,28,Female,2022-06-13_18h20.34.327,Main,2022.1.1,60.01035778781126,
neutral,neutral,2,k,k,,,,,,,,,10,17,197,10,,,,,,,,,,,,,,,,,,,,,,,,main,2,2,2,neutral,neutral,k,k,1,0.8549525000007634,533.4826320000002,534.4936981000001,534.4726336000003,None,533.4826320000002,None,533.4826320000002,None,533.4826320000002,None,535.3213860699998,None,535.3213860699998,None,535.3213860699998,None,,,,,,,,,,,233,28,Female,2022-06-13_18h20.34.327,Main,2022.1.1,60.01035778781126,
neutral,positive,2,k,k,,,,,,,,,11,0,198,13,,,,,,,,,,,,,,,,,,,,,,,,main,1,1,2,positive,neutral,k,k,1,1.0387614999999641,535.3427375000001,536.3547288999998,536.3338948999999,None,535.3427375000001,None,535.3427375000001,None,535.3427375000001,None,537.3608351699995,None,537.3608351699995,None,537.3608351699995,None,,,,,,,,,,,233,28,Female,2022-06-13_18h20.34.327,Main,2022.1.1,60.01035778781126,
negative,neutral,2,j,l,,,,,,,,,11,1,199,12,,,,,,,,,,,,,,,,,,,,,,,,main,2,2,2,neutral,negative,l,l,1,1.0654678999999305,537.3820581,538.3995617,538.3606422000003,None,537.3820581,None,537.3820581,None,537.3820581,None,539.4288156699995,None,539.4288156699995,None,539.4288156699995,None,,,,,,,,,,,233,28,Female,2022-06-13_18h20.34.327,Main,2022.1.1,60.01035778781126,
negative,positive,1,j,l,,,,,,,,,11,2,200,6,,,,,,,,,,,,,,,,,,,,,,,,main,2,2,1,positive,negative,l,l,1,1.004863799999839,539.4515609,540.4664839999996,540.4468878999996,None,539.4515609,None,539.4515609,None,539.4515609,None,541.4379316699997,None,541.4379316699997,None,541.4379316699997,None,,,,,,,,,,,233,28,Female,2022-06-13_18h20.34.327,Main,2022.1.1,60.01035778781126,
positive,positive,2,l,j,,,,,,,,,11,3,201,11,,,,,,,,,,,,,,,,,,,,,,,,main,1,1,2,positive,positive,j,j,1,0.8172183999995468,541.4609073000001,542.4698681,542.4491332999996,None,541.4609073000001,None,541.4609073000001,None,541.4609073000001,None,543.2576699700003,None,543.2576699700003,None,543.2576699700003,None,,,,,,,,,,,233,28,Female,2022-06-13_18h20.34.327,Main,2022.1.1,60.01035778781126,
positive,negative,1,l,j,,,,,,,,,11,4,202,5,,,,,,,,,,,,,,,,,,,,,,,,main,2,2,1,negative,positive,j,j,1,1.038422399999945,543.2816171000004,544.2939183999997,544.2747413999996,None,543.2816171000004,None,543.2816171000004,None,543.2816171000004,None,545.3022298699998,None,545.3022298699998,None,545.3022298699998,None,,,,,,,,,,,233,28,Female,2022-06-13_18h20.34.327,Main,2022.1.1,60.01035778781126,
negative,negative,2,j,l,,,,,,,,,11,5,203,9,,,,,,,,,,,,,,,,,,,,,,,,main,1,1,2,negative,negative,l,l,1,0.8642608000000109,545.3245206000001,546.3307734,546.3112418999999,None,545.3245206000001,None,545.3245206000001,None,545.3245206000001,None,547.1696830700002,None,547.1696830700002,None,547.1696830700002,None,,,,,,,,,,,233,28,Female,2022-06-13_18h20.34.327,Main,2022.1.1,60.01035778781126,
neutral,positive,1,k,k,,,,,,,,,11,6,204,4,,,,,,,,,,,,,,,,,,,,,,,,main,1,1,1,positive,neutral,k,k,1,0.8161639999998442,547.1904010999997,548.1969132000004,548.1773387000003,None,547.1904010999997,None,547.1904010999997,None,547.1904010999997,None,548.9877256700001,None,548.9877256700001,None,548.9877256700001,None,,,,,,,,,,,233,28,Female,2022-06-13_18h20.34.327,Main,2022.1.1,60.01035778781126,
neutral,negative,1,k,k,,,,,,,,,11,7,205,7,,,,,,,,,,,,,,,,,,,,,,,,main,2,2,1,negative,neutral,k,k,1,0.8233171000001676,549.0089045000004,550.0248032999998,550.0020133999997,None,549.0089045000004,None,549.0089045000004,None,549.0089045000004,None,550.8133880699997,None,550.8133880699997,None,550.8133880699997,None,,,,,,,,,,,233,28,Female,2022-06-13_18h20.34.327,Main,2022.1.1,60.01035778781126,
negative,positive,2,j,l,,,,,,,,,11,8,206,15,,,,,,,,,,,,,,,,,,,,,,,,main,2,2,2,positive,negative,l,l,1,0.9496286000003238,550.8352889999996,551.8563063000001,551.8142263999998,None,550.8352889999996,None,550.8352889999996,None,550.8352889999996,None,552.7685878700004,None,552.7685878700004,None,552.7685878700004,None,,,,,,,,,,,233,28,Female,2022-06-13_18h20.34.327,Main,2022.1.1,60.01035778781126,
neutral,neutral,2,k,k,,,,,,,,,11,9,207,10,,,,,,,,,,,,,,,,,,,,,,,,main,1,1,2,neutral,neutral,k,k,1,0.6476182999995217,552.7887350000001,553.7931103999999,553.7737649000001,None,552.7887350000001,None,552.7887350000001,None,552.7887350000001,None,554.4184096700001,None,554.4184096700001,None,554.4184096700001,None,,,,,,,,,,,233,28,Female,2022-06-13_18h20.34.327,Main,2022.1.1,60.01035778781126,
positive,neutral,2,l,j,,,,,,,,,11,10,208,17,,,,,,,,,,,,,,,,,,,,,,,,main,1,1,2,neutral,positive,j,j,1,1.1323511999999027,554.4391114,555.4437195999999,555.4243022,None,554.4391114,None,554.4391114,None,554.4391114,None,556.5515965699997,None,556.5515965699997,None,556.5515965699997,None,,,,,,,,,,,233,28,Female,2022-06-13_18h20.34.327,Main,2022.1.1,60.01035778781126,
neutral,negative,2,k,k,,,,,,,,,11,11,209,16,,,,,,,,,,,,,,,,,,,,,,,,main,1,1,2,negative,neutral,k,k,1,0.7403276999993977,556.5742903999999,557.5949479000001,557.5559942999998,None,556.5742903999999,None,556.5742903999999,None,556.5742903999999,None,558.2978823699996,None,558.2978823699996,None,558.2978823699996,None,,,,,,,,,,,233,28,Female,2022-06-13_18h20.34.327,Main,2022.1.1,60.01035778781126,
positive,negative,2,l,j,,,,,,,,,11,12,210,14,,,,,,,,,,,,,,,,,,,,,,,,main,2,2,2,negative,positive,j,j,1,1.4328065999998216,558.3205331999998,559.3403860999997,559.2980897999996,None,558.3205331999998,None,558.3205331999998,None,558.3205331999998,None,560.7347108699996,None,560.7347108699996,None,560.7347108699996,None,,,,,,,,,,,233,28,Female,2022-06-13_18h20.34.327,Main,2022.1.1,60.01035778781126,
