name,TrialNum,Word,WordCategory,FishType,WordList,WordValence,WordReputation,CorrectResp,IncorrectResp,FishTypeFile,Round,WordType,Condition,LoopforOrange.thisRepN,LoopforOrange.thisTrialN,LoopforOrange.thisN,LoopforOrange.thisIndex,OrangeInstLoop.thisRepN,OrangeInstLoop.thisTrialN,OrangeInstLoop.thisN,OrangeInstLoop.thisIndex,OrangePrac.thisRepN,OrangePrac.thisTrialN,OrangePrac.thisN,OrangePrac.thisIndex,temp1.thisRepN,temp1.thisTrialN,temp1.thisN,temp1.thisIndex,OrangeRound1.thisRepN,OrangeRound1.thisTrialN,OrangeRound1.thisN,OrangeRound1.thisIndex,OrangeRound2.thisRepN,OrangeRound2.thisTrialN,OrangeRound2.thisN,OrangeRound2.thisIndex,OrangeRound3.thisRepN,OrangeRound3.thisTrialN,OrangeRound3.thisN,OrangeRound3.thisIndex,OrangeRound4.thisRepN,OrangeRound4.thisTrialN,OrangeRound4.thisN,OrangeRound4.thisIndex,OrangeRound5.thisRepN,OrangeRound5.thisTrialN,OrangeRound5.thisN,OrangeRound5.thisIndex,LoopForGreen.thisRepN,LoopForGreen.thisTrialN,LoopForGreen.thisN,LoopForGreen.thisIndex,text_2.started,text_2.stopped,text_3.started,text_3.stopped,key_resp.keys,key_resp.rt,key_resp.started,key_resp.stopped,PassI_2.started,PassI_2.stopped,PassInst_2.keys,PassInst_2.rt,PassInst_2.started,PassInst_2.stopped,mouse_2.x,mouse_2.y,mouse_2.leftButton,mouse_2.midButton,mouse_2.rightButton,mouse_2.started,mouse_2.stopped,image.started,image.stopped,text_5.started,text_5.stopped,text_6.started,text_6.stopped,text_7.started,text_7.stopped,text_8.started,text_8.stopped,slider_2.response,slider_2.rt,slider_2.started,slider_2.stopped,Response_2,Feedback_2,BackGround_2.started,BackGround_2.stopped,Fish_2.started,Fish_2.stopped,WordBox_2.started,WordBox_2.stopped,Words_2.started,Words_2.stopped,BackGround_Feedback_2.started,BackGround_Feedback_2.stopped,Feedbacks_2.started,Feedbacks_2.stopped,Continue_or_not.keys,Continue_or_not.rt,Continue_or_not.started,Continue_or_not.stopped,image_3.started,image_3.stopped,mouse_3.x,mouse_3.y,mouse_3.leftButton,mouse_3.midButton,mouse_3.rightButton,mouse_3.started,mouse_3.stopped,startmain.started,startmain.stopped,slider.response,slider.rt,slider.started,slider.stopped,Response,Feedback,BackGround.started,BackGround.stopped,Fish.started,Fish.stopped,WordBox.started,WordBox.stopped,Words.started,Words.stopped,BackGround_Feedback.started,BackGround_Feedback.stopped,Feedbacks.started,Feedbacks.stopped,text.started,text.stopped,break_interval.started,break_interval.stopped,mouse.x,mouse.y,mouse.leftButton,mouse.midButton,mouse.rightButton,mouse.started,mouse.stopped,stratnextround.started,stratnextround.stopped,endgame.started,endgame.stopped,participant,date,expName,psychopyVersion,frameRate,
,,,,,,,,,,,,,,,,,,,,,,,,,,,,,,,,,,,,,,,,,,,,,,,,,,,,,,17.79910060000111,None,17.79910060000111,None,space,1.9297657999995863,18.30010179999954,None,,,,,,,,,,,,,,,,,,,,,,,,,,,,,,,,,,,,,,,,,,,,,,,,,,,,,,,,,,,,,,,,,,,,,,,,,,,,,,,,,,,,,,,,,,101,2023-04-17_15h38.48.315,FishGame,2022.1.1,61.12185497513054,
물고기과제_instruction(참가자용)OrangeVersion.mp4,,,,,,,,,,,,,,0,0,0,0,0,0,0,0,,,,,,,,,,,,,,,,,,,,,,,,,,,,,,,,,,,,,,,,,31.196430700001656,None,n,3.481741700001294,31.196430700001656,None,,,,,,,,,,,,,,,,,,,,,,,,,,,,,,,,,,,,,,,,,,,,,,,,,,,,,,,,,,,,,,,,,,,,,,,,,,,,,,,,,,,,101,2023-04-17_15h38.48.315,FishGame,2022.1.1,61.12185497513054,
,1,넌 교활해,5,Green,B,2.333333333333333,2.133333333333333,ScrollUp,ScrollDown,Green.png,practice,,,0,0,0,0,,,,,0,0,0,0,0,0,0,0,,,,,,,,,,,,,,,,,,,,,,,,,,,,,,,,,,,,,,,0.011111111,-0.24259259,1,0,0,0.4996151599989389,None,34.710758900000656,None,38.92951650000032,40.43037780000304,40.463172399999166,41.413102600003185,41.46311699999933,42.41321030000108,42.41321030000108,None,1.8441358109315236,1.455061000000569,43.67540450000524,None,ScrollUp,정답입니다,43.67540450000524,None,43.67540450000524,None,43.67540450000524,None,43.67540450000524,None,44.846282400001655,None,44.846282400001655,45.34611460000451,,,,,,,,,,,,,,,,,,,,,,,,,,,,,,,,,,,,,,,,,,,,,,,,,101,2023-04-17_15h38.48.315,FishGame,2022.1.1,61.12185497513054,
,2,넌 슬기로워,2,Orange,A,6.166666666666667,4.1,ScrollDown,ScrollUp,Orange.png,practice,,,0,0,0,0,,,,,0,0,0,0,0,1,1,1,,,,,,,,,,,,,,,,,,,,,,,,,,,,,,,,,,,,,,,,,,,,,,,,,,,,,,,,1.0570987462997437,0.9810711000027368,45.95272939999995,None,ScrollDown,정답입니다,45.95272939999995,None,45.95272939999995,None,45.95272939999995,None,45.95272939999995,None,46.84604499999841,None,46.84604499999841,47.346088600002986,,,,,,,,,,,,,,,,,,,,,,,,,,,,,,,,,,,,,,,,,,,,,,,,,101,2023-04-17_15h38.48.315,FishGame,2022.1.1,61.12185497513054,
,3,나를 보내줘,6,Orange,A,0,0,ScrollUp,ScrollDown,Orange.png,practice,,,0,0,0,0,,,,,0,0,0,0,0,2,2,2,,,,,,,,,,,,,,,,,,,,,,,,,,,,,,,,,,,,,,,,,,,,,,,,,,,,,,,,1.8811728457609813,1.0146825999981957,47.953567500000645,None,ScrollUp,정답입니다,47.953567500000645,None,47.953567500000645,None,47.953567500000645,None,47.953567500000645,None,48.879393700000946,None,48.879393700000946,49.37943780000205,,,,,,,,,,,,,,,,,,,,,,,,,,,,,,,,,,,,,,,,,,,,,,,,,101,2023-04-17_15h38.48.315,FishGame,2022.1.1,61.12185497513054,
,4,나를 데려가줘,6,Green,B,0,0,ScrollDown,ScrollUp,Green.png,practice,,,0,0,0,0,,,,,0,0,0,0,0,3,3,3,,,,,,,,,,,,,,,,,,,,,,,,,,,,,,,,,,,,,,,,,,,,,,,,,,,,,,,,1.1280864129463832,1.0811719999983325,49.99371200000314,None,ScrollDown,정답입니다,49.99371200000314,None,49.99371200000314,None,49.99371200000314,None,49.99371200000314,None,50.977309000001696,None,50.977309000001696,51.47929760000261,,,,,,,,,,,,,,,,,,,,,,,,,,,,,,,,,,,,,,,,,,,,,,,,,101,2023-04-17_15h38.48.315,FishGame,2022.1.1,61.12185497513054,
,1,넌 교활해,5,Green,B,2.333333333333333,2.133333333333333,ScrollUp,ScrollDown,Green.png,practice,,,0,0,0,0,,,,,0,0,0,0,,,,,,,,,,,,,,,,,,,,,,,,,,,,,,,,,,,,,,,,,,,,,,,,,,,,,,,,,,,,,,,,,,,,,,,,,,,,,,n,3.7943534000005457,51.97945130000153,None,51.97945130000153,None,,,,,,,,,,,,,,,,,,,,,,,,,,,,,,,,,,,,,,,,,,,101,2023-04-17_15h38.48.315,FishGame,2022.1.1,61.12185497513054,
,1,넌 따뜻해,1,Green,B,6.083333333333333,5.6,ScrollUp,ScrollDown,Green.png,1,Positive,Incongruent,0,0,0,0,,,,,,,,,,,,,0,0,0,0,,,,,,,,,,,,,,,,,,,,,,,,,,,,,,,,,,,,,,,,,,,,59.379057800004375,60.87942040000053,60.912749499999336,61.86265540000022,61.91267399999924,62.865701000002446,62.865701000002446,None,,,,,,,,,,,,,,,,,,,,,,,,,0.0064814813,-0.094444446,1,0,0,0.3149804599961499,None,55.79583470000216,None,1.9722222189108531,1.364378399994166,64.14895350000006,None,ScrollUp,정답입니다,64.14895350000006,None,64.14895350000006,None,64.14895350000006,None,64.14895350000006,None,65.22284120000404,None,65.22284120000404,65.72672600000078,,,,,,,,,,,,,,,,101,2023-04-17_15h38.48.315,FishGame,2022.1.1,61.12185497513054,
,2,넌 기품있어,2,Green,B,5.791666666666668,4.5,ScrollUp,ScrollDown,Green.png,1,Positive,Incongruent,0,0,0,0,,,,,,,,,,,,,0,1,1,1,,,,,,,,,,,,,,,,,,,,,,,,,,,,,,,,,,,,,,,,,,,,,,,,,,,,,,,,,,,,,,,,,,,,,,,,,,,,,,,,,,,,,2,0.8665259999979753,66.33479600000283,None,ScrollUp,정답입니다,66.33479600000283,None,66.33479600000283,None,66.33479600000283,None,66.33479600000283,None,67.11010520000127,None,67.11010520000127,67.61244530000113,,,,,,,,,,,,,,,,101,2023-04-17_15h38.48.315,FishGame,2022.1.1,61.12185497513054,
,3,나를 보내줘,6,Orange,A,0,0,ScrollUp,ScrollDown,Orange.png,1,NonTarget,NonTarget,0,0,0,0,,,,,,,,,,,,,0,2,2,2,,,,,,,,,,,,,,,,,,,,,,,,,,,,,,,,,,,,,,,,,,,,,,,,,,,,,,,,,,,,,,,,,,,,,,,,,,,,,,,,,,,,,2,1.166814299998805,68.22626709999895,None,ScrollUp,정답입니다,68.22626709999895,None,68.22626709999895,None,68.22626709999895,None,68.22626709999895,None,69.29595870000048,None,69.29595870000048,69.79577810000046,,,,,,,,,,,,,,,,101,2023-04-17_15h38.48.315,FishGame,2022.1.1,61.12185497513054,
,4,넌 수동적이야,4,Orange,A,2.833333333333333,2.933333333333333,ScrollDown,ScrollUp,Orange.png,1,Negative,Incongruent,0,0,0,0,,,,,,,,,,,,,0,3,3,3,,,,,,,,,,,,,,,,,,,,,,,,,,,,,,,,,,,,,,,,,,,,,,,,,,,,,,,,,,,,,,,,,,,,,,,,,,,,,,,,,,,,,1,0.9104262999971979,70.42689909999899,None,ScrollDown,정답입니다,70.42689909999899,None,70.42689909999899,None,70.42689909999899,None,70.42689909999899,None,71.22662590000255,None,71.22662590000255,71.72662259999925,,,,,,,,,,,,,,,,101,2023-04-17_15h38.48.315,FishGame,2022.1.1,61.12185497513054,
,5,넌 사심이 없어,3,Green,B,4.916666666666666,4.333333333333333,ScrollUp,ScrollDown,Green.png,1,Neutral,Neutral,0,0,0,0,,,,,,,,,,,,,0,4,4,4,,,,,,,,,,,,,,,,,,,,,,,,,,,,,,,,,,,,,,,,,,,,,,,,,,,,,,,,,,,,,,,,,,,,,,,,,,,,,,,,,,,,,1.6851851865649223,0.7976606000011088,72.3345913000012,None,ScrollUp,정답입니다,72.3345913000012,None,72.3345913000012,None,72.3345913000012,None,72.3345913000012,None,73.04334050000034,None,73.04334050000034,73.5456938999996,,,,,,,,,,,,,,,,101,2023-04-17_15h38.48.315,FishGame,2022.1.1,61.12185497513054,
,6,넌 헤퍼,5,Orange,A,2.458333333333334,2.233333333333333,ScrollDown,ScrollUp,Orange.png,1,Negative,Incongruent,0,0,0,0,,,,,,,,,,,,,0,5,5,5,,,,,,,,,,,,,,,,,,,,,,,,,,,,,,,,,,,,,,,,,,,,,,,,,,,,,,,,,,,,,,,,,,,,,,,,,,,,,,,,,,,,,1.1651234477758408,0.9311917999948491,74.15595069999836,None,ScrollDown,정답입니다,74.15595069999836,None,74.15595069999836,None,74.15595069999836,None,74.15595069999836,None,74.9956919000033,None,74.9956919000033,75.4956897000011,,,,,,,,,,,,,,,,101,2023-04-17_15h38.48.315,FishGame,2022.1.1,61.12185497513054,
,7,넌 말쑥해,3,Orange,A,4.833333333333334,4.333333333333333,ScrollDown,ScrollUp,Orange.png,1,Neutral,Neutral,0,0,0,0,,,,,,,,,,,,,0,6,6,6,,,,,,,,,,,,,,,,,,,,,,,,,,,,,,,,,,,,,,,,,,,,,,,,,,,,,,,,,,,,,,,,,,,,,,,,,,,,,,,,,,,,,1,0.8793777000028058,76.10557430000335,None,ScrollDown,정답입니다,76.10557430000335,None,76.10557430000335,None,76.10557430000335,None,76.10557430000335,None,76.89562020000449,None,76.89562020000449,77.39549830000033,,,,,,,,,,,,,,,,101,2023-04-17_15h38.48.315,FishGame,2022.1.1,61.12185497513054,
,8,넌 투덜거려,5,Green,B,2.541666666666667,2.266666666666667,ScrollUp,ScrollDown,Green.png,1,Negative,Congruent,0,0,0,0,,,,,,,,,,,,,0,7,7,7,,,,,,,,,,,,,,,,,,,,,,,,,,,,,,,,,,,,,,,,,,,,,,,,,,,,,,,,,,,,,,,,,,,,,,,,,,,,,,,,,,,,,1.9027777661879857,0.8330354999998235,78.01132480000524,None,ScrollUp,정답입니다,78.01132480000524,None,78.01132480000524,None,78.01132480000524,None,78.01132480000524,None,78.74542130000191,None,78.74542130000191,79.24547590000293,,,,,,,,,,,,,,,,101,2023-04-17_15h38.48.315,FishGame,2022.1.1,61.12185497513054,
,9,넌 적극적이야,1,Orange,A,5.708333333333333,5.533333333333333,ScrollDown,ScrollUp,Orange.png,1,Positive,Congruent,0,0,0,0,,,,,,,,,,,,,0,8,8,8,,,,,,,,,,,,,,,,,,,,,,,,,,,,,,,,,,,,,,,,,,,,,,,,,,,,,,,,,,,,,,,,,,,,,,,,,,,,,,,,,,,,,1,0.8498824000052991,79.85496480000438,None,ScrollDown,정답입니다,79.85496480000438,None,79.85496480000438,None,79.85496480000438,None,79.85496480000438,None,80.61220250000042,None,80.61220250000042,81.11214560000371,,,,,,,,,,,,,,,,101,2023-04-17_15h38.48.315,FishGame,2022.1.1,61.12185497513054,
,10,넌 재미없어,4,Green,B,2.625,2.966666666666667,ScrollUp,ScrollDown,Green.png,1,Negative,Congruent,0,0,0,0,,,,,,,,,,,,,0,9,9,9,,,,,,,,,,,,,,,,,,,,,,,,,,,,,,,,,,,,,,,,,,,,,,,,,,,,,,,,,,,,,,,,,,,,,,,,,,,,,,,,,,,,,1.7901234477758408,0.8589254000034998,81.7297327999986,None,ScrollUp,정답입니다,81.7297327999986,None,81.7297327999986,None,81.7297327999986,None,81.7297327999986,None,82.49307150000095,None,82.49307150000095,82.99305409999943,,,,,,,,,,,,,,,,101,2023-04-17_15h38.48.315,FishGame,2022.1.1,61.12185497513054,
,11,넌 명석해,2,Orange,A,5.875,4.033333333333333,ScrollDown,ScrollUp,Orange.png,1,Positive,Congruent,0,0,0,0,,,,,,,,,,,,,0,10,10,10,,,,,,,,,,,,,,,,,,,,,,,,,,,,,,,,,,,,,,,,,,,,,,,,,,,,,,,,,,,,,,,,,,,,,,,,,,,,,,,,,,,,,1,0.800014899999951,83.60134980000294,None,ScrollDown,정답입니다,83.60134980000294,None,83.60134980000294,None,83.60134980000294,None,83.60134980000294,None,84.31280260000494,None,84.31280260000494,84.81214069999987,,,,,,,,,,,,,,,,101,2023-04-17_15h38.48.315,FishGame,2022.1.1,61.12185497513054,
,12,나를 데려가줘,6,Green,B,0,0,ScrollDown,ScrollUp,Green.png,1,NonTarget,NonTarget,0,0,0,0,,,,,,,,,,,,,0,11,11,11,,,,,,,,,,,,,,,,,,,,,,,,,,,,,,,,,,,,,,,,,,,,,,,,,,,,,,,,,,,,,,,,,,,,,,,,,,,,,,,,,,,,,1,1.1484124999988126,85.4227841000029,None,ScrollDown,정답입니다,85.4227841000029,None,85.4227841000029,None,85.4227841000029,None,85.4227841000029,None,86.47673790000408,None,86.47673790000408,86.97651700000279,,,,,,,,,,,,,,,,101,2023-04-17_15h38.48.315,FishGame,2022.1.1,61.12185497513054,
,13,넌 소심해,4,Orange,A,3,3.1,ScrollDown,ScrollUp,Orange.png,1,Negative,Incongruent,0,0,0,0,,,,,,,,,,,,,0,12,12,12,,,,,,,,,,,,,,,,,,,,,,,,,,,,,,,,,,,,,,,,,,,,,,,,,,,,,,,,,,,,,,,,,,,,,,,,,,,,,,,,,,,,,1.0910493781169255,1.0146839000008185,87.59815320000052,None,ScrollDown,정답입니다,87.59815320000052,None,87.59815320000052,None,87.59815320000052,None,87.59815320000052,None,88.51192779999838,None,88.51192779999838,89.01189570000133,,,,,,,,,,,,,,,,101,2023-04-17_15h38.48.315,FishGame,2022.1.1,61.12185497513054,
,14,넌 합리적이야,2,Orange,A,5.583333333333333,4.733333333333333,ScrollDown,ScrollUp,Orange.png,1,Positive,Congruent,0,0,0,0,,,,,,,,,,,,,0,13,13,13,,,,,,,,,,,,,,,,,,,,,,,,,,,,,,,,,,,,,,,,,,,,,,,,,,,,,,,,,,,,,,,,,,,,,,,,,,,,,,,,,,,,,1,0.8146698999989894,89.6326767999999,None,ScrollDown,정답입니다,89.6326767999999,None,89.6326767999999,None,89.6326767999999,None,89.6326767999999,None,90.34520619999967,None,90.34520619999967,90.8451630999989,,,,,,,,,,,,,,,,101,2023-04-17_15h38.48.315,FishGame,2022.1.1,61.12185497513054,
,15,넌 무자비해,5,Green,B,2.333333333333333,2.1,ScrollUp,ScrollDown,Green.png,1,Negative,Congruent,0,0,0,0,,,,,,,,,,,,,0,14,14,14,,,,,,,,,,,,,,,,,,,,,,,,,,,,,,,,,,,,,,,,,,,,,,,,,,,,,,,,,,,,,,,,,,,,,,,,,,,,,,,,,,,,,1.6929012313485146,0.7980225999999675,91.45473820000188,None,ScrollUp,정답입니다,91.45473820000188,None,91.45473820000188,None,91.45473820000188,None,91.45473820000188,None,92.16179840000405,None,92.16179840000405,92.66181930000312,,,,,,,,,,,,,,,,101,2023-04-17_15h38.48.315,FishGame,2022.1.1,61.12185497513054,
,16,나를 보내줘,6,Orange,A,0,0,ScrollUp,ScrollDown,Orange.png,1,NonTarget,NonTarget,0,0,0,0,,,,,,,,,,,,,0,15,15,15,,,,,,,,,,,,,,,,,,,,,,,,,,,,,,,,,,,,,,,,,,,,,,,,,,,,,,,,,,,,,,,,,,,,,,,,,,,,,,,,,,,,,1.6404320945342383,0.8165337000027648,93.26857390000077,None,ScrollUp,정답입니다,93.26857390000077,None,93.26857390000077,None,93.26857390000077,None,93.26857390000077,None,93.99514490000001,None,93.99514490000001,94.4951488000006,,,,,,,,,,,,,,,,101,2023-04-17_15h38.48.315,FishGame,2022.1.1,61.12185497513054,
,17,넌 현실적이야,3,Green,B,4.608695652173913,4.766666666666667,ScrollUp,ScrollDown,Green.png,1,Neutral,Neutral,0,0,0,0,,,,,,,,,,,,,0,16,16,16,,,,,,,,,,,,,,,,,,,,,,,,,,,,,,,,,,,,,,,,,,,,,,,,,,,,,,,,,,,,,,,,,,,,,,,,,,,,,,,,,,,,,1.6265432064731917,0.8497214000017266,95.10847590000049,None,ScrollUp,정답입니다,95.10847590000049,None,95.10847590000049,None,95.10847590000049,None,95.10847590000049,None,95.86171599999943,None,95.86171599999943,96.36174580000079,,,,,,,,,,,,,,,,101,2023-04-17_15h38.48.315,FishGame,2022.1.1,61.12185497513054,
,18,넌 의리있어,1,Green,B,5.833333333333334,5.633333333333334,ScrollUp,ScrollDown,Green.png,1,Positive,Incongruent,0,0,0,0,,,,,,,,,,,,,0,17,17,17,,,,,,,,,,,,,,,,,,,,,,,,,,,,,,,,,,,,,,,,,,,,,,,,,,,,,,,,,,,,,,,,,,,,,,,,,,,,,,,,,,,,,1.8472222139437993,0.8165676999997231,96.96832420000283,None,ScrollUp,정답입니다,96.96832420000283,None,96.96832420000283,None,96.96832420000283,None,96.96832420000283,None,97.69509610000387,None,97.69509610000387,98.19508750000386,,,,,,,,,,,,,,,,101,2023-04-17_15h38.48.315,FishGame,2022.1.1,61.12185497513054,
,19,넌 신경과민이야,5,Orange,A,2.541666666666667,2.166666666666667,ScrollDown,ScrollUp,Orange.png,1,Negative,Incongruent,0,0,0,0,,,,,,,,,,,,,0,18,18,18,,,,,,,,,,,,,,,,,,,,,,,,,,,,,,,,,,,,,,,,,,,,,,,,,,,,,,,,,,,,,,,,,,,,,,,,,,,,,,,,,,,,,1,0.9444392000004882,98.82083770000463,None,ScrollDown,정답입니다,98.82083770000463,None,98.82083770000463,None,98.82083770000463,None,98.82083770000463,None,99.65938180000376,None,99.65938180000376,100.16014520000317,,,,,,,,,,,,,,,,101,2023-04-17_15h38.48.315,FishGame,2022.1.1,61.12185497513054,
,20,넌 편안해,1,Orange,A,5.916666666666666,5.866666666666666,ScrollDown,ScrollUp,Orange.png,1,Positive,Congruent,0,0,0,0,,,,,,,,,,,,,0,19,19,19,,,,,,,,,,,,,,,,,,,,,,,,,,,,,,,,,,,,,,,,,,,,,,,,,,,,,,,,,,,,,,,,,,,,,,,,,,,,,,,,,,,,,1,0.7961391000062576,100.77174250000098,None,ScrollDown,정답입니다,100.77174250000098,None,100.77174250000098,None,100.77174250000098,None,100.77174250000098,None,101.4760710000046,None,101.4760710000046,101.97848140000133,,,,,,,,,,,,,,,,101,2023-04-17_15h38.48.315,FishGame,2022.1.1,61.12185497513054,
,21,넌 품위있어,2,Green,B,5.291666666666666,4.466666666666667,ScrollUp,ScrollDown,Green.png,1,Positive,Incongruent,0,0,0,0,,,,,,,,,,,,,0,20,20,20,,,,,,,,,,,,,,,,,,,,,,,,,,,,,,,,,,,,,,,,,,,,,,,,,,,,,,,,,,,,,,,,,,,,,,,,,,,,,,,,,,,,,1.743827154239019,0.8666587999978219,102.58593739999924,None,ScrollUp,정답입니다,102.58593739999924,None,102.58593739999924,None,102.58593739999924,None,102.58593739999924,None,103.36175470000308,None,103.36175470000308,103.86180420000164,,,,,,,,,,,,,,,,101,2023-04-17_15h38.48.315,FishGame,2022.1.1,61.12185497513054,
,22,넌 빈틈없어,3,Orange,A,4.833333333333333,3.966666666666667,ScrollDown,ScrollUp,Orange.png,1,Neutral,Neutral,0,0,0,0,,,,,,,,,,,,,0,21,21,21,,,,,,,,,,,,,,,,,,,,,,,,,,,,,,,,,,,,,,,,,,,,,,,,,,,,,,,,,,,,,,,,,,,,,,,,,,,,,,,,,,,,,1.0200617114702861,0.7313553999993019,104.47257340000215,None,ScrollDown,정답입니다,104.47257340000215,None,104.47257340000215,None,104.47257340000215,None,104.47257340000215,None,105.10959569999977,None,105.10959569999977,105.61157960000128,,,,,,,,,,,,,,,,101,2023-04-17_15h38.48.315,FishGame,2022.1.1,61.12185497513054,
,23,넌 상상력없어,4,Green,B,2.833333333333333,3.133333333333333,ScrollUp,ScrollDown,Green.png,1,Negative,Congruent,0,0,0,0,,,,,,,,,,,,,0,22,22,22,,,,,,,,,,,,,,,,,,,,,,,,,,,,,,,,,,,,,,,,,,,,,,,,,,,,,,,,,,,,,,,,,,,,,,,,,,,,,,,,,,,,,1.6898148159186044,0.8167149000000791,106.22433940000337,None,ScrollUp,정답입니다,106.22433940000337,None,106.22433940000337,None,106.22433940000337,None,106.22433940000337,None,106.94489450000401,None,106.94489450000401,107.44491540000308,,,,,,,,,,,,,,,,101,2023-04-17_15h38.48.315,FishGame,2022.1.1,61.12185497513054,
,24,넌 지혜로워,2,Green,B,6.333333333333334,4.633333333333334,ScrollUp,ScrollDown,Green.png,1,Positive,Incongruent,0,0,0,0,,,,,,,,,,,,,0,23,23,23,,,,,,,,,,,,,,,,,,,,,,,,,,,,,,,,,,,,,,,,,,,,,,,,,,,,,,,,,,,,,,,,,,,,,,,,,,,,,,,,,,,,,1.5972222226361432,0.697854299993196,108.05493820000265,None,ScrollUp,정답입니다,108.05493820000265,None,108.05493820000265,None,108.05493820000265,None,108.05493820000265,None,108.65942609999911,None,108.65942609999911,109.1614683000007,,,,,,,,,,,,,,,,101,2023-04-17_15h38.48.315,FishGame,2022.1.1,61.12185497513054,
,25,넌 시끄러워,4,Orange,A,2.833333333333333,3.033333333333333,ScrollDown,ScrollUp,Orange.png,1,Negative,Incongruent,0,0,0,0,,,,,,,,,,,,,0,24,24,24,,,,,,,,,,,,,,,,,,,,,,,,,,,,,,,,,,,,,,,,,,,,,,,,,,,,,,,,,,,,,,,,,,,,,,,,,,,,,,,,,,,,,1,0.8962049999972805,109.77272739999898,None,ScrollDown,정답입니다,109.77272739999898,None,109.77272739999898,None,109.77272739999898,None,109.77272739999898,None,110.57815130000381,None,110.57815130000381,111.07813010000245,,,,,,,,,,,,,,,,101,2023-04-17_15h38.48.315,FishGame,2022.1.1,61.12185497513054,
,26,넌 만사태평이야,3,Green,B,4,4.333333333333333,ScrollUp,ScrollDown,Green.png,1,Neutral,Neutral,0,0,0,0,,,,,,,,,,,,,0,25,25,25,,,,,,,,,,,,,,,,,,,,,,,,,,,,,,,,,,,,,,,,,,,,,,,,,,,,,,,,,,,,,,,,,,,,,,,,,,,,,,,,,,,,,1.5817901206513247,0.7315080000043963,111.68839000000298,None,ScrollUp,정답입니다,111.68839000000298,None,111.68839000000298,None,111.68839000000298,None,111.68839000000298,None,112.32832030000282,None,112.32832030000282,112.82814290000533,,,,,,,,,,,,,,,,101,2023-04-17_15h38.48.315,FishGame,2022.1.1,61.12185497513054,
,27,넌 붙임성있어,1,Orange,A,5.708333333333333,5.633333333333334,ScrollDown,ScrollUp,Orange.png,1,Positive,Congruent,0,0,0,0,,,,,,,,,,,,,0,26,26,26,,,,,,,,,,,,,,,,,,,,,,,,,,,,,,,,,,,,,,,,,,,,,,,,,,,,,,,,,,,,,,,,,,,,,,,,,,,,,,,,,,,,,1.1466049303611119,0.7804909999977099,113.4424083000049,None,ScrollDown,정답입니다,113.4424083000049,None,113.4424083000049,None,113.4424083000049,None,113.4424083000049,None,114.1260059999986,None,114.1260059999986,114.62848189999931,,,,,,,,,,,,,,,,101,2023-04-17_15h38.48.315,FishGame,2022.1.1,61.12185497513054,
,28,넌 영리해,2,Orange,A,6,4.033333333333333,ScrollDown,ScrollUp,Orange.png,1,Positive,Congruent,0,0,0,0,,,,,,,,,,,,,0,27,27,27,,,,,,,,,,,,,,,,,,,,,,,,,,,,,,,,,,,,,,,,,,,,,,,,,,,,,,,,,,,,,,,,,,,,,,,,,,,,,,,,,,,,,1,0.7661672000031103,115.23665959999926,None,ScrollDown,정답입니다,115.23665959999926,None,115.23665959999926,None,115.23665959999926,None,115.23665959999926,None,115.91141069999867,None,115.91141069999867,116.41141280000011,,,,,,,,,,,,,,,,101,2023-04-17_15h38.48.315,FishGame,2022.1.1,61.12185497513054,
,29,넌 열심이야,1,Green,B,6.041666666666667,5.833333333333333,ScrollUp,ScrollDown,Green.png,1,Positive,Incongruent,0,0,0,0,,,,,,,,,,,,,0,28,28,28,,,,,,,,,,,,,,,,,,,,,,,,,,,,,,,,,,,,,,,,,,,,,,,,,,,,,,,,,,,,,,,,,,,,,,,,,,,,,,,,,,,,,1.5570987661679587,0.7482844999976805,117.01856260000204,None,ScrollUp,정답입니다,117.01856260000204,None,117.01856260000204,None,117.01856260000204,None,117.01856260000204,None,117.67800649999845,None,117.67800649999845,118.17802680000023,,,,,,,,,,,,,,,,101,2023-04-17_15h38.48.315,FishGame,2022.1.1,61.12185497513054,
,30,넌 인기없어,4,Green,B,3,3.3,ScrollUp,ScrollDown,Green.png,1,Negative,Congruent,0,0,0,0,,,,,,,,,,,,,0,29,29,29,,,,,,,,,,,,,,,,,,,,,,,,,,,,,,,,,,,,,,,,,,,,,,,,,,,,,,,,,,,,,,,,,,,,,,,,,,,,,,,,,,,,,1.584876542290052,0.731223200004024,118.78554720000102,None,ScrollUp,정답입니다,118.78554720000102,None,118.78554720000102,None,118.78554720000102,None,118.78554720000102,None,119.4279177999997,None,119.4279177999997,119.92790629999945,,,,,,,,,,,,,,,,101,2023-04-17_15h38.48.315,FishGame,2022.1.1,61.12185497513054,
,31,넌 익살스러워,3,Orange,A,4.708333333333334,4.833333333333333,ScrollDown,ScrollUp,Orange.png,1,Neutral,Neutral,0,0,0,0,,,,,,,,,,,,,0,30,30,30,,,,,,,,,,,,,,,,,,,,,,,,,,,,,,,,,,,,,,,,,,,,,,,,,,,,,,,,,,,,,,,,,,,,,,,,,,,,,,,,,,,,,1.1064814925193787,0.8663125000020955,120.5391391000012,None,ScrollDown,정답입니다,120.5391391000012,None,120.5391391000012,None,120.5391391000012,None,120.5391391000012,None,121.31125299999985,None,121.31125299999985,121.81121040000289,,,,,,,,,,,,,,,,101,2023-04-17_15h38.48.315,FishGame,2022.1.1,61.12185497513054,
,32,넌 이기적이야,5,Green,B,2.291666666666667,2.333333333333333,ScrollUp,ScrollDown,Green.png,1,Negative,Congruent,0,0,0,0,,,,,,,,,,,,,0,31,31,31,,,,,,,,,,,,,,,,,,,,,,,,,,,,,,,,,,,,,,,,,,,,,,,,,,,,,,,,,,,,,,,,,,,,,,,,,,,,,,,,,,,,,1.7206790198882422,0.8150690999973449,122.41551869999967,None,ScrollUp,정답입니다,122.41551869999967,None,122.41551869999967,None,122.41551869999967,None,122.41551869999967,None,123.14457340000081,None,123.14457340000081,123.64460910000344,,,,,,,,,,,,,,,,101,2023-04-17_15h38.48.315,FishGame,2022.1.1,61.12185497513054,
,33,나를 데려가줘,6,Green,B,0,0,ScrollDown,ScrollUp,Green.png,1,NonTarget,NonTarget,0,0,0,0,,,,,,,,,,,,,0,32,32,32,,,,,,,,,,,,,,,,,,,,,,,,,,,,,,,,,,,,,,,,,,,,,,,,,,,,,,,,,,,,,,,,,,,,,,,,,,,,,,,,,,,,,1,1.031478299999435,124.24950160000299,None,ScrollDown,정답입니다,124.24950160000299,None,124.24950160000299,None,124.24950160000299,None,124.24950160000299,None,125.19247090000135,None,125.19247090000135,125.69446009999956,,,,,,,,,,,,,,,,101,2023-04-17_15h38.48.315,FishGame,2022.1.1,61.12185497513054,
,34,넌 기회주의자야,5,Orange,A,2.875,2.133333333333333,ScrollDown,ScrollUp,Orange.png,1,Negative,Incongruent,0,0,0,0,,,,,,,,,,,,,0,33,33,33,,,,,,,,,,,,,,,,,,,,,,,,,,,,,,,,,,,,,,,,,,,,,,,,,,,,,,,,,,,,,,,,,,,,,,,,,,,,,,,,,,,,,1.121913582086563,0.7127015000005485,126.30531709999923,None,ScrollDown,정답입니다,126.30531709999923,None,126.30531709999923,None,126.30531709999923,None,126.30531709999923,None,126.92786160000105,None,126.92786160000105,127.4278484000024,,,,,,,,,,,,,,,,101,2023-04-17_15h38.48.315,FishGame,2022.1.1,61.12185497513054,
,1,넌 미성숙해,4,Orange,A,3,3.2,ScrollDown,ScrollUp,Orange.png,2,Negative,Incongruent,0,0,0,0,,,,,,,,,,,,,,,,,0,0,0,0,,,,,,,,,,,,,,,,,,,,,,,,,,,,,,,,,,,,,,,,159.11105859999952,160.61065030000464,160.64403880000464,161.59399690000282,161.64399699999922,162.59399159999884,162.59399159999884,None,,,,,,,,,,,,,,,,,,,,,,,,,,,,,,,,,,1.0123456915219624,1.1826519000023836,163.6682129000037,None,ScrollDown,정답입니다,163.6682129000037,None,163.6682129000037,None,163.6682129000037,None,163.6682129000037,None,164.75805330000003,None,164.75805330000003,165.2587724000041,127.9278489999997,None,127.9278489999997,None,0.019444445,-0.094444446,1,0,0,0.016121859996928833,None,157.92708510000375,None,,,101,2023-04-17_15h38.48.315,FishGame,2022.1.1,61.12185497513054,
,2,넌 반사회적이야,5,Green,B,2.416666666666667,2.033333333333333,ScrollUp,ScrollDown,Green.png,2,Negative,Congruent,0,0,0,0,,,,,,,,,,,,,,,,,0,1,1,1,,,,,,,,,,,,,,,,,,,,,,,,,,,,,,,,,,,,,,,,,,,,,,,,,,,,,,,,,,,,,,,,,,,,,,,,,,,,,,,,,1.5864197500050068,0.8657546000031289,165.86405119999836,None,ScrollUp,정답입니다,165.86405119999836,None,165.86405119999836,None,165.86405119999836,None,165.86405119999836,None,166.64141750000272,None,166.64141750000272,167.14382199999818,,,,,,,,,,,,,,,,101,2023-04-17_15h38.48.315,FishGame,2022.1.1,61.12185497513054,
,3,넌 유능해,2,Orange,A,6.208333333333333,4.433333333333334,ScrollDown,ScrollUp,Orange.png,2,Positive,Congruent,0,0,0,0,,,,,,,,,,,,,,,,,0,2,2,2,,,,,,,,,,,,,,,,,,,,,,,,,,,,,,,,,,,,,,,,,,,,,,,,,,,,,,,,,,,,,,,,,,,,,,,,,,,,,,,,,1,0.866942000000563,167.7544271000006,None,ScrollDown,정답입니다,167.7544271000006,None,167.7544271000006,None,167.7544271000006,None,167.7544271000006,None,168.52718589999859,None,168.52718589999859,169.02712350000365,,,,,,,,,,,,,,,,101,2023-04-17_15h38.48.315,FishGame,2022.1.1,61.12185497513054,
,4,넌 능숙해,2,Green,B,5.666666666666667,4.733333333333333,ScrollUp,ScrollDown,Green.png,2,Positive,Incongruent,0,0,0,0,,,,,,,,,,,,,,,,,0,3,3,3,,,,,,,,,,,,,,,,,,,,,,,,,,,,,,,,,,,,,,,,,,,,,,,,,,,,,,,,,,,,,,,,,,,,,,,,,,,,,,,,,1.7901234477758408,0.8444558999981382,169.64062230000127,None,ScrollUp,정답입니다,169.64062230000127,None,169.64062230000127,None,169.64062230000127,None,169.64062230000127,None,170.39358599999832,None,170.39358599999832,170.89358920000086,,,,,,,,,,,,,,,,101,2023-04-17_15h38.48.315,FishGame,2022.1.1,61.12185497513054,
,5,넌 진부해,4,Green,B,2.458333333333333,3.166666666666667,ScrollUp,ScrollDown,Green.png,2,Negative,Congruent,0,0,0,0,,,,,,,,,,,,,,,,,0,4,4,4,,,,,,,,,,,,,,,,,,,,,,,,,,,,,,,,,,,,,,,,,,,,,,,,,,,,,,,,,,,,,,,,,,,,,,,,,,,,,,,,,1.4706790130585432,0.7167348000002676,171.5007334000038,None,NoResponse,무응답입니다,171.5007334000038,None,171.5007334000038,None,171.5007334000038,None,171.5007334000038,None,172.1268965000054,None,172.1268965000054,172.62696580000193,,,,,,,,,,,,,,,,101,2023-04-17_15h38.48.315,FishGame,2022.1.1,61.12185497513054,
,6,나를 보내줘,6,Orange,A,0,0,ScrollUp,ScrollDown,Orange.png,2,NonTarget,NonTarget,0,0,0,0,,,,,,,,,,,,,,,,,0,5,5,5,,,,,,,,,,,,,,,,,,,,,,,,,,,,,,,,,,,,,,,,,,,,,,,,,,,,,,,,,,,,,,,,,,,,,,,,,,,,,,,,,1.9104938358068466,1.0643903000018327,173.23889910000435,None,ScrollUp,정답입니다,173.23889910000435,None,173.23889910000435,None,173.23889910000435,None,173.23889910000435,None,174.20786870000302,None,174.20786870000302,174.70838470000308,,,,,,,,,,,,,,,,101,2023-04-17_15h38.48.315,FishGame,2022.1.1,61.12185497513054,
,7,넌 엄격해,3,Orange,A,4.166666666666666,4.1,ScrollDown,ScrollUp,Orange.png,2,Neutral,Neutral,0,0,0,0,,,,,,,,,,,,,,,,,0,6,6,6,,,,,,,,,,,,,,,,,,,,,,,,,,,,,,,,,,,,,,,,,,,,,,,,,,,,,,,,,,,,,,,,,,,,,,,,,,,,,,,,,1.0787036915620167,0.9154991000032169,175.32295620000514,None,ScrollDown,정답입니다,175.32295620000514,None,175.32295620000514,None,175.32295620000514,None,175.32295620000514,None,176.1437586000029,None,176.1437586000029,176.64362660000188,,,,,,,,,,,,,,,,101,2023-04-17_15h38.48.315,FishGame,2022.1.1,61.12185497513054,
,8,나를 보내줘,6,Orange,A,0,0,ScrollUp,ScrollDown,Orange.png,2,NonTarget,NonTarget,0,0,0,0,,,,,,,,,,,,,,,,,0,7,7,7,,,,,,,,,,,,,,,,,,,,,,,,,,,,,,,,,,,,,,,,,,,,,,,,,,,,,,,,,,,,,,,,,,,,,,,,,,,,,,,,,1.8657407313585281,0.9979624999978114,177.25509810000221,None,ScrollUp,정답입니다,177.25509810000221,None,177.25509810000221,None,177.25509810000221,None,177.25509810000221,None,178.16020440000284,None,178.16020440000284,178.66010839999944,,,,,,,,,,,,,,,,101,2023-04-17_15h38.48.315,FishGame,2022.1.1,61.12185497513054,
,9,넌 대담해,3,Green,B,4.875,4.866666666666666,ScrollUp,ScrollDown,Green.png,2,Neutral,Neutral,0,0,0,0,,,,,,,,,,,,,,,,,0,8,8,8,,,,,,,,,,,,,,,,,,,,,,,,,,,,,,,,,,,,,,,,,,,,,,,,,,,,,,,,,,,,,,,,,,,,,,,,,,,,,,,,,1.6805555572112403,0.71689399999741,179.26761519999854,None,ScrollUp,정답입니다,179.26761519999854,None,179.26761519999854,None,179.26761519999854,None,179.26761519999854,None,179.89338410000346,None,179.89338410000346,180.3933890000044,,,,,,,,,,,,,,,,101,2023-04-17_15h38.48.315,FishGame,2022.1.1,61.12185497513054,
,10,넌 꾸준해,1,Orange,A,5.916666666666668,5.8,ScrollDown,ScrollUp,Orange.png,2,Positive,Congruent,0,0,0,0,,,,,,,,,,,,,,,,,0,9,9,9,,,,,,,,,,,,,,,,,,,,,,,,,,,,,,,,,,,,,,,,,,,,,,,,,,,,,,,,,,,,,,,,,,,,,,,,,,,,,,,,,1,0.9332389999981388,181.0039079000053,None,ScrollDown,정답입니다,181.0039079000053,None,181.0039079000053,None,181.0039079000053,None,181.0039079000053,None,181.8413331999982,None,181.8413331999982,182.34332410000206,,,,,,,,,,,,,,,,101,2023-04-17_15h38.48.315,FishGame,2022.1.1,61.12185497513054,
,11,나를 데려가줘,6,Green,B,0,0,ScrollDown,ScrollUp,Green.png,2,NonTarget,NonTarget,0,0,0,0,,,,,,,,,,,,,,,,,0,10,10,10,,,,,,,,,,,,,,,,,,,,,,,,,,,,,,,,,,,,,,,,,,,,,,,,,,,,,,,,,,,,,,,,,,,,,,,,,,,,,,,,,1.0293209950129192,1.0311209999999846,182.95206730000064,None,ScrollDown,정답입니다,182.95206730000064,None,182.95206730000064,None,182.95206730000064,None,182.95206730000064,None,183.89344290000008,None,183.89344290000008,184.3933195999998,,,,,,,,,,,,,,,,101,2023-04-17_15h38.48.315,FishGame,2022.1.1,61.12185497513054,
,12,넌 독선적이야,5,Orange,A,2.458333333333333,1.933333333333333,ScrollDown,ScrollUp,Orange.png,2,Negative,Incongruent,0,0,0,0,,,,,,,,,,,,,,,,,0,11,11,11,,,,,,,,,,,,,,,,,,,,,,,,,,,,,,,,,,,,,,,,,,,,,,,,,,,,,,,,,,,,,,,,,,,,,,,,,,,,,,,,,1.0663580298423767,0.9291222000028938,185.00396750000073,None,ScrollDown,정답입니다,185.00396750000073,None,185.00396750000073,None,185.00396750000073,None,185.00396750000073,None,185.8364733000053,None,185.8364733000053,186.34099720000086,,,,,,,,,,,,,,,,101,2023-04-17_15h38.48.315,FishGame,2022.1.1,61.12185497513054,
,13,나를 보내줘,6,Orange,A,0,0,ScrollUp,ScrollDown,Orange.png,2,NonTarget,NonTarget,0,0,0,0,,,,,,,,,,,,,,,,,0,12,12,12,,,,,,,,,,,,,,,,,,,,,,,,,,,,,,,,,,,,,,,,,,,,,,,,,,,,,,,,,,,,,,,,,,,,,,,,,,,,,,,,,1.5570987661679587,1.1834747000029893,186.94552990000375,None,ScrollUp,정답입니다,186.94552990000375,None,186.94552990000375,None,186.94552990000375,None,186.94552990000375,None,188.0409600999992,None,188.0409600999992,188.54099330000463,,,,,,,,,,,,,,,,101,2023-04-17_15h38.48.315,FishGame,2022.1.1,61.12185497513054,
,14,넌 책임감있어,1,Green,B,6.347826086956522,6,ScrollUp,ScrollDown,Green.png,2,Positive,Incongruent,0,0,0,0,,,,,,,,,,,,,,,,,0,13,13,13,,,,,,,,,,,,,,,,,,,,,,,,,,,,,,,,,,,,,,,,,,,,,,,,,,,,,,,,,,,,,,,,,,,,,,,,,,,,,,,,,1.8441358109315236,0.8499879000009969,189.15217310000298,None,ScrollUp,정답입니다,189.15217310000298,None,189.15217310000298,None,189.15217310000298,None,189.15217310000298,None,189.91009080000367,None,189.91009080000367,190.41009510000004,,,,,,,,,,,,,,,,101,2023-04-17_15h38.48.315,FishGame,2022.1.1,61.12185497513054,
,15,넌 문학적이야,3,Orange,A,4.708333333333334,4.333333333333333,ScrollDown,ScrollUp,Orange.png,2,Neutral,Neutral,0,0,0,0,,,,,,,,,,,,,,,,,0,14,14,14,,,,,,,,,,,,,,,,,,,,,,,,,,,,,,,,,,,,,,,,,,,,,,,,,,,,,,,,,,,,,,,,,,,,,,,,,,,,,,,,,1,0.9110250000012456,191.0208147000012,None,ScrollDown,정답입니다,191.0208147000012,None,191.0208147000012,None,191.0208147000012,None,191.0208147000012,None,191.8364333999998,None,191.8364333999998,192.34318290000374,,,,,,,,,,,,,,,,101,2023-04-17_15h38.48.315,FishGame,2022.1.1,61.12185497513054,
,16,넌 재미있어,1,Green,B,5.875,5.7,ScrollUp,ScrollDown,Green.png,2,Positive,Incongruent,0,0,0,0,,,,,,,,,,,,,,,,,0,15,15,15,,,,,,,,,,,,,,,,,,,,,,,,,,,,,,,,,,,,,,,,,,,,,,,,,,,,,,,,,,,,,,,,,,,,,,,,,,,,,,,,,1.6620370397965112,0.6980658999964362,192.94678030000068,None,ScrollUp,정답입니다,192.94678030000068,None,192.94678030000068,None,192.94678030000068,None,192.94678030000068,None,193.55979500000103,None,193.55979500000103,194.0598198000007,,,,,,,,,,,,,,,,101,2023-04-17_15h38.48.315,FishGame,2022.1.1,61.12185497513054,
,17,나를 데려가줘,6,Green,B,0,0,ScrollDown,ScrollUp,Green.png,2,NonTarget,NonTarget,0,0,0,0,,,,,,,,,,,,,,,,,0,16,16,16,,,,,,,,,,,,,,,,,,,,,,,,,,,,,,,,,,,,,,,,,,,,,,,,,,,,,,,,,,,,,,,,,,,,,,,,,,,,,,,,,1.0648148159186046,1.0646224000010989,194.6645914000037,None,ScrollDown,정답입니다,194.6645914000037,None,194.6645914000037,None,194.6645914000037,None,194.6645914000037,None,195.64307940000435,None,195.64307940000435,196.1430418000018,,,,,,,,,,,,,,,,101,2023-04-17_15h38.48.315,FishGame,2022.1.1,61.12185497513054,
,18,넌 협력적이야,1,Orange,A,5.625,5.633333333333334,ScrollDown,ScrollUp,Orange.png,2,Positive,Congruent,0,0,0,0,,,,,,,,,,,,,,,,,0,17,17,17,,,,,,,,,,,,,,,,,,,,,,,,,,,,,,,,,,,,,,,,,,,,,,,,,,,,,,,,,,,,,,,,,,,,,,,,,,,,,,,,,1.0370370149612427,0.9997849999999744,196.75244979999843,None,ScrollDown,정답입니다,196.75244979999843,None,196.75244979999843,None,196.75244979999843,None,196.75244979999843,None,197.65981660000398,None,197.65981660000398,198.15972540000075,,,,,,,,,,,,,,,,101,2023-04-17_15h38.48.315,FishGame,2022.1.1,61.12185497513054,
,19,넌 평범해,3,Green,B,4.333333333333332,4.233333333333333,ScrollUp,ScrollDown,Green.png,2,Neutral,Neutral,0,0,0,0,,,,,,,,,,,,,,,,,0,18,18,18,,,,,,,,,,,,,,,,,,,,,,,,,,,,,,,,,,,,,,,,,,,,,,,,,,,,,,,,,,,,,,,,,,,,,,,,,,,,,,,,,1.614197532335917,0.8499933999992209,198.76688419999846,None,ScrollUp,정답입니다,198.76688419999846,None,198.76688419999846,None,198.76688419999846,None,198.76688419999846,None,199.52645270000357,None,199.52645270000357,200.02961779999896,,,,,,,,,,,,,,,,101,2023-04-17_15h38.48.315,FishGame,2022.1.1,61.12185497513054,
,20,넌 오만해,5,Orange,A,2.333333333333333,2,ScrollDown,ScrollUp,Orange.png,2,Negative,Incongruent,0,0,0,0,,,,,,,,,,,,,,,,,0,19,19,19,,,,,,,,,,,,,,,,,,,,,,,,,,,,,,,,,,,,,,,,,,,,,,,,,,,,,,,,,,,,,,,,,,,,,,,,,,,,,,,,,1,0.8476357000035932,200.63528919999953,None,ScrollDown,정답입니다,200.63528919999953,None,200.63528919999953,None,200.63528919999953,None,200.63528919999953,None,201.39089650000096,None,201.39089650000096,201.8929275000046,,,,,,,,,,,,,,,,101,2023-04-17_15h38.48.315,FishGame,2022.1.1,61.12185497513054,
,21,넌 운이없어,4,Green,B,3,3.466666666666667,ScrollUp,ScrollDown,Green.png,2,Negative,Congruent,0,0,0,0,,,,,,,,,,,,,,,,,0,20,20,20,,,,,,,,,,,,,,,,,,,,,,,,,,,,,,,,,,,,,,,,,,,,,,,,,,,,,,,,,,,,,,,,,,,,,,,,,,,,,,,,,1.6697530845801034,0.7961117000013473,202.5002960999991,None,ScrollUp,정답입니다,202.5002960999991,None,202.5002960999991,None,202.5002960999991,None,202.5002960999991,None,203.20959260000382,None,203.20959260000382,203.7096093,,,,,,,,,,,,,,,,101,2023-04-17_15h38.48.315,FishGame,2022.1.1,61.12185497513054,
,22,넌 창조적이야,2,Green,B,6.125,4.633333333333334,ScrollUp,ScrollDown,Green.png,2,Positive,Incongruent,0,0,0,0,,,,,,,,,,,,,,,,,0,21,21,21,,,,,,,,,,,,,,,,,,,,,,,,,,,,,,,,,,,,,,,,,,,,,,,,,,,,,,,,,,,,,,,,,,,,,,,,,,,,,,,,,1.8703703731298447,0.9959300999980769,204.31793200000538,None,ScrollUp,정답입니다,204.31793200000538,None,204.31793200000538,None,204.31793200000538,None,204.31793200000538,None,205.22390460000315,None,205.22390460000315,205.72392560000299,,,,,,,,,,,,,,,,101,2023-04-17_15h38.48.315,FishGame,2022.1.1,61.12185497513054,
,23,나를 보내줘,6,Orange,A,0,0,ScrollUp,ScrollDown,Orange.png,2,NonTarget,NonTarget,0,0,0,0,,,,,,,,,,,,,,,,,0,22,22,22,,,,,,,,,,,,,,,,,,,,,,,,,,,,,,,,,,,,,,,,,,,,,,,,,,,,,,,,,,,,,,,,,,,,,,,,,,,,,,,,,1.7500000099341075,1.063807700003963,206.3293935000038,None,ScrollUp,정답입니다,206.3293935000038,None,206.3293935000038,None,206.3293935000038,None,206.3293935000038,None,207.30726210000284,None,207.30726210000284,207.8096893000038,,,,,,,,,,,,,,,,101,2023-04-17_15h38.48.315,FishGame,2022.1.1,61.12185497513054,
,24,넌 통찰력있어,2,Orange,A,6.5,4.8,ScrollDown,ScrollUp,Orange.png,2,Positive,Congruent,0,0,0,0,,,,,,,,,,,,,,,,,0,23,23,23,,,,,,,,,,,,,,,,,,,,,,,,,,,,,,,,,,,,,,,,,,,,,,,,,,,,,,,,,,,,,,,,,,,,,,,,,,,,,,,,,1,0.8168645999976434,208.42062799999985,None,ScrollDown,정답입니다,208.42062799999985,None,208.42062799999985,None,208.42062799999985,None,208.42062799999985,None,209.14312459999928,None,209.14312459999928,209.6429833000002,,,,,,,,,,,,,,,,101,2023-04-17_15h38.48.315,FishGame,2022.1.1,61.12185497513054,
,25,넌 경솔해,5,Green,B,2.458333333333333,2.266666666666667,ScrollUp,ScrollDown,Green.png,2,Negative,Congruent,0,0,0,0,,,,,,,,,,,,,,,,,0,24,24,24,,,,,,,,,,,,,,,,,,,,,,,,,,,,,,,,,,,,,,,,,,,,,,,,,,,,,,,,,,,,,,,,,,,,,,,,,,,,,,,,,1.7299382785956063,0.8150473000059719,210.25858529999823,None,ScrollUp,정답입니다,210.25858529999823,None,210.25858529999823,None,210.25858529999823,None,210.25858529999823,None,210.97611830000096,None,210.97611830000096,211.47618910000165,,,,,,,,,,,,,,,,101,2023-04-17_15h38.48.315,FishGame,2022.1.1,61.12185497513054,
,26,넌 초조해,4,Orange,A,2.916666666666667,3.133333333333333,ScrollDown,ScrollUp,Orange.png,2,Negative,Incongruent,0,0,0,0,,,,,,,,,,,,,,,,,0,25,25,25,,,,,,,,,,,,,,,,,,,,,,,,,,,,,,,,,,,,,,,,,,,,,,,,,,,,,,,,,,,,,,,,,,,,,,,,,,,,,,,,,1,0.9973769999996875,212.09068410000327,None,ScrollDown,정답입니다,212.09068410000327,None,212.09068410000327,None,212.09068410000327,None,212.09068410000327,None,212.99040870000317,None,212.99040870000317,213.49041379999835,,,,,,,,,,,,,,,,101,2023-04-17_15h38.48.315,FishGame,2022.1.1,61.12185497513054,
,27,넌 무관심해,4,Green,B,2.833333333333333,2.9,ScrollUp,ScrollDown,Green.png,2,Negative,Congruent,0,0,0,0,,,,,,,,,,,,,,,,,0,26,26,26,,,,,,,,,,,,,,,,,,,,,,,,,,,,,,,,,,,,,,,,,,,,,,,,,,,,,,,,,,,,,,,,,,,,,,,,,,,,,,,,,1.629629634320736,0.9524018999945838,214.1083873000025,None,ScrollUp,정답입니다,214.1083873000025,None,214.1083873000025,None,214.1083873000025,None,214.1083873000025,None,214.9596615000046,None,214.9596615000046,215.45948270000372,,,,,,,,,,,,,,,,101,2023-04-17_15h38.48.315,FishGame,2022.1.1,61.12185497513054,
,28,넌 감성적이야,3,Green,B,4.125,4.166666666666667,ScrollUp,ScrollDown,Green.png,2,Neutral,Neutral,0,0,0,0,,,,,,,,,,,,,,,,,0,27,27,27,,,,,,,,,,,,,,,,,,,,,,,,,,,,,,,,,,,,,,,,,,,,,,,,,,,,,,,,,,,,,,,,,,,,,,,,,,,,,,,,,1.6003086442748704,0.9315065000046161,216.0659711000044,None,ScrollUp,정답입니다,216.0659711000044,None,216.0659711000044,None,216.0659711000044,None,216.0659711000044,None,216.90947479999886,None,216.90947479999886,217.4093137000018,,,,,,,,,,,,,,,,101,2023-04-17_15h38.48.315,FishGame,2022.1.1,61.12185497513054,
,29,넌 배려심있어,1,Orange,A,6.083333333333333,5.5,ScrollDown,ScrollUp,Orange.png,2,Positive,Congruent,0,0,0,0,,,,,,,,,,,,,,,,,0,28,28,28,,,,,,,,,,,,,,,,,,,,,,,,,,,,,,,,,,,,,,,,,,,,,,,,,,,,,,,,,,,,,,,,,,,,,,,,,,,,,,,,,1,0.9480254999944009,218.02014110000164,None,ScrollDown,정답입니다,218.02014110000164,None,218.02014110000164,None,218.02014110000164,None,218.02014110000164,None,218.87612300000183,None,218.87612300000183,219.37602239999978,,,,,,,,,,,,,,,,101,2023-04-17_15h38.48.315,FishGame,2022.1.1,61.12185497513054,
,30,넌 숨김없어,3,Orange,A,4.5,4.933333333333334,ScrollDown,ScrollUp,Orange.png,2,Neutral,Neutral,0,0,0,0,,,,,,,,,,,,,,,,,0,29,29,29,,,,,,,,,,,,,,,,,,,,,,,,,,,,,,,,,,,,,,,,,,,,,,,,,,,,,,,,,,,,,,,,,,,,,,,,,,,,,,,,,1,0.7641339000037988,219.98818680000113,None,ScrollDown,정답입니다,219.98818680000113,None,219.98818680000113,None,219.98818680000113,None,219.98818680000113,None,220.6571718999985,None,220.6571718999985,221.15921489999891,,,,,,,,,,,,,,,,101,2023-04-17_15h38.48.315,FishGame,2022.1.1,61.12185497513054,
,31,넌 훌륭해,2,Green,B,5.916666666666667,4.033333333333333,ScrollUp,ScrollDown,Green.png,2,Positive,Incongruent,0,0,0,0,,,,,,,,,,,,,,,,,0,30,30,30,,,,,,,,,,,,,,,,,,,,,,,,,,,,,,,,,,,,,,,,,,,,,,,,,,,,,,,,,,,,,,,,,,,,,,,,,,,,,,,,,1.5833333345750966,0.8665810999955283,221.7674180000031,None,ScrollUp,정답입니다,221.7674180000031,None,221.7674180000031,None,221.7674180000031,None,221.7674180000031,None,222.54258110000228,None,222.54258110000228,223.04256069999974,,,,,,,,,,,,,,,,101,2023-04-17_15h38.48.315,FishGame,2022.1.1,61.12185497513054,
,32,넌 슬기로워,2,Orange,A,6.166666666666667,4.1,ScrollDown,ScrollUp,Orange.png,2,Positive,Congruent,0,0,0,0,,,,,,,,,,,,,,,,,0,31,31,31,,,,,,,,,,,,,,,,,,,,,,,,,,,,,,,,,,,,,,,,,,,,,,,,,,,,,,,,,,,,,,,,,,,,,,,,,,,,,,,,,1.174382706483205,0.7956553999974858,223.65198220000457,None,ScrollDown,정답입니다,223.65198220000457,None,223.65198220000457,None,223.65198220000457,None,223.65198220000457,None,224.3568516000014,None,224.3568516000014,224.85692009999912,,,,,,,,,,,,,,,,101,2023-04-17_15h38.48.315,FishGame,2022.1.1,61.12185497513054,
,33,넌 냉혹해,5,Orange,A,2.583333333333333,2.1,ScrollDown,ScrollUp,Orange.png,2,Negative,Incongruent,0,0,0,0,,,,,,,,,,,,,,,,,0,32,32,32,,,,,,,,,,,,,,,,,,,,,,,,,,,,,,,,,,,,,,,,,,,,,,,,,,,,,,,,,,,,,,,,,,,,,,,,,,,,,,,,,1.1466049303611119,0.7146644000022206,225.47407190000376,None,ScrollDown,정답입니다,225.47407190000376,None,225.47407190000376,None,225.47407190000376,None,225.47407190000376,None,226.09024869999848,None,226.09024869999848,226.59261960000003,,,,,,,,,,,,,,,,101,2023-04-17_15h38.48.315,FishGame,2022.1.1,61.12185497513054,
,34,나를 데려가줘,6,Green,B,0,0,ScrollDown,ScrollUp,Green.png,2,NonTarget,NonTarget,0,0,0,0,,,,,,,,,,,,,,,,,0,33,33,33,,,,,,,,,,,,,,,,,,,,,,,,,,,,,,,,,,,,,,,,,,,,,,,,,,,,,,,,,,,,,,,,,,,,,,,,,,,,,,,,,1.6466049378116927,1.0334270000021206,227.19854720000149,None,ScrollUp,오답입니다,227.19854720000149,None,227.19854720000149,None,227.19854720000149,None,227.19854720000149,None,228.14261190000252,None,228.14261190000252,228.64255889999913,,,,,,,,,,,,,,,,101,2023-04-17_15h38.48.315,FishGame,2022.1.1,61.12185497513054,
,35,넌 편파적이야,5,Green,B,2.125,2,ScrollUp,ScrollDown,Green.png,2,Negative,Congruent,0,0,0,0,,,,,,,,,,,,,,,,,0,34,34,34,,,,,,,,,,,,,,,,,,,,,,,,,,,,,,,,,,,,,,,,,,,,,,,,,,,,,,,,,,,,,,,,,,,,,,,,,,,,,,,,,1.5262345684071383,0.6978534000008949,229.2550459999984,None,NoResponse,무응답입니다,229.2550459999984,None,229.2550459999984,None,229.2550459999984,None,229.2550459999984,None,229.85918790000142,None,229.85918790000142,230.35910850000073,,,,,,,,,,,,,,,,101,2023-04-17_15h38.48.315,FishGame,2022.1.1,61.12185497513054,
,36,넌 슬퍼,4,Orange,A,2.583333333333333,3.066666666666667,ScrollDown,ScrollUp,Orange.png,2,Negative,Incongruent,0,0,0,0,,,,,,,,,,,,,,,,,0,35,35,35,,,,,,,,,,,,,,,,,,,,,,,,,,,,,,,,,,,,,,,,,,,,,,,,,,,,,,,,,,,,,,,,,,,,,,,,,,,,,,,,,1,0.9146201999974437,230.96608969999943,None,ScrollDown,정답입니다,230.96608969999943,None,230.96608969999943,None,230.96608969999943,None,230.96608969999943,None,231.79027150000184,None,231.79027150000184,232.2922594000047,,,,,,,,,,,,,,,,101,2023-04-17_15h38.48.315,FishGame,2022.1.1,61.12185497513054,
,37,나를 데려가줘,6,Green,B,0,0,ScrollDown,ScrollUp,Green.png,2,NonTarget,NonTarget,0,0,0,0,,,,,,,,,,,,,,,,,0,36,36,36,,,,,,,,,,,,,,,,,,,,,,,,,,,,,,,,,,,,,,,,,,,,,,,,,,,,,,,,,,,,,,,,,,,,,,,,,,,,,,,,,1.1867283930381138,0.8999997999999323,232.89760530000058,None,ScrollDown,정답입니다,232.89760530000058,None,232.89760530000058,None,232.89760530000058,None,232.89760530000058,None,233.70904610000434,None,233.70904610000434,234.20894390000467,,,,,,,,,,,,,,,,101,2023-04-17_15h38.48.315,FishGame,2022.1.1,61.12185497513054,
,38,넌 친절해,1,Green,B,6.041666666666667,5.533333333333333,ScrollUp,ScrollDown,Green.png,2,Positive,Incongruent,0,0,0,0,,,,,,,,,,,,,,,,,0,37,37,37,,,,,,,,,,,,,,,,,,,,,,,,,,,,,,,,,,,,,,,,,,,,,,,,,,,,,,,,,,,,,,,,,,,,,,,,,,,,,,,,,1.6944444452722869,0.8832411000039428,234.82037800000398,None,ScrollUp,정답입니다,234.82037800000398,None,234.82037800000398,None,234.82037800000398,None,234.82037800000398,None,235.60898740000266,None,235.60898740000266,236.10897900000418,,,,,,,,,,,,,,,,101,2023-04-17_15h38.48.315,FishGame,2022.1.1,61.12185497513054,
,1,넌 엉성해,4,Orange,A,3,3.3,ScrollDown,ScrollUp,Orange.png,3,Negative,Incongruent,0,0,0,0,,,,,,,,,,,,,,,,,,,,,0,0,0,0,,,,,,,,,,,,,,,,,,,,,,,,,,,,,,,,,,,,267.74155379999866,269.2418417000008,269.2751570000037,270.22510930000135,270.2751255000039,271.2251191000032,271.2251191000032,None,,,,,,,,,,,,,,,,,,,,,,,,,,,,,,,,,,1.1188271542390187,0.8176797999985865,272.3002729,None,ScrollDown,정답입니다,272.3002729,None,272.3002729,None,272.3002729,None,272.3002729,None,273.0249038000038,None,273.0249038000038,273.5248806000018,236.60896990000037,None,236.60896990000037,None,0.028703704,-0.09537037,1,0,0,0.01626996000413783,None,266.6082605999982,None,,,101,2023-04-17_15h38.48.315,FishGame,2022.1.1,61.12185497513054,
,2,나를 보내줘,6,Orange,A,0,0,ScrollUp,ScrollDown,Orange.png,3,NonTarget,NonTarget,0,0,0,0,,,,,,,,,,,,,,,,,,,,,0,1,1,1,,,,,,,,,,,,,,,,,,,,,,,,,,,,,,,,,,,,,,,,,,,,,,,,,,,,,,,,,,,,,,,,,,,,,,,,,,,,,1.723765422900518,0.9645256000003428,274.13157350000256,None,ScrollUp,정답입니다,274.13157350000256,None,274.13157350000256,None,274.13157350000256,None,274.13157350000256,None,275.0060611000008,None,275.0060611000008,275.5081065999984,,,,,,,,,,,,,,,,101,2023-04-17_15h38.48.315,FishGame,2022.1.1,61.12185497513054,
,3,넌 활발해,1,Green,B,5.666666666666667,5.6,ScrollUp,ScrollDown,Green.png,3,Positive,Incongruent,0,0,0,0,,,,,,,,,,,,,,,,,,,,,0,2,2,2,,,,,,,,,,,,,,,,,,,,,,,,,,,,,,,,,,,,,,,,,,,,,,,,,,,,,,,,,,,,,,,,,,,,,,,,,,,,,1.4830246918524306,0.7497574000008171,276.115673100001,None,NoResponse,무응답입니다,276.115673100001,None,276.115673100001,None,276.115673100001,None,276.115673100001,None,276.7748605000015,None,276.7748605000015,277.2748064000043,,,,,,,,,,,,,,,,101,2023-04-17_15h38.48.315,FishGame,2022.1.1,61.12185497513054,
,4,넌 논리적이야,2,Orange,A,5.666666666666666,4.633333333333334,ScrollDown,ScrollUp,Orange.png,3,Positive,Congruent,0,0,0,0,,,,,,,,,,,,,,,,,,,,,0,3,3,3,,,,,,,,,,,,,,,,,,,,,,,,,,,,,,,,,,,,,,,,,,,,,,,,,,,,,,,,,,,,,,,,,,,,,,,,,,,,,1.1975308656692505,0.8089744000026258,277.88429460000043,None,ScrollDown,정답입니다,277.88429460000043,None,277.88429460000043,None,277.88429460000043,None,277.88429460000043,None,278.5892596000049,None,278.5892596000049,279.0913440000004,,,,,,,,,,,,,,,,101,2023-04-17_15h38.48.315,FishGame,2022.1.1,61.12185497513054,
,5,넌 과묵해,3,Orange,A,3.875,4.4,ScrollDown,ScrollUp,Orange.png,3,Neutral,Neutral,0,0,0,0,,,,,,,,,,,,,,,,,,,,,0,4,4,4,,,,,,,,,,,,,,,,,,,,,,,,,,,,,,,,,,,,,,,,,,,,,,,,,,,,,,,,,,,,,,,,,,,,,,,,,,,,,1.3564814776182175,0.8294091999996454,279.7004253999985,None,ScrollDown,정답입니다,279.7004253999985,None,279.7004253999985,None,279.7004253999985,None,279.7004253999985,None,280.4413624000008,None,280.4413624000008,280.94135280000046,,,,,,,,,,,,,,,,101,2023-04-17_15h38.48.315,FishGame,2022.1.1,61.12185497513054,
,6,나를 데려가줘,6,Green,B,0,0,ScrollDown,ScrollUp,Green.png,3,NonTarget,NonTarget,0,0,0,0,,,,,,,,,,,,,,,,,,,,,0,5,5,5,,,,,,,,,,,,,,,,,,,,,,,,,,,,,,,,,,,,,,,,,,,,,,,,,,,,,,,,,,,,,,,,,,,,,,,,,,,,,1,1.3499134000012418,281.5461198000048,None,ScrollDown,정답입니다,281.5461198000048,None,281.5461198000048,None,281.5461198000048,None,281.5461198000048,None,282.80807659999846,None,282.80807659999846,283.30804999999964,,,,,,,,,,,,,,,,101,2023-04-17_15h38.48.315,FishGame,2022.1.1,61.12185497513054,
,7,넌 미숙해,4,Green,B,3,3,ScrollUp,ScrollDown,Green.png,3,Negative,Congruent,0,0,0,0,,,,,,,,,,,,,,,,,,,,,0,6,6,6,,,,,,,,,,,,,,,,,,,,,,,,,,,,,,,,,,,,,,,,,,,,,,,,,,,,,,,,,,,,,,,,,,,,,,,,,,,,,2,1.0157704000012018,283.91257490000135,None,ScrollUp,정답입니다,283.91257490000135,None,283.91257490000135,None,283.91257490000135,None,283.91257490000135,None,284.8413010000004,None,284.8413010000004,285.34122560000105,,,,,,,,,,,,,,,,101,2023-04-17_15h38.48.315,FishGame,2022.1.1,61.12185497513054,
,8,나를 보내줘,6,Orange,A,0,0,ScrollUp,ScrollDown,Orange.png,3,NonTarget,NonTarget,0,0,0,0,,,,,,,,,,,,,,,,,,,,,0,7,7,7,,,,,,,,,,,,,,,,,,,,,,,,,,,,,,,,,,,,,,,,,,,,,,,,,,,,,,,,,,,,,,,,,,,,,,,,,,,,,1.805555562178294,1.064975900000718,285.94763650000095,None,ScrollUp,정답입니다,285.94763650000095,None,285.94763650000095,None,285.94763650000095,None,285.94763650000095,None,286.92466879999847,None,286.92466879999847,287.4246026000037,,,,,,,,,,,,,,,,101,2023-04-17_15h38.48.315,FishGame,2022.1.1,61.12185497513054,
,9,넌 자신만만해,3,Green,B,4.833333333333334,4.333333333333333,ScrollUp,ScrollDown,Green.png,3,Neutral,Neutral,0,0,0,0,,,,,,,,,,,,,,,,,,,,,0,8,8,8,,,,,,,,,,,,,,,,,,,,,,,,,,,,,,,,,,,,,,,,,,,,,,,,,,,,,,,,,,,,,,,,,,,,,,,,,,,,,1.4830246918524306,1.3143196000019088,288.02935810000054,None,NoResponse,무응답입니다,288.02935810000054,None,288.02935810000054,None,288.02935810000054,None,288.02935810000054,None,289.25779790000524,None,289.25779790000524,289.77445920000173,,,,,,,,,,,,,,,,101,2023-04-17_15h38.48.315,FishGame,2022.1.1,61.12185497513054,
,10,넌 탐욕스러워,5,Orange,A,2.25,2.1,ScrollDown,ScrollUp,Orange.png,3,Negative,Incongruent,0,0,0,0,,,,,,,,,,,,,,,,,,,,,0,9,9,9,,,,,,,,,,,,,,,,,,,,,,,,,,,,,,,,,,,,,,,,,,,,,,,,,,,,,,,,,,,,,,,,,,,,,,,,,,,,,1,1.0319687999945018,290.368158199999,None,ScrollDown,정답입니다,290.368158199999,None,290.368158199999,None,290.368158199999,None,290.368158199999,None,291.3078459000026,None,291.3078459000026,291.8077754000042,,,,,,,,,,,,,,,,101,2023-04-17_15h38.48.315,FishGame,2022.1.1,61.12185497513054,
,11,넌 인기있어,2,Orange,A,5.458333333333333,4.5,ScrollDown,ScrollUp,Orange.png,3,Positive,Congruent,0,0,0,0,,,,,,,,,,,,,,,,,,,,,0,10,10,10,,,,,,,,,,,,,,,,,,,,,,,,,,,,,,,,,,,,,,,,,,,,,,,,,,,,,,,,,,,,,,,,,,,,,,,,,,,,,1,0.966518699999142,292.4141357000044,None,ScrollDown,정답입니다,292.4141357000044,None,292.4141357000044,None,292.4141357000044,None,292.4141357000044,None,293.2911338000049,None,293.2911338000049,293.7911449000021,,,,,,,,,,,,,,,,101,2023-04-17_15h38.48.315,FishGame,2022.1.1,61.12185497513054,
,12,나를 데려가줘,6,Green,B,0,0,ScrollDown,ScrollUp,Green.png,3,NonTarget,NonTarget,0,0,0,0,,,,,,,,,,,,,,,,,,,,,0,11,11,11,,,,,,,,,,,,,,,,,,,,,,,,,,,,,,,,,,,,,,,,,,,,,,,,,,,,,,,,,,,,,,,,,,,,,,,,,,,,,1.0324074228604634,1.0647385000047507,294.39610430000175,None,ScrollDown,정답입니다,294.39610430000175,None,294.39610430000175,None,294.39610430000175,None,294.39610430000175,None,295.37443239999993,None,295.37443239999993,295.8743487000029,,,,,,,,,,,,,,,,101,2023-04-17_15h38.48.315,FishGame,2022.1.1,61.12185497513054,
,13,넌 뛰어나,2,Green,B,6.166666666666667,4,ScrollUp,ScrollDown,Green.png,3,Positive,Incongruent,0,0,0,0,,,,,,,,,,,,,,,,,,,,,0,12,12,12,,,,,,,,,,,,,,,,,,,,,,,,,,,,,,,,,,,,,,,,,,,,,,,,,,,,,,,,,,,,,,,,,,,,,,,,,,,,,2,1.231440499999735,296.48093040000094,None,ScrollUp,정답입니다,296.48093040000094,None,296.48093040000094,None,296.48093040000094,None,296.48093040000094,None,297.6244310000038,None,297.6244310000038,298.124390500001,,,,,,,,,,,,,,,,101,2023-04-17_15h38.48.315,FishGame,2022.1.1,61.12185497513054,
,14,넌 낙관적이야,1,Orange,A,5.75,5.8,ScrollDown,ScrollUp,Orange.png,3,Positive,Congruent,0,0,0,0,,,,,,,,,,,,,,,,,,,,,0,13,13,13,,,,,,,,,,,,,,,,,,,,,,,,,,,,,,,,,,,,,,,,,,,,,,,,,,,,,,,,,,,,,,,,,,,,,,,,,,,,,1.1388888855775197,0.8831360999975004,298.73436159999983,None,ScrollDown,정답입니다,298.73436159999983,None,298.73436159999983,None,298.73436159999983,None,298.73436159999983,None,299.5277294000043,None,299.5277294000043,300.0409437999988,,,,,,,,,,,,,,,,101,2023-04-17_15h38.48.315,FishGame,2022.1.1,61.12185497513054,
,15,넌 산만해,4,Green,B,2.695652173913043,3.033333333333333,ScrollUp,ScrollDown,Green.png,3,Negative,Congruent,0,0,0,0,,,,,,,,,,,,,,,,,,,,,0,14,14,14,,,,,,,,,,,,,,,,,,,,,,,,,,,,,,,,,,,,,,,,,,,,,,,,,,,,,,,,,,,,,,,,,,,,,,,,,,,,,2,1.0983150999963982,300.6467569000015,None,ScrollUp,정답입니다,300.6467569000015,None,300.6467569000015,None,300.6467569000015,None,300.6467569000015,None,301.65764070000296,None,301.65764070000296,302.1576092000032,,,,,,,,,,,,,,,,101,2023-04-17_15h38.48.315,FishGame,2022.1.1,61.12185497513054,
,16,나를 보내줘,6,Orange,A,0,0,ScrollUp,ScrollDown,Orange.png,3,NonTarget,NonTarget,0,0,0,0,,,,,,,,,,,,,,,,,,,,,0,15,15,15,,,,,,,,,,,,,,,,,,,,,,,,,,,,,,,,,,,,,,,,,,,,,,,,,,,,,,,,,,,,,,,,,,,,,,,,,,,,,2,1.1981823000023724,302.7640298000042,None,ScrollUp,정답입니다,302.7640298000042,None,302.7640298000042,None,302.7640298000042,None,302.7640298000042,None,303.87437380000483,None,303.87437380000483,304.39093900000444,,,,,,,,,,,,,,,,101,2023-04-17_15h38.48.315,FishGame,2022.1.1,61.12185497513054,
,17,넌 교활해,5,Green,B,2.333333333333333,2.133333333333333,ScrollUp,ScrollDown,Green.png,3,Negative,Congruent,0,0,0,0,,,,,,,,,,,,,,,,,,,,,0,16,16,16,,,,,,,,,,,,,,,,,,,,,,,,,,,,,,,,,,,,,,,,,,,,,,,,,,,,,,,,,,,,,,,,,,,,,,,,,,,,,1.71913580596447,0.9791655000008177,304.985485600002,None,ScrollUp,정답입니다,304.985485600002,None,304.985485600002,None,304.985485600002,None,304.985485600002,None,305.87186700000166,None,305.87186700000166,306.371856800004,,,,,,,,,,,,,,,,101,2023-04-17_15h38.48.315,FishGame,2022.1.1,61.12185497513054,
,18,나를 보내줘,6,Orange,A,0,0,ScrollUp,ScrollDown,Orange.png,3,NonTarget,NonTarget,0,0,0,0,,,,,,,,,,,,,,,,,,,,,0,17,17,17,,,,,,,,,,,,,,,,,,,,,,,,,,,,,,,,,,,,,,,,,,,,,,,,,,,,,,,,,,,,,,,,,,,,,,,,,,,,,1.9367283980051677,1.0004747999992105,306.9773744999984,None,ScrollUp,정답입니다,306.9773744999984,None,306.9773744999984,None,306.9773744999984,None,306.9773744999984,None,307.8909402999998,None,307.8909402999998,308.39102730000013,,,,,,,,,,,,,,,,101,2023-04-17_15h38.48.315,FishGame,2022.1.1,61.12185497513054,
,19,넌 불친절해,5,Green,B,2.208333333333333,2.033333333333333,ScrollUp,ScrollDown,Green.png,3,Negative,Congruent,0,0,0,0,,,,,,,,,,,,,,,,,,,,,0,18,18,18,,,,,,,,,,,,,,,,,,,,,,,,,,,,,,,,,,,,,,,,,,,,,,,,,,,,,,,,,,,,,,,,,,,,,,,,,,,,,1.8024691343307495,0.829499700004817,308.9982349999991,None,ScrollUp,정답입니다,308.9982349999991,None,308.9982349999991,None,308.9982349999991,None,308.9982349999991,None,309.74092020000535,None,309.74092020000535,310.24398060000385,,,,,,,,,,,,,,,,101,2023-04-17_15h38.48.315,FishGame,2022.1.1,61.12185497513054,
,20,넌 지적이야,2,Green,B,5.75,4.366666666666666,ScrollUp,ScrollDown,Green.png,3,Positive,Incongruent,0,0,0,0,,,,,,,,,,,,,,,,,,,,,0,19,19,19,,,,,,,,,,,,,,,,,,,,,,,,,,,,,,,,,,,,,,,,,,,,,,,,,,,,,,,,,,,,,,,,,,,,,,,,,,,,,1.8611111144224803,0.8832693999938783,310.84505190000345,None,ScrollUp,정답입니다,310.84505190000345,None,310.84505190000345,None,310.84505190000345,None,310.84505190000345,None,311.6407454,None,311.6407454,312.14072470000247,,,,,,,,,,,,,,,,101,2023-04-17_15h38.48.315,FishGame,2022.1.1,61.12185497513054,
,21,넌 우유부단해,4,Orange,A,2.666666666666667,3.166666666666667,ScrollDown,ScrollUp,Orange.png,3,Negative,Incongruent,0,0,0,0,,,,,,,,,,,,,,,,,,,,,0,20,20,20,,,,,,,,,,,,,,,,,,,,,,,,,,,,,,,,,,,,,,,,,,,,,,,,,,,,,,,,,,,,,,,,,,,,,,,,,,,,,1.0524691541989644,0.9992647999970359,312.7513953000016,None,ScrollDown,정답입니다,312.7513953000016,None,312.7513953000016,None,312.7513953000016,None,312.7513953000016,None,313.6573684000032,None,313.6573684000032,314.1573209000053,,,,,,,,,,,,,,,,101,2023-04-17_15h38.48.315,FishGame,2022.1.1,61.12185497513054,
,22,나를 데려가줘,6,Green,B,0,0,ScrollDown,ScrollUp,Green.png,3,NonTarget,NonTarget,0,0,0,0,,,,,,,,,,,,,,,,,,,,,0,21,21,21,,,,,,,,,,,,,,,,,,,,,,,,,,,,,,,,,,,,,,,,,,,,,,,,,,,,,,,,,,,,,,,,,,,,,,,,,,,,,1.212962955236435,1.6813850999969873,314.76175440000225,None,ScrollDown,정답입니다,314.76175440000225,None,314.76175440000225,None,314.76175440000225,None,314.76175440000225,None,316.3573069000049,None,316.3573069000049,316.8573231000046,,,,,,,,,,,,,,,,101,2023-04-17_15h38.48.315,FishGame,2022.1.1,61.12185497513054,
,23,넌 성실해,1,Green,B,6.041666666666666,5.7,ScrollUp,ScrollDown,Green.png,3,Positive,Incongruent,0,0,0,0,,,,,,,,,,,,,,,,,,,,,0,22,22,22,,,,,,,,,,,,,,,,,,,,,,,,,,,,,,,,,,,,,,,,,,,,,,,,,,,,,,,,,,,,,,,,,,,,,,,,,,,,,1.6172839477658272,0.9951423999955296,317.46100370000204,None,ScrollUp,정답입니다,317.46100370000204,None,317.46100370000204,None,317.46100370000204,None,317.46100370000204,None,318.366451300004,None,318.366451300004,318.8716043000022,,,,,,,,,,,,,,,,101,2023-04-17_15h38.48.315,FishGame,2022.1.1,61.12185497513054,
,24,넌 현실주의적이야,3,Orange,A,4.625,4.4,ScrollDown,ScrollUp,Orange.png,3,Neutral,Neutral,0,0,0,0,,,,,,,,,,,,,,,,,,,,,0,23,23,23,,,,,,,,,,,,,,,,,,,,,,,,,,,,,,,,,,,,,,,,,,,,,,,,,,,,,,,,,,,,,,,,,,,,,,,,,,,,,1.3533950621883073,1.0981681999983266,319.47691670000495,None,ScrollDown,정답입니다,319.47691670000495,None,319.47691670000495,None,319.47691670000495,None,319.47691670000495,None,320.48833050000394,None,320.48833050000394,320.988291200003,,,,,,,,,,,,,,,,101,2023-04-17_15h38.48.315,FishGame,2022.1.1,61.12185497513054,
,25,넌 진실돼,1,Orange,A,6.625,5.566666666666666,ScrollDown,ScrollUp,Orange.png,3,Positive,Congruent,0,0,0,0,,,,,,,,,,,,,,,,,,,,,0,24,24,24,,,,,,,,,,,,,,,,,,,,,,,,,,,,,,,,,,,,,,,,,,,,,,,,,,,,,,,,,,,,,,,,,,,,,,,,,,,,,1.0385802288850148,1.0166580000004615,321.6003660999995,None,ScrollDown,정답입니다,321.6003660999995,None,321.6003660999995,None,321.6003660999995,None,321.6003660999995,None,322.5239761000048,None,322.5239761000048,323.02399180000066,,,,,,,,,,,,,,,,101,2023-04-17_15h38.48.315,FishGame,2022.1.1,61.12185497513054,
,26,넌 천진난만해,3,Green,B,4.958333333333334,4.833333333333333,ScrollUp,ScrollDown,Green.png,3,Neutral,Neutral,0,0,0,0,,,,,,,,,,,,,,,,,,,,,0,25,25,25,,,,,,,,,,,,,,,,,,,,,,,,,,,,,,,,,,,,,,,,,,,,,,,,,,,,,,,,,,,,,,,,,,,,,,,,,,,,,1.7067901194095612,0.8925044999996317,323.64088300000003,None,ScrollUp,정답입니다,323.64088300000003,None,323.64088300000003,None,323.64088300000003,None,323.64088300000003,None,324.4381648000053,None,324.4381648000053,324.9381558000023,,,,,,,,,,,,,,,,101,2023-04-17_15h38.48.315,FishGame,2022.1.1,61.12185497513054,
,27,넌 교양없어,5,Orange,A,2.416666666666667,2.2,ScrollDown,ScrollUp,Orange.png,3,Negative,Incongruent,0,0,0,0,,,,,,,,,,,,,,,,,,,,,0,26,26,26,,,,,,,,,,,,,,,,,,,,,,,,,,,,,,,,,,,,,,,,,,,,,,,,,,,,,,,,,,,,,,,,,,,,,,,,,,,,,1,1.0499442000000272,325.5450922000018,None,ScrollDown,정답입니다,325.5450922000018,None,325.5450922000018,None,325.5450922000018,None,325.5450922000018,None,326.5048354000028,None,326.5048354000028,327.0072216000044,,,,,,,,,,,,,,,,101,2023-04-17_15h38.48.315,FishGame,2022.1.1,61.12185497513054,
,28,나를 보내줘,6,Orange,A,0,0,ScrollUp,ScrollDown,Orange.png,3,NonTarget,NonTarget,0,0,0,0,,,,,,,,,,,,,,,,,,,,,0,27,27,27,,,,,,,,,,,,,,,,,,,,,,,,,,,,,,,,,,,,,,,,,,,,,,,,,,,,,,,,,,,,,,,,,,,,,,,,,,,,,1.7885802586873372,1.1980483999941498,327.61456570000155,None,ScrollUp,정답입니다,327.61456570000155,None,327.61456570000155,None,327.61456570000155,None,327.61456570000155,None,328.72390430000087,None,328.72390430000087,329.22385800000484,,,,,,,,,,,,,,,,101,2023-04-17_15h38.48.315,FishGame,2022.1.1,61.12185497513054,
,29,넌 엉뚱스러워,3,Orange,A,4.166666666666667,4.133333333333334,ScrollDown,ScrollUp,Orange.png,3,Neutral,Neutral,0,0,0,0,,,,,,,,,,,,,,,,,,,,,0,28,28,28,,,,,,,,,,,,,,,,,,,,,,,,,,,,,,,,,,,,,,,,,,,,,,,,,,,,,,,,,,,,,,,,,,,,,,,,,,,,,1,0.9301902999941376,329.8356874000019,None,ScrollDown,정답입니다,329.8356874000019,None,329.8356874000019,None,329.8356874000019,None,329.8356874000019,None,330.67380160000175,None,330.67380160000175,331.1736846999993,,,,,,,,,,,,,,,,101,2023-04-17_15h38.48.315,FishGame,2022.1.1,61.12185497513054,
,30,넌 무지해,4,Green,B,2.541666666666667,3.066666666666667,ScrollUp,ScrollDown,Green.png,3,Negative,Congruent,0,0,0,0,,,,,,,,,,,,,,,,,,,,,0,29,29,29,,,,,,,,,,,,,,,,,,,,,,,,,,,,,,,,,,,,,,,,,,,,,,,,,,,,,,,,,,,,,,,,,,,,,,,,,,,,,1.7376543233791986,1.0271337000012863,331.7805066000001,None,ScrollUp,정답입니다,331.7805066000001,None,331.7805066000001,None,331.7805066000001,None,331.7805066000001,None,332.72370420000516,None,332.72370420000516,333.224237800001,,,,,,,,,,,,,,,,101,2023-04-17_15h38.48.315,FishGame,2022.1.1,61.12185497513054,
,31,넌 음울해,5,Green,B,2.25,2.233333333333333,ScrollUp,ScrollDown,Green.png,3,Negative,Congruent,0,0,0,0,,,,,,,,,,,,,,,,,,,,,0,30,30,30,,,,,,,,,,,,,,,,,,,,,,,,,,,,,,,,,,,,,,,,,,,,,,,,,,,,,,,,,,,,,,,,,,,,,,,,,,,,,1.9814815024534862,0.963363599999866,333.8342854000002,None,ScrollUp,정답입니다,333.8342854000002,None,333.8342854000002,None,333.8342854000002,None,333.8342854000002,None,334.706920800003,None,334.706920800003,335.20691929999884,,,,,,,,,,,,,,,,101,2023-04-17_15h38.48.315,FishGame,2022.1.1,61.12185497513054,
,32,넌 냉소적이야,5,Orange,A,2.916666666666667,2.4,ScrollDown,ScrollUp,Orange.png,3,Negative,Incongruent,0,0,0,0,,,,,,,,,,,,,,,,,,,,,0,31,31,31,,,,,,,,,,,,,,,,,,,,,,,,,,,,,,,,,,,,,,,,,,,,,,,,,,,,,,,,,,,,,,,,,,,,,,,,,,,,,1,0.9309342999986256,335.81403780000255,None,ScrollDown,정답입니다,335.81403780000255,None,335.81403780000255,None,335.81403780000255,None,335.81403780000255,None,336.6568546000053,None,336.6568546000053,337.1568404999998,,,,,,,,,,,,,,,,101,2023-04-17_15h38.48.315,FishGame,2022.1.1,61.12185497513054,
,33,나를 데려가줘,6,Green,B,0,0,ScrollDown,ScrollUp,Green.png,3,NonTarget,NonTarget,0,0,0,0,,,,,,,,,,,,,,,,,,,,,0,32,32,32,,,,,,,,,,,,,,,,,,,,,,,,,,,,,,,,,,,,,,,,,,,,,,,,,,,,,,,,,,,,,,,,,,,,,,,,,,,,,1.0138889054457347,0.981227600001148,337.76092300000164,None,ScrollDown,정답입니다,337.76092300000164,None,337.76092300000164,None,337.76092300000164,None,337.76092300000164,None,338.6548498999982,None,338.6548498999982,339.1568297000049,,,,,,,,,,,,,,,,101,2023-04-17_15h38.48.315,FishGame,2022.1.1,61.12185497513054,
,34,넌 쾌활해,1,Orange,A,5.541666666666666,5.733333333333333,ScrollDown,ScrollUp,Orange.png,3,Positive,Congruent,0,0,0,0,,,,,,,,,,,,,,,,,,,,,0,33,33,33,,,,,,,,,,,,,,,,,,,,,,,,,,,,,,,,,,,,,,,,,,,,,,,,,,,,,,,,,,,,,,,,,,,,,,,,,,,,,1.0046296219031017,0.8314058000032674,339.7659685000035,None,ScrollDown,정답입니다,339.7659685000035,None,339.7659685000035,None,339.7659685000035,None,339.7659685000035,None,340.50687800000014,None,340.50687800000014,341.0068853999983,,,,,,,,,,,,,,,,101,2023-04-17_15h38.48.315,FishGame,2022.1.1,61.12185497513054,
,35,나를 보내줘,6,Orange,A,0,0,ScrollUp,ScrollDown,Orange.png,3,NonTarget,NonTarget,0,0,0,0,,,,,,,,,,,,,,,,,,,,,0,34,34,34,,,,,,,,,,,,,,,,,,,,,,,,,,,,,,,,,,,,,,,,,,,,,,,,,,,,,,,,,,,,,,,,,,,,,,,,,,,,,1.8657407313585281,1.1778980999952182,341.62097229999927,None,ScrollUp,정답입니다,341.62097229999927,None,341.62097229999927,None,341.62097229999927,None,341.62097229999927,None,342.7044489000036,None,342.7044489000036,343.20447960000456,,,,,,,,,,,,,,,,101,2023-04-17_15h38.48.315,FishGame,2022.1.1,61.12185497513054,
,36,넌 명랑해,1,Green,B,5.739130434782609,5.666666666666667,ScrollUp,ScrollDown,Green.png,3,Positive,Incongruent,0,0,0,0,,,,,,,,,,,,,,,,,,,,,0,35,35,35,,,,,,,,,,,,,,,,,,,,,,,,,,,,,,,,,,,,,,,,,,,,,,,,,,,,,,,,,,,,,,,,,,,,,,,,,,,,,1.766975313425064,0.831485499998962,343.81087720000505,None,ScrollUp,정답입니다,343.81087720000505,None,343.81087720000505,None,343.81087720000505,None,343.81087720000505,None,344.5570200000002,None,344.5570200000002,345.05688609999925,,,,,,,,,,,,,,,,101,2023-04-17_15h38.48.315,FishGame,2022.1.1,61.12185497513054,
,37,넌 멍해,4,Orange,A,2.833333333333333,3.4,ScrollDown,ScrollUp,Orange.png,3,Negative,Incongruent,0,0,0,0,,,,,,,,,,,,,,,,,,,,,0,36,36,36,,,,,,,,,,,,,,,,,,,,,,,,,,,,,,,,,,,,,,,,,,,,,,,,,,,,,,,,,,,,,,,,,,,,,,,,,,,,,1.0200617114702861,0.932126400002744,345.66608310000447,None,ScrollDown,정답입니다,345.66608310000447,None,345.66608310000447,None,345.66608310000447,None,345.66608310000447,None,346.50689330000023,None,346.50689330000023,347.0069048000005,,,,,,,,,,,,,,,,101,2023-04-17_15h38.48.315,FishGame,2022.1.1,61.12185497513054,
,38,나를 데려가줘,6,Green,B,0,0,ScrollDown,ScrollUp,Green.png,3,NonTarget,NonTarget,0,0,0,0,,,,,,,,,,,,,,,,,,,,,0,37,37,37,,,,,,,,,,,,,,,,,,,,,,,,,,,,,,,,,,,,,,,,,,,,,,,,,,,,,,,,,,,,,,,,,,,,,,,,,,,,,1.0339506367842357,0.999379200002295,347.61190830000123,None,ScrollDown,정답입니다,347.61190830000123,None,347.61190830000123,None,347.61190830000123,None,347.61190830000123,None,348.5213186000037,None,348.5213186000037,349.0233714999995,,,,,,,,,,,,,,,,101,2023-04-17_15h38.48.315,FishGame,2022.1.1,61.12185497513054,
,39,넌 현명해,2,Orange,A,6.541666666666666,4.533333333333333,ScrollDown,ScrollUp,Orange.png,3,Positive,Congruent,0,0,0,0,,,,,,,,,,,,,,,,,,,,,0,38,38,38,,,,,,,,,,,,,,,,,,,,,,,,,,,,,,,,,,,,,,,,,,,,,,,,,,,,,,,,,,,,,,,,,,,,,,,,,,,,,1.0030864079793294,0.849935700003698,349.628249100002,None,ScrollDown,정답입니다,349.628249100002,None,349.628249100002,None,349.628249100002,None,349.628249100002,None,350.38996050000424,None,350.38996050000424,350.8899197999999,,,,,,,,,,,,,,,,101,2023-04-17_15h38.48.315,FishGame,2022.1.1,61.12185497513054,
,40,넌 수줍어,3,Green,B,3.541666666666666,4.366666666666666,ScrollUp,ScrollDown,Green.png,3,Neutral,Neutral,0,0,0,0,,,,,,,,,,,,,,,,,,,,,0,39,39,39,,,,,,,,,,,,,,,,,,,,,,,,,,,,,,,,,,,,,,,,,,,,,,,,,,,,,,,,,,,,,,,,,,,,,,,,,,,,,2,1.131314599995676,351.49330790000386,None,ScrollUp,정답입니다,351.49330790000386,None,351.49330790000386,None,351.49330790000386,None,351.49330790000386,None,352.53997260000324,None,352.53997260000324,353.0398892000012,,,,,,,,,,,,,,,,101,2023-04-17_15h38.48.315,FishGame,2022.1.1,61.12185497513054,
,41,나를 데려가줘,6,Green,B,0,0,ScrollDown,ScrollUp,Green.png,3,NonTarget,NonTarget,0,0,0,0,,,,,,,,,,,,,,,,,,,,,0,40,40,40,,,,,,,,,,,,,,,,,,,,,,,,,,,,,,,,,,,,,,,,,,,,,,,,,,,,,,,,,,,,,,,,,,,,,,,,,,,,,1.0833333333333333,1.0309250999998767,353.6442851000029,None,ScrollDown,정답입니다,353.6442851000029,None,353.6442851000029,None,353.6442851000029,None,353.6442851000029,None,354.5875511999984,None,354.5875511999984,355.0876153999998,,,,,,,,,,,,,,,,101,2023-04-17_15h38.48.315,FishGame,2022.1.1,61.12185497513054,
,42,넌 성숙해,2,Green,B,5.833333333333333,4.533333333333333,ScrollUp,ScrollDown,Green.png,3,Positive,Incongruent,0,0,0,0,,,,,,,,,,,,,,,,,,,,,0,41,41,41,,,,,,,,,,,,,,,,,,,,,,,,,,,,,,,,,,,,,,,,,,,,,,,,,,,,,,,,,,,,,,,,,,,,,,,,,,,,,1.839506169160207,0.9646589000039967,355.6950694000043,None,ScrollUp,정답입니다,355.6950694000043,None,355.6950694000043,None,355.6950694000043,None,355.6950694000043,None,356.5708978000039,None,356.5708978000039,357.0732704000038,,,,,,,,,,,,,,,,101,2023-04-17_15h38.48.315,FishGame,2022.1.1,61.12185497513054,
,1,넌 매력적이야,2,Green,B,6.125,4.666666666666667,ScrollUp,ScrollDown,Green.png,4,Positive,Incongruent,0,0,0,0,,,,,,,,,,,,,,,,,,,,,,,,,0,0,0,0,,,,,,,,,,,,,,,,,,,,,,,,,,,,,,,,388.5224221000026,390.0259969000035,390.0424248000054,391.00602739999886,391.0560097999987,392.0092657999994,392.0092657999994,None,,,,,,,,,,,,,,,,,,,,,,,,,,,,,,,,,,1.699074074625969,1.0107864000019617,393.10209939999913,None,ScrollUp,정답입니다,393.10209939999913,None,393.10209939999913,None,393.10209939999913,None,393.10209939999913,None,394.022429800003,None,394.022429800003,394.52233759999945,357.57333690000087,None,357.57333690000087,None,0.010185185,-0.06851852,1,0,0,0.01629636000143364,None,387.5724144000051,None,,,101,2023-04-17_15h38.48.315,FishGame,2022.1.1,61.12185497513054,
,2,나를 보내줘,6,Orange,A,0,0,ScrollUp,ScrollDown,Orange.png,4,NonTarget,NonTarget,0,0,0,0,,,,,,,,,,,,,,,,,,,,,,,,,0,1,1,1,,,,,,,,,,,,,,,,,,,,,,,,,,,,,,,,,,,,,,,,,,,,,,,,,,,,,,,,,,,,,,,,,,,,,,,,,1.9305555423100789,0.9812609000000521,395.13070410000364,None,ScrollUp,정답입니다,395.13070410000364,None,395.13070410000364,None,395.13070410000364,None,395.13070410000364,None,396.0202830000053,None,396.0202830000053,396.52235940000537,,,,,,,,,,,,,,,,101,2023-04-17_15h38.48.315,FishGame,2022.1.1,61.12185497513054,
,3,넌 조심스러워,3,Orange,A,4.791666666666666,4.666666666666667,ScrollDown,ScrollUp,Orange.png,4,Neutral,Neutral,0,0,0,0,,,,,,,,,,,,,,,,,,,,,,,,,0,2,2,2,,,,,,,,,,,,,,,,,,,,,,,,,,,,,,,,,,,,,,,,,,,,,,,,,,,,,,,,,,,,,,,,,,,,,,,,,1,1.0332316999993054,397.12918110000464,None,ScrollDown,정답입니다,397.12918110000464,None,397.12918110000464,None,397.12918110000464,None,397.12918110000464,None,398.0723824000015,None,398.0723824000015,398.57236479999847,,,,,,,,,,,,,,,,101,2023-04-17_15h38.48.315,FishGame,2022.1.1,61.12185497513054,
,4,넌 철학적이야,3,Green,B,4.5,4.266666666666667,ScrollUp,ScrollDown,Green.png,4,Neutral,Neutral,0,0,0,0,,,,,,,,,,,,,,,,,,,,,,,,,0,3,3,3,,,,,,,,,,,,,,,,,,,,,,,,,,,,,,,,,,,,,,,,,,,,,,,,,,,,,,,,,,,,,,,,,,,,,,,,,1.6450617238879204,0.8498688999970909,399.1785574000023,None,ScrollUp,정답입니다,399.1785574000023,None,399.1785574000023,None,399.1785574000023,None,399.1785574000023,None,399.9368736000033,None,399.9368736000033,400.43891490000533,,,,,,,,,,,,,,,,101,2023-04-17_15h38.48.315,FishGame,2022.1.1,61.12185497513054,
,5,넌 쩨쩨해,5,Orange,A,2.375,2.133333333333333,ScrollDown,ScrollUp,Orange.png,4,Negative,Incongruent,0,0,0,0,,,,,,,,,,,,,,,,,,,,,,,,,0,4,4,4,,,,,,,,,,,,,,,,,,,,,,,,,,,,,,,,,,,,,,,,,,,,,,,,,,,,,,,,,,,,,,,,,,,,,,,,,1.0231481393178303,0.9141400999942562,401.04426850000164,None,ScrollDown,정답입니다,401.04426850000164,None,401.04426850000164,None,401.04426850000164,None,401.04426850000164,None,401.8722753000038,None,401.8722753000038,402.3722454000017,,,,,,,,,,,,,,,,101,2023-04-17_15h38.48.315,FishGame,2022.1.1,61.12185497513054,
,6,나를 데려가줘,6,Green,B,0,0,ScrollDown,ScrollUp,Green.png,4,NonTarget,NonTarget,0,0,0,0,,,,,,,,,,,,,,,,,,,,,,,,,0,5,5,5,,,,,,,,,,,,,,,,,,,,,,,,,,,,,,,,,,,,,,,,,,,,,,,,,,,,,,,,,,,,,,,,,,,,,,,,,1.0817901194095612,1.3333593999996083,402.9765705000027,None,ScrollDown,정답입니다,402.9765705000027,None,402.9765705000027,None,402.9765705000027,None,402.9765705000027,None,404.2222852999985,None,404.2222852999985,404.72222870000405,,,,,,,,,,,,,,,,101,2023-04-17_15h38.48.315,FishGame,2022.1.1,61.12185497513054,
,7,넌 고집불통이야,5,Green,B,2.875,2,ScrollUp,ScrollDown,Green.png,4,Negative,Congruent,0,0,0,0,,,,,,,,,,,,,,,,,,,,,,,,,0,6,6,6,,,,,,,,,,,,,,,,,,,,,,,,,,,,,,,,,,,,,,,,,,,,,,,,,,,,,,,,,,,,,,,,,,,,,,,,,1.7731481442848842,0.9134378999951878,405.33375280000473,None,ScrollUp,정답입니다,405.33375280000473,None,405.33375280000473,None,405.33375280000473,None,405.33375280000473,None,406.15553380000347,None,406.15553380000347,406.6554982000016,,,,,,,,,,,,,,,,101,2023-04-17_15h38.48.315,FishGame,2022.1.1,61.12185497513054,
,8,넌 무심해,4,Orange,A,2.875,3.2,ScrollDown,ScrollUp,Orange.png,4,Negative,Incongruent,0,0,0,0,,,,,,,,,,,,,,,,,,,,,,,,,0,7,7,7,,,,,,,,,,,,,,,,,,,,,,,,,,,,,,,,,,,,,,,,,,,,,,,,,,,,,,,,,,,,,,,,,,,,,,,,,1.0324074228604634,0.8278675000037765,407.2689532000004,None,ScrollDown,정답입니다,407.2689532000004,None,407.2689532000004,None,407.2689532000004,None,407.2689532000004,None,408.0032665000035,None,408.0032665000035,408.50315380000393,,,,,,,,,,,,,,,,101,2023-04-17_15h38.48.315,FishGame,2022.1.1,61.12185497513054,
,9,넌 정겨워,1,Orange,A,5.791666666666667,5.666666666666667,ScrollDown,ScrollUp,Orange.png,4,Positive,Congruent,0,0,0,0,,,,,,,,,,,,,,,,,,,,,,,,,0,8,8,8,,,,,,,,,,,,,,,,,,,,,,,,,,,,,,,,,,,,,,,,,,,,,,,,,,,,,,,,,,,,,,,,,,,,,,,,,1.0648148159186046,0.6829090000028373,409.1074045999994,None,ScrollDown,정답입니다,409.1074045999994,None,409.1074045999994,None,409.1074045999994,None,409.1074045999994,None,409.7031698999999,None,409.7031698999999,410.20318090000364,,,,,,,,,,,,,,,,101,2023-04-17_15h38.48.315,FishGame,2022.1.1,61.12185497513054,
,10,나를 데려가줘,6,Green,B,0,0,ScrollDown,ScrollUp,Green.png,4,NonTarget,NonTarget,0,0,0,0,,,,,,,,,,,,,,,,,,,,,,,,,0,9,9,9,,,,,,,,,,,,,,,,,,,,,,,,,,,,,,,,,,,,,,,,,,,,,,,,,,,,,,,,,,,,,,,,,,,,,,,,,1.10030863682429,1.1649778999999398,410.8149754000042,None,ScrollDown,정답입니다,410.8149754000042,None,410.8149754000042,None,410.8149754000042,None,410.8149754000042,None,411.8889571000036,None,411.8889571000036,412.3923246999984,,,,,,,,,,,,,,,,101,2023-04-17_15h38.48.315,FishGame,2022.1.1,61.12185497513054,
,11,넌 체제순응적이야,4,Green,B,3,3.6,ScrollUp,ScrollDown,Green.png,4,Negative,Congruent,0,0,0,0,,,,,,,,,,,,,,,,,,,,,,,,,0,10,10,10,,,,,,,,,,,,,,,,,,,,,,,,,,,,,,,,,,,,,,,,,,,,,,,,,,,,,,,,,,,,,,,,,,,,,,,,,1.5169753081475696,0.7964197999972384,412.9993343000024,None,NoResponse,무응답입니다,412.9993343000024,None,412.9993343000024,None,412.9993343000024,None,412.9993343000024,None,413.70547530000476,None,413.70547530000476,414.2053651000024,,,,,,,,,,,,,,,,101,2023-04-17_15h38.48.315,FishGame,2022.1.1,61.12185497513054,
,12,나를 보내줘,6,Orange,A,0,0,ScrollUp,ScrollDown,Orange.png,4,NonTarget,NonTarget,0,0,0,0,,,,,,,,,,,,,,,,,,,,,,,,,0,11,11,11,,,,,,,,,,,,,,,,,,,,,,,,,,,,,,,,,,,,,,,,,,,,,,,,,,,,,,,,,,,,,,,,,,,,,,,,,1.8935185074806213,1.2492425000018557,414.81780889999936,None,ScrollUp,정답입니다,414.81780889999936,None,414.81780889999936,None,414.81780889999936,None,414.81780889999936,None,415.97199199999886,None,415.97199199999886,416.47191430000385,,,,,,,,,,,,,,,,101,2023-04-17_15h38.48.315,FishGame,2022.1.1,61.12185497513054,
,13,넌 박식해,2,Orange,A,5.625,3.933333333333333,ScrollDown,ScrollUp,Orange.png,4,Positive,Congruent,0,0,0,0,,,,,,,,,,,,,,,,,,,,,,,,,0,12,12,12,,,,,,,,,,,,,,,,,,,,,,,,,,,,,,,,,,,,,,,,,,,,,,,,,,,,,,,,,,,,,,,,,,,,,,,,,1,1.0166452000048594,417.08166429999983,None,ScrollDown,정답입니다,417.08166429999983,None,417.08166429999983,None,417.08166429999983,None,417.08166429999983,None,418.0053123000034,None,418.0053123000034,418.5053216000015,,,,,,,,,,,,,,,,101,2023-04-17_15h38.48.315,FishGame,2022.1.1,61.12185497513054,
,14,나를 보내줘,6,Orange,A,0,0,ScrollUp,ScrollDown,Orange.png,4,NonTarget,NonTarget,0,0,0,0,,,,,,,,,,,,,,,,,,,,,,,,,0,13,13,13,,,,,,,,,,,,,,,,,,,,,,,,,,,,,,,,,,,,,,,,,,,,,,,,,,,,,,,,,,,,,,,,,,,,,,,,,1.7361111094554267,1.0165567999938503,419.1108585000038,None,ScrollUp,정답입니다,419.1108585000038,None,419.1108585000038,None,419.1108585000038,None,419.1108585000038,None,420.03647620000265,None,420.03647620000265,420.5387910999998,,,,,,,,,,,,,,,,101,2023-04-17_15h38.48.315,FishGame,2022.1.1,61.12185497513054,
,15,넌 침착해,1,Green,B,5.458333333333333,5.566666666666666,ScrollUp,ScrollDown,Green.png,4,Positive,Incongruent,0,0,0,0,,,,,,,,,,,,,,,,,,,,,,,,,0,14,14,14,,,,,,,,,,,,,,,,,,,,,,,,,,,,,,,,,,,,,,,,,,,,,,,,,,,,,,,,,,,,,,,,,,,,,,,,,1.8564814726511638,0.9295262999949045,421.1536608000024,None,ScrollUp,정답입니다,421.1536608000024,None,421.1536608000024,None,421.1536608000024,None,421.1536608000024,None,421.9886647000021,None,421.9886647000021,422.4885349000033,,,,,,,,,,,,,,,,101,2023-04-17_15h38.48.315,FishGame,2022.1.1,61.12185497513054,
,16,나를 데려가줘,6,Green,B,0,0,ScrollDown,ScrollUp,Green.png,4,NonTarget,NonTarget,0,0,0,0,,,,,,,,,,,,,,,,,,,,,,,,,0,15,15,15,,,,,,,,,,,,,,,,,,,,,,,,,,,,,,,,,,,,,,,,,,,,,,,,,,,,,,,,,,,,,,,,,,,,,,,,,1.1126543233791988,1.0475549000038882,423.0899553000054,None,ScrollDown,정답입니다,423.0899553000054,None,423.0899553000054,None,423.0899553000054,None,423.0899553000054,None,424.0528190000041,None,424.0528190000041,424.55285240000376,,,,,,,,,,,,,,,,101,2023-04-17_15h38.48.315,FishGame,2022.1.1,61.12185497513054,
,17,넌 행복해,1,Orange,A,6.416666666666666,6.166666666666667,ScrollDown,ScrollUp,Orange.png,4,Positive,Congruent,0,0,0,0,,,,,,,,,,,,,,,,,,,,,,,,,0,16,16,16,,,,,,,,,,,,,,,,,,,,,,,,,,,,,,,,,,,,,,,,,,,,,,,,,,,,,,,,,,,,,,,,,,,,,,,,,1,0.8981219999986934,425.16028760000336,None,ScrollDown,정답입니다,425.16028760000336,None,425.16028760000336,None,425.16028760000336,None,425.16028760000336,None,425.96951130000525,None,425.96951130000525,426.47265419999894,,,,,,,,,,,,,,,,101,2023-04-17_15h38.48.315,FishGame,2022.1.1,61.12185497513054,
,18,넌 겸손해,2,Green,B,5.791666666666667,4.766666666666667,ScrollUp,ScrollDown,Green.png,4,Positive,Incongruent,0,0,0,0,,,,,,,,,,,,,,,,,,,,,,,,,0,17,17,17,,,,,,,,,,,,,,,,,,,,,,,,,,,,,,,,,,,,,,,,,,,,,,,,,,,,,,,,,,,,,,,,,,,,,,,,,1.7283950646718345,0.7833983999953489,427.07975019999867,None,ScrollUp,정답입니다,427.07975019999867,None,427.07975019999867,None,427.07975019999867,None,427.07975019999867,None,427.77207590000035,None,427.77207590000035,428.2718853000042,,,,,,,,,,,,,,,,101,2023-04-17_15h38.48.315,FishGame,2022.1.1,61.12185497513054,
,19,나를 보내줘,6,Orange,A,0,0,ScrollUp,ScrollDown,Orange.png,4,NonTarget,NonTarget,0,0,0,0,,,,,,,,,,,,,,,,,,,,,,,,,0,18,18,18,,,,,,,,,,,,,,,,,,,,,,,,,,,,,,,,,,,,,,,,,,,,,,,,,,,,,,,,,,,,,,,,,,,,,,,,,2,1.0329468000054476,428.8780865000008,None,ScrollUp,정답입니다,428.8780865000008,None,428.8780865000008,None,428.8780865000008,None,428.8780865000008,None,429.82171760000347,None,429.82171760000347,430.3216564000031,,,,,,,,,,,,,,,,101,2023-04-17_15h38.48.315,FishGame,2022.1.1,61.12185497513054,
,20,넌 의심없어,3,Orange,A,4.166666666666667,4.6,ScrollDown,ScrollUp,Orange.png,4,Neutral,Neutral,0,0,0,0,,,,,,,,,,,,,,,,,,,,,,,,,0,19,19,19,,,,,,,,,,,,,,,,,,,,,,,,,,,,,,,,,,,,,,,,,,,,,,,,,,,,,,,,,,,,,,,,,,,,,,,,,1,0.7963577000045916,430.9245563000004,None,ScrollDown,정답입니다,430.9245563000004,None,430.9245563000004,None,430.9245563000004,None,430.9245563000004,None,431.63844719999906,None,431.63844719999906,432.13825599999836,,,,,,,,,,,,,,,,101,2023-04-17_15h38.48.315,FishGame,2022.1.1,61.12185497513054,
,21,넌 시시해,4,Orange,A,2.666666666666667,2.966666666666667,ScrollDown,ScrollUp,Orange.png,4,Negative,Incongruent,0,0,0,0,,,,,,,,,,,,,,,,,,,,,,,,,0,20,20,20,,,,,,,,,,,,,,,,,,,,,,,,,,,,,,,,,,,,,,,,,,,,,,,,,,,,,,,,,,,,,,,,,,,,,,,,,1,0.9333612000045832,432.7439672000037,None,ScrollDown,정답입니다,432.7439672000037,None,432.7439672000037,None,432.7439672000037,None,432.7439672000037,None,433.58828789999825,None,433.58828789999825,434.1049318000005,,,,,,,,,,,,,,,,101,2023-04-17_15h38.48.315,FishGame,2022.1.1,61.12185497513054,
,22,나를 데려가줘,6,Green,B,0,0,ScrollDown,ScrollUp,Green.png,4,NonTarget,NonTarget,0,0,0,0,,,,,,,,,,,,,,,,,,,,,,,,,0,21,21,21,,,,,,,,,,,,,,,,,,,,,,,,,,,,,,,,,,,,,,,,,,,,,,,,,,,,,,,,,,,,,,,,,,,,,,,,,1,1.3499977000028593,434.69231410000066,None,ScrollDown,정답입니다,434.69231410000066,None,434.69231410000066,None,434.69231410000066,None,434.69231410000066,None,435.9548858000053,None,435.9548858000053,436.4549326000051,,,,,,,,,,,,,,,,101,2023-04-17_15h38.48.315,FishGame,2022.1.1,61.12185497513054,
,23,넌 무정해,5,Orange,A,2.5,2.2,ScrollDown,ScrollUp,Orange.png,4,Negative,Incongruent,0,0,0,0,,,,,,,,,,,,,,,,,,,,,,,,,0,22,22,22,,,,,,,,,,,,,,,,,,,,,,,,,,,,,,,,,,,,,,,,,,,,,,,,,,,,,,,,,,,,,,,,,,,,,,,,,1,0.881418400000257,437.06017740000243,None,ScrollDown,정답입니다,437.06017740000243,None,437.06017740000243,None,437.06017740000243,None,437.06017740000243,None,437.85280530000455,None,437.85280530000455,438.3527652000048,,,,,,,,,,,,,,,,101,2023-04-17_15h38.48.315,FishGame,2022.1.1,61.12185497513054,
,24,넌 긍정적이야,1,Green,B,6.041666666666667,6.066666666666666,ScrollUp,ScrollDown,Green.png,4,Positive,Incongruent,0,0,0,0,,,,,,,,,,,,,,,,,,,,,,,,,0,23,23,23,,,,,,,,,,,,,,,,,,,,,,,,,,,,,,,,,,,,,,,,,,,,,,,,,,,,,,,,,,,,,,,,,,,,,,,,,1.7685185273488362,0.8314328999986174,438.9585595000026,None,ScrollUp,정답입니다,438.9585595000026,None,438.9585595000026,None,438.9585595000026,None,438.9585595000026,None,439.7047817999992,None,439.7047817999992,440.20479440000054,,,,,,,,,,,,,,,,101,2023-04-17_15h38.48.315,FishGame,2022.1.1,61.12185497513054,
,25,나를 보내줘,6,Orange,A,0,0,ScrollUp,ScrollDown,Orange.png,4,NonTarget,NonTarget,0,0,0,0,,,,,,,,,,,,,,,,,,,,,,,,,0,24,24,24,,,,,,,,,,,,,,,,,,,,,,,,,,,,,,,,,,,,,,,,,,,,,,,,,,,,,,,,,,,,,,,,,,,,,,,,,1.6373456791043282,1.014878400004818,440.8110977000033,None,ScrollUp,정답입니다,440.8110977000033,None,440.8110977000033,None,440.8110977000033,None,440.8110977000033,None,441.73814649999986,None,441.73814649999986,442.24136040000303,,,,,,,,,,,,,,,,101,2023-04-17_15h38.48.315,FishGame,2022.1.1,61.12185497513054,
,26,넌 시기심이 많아,5,Green,B,2.458333333333333,2.233333333333333,ScrollUp,ScrollDown,Green.png,4,Negative,Congruent,0,0,0,0,,,,,,,,,,,,,,,,,,,,,,,,,0,25,25,25,,,,,,,,,,,,,,,,,,,,,,,,,,,,,,,,,,,,,,,,,,,,,,,,,,,,,,,,,,,,,,,,,,,,,,,,,1.4567901249974966,0.8647299000003841,442.84658109999873,None,NoResponse,무응답입니다,442.84658109999873,None,442.84658109999873,None,442.84658109999873,None,442.84658109999873,None,443.62135169999965,None,443.62135169999965,444.12135110000236,,,,,,,,,,,,,,,,101,2023-04-17_15h38.48.315,FishGame,2022.1.1,61.12185497513054,
,27,넌 탁월해,2,Orange,A,5.708333333333334,4.5,ScrollDown,ScrollUp,Orange.png,4,Positive,Congruent,0,0,0,0,,,,,,,,,,,,,,,,,,,,,,,,,0,26,26,26,,,,,,,,,,,,,,,,,,,,,,,,,,,,,,,,,,,,,,,,,,,,,,,,,,,,,,,,,,,,,,,,,,,,,,,,,1,0.9161220000023604,444.73092760000145,None,ScrollDown,정답입니다,444.73092760000145,None,444.73092760000145,None,444.73092760000145,None,444.73092760000145,None,445.55479840000044,None,445.55479840000044,446.05474640000466,,,,,,,,,,,,,,,,101,2023-04-17_15h38.48.315,FishGame,2022.1.1,61.12185497513054,
,28,나를 데려가줘,6,Green,B,0,0,ScrollDown,ScrollUp,Green.png,4,NonTarget,NonTarget,0,0,0,0,,,,,,,,,,,,,,,,,,,,,,,,,0,27,27,27,,,,,,,,,,,,,,,,,,,,,,,,,,,,,,,,,,,,,,,,,,,,,,,,,,,,,,,,,,,,,,,,,,,,,,,,,1,1.0810696999978973,446.65645300000324,None,ScrollDown,정답입니다,446.65645300000324,None,446.65645300000324,None,446.65645300000324,None,446.65645300000324,None,447.6523299000037,None,447.6523299000037,448.1523975000018,,,,,,,,,,,,,,,,101,2023-04-17_15h38.48.315,FishGame,2022.1.1,61.12185497513054,
,29,넌 조용해,3,Green,B,4.333333333333333,4.166666666666667,ScrollUp,ScrollDown,Green.png,4,Neutral,Neutral,0,0,0,0,,,,,,,,,,,,,,,,,,,,,,,,,0,28,28,28,,,,,,,,,,,,,,,,,,,,,,,,,,,,,,,,,,,,,,,,,,,,,,,,,,,,,,,,,,,,,,,,,,,,,,,,,1.9783950746059418,0.935534700001881,448.75699560000066,None,ScrollUp,정답입니다,448.75699560000066,None,448.75699560000066,None,448.75699560000066,None,448.75699560000066,None,449.60478040000453,None,449.60478040000453,450.1047411000036,,,,,,,,,,,,,,,,101,2023-04-17_15h38.48.315,FishGame,2022.1.1,61.12185497513054,
,30,넌 다정해,1,Orange,A,5.833333333333334,5.7,ScrollDown,ScrollUp,Orange.png,4,Positive,Congruent,0,0,0,0,,,,,,,,,,,,,,,,,,,,,,,,,0,29,29,29,,,,,,,,,,,,,,,,,,,,,,,,,,,,,,,,,,,,,,,,,,,,,,,,,,,,,,,,,,,,,,,,,,,,,,,,,1,0.7146479000002728,450.7133573000028,None,ScrollDown,정답입니다,450.7133573000028,None,450.7133573000028,None,450.7133573000028,None,450.7133573000028,None,451.3380890000044,None,451.3380890000044,451.8381249000013,,,,,,,,,,,,,,,,101,2023-04-17_15h38.48.315,FishGame,2022.1.1,61.12185497513054,
,31,넌 능력있어,2,Green,B,6.166666666666666,4.6,ScrollUp,ScrollDown,Green.png,4,Positive,Incongruent,0,0,0,0,,,,,,,,,,,,,,,,,,,,,,,,,0,30,30,30,,,,,,,,,,,,,,,,,,,,,,,,,,,,,,,,,,,,,,,,,,,,,,,,,,,,,,,,,,,,,,,,,,,,,,,,,2,0.9284216000014567,452.4496935999996,None,ScrollUp,정답입니다,452.4496935999996,None,452.4496935999996,None,452.4496935999996,None,452.4496935999996,None,453.28583929999877,None,453.28583929999877,453.787857000003,,,,,,,,,,,,,,,,101,2023-04-17_15h38.48.315,FishGame,2022.1.1,61.12185497513054,
,32,넌 불쾌해,5,Orange,A,2.125,1.933333333333333,ScrollDown,ScrollUp,Orange.png,4,Negative,Incongruent,0,0,0,0,,,,,,,,,,,,,,,,,,,,,,,,,0,31,31,31,,,,,,,,,,,,,,,,,,,,,,,,,,,,,,,,,,,,,,,,,,,,,,,,,,,,,,,,,,,,,,,,,,,,,,,,,1,0.8313844000003883,454.3910423999987,None,ScrollDown,정답입니다,454.3910423999987,None,454.3910423999987,None,454.3910423999987,None,454.3910423999987,None,455.1379936000012,None,455.1379936000012,455.63777400000254,,,,,,,,,,,,,,,,101,2023-04-17_15h38.48.315,FishGame,2022.1.1,61.12185497513054,
,33,나를 데려가줘,6,Green,B,0,0,ScrollDown,ScrollUp,Green.png,4,NonTarget,NonTarget,0,0,0,0,,,,,,,,,,,,,,,,,,,,,,,,,0,32,32,32,,,,,,,,,,,,,,,,,,,,,,,,,,,,,,,,,,,,,,,,,,,,,,,,,,,,,,,,,,,,,,,,,,,,,,,,,1.1018518507480621,1.297929499996826,456.241749300003,None,ScrollDown,정답입니다,456.241749300003,None,456.241749300003,None,456.241749300003,None,456.241749300003,None,457.4545298000012,None,457.4545298000012,457.9544851000028,,,,,,,,,,,,,,,,101,2023-04-17_15h38.48.315,FishGame,2022.1.1,61.12185497513054,
,34,넌 유순해,3,Orange,A,4.458333333333333,5,ScrollDown,ScrollUp,Orange.png,4,Neutral,Neutral,0,0,0,0,,,,,,,,,,,,,,,,,,,,,,,,,0,33,33,33,,,,,,,,,,,,,,,,,,,,,,,,,,,,,,,,,,,,,,,,,,,,,,,,,,,,,,,,,,,,,,,,,,,,,,,,,1,0.8982457000020077,458.5607272999987,None,ScrollDown,정답입니다,458.5607272999987,None,458.5607272999987,None,458.5607272999987,None,458.5607272999987,None,459.37111130000267,None,459.37111130000267,459.8711478000041,,,,,,,,,,,,,,,,101,2023-04-17_15h38.48.315,FishGame,2022.1.1,61.12185497513054,
,35,넌 근심스러워,4,Green,B,2.708333333333333,3.133333333333333,ScrollUp,ScrollDown,Green.png,4,Negative,Congruent,0,0,0,0,,,,,,,,,,,,,,,,,,,,,,,,,0,34,34,34,,,,,,,,,,,,,,,,,,,,,,,,,,,,,,,,,,,,,,,,,,,,,,,,,,,,,,,,,,,,,,,,,,,,,,,,,2,0.9133823000011034,460.4816917999997,None,ScrollUp,정답입니다,460.4816917999997,None,460.4816917999997,None,460.4816917999997,None,460.4816917999997,None,461.30204980000417,None,461.30204980000417,461.8020437000014,,,,,,,,,,,,,,,,101,2023-04-17_15h38.48.315,FishGame,2022.1.1,61.12185497513054,
,36,넌 세련되었어,2,Orange,A,5.5,4.6,ScrollDown,ScrollUp,Orange.png,4,Positive,Congruent,0,0,0,0,,,,,,,,,,,,,,,,,,,,,,,,,0,35,35,35,,,,,,,,,,,,,,,,,,,,,,,,,,,,,,,,,,,,,,,,,,,,,,,,,,,,,,,,,,,,,,,,,,,,,,,,,1.1388888855775197,0.7483262999958242,462.4097754000031,None,ScrollDown,정답입니다,462.4097754000031,None,462.4097754000031,None,462.4097754000031,None,462.4097754000031,None,463.0687470000048,None,463.0687470000048,463.57119180000154,,,,,,,,,,,,,,,,101,2023-04-17_15h38.48.315,FishGame,2022.1.1,61.12185497513054,
,37,나를 보내줘,6,Orange,A,0,0,ScrollUp,ScrollDown,Orange.png,4,NonTarget,NonTarget,0,0,0,0,,,,,,,,,,,,,,,,,,,,,,,,,0,36,36,36,,,,,,,,,,,,,,,,,,,,,,,,,,,,,,,,,,,,,,,,,,,,,,,,,,,,,,,,,,,,,,,,,,,,,,,,,2,1.1164681000009296,464.1780368000036,None,ScrollUp,정답입니다,464.1780368000036,None,464.1780368000036,None,464.1780368000036,None,464.1780368000036,None,465.20443140000134,None,465.20443140000134,465.7043249999988,,,,,,,,,,,,,,,,101,2023-04-17_15h38.48.315,FishGame,2022.1.1,61.12185497513054,
,38,넌 확고해,3,Green,B,4.708333333333334,4.566666666666666,ScrollUp,ScrollDown,Green.png,4,Neutral,Neutral,0,0,0,0,,,,,,,,,,,,,,,,,,,,,,,,,0,37,37,37,,,,,,,,,,,,,,,,,,,,,,,,,,,,,,,,,,,,,,,,,,,,,,,,,,,,,,,,,,,,,,,,,,,,,,,,,1.9274691144625347,0.8982365999981994,466.3110605000038,None,ScrollUp,정답입니다,466.3110605000038,None,466.3110605000038,None,466.3110605000038,None,466.3110605000038,None,467.1209467000008,None,467.1209467000008,467.6209534000009,,,,,,,,,,,,,,,,101,2023-04-17_15h38.48.315,FishGame,2022.1.1,61.12185497513054,
,39,넌 이해심이 많아,1,Green,B,6.041666666666668,5.533333333333333,ScrollUp,ScrollDown,Green.png,4,Positive,Incongruent,0,0,0,0,,,,,,,,,,,,,,,,,,,,,,,,,0,38,38,38,,,,,,,,,,,,,,,,,,,,,,,,,,,,,,,,,,,,,,,,,,,,,,,,,,,,,,,,,,,,,,,,,,,,,,,,,1.9537037014961243,0.781264099998225,468.2312271000046,None,ScrollUp,정답입니다,468.2312271000046,None,468.2312271000046,None,468.2312271000046,None,468.2312271000046,None,468.9186148000008,None,468.9186148000008,469.4185723000046,,,,,,,,,,,,,,,,101,2023-04-17_15h38.48.315,FishGame,2022.1.1,61.12185497513054,
,40,나를 보내줘,6,Orange,A,0,0,ScrollUp,ScrollDown,Orange.png,4,NonTarget,NonTarget,0,0,0,0,,,,,,,,,,,,,,,,,,,,,,,,,0,39,39,39,,,,,,,,,,,,,,,,,,,,,,,,,,,,,,,,,,,,,,,,,,,,,,,,,,,,,,,,,,,,,,,,,,,,,,,,,1.7808641890684764,0.9645518999968772,470.0225903000028,None,ScrollUp,정답입니다,470.0225903000028,None,470.0225903000028,None,470.0225903000028,None,470.0225903000028,None,470.9019047000038,None,470.9019047000038,471.40430149999884,,,,,,,,,,,,,,,,101,2023-04-17_15h38.48.315,FishGame,2022.1.1,61.12185497513054,
,41,넌 거칠어,4,Orange,A,2.625,3.033333333333333,ScrollDown,ScrollUp,Orange.png,4,Negative,Incongruent,0,0,0,0,,,,,,,,,,,,,,,,,,,,,,,,,0,40,40,40,,,,,,,,,,,,,,,,,,,,,,,,,,,,,,,,,,,,,,,,,,,,,,,,,,,,,,,,,,,,,,,,,,,,,,,,,1.9861110945542653,0.8651198000006843,472.01336699999956,None,ScrollUp,오답입니다,472.01336699999956,None,472.01336699999956,None,472.01336699999956,None,472.01336699999956,None,472.78763730000355,None,472.78763730000355,473.2876843999984,,,,,,,,,,,,,,,,101,2023-04-17_15h38.48.315,FishGame,2022.1.1,61.12185497513054,
,42,넌 변덕맞아,5,Green,B,2.75,2.166666666666667,ScrollUp,ScrollDown,Green.png,4,Negative,Congruent,0,0,0,0,,,,,,,,,,,,,,,,,,,,,,,,,0,41,41,41,,,,,,,,,,,,,,,,,,,,,,,,,,,,,,,,,,,,,,,,,,,,,,,,,,,,,,,,,,,,,,,,,,,,,,,,,1.8950617214043934,0.9645227000000887,473.8969509000017,None,ScrollUp,정답입니다,473.8969509000017,None,473.8969509000017,None,473.8969509000017,None,473.8969509000017,None,474.7707812000008,None,474.7707812000008,475.27076959999977,,,,,,,,,,,,,,,,101,2023-04-17_15h38.48.315,FishGame,2022.1.1,61.12185497513054,
,43,나를 데려가줘,6,Green,B,0,0,ScrollDown,ScrollUp,Green.png,4,NonTarget,NonTarget,0,0,0,0,,,,,,,,,,,,,,,,,,,,,,,,,0,42,42,42,,,,,,,,,,,,,,,,,,,,,,,,,,,,,,,,,,,,,,,,,,,,,,,,,,,,,,,,,,,,,,,,,,,,,,,,,1,1.114977999997791,475.8750330000039,None,ScrollDown,정답입니다,475.8750330000039,None,475.8750330000039,None,475.8750330000039,None,475.8750330000039,None,476.9040366000045,None,476.9040366000045,477.4040213000044,,,,,,,,,,,,,,,,101,2023-04-17_15h38.48.315,FishGame,2022.1.1,61.12185497513054,
,44,넌 외로워,4,Green,B,2.833333333333333,3.3,ScrollUp,ScrollDown,Green.png,4,Negative,Congruent,0,0,0,0,,,,,,,,,,,,,,,,,,,,,,,,,0,43,43,43,,,,,,,,,,,,,,,,,,,,,,,,,,,,,,,,,,,,,,,,,,,,,,,,,,,,,,,,,,,,,,,,,,,,,,,,,1.8966049353281658,1.0650126000036835,478.01045510000404,None,ScrollUp,정답입니다,478.01045510000404,None,478.01045510000404,None,478.01045510000404,None,478.01045510000404,None,478.98521930000425,None,478.98521930000425,479.48738589999994,,,,,,,,,,,,,,,,101,2023-04-17_15h38.48.315,FishGame,2022.1.1,61.12185497513054,
,1,넌 불평스러워,5,Orange,A,2.25,2.066666666666667,ScrollDown,ScrollUp,Orange.png,5,Negative,Incongruent,0,0,0,0,,,,,,,,,,,,,,,,,,,,,,,,,,,,,0,0,0,0,,,,,,,,,,,,,,,,,,,,,,,,,,,,511.55328230000305,513.0534933000017,513.086798700002,514.0368474999996,514.0868521000011,515.036814500003,515.036814500003,None,,,,,,,,,,,,,,,,,,,,,,,,,,,,,,,,,,1.1049382785956066,0.8004330999974627,516.1096484000009,None,ScrollDown,정답입니다,516.1096484000009,None,516.1096484000009,None,516.1096484000009,None,516.1096484000009,None,516.8201278000051,None,516.8201278000051,517.3199458000017,479.9851750000016,None,479.9851750000016,None,-0.024074074,-0.11481482,1,0,0,0.016223459999309853,None,509.98666790000425,None,,,101,2023-04-17_15h38.48.315,FishGame,2022.1.1,61.12185497513054,
,2,나를 보내줘,6,Orange,A,0,0,ScrollUp,ScrollDown,Orange.png,5,NonTarget,NonTarget,0,0,0,0,,,,,,,,,,,,,,,,,,,,,,,,,,,,,0,1,1,1,,,,,,,,,,,,,,,,,,,,,,,,,,,,,,,,,,,,,,,,,,,,,,,,,,,,,,,,,,,,,,,,,,,,,1.90586419403553,0.9467813999945065,517.9263742000039,None,ScrollUp,정답입니다,517.9263742000039,None,517.9263742000039,None,517.9263742000039,None,517.9263742000039,None,518.786600600004,None,518.786600600004,519.2866024000032,,,,,,,,,,,,,,,,101,2023-04-17_15h38.48.315,FishGame,2022.1.1,61.12185497513054,
,3,넌 다재다능해,2,Green,B,6.208333333333333,4.5,ScrollUp,ScrollDown,Green.png,5,Positive,Incongruent,0,0,0,0,,,,,,,,,,,,,,,,,,,,,,,,,,,,,0,2,2,2,,,,,,,,,,,,,,,,,,,,,,,,,,,,,,,,,,,,,,,,,,,,,,,,,,,,,,,,,,,,,,,,,,,,,1.9305555423100789,0.8944367000003695,519.8988861000034,None,ScrollUp,정답입니다,519.8988861000034,None,519.8988861000034,None,519.8988861000034,None,519.8988861000034,None,520.7008421999999,None,520.7008421999999,521.2008408000038,,,,,,,,,,,,,,,,101,2023-04-17_15h38.48.315,FishGame,2022.1.1,61.12185497513054,
,4,넌 과감해,3,Orange,A,4.833333333333334,4.6,ScrollDown,ScrollUp,Orange.png,5,Neutral,Neutral,0,0,0,0,,,,,,,,,,,,,,,,,,,,,,,,,,,,,0,3,3,3,,,,,,,,,,,,,,,,,,,,,,,,,,,,,,,,,,,,,,,,,,,,,,,,,,,,,,,,,,,,,,,,,,,,,1,0.9358385000014096,521.8053437999988,None,ScrollDown,정답입니다,521.8053437999988,None,521.8053437999988,None,521.8053437999988,None,521.8053437999988,None,522.6533301000018,None,522.6533301000018,523.1533041000002,,,,,,,,,,,,,,,,101,2023-04-17_15h38.48.315,FishGame,2022.1.1,61.12185497513054,
,5,넌 고분고분해,3,Green,B,3.75,4.033333333333333,ScrollUp,ScrollDown,Green.png,5,Neutral,Neutral,0,0,0,0,,,,,,,,,,,,,,,,,,,,,,,,,,,,,0,4,4,4,,,,,,,,,,,,,,,,,,,,,,,,,,,,,,,,,,,,,,,,,,,,,,,,,,,,,,,,,,,,,,,,,,,,,1.7685185273488362,0.814933599998767,523.7602926000036,None,ScrollUp,정답입니다,523.7602926000036,None,523.7602926000036,None,523.7602926000036,None,523.7602926000036,None,524.4866140000013,None,524.4866140000013,524.9866145999986,,,,,,,,,,,,,,,,101,2023-04-17_15h38.48.315,FishGame,2022.1.1,61.12185497513054,
,6,나를 보내줘,6,Orange,A,0,0,ScrollUp,ScrollDown,Orange.png,5,NonTarget,NonTarget,0,0,0,0,,,,,,,,,,,,,,,,,,,,,,,,,,,,,0,5,5,5,,,,,,,,,,,,,,,,,,,,,,,,,,,,,,,,,,,,,,,,,,,,,,,,,,,,,,,,,,,,,,,,,,,,,1.9212963084379833,1.1615137999979197,525.5987277000022,None,ScrollUp,정답입니다,525.5987277000022,None,525.5987277000022,None,525.5987277000022,None,525.5987277000022,None,526.6678818,None,526.6678818,527.1697242000009,,,,,,,,,,,,,,,,101,2023-04-17_15h38.48.315,FishGame,2022.1.1,61.12185497513054,
,7,넌 잘 잊어,4,Orange,A,3,3.7,ScrollDown,ScrollUp,Orange.png,5,Negative,Incongruent,0,0,0,0,,,,,,,,,,,,,,,,,,,,,,,,,,,,,0,6,6,6,,,,,,,,,,,,,,,,,,,,,,,,,,,,,,,,,,,,,,,,,,,,,,,,,,,,,,,,,,,,,,,,,,,,,1,1.210064600003534,527.7802223000035,None,ScrollDown,정답입니다,527.7802223000035,None,527.7802223000035,None,527.7802223000035,None,527.7802223000035,None,528.8961722000022,None,528.8961722000022,529.4010081000015,,,,,,,,,,,,,,,,101,2023-04-17_15h38.48.315,FishGame,2022.1.1,61.12185497513054,
,8,넌 탐구심이없어,4,Green,B,2.833333333333333,3.066666666666667,ScrollUp,ScrollDown,Green.png,5,Negative,Congruent,0,0,0,0,,,,,,,,,,,,,,,,,,,,,,,,,,,,,0,7,7,7,,,,,,,,,,,,,,,,,,,,,,,,,,,,,,,,,,,,,,,,,,,,,,,,,,,,,,,,,,,,,,,,,,,,,1.6064814875523248,0.7813081000058446,530.0111193000048,None,ScrollUp,정답입니다,530.0111193000048,None,530.0111193000048,None,530.0111193000048,None,530.0111193000048,None,530.7006442999991,None,530.7006442999991,531.200703100003,,,,,,,,,,,,,,,,101,2023-04-17_15h38.48.315,FishGame,2022.1.1,61.12185497513054,
,9,나를 데려가줘,6,Green,B,0,0,ScrollDown,ScrollUp,Green.png,5,NonTarget,NonTarget,0,0,0,0,,,,,,,,,,,,,,,,,,,,,,,,,,,,,0,8,8,8,,,,,,,,,,,,,,,,,,,,,,,,,,,,,,,,,,,,,,,,,,,,,,,,,,,,,,,,,,,,,,,,,,,,,1,1.1643019000039203,531.808082399999,None,ScrollDown,정답입니다,531.808082399999,None,531.808082399999,None,531.808082399999,None,531.808082399999,None,532.8865121999988,None,532.8865121999988,533.3866557000001,,,,,,,,,,,,,,,,101,2023-04-17_15h38.48.315,FishGame,2022.1.1,61.12185497513054,
,10,넌 참되어,2,Orange,A,6.041666666666664,4.733333333333333,ScrollDown,ScrollUp,Orange.png,5,Positive,Congruent,0,0,0,0,,,,,,,,,,,,,,,,,,,,,,,,,,,,,0,9,9,9,,,,,,,,,,,,,,,,,,,,,,,,,,,,,,,,,,,,,,,,,,,,,,,,,,,,,,,,,,,,,,,,,,,,,1,0.9099759000018821,534.0006247999991,None,ScrollDown,정답입니다,534.0006247999991,None,534.0006247999991,None,534.0006247999991,None,534.0006247999991,None,534.8172335000054,None,534.8172335000054,535.3172229999982,,,,,,,,,,,,,,,,101,2023-04-17_15h38.48.315,FishGame,2022.1.1,61.12185497513054,
,11,넌 생기있어,1,Green,B,5.875,5.633333333333334,ScrollUp,ScrollDown,Green.png,5,Positive,Incongruent,0,0,0,0,,,,,,,,,,,,,,,,,,,,,,,,,,,,,0,10,10,10,,,,,,,,,,,,,,,,,,,,,,,,,,,,,,,,,,,,,,,,,,,,,,,,,,,,,,,,,,,,,,,,,,,,,1.2037036965290706,1.017059199999494,535.921777399999,None,ScrollDown,오답입니다,535.921777399999,None,535.921777399999,None,535.921777399999,None,535.921777399999,None,536.8531344000003,None,536.8531344000003,537.3530013999989,,,,,,,,,,,,,,,,101,2023-04-17_15h38.48.315,FishGame,2022.1.1,61.12185497513054,
,12,넌 비사교적이야,4,Green,B,2.875,2.9,ScrollUp,ScrollDown,Green.png,5,Negative,Congruent,0,0,0,0,,,,,,,,,,,,,,,,,,,,,,,,,,,,,0,11,11,11,,,,,,,,,,,,,,,,,,,,,,,,,,,,,,,,,,,,,,,,,,,,,,,,,,,,,,,,,,,,,,,,,,,,,1.9984568059444427,1.0833627000029082,537.9579585000029,None,ScrollUp,정답입니다,537.9579585000029,None,537.9579585000029,None,537.9579585000029,None,537.9579585000029,None,538.9530464000054,None,538.9530464000054,539.4528066999992,,,,,,,,,,,,,,,,101,2023-04-17_15h38.48.315,FishGame,2022.1.1,61.12185497513054,
,13,나를 데려가줘,6,Green,B,0,0,ScrollDown,ScrollUp,Green.png,5,NonTarget,NonTarget,0,0,0,0,,,,,,,,,,,,,,,,,,,,,,,,,,,,,0,12,12,12,,,,,,,,,,,,,,,,,,,,,,,,,,,,,,,,,,,,,,,,,,,,,,,,,,,,,,,,,,,,,,,,,,,,,1,1.7795142000031774,540.0557468000043,None,ScrollDown,정답입니다,540.0557468000043,None,540.0557468000043,None,540.0557468000043,None,540.0557468000043,None,541.7529017999987,None,541.7529017999987,542.2693604000015,,,,,,,,,,,,,,,,101,2023-04-17_15h38.48.315,FishGame,2022.1.1,61.12185497513054,
,14,넌 고독해,4,Orange,A,2.916666666666667,3.233333333333333,ScrollDown,ScrollUp,Orange.png,5,Negative,Incongruent,0,0,0,0,,,,,,,,,,,,,,,,,,,,,,,,,,,,,0,13,13,13,,,,,,,,,,,,,,,,,,,,,,,,,,,,,,,,,,,,,,,,,,,,,,,,,,,,,,,,,,,,,,,,,,,,,1.1774691343307495,1.1000442000004114,542.8560169000048,None,ScrollDown,정답입니다,542.8560169000048,None,542.8560169000048,None,542.8560169000048,None,542.8560169000048,None,543.8672955000002,None,543.8672955000002,544.3693468999991,,,,,,,,,,,,,,,,101,2023-04-17_15h38.48.315,FishGame,2022.1.1,61.12185497513054,
,15,넌 신경질적이야,5,Green,B,2.375,2.233333333333333,ScrollUp,ScrollDown,Green.png,5,Negative,Congruent,0,0,0,0,,,,,,,,,,,,,,,,,,,,,,,,,,,,,0,14,14,14,,,,,,,,,,,,,,,,,,,,,,,,,,,,,,,,,,,,,,,,,,,,,,,,,,,,,,,,,,,,,,,,,,,,,2,1.1666642999989563,544.9858797999987,None,ScrollUp,정답입니다,544.9858797999987,None,544.9858797999987,None,544.9858797999987,None,544.9858797999987,None,546.0526660000032,None,546.0526660000032,546.5526772000012,,,,,,,,,,,,,,,,101,2023-04-17_15h38.48.315,FishGame,2022.1.1,61.12185497513054,
,16,넌 똑똑해,2,Green,B,5.666666666666667,3.966666666666667,ScrollUp,ScrollDown,Green.png,5,Positive,Incongruent,0,0,0,0,,,,,,,,,,,,,,,,,,,,,,,,,,,,,0,15,15,15,,,,,,,,,,,,,,,,,,,,,,,,,,,,,,,,,,,,,,,,,,,,,,,,,,,,,,,,,,,,,,,,,,,,,1.9521604875723522,0.9333741000009468,547.1634172000049,None,ScrollUp,정답입니다,547.1634172000049,None,547.1634172000049,None,547.1634172000049,None,547.1634172000049,None,548.0026408999984,None,548.0026408999984,548.5026110000035,,,,,,,,,,,,,,,,101,2023-04-17_15h38.48.315,FishGame,2022.1.1,61.12185497513054,
,17,나를 보내줘,6,Orange,A,0,0,ScrollUp,ScrollDown,Orange.png,5,NonTarget,NonTarget,0,0,0,0,,,,,,,,,,,,,,,,,,,,,,,,,,,,,0,16,16,16,,,,,,,,,,,,,,,,,,,,,,,,,,,,,,,,,,,,,,,,,,,,,,,,,,,,,,,,,,,,,,,,,,,,,1,1.062764199996309,549.1145950999999,None,ScrollDown,오답입니다,549.1145950999999,None,549.1145950999999,None,549.1145950999999,None,549.1145950999999,None,550.0835988000035,None,550.0835988000035,550.5835978000032,,,,,,,,,,,,,,,,101,2023-04-17_15h38.48.315,FishGame,2022.1.1,61.12185497513054,
,18,넌 협조적이야,1,Orange,A,5.625,5.666666666666667,ScrollDown,ScrollUp,Orange.png,5,Positive,Congruent,0,0,0,0,,,,,,,,,,,,,,,,,,,,,,,,,,,,,0,17,17,17,,,,,,,,,,,,,,,,,,,,,,,,,,,,,,,,,,,,,,,,,,,,,,,,,,,,,,,,,,,,,,,,,,,,,1.3811728383104007,1.1829563999999664,551.1942544000049,None,ScrollDown,정답입니다,551.1942544000049,None,551.1942544000049,None,551.1942544000049,None,551.1942544000049,None,552.2862118999983,None,552.2862118999983,552.7860149000044,,,,,,,,,,,,,,,,101,2023-04-17_15h38.48.315,FishGame,2022.1.1,61.12185497513054,
,19,나를 데려가줘,6,Green,B,0,0,ScrollDown,ScrollUp,Green.png,5,NonTarget,NonTarget,0,0,0,0,,,,,,,,,,,,,,,,,,,,,,,,,,,,,0,18,18,18,,,,,,,,,,,,,,,,,,,,,,,,,,,,,,,,,,,,,,,,,,,,,,,,,,,,,,,,,,,,,,,,,,,,,1,1.0287496999953873,553.3919156999982,None,ScrollDown,정답입니다,553.3919156999982,None,553.3919156999982,None,553.3919156999982,None,553.3919156999982,None,554.3334923000002,None,554.3334923000002,554.8335225000046,,,,,,,,,,,,,,,,101,2023-04-17_15h38.48.315,FishGame,2022.1.1,61.12185497513054,
,20,넌 몰인정해,5,Green,B,2.541666666666667,2.066666666666667,ScrollUp,ScrollDown,Green.png,5,Negative,Congruent,0,0,0,0,,,,,,,,,,,,,,,,,,,,,,,,,,,,,0,19,19,19,,,,,,,,,,,,,,,,,,,,,,,,,,,,,,,,,,,,,,,,,,,,,,,,,,,,,,,,,,,,,,,,,,,,,1.9783950746059418,0.9690240999989328,555.4370210999987,None,ScrollUp,정답입니다,555.4370210999987,None,555.4370210999987,None,555.4370210999987,None,555.4370210999987,None,556.3193216,None,556.3193216,556.8192412999997,,,,,,,,,,,,,,,,101,2023-04-17_15h38.48.315,FishGame,2022.1.1,61.12185497513054,
,21,나를 데려가줘,6,Green,B,0,0,ScrollDown,ScrollUp,Green.png,5,NonTarget,NonTarget,0,0,0,0,,,,,,,,,,,,,,,,,,,,,,,,,,,,,0,20,20,20,,,,,,,,,,,,,,,,,,,,,,,,,,,,,,,,,,,,,,,,,,,,,,,,,,,,,,,,,,,,,,,,,,,,,1,0.9131329000010737,557.4289334999994,None,ScrollDown,정답입니다,557.4289334999994,None,557.4289334999994,None,557.4289334999994,None,557.4289334999994,None,558.2525991000002,None,558.2525991000002,558.7524067999984,,,,,,,,,,,,,,,,101,2023-04-17_15h38.48.315,FishGame,2022.1.1,61.12185497513054,
,22,넌 순진해,3,Green,B,4.125,4.166666666666667,ScrollUp,ScrollDown,Green.png,5,Neutral,Neutral,0,0,0,0,,,,,,,,,,,,,,,,,,,,,,,,,,,,,0,21,21,21,,,,,,,,,,,,,,,,,,,,,,,,,,,,,,,,,,,,,,,,,,,,,,,,,,,,,,,,,,,,,,,,,,,,,1.9259259502092998,0.916755699996429,559.3560719000016,None,ScrollUp,정답입니다,559.3560719000016,None,559.3560719000016,None,559.3560719000016,None,559.3560719000016,None,560.1857476000005,None,560.1857476000005,560.685754099999,,,,,,,,,,,,,,,,101,2023-04-17_15h38.48.315,FishGame,2022.1.1,61.12185497513054,
,23,넌 신뢰할만해,1,Orange,A,6.625,5.533333333333333,ScrollDown,ScrollUp,Orange.png,5,Positive,Congruent,0,0,0,0,,,,,,,,,,,,,,,,,,,,,,,,,,,,,0,22,22,22,,,,,,,,,,,,,,,,,,,,,,,,,,,,,,,,,,,,,,,,,,,,,,,,,,,,,,,,,,,,,,,,,,,,,1,0.7960890999966068,561.2964237999986,None,ScrollDown,정답입니다,561.2964237999986,None,561.2964237999986,None,561.2964237999986,None,561.2964237999986,None,562.0023008999997,None,562.0023008999997,562.5023030000011,,,,,,,,,,,,,,,,101,2023-04-17_15h38.48.315,FishGame,2022.1.1,61.12185497513054,
