name,TrialNum,Word,WordCategory,FishType,WordList,WordValence,WordReputation,CorrectResp,IncorrectResp,FishTypeFile,Round,WordType,Condition,LoopforOrange.thisRepN,LoopforOrange.thisTrialN,LoopforOrange.thisN,LoopforOrange.thisIndex,LoopForGreen.thisRepN,LoopForGreen.thisTrialN,LoopForGreen.thisN,LoopForGreen.thisIndex,GreenInstLoop.thisRepN,GreenInstLoop.thisTrialN,GreenInstLoop.thisN,GreenInstLoop.thisIndex,GreenPrac.thisRepN,GreenPrac.thisTrialN,GreenPrac.thisN,GreenPrac.thisIndex,trials_2.thisRepN,trials_2.thisTrialN,trials_2.thisN,trials_2.thisIndex,GreenRound1.thisRepN,GreenRound1.thisTrialN,GreenRound1.thisN,GreenRound1.thisIndex,GreenRound2.thisRepN,GreenRound2.thisTrialN,GreenRound2.thisN,GreenRound2.thisIndex,GreenRound3.thisRepN,GreenRound3.thisTrialN,GreenRound3.thisN,GreenRound3.thisIndex,GreenRound4.thisRepN,GreenRound4.thisTrialN,GreenRound4.thisN,GreenRound4.thisIndex,GreenRound5.thisRepN,GreenRound5.thisTrialN,GreenRound5.thisN,GreenRound5.thisIndex,text_2.started,text_2.stopped,text_3.started,text_3.stopped,key_resp.keys,key_resp.rt,key_resp.started,key_resp.stopped,PassI.started,PassI.stopped,PassInst.keys,PassInst.rt,PassInst.started,PassInst.stopped,mouse_2.x,mouse_2.y,mouse_2.leftButton,mouse_2.midButton,mouse_2.rightButton,mouse_2.started,mouse_2.stopped,image.started,image.stopped,text_5.started,text_5.stopped,text_6.started,text_6.stopped,text_7.started,text_7.stopped,text_8.started,text_8.stopped,slider_3.response,slider_3.rt,slider_3.started,slider_3.stopped,Response_3,Feedback_3,BackGround_3.started,BackGround_3.stopped,Fish_3.started,Fish_3.stopped,WordBox_3.started,WordBox_3.stopped,Words_3.started,Words_3.stopped,BackGround_Feedback_3.started,BackGround_Feedback_3.stopped,Feedbacks_3.started,Feedbacks_3.stopped,Continue_or_not_2.keys,Continue_or_not_2.rt,Continue_or_not_2.started,Continue_or_not_2.stopped,image_4.started,image_4.stopped,mouse_3.x,mouse_3.y,mouse_3.leftButton,mouse_3.midButton,mouse_3.rightButton,mouse_3.started,mouse_3.stopped,startmain.started,startmain.stopped,slider_4.response,slider_4.rt,slider_4.started,slider_4.stopped,Response_4,Feedback_4,BackGround_4.started,BackGround_4.stopped,Fish_4.started,Fish_4.stopped,WordBox_4.started,WordBox_4.stopped,Words_4.started,Words_4.stopped,BackGround_Feedback_4.started,BackGround_Feedback_4.stopped,Feedbacks_4.started,Feedbacks_4.stopped,text.started,text.stopped,break_interval.started,break_interval.stopped,mouse.x,mouse.y,mouse.leftButton,mouse.midButton,mouse.rightButton,mouse.started,mouse.stopped,stratnextround.started,stratnextround.stopped,endgame.started,endgame.stopped,participant,date,expName,psychopyVersion,frameRate,
,,,,,,,,,,,,,,,,,,,,,,,,,,,,,,,,,,,,,,,,,,,,,,,,,,,,,,17.01232570002321,None,17.01232570002321,None,space,1.1254085000255145,17.500186900026165,None,,,,,,,,,,,,,,,,,,,,,,,,,,,,,,,,,,,,,,,,,,,,,,,,,,,,,,,,,,,,,,,,,,,,,,,,,,,,,,,,,,,,,,,,,,102,2023-04-21_17h41.05.383,FishGame,2022.1.1,59.873857764814396,
물고기과제_instruction(참가자용)GreenVersion.mp4,,,,,,,,,,,,,,,,,,0,0,0,0,0,0,0,0,,,,,,,,,,,,,,,,,,,,,,,,,,,,,,,,,,,,,39.14943710004445,None,n,0.8598606999730691,39.14943710004445,None,,,,,,,,,,,,,,,,,,,,,,,,,,,,,,,,,,,,,,,,,,,,,,,,,,,,,,,,,,,,,,,,,,,,,,,,,,,,,,,,,,,,102,2023-04-21_17h41.05.383,FishGame,2022.1.1,59.873857764814396,
,1,넌 교활해,5,Orange,B,2.333333333333333,2.133333333333333,ScrollUp,ScrollDown,Orange.png,practice,,,,,,,0,0,0,0,,,,,0,0,0,0,0,0,0,0,,,,,,,,,,,,,,,,,,,,,,,,,,,,,,,,,,,0.02037037,-0.2175926,1,0,0,0.5004436200251803,None,40.03299129998777,None,46.41406050004298,47.91932909999741,47.95277580001857,48.916215800039936,48.94964050000999,49.8995525999926,49.8995525999926,None,1.7530864129463832,1.3907224999857135,51.16987310000695,None,ScrollUp,정답입니다,51.16987310000695,None,51.16987310000695,None,51.16987310000695,None,51.16987310000695,None,52.27711329999147,None,52.27711329999147,52.78028860001359,,,,,,,,,,,,,,,,,,,,,,,,,,,,,,,,,,,,,,,,,,,,,,,,,102,2023-04-21_17h41.05.383,FishGame,2022.1.1,59.873857764814396,
,2,넌 슬기로워,2,Green,A,6.166666666666667,4.1,ScrollDown,ScrollUp,Green.png,practice,,,,,,,0,0,0,0,,,,,0,0,0,0,0,1,1,1,,,,,,,,,,,,,,,,,,,,,,,,,,,,,,,,,,,,,,,,,,,,,,,,,,,,1,0.9651846999768168,53.38248710002517,None,ScrollDown,정답입니다,53.38248710002517,None,53.38248710002517,None,53.38248710002517,None,53.38248710002517,None,54.26369550003437,None,54.26369550003437,54.7636486000265,,,,,,,,,,,,,,,,,,,,,,,,,,,,,,,,,,,,,,,,,,,,,,,,,102,2023-04-21_17h41.05.383,FishGame,2022.1.1,59.873857764814396,
,3,나를 보내줘,6,Green,A,0,0,ScrollUp,ScrollDown,Green.png,practice,,,,,,,0,0,0,0,,,,,0,0,0,0,0,2,2,2,,,,,,,,,,,,,,,,,,,,,,,,,,,,,,,,,,,,,,,,,,,,,,,,,,,,1.8981481492519379,1.9148982999613509,55.37176430004183,None,ScrollUp,정답입니다,55.37176430004183,None,55.37176430004183,None,55.37176430004183,None,55.37176430004183,None,57.19939240004169,None,57.19939240004169,57.70266960002482,,,,,,,,,,,,,,,,,,,,,,,,,,,,,,,,,,,,,,,,,,,,,,,,,102,2023-04-21_17h41.05.383,FishGame,2022.1.1,59.873857764814396,
,4,나를 데려가줘,6,Orange,B,0,0,ScrollDown,ScrollUp,Orange.png,practice,,,,,,,0,0,0,0,,,,,0,0,0,0,0,3,3,3,,,,,,,,,,,,,,,,,,,,,,,,,,,,,,,,,,,,,,,,,,,,,,,,,,,,1,1.4469275000155903,58.30486800003564,None,ScrollDown,정답입니다,58.30486800003564,None,58.30486800003564,None,58.30486800003564,None,58.30486800003564,None,59.66583370004082,None,59.66583370004082,60.165846700023394,,,,,,,,,,,,,,,,,,,,,,,,,,,,,,,,,,,,,,,,,,,,,,,,,102,2023-04-21_17h41.05.383,FishGame,2022.1.1,59.873857764814396,
,1,넌 교활해,5,Orange,B,2.333333333333333,2.133333333333333,ScrollUp,ScrollDown,Orange.png,practice,,,,,,,0,0,0,0,,,,,0,0,0,0,,,,,,,,,,,,,,,,,,,,,,,,,,,,,,,,,,,,,,,,,,,,,,,,,,,,,,,,,,,,,,,,,,,,,,,,,,n,11.53448249999201,60.665872999990825,None,60.665872999990825,None,,,,,,,,,,,,,,,,,,,,,,,,,,,,,,,,,,,,,,,,,,,102,2023-04-21_17h41.05.383,FishGame,2022.1.1,59.873857764814396,
,1,넌 따뜻해,1,Orange,B,6.083333333333333,5.6,ScrollUp,ScrollDown,Orange.png,1,Positive,Incongruent,,,,,0,0,0,0,,,,,,,,,,,,,0,0,0,0,,,,,,,,,,,,,,,,,,,,,,,,,,,,,,,,,,,,,,,,78.06336040003225,79.56562200002372,79.5989472999936,80.54889510001522,80.59888370003318,81.54889400000684,81.54889400000684,None,,,,,,,,,,,,,,,,,,,,,,,,,-0.0129629625,-0.117592596,1,0,0,0.31495882000308484,None,72.23219800001243,None,2,1.3429332000087015,82.8260683999979,None,ScrollUp,정답입니다,82.8260683999979,None,82.8260683999979,None,82.8260683999979,None,82.8260683999979,None,83.88210570003139,None,83.88210570003139,84.38515740004368,,,,,,,,,,,,,,,,102,2023-04-21_17h41.05.383,FishGame,2022.1.1,59.873857764814396,
,2,넌 기품있어,2,Orange,B,5.791666666666668,4.5,ScrollUp,ScrollDown,Orange.png,1,Positive,Incongruent,,,,,0,0,0,0,,,,,,,,,,,,,0,1,1,1,,,,,,,,,,,,,,,,,,,,,,,,,,,,,,,,,,,,,,,,,,,,,,,,,,,,,,,,,,,,,,,,,,,,,,,,,,,,,,,,,1.7577160547176998,0.879450700012967,84.99405219999608,None,ScrollUp,정답입니다,84.99405219999608,None,84.99405219999608,None,84.99405219999608,None,84.99405219999608,None,85.7798909000121,None,85.7798909000121,86.28190980001818,,,,,,,,,,,,,,,,102,2023-04-21_17h41.05.383,FishGame,2022.1.1,59.873857764814396,
,3,나를 보내줘,6,Green,A,0,0,ScrollUp,ScrollDown,Green.png,1,NonTarget,NonTarget,,,,,0,0,0,0,,,,,,,,,,,,,0,2,2,2,,,,,,,,,,,,,,,,,,,,,,,,,,,,,,,,,,,,,,,,,,,,,,,,,,,,,,,,,,,,,,,,,,,,,,,,,,,,,,,,,1.7083333333333335,1.0650155999464914,86.89254180004355,None,ScrollUp,정답입니다,86.89254180004355,None,86.89254180004355,None,86.89254180004355,None,86.89254180004355,None,87.86535680002999,None,87.86535680002999,88.36527539999224,,,,,,,,,,,,,,,,102,2023-04-21_17h41.05.383,FishGame,2022.1.1,59.873857764814396,
,4,넌 수동적이야,4,Green,A,2.833333333333333,2.933333333333333,ScrollDown,ScrollUp,Green.png,1,Negative,Incongruent,,,,,0,0,0,0,,,,,,,,,,,,,0,3,3,3,,,,,,,,,,,,,,,,,,,,,,,,,,,,,,,,,,,,,,,,,,,,,,,,,,,,,,,,,,,,,,,,,,,,,,,,,,,,,,,,,1.1280864129463832,0.995933199999854,88.98080140003003,None,ScrollDown,정답입니다,88.98080140003003,None,88.98080140003003,None,88.98080140003003,None,88.98080140003003,None,89.87953840004047,None,89.87953840004047,90.37951739999698,,,,,,,,,,,,,,,,102,2023-04-21_17h41.05.383,FishGame,2022.1.1,59.873857764814396,
,5,넌 사심이 없어,3,Orange,B,4.916666666666666,4.333333333333333,ScrollUp,ScrollDown,Orange.png,1,Neutral,Neutral,,,,,0,0,0,0,,,,,,,,,,,,,0,4,4,4,,,,,,,,,,,,,,,,,,,,,,,,,,,,,,,,,,,,,,,,,,,,,,,,,,,,,,,,,,,,,,,,,,,,,,,,,,,,,,,,,1.9182098805904388,0.8649512999691069,90.99407650000649,None,ScrollUp,정답입니다,90.99407650000649,None,90.99407650000649,None,90.99407650000649,None,90.99407650000649,None,91.7628983000177,None,91.7628983000177,92.26525799999945,,,,,,,,,,,,,,,,102,2023-04-21_17h41.05.383,FishGame,2022.1.1,59.873857764814396,
,6,넌 헤퍼,5,Green,A,2.458333333333334,2.233333333333333,ScrollDown,ScrollUp,Green.png,1,Negative,Incongruent,,,,,0,0,0,0,,,,,,,,,,,,,0,5,5,5,,,,,,,,,,,,,,,,,,,,,,,,,,,,,,,,,,,,,,,,,,,,,,,,,,,,,,,,,,,,,,,,,,,,,,,,,,,,,,,,,1.0740740497907002,1.2630513000185601,92.8735871000099,None,ScrollDown,정답입니다,92.8735871000099,None,92.8735871000099,None,92.8735871000099,None,92.8735871000099,None,94.04865469998913,None,94.04865469998913,94.55172970000422,,,,,,,,,,,,,,,,102,2023-04-21_17h41.05.383,FishGame,2022.1.1,59.873857764814396,
,7,넌 말쑥해,3,Green,A,4.833333333333334,4.333333333333333,ScrollDown,ScrollUp,Green.png,1,Neutral,Neutral,,,,,0,0,0,0,,,,,,,,,,,,,0,6,6,6,,,,,,,,,,,,,,,,,,,,,,,,,,,,,,,,,,,,,,,,,,,,,,,,,,,,,,,,,,,,,,,,,,,,,,,,,,,,,,,,,1,0.8318680999800563,95.15610299998662,None,ScrollDown,정답입니다,95.15610299998662,None,95.15610299998662,None,95.15610299998662,None,95.15610299998662,None,95.89845810004044,None,95.89845810004044,96.39837280003121,,,,,,,,,,,,,,,,102,2023-04-21_17h41.05.383,FishGame,2022.1.1,59.873857764814396,
,8,넌 투덜거려,5,Orange,B,2.541666666666667,2.266666666666667,ScrollUp,ScrollDown,Orange.png,1,Negative,Congruent,,,,,0,0,0,0,,,,,,,,,,,,,0,7,7,7,,,,,,,,,,,,,,,,,,,,,,,,,,,,,,,,,,,,,,,,,,,,,,,,,,,,,,,,,,,,,,,,,,,,,,,,,,,,,,,,,1.7114197611808777,0.6429621999850497,97.02285140001914,None,ScrollUp,정답입니다,97.02285140001914,None,97.02285140001914,None,97.02285140001914,None,97.02285140001914,None,97.56273549998878,None,97.56273549998878,98.06269859999884,,,,,,,,,,,,,,,,102,2023-04-21_17h41.05.383,FishGame,2022.1.1,59.873857764814396,
,9,넌 적극적이야,1,Green,A,5.708333333333333,5.533333333333333,ScrollDown,ScrollUp,Green.png,1,Positive,Congruent,,,,,0,0,0,0,,,,,,,,,,,,,0,8,8,8,,,,,,,,,,,,,,,,,,,,,,,,,,,,,,,,,,,,,,,,,,,,,,,,,,,,,,,,,,,,,,,,,,,,,,,,,,,,,,,,,1.0154321193695068,0.8308644999633543,98.66796430002432,None,ScrollDown,정답입니다,98.66796430002432,None,98.66796430002432,None,98.66796430002432,None,98.66796430002432,None,99.41273370001,None,99.41273370001,99.91511280002305,,,,,,,,,,,,,,,,102,2023-04-21_17h41.05.383,FishGame,2022.1.1,59.873857764814396,
,10,넌 재미없어,4,Orange,B,2.625,2.966666666666667,ScrollUp,ScrollDown,Orange.png,1,Negative,Congruent,,,,,0,0,0,0,,,,,,,,,,,,,0,9,9,9,,,,,,,,,,,,,,,,,,,,,,,,,,,,,,,,,,,,,,,,,,,,,,,,,,,,,,,,,,,,,,,,,,,,,,,,,,,,,,,,,1.733024681607882,0.7816765999887139,100.52603340003407,None,ScrollUp,정답입니다,100.52603340003407,None,100.52603340003407,None,100.52603340003407,None,100.52603340003407,None,101.21523130004061,None,101.21523130004061,101.71509200002765,,,,,,,,,,,,,,,,102,2023-04-21_17h41.05.383,FishGame,2022.1.1,59.873857764814396,
,11,넌 명석해,2,Green,A,5.875,4.033333333333333,ScrollDown,ScrollUp,Green.png,1,Positive,Congruent,,,,,0,0,0,0,,,,,,,,,,,,,0,10,10,10,,,,,,,,,,,,,,,,,,,,,,,,,,,,,,,,,,,,,,,,,,,,,,,,,,,,,,,,,,,,,,,,,,,,,,,,,,,,,,,,,1.2592592487732568,0.7317333000246435,102.32759910001187,None,ScrollDown,정답입니다,102.32759910001187,None,102.32759910001187,None,102.32759910001187,None,102.32759910001187,None,102.96495069999946,None,102.96495069999946,103.46493640000699,,,,,,,,,,,,,,,,102,2023-04-21_17h41.05.383,FishGame,2022.1.1,59.873857764814396,
,12,나를 데려가줘,6,Orange,B,0,0,ScrollDown,ScrollUp,Orange.png,1,NonTarget,NonTarget,,,,,0,0,0,0,,,,,,,,,,,,,0,11,11,11,,,,,,,,,,,,,,,,,,,,,,,,,,,,,,,,,,,,,,,,,,,,,,,,,,,,,,,,,,,,,,,,,,,,,,,,,,,,,,,,,1,1.212750100006815,104.07635859999573,None,ScrollDown,정답입니다,104.07635859999573,None,104.07635859999573,None,104.07635859999573,None,104.07635859999573,None,105.19830069999443,None,105.19830069999443,105.69818790000863,,,,,,,,,,,,,,,,102,2023-04-21_17h41.05.383,FishGame,2022.1.1,59.873857764814396,
,13,넌 소심해,4,Green,A,3,3.1,ScrollDown,ScrollUp,Green.png,1,Negative,Incongruent,,,,,0,0,0,0,,,,,,,,,,,,,0,12,12,12,,,,,,,,,,,,,,,,,,,,,,,,,,,,,,,,,,,,,,,,,,,,,,,,,,,,,,,,,,,,,,,,,,,,,,,,,,,,,,,,,1.7361111094554267,0.7152734000119381,106.30449619999854,None,ScrollUp,오답입니다,106.30449619999854,None,106.30449619999854,None,106.30449619999854,None,106.30449619999854,None,106.92946380004287,None,106.92946380004287,107.43143990001408,,,,,,,,,,,,,,,,102,2023-04-21_17h41.05.383,FishGame,2022.1.1,59.873857764814396,
,14,넌 합리적이야,2,Green,A,5.583333333333333,4.733333333333333,ScrollDown,ScrollUp,Green.png,1,Positive,Congruent,,,,,0,0,0,0,,,,,,,,,,,,,0,13,13,13,,,,,,,,,,,,,,,,,,,,,,,,,,,,,,,,,,,,,,,,,,,,,,,,,,,,,,,,,,,,,,,,,,,,,,,,,,,,,,,,,1,1.2647378999972716,108.03991600003792,None,ScrollDown,정답입니다,108.03991600003792,None,108.03991600003792,None,108.03991600003792,None,108.03991600003792,None,109.21487540000817,None,109.21487540000817,109.71480850002263,,,,,,,,,,,,,,,,102,2023-04-21_17h41.05.383,FishGame,2022.1.1,59.873857764814396,
,15,넌 무자비해,5,Orange,B,2.333333333333333,2.1,ScrollUp,ScrollDown,Orange.png,1,Negative,Congruent,,,,,0,0,0,0,,,,,,,,,,,,,0,14,14,14,,,,,,,,,,,,,,,,,,,,,,,,,,,,,,,,,,,,,,,,,,,,,,,,,,,,,,,,,,,,,,,,,,,,,,,,,,,,,,,,,1.6419753084580102,0.6792595000006258,110.33214360004058,None,ScrollUp,정답입니다,110.33214360004058,None,110.33214360004058,None,110.33214360004058,None,110.33214360004058,None,110.9124482999905,None,110.9124482999905,111.41243690002011,,,,,,,,,,,,,,,,102,2023-04-21_17h41.05.383,FishGame,2022.1.1,59.873857764814396,
,16,나를 보내줘,6,Green,A,0,0,ScrollUp,ScrollDown,Green.png,1,NonTarget,NonTarget,,,,,0,0,0,0,,,,,,,,,,,,,0,15,15,15,,,,,,,,,,,,,,,,,,,,,,,,,,,,,,,,,,,,,,,,,,,,,,,,,,,,,,,,,,,,,,,,,,,,,,,,,,,,,,,,,1.7932098756233852,1.0838653999962844,112.01410090003628,None,ScrollUp,정답입니다,112.01410090003628,None,112.01410090003628,None,112.01410090003628,None,112.01410090003628,None,113.01498919998994,None,113.01498919998994,113.51481860002968,,,,,,,,,,,,,,,,102,2023-04-21_17h41.05.383,FishGame,2022.1.1,59.873857764814396,
,17,넌 현실적이야,3,Orange,B,4.608695652173913,4.766666666666667,ScrollUp,ScrollDown,Orange.png,1,Neutral,Neutral,,,,,0,0,0,0,,,,,,,,,,,,,0,16,16,16,,,,,,,,,,,,,,,,,,,,,,,,,,,,,,,,,,,,,,,,,,,,,,,,,,,,,,,,,,,,,,,,,,,,,,,,,,,,,,,,,1.1141975373029709,0.8629961999831721,114.12572190002538,None,ScrollDown,오답입니다,114.12572190002538,None,114.12572190002538,None,114.12572190002538,None,114.12572190002538,None,114.89836500003003,None,114.89836500003003,115.39821910002502,,,,,,,,,,,,,,,,102,2023-04-21_17h41.05.383,FishGame,2022.1.1,59.873857764814396,
,18,넌 의리있어,1,Orange,B,5.833333333333334,5.633333333333334,ScrollUp,ScrollDown,Orange.png,1,Positive,Incongruent,,,,,0,0,0,0,,,,,,,,,,,,,0,17,17,17,,,,,,,,,,,,,,,,,,,,,,,,,,,,,,,,,,,,,,,,,,,,,,,,,,,,,,,,,,,,,,,,,,,,,,,,,,,,,,,,,2,1.6464692000299692,116.00658929999918,None,ScrollUp,정답입니다,116.00658929999918,None,116.00658929999918,None,116.00658929999918,None,116.00658929999918,None,117.56467660004273,None,117.56467660004273,118.06465010001557,,,,,,,,,,,,,,,,102,2023-04-21_17h41.05.383,FishGame,2022.1.1,59.873857764814396,
,19,넌 신경과민이야,5,Green,A,2.541666666666667,2.166666666666667,ScrollDown,ScrollUp,Green.png,1,Negative,Incongruent,,,,,0,0,0,0,,,,,,,,,,,,,0,18,18,18,,,,,,,,,,,,,,,,,,,,,,,,,,,,,,,,,,,,,,,,,,,,,,,,,,,,,,,,,,,,,,,,,,,,,,,,,,,,,,,,,1,0.7951262000133283,118.67814750003163,None,ScrollDown,정답입니다,118.67814750003163,None,118.67814750003163,None,118.67814750003163,None,118.67814750003163,None,119.38119929999812,None,119.38119929999812,119.88119889999507,,,,,,,,,,,,,,,,102,2023-04-21_17h41.05.383,FishGame,2022.1.1,59.873857764814396,
,20,넌 편안해,1,Green,A,5.916666666666666,5.866666666666666,ScrollDown,ScrollUp,Green.png,1,Positive,Congruent,,,,,0,0,0,0,,,,,,,,,,,,,0,19,19,19,,,,,,,,,,,,,,,,,,,,,,,,,,,,,,,,,,,,,,,,,,,,,,,,,,,,,,,,,,,,,,,,,,,,,,,,,,,,,,,,,1.0200617114702861,1.1462932999711484,120.48883590003243,None,ScrollDown,정답입니다,120.48883590003243,None,120.48883590003243,None,120.48883590003243,None,120.48883590003243,None,121.54587540001376,None,121.54587540001376,122.04791359999217,,,,,,,,,,,,,,,,102,2023-04-21_17h41.05.383,FishGame,2022.1.1,59.873857764814396,
,21,넌 품위있어,2,Orange,B,5.291666666666666,4.466666666666667,ScrollUp,ScrollDown,Orange.png,1,Positive,Incongruent,,,,,0,0,0,0,,,,,,,,,,,,,0,20,20,20,,,,,,,,,,,,,,,,,,,,,,,,,,,,,,,,,,,,,,,,,,,,,,,,,,,,,,,,,,,,,,,,,,,,,,,,,,,,,,,,,1.8101851791143417,0.862016900035087,122.66161110001849,None,ScrollUp,정답입니다,122.66161110001849,None,122.66161110001849,None,122.66161110001849,None,122.66161110001849,None,123.4291561000282,None,123.4291561000282,123.93119590001879,,,,,,,,,,,,,,,,102,2023-04-21_17h41.05.383,FishGame,2022.1.1,59.873857764814396,
,22,넌 빈틈없어,3,Green,A,4.833333333333333,3.966666666666667,ScrollDown,ScrollUp,Green.png,1,Neutral,Neutral,,,,,0,0,0,0,,,,,,,,,,,,,0,21,21,21,,,,,,,,,,,,,,,,,,,,,,,,,,,,,,,,,,,,,,,,,,,,,,,,,,,,,,,,,,,,,,,,,,,,,,,,,,,,,,,,,1.115740751226743,0.8294169000000693,124.54416320001474,None,ScrollDown,정답입니다,124.54416320001474,None,124.54416320001474,None,124.54416320001474,None,124.54416320001474,None,125.2788189999992,None,125.2788189999992,125.77890010003466,,,,,,,,,,,,,,,,102,2023-04-21_17h41.05.383,FishGame,2022.1.1,59.873857764814396,
,23,넌 상상력없어,4,Orange,B,2.833333333333333,3.133333333333333,ScrollUp,ScrollDown,Orange.png,1,Negative,Congruent,,,,,0,0,0,0,,,,,,,,,,,,,0,22,22,22,,,,,,,,,,,,,,,,,,,,,,,,,,,,,,,,,,,,,,,,,,,,,,,,,,,,,,,,,,,,,,,,,,,,,,,,,,,,,,,,,1.8024691343307495,0.6816012999624945,126.38702140003443,None,ScrollUp,정답입니다,126.38702140003443,None,126.38702140003443,None,126.38702140003443,None,126.38702140003443,None,126.97886520001339,None,126.97886520001339,127.47882150002988,,,,,,,,,,,,,,,,102,2023-04-21_17h41.05.383,FishGame,2022.1.1,59.873857764814396,
,24,넌 지혜로워,2,Orange,B,6.333333333333334,4.633333333333334,ScrollUp,ScrollDown,Orange.png,1,Positive,Incongruent,,,,,0,0,0,0,,,,,,,,,,,,,0,23,23,23,,,,,,,,,,,,,,,,,,,,,,,,,,,,,,,,,,,,,,,,,,,,,,,,,,,,,,,,,,,,,,,,,,,,,,,,,,,,,,,,,1.71913580596447,0.8153555999742821,128.09342950000428,None,ScrollUp,정답입니다,128.09342950000428,None,128.09342950000428,None,128.09342950000428,None,128.09342950000428,None,128.8146200000192,None,128.8146200000192,129.3145346000092,,,,,,,,,,,,,,,,102,2023-04-21_17h41.05.383,FishGame,2022.1.1,59.873857764814396,
,25,넌 시끄러워,4,Green,A,2.833333333333333,3.033333333333333,ScrollDown,ScrollUp,Green.png,1,Negative,Incongruent,,,,,0,0,0,0,,,,,,,,,,,,,0,24,24,24,,,,,,,,,,,,,,,,,,,,,,,,,,,,,,,,,,,,,,,,,,,,,,,,,,,,,,,,,,,,,,,,,,,,,,,,,,,,,,,,,1.0246913532416027,0.8816389999701641,129.92295860004378,None,ScrollDown,정답입니다,129.92295860004378,None,129.92295860004378,None,129.92295860004378,None,129.92295860004378,None,130.7123353999923,None,130.7123353999923,131.21435329999076,,,,,,,,,,,,,,,,102,2023-04-21_17h41.05.383,FishGame,2022.1.1,59.873857764814396,
,26,넌 만사태평이야,3,Orange,B,4,4.333333333333333,ScrollUp,ScrollDown,Orange.png,1,Neutral,Neutral,,,,,0,0,0,0,,,,,,,,,,,,,0,25,25,25,,,,,,,,,,,,,,,,,,,,,,,,,,,,,,,,,,,,,,,,,,,,,,,,,,,,,,,,,,,,,,,,,,,,,,,,,,,,,,,,,1.7962963034709294,0.7129869000054896,131.82679349998944,None,ScrollUp,정답입니다,131.82679349998944,None,131.82679349998944,None,131.82679349998944,None,131.82679349998944,None,132.44765200000256,None,132.44765200000256,132.94762230000924,,,,,,,,,,,,,,,,102,2023-04-21_17h41.05.383,FishGame,2022.1.1,59.873857764814396,
,27,넌 붙임성있어,1,Green,A,5.708333333333333,5.633333333333334,ScrollDown,ScrollUp,Green.png,1,Positive,Congruent,,,,,0,0,0,0,,,,,,,,,,,,,0,26,26,26,,,,,,,,,,,,,,,,,,,,,,,,,,,,,,,,,,,,,,,,,,,,,,,,,,,,,,,,,,,,,,,,,,,,,,,,,,,,,,,,,1,1.0133855000021867,133.55687460000627,None,ScrollDown,정답입니다,133.55687460000627,None,133.55687460000627,None,133.55687460000627,None,133.55687460000627,None,134.4809231000254,None,134.4809231000254,134.98097030003555,,,,,,,,,,,,,,,,102,2023-04-21_17h41.05.383,FishGame,2022.1.1,59.873857764814396,
,28,넌 영리해,2,Green,A,6,4.033333333333333,ScrollDown,ScrollUp,Green.png,1,Positive,Congruent,,,,,0,0,0,0,,,,,,,,,,,,,0,27,27,27,,,,,,,,,,,,,,,,,,,,,,,,,,,,,,,,,,,,,,,,,,,,,,,,,,,,,,,,,,,,,,,,,,,,,,,,,,,,,,,,,1.0123456915219624,1.3794222999713384,135.58786130003864,None,ScrollDown,정답입니다,135.58786130003864,None,135.58786130003864,None,135.58786130003864,None,135.58786130003864,None,136.87861770001473,None,136.87861770001473,137.37859149998985,,,,,,,,,,,,,,,,102,2023-04-21_17h41.05.383,FishGame,2022.1.1,59.873857764814396,
,29,넌 열심이야,1,Orange,B,6.041666666666667,5.833333333333333,ScrollUp,ScrollDown,Orange.png,1,Positive,Incongruent,,,,,0,0,0,0,,,,,,,,,,,,,0,28,28,28,,,,,,,,,,,,,,,,,,,,,,,,,,,,,,,,,,,,,,,,,,,,,,,,,,,,,,,,,,,,,,,,,,,,,,,,,,,,,,,,,1.8935185074806213,0.8806800000020303,137.98669540003175,None,ScrollUp,정답입니다,137.98669540003175,None,137.98669540003175,None,137.98669540003175,None,137.98669540003175,None,138.77859750000061,None,138.77859750000061,139.28105420002248,,,,,,,,,,,,,,,,102,2023-04-21_17h41.05.383,FishGame,2022.1.1,59.873857764814396,
,30,넌 인기없어,4,Orange,B,3,3.3,ScrollUp,ScrollDown,Orange.png,1,Negative,Congruent,,,,,0,0,0,0,,,,,,,,,,,,,0,29,29,29,,,,,,,,,,,,,,,,,,,,,,,,,,,,,,,,,,,,,,,,,,,,,,,,,,,,,,,,,,,,,,,,,,,,,,,,,,,,,,,,,1.8626543283462524,0.829509400005918,139.89082690002397,None,ScrollUp,정답입니다,139.89082690002397,None,139.89082690002397,None,139.89082690002397,None,139.89082690002397,None,140.63103390001925,None,140.63103390001925,141.13094540004386,,,,,,,,,,,,,,,,102,2023-04-21_17h41.05.383,FishGame,2022.1.1,59.873857764814396,
,31,넌 익살스러워,3,Green,A,4.708333333333334,4.833333333333333,ScrollDown,ScrollUp,Green.png,1,Neutral,Neutral,,,,,0,0,0,0,,,,,,,,,,,,,0,30,30,30,,,,,,,,,,,,,,,,,,,,,,,,,,,,,,,,,,,,,,,,,,,,,,,,,,,,,,,,,,,,,,,,,,,,,,,,,,,,,,,,,1.0864197611808777,0.992393099993933,141.75049870001385,None,ScrollDown,정답입니다,141.75049870001385,None,141.75049870001385,None,141.75049870001385,None,141.75049870001385,None,142.6451248000376,None,142.6451248000376,143.14528659998905,,,,,,,,,,,,,,,,102,2023-04-21_17h41.05.383,FishGame,2022.1.1,59.873857764814396,
,32,넌 이기적이야,5,Orange,B,2.291666666666667,2.333333333333333,ScrollUp,ScrollDown,Orange.png,1,Negative,Congruent,,,,,0,0,0,0,,,,,,,,,,,,,0,31,31,31,,,,,,,,,,,,,,,,,,,,,,,,,,,,,,,,,,,,,,,,,,,,,,,,,,,,,,,,,,,,,,,,,,,,,,,,,,,,,,,,,1.8611111144224803,0.7651809999952093,143.75154339999426,None,ScrollUp,정답입니다,143.75154339999426,None,143.75154339999426,None,143.75154339999426,None,143.75154339999426,None,144.42847570002778,None,144.42847570002778,144.93084779998753,,,,,,,,,,,,,,,,102,2023-04-21_17h41.05.383,FishGame,2022.1.1,59.873857764814396,
,33,나를 데려가줘,6,Orange,B,0,0,ScrollDown,ScrollUp,Orange.png,1,NonTarget,NonTarget,,,,,0,0,0,0,,,,,,,,,,,,,0,32,32,32,,,,,,,,,,,,,,,,,,,,,,,,,,,,,,,,,,,,,,,,,,,,,,,,,,,,,,,,,,,,,,,,,,,,,,,,,,,,,,,,,1,0.9984762000385672,145.53827590000583,None,ScrollDown,정답입니다,145.53827590000583,None,145.53827590000583,None,145.53827590000583,None,145.53827590000583,None,146.44755710003665,None,146.44755710003665,146.9482674000319,,,,,,,,,,,,,,,,102,2023-04-21_17h41.05.383,FishGame,2022.1.1,59.873857764814396,
,34,넌 기회주의자야,5,Green,A,2.875,2.133333333333333,ScrollDown,ScrollUp,Green.png,1,Negative,Incongruent,,,,,0,0,0,0,,,,,,,,,,,,,0,33,33,33,,,,,,,,,,,,,,,,,,,,,,,,,,,,,,,,,,,,,,,,,,,,,,,,,,,,,,,,,,,,,,,,,,,,,,,,,,,,,,,,,1,1.3319034000160173,147.55570520000765,None,ScrollDown,정답입니다,147.55570520000765,None,147.55570520000765,None,147.55570520000765,None,147.55570520000765,None,148.79730959999142,None,148.79730959999142,149.297345900035,,,,,,,,,,,,,,,,102,2023-04-21_17h41.05.383,FishGame,2022.1.1,59.873857764814396,
,1,넌 미성숙해,4,Green,A,3,3.2,ScrollDown,ScrollUp,Green.png,2,Negative,Incongruent,,,,,0,0,0,0,,,,,,,,,,,,,,,,,0,0,0,0,,,,,,,,,,,,,,,,,,,,,,,,,,,,,,,,,,,,181.21326440002304,182.7134567000321,182.7468089000322,183.69676439999603,183.7468146000174,184.69677370000863,184.69677370000863,None,,,,,,,,,,,,,,,,,,,,,,,,,,,,,,,,,,1,1.074075200012885,185.7790926999878,None,ScrollDown,정답입니다,185.7790926999878,None,185.7790926999878,None,185.7790926999878,None,185.7790926999878,None,186.76121590001276,None,186.76121590001276,187.26314890000504,149.79730540001765,None,149.79730540001765,None,0.010185185,-0.10092592,1,0,0,0.01613662001909688,None,179.79654730000766,None,,,102,2023-04-21_17h41.05.383,FishGame,2022.1.1,59.873857764814396,
,2,넌 반사회적이야,5,Orange,B,2.416666666666667,2.033333333333333,ScrollUp,ScrollDown,Orange.png,2,Negative,Congruent,,,,,0,0,0,0,,,,,,,,,,,,,,,,,0,1,1,1,,,,,,,,,,,,,,,,,,,,,,,,,,,,,,,,,,,,,,,,,,,,,,,,,,,,,,,,,,,,,,,,,,,,,,,,,,,,,1.7901234477758408,0.7294190999818966,187.87238549999893,None,ScrollUp,정답입니다,187.87238549999893,None,187.87238549999893,None,187.87238549999893,None,187.87238549999893,None,188.51108700002078,None,188.51108700002078,189.01312270003837,,,,,,,,,,,,,,,,102,2023-04-21_17h41.05.383,FishGame,2022.1.1,59.873857764814396,
,3,넌 유능해,2,Green,A,6.208333333333333,4.433333333333334,ScrollDown,ScrollUp,Green.png,2,Positive,Congruent,,,,,0,0,0,0,,,,,,,,,,,,,,,,,0,2,2,2,,,,,,,,,,,,,,,,,,,,,,,,,,,,,,,,,,,,,,,,,,,,,,,,,,,,,,,,,,,,,,,,,,,,,,,,,,,,,1.0416666567325592,0.7131014000042342,189.62082449998707,None,ScrollDown,정답입니다,189.62082449998707,None,189.62082449998707,None,189.62082449998707,None,189.62082449998707,None,190.24465390003752,None,190.24465390003752,190.74640870001167,,,,,,,,,,,,,,,,102,2023-04-21_17h41.05.383,FishGame,2022.1.1,59.873857764814396,
,4,넌 능숙해,2,Orange,B,5.666666666666667,4.733333333333333,ScrollUp,ScrollDown,Orange.png,2,Positive,Incongruent,,,,,0,0,0,0,,,,,,,,,,,,,,,,,0,3,3,3,,,,,,,,,,,,,,,,,,,,,,,,,,,,,,,,,,,,,,,,,,,,,,,,,,,,,,,,,,,,,,,,,,,,,,,,,,,,,1.7608024577299755,0.6486671000020579,191.35366140003316,None,ScrollUp,정답입니다,191.35366140003316,None,191.35366140003316,None,191.35366140003316,None,191.35366140003316,None,191.9166040000273,None,191.9166040000273,192.429714900034,,,,,,,,,,,,,,,,102,2023-04-21_17h41.05.383,FishGame,2022.1.1,59.873857764814396,
,5,넌 진부해,4,Orange,B,2.458333333333333,3.166666666666667,ScrollUp,ScrollDown,Orange.png,2,Negative,Congruent,,,,,0,0,0,0,,,,,,,,,,,,,,,,,0,4,4,4,,,,,,,,,,,,,,,,,,,,,,,,,,,,,,,,,,,,,,,,,,,,,,,,,,,,,,,,,,,,,,,,,,,,,,,,,,,,,1.9814815024534862,0.8796995999873616,193.0392281000386,None,ScrollUp,정답입니다,193.0392281000386,None,193.0392281000386,None,193.0392281000386,None,193.0392281000386,None,193.82967750000535,None,193.82967750000535,194.329699599999,,,,,,,,,,,,,,,,102,2023-04-21_17h41.05.383,FishGame,2022.1.1,59.873857764814396,
,6,나를 보내줘,6,Green,A,0,0,ScrollUp,ScrollDown,Green.png,2,NonTarget,NonTarget,,,,,0,0,0,0,,,,,,,,,,,,,,,,,0,5,5,5,,,,,,,,,,,,,,,,,,,,,,,,,,,,,,,,,,,,,,,,,,,,,,,,,,,,,,,,,,,,,,,,,,,,,,,,,,,,,1.1558641890684764,0.7152288000215776,194.93378040002426,None,ScrollDown,오답입니다,194.93378040002426,None,194.93378040002426,None,194.93378040002426,None,194.93378040002426,None,195.56103050004458,None,195.56103050004458,196.06305870000506,,,,,,,,,,,,,,,,102,2023-04-21_17h41.05.383,FishGame,2022.1.1,59.873857764814396,
,7,넌 엄격해,3,Green,A,4.166666666666666,4.1,ScrollDown,ScrollUp,Green.png,2,Neutral,Neutral,,,,,0,0,0,0,,,,,,,,,,,,,,,,,0,6,6,6,,,,,,,,,,,,,,,,,,,,,,,,,,,,,,,,,,,,,,,,,,,,,,,,,,,,,,,,,,,,,,,,,,,,,,,,,,,,,1.1311728407939274,0.712752100022044,196.67069759999868,None,ScrollDown,정답입니다,196.67069759999868,None,196.67069759999868,None,196.67069759999868,None,196.67069759999868,None,197.2963273000205,None,197.2963273000205,197.79627460002666,,,,,,,,,,,,,,,,102,2023-04-21_17h41.05.383,FishGame,2022.1.1,59.873857764814396,
,8,나를 보내줘,6,Green,A,0,0,ScrollUp,ScrollDown,Green.png,2,NonTarget,NonTarget,,,,,0,0,0,0,,,,,,,,,,,,,,,,,0,7,7,7,,,,,,,,,,,,,,,,,,,,,,,,,,,,,,,,,,,,,,,,,,,,,,,,,,,,,,,,,,,,,,,,,,,,,,,,,,,,,1.8703703731298447,1.0965679000364617,198.4004605000373,None,ScrollUp,정답입니다,198.4004605000373,None,198.4004605000373,None,198.4004605000373,None,198.4004605000373,None,199.4109191999887,None,199.4109191999887,199.91289630002575,,,,,,,,,,,,,,,,102,2023-04-21_17h41.05.383,FishGame,2022.1.1,59.873857764814396,
,9,넌 대담해,3,Orange,B,4.875,4.866666666666666,ScrollUp,ScrollDown,Orange.png,2,Neutral,Neutral,,,,,0,0,0,0,,,,,,,,,,,,,,,,,0,8,8,8,,,,,,,,,,,,,,,,,,,,,,,,,,,,,,,,,,,,,,,,,,,,,,,,,,,,,,,,,,,,,,,,,,,,,,,,,,,,,1.9938271641731262,1.4630048999679275,200.522931399988,None,ScrollUp,정답입니다,200.522931399988,None,200.522931399988,None,200.522931399988,None,200.522931399988,None,201.89627010002732,None,201.89627010002732,202.39624750002986,,,,,,,,,,,,,,,,102,2023-04-21_17h41.05.383,FishGame,2022.1.1,59.873857764814396,
,10,넌 꾸준해,1,Green,A,5.916666666666668,5.8,ScrollDown,ScrollUp,Green.png,2,Positive,Congruent,,,,,0,0,0,0,,,,,,,,,,,,,,,,,0,9,9,9,,,,,,,,,,,,,,,,,,,,,,,,,,,,,,,,,,,,,,,,,,,,,,,,,,,,,,,,,,,,,,,,,,,,,,,,,,,,,1.256172845760981,0.7631735000177287,203.00329700001748,None,ScrollDown,정답입니다,203.00329700001748,None,203.00329700001748,None,203.00329700001748,None,203.00329700001748,None,203.67950210004346,None,203.67950210004346,204.17947289999574,,,,,,,,,,,,,,,,102,2023-04-21_17h41.05.383,FishGame,2022.1.1,59.873857764814396,
,11,나를 데려가줘,6,Orange,B,0,0,ScrollDown,ScrollUp,Orange.png,2,NonTarget,NonTarget,,,,,0,0,0,0,,,,,,,,,,,,,,,,,0,10,10,10,,,,,,,,,,,,,,,,,,,,,,,,,,,,,,,,,,,,,,,,,,,,,,,,,,,,,,,,,,,,,,,,,,,,,,,,,,,,,1.1728395173947017,0.9798206000123173,204.78612100001192,None,ScrollDown,정답입니다,204.78612100001192,None,204.78612100001192,None,204.78612100001192,None,204.78612100001192,None,205.67744790000143,None,205.67744790000143,206.17947010003263,,,,,,,,,,,,,,,,102,2023-04-21_17h41.05.383,FishGame,2022.1.1,59.873857764814396,
,12,넌 독선적이야,5,Green,A,2.458333333333333,1.933333333333333,ScrollDown,ScrollUp,Green.png,2,Negative,Incongruent,,,,,0,0,0,0,,,,,,,,,,,,,,,,,0,11,11,11,,,,,,,,,,,,,,,,,,,,,,,,,,,,,,,,,,,,,,,,,,,,,,,,,,,,,,,,,,,,,,,,,,,,,,,,,,,,,1.276234577099482,1.0130152000347152,206.78748669999186,None,ScrollDown,정답입니다,206.78748669999186,None,206.78748669999186,None,206.78748669999186,None,206.78748669999186,None,207.71274970000377,None,207.71274970000377,208.2127169999876,,,,,,,,,,,,,,,,102,2023-04-21_17h41.05.383,FishGame,2022.1.1,59.873857764814396,
,13,나를 보내줘,6,Green,A,0,0,ScrollUp,ScrollDown,Green.png,2,NonTarget,NonTarget,,,,,0,0,0,0,,,,,,,,,,,,,,,,,0,12,12,12,,,,,,,,,,,,,,,,,,,,,,,,,,,,,,,,,,,,,,,,,,,,,,,,,,,,,,,,,,,,,,,,,,,,,,,,,,,,,1.4614197543511789,1.6462910000118427,208.81692880002083,None,NoResponse,무응답입니다,208.81692880002083,None,208.81692880002083,None,208.81692880002083,None,208.81692880002083,None,210.37735010002507,None,210.37735010002507,210.87934159999713,,,,,,,,,,,,,,,,102,2023-04-21_17h41.05.383,FishGame,2022.1.1,59.873857764814396,
,14,넌 책임감있어,1,Orange,B,6.347826086956522,6,ScrollUp,ScrollDown,Orange.png,2,Positive,Incongruent,,,,,0,0,0,0,,,,,,,,,,,,,,,,,0,13,13,13,,,,,,,,,,,,,,,,,,,,,,,,,,,,,,,,,,,,,,,,,,,,,,,,,,,,,,,,,,,,,,,,,,,,,,,,,,,,,1.2191358109315236,0.9462334000272676,211.48960329999682,None,ScrollDown,오답입니다,211.48960329999682,None,211.48960329999682,None,211.48960329999682,None,211.48960329999682,None,212.3462439000141,None,212.3462439000141,212.84602749999613,,,,,,,,,,,,,,,,102,2023-04-21_17h41.05.383,FishGame,2022.1.1,59.873857764814396,
,15,넌 문학적이야,3,Green,A,4.708333333333334,4.333333333333333,ScrollDown,ScrollUp,Green.png,2,Neutral,Neutral,,,,,0,0,0,0,,,,,,,,,,,,,,,,,0,14,14,14,,,,,,,,,,,,,,,,,,,,,,,,,,,,,,,,,,,,,,,,,,,,,,,,,,,,,,,,,,,,,,,,,,,,,,,,,,,,,1,1.7317351999809034,213.45384080003714,None,ScrollDown,정답입니다,213.45384080003714,None,213.45384080003714,None,213.45384080003714,None,213.45384080003714,None,215.09390750003513,None,215.09390750003513,215.5959013000247,,,,,,,,,,,,,,,,102,2023-04-21_17h41.05.383,FishGame,2022.1.1,59.873857764814396,
,16,넌 재미있어,1,Orange,B,5.875,5.7,ScrollUp,ScrollDown,Orange.png,2,Positive,Incongruent,,,,,0,0,0,0,,,,,,,,,,,,,,,,,0,15,15,15,,,,,,,,,,,,,,,,,,,,,,,,,,,,,,,,,,,,,,,,,,,,,,,,,,,,,,,,,,,,,,,,,,,,,,,,,,,,,1.9475308458010356,0.9005561000085436,216.2003251000424,None,ScrollUp,정답입니다,216.2003251000424,None,216.2003251000424,None,216.2003251000424,None,216.2003251000424,None,217.01055930001894,None,217.01055930001894,217.51260449999245,,,,,,,,,,,,,,,,102,2023-04-21_17h41.05.383,FishGame,2022.1.1,59.873857764814396,
,17,나를 데려가줘,6,Orange,B,0,0,ScrollDown,ScrollUp,Orange.png,2,NonTarget,NonTarget,,,,,0,0,0,0,,,,,,,,,,,,,,,,,0,16,16,16,,,,,,,,,,,,,,,,,,,,,,,,,,,,,,,,,,,,,,,,,,,,,,,,,,,,,,,,,,,,,,,,,,,,,,,,,,,,,1,1.0127172999782488,218.12493049999466,None,ScrollDown,정답입니다,218.12493049999466,None,218.12493049999466,None,218.12493049999466,None,218.12493049999466,None,219.0435431000078,None,219.0435431000078,219.54352750000544,,,,,,,,,,,,,,,,102,2023-04-21_17h41.05.383,FishGame,2022.1.1,59.873857764814396,
,18,넌 협력적이야,1,Green,A,5.625,5.633333333333334,ScrollDown,ScrollUp,Green.png,2,Positive,Congruent,,,,,0,0,0,0,,,,,,,,,,,,,,,,,0,17,17,17,,,,,,,,,,,,,,,,,,,,,,,,,,,,,,,,,,,,,,,,,,,,,,,,,,,,,,,,,,,,,,,,,,,,,,,,,,,,,1.233024686574936,1.1482177999569103,220.1542591000325,None,ScrollDown,정답입니다,220.1542591000325,None,220.1542591000325,None,220.1542591000325,None,220.1542591000325,None,221.21260620001704,None,221.21260620001704,221.7126023999881,,,,,,,,,,,,,,,,102,2023-04-21_17h41.05.383,FishGame,2022.1.1,59.873857764814396,
,19,넌 평범해,3,Orange,B,4.333333333333332,4.233333333333333,ScrollUp,ScrollDown,Orange.png,2,Neutral,Neutral,,,,,0,0,0,0,,,,,,,,,,,,,,,,,0,18,18,18,,,,,,,,,,,,,,,,,,,,,,,,,,,,,,,,,,,,,,,,,,,,,,,,,,,,,,,,,,,,,,,,,,,,,,,,,,,,,1.9074074079593022,0.9547213999903761,222.321614400018,None,ScrollUp,정답입니다,222.321614400018,None,222.321614400018,None,222.321614400018,None,222.321614400018,None,223.1885574000189,None,223.1885574000189,223.6956996000372,,,,,,,,,,,,,,,,102,2023-04-21_17h41.05.383,FishGame,2022.1.1,59.873857764814396,
,20,넌 오만해,5,Green,A,2.333333333333333,2,ScrollDown,ScrollUp,Green.png,2,Negative,Incongruent,,,,,0,0,0,0,,,,,,,,,,,,,,,,,0,19,19,19,,,,,,,,,,,,,,,,,,,,,,,,,,,,,,,,,,,,,,,,,,,,,,,,,,,,,,,,,,,,,,,,,,,,,,,,,,,,,1.234567900498708,0.7798962999950163,224.30147350003244,None,ScrollDown,정답입니다,224.30147350003244,None,224.30147350003244,None,224.30147350003244,None,224.30147350003244,None,224.99572500004433,None,224.99572500004433,225.4957468000357,,,,,,,,,,,,,,,,102,2023-04-21_17h41.05.383,FishGame,2022.1.1,59.873857764814396,
,21,넌 운이없어,4,Orange,B,3,3.466666666666667,ScrollUp,ScrollDown,Orange.png,2,Negative,Congruent,,,,,0,0,0,0,,,,,,,,,,,,,,,,,0,20,20,20,,,,,,,,,,,,,,,,,,,,,,,,,,,,,,,,,,,,,,,,,,,,,,,,,,,,,,,,,,,,,,,,,,,,,,,,,,,,,1.5817901206513247,0.8464340000064112,226.1049628999899,None,ScrollUp,정답입니다,226.1049628999899,None,226.1049628999899,None,226.1049628999899,None,226.1049628999899,None,226.86278080003103,None,226.86278080003103,227.36235080001643,,,,,,,,,,,,,,,,102,2023-04-21_17h41.05.383,FishGame,2022.1.1,59.873857764814396,
,22,넌 창조적이야,2,Orange,B,6.125,4.633333333333334,ScrollUp,ScrollDown,Orange.png,2,Positive,Incongruent,,,,,0,0,0,0,,,,,,,,,,,,,,,,,0,21,21,21,,,,,,,,,,,,,,,,,,,,,,,,,,,,,,,,,,,,,,,,,,,,,,,,,,,,,,,,,,,,,,,,,,,,,,,,,,,,,1.9691357910633087,1.0131617999868467,227.97324140003184,None,ScrollUp,정답입니다,227.97324140003184,None,227.97324140003184,None,227.97324140003184,None,227.97324140003184,None,228.8956645000144,None,228.8956645000144,229.3956280000275,,,,,,,,,,,,,,,,102,2023-04-21_17h41.05.383,FishGame,2022.1.1,59.873857764814396,
,23,나를 보내줘,6,Green,A,0,0,ScrollUp,ScrollDown,Green.png,2,NonTarget,NonTarget,,,,,0,0,0,0,,,,,,,,,,,,,,,,,0,22,22,22,,,,,,,,,,,,,,,,,,,,,,,,,,,,,,,,,,,,,,,,,,,,,,,,,,,,,,,,,,,,,,,,,,,,,,,,,,,,,1.8626543283462524,1.0980256000184454,230.00027050002245,None,ScrollUp,정답입니다,230.00027050002245,None,230.00027050002245,None,230.00027050002245,None,230.00027050002245,None,231.01036350004142,None,231.01036350004142,231.51232249999885,,,,,,,,,,,,,,,,102,2023-04-21_17h41.05.383,FishGame,2022.1.1,59.873857764814396,
,24,넌 통찰력있어,2,Green,A,6.5,4.8,ScrollDown,ScrollUp,Green.png,2,Positive,Congruent,,,,,0,0,0,0,,,,,,,,,,,,,,,,,0,23,23,23,,,,,,,,,,,,,,,,,,,,,,,,,,,,,,,,,,,,,,,,,,,,,,,,,,,,,,,,,,,,,,,,,,,,,,,,,,,,,1.4691358022391796,1.1816693000146188,232.1202379000024,None,NoResponse,무응답입니다,232.1202379000024,None,232.1202379000024,None,232.1202379000024,None,232.1202379000024,None,233.21232280001277,None,233.21232280001277,233.71220290003112,,,,,,,,,,,,,,,,102,2023-04-21_17h41.05.383,FishGame,2022.1.1,59.873857764814396,
,25,넌 경솔해,5,Orange,B,2.458333333333333,2.266666666666667,ScrollUp,ScrollDown,Orange.png,2,Negative,Congruent,,,,,0,0,0,0,,,,,,,,,,,,,,,,,0,24,24,24,,,,,,,,,,,,,,,,,,,,,,,,,,,,,,,,,,,,,,,,,,,,,,,,,,,,,,,,,,,,,,,,,,,,,,,,,,,,,1.7484567960103354,0.8982945999596268,234.32070270000258,None,ScrollUp,정답입니다,234.32070270000258,None,234.32070270000258,None,234.32070270000258,None,234.32070270000258,None,235.12685160001274,None,235.12685160001274,235.62886370002525,,,,,,,,,,,,,,,,102,2023-04-21_17h41.05.383,FishGame,2022.1.1,59.873857764814396,
,26,넌 초조해,4,Green,A,2.916666666666667,3.133333333333333,ScrollDown,ScrollUp,Green.png,2,Negative,Incongruent,,,,,0,0,0,0,,,,,,,,,,,,,,,,,0,25,25,25,,,,,,,,,,,,,,,,,,,,,,,,,,,,,,,,,,,,,,,,,,,,,,,,,,,,,,,,,,,,,,,,,,,,,,,,,,,,,1.1033950646718342,0.7627083000261337,236.24052110000048,None,ScrollDown,정답입니다,236.24052110000048,None,236.24052110000048,None,236.24052110000048,None,236.24052110000048,None,236.9098498999956,None,236.9098498999956,237.4098396000336,,,,,,,,,,,,,,,,102,2023-04-21_17h41.05.383,FishGame,2022.1.1,59.873857764814396,
,27,넌 무관심해,4,Orange,B,2.833333333333333,2.9,ScrollUp,ScrollDown,Orange.png,2,Negative,Congruent,,,,,0,0,0,0,,,,,,,,,,,,,,,,,0,26,26,26,,,,,,,,,,,,,,,,,,,,,,,,,,,,,,,,,,,,,,,,,,,,,,,,,,,,,,,,,,,,,,,,,,,,,,,,,,,,,1.67746914178133,0.7980720999767072,238.0171595000429,None,ScrollUp,정답입니다,238.0171595000429,None,238.0171595000429,None,238.0171595000429,None,238.0171595000429,None,238.72651970002335,None,238.72651970002335,239.22665299999062,,,,,,,,,,,,,,,,102,2023-04-21_17h41.05.383,FishGame,2022.1.1,59.873857764814396,
,28,넌 감성적이야,3,Orange,B,4.125,4.166666666666667,ScrollUp,ScrollDown,Orange.png,2,Neutral,Neutral,,,,,0,0,0,0,,,,,,,,,,,,,,,,,0,27,27,27,,,,,,,,,,,,,,,,,,,,,,,,,,,,,,,,,,,,,,,,,,,,,,,,,,,,,,,,,,,,,,,,,,,,,,,,,,,,,2,0.929694099992048,239.83608090004418,None,ScrollUp,정답입니다,239.83608090004418,None,239.83608090004418,None,239.83608090004418,None,239.83608090004418,None,240.67906130000483,None,240.67906130000483,241.17887579998933,,,,,,,,,,,,,,,,102,2023-04-21_17h41.05.383,FishGame,2022.1.1,59.873857764814396,
,29,넌 배려심있어,1,Green,A,6.083333333333333,5.5,ScrollDown,ScrollUp,Green.png,2,Positive,Congruent,,,,,0,0,0,0,,,,,,,,,,,,,,,,,0,28,28,28,,,,,,,,,,,,,,,,,,,,,,,,,,,,,,,,,,,,,,,,,,,,,,,,,,,,,,,,,,,,,,,,,,,,,,,,,,,,,1.141975313425064,0.8127183000324294,241.78604149998864,None,ScrollDown,정답입니다,241.78604149998864,None,241.78604149998864,None,241.78604149998864,None,241.78604149998864,None,242.51208489999408,None,242.51208489999408,243.01202470000135,,,,,,,,,,,,,,,,102,2023-04-21_17h41.05.383,FishGame,2022.1.1,59.873857764814396,
,30,넌 숨김없어,3,Green,A,4.5,4.933333333333334,ScrollDown,ScrollUp,Green.png,2,Neutral,Neutral,,,,,0,0,0,0,,,,,,,,,,,,,,,,,0,29,29,29,,,,,,,,,,,,,,,,,,,,,,,,,,,,,,,,,,,,,,,,,,,,,,,,,,,,,,,,,,,,,,,,,,,,,,,,,,,,,1.1126543233791988,1.029506700055208,243.6198000999866,None,ScrollDown,정답입니다,243.6198000999866,None,243.6198000999866,None,243.6198000999866,None,243.6198000999866,None,244.5597146000364,None,244.5597146000364,245.05968010000652,,,,,,,,,,,,,,,,102,2023-04-21_17h41.05.383,FishGame,2022.1.1,59.873857764814396,
,31,넌 훌륭해,2,Orange,B,5.916666666666667,4.033333333333333,ScrollUp,ScrollDown,Orange.png,2,Positive,Incongruent,,,,,0,0,0,0,,,,,,,,,,,,,,,,,0,30,30,30,,,,,,,,,,,,,,,,,,,,,,,,,,,,,,,,,,,,,,,,,,,,,,,,,,,,,,,,,,,,,,,,,,,,,,,,,,,,,1.9290123283863068,0.8812829999951646,245.66948199999752,None,ScrollUp,정답입니다,245.66948199999752,None,245.66948199999752,None,245.66948199999752,None,245.66948199999752,None,246.45972730003996,None,246.45972730003996,246.96211700001732,,,,,,,,,,,,,,,,102,2023-04-21_17h41.05.383,FishGame,2022.1.1,59.873857764814396,
,32,넌 슬기로워,2,Green,A,6.166666666666667,4.1,ScrollDown,ScrollUp,Green.png,2,Positive,Congruent,,,,,0,0,0,0,,,,,,,,,,,,,,,,,0,31,31,31,,,,,,,,,,,,,,,,,,,,,,,,,,,,,,,,,,,,,,,,,,,,,,,,,,,,,,,,,,,,,,,,,,,,,,,,,,,,,1.2037036965290706,0.8797401000047103,247.56888939999044,None,ScrollDown,정답입니다,247.56888939999044,None,247.56888939999044,None,247.56888939999044,None,247.56888939999044,None,248.3621775000356,None,248.3621775000356,248.8620443000109,,,,,,,,,,,,,,,,102,2023-04-21_17h41.05.383,FishGame,2022.1.1,59.873857764814396,
,33,넌 냉혹해,5,Green,A,2.583333333333333,2.1,ScrollDown,ScrollUp,Green.png,2,Negative,Incongruent,,,,,0,0,0,0,,,,,,,,,,,,,,,,,0,32,32,32,,,,,,,,,,,,,,,,,,,,,,,,,,,,,,,,,,,,,,,,,,,,,,,,,,,,,,,,,,,,,,,,,,,,,,,,,,,,,1.0709876716136932,0.8316409999970347,249.4724164000363,None,ScrollDown,정답입니다,249.4724164000363,None,249.4724164000363,None,249.4724164000363,None,249.4724164000363,None,250.2118881000206,None,250.2118881000206,250.71191010001348,,,,,,,,,,,,,,,,102,2023-04-21_17h41.05.383,FishGame,2022.1.1,59.873857764814396,
,34,나를 데려가줘,6,Orange,B,0,0,ScrollDown,ScrollUp,Orange.png,2,NonTarget,NonTarget,,,,,0,0,0,0,,,,,,,,,,,,,,,,,0,33,33,33,,,,,,,,,,,,,,,,,,,,,,,,,,,,,,,,,,,,,,,,,,,,,,,,,,,,,,,,,,,,,,,,,,,,,,,,,,,,,1.1682098756233852,0.8760325000039302,251.32845470000757,None,ScrollDown,정답입니다,251.32845470000757,None,251.32845470000757,None,251.32845470000757,None,251.32845470000757,None,252.10953240003437,None,252.10953240003437,252.60951840004418,,,,,,,,,,,,,,,,102,2023-04-21_17h41.05.383,FishGame,2022.1.1,59.873857764814396,
,35,넌 편파적이야,5,Orange,B,2.125,2,ScrollUp,ScrollDown,Orange.png,2,Negative,Congruent,,,,,0,0,0,0,,,,,,,,,,,,,,,,,0,34,34,34,,,,,,,,,,,,,,,,,,,,,,,,,,,,,,,,,,,,,,,,,,,,,,,,,,,,,,,,,,,,,,,,,,,,,,,,,,,,,1.7206790198882422,0.765127599996049,253.21691290003946,None,ScrollUp,정답입니다,253.21691290003946,None,253.21691290003946,None,253.21691290003946,None,253.21691290003946,None,253.89287999999942,None,253.89287999999942,254.39525629999116,,,,,,,,,,,,,,,,102,2023-04-21_17h41.05.383,FishGame,2022.1.1,59.873857764814396,
,36,넌 슬퍼,4,Green,A,2.583333333333333,3.066666666666667,ScrollDown,ScrollUp,Green.png,2,Negative,Incongruent,,,,,0,0,0,0,,,,,,,,,,,,,,,,,0,35,35,35,,,,,,,,,,,,,,,,,,,,,,,,,,,,,,,,,,,,,,,,,,,,,,,,,,,,,,,,,,,,,,,,,,,,,,,,,,,,,1.1898148208856583,0.733626400004141,254.99779709998984,None,ScrollDown,정답입니다,254.99779709998984,None,254.99779709998984,None,254.99779709998984,None,254.99779709998984,None,255.64531640004134,None,255.64531640004134,256.1452409999911,,,,,,,,,,,,,,,,102,2023-04-21_17h41.05.383,FishGame,2022.1.1,59.873857764814396,
,37,나를 데려가줘,6,Orange,B,0,0,ScrollDown,ScrollUp,Orange.png,2,NonTarget,NonTarget,,,,,0,0,0,0,,,,,,,,,,,,,,,,,0,36,36,36,,,,,,,,,,,,,,,,,,,,,,,,,,,,,,,,,,,,,,,,,,,,,,,,,,,,,,,,,,,,,,,,,,,,,,,,,,,,,1.040123442808787,1.0130491000018083,256.7527220000047,None,ScrollDown,정답입니다,256.7527220000047,None,256.7527220000047,None,256.7527220000047,None,256.7527220000047,None,257.678417099989,None,257.678417099989,258.1784110000008,,,,,,,,,,,,,,,,102,2023-04-21_17h41.05.383,FishGame,2022.1.1,59.873857764814396,
,38,넌 친절해,1,Orange,B,6.041666666666667,5.533333333333333,ScrollUp,ScrollDown,Orange.png,2,Positive,Incongruent,,,,,0,0,0,0,,,,,,,,,,,,,,,,,0,37,37,37,,,,,,,,,,,,,,,,,,,,,,,,,,,,,,,,,,,,,,,,,,,,,,,,,,,,,,,,,,,,,,,,,,,,,,,,,,,,,1.6358024651805558,1.413167999999132,258.78839739999967,None,ScrollUp,정답입니다,258.78839739999967,None,258.78839739999967,None,258.78839739999967,None,258.78839739999967,None,260.11173520004377,None,260.11173520004377,260.61165370000526,,,,,,,,,,,,,,,,102,2023-04-21_17h41.05.383,FishGame,2022.1.1,59.873857764814396,
,1,넌 엉성해,4,Green,A,3,3.3,ScrollDown,ScrollUp,Green.png,3,Negative,Incongruent,,,,,0,0,0,0,,,,,,,,,,,,,,,,,,,,,0,0,0,0,,,,,,,,,,,,,,,,,,,,,,,,,,,,,,,,292.42568510002457,293.92783000000054,293.96115420002025,294.9143251000205,294.9476778000244,295.91111290000845,295.91111290000845,None,,,,,,,,,,,,,,,,,,,,,,,,,,,,,,,,,,1.819444437821706,1.0513221999863163,297.0015084000188,None,ScrollUp,오답입니다,297.0015084000188,None,297.0015084000188,None,297.0015084000188,None,297.0015084000188,None,297.9585865000263,None,297.9585865000263,298.458575800003,261.1117175000254,None,261.1117175000254,None,0.08981481,-0.08055556,1,0,0,0.016207520035095513,None,291.1109535000287,None,,,102,2023-04-21_17h41.05.383,FishGame,2022.1.1,59.873857764814396,
,2,나를 보내줘,6,Green,A,0,0,ScrollUp,ScrollDown,Green.png,3,NonTarget,NonTarget,,,,,0,0,0,0,,,,,,,,,,,,,,,,,,,,,0,1,1,1,,,,,,,,,,,,,,,,,,,,,,,,,,,,,,,,,,,,,,,,,,,,,,,,,,,,,,,,,,,,,,,,,,,,,,,,,1.9660493632157643,1.0632835000287741,299.0654834000161,None,ScrollUp,정답입니다,299.0654834000161,None,299.0654834000161,None,299.0654834000161,None,299.0654834000161,None,300.0442890000413,None,300.0442890000413,300.54437040002085,,,,,,,,,,,,,,,,102,2023-04-21_17h41.05.383,FishGame,2022.1.1,59.873857764814396,
,3,넌 활발해,1,Orange,B,5.666666666666667,5.6,ScrollUp,ScrollDown,Orange.png,3,Positive,Incongruent,,,,,0,0,0,0,,,,,,,,,,,,,,,,,,,,,0,2,2,2,,,,,,,,,,,,,,,,,,,,,,,,,,,,,,,,,,,,,,,,,,,,,,,,,,,,,,,,,,,,,,,,,,,,,,,,,1.0138889054457347,0.6819161999737844,301.15409080003155,None,ScrollDown,오답입니다,301.15409080003155,None,301.15409080003155,None,301.15409080003155,None,301.15409080003155,None,301.74445250001736,None,301.74445250001736,302.2442723000422,,,,,,,,,,,,,,,,102,2023-04-21_17h41.05.383,FishGame,2022.1.1,59.873857764814396,
,4,넌 논리적이야,2,Green,A,5.666666666666666,4.633333333333334,ScrollDown,ScrollUp,Green.png,3,Positive,Congruent,,,,,0,0,0,0,,,,,,,,,,,,,,,,,,,,,0,3,3,3,,,,,,,,,,,,,,,,,,,,,,,,,,,,,,,,,,,,,,,,,,,,,,,,,,,,,,,,,,,,,,,,,,,,,,,,,1,1.231878799968399,302.8506089000148,None,ScrollDown,정답입니다,302.8506089000148,None,302.8506089000148,None,302.8506089000148,None,302.8506089000148,None,303.99210430000676,None,303.99210430000676,304.4941479000263,,,,,,,,,,,,,,,,102,2023-04-21_17h41.05.383,FishGame,2022.1.1,59.873857764814396,
,5,넌 과묵해,3,Green,A,3.875,4.4,ScrollDown,ScrollUp,Green.png,3,Neutral,Neutral,,,,,0,0,0,0,,,,,,,,,,,,,,,,,,,,,0,4,4,4,,,,,,,,,,,,,,,,,,,,,,,,,,,,,,,,,,,,,,,,,,,,,,,,,,,,,,,,,,,,,,,,,,,,,,,,,2,2.509435999963898,305.1097633999889,None,ScrollUp,오답입니다,305.1097633999889,None,305.1097633999889,None,305.1097633999889,None,305.1097633999889,None,307.525131100032,None,307.525131100032,308.02747630001977,,,,,,,,,,,,,,,,102,2023-04-21_17h41.05.383,FishGame,2022.1.1,59.873857764814396,
,6,나를 데려가줘,6,Orange,B,0,0,ScrollDown,ScrollUp,Orange.png,3,NonTarget,NonTarget,,,,,0,0,0,0,,,,,,,,,,,,,,,,,,,,,0,5,5,5,,,,,,,,,,,,,,,,,,,,,,,,,,,,,,,,,,,,,,,,,,,,,,,,,,,,,,,,,,,,,,,,,,,,,,,,,1.1141975373029709,1.515674299967941,308.6348419000278,None,ScrollDown,정답입니다,308.6348419000278,None,308.6348419000278,None,308.6348419000278,None,308.6348419000278,None,310.0608329999959,None,310.0608329999959,310.5606543000322,,,,,,,,,,,,,,,,102,2023-04-21_17h41.05.383,FishGame,2022.1.1,59.873857764814396,
,7,넌 미숙해,4,Orange,B,3,3,ScrollUp,ScrollDown,Orange.png,3,Negative,Congruent,,,,,0,0,0,0,,,,,,,,,,,,,,,,,,,,,0,6,6,6,,,,,,,,,,,,,,,,,,,,,,,,,,,,,,,,,,,,,,,,,,,,,,,,,,,,,,,,,,,,,,,,,,,,,,,,,1.7391975373029709,0.9317055999999866,311.16713170002913,None,ScrollUp,정답입니다,311.16713170002913,None,311.16713170002913,None,311.16713170002913,None,311.16713170002913,None,312.0085672000423,None,312.0085672000423,312.51065290003316,,,,,,,,,,,,,,,,102,2023-04-21_17h41.05.383,FishGame,2022.1.1,59.873857764814396,
,8,나를 보내줘,6,Green,A,0,0,ScrollUp,ScrollDown,Green.png,3,NonTarget,NonTarget,,,,,0,0,0,0,,,,,,,,,,,,,,,,,,,,,0,7,7,7,,,,,,,,,,,,,,,,,,,,,,,,,,,,,,,,,,,,,,,,,,,,,,,,,,,,,,,,,,,,,,,,,,,,,,,,,1.787037044763565,1.0297300000092946,313.1139501000289,None,ScrollUp,정답입니다,313.1139501000289,None,313.1139501000289,None,313.1139501000289,None,313.1139501000289,None,314.058590700035,None,314.058590700035,314.5605159000261,,,,,,,,,,,,,,,,102,2023-04-21_17h41.05.383,FishGame,2022.1.1,59.873857764814396,
,9,넌 자신만만해,3,Orange,B,4.833333333333334,4.333333333333333,ScrollUp,ScrollDown,Orange.png,3,Neutral,Neutral,,,,,0,0,0,0,,,,,,,,,,,,,,,,,,,,,0,8,8,8,,,,,,,,,,,,,,,,,,,,,,,,,,,,,,,,,,,,,,,,,,,,,,,,,,,,,,,,,,,,,,,,,,,,,,,,,1.6651234552264214,0.8963807999971323,315.1672435000073,None,ScrollUp,정답입니다,315.1672435000073,None,315.1672435000073,None,315.1672435000073,None,315.1672435000073,None,315.9771965999971,None,315.9771965999971,316.4751930999919,,,,,,,,,,,,,,,,102,2023-04-21_17h41.05.383,FishGame,2022.1.1,59.873857764814396,
,10,넌 탐욕스러워,5,Green,A,2.25,2.1,ScrollDown,ScrollUp,Green.png,3,Negative,Incongruent,,,,,0,0,0,0,,,,,,,,,,,,,,,,,,,,,0,9,9,9,,,,,,,,,,,,,,,,,,,,,,,,,,,,,,,,,,,,,,,,,,,,,,,,,,,,,,,,,,,,,,,,,,,,,,,,,1.0833333333333333,1.3795492999488488,317.085375100025,None,ScrollDown,정답입니다,317.085375100025,None,317.085375100025,None,317.085375100025,None,317.085375100025,None,318.3748350000242,None,318.3748350000242,318.8748978000367,,,,,,,,,,,,,,,,102,2023-04-21_17h41.05.383,FishGame,2022.1.1,59.873857764814396,
,11,넌 인기있어,2,Green,A,5.458333333333333,4.5,ScrollDown,ScrollUp,Green.png,3,Positive,Congruent,,,,,0,0,0,0,,,,,,,,,,,,,,,,,,,,,0,10,10,10,,,,,,,,,,,,,,,,,,,,,,,,,,,,,,,,,,,,,,,,,,,,,,,,,,,,,,,,,,,,,,,,,,,,,,,,,1.0787036915620167,0.8308333999593742,319.47801230003824,None,ScrollDown,정답입니다,319.47801230003824,None,319.47801230003824,None,319.47801230003824,None,319.47801230003824,None,320.2248580000014,None,320.2248580000014,320.7272588000051,,,,,,,,,,,,,,,,102,2023-04-21_17h41.05.383,FishGame,2022.1.1,59.873857764814396,
,12,나를 데려가줘,6,Orange,B,0,0,ScrollDown,ScrollUp,Orange.png,3,NonTarget,NonTarget,,,,,0,0,0,0,,,,,,,,,,,,,,,,,,,,,0,11,11,11,,,,,,,,,,,,,,,,,,,,,,,,,,,,,,,,,,,,,,,,,,,,,,,,,,,,,,,,,,,,,,,,,,,,,,,,,1.0972222338120143,1.0128738000057638,321.33484190003946,None,ScrollDown,정답입니다,321.33484190003946,None,321.33484190003946,None,321.33484190003946,None,321.33484190003946,None,322.2605358000146,None,322.2605358000146,322.76052150002215,,,,,,,,,,,,,,,,102,2023-04-21_17h41.05.383,FishGame,2022.1.1,59.873857764814396,
,13,넌 뛰어나,2,Orange,B,6.166666666666667,4,ScrollUp,ScrollDown,Orange.png,3,Positive,Incongruent,,,,,0,0,0,0,,,,,,,,,,,,,,,,,,,,,0,12,12,12,,,,,,,,,,,,,,,,,,,,,,,,,,,,,,,,,,,,,,,,,,,,,,,,,,,,,,,,,,,,,,,,,,,,,,,,,1.765432099501292,0.9128488000133075,323.36981160001596,None,ScrollUp,정답입니다,323.36981160001596,None,323.36981160001596,None,323.36981160001596,None,323.36981160001596,None,324.19167190004373,None,324.19167190004373,324.6937678999966,,,,,,,,,,,,,,,,102,2023-04-21_17h41.05.383,FishGame,2022.1.1,59.873857764814396,
,14,넌 낙관적이야,1,Green,A,5.75,5.8,ScrollDown,ScrollUp,Green.png,3,Positive,Congruent,,,,,0,0,0,0,,,,,,,,,,,,,,,,,,,,,0,13,13,13,,,,,,,,,,,,,,,,,,,,,,,,,,,,,,,,,,,,,,,,,,,,,,,,,,,,,,,,,,,,,,,,,,,,,,,,,1.10030863682429,0.8296200000331737,325.30063160002464,None,ScrollDown,정답입니다,325.30063160002464,None,325.30063160002464,None,325.30063160002464,None,325.30063160002464,None,326.0416490000207,None,326.0416490000207,326.5436164000421,,,,,,,,,,,,,,,,102,2023-04-21_17h41.05.383,FishGame,2022.1.1,59.873857764814396,
,15,넌 산만해,4,Orange,B,2.695652173913043,3.033333333333333,ScrollUp,ScrollDown,Orange.png,3,Negative,Congruent,,,,,0,0,0,0,,,,,,,,,,,,,,,,,,,,,0,14,14,14,,,,,,,,,,,,,,,,,,,,,,,,,,,,,,,,,,,,,,,,,,,,,,,,,,,,,,,,,,,,,,,,,,,,,,,,,1.9845678806304932,0.7296051000012085,327.15312470000936,None,ScrollUp,정답입니다,327.15312470000936,None,327.15312470000936,None,327.15312470000936,None,327.15312470000936,None,327.793594799994,None,327.793594799994,328.29357510001864,,,,,,,,,,,,,,,,102,2023-04-21_17h41.05.383,FishGame,2022.1.1,59.873857764814396,
,16,나를 보내줘,6,Green,A,0,0,ScrollUp,ScrollDown,Green.png,3,NonTarget,NonTarget,,,,,0,0,0,0,,,,,,,,,,,,,,,,,,,,,0,15,15,15,,,,,,,,,,,,,,,,,,,,,,,,,,,,,,,,,,,,,,,,,,,,,,,,,,,,,,,,,,,,,,,,,,,,,,,,,1.9614197711149852,0.8653131000464782,328.8979281000211,None,ScrollUp,정답입니다,328.8979281000211,None,328.8979281000211,None,328.8979281000211,None,328.8979281000211,None,329.676976000017,None,329.676976000017,330.1770011000335,,,,,,,,,,,,,,,,102,2023-04-21_17h41.05.383,FishGame,2022.1.1,59.873857764814396,
,17,넌 교활해,5,Orange,B,2.333333333333333,2.133333333333333,ScrollUp,ScrollDown,Orange.png,3,Negative,Congruent,,,,,0,0,0,0,,,,,,,,,,,,,,,,,,,,,0,16,16,16,,,,,,,,,,,,,,,,,,,,,,,,,,,,,,,,,,,,,,,,,,,,,,,,,,,,,,,,,,,,,,,,,,,,,,,,,2,0.9508221999858506,330.80008150002686,None,ScrollUp,정답입니다,330.80008150002686,None,330.80008150002686,None,330.80008150002686,None,330.80008150002686,None,331.6601631999947,None,331.6601631999947,332.16014480002923,,,,,,,,,,,,,,,,102,2023-04-21_17h41.05.383,FishGame,2022.1.1,59.873857764814396,
,18,나를 보내줘,6,Green,A,0,0,ScrollUp,ScrollDown,Green.png,3,NonTarget,NonTarget,,,,,0,0,0,0,,,,,,,,,,,,,,,,,,,,,0,17,17,17,,,,,,,,,,,,,,,,,,,,,,,,,,,,,,,,,,,,,,,,,,,,,,,,,,,,,,,,,,,,,,,,,,,,,,,,,1.9074074079593022,0.9818004000117071,332.76401869999245,None,ScrollUp,정답입니다,332.76401869999245,None,332.76401869999245,None,332.76401869999245,None,332.76401869999245,None,333.6602271000156,None,333.6602271000156,334.16021330002695,,,,,,,,,,,,,,,,102,2023-04-21_17h41.05.383,FishGame,2022.1.1,59.873857764814396,
,19,넌 불친절해,5,Orange,B,2.208333333333333,2.033333333333333,ScrollUp,ScrollDown,Orange.png,3,Negative,Congruent,,,,,0,0,0,0,,,,,,,,,,,,,,,,,,,,,0,18,18,18,,,,,,,,,,,,,,,,,,,,,,,,,,,,,,,,,,,,,,,,,,,,,,,,,,,,,,,,,,,,,,,,,,,,,,,,,1.8719135870536168,0.8285195000353269,334.77307830000063,None,ScrollUp,정답입니다,334.77307830000063,None,334.77307830000063,None,334.77307830000063,None,334.77307830000063,None,335.5080233000335,None,335.5080233000335,336.01006410003174,,,,,,,,,,,,,,,,102,2023-04-21_17h41.05.383,FishGame,2022.1.1,59.873857764814396,
,20,넌 지적이야,2,Orange,B,5.75,4.366666666666666,ScrollUp,ScrollDown,Orange.png,3,Positive,Incongruent,,,,,0,0,0,0,,,,,,,,,,,,,,,,,,,,,0,19,19,19,,,,,,,,,,,,,,,,,,,,,,,,,,,,,,,,,,,,,,,,,,,,,,,,,,,,,,,,,,,,,,,,,,,,,,,,,1.9814815024534862,0.8294752999790944,336.61665879999055,None,ScrollUp,정답입니다,336.61665879999055,None,336.61665879999055,None,336.61665879999055,None,336.61665879999055,None,337.3580288999947,None,337.3580288999947,337.86010029999306,,,,,,,,,,,,,,,,102,2023-04-21_17h41.05.383,FishGame,2022.1.1,59.873857764814396,
,21,넌 우유부단해,4,Green,A,2.666666666666667,3.166666666666667,ScrollDown,ScrollUp,Green.png,3,Negative,Incongruent,,,,,0,0,0,0,,,,,,,,,,,,,,,,,,,,,0,20,20,20,,,,,,,,,,,,,,,,,,,,,,,,,,,,,,,,,,,,,,,,,,,,,,,,,,,,,,,,,,,,,,,,,,,,,,,,,1.2222222139437993,0.7985438000177965,338.46831130003557,None,ScrollDown,정답입니다,338.46831130003557,None,338.46831130003557,None,338.46831130003557,None,338.46831130003557,None,339.1766806000378,None,339.1766806000378,339.6767499000416,,,,,,,,,,,,,,,,102,2023-04-21_17h41.05.383,FishGame,2022.1.1,59.873857764814396,
,22,나를 데려가줘,6,Orange,B,0,0,ScrollDown,ScrollUp,Orange.png,3,NonTarget,NonTarget,,,,,0,0,0,0,,,,,,,,,,,,,,,,,,,,,0,21,21,21,,,,,,,,,,,,,,,,,,,,,,,,,,,,,,,,,,,,,,,,,,,,,,,,,,,,,,,,,,,,,,,,,,,,,,,,,1.060185174147288,1.0260405999724753,340.2935659000068,None,ScrollDown,정답입니다,340.2935659000068,None,340.2935659000068,None,340.2935659000068,None,340.2935659000068,None,341.22435090004,None,341.22435090004,341.7243453999981,,,,,,,,,,,,,,,,102,2023-04-21_17h41.05.383,FishGame,2022.1.1,59.873857764814396,
,23,넌 성실해,1,Orange,B,6.041666666666666,5.7,ScrollUp,ScrollDown,Orange.png,3,Positive,Incongruent,,,,,0,0,0,0,,,,,,,,,,,,,,,,,,,,,0,22,22,22,,,,,,,,,,,,,,,,,,,,,,,,,,,,,,,,,,,,,,,,,,,,,,,,,,,,,,,,,,,,,,,,,,,,,,,,,1.7947530895471573,0.8652631999575533,342.32871090003755,None,ScrollUp,정답입니다,342.32871090003755,None,342.32871090003755,None,342.32871090003755,None,342.32871090003755,None,343.1101724000182,None,343.1101724000182,343.6100818000268,,,,,,,,,,,,,,,,102,2023-04-21_17h41.05.383,FishGame,2022.1.1,59.873857764814396,
,24,넌 현실주의적이야,3,Green,A,4.625,4.4,ScrollDown,ScrollUp,Green.png,3,Neutral,Neutral,,,,,0,0,0,0,,,,,,,,,,,,,,,,,,,,,0,23,23,23,,,,,,,,,,,,,,,,,,,,,,,,,,,,,,,,,,,,,,,,,,,,,,,,,,,,,,,,,,,,,,,,,,,,,,,,,1.2407407313585281,0.731947299966123,344.21556600002805,None,ScrollDown,정답입니다,344.21556600002805,None,344.21556600002805,None,344.21556600002805,None,344.21556600002805,None,344.8602560000145,None,344.8602560000145,345.3600543999928,,,,,,,,,,,,,,,,102,2023-04-21_17h41.05.383,FishGame,2022.1.1,59.873857764814396,
,25,넌 진실돼,1,Green,A,6.625,5.566666666666666,ScrollDown,ScrollUp,Green.png,3,Positive,Congruent,,,,,0,0,0,0,,,,,,,,,,,,,,,,,,,,,0,24,24,24,,,,,,,,,,,,,,,,,,,,,,,,,,,,,,,,,,,,,,,,,,,,,,,,,,,,,,,,,,,,,,,,,,,,,,,,,1.0725308855374653,0.8427743999636732,345.9783687000163,None,ScrollDown,정답입니다,345.9783687000163,None,345.9783687000163,None,345.9783687000163,None,345.9783687000163,None,346.7242544000037,None,346.7242544000037,347.2242347000283,,,,,,,,,,,,,,,,102,2023-04-21_17h41.05.383,FishGame,2022.1.1,59.873857764814396,
,26,넌 천진난만해,3,Orange,B,4.958333333333334,4.833333333333333,ScrollUp,ScrollDown,Orange.png,3,Neutral,Neutral,,,,,0,0,0,0,,,,,,,,,,,,,,,,,,,,,0,25,25,25,,,,,,,,,,,,,,,,,,,,,,,,,,,,,,,,,,,,,,,,,,,,,,,,,,,,,,,,,,,,,,,,,,,,,,,,,1.8919753183921177,0.7978598999907263,347.8330777999945,None,ScrollUp,정답입니다,347.8330777999945,None,347.8330777999945,None,347.8330777999945,None,347.8330777999945,None,348.5409085000283,None,348.5409085000283,349.0433589000022,,,,,,,,,,,,,,,,102,2023-04-21_17h41.05.383,FishGame,2022.1.1,59.873857764814396,
,27,넌 교양없어,5,Green,A,2.416666666666667,2.2,ScrollDown,ScrollUp,Green.png,3,Negative,Incongruent,,,,,0,0,0,0,,,,,,,,,,,,,,,,,,,,,0,26,26,26,,,,,,,,,,,,,,,,,,,,,,,,,,,,,,,,,,,,,,,,,,,,,,,,,,,,,,,,,,,,,,,,,,,,,,,,,1.1049382785956066,0.931718899984844,349.6505453000427,None,ScrollDown,정답입니다,349.6505453000427,None,349.6505453000427,None,349.6505453000427,None,349.6505453000427,None,350.49336170003517,None,350.49336170003517,350.9932773000328,,,,,,,,,,,,,,,,102,2023-04-21_17h41.05.383,FishGame,2022.1.1,59.873857764814396,
,28,나를 보내줘,6,Green,A,0,0,ScrollUp,ScrollDown,Green.png,3,NonTarget,NonTarget,,,,,0,0,0,0,,,,,,,,,,,,,,,,,,,,,0,27,27,27,,,,,,,,,,,,,,,,,,,,,,,,,,,,,,,,,,,,,,,,,,,,,,,,,,,,,,,,,,,,,,,,,,,,,,,,,1.9861110945542653,1.146020199987106,351.5970515999943,None,ScrollUp,정답입니다,351.5970515999943,None,351.5970515999943,None,351.5970515999943,None,351.5970515999943,None,352.6597425999935,None,352.6597425999935,353.159738700022,,,,,,,,,,,,,,,,102,2023-04-21_17h41.05.383,FishGame,2022.1.1,59.873857764814396,
,29,넌 엉뚱스러워,3,Green,A,4.166666666666667,4.133333333333334,ScrollDown,ScrollUp,Green.png,3,Neutral,Neutral,,,,,0,0,0,0,,,,,,,,,,,,,,,,,,,,,0,28,28,28,,,,,,,,,,,,,,,,,,,,,,,,,,,,,,,,,,,,,,,,,,,,,,,,,,,,,,,,,,,,,,,,,,,,,,,,,1.1388888855775197,1.096457100007683,353.7669450000394,None,ScrollDown,정답입니다,353.7669450000394,None,353.7669450000394,None,353.7669450000394,None,353.7669450000394,None,354.77637600002345,None,354.77637600002345,355.27638689999003,,,,,,,,,,,,,,,,102,2023-04-21_17h41.05.383,FishGame,2022.1.1,59.873857764814396,
,30,넌 무지해,4,Orange,B,2.541666666666667,3.066666666666667,ScrollUp,ScrollDown,Orange.png,3,Negative,Congruent,,,,,0,0,0,0,,,,,,,,,,,,,,,,,,,,,0,29,29,29,,,,,,,,,,,,,,,,,,,,,,,,,,,,,,,,,,,,,,,,,,,,,,,,,,,,,,,,,,,,,,,,,,,,,,,,,1.67746914178133,0.8651408000150695,355.8820765000419,None,ScrollUp,정답입니다,355.8820765000419,None,355.8820765000419,None,355.8820765000419,None,355.8820765000419,None,356.65766820003046,None,356.65766820003046,357.1596936000278,,,,,,,,,,,,,,,,102,2023-04-21_17h41.05.383,FishGame,2022.1.1,59.873857764814396,
,31,넌 음울해,5,Orange,B,2.25,2.233333333333333,ScrollUp,ScrollDown,Orange.png,3,Negative,Congruent,,,,,0,0,0,0,,,,,,,,,,,,,,,,,,,,,0,30,30,30,,,,,,,,,,,,,,,,,,,,,,,,,,,,,,,,,,,,,,,,,,,,,,,,,,,,,,,,,,,,,,,,,,,,,,,,,1.8703703731298447,1.8124303999939002,357.7700303000165,None,ScrollUp,정답입니다,357.7700303000165,None,357.7700303000165,None,357.7700303000165,None,357.7700303000165,None,359.4906636000378,None,359.4906636000378,359.9906321000308,,,,,,,,,,,,,,,,102,2023-04-21_17h41.05.383,FishGame,2022.1.1,59.873857764814396,
,32,넌 냉소적이야,5,Green,A,2.916666666666667,2.4,ScrollDown,ScrollUp,Green.png,3,Negative,Incongruent,,,,,0,0,0,0,,,,,,,,,,,,,,,,,,,,,0,31,31,31,,,,,,,,,,,,,,,,,,,,,,,,,,,,,,,,,,,,,,,,,,,,,,,,,,,,,,,,,,,,,,,,,,,,,,,,,1.2916666666666665,0.7982430999982171,360.59348700003466,None,ScrollDown,정답입니다,360.59348700003466,None,360.59348700003466,None,360.59348700003466,None,360.59348700003466,None,361.3074044000241,None,361.3074044000241,361.8097109000082,,,,,,,,,,,,,,,,102,2023-04-21_17h41.05.383,FishGame,2022.1.1,59.873857764814396,
,33,나를 데려가줘,6,Orange,B,0,0,ScrollDown,ScrollUp,Orange.png,3,NonTarget,NonTarget,,,,,0,0,0,0,,,,,,,,,,,,,,,,,,,,,0,32,32,32,,,,,,,,,,,,,,,,,,,,,,,,,,,,,,,,,,,,,,,,,,,,,,,,,,,,,,,,,,,,,,,,,,,,,,,,,1.0185184975465138,1.5816657999530435,362.4185501000029,None,ScrollDown,정답입니다,362.4185501000029,None,362.4185501000029,None,362.4185501000029,None,362.4185501000029,None,363.9097997000208,None,363.9097997000208,364.4097216000082,,,,,,,,,,,,,,,,102,2023-04-21_17h41.05.383,FishGame,2022.1.1,59.873857764814396,
,34,넌 쾌활해,1,Green,A,5.541666666666666,5.733333333333333,ScrollDown,ScrollUp,Green.png,3,Positive,Congruent,,,,,0,0,0,0,,,,,,,,,,,,,,,,,,,,,0,33,33,33,,,,,,,,,,,,,,,,,,,,,,,,,,,,,,,,,,,,,,,,,,,,,,,,,,,,,,,,,,,,,,,,,,,,,,,,,1.9567901293436687,1.229804000002332,365.0162004000158,None,ScrollUp,오답입니다,365.0162004000158,None,365.0162004000158,None,365.0162004000158,None,365.0162004000158,None,366.15750680002384,None,366.15750680002384,366.659521900001,,,,,,,,,,,,,,,,102,2023-04-21_17h41.05.383,FishGame,2022.1.1,59.873857764814396,
,35,나를 보내줘,6,Green,A,0,0,ScrollUp,ScrollDown,Green.png,3,NonTarget,NonTarget,,,,,0,0,0,0,,,,,,,,,,,,,,,,,,,,,0,34,34,34,,,,,,,,,,,,,,,,,,,,,,,,,,,,,,,,,,,,,,,,,,,,,,,,,,,,,,,,,,,,,,,,,,,,,,,,,1.8040123482545216,1.0092913000262342,367.2729385000421,None,ScrollUp,정답입니다,367.2729385000421,None,367.2729385000421,None,367.2729385000421,None,367.2729385000421,None,368.19046310003614,None,368.19046310003614,368.69044929998927,,,,,,,,,,,,,,,,102,2023-04-21_17h41.05.383,FishGame,2022.1.1,59.873857764814396,
,36,넌 명랑해,1,Orange,B,5.739130434782609,5.666666666666667,ScrollUp,ScrollDown,Orange.png,3,Positive,Incongruent,,,,,0,0,0,0,,,,,,,,,,,,,,,,,,,,,0,35,35,35,,,,,,,,,,,,,,,,,,,,,,,,,,,,,,,,,,,,,,,,,,,,,,,,,,,,,,,,,,,,,,,,,,,,,,,,,1.9413580397764842,1.017345700005535,369.29739359999076,None,ScrollUp,정답입니다,369.29739359999076,None,369.29739359999076,None,369.29739359999076,None,369.29739359999076,None,370.22633959999075,None,370.22633959999075,370.7262432000134,,,,,,,,,,,,,,,,102,2023-04-21_17h41.05.383,FishGame,2022.1.1,59.873857764814396,
,37,넌 멍해,4,Green,A,2.833333333333333,3.4,ScrollDown,ScrollUp,Green.png,3,Negative,Incongruent,,,,,0,0,0,0,,,,,,,,,,,,,,,,,,,,,0,36,36,36,,,,,,,,,,,,,,,,,,,,,,,,,,,,,,,,,,,,,,,,,,,,,,,,,,,,,,,,,,,,,,,,,,,,,,,,,1,1.0318787000142038,371.3333535999991,None,ScrollDown,정답입니다,371.3333535999991,None,371.3333535999991,None,371.3333535999991,None,371.3333535999991,None,372.27629190002335,None,372.27629190002335,372.7760002000141,,,,,,,,,,,,,,,,102,2023-04-21_17h41.05.383,FishGame,2022.1.1,59.873857764814396,
,38,나를 데려가줘,6,Orange,B,0,0,ScrollDown,ScrollUp,Orange.png,3,NonTarget,NonTarget,,,,,0,0,0,0,,,,,,,,,,,,,,,,,,,,,0,37,37,37,,,,,,,,,,,,,,,,,,,,,,,,,,,,,,,,,,,,,,,,,,,,,,,,,,,,,,,,,,,,,,,,,,,,,,,,,1.0972222338120143,0.9964799000299536,373.38302629999816,None,ScrollDown,정답입니다,373.38302629999816,None,373.38302629999816,None,373.38302629999816,None,373.38302629999816,None,374.29267699999036,None,374.29267699999036,374.79264210001566,,,,,,,,,,,,,,,,102,2023-04-21_17h41.05.383,FishGame,2022.1.1,59.873857764814396,
,39,넌 현명해,2,Green,A,6.541666666666666,4.533333333333333,ScrollDown,ScrollUp,Green.png,3,Positive,Congruent,,,,,0,0,0,0,,,,,,,,,,,,,,,,,,,,,0,38,38,38,,,,,,,,,,,,,,,,,,,,,,,,,,,,,,,,,,,,,,,,,,,,,,,,,,,,,,,,,,,,,,,,,,,,,,,,,1.8117283930381138,1.1127412000205368,375.40313769999193,None,ScrollUp,오답입니다,375.40313769999193,None,375.40313769999193,None,375.40313769999193,None,375.40313769999193,None,376.4259166000411,None,376.4259166000411,376.92593970004236,,,,,,,,,,,,,,,,102,2023-04-21_17h41.05.383,FishGame,2022.1.1,59.873857764814396,
,40,넌 수줍어,3,Orange,B,3.541666666666666,4.366666666666666,ScrollUp,ScrollDown,Orange.png,3,Neutral,Neutral,,,,,0,0,0,0,,,,,,,,,,,,,,,,,,,,,0,39,39,39,,,,,,,,,,,,,,,,,,,,,,,,,,,,,,,,,,,,,,,,,,,,,,,,,,,,,,,,,,,,,,,,,,,,,,,,,1.1172839403152466,0.9465202999999747,377.53472820000025,None,ScrollDown,오답입니다,377.53472820000025,None,377.53472820000025,None,377.53472820000025,None,377.53472820000025,None,378.39054230001057,None,378.39054230001057,378.89258600003086,,,,,,,,,,,,,,,,102,2023-04-21_17h41.05.383,FishGame,2022.1.1,59.873857764814396,
,41,나를 데려가줘,6,Orange,B,0,0,ScrollDown,ScrollUp,Orange.png,3,NonTarget,NonTarget,,,,,0,0,0,0,,,,,,,,,,,,,,,,,,,,,0,40,40,40,,,,,,,,,,,,,,,,,,,,,,,,,,,,,,,,,,,,,,,,,,,,,,,,,,,,,,,,,,,,,,,,,,,,,,,,,1.0200617114702861,1.0289554000482894,379.5059455000446,None,ScrollDown,정답입니다,379.5059455000446,None,379.5059455000446,None,379.5059455000446,None,379.5059455000446,None,380.4404469000292,None,380.4404469000292,380.94245910004247,,,,,,,,,,,,,,,,102,2023-04-21_17h41.05.383,FishGame,2022.1.1,59.873857764814396,
,42,넌 성숙해,2,Orange,B,5.833333333333333,4.533333333333333,ScrollUp,ScrollDown,Orange.png,3,Positive,Incongruent,,,,,0,0,0,0,,,,,,,,,,,,,,,,,,,,,0,41,41,41,,,,,,,,,,,,,,,,,,,,,,,,,,,,,,,,,,,,,,,,,,,,,,,,,,,,,,,,,,,,,,,,,,,,,,,,,1,1.2796095000230707,381.54993969999487,None,ScrollDown,오답입니다,381.54993969999487,None,381.54993969999487,None,381.54993969999487,None,381.54993969999487,None,382.740440100024,None,382.740440100024,383.2424444000353,,,,,,,,,,,,,,,,102,2023-04-21_17h41.05.383,FishGame,2022.1.1,59.873857764814396,
,1,넌 매력적이야,2,Orange,B,6.125,4.666666666666667,ScrollUp,ScrollDown,Orange.png,4,Positive,Incongruent,,,,,0,0,0,0,,,,,,,,,,,,,,,,,,,,,,,,,0,0,0,0,,,,,,,,,,,,,,,,,,,,,,,,,,,,417.9730555000133,419.4752546999953,419.5085737000336,420.4585603000014,420.50853530003224,421.45857960003195,421.45857960003195,None,,,,,,,,,,,,,,,,,,,,,,,,,,,,,,,,,,1.9953703780968983,1.9880223000072874,422.54338620003546,None,ScrollUp,정답입니다,422.54338620003546,None,422.54338620003546,None,422.54338620003546,None,422.54338620003546,None,424.4416314000264,None,424.4416314000264,424.94155540002976,383.74044850002974,None,383.74044850002974,None,0.26203704,-0.15925926,1,0,0,0.016171619936358184,None,413.7417239000206,None,,,102,2023-04-21_17h41.05.383,FishGame,2022.1.1,59.873857764814396,
,2,나를 보내줘,6,Green,A,0,0,ScrollUp,ScrollDown,Green.png,4,NonTarget,NonTarget,,,,,0,0,0,0,,,,,,,,,,,,,,,,,,,,,,,,,0,1,1,1,,,,,,,,,,,,,,,,,,,,,,,,,,,,,,,,,,,,,,,,,,,,,,,,,,,,,,,,,,,,,,,,,,,,,2,1.0482663000002503,425.5456153000123,None,ScrollUp,정답입니다,425.5456153000123,None,425.5456153000123,None,425.5456153000123,None,425.5456153000123,None,426.50829540000996,None,426.50829540000996,427.00829230004456,,,,,,,,,,,,,,,,102,2023-04-21_17h41.05.383,FishGame,2022.1.1,59.873857764814396,
,3,넌 조심스러워,3,Green,A,4.791666666666666,4.666666666666667,ScrollDown,ScrollUp,Green.png,4,Neutral,Neutral,,,,,0,0,0,0,,,,,,,,,,,,,,,,,,,,,,,,,0,2,2,2,,,,,,,,,,,,,,,,,,,,,,,,,,,,,,,,,,,,,,,,,,,,,,,,,,,,,,,,,,,,,,,,,,,,,1.1450617164373398,1.1130157999577932,427.6127936000121,None,ScrollDown,정답입니다,427.6127936000121,None,427.6127936000121,None,427.6127936000121,None,427.6127936000121,None,428.6391939999885,None,428.6391939999885,429.1391979000182,,,,,,,,,,,,,,,,102,2023-04-21_17h41.05.383,FishGame,2022.1.1,59.873857764814396,
,4,넌 철학적이야,3,Orange,B,4.5,4.266666666666667,ScrollUp,ScrollDown,Orange.png,4,Neutral,Neutral,,,,,0,0,0,0,,,,,,,,,,,,,,,,,,,,,,,,,0,3,3,3,,,,,,,,,,,,,,,,,,,,,,,,,,,,,,,,,,,,,,,,,,,,,,,,,,,,,,,,,,,,,,,,,,,,,1.6265432064731917,0.8151353999855928,429.7466308000148,None,ScrollUp,정답입니다,429.7466308000148,None,429.7466308000148,None,429.7466308000148,None,429.7466308000148,None,430.4725783999893,None,430.4725783999893,430.97493840003153,,,,,,,,,,,,,,,,102,2023-04-21_17h41.05.383,FishGame,2022.1.1,59.873857764814396,
,5,넌 쩨쩨해,5,Green,A,2.375,2.133333333333333,ScrollDown,ScrollUp,Green.png,4,Negative,Incongruent,,,,,0,0,0,0,,,,,,,,,,,,,,,,,,,,,,,,,0,4,4,4,,,,,,,,,,,,,,,,,,,,,,,,,,,,,,,,,,,,,,,,,,,,,,,,,,,,,,,,,,,,,,,,,,,,,1.1574074029922485,0.7819364999886602,431.58416180004133,None,ScrollDown,정답입니다,431.58416180004133,None,431.58416180004133,None,431.58416180004133,None,431.58416180004133,None,432.2749837000156,None,432.2749837000156,432.7780005999957,,,,,,,,,,,,,,,,102,2023-04-21_17h41.05.383,FishGame,2022.1.1,59.873857764814396,
,6,나를 데려가줘,6,Orange,B,0,0,ScrollDown,ScrollUp,Orange.png,4,NonTarget,NonTarget,,,,,0,0,0,0,,,,,,,,,,,,,,,,,,,,,,,,,0,5,5,5,,,,,,,,,,,,,,,,,,,,,,,,,,,,,,,,,,,,,,,,,,,,,,,,,,,,,,,,,,,,,,,,,,,,,1.9814815024534862,0.6961651000310667,433.3822664000327,None,ScrollUp,오답입니다,433.3822664000327,None,433.3822664000327,None,433.3822664000327,None,433.3822664000327,None,433.99144559999695,None,433.99144559999695,434.4914057000424,,,,,,,,,,,,,,,,102,2023-04-21_17h41.05.383,FishGame,2022.1.1,59.873857764814396,
,7,넌 고집불통이야,5,Orange,B,2.875,2,ScrollUp,ScrollDown,Orange.png,4,Negative,Congruent,,,,,0,0,0,0,,,,,,,,,,,,,,,,,,,,,,,,,0,6,6,6,,,,,,,,,,,,,,,,,,,,,,,,,,,,,,,,,,,,,,,,,,,,,,,,,,,,,,,,,,,,,,,,,,,,,1.0493827263514202,1.8815212000044994,435.1022768000257,None,ScrollDown,오답입니다,435.1022768000257,None,435.1022768000257,None,435.1022768000257,None,435.1022768000257,None,436.891312199994,None,436.891312199994,437.39132779999636,,,,,,,,,,,,,,,,102,2023-04-21_17h41.05.383,FishGame,2022.1.1,59.873857764814396,
,8,넌 무심해,4,Green,A,2.875,3.2,ScrollDown,ScrollUp,Green.png,4,Negative,Incongruent,,,,,0,0,0,0,,,,,,,,,,,,,,,,,,,,,,,,,0,7,7,7,,,,,,,,,,,,,,,,,,,,,,,,,,,,,,,,,,,,,,,,,,,,,,,,,,,,,,,,,,,,,,,,,,,,,1.0524691541989644,0.9652645000023767,437.9951919000014,None,ScrollDown,정답입니다,437.9951919000014,None,437.9951919000014,None,437.9951919000014,None,437.9951919000014,None,438.87265580001986,None,438.87265580001986,439.37467930000275,,,,,,,,,,,,,,,,102,2023-04-21_17h41.05.383,FishGame,2022.1.1,59.873857764814396,
,9,넌 정겨워,1,Green,A,5.791666666666667,5.666666666666667,ScrollDown,ScrollUp,Green.png,4,Positive,Congruent,,,,,0,0,0,0,,,,,,,,,,,,,,,,,,,,,,,,,0,8,8,8,,,,,,,,,,,,,,,,,,,,,,,,,,,,,,,,,,,,,,,,,,,,,,,,,,,,,,,,,,,,,,,,,,,,,1.2268518557151158,0.9793951000319794,439.9818475000211,None,ScrollDown,정답입니다,439.9818475000211,None,439.9818475000211,None,439.9818475000211,None,439.9818475000211,None,440.8722971000243,None,440.8722971000243,441.37228140002117,,,,,,,,,,,,,,,,102,2023-04-21_17h41.05.383,FishGame,2022.1.1,59.873857764814396,
,10,나를 데려가줘,6,Orange,B,0,0,ScrollDown,ScrollUp,Orange.png,4,NonTarget,NonTarget,,,,,0,0,0,0,,,,,,,,,,,,,,,,,,,,,,,,,0,9,9,9,,,,,,,,,,,,,,,,,,,,,,,,,,,,,,,,,,,,,,,,,,,,,,,,,,,,,,,,,,,,,,,,,,,,,1,0.9841564000234939,441.9771861000336,None,ScrollDown,정답입니다,441.9771861000336,None,441.9771861000336,None,441.9771861000336,None,441.9771861000336,None,442.8748983000405,None,442.8748983000405,443.3746963000158,,,,,,,,,,,,,,,,102,2023-04-21_17h41.05.383,FishGame,2022.1.1,59.873857764814396,
,11,넌 체제순응적이야,4,Orange,B,3,3.6,ScrollUp,ScrollDown,Orange.png,4,Negative,Congruent,,,,,0,0,0,0,,,,,,,,,,,,,,,,,,,,,,,,,0,10,10,10,,,,,,,,,,,,,,,,,,,,,,,,,,,,,,,,,,,,,,,,,,,,,,,,,,,,,,,,,,,,,,,,,,,,,1.9182098805904388,1.0985607000184245,443.9889275000314,None,ScrollUp,정답입니다,443.9889275000314,None,443.9889275000314,None,443.9889275000314,None,443.9889275000314,None,444.9914869000204,None,444.9914869000204,445.4947748000268,,,,,,,,,,,,,,,,102,2023-04-21_17h41.05.383,FishGame,2022.1.1,59.873857764814396,
,12,나를 보내줘,6,Green,A,0,0,ScrollUp,ScrollDown,Green.png,4,NonTarget,NonTarget,,,,,0,0,0,0,,,,,,,,,,,,,,,,,,,,,,,,,0,11,11,11,,,,,,,,,,,,,,,,,,,,,,,,,,,,,,,,,,,,,,,,,,,,,,,,,,,,,,,,,,,,,,,,,,,,,1.6975308607021966,1.0650456000003032,446.0956456999993,None,ScrollUp,정답입니다,446.0956456999993,None,446.0956456999993,None,446.0956456999993,None,446.0956456999993,None,447.07459460000973,None,447.07459460000973,447.574530300044,,,,,,,,,,,,,,,,102,2023-04-21_17h41.05.383,FishGame,2022.1.1,59.873857764814396,
,13,넌 박식해,2,Green,A,5.625,3.933333333333333,ScrollDown,ScrollUp,Green.png,4,Positive,Congruent,,,,,0,0,0,0,,,,,,,,,,,,,,,,,,,,,,,,,0,12,12,12,,,,,,,,,,,,,,,,,,,,,,,,,,,,,,,,,,,,,,,,,,,,,,,,,,,,,,,,,,,,,,,,,,,,,1.253086417913437,1.243422500032466,448.1854641000391,None,ScrollDown,정답입니다,448.1854641000391,None,448.1854641000391,None,448.1854641000391,None,448.1854641000391,None,449.3410603000084,None,449.3410603000084,449.841046800022,,,,,,,,,,,,,,,,102,2023-04-21_17h41.05.383,FishGame,2022.1.1,59.873857764814396,
,14,나를 보내줘,6,Green,A,0,0,ScrollUp,ScrollDown,Green.png,4,NonTarget,NonTarget,,,,,0,0,0,0,,,,,,,,,,,,,,,,,,,,,,,,,0,13,13,13,,,,,,,,,,,,,,,,,,,,,,,,,,,,,,,,,,,,,,,,,,,,,,,,,,,,,,,,,,,,,,,,,,,,,1.609567902982235,1.0652337000356056,450.4451412000344,None,ScrollUp,정답입니다,450.4451412000344,None,450.4451412000344,None,450.4451412000344,None,450.4451412000344,None,451.4244996000198,None,451.4244996000198,451.94109129998833,,,,,,,,,,,,,,,,102,2023-04-21_17h41.05.383,FishGame,2022.1.1,59.873857764814396,
,15,넌 침착해,1,Orange,B,5.458333333333333,5.566666666666666,ScrollUp,ScrollDown,Orange.png,4,Positive,Incongruent,,,,,0,0,0,0,,,,,,,,,,,,,,,,,,,,,,,,,0,14,14,14,,,,,,,,,,,,,,,,,,,,,,,,,,,,,,,,,,,,,,,,,,,,,,,,,,,,,,,,,,,,,,,,,,,,,1.5771604912976422,1.1464045000029728,452.53396420000354,None,ScrollUp,정답입니다,452.53396420000354,None,452.53396420000354,None,452.53396420000354,None,452.53396420000354,None,453.59099160000915,None,453.59099160000915,454.0909550000215,,,,,,,,,,,,,,,,102,2023-04-21_17h41.05.383,FishGame,2022.1.1,59.873857764814396,
,16,나를 데려가줘,6,Orange,B,0,0,ScrollDown,ScrollUp,Orange.png,4,NonTarget,NonTarget,,,,,0,0,0,0,,,,,,,,,,,,,,,,,,,,,,,,,0,15,15,15,,,,,,,,,,,,,,,,,,,,,,,,,,,,,,,,,,,,,,,,,,,,,,,,,,,,,,,,,,,,,,,,,,,,,1.3626543208956718,1.0460969000123441,454.69783810002264,None,ScrollDown,정답입니다,454.69783810002264,None,454.69783810002264,None,454.69783810002264,None,454.69783810002264,None,455.65565070003504,None,455.65565070003504,456.15768760000356,,,,,,,,,,,,,,,,102,2023-04-21_17h41.05.383,FishGame,2022.1.1,59.873857764814396,
,17,넌 행복해,1,Green,A,6.416666666666666,6.166666666666667,ScrollDown,ScrollUp,Green.png,4,Positive,Congruent,,,,,0,0,0,0,,,,,,,,,,,,,,,,,,,,,,,,,0,16,16,16,,,,,,,,,,,,,,,,,,,,,,,,,,,,,,,,,,,,,,,,,,,,,,,,,,,,,,,,,,,,,,,,,,,,,1.3858024676640828,0.9624978000065312,456.77455969998846,None,ScrollDown,정답입니다,456.77455969998846,None,456.77455969998846,None,456.77455969998846,None,456.77455969998846,None,457.6386255000252,None,457.6386255000252,458.13860840001144,,,,,,,,,,,,,,,,102,2023-04-21_17h41.05.383,FishGame,2022.1.1,59.873857764814396,
,18,넌 겸손해,2,Orange,B,5.791666666666667,4.766666666666667,ScrollUp,ScrollDown,Orange.png,4,Positive,Incongruent,,,,,0,0,0,0,,,,,,,,,,,,,,,,,,,,,,,,,0,17,17,17,,,,,,,,,,,,,,,,,,,,,,,,,,,,,,,,,,,,,,,,,,,,,,,,,,,,,,,,,,,,,,,,,,,,,1.481481481033067,0.982095199986361,458.7460109000094,None,NoResponse,무응답입니다,458.7460109000094,None,458.7460109000094,None,458.7460109000094,None,458.7460109000094,None,459.6411474000197,None,459.6411474000197,460.14100619999226,,,,,,,,,,,,,,,,102,2023-04-21_17h41.05.383,FishGame,2022.1.1,59.873857764814396,
,19,나를 보내줘,6,Green,A,0,0,ScrollUp,ScrollDown,Green.png,4,NonTarget,NonTarget,,,,,0,0,0,0,,,,,,,,,,,,,,,,,,,,,,,,,0,18,18,18,,,,,,,,,,,,,,,,,,,,,,,,,,,,,,,,,,,,,,,,,,,,,,,,,,,,,,,,,,,,,,,,,,,,,1.5138888896132507,1.0471068000188097,460.74660250003217,None,NoResponse,무응답입니다,460.74660250003217,None,460.74660250003217,None,460.74660250003217,None,460.74660250003217,None,461.7077466000337,None,461.7077466000337,462.20751750003546,,,,,,,,,,,,,,,,102,2023-04-21_17h41.05.383,FishGame,2022.1.1,59.873857764814396,
,20,넌 의심없어,3,Green,A,4.166666666666667,4.6,ScrollDown,ScrollUp,Green.png,4,Neutral,Neutral,,,,,0,0,0,0,,,,,,,,,,,,,,,,,,,,,,,,,0,19,19,19,,,,,,,,,,,,,,,,,,,,,,,,,,,,,,,,,,,,,,,,,,,,,,,,,,,,,,,,,,,,,,,,,,,,,1.7206790198882422,1.6153176000225358,462.8122071000398,None,ScrollUp,오답입니다,462.8122071000398,None,462.8122071000398,None,462.8122071000398,None,462.8122071000398,None,464.3409602000029,None,464.3409602000029,464.84409660001984,,,,,,,,,,,,,,,,102,2023-04-21_17h41.05.383,FishGame,2022.1.1,59.873857764814396,
,21,넌 시시해,4,Green,A,2.666666666666667,2.966666666666667,ScrollDown,ScrollUp,Green.png,4,Negative,Incongruent,,,,,0,0,0,0,,,,,,,,,,,,,,,,,,,,,,,,,0,20,20,20,,,,,,,,,,,,,,,,,,,,,,,,,,,,,,,,,,,,,,,,,,,,,,,,,,,,,,,,,,,,,,,,,,,,,1.0848765472571056,0.9629934999975376,465.44522980001057,None,ScrollDown,정답입니다,465.44522980001057,None,465.44522980001057,None,465.44522980001057,None,465.44522980001057,None,466.32213380001485,None,466.32213380001485,466.82399900001474,,,,,,,,,,,,,,,,102,2023-04-21_17h41.05.383,FishGame,2022.1.1,59.873857764814396,
,22,나를 데려가줘,6,Orange,B,0,0,ScrollDown,ScrollUp,Orange.png,4,NonTarget,NonTarget,,,,,0,0,0,0,,,,,,,,,,,,,,,,,,,,,,,,,0,21,21,21,,,,,,,,,,,,,,,,,,,,,,,,,,,,,,,,,,,,,,,,,,,,,,,,,,,,,,,,,,,,,,,,,,,,,1.0817901194095612,1.0315425000153482,467.43068039999343,None,ScrollDown,정답입니다,467.43068039999343,None,467.43068039999343,None,467.43068039999343,None,467.43068039999343,None,468.3741726000444,None,468.3741726000444,468.87409430003027,,,,,,,,,,,,,,,,102,2023-04-21_17h41.05.383,FishGame,2022.1.1,59.873857764814396,
,23,넌 무정해,5,Green,A,2.5,2.2,ScrollDown,ScrollUp,Green.png,4,Negative,Incongruent,,,,,0,0,0,0,,,,,,,,,,,,,,,,,,,,,,,,,0,22,22,22,,,,,,,,,,,,,,,,,,,,,,,,,,,,,,,,,,,,,,,,,,,,,,,,,,,,,,,,,,,,,,,,,,,,,1.787037044763565,1.1963287999969907,469.47832640004344,None,ScrollUp,오답입니다,469.47832640004344,None,469.47832640004344,None,469.47832640004344,None,469.47832640004344,None,470.58858390001114,None,470.58858390001114,471.09061670000665,,,,,,,,,,,,,,,,102,2023-04-21_17h41.05.383,FishGame,2022.1.1,59.873857764814396,
,24,넌 긍정적이야,1,Orange,B,6.041666666666667,6.066666666666666,ScrollUp,ScrollDown,Orange.png,4,Positive,Incongruent,,,,,0,0,0,0,,,,,,,,,,,,,,,,,,,,,,,,,0,23,23,23,,,,,,,,,,,,,,,,,,,,,,,,,,,,,,,,,,,,,,,,,,,,,,,,,,,,,,,,,,,,,,,,,,,,,1.7700617164373398,1.0651868999702856,471.700932000007,None,ScrollUp,정답입니다,471.700932000007,None,471.700932000007,None,471.700932000007,None,471.700932000007,None,472.6719593000016,None,472.6719593000016,473.17397320002783,,,,,,,,,,,,,,,,102,2023-04-21_17h41.05.383,FishGame,2022.1.1,59.873857764814396,
,25,나를 보내줘,6,Green,A,0,0,ScrollUp,ScrollDown,Green.png,4,NonTarget,NonTarget,,,,,0,0,0,0,,,,,,,,,,,,,,,,,,,,,,,,,0,24,24,24,,,,,,,,,,,,,,,,,,,,,,,,,,,,,,,,,,,,,,,,,,,,,,,,,,,,,,,,,,,,,,,,,,,,,1.68364197264115,1.031737899989821,473.7782279000385,None,ScrollUp,정답입니다,473.7782279000385,None,473.7782279000385,None,473.7782279000385,None,473.7782279000385,None,474.72388380003395,None,474.72388380003395,475.22388140001567,,,,,,,,,,,,,,,,102,2023-04-21_17h41.05.383,FishGame,2022.1.1,59.873857764814396,
,26,넌 시기심이 많아,5,Orange,B,2.458333333333333,2.233333333333333,ScrollUp,ScrollDown,Orange.png,4,Negative,Congruent,,,,,0,0,0,0,,,,,,,,,,,,,,,,,,,,,,,,,0,25,25,25,,,,,,,,,,,,,,,,,,,,,,,,,,,,,,,,,,,,,,,,,,,,,,,,,,,,,,,,,,,,,,,,,,,,,1.7731481442848842,1.1649989999714307,475.8347305000061,None,ScrollUp,정답입니다,475.8347305000061,None,475.8347305000061,None,475.8347305000061,None,475.8347305000061,None,476.90720120002516,None,476.90720120002516,477.4072073000134,,,,,,,,,,,,,,,,102,2023-04-21_17h41.05.383,FishGame,2022.1.1,59.873857764814396,
,27,넌 탁월해,2,Green,A,5.708333333333334,4.5,ScrollDown,ScrollUp,Green.png,4,Positive,Congruent,,,,,0,0,0,0,,,,,,,,,,,,,,,,,,,,,,,,,0,26,26,26,,,,,,,,,,,,,,,,,,,,,,,,,,,,,,,,,,,,,,,,,,,,,,,,,,,,,,,,,,,,,,,,,,,,,1.1080246816078823,0.9146727000479586,478.015423200035,None,ScrollDown,정답입니다,478.015423200035,None,478.015423200035,None,478.015423200035,None,478.015423200035,None,478.8406369999866,None,478.8406369999866,479.3383976999903,,,,,,,,,,,,,,,,102,2023-04-21_17h41.05.383,FishGame,2022.1.1,59.873857764814396,
,28,나를 데려가줘,6,Orange,B,0,0,ScrollDown,ScrollUp,Orange.png,4,NonTarget,NonTarget,,,,,0,0,0,0,,,,,,,,,,,,,,,,,,,,,,,,,0,27,27,27,,,,,,,,,,,,,,,,,,,,,,,,,,,,,,,,,,,,,,,,,,,,,,,,,,,,,,,,,,,,,,,,,,,,,1.2623456766208014,0.9961420999607071,479.94696199998725,None,ScrollDown,정답입니다,479.94696199998725,None,479.94696199998725,None,479.94696199998725,None,479.94696199998725,None,480.85501200001454,None,480.85501200001454,481.35709210002096,,,,,,,,,,,,,,,,102,2023-04-21_17h41.05.383,FishGame,2022.1.1,59.873857764814396,
,29,넌 조용해,3,Orange,B,4.333333333333333,4.166666666666667,ScrollUp,ScrollDown,Orange.png,4,Neutral,Neutral,,,,,0,0,0,0,,,,,,,,,,,,,,,,,,,,,,,,,0,28,28,28,,,,,,,,,,,,,,,,,,,,,,,,,,,,,,,,,,,,,,,,,,,,,,,,,,,,,,,,,,,,,,,,,,,,,1.6867284004886947,0.9795140000060201,481.965638099995,None,ScrollUp,정답입니다,481.965638099995,None,481.965638099995,None,481.965638099995,None,481.965638099995,None,482.8571115999948,None,482.8571115999948,483.35708650003653,,,,,,,,,,,,,,,,102,2023-04-21_17h41.05.383,FishGame,2022.1.1,59.873857764814396,
,30,넌 다정해,1,Green,A,5.833333333333334,5.7,ScrollDown,ScrollUp,Green.png,4,Positive,Congruent,,,,,0,0,0,0,,,,,,,,,,,,,,,,,,,,,,,,,0,29,29,29,,,,,,,,,,,,,,,,,,,,,,,,,,,,,,,,,,,,,,,,,,,,,,,,,,,,,,,,,,,,,,,,,,,,,1.8703703731298447,1.1128286000457592,483.968304500042,None,ScrollUp,오답입니다,483.968304500042,None,483.968304500042,None,483.968304500042,None,483.968304500042,None,484.988061800017,None,484.988061800017,485.48803820001194,,,,,,,,,,,,,,,,102,2023-04-21_17h41.05.383,FishGame,2022.1.1,59.873857764814396,
,31,넌 능력있어,2,Orange,B,6.166666666666666,4.6,ScrollUp,ScrollDown,Orange.png,4,Positive,Incongruent,,,,,0,0,0,0,,,,,,,,,,,,,,,,,,,,,,,,,0,30,30,30,,,,,,,,,,,,,,,,,,,,,,,,,,,,,,,,,,,,,,,,,,,,,,,,,,,,,,,,,,,,,,,,,,,,,1.8441358109315236,0.9809643999906257,486.1061248999904,None,ScrollUp,정답입니다,486.1061248999904,None,486.1061248999904,None,486.1061248999904,None,486.1061248999904,None,486.9905823000008,None,486.9905823000008,487.49047590000555,,,,,,,,,,,,,,,,102,2023-04-21_17h41.05.383,FishGame,2022.1.1,59.873857764814396,
,32,넌 불쾌해,5,Green,A,2.125,1.933333333333333,ScrollDown,ScrollUp,Green.png,4,Negative,Incongruent,,,,,0,0,0,0,,,,,,,,,,,,,,,,,,,,,,,,,0,31,31,31,,,,,,,,,,,,,,,,,,,,,,,,,,,,,,,,,,,,,,,,,,,,,,,,,,,,,,,,,,,,,,,,,,,,,1.140432099501292,0.8983103000209667,488.0955890000332,None,ScrollDown,정답입니다,488.0955890000332,None,488.0955890000332,None,488.0955890000332,None,488.0955890000332,None,488.90717150003184,None,488.90717150003184,489.4236346000107,,,,,,,,,,,,,,,,102,2023-04-21_17h41.05.383,FishGame,2022.1.1,59.873857764814396,
,33,나를 데려가줘,6,Orange,B,0,0,ScrollDown,ScrollUp,Orange.png,4,NonTarget,NonTarget,,,,,0,0,0,0,,,,,,,,,,,,,,,,,,,,,,,,,0,32,32,32,,,,,,,,,,,,,,,,,,,,,,,,,,,,,,,,,,,,,,,,,,,,,,,,,,,,,,,,,,,,,,,,,,,,,1.180555562178294,1.1630638999631628,490.01568720000796,None,ScrollDown,정답입니다,490.01568720000796,None,490.01568720000796,None,490.01568720000796,None,490.01568720000796,None,491.09031609998783,None,491.09031609998783,491.58794920000946,,,,,,,,,,,,,,,,102,2023-04-21_17h41.05.383,FishGame,2022.1.1,59.873857764814396,
,34,넌 유순해,3,Green,A,4.458333333333333,5,ScrollDown,ScrollUp,Green.png,4,Neutral,Neutral,,,,,0,0,0,0,,,,,,,,,,,,,,,,,,,,,,,,,0,33,33,33,,,,,,,,,,,,,,,,,,,,,,,,,,,,,,,,,,,,,,,,,,,,,,,,,,,,,,,,,,,,,,,,,,,,,1.060185174147288,1.3794747999636456,492.1943254999933,None,ScrollDown,정답입니다,492.1943254999933,None,492.1943254999933,None,492.1943254999933,None,492.1943254999933,None,493.49017420003656,None,493.49017420003656,493.9901438000379,,,,,,,,,,,,,,,,102,2023-04-21_17h41.05.383,FishGame,2022.1.1,59.873857764814396,
,35,넌 근심스러워,4,Orange,B,2.708333333333333,3.133333333333333,ScrollUp,ScrollDown,Orange.png,4,Negative,Congruent,,,,,0,0,0,0,,,,,,,,,,,,,,,,,,,,,,,,,0,34,34,34,,,,,,,,,,,,,,,,,,,,,,,,,,,,,,,,,,,,,,,,,,,,,,,,,,,,,,,,,,,,,,,,,,,,,1.837962955236435,0.9130837999982759,494.5995330000296,None,ScrollUp,정답입니다,494.5995330000296,None,494.5995330000296,None,494.5995330000296,None,494.5995330000296,None,495.42351490003057,None,495.42351490003057,495.9235106999986,,,,,,,,,,,,,,,,102,2023-04-21_17h41.05.383,FishGame,2022.1.1,59.873857764814396,
,36,넌 세련되었어,2,Green,A,5.5,4.6,ScrollDown,ScrollUp,Green.png,4,Positive,Congruent,,,,,0,0,0,0,,,,,,,,,,,,,,,,,,,,,,,,,0,35,35,35,,,,,,,,,,,,,,,,,,,,,,,,,,,,,,,,,,,,,,,,,,,,,,,,,,,,,,,,,,,,,,,,,,,,,1.3040123408039412,0.8459337000385858,496.5399805000052,None,ScrollDown,정답입니다,496.5399805000052,None,496.5399805000052,None,496.5399805000052,None,496.5399805000052,None,497.2877989000408,None,497.2877989000408,497.7877785000019,,,,,,,,,,,,,,,,102,2023-04-21_17h41.05.383,FishGame,2022.1.1,59.873857764814396,
,37,나를 보내줘,6,Green,A,0,0,ScrollUp,ScrollDown,Green.png,4,NonTarget,NonTarget,,,,,0,0,0,0,,,,,,,,,,,,,,,,,,,,,,,,,0,36,36,36,,,,,,,,,,,,,,,,,,,,,,,,,,,,,,,,,,,,,,,,,,,,,,,,,,,,,,,,,,,,,,,,,,,,,1.6419753084580102,1.5480690999538638,498.39433060004376,None,ScrollUp,정답입니다,498.39433060004376,None,498.39433060004376,None,498.39433060004376,None,498.39433060004376,None,499.8570848000236,None,499.8570848000236,500.35683520004386,,,,,,,,,,,,,,,,102,2023-04-21_17h41.05.383,FishGame,2022.1.1,59.873857764814396,
,38,넌 확고해,3,Orange,B,4.708333333333334,4.566666666666666,ScrollUp,ScrollDown,Orange.png,4,Neutral,Neutral,,,,,0,0,0,0,,,,,,,,,,,,,,,,,,,,,,,,,0,37,37,37,,,,,,,,,,,,,,,,,,,,,,,,,,,,,,,,,,,,,,,,,,,,,,,,,,,,,,,,,,,,,,,,,,,,,1.7314814925193787,1.5963065000250936,500.9667778000003,None,ScrollUp,정답입니다,500.9667778000003,None,500.9667778000003,None,500.9667778000003,None,500.9667778000003,None,502.4713022999931,None,502.4713022999931,502.97328430000925,,,,,,,,,,,,,,,,102,2023-04-21_17h41.05.383,FishGame,2022.1.1,59.873857764814396,
,39,넌 이해심이 많아,1,Orange,B,6.041666666666668,5.533333333333333,ScrollUp,ScrollDown,Orange.png,4,Positive,Incongruent,,,,,0,0,0,0,,,,,,,,,,,,,,,,,,,,,,,,,0,38,38,38,,,,,,,,,,,,,,,,,,,,,,,,,,,,,,,,,,,,,,,,,,,,,,,,,,,,,,,,,,,,,,,,,,,,,1.766975313425064,1.346051600005012,503.5803674000199,None,ScrollUp,정답입니다,503.5803674000199,None,503.5803674000199,None,503.5803674000199,None,503.5803674000199,None,504.8398916000151,None,504.8398916000151,505.33991070004413,,,,,,,,,,,,,,,,102,2023-04-21_17h41.05.383,FishGame,2022.1.1,59.873857764814396,
,40,나를 보내줘,6,Green,A,0,0,ScrollUp,ScrollDown,Green.png,4,NonTarget,NonTarget,,,,,0,0,0,0,,,,,,,,,,,,,,,,,,,,,,,,,0,39,39,39,,,,,,,,,,,,,,,,,,,,,,,,,,,,,,,,,,,,,,,,,,,,,,,,,,,,,,,,,,,,,,,,,,,,,1.8749999900658925,1.0318397999508306,505.94414680002956,None,ScrollUp,정답입니다,505.94414680002956,None,505.94414680002956,None,505.94414680002956,None,505.94414680002956,None,506.88988209998934,None,506.88988209998934,507.38993380003376,,,,,,,,,,,,,,,,102,2023-04-21_17h41.05.383,FishGame,2022.1.1,59.873857764814396,
,41,넌 거칠어,4,Green,A,2.625,3.033333333333333,ScrollDown,ScrollUp,Green.png,4,Negative,Incongruent,,,,,0,0,0,0,,,,,,,,,,,,,,,,,,,,,,,,,0,40,40,40,,,,,,,,,,,,,,,,,,,,,,,,,,,,,,,,,,,,,,,,,,,,,,,,,,,,,,,,,,,,,,,,,,,,,1,1.1630802999716252,507.99655420001363,None,ScrollDown,정답입니다,507.99655420001363,None,507.99655420001363,None,507.99655420001363,None,507.99655420001363,None,509.0708731000195,None,509.0708731000195,509.5708561000065,,,,,,,,,,,,,,,,102,2023-04-21_17h41.05.383,FishGame,2022.1.1,59.873857764814396,
,42,넌 변덕맞아,5,Orange,B,2.75,2.166666666666667,ScrollUp,ScrollDown,Orange.png,4,Negative,Congruent,,,,,0,0,0,0,,,,,,,,,,,,,,,,,,,,,,,,,0,41,41,41,,,,,,,,,,,,,,,,,,,,,,,,,,,,,,,,,,,,,,,,,,,,,,,,,,,,,,,,,,,,,,,,,,,,,1.7592592686414719,1.3007657000562176,510.17983380000805,None,ScrollUp,정답입니다,510.17983380000805,None,510.17983380000805,None,510.17983380000805,None,510.17983380000805,None,511.3900513999979,None,511.3900513999979,511.8899300000048,,,,,,,,,,,,,,,,102,2023-04-21_17h41.05.383,FishGame,2022.1.1,59.873857764814396,
,43,나를 데려가줘,6,Orange,B,0,0,ScrollDown,ScrollUp,Orange.png,4,NonTarget,NonTarget,,,,,0,0,0,0,,,,,,,,,,,,,,,,,,,,,,,,,0,42,42,42,,,,,,,,,,,,,,,,,,,,,,,,,,,,,,,,,,,,,,,,,,,,,,,,,,,,,,,,,,,,,,,,,,,,,1.1712963034709294,1.0796805000281893,512.4977106000297,None,ScrollDown,정답입니다,512.4977106000297,None,512.4977106000297,None,512.4977106000297,None,512.4977106000297,None,513.4897874000017,None,513.4897874000017,513.9898147000349,,,,,,,,,,,,,,,,102,2023-04-21_17h41.05.383,FishGame,2022.1.1,59.873857764814396,
,44,넌 외로워,4,Orange,B,2.833333333333333,3.3,ScrollUp,ScrollDown,Orange.png,4,Negative,Congruent,,,,,0,0,0,0,,,,,,,,,,,,,,,,,,,,,,,,,0,43,43,43,,,,,,,,,,,,,,,,,,,,,,,,,,,,,,,,,,,,,,,,,,,,,,,,,,,,,,,,,,,,,,,,,,,,,1.0756172637144725,1.1313216999988072,514.6061820000177,None,ScrollDown,오답입니다,514.6061820000177,None,514.6061820000177,None,514.6061820000177,None,514.6061820000177,None,515.6377346999943,None,515.6377346999943,516.1398217999958,,,,,,,,,,,,,,,,102,2023-04-21_17h41.05.383,FishGame,2022.1.1,59.873857764814396,
,1,넌 불평스러워,5,Green,A,2.25,2.066666666666667,ScrollDown,ScrollUp,Green.png,5,Negative,Incongruent,,,,,0,0,0,0,,,,,,,,,,,,,,,,,,,,,,,,,,,,,0,0,0,0,,,,,,,,,,,,,,,,,,,,,,,,548.9203635000158,550.4224930999917,550.4558438000386,551.4058469000156,551.4558437000378,552.4058512999909,552.4058512999909,None,,,,,,,,,,,,,,,,,,,,,,,,,,,,,,,,,,1.120370368162791,1.3201218999456614,553.4865420000278,None,ScrollDown,정답입니다,553.4865420000278,None,553.4865420000278,None,553.4865420000278,None,553.4865420000278,None,554.7201990000322,None,554.7201990000322,555.2221806999878,516.6397088000085,None,516.6397088000085,None,0.049074072,-0.107407406,1,0,0,0.01640631997724995,None,546.655631600006,None,,,102,2023-04-21_17h41.05.383,FishGame,2022.1.1,59.873857764814396,
,2,나를 보내줘,6,Green,A,0,0,ScrollUp,ScrollDown,Green.png,5,NonTarget,NonTarget,,,,,0,0,0,0,,,,,,,,,,,,,,,,,,,,,,,,,,,,,0,1,1,1,,,,,,,,,,,,,,,,,,,,,,,,,,,,,,,,,,,,,,,,,,,,,,,,,,,,,,,,,,,,,,,,,2,1.3484071999555454,555.8258612999925,None,ScrollUp,정답입니다,555.8258612999925,None,555.8258612999925,None,555.8258612999925,None,555.8258612999925,None,557.0888632000424,None,557.0888632000424,557.5888832000201,,,,,,,,,,,,,,,,102,2023-04-21_17h41.05.383,FishGame,2022.1.1,59.873857764814396,
,3,넌 다재다능해,2,Orange,B,6.208333333333333,4.5,ScrollUp,ScrollDown,Orange.png,5,Positive,Incongruent,,,,,0,0,0,0,,,,,,,,,,,,,,,,,,,,,,,,,,,,,0,2,2,2,,,,,,,,,,,,,,,,,,,,,,,,,,,,,,,,,,,,,,,,,,,,,,,,,,,,,,,,,,,,,,,,,1.9675925771395366,0.9150408999994397,558.1957241999917,None,ScrollUp,정답입니다,558.1957241999917,None,558.1957241999917,None,558.1957241999917,None,558.1957241999917,None,559.0201174000395,None,559.0201174000395,559.5221204000409,,,,,,,,,,,,,,,,102,2023-04-21_17h41.05.383,FishGame,2022.1.1,59.873857764814396,
,4,넌 과감해,3,Green,A,4.833333333333334,4.6,ScrollDown,ScrollUp,Green.png,5,Neutral,Neutral,,,,,0,0,0,0,,,,,,,,,,,,,,,,,,,,,,,,,,,,,0,3,3,3,,,,,,,,,,,,,,,,,,,,,,,,,,,,,,,,,,,,,,,,,,,,,,,,,,,,,,,,,,,,,,,,,1.1080246816078823,0.9153730000252835,560.1266037999885,None,ScrollDown,정답입니다,560.1266037999885,None,560.1266037999885,None,560.1266037999885,None,560.1266037999885,None,560.9555059000268,None,560.9555059000268,561.4554509000154,,,,,,,,,,,,,,,,102,2023-04-21_17h41.05.383,FishGame,2022.1.1,59.873857764814396,
,5,넌 고분고분해,3,Orange,B,3.75,4.033333333333333,ScrollUp,ScrollDown,Orange.png,5,Neutral,Neutral,,,,,0,0,0,0,,,,,,,,,,,,,,,,,,,,,,,,,,,,,0,4,4,4,,,,,,,,,,,,,,,,,,,,,,,,,,,,,,,,,,,,,,,,,,,,,,,,,,,,,,,,,,,,,,,,,1.7484567960103354,0.6652839999878779,562.0645721000037,None,ScrollUp,정답입니다,562.0645721000037,None,562.0645721000037,None,562.0645721000037,None,562.0645721000037,None,562.6387509999913,None,562.6387509999913,563.1422731000348,,,,,,,,,,,,,,,,102,2023-04-21_17h41.05.383,FishGame,2022.1.1,59.873857764814396,
,6,나를 보내줘,6,Green,A,0,0,ScrollUp,ScrollDown,Green.png,5,NonTarget,NonTarget,,,,,0,0,0,0,,,,,,,,,,,,,,,,,,,,,,,,,,,,,0,5,5,5,,,,,,,,,,,,,,,,,,,,,,,,,,,,,,,,,,,,,,,,,,,,,,,,,,,,,,,,,,,,,,,,,1.7422839403152466,0.9985045999637805,563.7506739000091,None,ScrollUp,정답입니다,563.7506739000091,None,563.7506739000091,None,563.7506739000091,None,563.7506739000091,None,564.6553653000155,None,564.6553653000155,565.1553396999952,,,,,,,,,,,,,,,,102,2023-04-21_17h41.05.383,FishGame,2022.1.1,59.873857764814396,
,7,넌 잘 잊어,4,Green,A,3,3.7,ScrollDown,ScrollUp,Green.png,5,Negative,Incongruent,,,,,0,0,0,0,,,,,,,,,,,,,,,,,,,,,,,,,,,,,0,6,6,6,,,,,,,,,,,,,,,,,,,,,,,,,,,,,,,,,,,,,,,,,,,,,,,,,,,,,,,,,,,,,,,,,1.1990740795930226,1.415261999994982,565.7644607000402,None,ScrollDown,정답입니다,565.7644607000402,None,565.7644607000402,None,565.7644607000402,None,565.7644607000402,None,567.0887093000347,None,567.0887093000347,567.5886817999999,,,,,,,,,,,,,,,,102,2023-04-21_17h41.05.383,FishGame,2022.1.1,59.873857764814396,
,8,넌 탐구심이없어,4,Orange,B,2.833333333333333,3.066666666666667,ScrollUp,ScrollDown,Orange.png,5,Negative,Congruent,,,,,0,0,0,0,,,,,,,,,,,,,,,,,,,,,,,,,,,,,0,7,7,7,,,,,,,,,,,,,,,,,,,,,,,,,,,,,,,,,,,,,,,,,,,,,,,,,,,,,,,,,,,,,,,,,1.7824074029922485,0.8297496999730356,568.2030893000192,None,ScrollUp,정답입니다,568.2030893000192,None,568.2030893000192,None,568.2030893000192,None,568.2030893000192,None,568.938593800005,None,568.938593800005,569.4385870000115,,,,,,,,,,,,,,,,102,2023-04-21_17h41.05.383,FishGame,2022.1.1,59.873857764814396,
,9,나를 데려가줘,6,Orange,B,0,0,ScrollDown,ScrollUp,Orange.png,5,NonTarget,NonTarget,,,,,0,0,0,0,,,,,,,,,,,,,,,,,,,,,,,,,,,,,0,8,8,8,,,,,,,,,,,,,,,,,,,,,,,,,,,,,,,,,,,,,,,,,,,,,,,,,,,,,,,,,,,,,,,,,1.1172839403152466,0.9985149999847636,570.0450465999893,None,ScrollDown,정답입니다,570.0450465999893,None,570.0450465999893,None,570.0450465999893,None,570.0450465999893,None,570.9552193999989,None,570.9552193999989,571.45522850001,,,,,,,,,,,,,,,,102,2023-04-21_17h41.05.383,FishGame,2022.1.1,59.873857764814396,
,10,넌 참되어,2,Green,A,6.041666666666664,4.733333333333333,ScrollDown,ScrollUp,Green.png,5,Positive,Congruent,,,,,0,0,0,0,,,,,,,,,,,,,,,,,,,,,,,,,,,,,0,9,9,9,,,,,,,,,,,,,,,,,,,,,,,,,,,,,,,,,,,,,,,,,,,,,,,,,,,,,,,,,,,,,,,,,1.1188271542390187,1.315285100019537,572.0613085000077,None,ScrollDown,정답입니다,572.0613085000077,None,572.0613085000077,None,572.0613085000077,None,572.0613085000077,None,573.2885916000232,None,573.2885916000232,573.7865187000134,,,,,,,,,,,,,,,,102,2023-04-21_17h41.05.383,FishGame,2022.1.1,59.873857764814396,
,11,넌 생기있어,1,Orange,B,5.875,5.633333333333334,ScrollUp,ScrollDown,Orange.png,5,Positive,Incongruent,,,,,0,0,0,0,,,,,,,,,,,,,,,,,,,,,,,,,,,,,0,10,10,10,,,,,,,,,,,,,,,,,,,,,,,,,,,,,,,,,,,,,,,,,,,,,,,,,,,,,,,,,,,,,,,,,1.6188271616895995,1.5463372000376694,574.3976716999896,None,ScrollUp,정답입니다,574.3976716999896,None,574.3976716999896,None,574.3976716999896,None,574.3976716999896,None,575.8551128000254,None,575.8551128000254,576.3550908000325,,,,,,,,,,,,,,,,102,2023-04-21_17h41.05.383,FishGame,2022.1.1,59.873857764814396,
,12,넌 비사교적이야,4,Orange,B,2.875,2.9,ScrollUp,ScrollDown,Orange.png,5,Negative,Congruent,,,,,0,0,0,0,,,,,,,,,,,,,,,,,,,,,,,,,,,,,0,11,11,11,,,,,,,,,,,,,,,,,,,,,,,,,,,,,,,,,,,,,,,,,,,,,,,,,,,,,,,,,,,,,,,,,1.6959876591960588,0.7629867999930866,576.9619000999955,None,ScrollUp,정답입니다,576.9619000999955,None,576.9619000999955,None,576.9619000999955,None,576.9619000999955,None,577.6384239000035,None,577.6384239000035,578.1384484000155,,,,,,,,,,,,,,,,102,2023-04-21_17h41.05.383,FishGame,2022.1.1,59.873857764814396,
,13,나를 데려가줘,6,Orange,B,0,0,ScrollDown,ScrollUp,Orange.png,5,NonTarget,NonTarget,,,,,0,0,0,0,,,,,,,,,,,,,,,,,,,,,,,,,,,,,0,12,12,12,,,,,,,,,,,,,,,,,,,,,,,,,,,,,,,,,,,,,,,,,,,,,,,,,,,,,,,,,,,,,,,,,1.3518518482645354,0.8627509000361897,578.745359499997,None,ScrollDown,정답입니다,578.745359499997,None,578.745359499997,None,578.745359499997,None,578.745359499997,None,579.5217151000397,None,579.5217151000397,580.0216849000426,,,,,,,,,,,,,,,,102,2023-04-21_17h41.05.383,FishGame,2022.1.1,59.873857764814396,
,14,넌 고독해,4,Green,A,2.916666666666667,3.233333333333333,ScrollDown,ScrollUp,Green.png,5,Negative,Incongruent,,,,,0,0,0,0,,,,,,,,,,,,,,,,,,,,,,,,,,,,,0,13,13,13,,,,,,,,,,,,,,,,,,,,,,,,,,,,,,,,,,,,,,,,,,,,,,,,,,,,,,,,,,,,,,,,,1.3040123408039412,1.2461851999978535,580.6251869000262,None,ScrollDown,정답입니다,580.6251869000262,None,580.6251869000262,None,580.6251869000262,None,580.6251869000262,None,581.7863183000009,None,581.7863183000009,582.2884109999868,,,,,,,,,,,,,,,,102,2023-04-21_17h41.05.383,FishGame,2022.1.1,59.873857764814396,
,15,넌 신경질적이야,5,Orange,B,2.375,2.233333333333333,ScrollUp,ScrollDown,Orange.png,5,Negative,Congruent,,,,,0,0,0,0,,,,,,,,,,,,,,,,,,,,,,,,,,,,,0,14,14,14,,,,,,,,,,,,,,,,,,,,,,,,,,,,,,,,,,,,,,,,,,,,,,,,,,,,,,,,,,,,,,,,,1.702160490055879,0.9150157999829389,582.9061188999913,None,ScrollUp,정답입니다,582.9061188999913,None,582.9061188999913,None,582.9061188999913,None,582.9061188999913,None,583.7196661999915,None,583.7196661999915,584.2250424000085,,,,,,,,,,,,,,,,102,2023-04-21_17h41.05.383,FishGame,2022.1.1,59.873857764814396,
,16,넌 똑똑해,2,Orange,B,5.666666666666667,3.966666666666667,ScrollUp,ScrollDown,Orange.png,5,Positive,Incongruent,,,,,0,0,0,0,,,,,,,,,,,,,,,,,,,,,,,,,,,,,0,15,15,15,,,,,,,,,,,,,,,,,,,,,,,,,,,,,,,,,,,,,,,,,,,,,,,,,,,,,,,,,,,,,,,,,1.7006172885497413,0.9796376000158489,584.8295803000219,None,ScrollUp,정답입니다,584.8295803000219,None,584.8295803000219,None,584.8295803000219,None,584.8295803000219,None,585.721612000023,None,585.721612000023,586.2215669000288,,,,,,,,,,,,,,,,102,2023-04-21_17h41.05.383,FishGame,2022.1.1,59.873857764814396,
,17,나를 보내줘,6,Green,A,0,0,ScrollUp,ScrollDown,Green.png,5,NonTarget,NonTarget,,,,,0,0,0,0,,,,,,,,,,,,,,,,,,,,,,,,,,,,,0,16,16,16,,,,,,,,,,,,,,,,,,,,,,,,,,,,,,,,,,,,,,,,,,,,,,,,,,,,,,,,,,,,,,,,,1.7345678955316544,1.0296782000223175,586.8254415999982,None,ScrollUp,정답입니다,586.8254415999982,None,586.8254415999982,None,586.8254415999982,None,586.8254415999982,None,587.7715494000004,None,587.7715494000004,588.2716038000071,,,,,,,,,,,,,,,,102,2023-04-21_17h41.05.383,FishGame,2022.1.1,59.873857764814396,
,18,넌 협조적이야,1,Green,A,5.625,5.666666666666667,ScrollDown,ScrollUp,Green.png,5,Positive,Congruent,,,,,0,0,0,0,,,,,,,,,,,,,,,,,,,,,,,,,,,,,0,17,17,17,,,,,,,,,,,,,,,,,,,,,,,,,,,,,,,,,,,,,,,,,,,,,,,,,,,,,,,,,,,,,,,,,1.2021604826052983,0.8816620000288822,588.8761438000365,None,ScrollDown,정답입니다,588.8761438000365,None,588.8761438000365,None,588.8761438000365,None,588.8761438000365,None,589.6714835999883,None,589.6714835999883,590.1714620999992,,,,,,,,,,,,,,,,102,2023-04-21_17h41.05.383,FishGame,2022.1.1,59.873857764814396,
,19,나를 데려가줘,6,Orange,B,0,0,ScrollDown,ScrollUp,Orange.png,5,NonTarget,NonTarget,,,,,0,0,0,0,,,,,,,,,,,,,,,,,,,,,,,,,,,,,0,18,18,18,,,,,,,,,,,,,,,,,,,,,,,,,,,,,,,,,,,,,,,,,,,,,,,,,,,,,,,,,,,,,,,,,1.2114197413126628,0.8652105999644846,590.7780060000368,None,ScrollDown,정답입니다,590.7780060000368,None,590.7780060000368,None,590.7780060000368,None,590.7780060000368,None,591.5548301000381,None,591.5548301000381,592.0548241999932,,,,,,,,,,,,,,,,102,2023-04-21_17h41.05.383,FishGame,2022.1.1,59.873857764814396,
,20,넌 몰인정해,5,Orange,B,2.541666666666667,2.066666666666667,ScrollUp,ScrollDown,Orange.png,5,Negative,Congruent,,,,,0,0,0,0,,,,,,,,,,,,,,,,,,,,,,,,,,,,,0,19,19,19,,,,,,,,,,,,,,,,,,,,,,,,,,,,,,,,,,,,,,,,,,,,,,,,,,,,,,,,,,,,,,,,,1.4737654315928619,0.895981399982702,592.6727234999998,None,NoResponse,무응답입니다,592.6727234999998,None,592.6727234999998,None,592.6727234999998,None,592.6727234999998,None,593.4694690000033,None,593.4694690000033,593.9713717999985,,,,,,,,,,,,,,,,102,2023-04-21_17h41.05.383,FishGame,2022.1.1,59.873857764814396,
,21,나를 데려가줘,6,Orange,B,0,0,ScrollDown,ScrollUp,Orange.png,5,NonTarget,NonTarget,,,,,0,0,0,0,,,,,,,,,,,,,,,,,,,,,,,,,,,,,0,20,20,20,,,,,,,,,,,,,,,,,,,,,,,,,,,,,,,,,,,,,,,,,,,,,,,,,,,,,,,,,,,,,,,,,1.1527777860562007,0.9131163000129163,594.5778269000002,None,ScrollDown,정답입니다,594.5778269000002,None,594.5778269000002,None,594.5778269000002,None,594.5778269000002,None,595.4028155000415,None,595.4028155000415,595.9047414000379,,,,,,,,,,,,,,,,102,2023-04-21_17h41.05.383,FishGame,2022.1.1,59.873857764814396,
