name,TrialNum,Word,WordCategory,FishType,WordList,WordValence,WordReputation,CorrectResp,IncorrectResp,FishTypeFile,Round,WordType,Condition,LoopforOrange.thisRepN,LoopforOrange.thisTrialN,LoopforOrange.thisN,LoopforOrange.thisIndex,OrangeInstLoop.thisRepN,OrangeInstLoop.thisTrialN,OrangeInstLoop.thisN,OrangeInstLoop.thisIndex,OrangePrac.thisRepN,OrangePrac.thisTrialN,OrangePrac.thisN,OrangePrac.thisIndex,temp1.thisRepN,temp1.thisTrialN,temp1.thisN,temp1.thisIndex,OrangeRound1.thisRepN,OrangeRound1.thisTrialN,OrangeRound1.thisN,OrangeRound1.thisIndex,OrangeRound2.thisRepN,OrangeRound2.thisTrialN,OrangeRound2.thisN,OrangeRound2.thisIndex,OrangeRound3.thisRepN,OrangeRound3.thisTrialN,OrangeRound3.thisN,OrangeRound3.thisIndex,OrangeRound4.thisRepN,OrangeRound4.thisTrialN,OrangeRound4.thisN,OrangeRound4.thisIndex,OrangeRound5.thisRepN,OrangeRound5.thisTrialN,OrangeRound5.thisN,OrangeRound5.thisIndex,LoopForGreen.thisRepN,LoopForGreen.thisTrialN,LoopForGreen.thisN,LoopForGreen.thisIndex,text_2.started,text_2.stopped,text_3.started,text_3.stopped,key_resp.keys,key_resp.rt,key_resp.started,key_resp.stopped,PassI_2.started,PassI_2.stopped,PassInst_2.keys,PassInst_2.rt,PassInst_2.started,PassInst_2.stopped,mouse_2.x,mouse_2.y,mouse_2.leftButton,mouse_2.midButton,mouse_2.rightButton,mouse_2.started,mouse_2.stopped,image.started,image.stopped,text_5.started,text_5.stopped,text_6.started,text_6.stopped,text_7.started,text_7.stopped,text_8.started,text_8.stopped,slider_2.response,slider_2.rt,slider_2.started,slider_2.stopped,Response_2,Feedback_2,BackGround_2.started,BackGround_2.stopped,Fish_2.started,Fish_2.stopped,WordBox_2.started,WordBox_2.stopped,Words_2.started,Words_2.stopped,BackGround_Feedback_2.started,BackGround_Feedback_2.stopped,Feedbacks_2.started,Feedbacks_2.stopped,Continue_or_not.keys,Continue_or_not.rt,Continue_or_not.started,Continue_or_not.stopped,image_3.started,image_3.stopped,mouse_3.x,mouse_3.y,mouse_3.leftButton,mouse_3.midButton,mouse_3.rightButton,mouse_3.started,mouse_3.stopped,startmain.started,startmain.stopped,slider.response,slider.rt,slider.started,slider.stopped,Response,Feedback,BackGround.started,BackGround.stopped,Fish.started,Fish.stopped,WordBox.started,WordBox.stopped,Words.started,Words.stopped,BackGround_Feedback.started,BackGround_Feedback.stopped,Feedbacks.started,Feedbacks.stopped,text.started,text.stopped,break_interval.started,break_interval.stopped,mouse.x,mouse.y,mouse.leftButton,mouse.midButton,mouse.rightButton,mouse.started,mouse.stopped,stratnextround.started,stratnextround.stopped,endgame.started,endgame.stopped,participant,date,expName,psychopyVersion,frameRate,
,,,,,,,,,,,,,,,,,,,,,,,,,,,,,,,,,,,,,,,,,,,,,,,,,,,,,,27.42940910003381,None,27.42940910003381,None,space,0.9290466000093147,27.914914400025737,None,,,,,,,,,,,,,,,,,,,,,,,,,,,,,,,,,,,,,,,,,,,,,,,,,,,,,,,,,,,,,,,,,,,,,,,,,,,,,,,,,,,,,,,,,,103,2023-04-20_14h54.19.557,FishGame,2022.1.1,60.081566733583955,
물고기과제_instruction(참가자용)OrangeVersion.mp4,,,,,,,,,,,,,,0,0,0,0,0,0,0,0,,,,,,,,,,,,,,,,,,,,,,,,,,,,,,,,,,,,,,,,,96.99385740002617,None,n,1.0736796000273898,96.99385740002617,None,,,,,,,,,,,,,,,,,,,,,,,,,,,,,,,,,,,,,,,,,,,,,,,,,,,,,,,,,,,,,,,,,,,,,,,,,,,,,,,,,,,,103,2023-04-20_14h54.19.557,FishGame,2022.1.1,60.081566733583955,
,1,넌 교활해,5,Green,B,2.333333333333333,2.133333333333333,ScrollUp,ScrollDown,Green.png,practice,,,0,0,0,0,,,,,0,0,0,0,0,0,0,0,,,,,,,,,,,,,,,,,,,,,,,,,,,,,,,,,,,,,,,0.016666668,-0.24166666,1,0,0,0.5146238299785182,None,98.093575100007,None,103.19338040001458,104.69371200003661,104.72704030002933,105.67699450004147,105.72700240003178,106.67697600001702,106.67697600001702,None,1.7716049303611119,1.0975239999825135,107.94628500001272,None,ScrollUp,정답입니다,107.94628500001272,None,107.94628500001272,None,107.94628500001272,None,107.94628500001272,None,108.76013910002075,None,108.76013910002075,109.26333310001064,,,,,,,,,,,,,,,,,,,,,,,,,,,,,,,,,,,,,,,,,,,,,,,,,103,2023-04-20_14h54.19.557,FishGame,2022.1.1,60.081566733583955,
,2,넌 슬기로워,2,Orange,A,6.166666666666667,4.1,ScrollDown,ScrollUp,Orange.png,practice,,,0,0,0,0,,,,,0,0,0,0,0,1,1,1,,,,,,,,,,,,,,,,,,,,,,,,,,,,,,,,,,,,,,,,,,,,,,,,,,,,,,,,1.1851851791143417,0.7480562999844551,109.86818500002846,None,ScrollDown,정답입니다,109.86818500002846,None,109.86818500002846,None,109.86818500002846,None,109.86818500002846,None,110.52467220003018,None,110.52467220003018,111.02663060004124,,,,,,,,,,,,,,,,,,,,,,,,,,,,,,,,,,,,,,,,,,,,,,,,,103,2023-04-20_14h54.19.557,FishGame,2022.1.1,60.081566733583955,
,3,나를 보내줘,6,Orange,A,0,0,ScrollUp,ScrollDown,Orange.png,practice,,,0,0,0,0,,,,,0,0,0,0,0,2,2,2,,,,,,,,,,,,,,,,,,,,,,,,,,,,,,,,,,,,,,,,,,,,,,,,,,,,,,,,1.7947530895471573,0.8833640000084415,111.63644209998893,None,ScrollUp,정답입니다,111.63644209998893,None,111.63644209998893,None,111.63644209998893,None,111.63644209998893,None,112.42673659999855,None,112.42673659999855,112.9266748999944,,,,,,,,,,,,,,,,,,,,,,,,,,,,,,,,,,,,,,,,,,,,,,,,,103,2023-04-20_14h54.19.557,FishGame,2022.1.1,60.081566733583955,
,4,나를 데려가줘,6,Green,B,0,0,ScrollDown,ScrollUp,Green.png,practice,,,0,0,0,0,,,,,0,0,0,0,0,3,3,3,,,,,,,,,,,,,,,,,,,,,,,,,,,,,,,,,,,,,,,,,,,,,,,,,,,,,,,,1.1851851791143417,0.8560496999998577,113.5332096000202,None,ScrollDown,정답입니다,113.5332096000202,None,113.5332096000202,None,113.5332096000202,None,113.5332096000202,None,114.30330550001236,None,114.30330550001236,114.80991529999301,,,,,,,,,,,,,,,,,,,,,,,,,,,,,,,,,,,,,,,,,,,,,,,,,103,2023-04-20_14h54.19.557,FishGame,2022.1.1,60.081566733583955,
,1,넌 교활해,5,Green,B,2.333333333333333,2.133333333333333,ScrollUp,ScrollDown,Green.png,practice,,,0,0,0,0,,,,,0,0,0,0,,,,,,,,,,,,,,,,,,,,,,,,,,,,,,,,,,,,,,,,,,,,,,,,,,,,,,,,,,,,,,,,,,,,,,,,,,,,,,n,2.3092651000479236,115.30990180000663,None,115.30990180000663,None,,,,,,,,,,,,,,,,,,,,,,,,,,,,,,,,,,,,,,,,,,,103,2023-04-20_14h54.19.557,FishGame,2022.1.1,60.081566733583955,
,1,넌 따뜻해,1,Green,B,6.083333333333333,5.6,ScrollUp,ScrollDown,Green.png,1,Positive,Incongruent,0,0,0,0,,,,,,,,,,,,,0,0,0,0,,,,,,,,,,,,,,,,,,,,,,,,,,,,,,,,,,,,,,,,,,,,120.22440830001142,121.72966960002668,121.76328030001605,122.72443880001083,122.75998430000618,123.7298107999959,123.71298340003705,None,,,,,,,,,,,,,,,,,,,,,,,,,-0.0055555557,-0.14351852,1,0,0,0.31497572996886447,None,117.64311870001256,None,1.8611111144224803,1.0137905000010505,125.00427710002987,None,ScrollUp,정답입니다,125.00427710002987,None,125.00427710002987,None,125.00427710002987,None,125.00427710002987,None,125.72642080002697,None,125.72642080002697,126.22647009999491,,,,,,,,,,,,,,,,103,2023-04-20_14h54.19.557,FishGame,2022.1.1,60.081566733583955,
,2,넌 기품있어,2,Green,B,5.791666666666668,4.5,ScrollUp,ScrollDown,Green.png,1,Positive,Incongruent,0,0,0,0,,,,,,,,,,,,,0,1,1,1,,,,,,,,,,,,,,,,,,,,,,,,,,,,,,,,,,,,,,,,,,,,,,,,,,,,,,,,,,,,,,,,,,,,,,,,,,,,,,,,,,,,,1.8225308656692505,0.6978032000479288,126.8400981000159,None,ScrollUp,정답입니다,126.8400981000159,None,126.8400981000159,None,126.8400981000159,None,126.8400981000159,None,127.44305820000591,None,127.44305820000591,127.94295799999963,,,,,,,,,,,,,,,,103,2023-04-20_14h54.19.557,FishGame,2022.1.1,60.081566733583955,
,3,나를 보내줘,6,Orange,A,0,0,ScrollUp,ScrollDown,Orange.png,1,NonTarget,NonTarget,0,0,0,0,,,,,,,,,,,,,0,2,2,2,,,,,,,,,,,,,,,,,,,,,,,,,,,,,,,,,,,,,,,,,,,,,,,,,,,,,,,,,,,,,,,,,,,,,,,,,,,,,,,,,,,,,1.6728395000100136,0.8317771999863908,128.55733020004118,None,ScrollUp,정답입니다,128.55733020004118,None,128.55733020004118,None,128.55733020004118,None,128.55733020004118,None,129.2929646000266,None,129.2929646000266,129.79299270000774,,,,,,,,,,,,,,,,103,2023-04-20_14h54.19.557,FishGame,2022.1.1,60.081566733583955,
,4,넌 수동적이야,4,Orange,A,2.833333333333333,2.933333333333333,ScrollDown,ScrollUp,Orange.png,1,Negative,Incongruent,0,0,0,0,,,,,,,,,,,,,0,3,3,3,,,,,,,,,,,,,,,,,,,,,,,,,,,,,,,,,,,,,,,,,,,,,,,,,,,,,,,,,,,,,,,,,,,,,,,,,,,,,,,,,,,,,1.1635802586873372,0.8595230000209995,130.4174106999999,None,ScrollDown,정답입니다,130.4174106999999,None,130.4174106999999,None,130.4174106999999,None,130.4174106999999,None,131.15730710001662,None,131.15730710001662,131.65730210003676,,,,,,,,,,,,,,,,103,2023-04-20_14h54.19.557,FishGame,2022.1.1,60.081566733583955,
,5,넌 사심이 없어,3,Green,B,4.916666666666666,4.333333333333333,ScrollUp,ScrollDown,Green.png,1,Neutral,Neutral,0,0,0,0,,,,,,,,,,,,,0,4,4,4,,,,,,,,,,,,,,,,,,,,,,,,,,,,,,,,,,,,,,,,,,,,,,,,,,,,,,,,,,,,,,,,,,,,,,,,,,,,,,,,,,,,,1.7283950646718345,0.7487087000044994,132.26765390002402,None,ScrollUp,정답입니다,132.26765390002402,None,132.26765390002402,None,132.26765390002402,None,132.26765390002402,None,132.92393670004094,None,132.92393670004094,133.42401630000677,,,,,,,,,,,,,,,,103,2023-04-20_14h54.19.557,FishGame,2022.1.1,60.081566733583955,
,6,넌 헤퍼,5,Orange,A,2.458333333333334,2.233333333333333,ScrollDown,ScrollUp,Orange.png,1,Negative,Incongruent,0,0,0,0,,,,,,,,,,,,,0,5,5,5,,,,,,,,,,,,,,,,,,,,,,,,,,,,,,,,,,,,,,,,,,,,,,,,,,,,,,,,,,,,,,,,,,,,,,,,,,,,,,,,,,,,,1.1882716069618862,0.7503272999892943,134.0383474000264,None,ScrollDown,정답입니다,134.0383474000264,None,134.0383474000264,None,134.0383474000264,None,134.0383474000264,None,134.6931101999944,None,134.6931101999944,135.19308390002698,,,,,,,,,,,,,,,,103,2023-04-20_14h54.19.557,FishGame,2022.1.1,60.081566733583955,
,7,넌 말쑥해,3,Orange,A,4.833333333333334,4.333333333333333,ScrollDown,ScrollUp,Orange.png,1,Neutral,Neutral,0,0,0,0,,,,,,,,,,,,,0,6,6,6,,,,,,,,,,,,,,,,,,,,,,,,,,,,,,,,,,,,,,,,,,,,,,,,,,,,,,,,,,,,,,,,,,,,,,,,,,,,,,,,,,,,,1.0586419602235158,0.745718099991791,135.80499810003676,None,ScrollDown,정답입니다,135.80499810003676,None,135.80499810003676,None,135.80499810003676,None,135.80499810003676,None,136.45721800002502,None,136.45721800002502,136.9572138999938,,,,,,,,,,,,,,,,103,2023-04-20_14h54.19.557,FishGame,2022.1.1,60.081566733583955,
,8,넌 투덜거려,5,Green,B,2.541666666666667,2.266666666666667,ScrollUp,ScrollDown,Green.png,1,Negative,Congruent,0,0,0,0,,,,,,,,,,,,,0,7,7,7,,,,,,,,,,,,,,,,,,,,,,,,,,,,,,,,,,,,,,,,,,,,,,,,,,,,,,,,,,,,,,,,,,,,,,,,,,,,,,,,,,,,,1.6805555572112403,0.7665820000111125,137.56717120000394,None,ScrollUp,정답입니다,137.56717120000394,None,137.56717120000394,None,137.56717120000394,None,137.56717120000394,None,138.24062390002655,None,138.24062390002655,138.7405427999911,,,,,,,,,,,,,,,,103,2023-04-20_14h54.19.557,FishGame,2022.1.1,60.081566733583955,
,9,넌 적극적이야,1,Orange,A,5.708333333333333,5.533333333333333,ScrollDown,ScrollUp,Orange.png,1,Positive,Congruent,0,0,0,0,,,,,,,,,,,,,0,8,8,8,,,,,,,,,,,,,,,,,,,,,,,,,,,,,,,,,,,,,,,,,,,,,,,,,,,,,,,,,,,,,,,,,,,,,,,,,,,,,,,,,,,,,1.2314814726511638,0.7001153000164777,139.35382730001584,None,ScrollDown,정답입니다,139.35382730001584,None,139.35382730001584,None,139.35382730001584,None,139.35382730001584,None,139.95969490002608,None,139.95969490002608,140.45956889999798,,,,,,,,,,,,,,,,103,2023-04-20_14h54.19.557,FishGame,2022.1.1,60.081566733583955,
,10,넌 재미없어,4,Green,B,2.625,2.966666666666667,ScrollUp,ScrollDown,Green.png,1,Negative,Congruent,0,0,0,0,,,,,,,,,,,,,0,9,9,9,,,,,,,,,,,,,,,,,,,,,,,,,,,,,,,,,,,,,,,,,,,,,,,,,,,,,,,,,,,,,,,,,,,,,,,,,,,,,,,,,,,,,1.8888888905445735,0.7109759000013582,141.07935980003094,None,ScrollUp,정답입니다,141.07935980003094,None,141.07935980003094,None,141.07935980003094,None,141.07935980003094,None,141.6927462000167,None,141.6927462000167,142.19274379999842,,,,,,,,,,,,,,,,103,2023-04-20_14h54.19.557,FishGame,2022.1.1,60.081566733583955,
,11,넌 명석해,2,Orange,A,5.875,4.033333333333333,ScrollDown,ScrollUp,Orange.png,1,Positive,Congruent,0,0,0,0,,,,,,,,,,,,,0,10,10,10,,,,,,,,,,,,,,,,,,,,,,,,,,,,,,,,,,,,,,,,,,,,,,,,,,,,,,,,,,,,,,,,,,,,,,,,,,,,,,,,,,,,,1.1342592686414719,0.7646683999919333,142.8039209000417,None,ScrollDown,정답입니다,142.8039209000417,None,142.8039209000417,None,142.8039209000417,None,142.8039209000417,None,143.47610670002177,None,143.47610670002177,143.97605580004165,,,,,,,,,,,,,,,,103,2023-04-20_14h54.19.557,FishGame,2022.1.1,60.081566733583955,
,12,나를 데려가줘,6,Green,B,0,0,ScrollDown,ScrollUp,Green.png,1,NonTarget,NonTarget,0,0,0,0,,,,,,,,,,,,,0,11,11,11,,,,,,,,,,,,,,,,,,,,,,,,,,,,,,,,,,,,,,,,,,,,,,,,,,,,,,,,,,,,,,,,,,,,,,,,,,,,,,,,,,,,,1.0725308855374653,0.9793557000230066,144.58772690000478,None,ScrollDown,정답입니다,144.58772690000478,None,144.58772690000478,None,144.58772690000478,None,144.58772690000478,None,145.4759586,None,145.4759586,145.97593730001245,,,,,,,,,,,,,,,,103,2023-04-20_14h54.19.557,FishGame,2022.1.1,60.081566733583955,
,13,넌 소심해,4,Orange,A,3,3.1,ScrollDown,ScrollUp,Orange.png,1,Negative,Incongruent,0,0,0,0,,,,,,,,,,,,,0,12,12,12,,,,,,,,,,,,,,,,,,,,,,,,,,,,,,,,,,,,,,,,,,,,,,,,,,,,,,,,,,,,,,,,,,,,,,,,,,,,,,,,,,,,,1.1033950646718342,0.8315777000389062,146.58594280004036,None,ScrollDown,정답입니다,146.58594280004036,None,146.58594280004036,None,146.58594280004036,None,146.58594280004036,None,147.32597830001032,None,147.32597830001032,147.82594539999263,,,,,,,,,,,,,,,,103,2023-04-20_14h54.19.557,FishGame,2022.1.1,60.081566733583955,
,14,넌 합리적이야,2,Orange,A,5.583333333333333,4.733333333333333,ScrollDown,ScrollUp,Orange.png,1,Positive,Congruent,0,0,0,0,,,,,,,,,,,,,0,13,13,13,,,,,,,,,,,,,,,,,,,,,,,,,,,,,,,,,,,,,,,,,,,,,,,,,,,,,,,,,,,,,,,,,,,,,,,,,,,,,,,,,,,,,1.1651234477758408,0.7481241000350565,148.43799659999786,None,ScrollDown,정답입니다,148.43799659999786,None,148.43799659999786,None,148.43799659999786,None,148.43799659999786,None,149.09266610001214,None,149.09266610001214,149.5958837000071,,,,,,,,,,,,,,,,103,2023-04-20_14h54.19.557,FishGame,2022.1.1,60.081566733583955,
,15,넌 무자비해,5,Green,B,2.333333333333333,2.1,ScrollUp,ScrollDown,Green.png,1,Negative,Congruent,0,0,0,0,,,,,,,,,,,,,0,14,14,14,,,,,,,,,,,,,,,,,,,,,,,,,,,,,,,,,,,,,,,,,,,,,,,,,,,,,,,,,,,,,,,,,,,,,,,,,,,,,,,,,,,,,1.8950617214043934,0.7979755999986082,150.20292790001258,None,ScrollUp,정답입니다,150.20292790001258,None,150.20292790001258,None,150.20292790001258,None,150.20292790001258,None,150.90713469998445,None,150.90713469998445,151.4091506000259,,,,,,,,,,,,,,,,103,2023-04-20_14h54.19.557,FishGame,2022.1.1,60.081566733583955,
,16,나를 보내줘,6,Orange,A,0,0,ScrollUp,ScrollDown,Orange.png,1,NonTarget,NonTarget,0,0,0,0,,,,,,,,,,,,,0,15,15,15,,,,,,,,,,,,,,,,,,,,,,,,,,,,,,,,,,,,,,,,,,,,,,,,,,,,,,,,,,,,,,,,,,,,,,,,,,,,,,,,,,,,,1.8533950696388881,0.9333279000129551,152.01773950003553,None,ScrollUp,정답입니다,152.01773950003553,None,152.01773950003553,None,152.01773950003553,None,152.01773950003553,None,152.85919719998492,None,152.85919719998492,153.35921439999947,,,,,,,,,,,,,,,,103,2023-04-20_14h54.19.557,FishGame,2022.1.1,60.081566733583955,
,17,넌 현실적이야,3,Green,B,4.608695652173913,4.766666666666667,ScrollUp,ScrollDown,Green.png,1,Neutral,Neutral,0,0,0,0,,,,,,,,,,,,,0,16,16,16,,,,,,,,,,,,,,,,,,,,,,,,,,,,,,,,,,,,,,,,,,,,,,,,,,,,,,,,,,,,,,,,,,,,,,,,,,,,,,,,,,,,,1.8425925970077515,0.7476553999586031,153.96874809998553,None,ScrollUp,정답입니다,153.96874809998553,None,153.96874809998553,None,153.96874809998553,None,153.96874809998553,None,154.62349720002385,None,154.62349720002385,155.1236264000181,,,,,,,,,,,,,,,,103,2023-04-20_14h54.19.557,FishGame,2022.1.1,60.081566733583955,
,18,넌 의리있어,1,Green,B,5.833333333333334,5.633333333333334,ScrollUp,ScrollDown,Green.png,1,Positive,Incongruent,0,0,0,0,,,,,,,,,,,,,0,17,17,17,,,,,,,,,,,,,,,,,,,,,,,,,,,,,,,,,,,,,,,,,,,,,,,,,,,,,,,,,,,,,,,,,,,,,,,,,,,,,,,,,,,,,1.6820987711350122,0.6456907999818213,155.7342037000344,None,ScrollUp,정답입니다,155.7342037000344,None,155.7342037000344,None,155.7342037000344,None,155.7342037000344,None,156.29019410000183,None,156.29019410000183,156.79025250003906,,,,,,,,,,,,,,,,103,2023-04-20_14h54.19.557,FishGame,2022.1.1,60.081566733583955,
,19,넌 신경과민이야,5,Orange,A,2.541666666666667,2.166666666666667,ScrollDown,ScrollUp,Orange.png,1,Negative,Incongruent,0,0,0,0,,,,,,,,,,,,,0,18,18,18,,,,,,,,,,,,,,,,,,,,,,,,,,,,,,,,,,,,,,,,,,,,,,,,,,,,,,,,,,,,,,,,,,,,,,,,,,,,,,,,,,,,,1,0.8667820999980904,157.40696120000212,None,ScrollDown,정답입니다,157.40696120000212,None,157.40696120000212,None,157.40696120000212,None,157.40696120000212,None,158.17585669999244,None,158.17585669999244,158.67587060004007,,,,,,,,,,,,,,,,103,2023-04-20_14h54.19.557,FishGame,2022.1.1,60.081566733583955,
,20,넌 편안해,1,Orange,A,5.916666666666666,5.866666666666666,ScrollDown,ScrollUp,Orange.png,1,Positive,Congruent,0,0,0,0,,,,,,,,,,,,,0,19,19,19,,,,,,,,,,,,,,,,,,,,,,,,,,,,,,,,,,,,,,,,,,,,,,,,,,,,,,,,,,,,,,,,,,,,,,,,,,,,,,,,,,,,,1.174382706483205,0.7501040000352077,159.3034864999936,None,ScrollDown,정답입니다,159.3034864999936,None,159.3034864999936,None,159.3034864999936,None,159.3034864999936,None,159.95902350003598,None,159.95902350003598,160.45904039999004,,,,,,,,,,,,,,,,103,2023-04-20_14h54.19.557,FishGame,2022.1.1,60.081566733583955,
,21,넌 품위있어,2,Green,B,5.291666666666666,4.466666666666667,ScrollUp,ScrollDown,Green.png,1,Positive,Incongruent,0,0,0,0,,,,,,,,,,,,,0,20,20,20,,,,,,,,,,,,,,,,,,,,,,,,,,,,,,,,,,,,,,,,,,,,,,,,,,,,,,,,,,,,,,,,,,,,,,,,,,,,,,,,,,,,,1.9521604875723522,0.7925998999853618,161.07762970001204,None,ScrollUp,정답입니다,161.07762970001204,None,161.07762970001204,None,161.07762970001204,None,161.07762970001204,None,161.77334270003485,None,161.77334270003485,162.2733353000367,,,,,,,,,,,,,,,,103,2023-04-20_14h54.19.557,FishGame,2022.1.1,60.081566733583955,
,22,넌 빈틈없어,3,Orange,A,4.833333333333333,3.966666666666667,ScrollDown,ScrollUp,Orange.png,1,Neutral,Neutral,0,0,0,0,,,,,,,,,,,,,0,21,21,21,,,,,,,,,,,,,,,,,,,,,,,,,,,,,,,,,,,,,,,,,,,,,,,,,,,,,,,,,,,,,,,,,,,,,,,,,,,,,,,,,,,,,1.1898148208856583,0.6979109999956563,162.88274870003806,None,ScrollDown,정답입니다,162.88274870003806,None,162.88274870003806,None,162.88274870003806,None,162.88274870003806,None,163.49002989998553,None,163.49002989998553,163.9924359000288,,,,,,,,,,,,,,,,103,2023-04-20_14h54.19.557,FishGame,2022.1.1,60.081566733583955,
,23,넌 상상력없어,4,Green,B,2.833333333333333,3.133333333333333,ScrollUp,ScrollDown,Green.png,1,Negative,Congruent,0,0,0,0,,,,,,,,,,,,,0,22,22,22,,,,,,,,,,,,,,,,,,,,,,,,,,,,,,,,,,,,,,,,,,,,,,,,,,,,,,,,,,,,,,,,,,,,,,,,,,,,,,,,,,,,,1.859567900498708,0.7000863999710418,164.60262190003414,None,ScrollUp,정답입니다,164.60262190003414,None,164.60262190003414,None,164.60262190003414,None,164.60262190003414,None,165.20932319998974,None,165.20932319998974,165.7090597000206,,,,,,,,,,,,,,,,103,2023-04-20_14h54.19.557,FishGame,2022.1.1,60.081566733583955,
,24,넌 지혜로워,2,Green,B,6.333333333333334,4.633333333333334,ScrollUp,ScrollDown,Green.png,1,Positive,Incongruent,0,0,0,0,,,,,,,,,,,,,0,23,23,23,,,,,,,,,,,,,,,,,,,,,,,,,,,,,,,,,,,,,,,,,,,,,,,,,,,,,,,,,,,,,,,,,,,,,,,,,,,,,,,,,,,,,2,0.8276998999645002,166.3297084000078,None,ScrollUp,정답입니다,166.3297084000078,None,166.3297084000078,None,166.3297084000078,None,166.3297084000078,None,167.05656980001368,None,167.05656980001368,167.55660419998458,,,,,,,,,,,,,,,,103,2023-04-20_14h54.19.557,FishGame,2022.1.1,60.081566733583955,
,25,넌 시끄러워,4,Orange,A,2.833333333333333,3.033333333333333,ScrollDown,ScrollUp,Orange.png,1,Negative,Incongruent,0,0,0,0,,,,,,,,,,,,,0,24,24,24,,,,,,,,,,,,,,,,,,,,,,,,,,,,,,,,,,,,,,,,,,,,,,,,,,,,,,,,,,,,,,,,,,,,,,,,,,,,,,,,,,,,,1.0833333333333333,0.7479176000342704,168.17235110001639,None,ScrollDown,정답입니다,168.17235110001639,None,168.17235110001639,None,168.17235110001639,None,168.17235110001639,None,168.82326309999917,None,168.82326309999917,169.3256529000355,,,,,,,,,,,,,,,,103,2023-04-20_14h54.19.557,FishGame,2022.1.1,60.081566733583955,
,26,넌 만사태평이야,3,Green,B,4,4.333333333333333,ScrollUp,ScrollDown,Green.png,1,Neutral,Neutral,0,0,0,0,,,,,,,,,,,,,0,25,25,25,,,,,,,,,,,,,,,,,,,,,,,,,,,,,,,,,,,,,,,,,,,,,,,,,,,,,,,,,,,,,,,,,,,,,,,,,,,,,,,,,,,,,1.9243827362855275,0.683223000029102,169.93699280003784,None,ScrollUp,정답입니다,169.93699280003784,None,169.93699280003784,None,169.93699280003784,None,169.93699280003784,None,170.52570880000712,None,170.52570880000712,171.0256636000122,,,,,,,,,,,,,,,,103,2023-04-20_14h54.19.557,FishGame,2022.1.1,60.081566733583955,
,27,넌 붙임성있어,1,Orange,A,5.708333333333333,5.633333333333334,ScrollDown,ScrollUp,Orange.png,1,Positive,Congruent,0,0,0,0,,,,,,,,,,,,,0,26,26,26,,,,,,,,,,,,,,,,,,,,,,,,,,,,,,,,,,,,,,,,,,,,,,,,,,,,,,,,,,,,,,,,,,,,,,,,,,,,,,,,,,,,,1.0817901194095612,0.7498153999913484,171.64677640004084,None,ScrollDown,정답입니다,171.64677640004084,None,171.64677640004084,None,171.64677640004084,None,171.64677640004084,None,172.29221570002846,None,172.29221570002846,172.79209669999545,,,,,,,,,,,,,,,,103,2023-04-20_14h54.19.557,FishGame,2022.1.1,60.081566733583955,
,28,넌 영리해,2,Orange,A,6,4.033333333333333,ScrollDown,ScrollUp,Orange.png,1,Positive,Congruent,0,0,0,0,,,,,,,,,,,,,0,27,27,27,,,,,,,,,,,,,,,,,,,,,,,,,,,,,,,,,,,,,,,,,,,,,,,,,,,,,,,,,,,,,,,,,,,,,,,,,,,,,,,,,,,,,1.0570987462997437,0.7500205999822356,173.4024713000399,None,ScrollDown,정답입니다,173.4024713000399,None,173.4024713000399,None,173.4024713000399,None,173.4024713000399,None,174.05885750002926,None,174.05885750002926,174.5588023000164,,,,,,,,,,,,,,,,103,2023-04-20_14h54.19.557,FishGame,2022.1.1,60.081566733583955,
,29,넌 열심이야,1,Green,B,6.041666666666667,5.833333333333333,ScrollUp,ScrollDown,Green.png,1,Positive,Incongruent,0,0,0,0,,,,,,,,,,,,,0,28,28,28,,,,,,,,,,,,,,,,,,,,,,,,,,,,,,,,,,,,,,,,,,,,,,,,,,,,,,,,,,,,,,,,,,,,,,,,,,,,,,,,,,,,,1.9583333432674408,0.7426713000168093,175.1758146000211,None,ScrollUp,정답입니다,175.1758146000211,None,175.1758146000211,None,175.1758146000211,None,175.1758146000211,None,175.8230602000258,None,175.8230602000258,176.3230361000169,,,,,,,,,,,,,,,,103,2023-04-20_14h54.19.557,FishGame,2022.1.1,60.081566733583955,
,30,넌 인기없어,4,Green,B,3,3.3,ScrollUp,ScrollDown,Green.png,1,Negative,Congruent,0,0,0,0,,,,,,,,,,,,,0,29,29,29,,,,,,,,,,,,,,,,,,,,,,,,,,,,,,,,,,,,,,,,,,,,,,,,,,,,,,,,,,,,,,,,,,,,,,,,,,,,,,,,,,,,,1.8966049353281658,0.6809448000276461,176.93235270003788,None,ScrollUp,정답입니다,176.93235270003788,None,176.93235270003788,None,176.93235270003788,None,176.93235270003788,None,177.5231177000096,None,177.5231177000096,178.02543999999762,,,,,,,,,,,,,,,,103,2023-04-20_14h54.19.557,FishGame,2022.1.1,60.081566733583955,
,31,넌 익살스러워,3,Orange,A,4.708333333333334,4.833333333333333,ScrollDown,ScrollUp,Orange.png,1,Neutral,Neutral,0,0,0,0,,,,,,,,,,,,,0,30,30,30,,,,,,,,,,,,,,,,,,,,,,,,,,,,,,,,,,,,,,,,,,,,,,,,,,,,,,,,,,,,,,,,,,,,,,,,,,,,,,,,,,,,,1.0077160497506459,0.748168500023894,178.63914879999356,None,ScrollDown,정답입니다,178.63914879999356,None,178.63914879999356,None,178.63914879999356,None,178.63914879999356,None,179.2923072000267,None,179.2923072000267,179.79207339999266,,,,,,,,,,,,,,,,103,2023-04-20_14h54.19.557,FishGame,2022.1.1,60.081566733583955,
,32,넌 이기적이야,5,Green,B,2.291666666666667,2.333333333333333,ScrollUp,ScrollDown,Green.png,1,Negative,Congruent,0,0,0,0,,,,,,,,,,,,,0,31,31,31,,,,,,,,,,,,,,,,,,,,,,,,,,,,,,,,,,,,,,,,,,,,,,,,,,,,,,,,,,,,,,,,,,,,,,,,,,,,,,,,,,,,,2,0.799925200000871,180.39751819998492,None,ScrollUp,정답입니다,180.39751819998492,None,180.39751819998492,None,180.39751819998492,None,180.39751819998492,None,181.10868509998545,None,181.10868509998545,181.60860490001505,,,,,,,,,,,,,,,,103,2023-04-20_14h54.19.557,FishGame,2022.1.1,60.081566733583955,
,33,나를 데려가줘,6,Green,B,0,0,ScrollDown,ScrollUp,Green.png,1,NonTarget,NonTarget,0,0,0,0,,,,,,,,,,,,,0,32,32,32,,,,,,,,,,,,,,,,,,,,,,,,,,,,,,,,,,,,,,,,,,,,,,,,,,,,,,,,,,,,,,,,,,,,,,,,,,,,,,,,,,,,,1.1095678955316544,0.9460550000076182,182.2148412000388,None,ScrollDown,정답입니다,182.2148412000388,None,182.2148412000388,None,182.2148412000388,None,182.2148412000388,None,183.0752278,None,183.0752278,183.57519110001158,,,,,,,,,,,,,,,,103,2023-04-20_14h54.19.557,FishGame,2022.1.1,60.081566733583955,
,34,넌 기회주의자야,5,Orange,A,2.875,2.133333333333333,ScrollDown,ScrollUp,Orange.png,1,Negative,Incongruent,0,0,0,0,,,,,,,,,,,,,0,33,33,33,,,,,,,,,,,,,,,,,,,,,,,,,,,,,,,,,,,,,,,,,,,,,,,,,,,,,,,,,,,,,,,,,,,,,,,,,,,,,,,,,,,,,1.0231481393178303,0.7652625000337139,184.1871928999899,None,ScrollDown,정답입니다,184.1871928999899,None,184.1871928999899,None,184.1871928999899,None,184.1871928999899,None,184.858681600017,None,184.858681600017,185.358533599996,,,,,,,,,,,,,,,,103,2023-04-20_14h54.19.557,FishGame,2022.1.1,60.081566733583955,
,1,넌 미성숙해,4,Orange,A,3,3.2,ScrollDown,ScrollUp,Orange.png,2,Negative,Incongruent,0,0,0,0,,,,,,,,,,,,,,,,,0,0,0,0,,,,,,,,,,,,,,,,,,,,,,,,,,,,,,,,,,,,,,,,217.5578281999915,219.05802100000437,219.09131610003533,220.04135590000078,220.09130770002957,221.0413199000177,221.0413199000177,None,,,,,,,,,,,,,,,,,,,,,,,,,,,,,,,,,,1.0478395124276478,0.8067863999749534,222.13118110003415,None,ScrollDown,정답입니다,222.13118110003415,None,222.13118110003415,None,222.13118110003415,None,222.13118110003415,None,222.83879830001388,None,222.83879830001388,223.3387693000259,185.8585437000147,None,185.8585437000147,None,0.17685185,-0.11296296,1,0,0,0.01615103002404794,None,215.85782189999009,None,,,103,2023-04-20_14h54.19.557,FishGame,2022.1.1,60.081566733583955,
,2,넌 반사회적이야,5,Green,B,2.416666666666667,2.033333333333333,ScrollUp,ScrollDown,Green.png,2,Negative,Congruent,0,0,0,0,,,,,,,,,,,,,,,,,0,1,1,1,,,,,,,,,,,,,,,,,,,,,,,,,,,,,,,,,,,,,,,,,,,,,,,,,,,,,,,,,,,,,,,,,,,,,,,,,,,,,,,,,1.7608024577299755,0.6481993999914266,223.94559750001645,None,ScrollUp,정답입니다,223.94559750001645,None,223.94559750001645,None,223.94559750001645,None,223.94559750001645,None,224.50546419998864,None,224.50546419998864,225.0079551000381,,,,,,,,,,,,,,,,103,2023-04-20_14h54.19.557,FishGame,2022.1.1,60.081566733583955,
,3,넌 유능해,2,Orange,A,6.208333333333333,4.433333333333334,ScrollDown,ScrollUp,Orange.png,2,Positive,Congruent,0,0,0,0,,,,,,,,,,,,,,,,,0,2,2,2,,,,,,,,,,,,,,,,,,,,,,,,,,,,,,,,,,,,,,,,,,,,,,,,,,,,,,,,,,,,,,,,,,,,,,,,,,,,,,,,,1.0987654229005177,0.7002292000106536,225.61961170000723,None,ScrollDown,정답입니다,225.61961170000723,None,225.61961170000723,None,225.61961170000723,None,225.61961170000723,None,226.22461909998674,None,226.22461909998674,226.72450880001998,,,,,,,,,,,,,,,,103,2023-04-20_14h54.19.557,FishGame,2022.1.1,60.081566733583955,
,4,넌 능숙해,2,Green,B,5.666666666666667,4.733333333333333,ScrollUp,ScrollDown,Green.png,2,Positive,Incongruent,0,0,0,0,,,,,,,,,,,,,,,,,0,3,3,3,,,,,,,,,,,,,,,,,,,,,,,,,,,,,,,,,,,,,,,,,,,,,,,,,,,,,,,,,,,,,,,,,,,,,,,,,,,,,,,,,1.629629634320736,0.6607865000260063,227.34531490004156,None,ScrollUp,정답입니다,227.34531490004156,None,227.34531490004156,None,227.34531490004156,None,227.34531490004156,None,227.9053496000124,None,227.9053496000124,228.40531890001148,,,,,,,,,,,,,,,,103,2023-04-20_14h54.19.557,FishGame,2022.1.1,60.081566733583955,
,5,넌 진부해,4,Green,B,2.458333333333333,3.166666666666667,ScrollUp,ScrollDown,Green.png,2,Negative,Congruent,0,0,0,0,,,,,,,,,,,,,,,,,0,4,4,4,,,,,,,,,,,,,,,,,,,,,,,,,,,,,,,,,,,,,,,,,,,,,,,,,,,,,,,,,,,,,,,,,,,,,,,,,,,,,,,,,1.873456800977389,0.7000508999917656,229.01255450001918,None,ScrollUp,정답입니다,229.01255450001918,None,229.01255450001918,None,229.01255450001918,None,229.01255450001918,None,229.62203880003653,None,229.62203880003653,230.12222990003647,,,,,,,,,,,,,,,,103,2023-04-20_14h54.19.557,FishGame,2022.1.1,60.081566733583955,
,6,나를 보내줘,6,Orange,A,0,0,ScrollUp,ScrollDown,Orange.png,2,NonTarget,NonTarget,0,0,0,0,,,,,,,,,,,,,,,,,0,5,5,5,,,,,,,,,,,,,,,,,,,,,,,,,,,,,,,,,,,,,,,,,,,,,,,,,,,,,,,,,,,,,,,,,,,,,,,,,,,,,,,,,1.7716049303611119,0.849524500023108,230.73236630001338,None,ScrollUp,정답입니다,230.73236630001338,None,230.73236630001338,None,230.73236630001338,None,230.73236630001338,None,231.49108440004056,None,231.49108440004056,231.99108170002,,,,,,,,,,,,,,,,103,2023-04-20_14h54.19.557,FishGame,2022.1.1,60.081566733583955,
,7,넌 엄격해,3,Orange,A,4.166666666666666,4.1,ScrollDown,ScrollUp,Orange.png,2,Neutral,Neutral,0,0,0,0,,,,,,,,,,,,,,,,,0,6,6,6,,,,,,,,,,,,,,,,,,,,,,,,,,,,,,,,,,,,,,,,,,,,,,,,,,,,,,,,,,,,,,,,,,,,,,,,,,,,,,,,,1.2114197413126628,0.6499252000357956,232.60232750000432,None,ScrollDown,정답입니다,232.60232750000432,None,232.60232750000432,None,232.60232750000432,None,232.60232750000432,None,233.15767260000575,None,233.15767260000575,233.65755420003552,,,,,,,,,,,,,,,,103,2023-04-20_14h54.19.557,FishGame,2022.1.1,60.081566733583955,
,8,나를 보내줘,6,Orange,A,0,0,ScrollUp,ScrollDown,Orange.png,2,NonTarget,NonTarget,0,0,0,0,,,,,,,,,,,,,,,,,0,7,7,7,,,,,,,,,,,,,,,,,,,,,,,,,,,,,,,,,,,,,,,,,,,,,,,,,,,,,,,,,,,,,,,,,,,,,,,,,,,,,,,,,1.8858024626970291,0.8433583000442013,234.2756853000028,None,ScrollUp,정답입니다,234.2756853000028,None,234.2756853000028,None,234.2756853000028,None,234.2756853000028,None,235.02186949999304,None,235.02186949999304,235.52190769999288,,,,,,,,,,,,,,,,103,2023-04-20_14h54.19.557,FishGame,2022.1.1,60.081566733583955,
,9,넌 대담해,3,Green,B,4.875,4.866666666666666,ScrollUp,ScrollDown,Green.png,2,Neutral,Neutral,0,0,0,0,,,,,,,,,,,,,,,,,0,8,8,8,,,,,,,,,,,,,,,,,,,,,,,,,,,,,,,,,,,,,,,,,,,,,,,,,,,,,,,,,,,,,,,,,,,,,,,,,,,,,,,,,1.817901223897934,0.7331219000043347,236.12907450000057,None,ScrollUp,정답입니다,236.12907450000057,None,236.12907450000057,None,236.12907450000057,None,236.12907450000057,None,236.77189560001716,None,236.77189560001716,237.27432229998522,,,,,,,,,,,,,,,,103,2023-04-20_14h54.19.557,FishGame,2022.1.1,60.081566733583955,
,10,넌 꾸준해,1,Orange,A,5.916666666666668,5.8,ScrollDown,ScrollUp,Orange.png,2,Positive,Congruent,0,0,0,0,,,,,,,,,,,,,,,,,0,9,9,9,,,,,,,,,,,,,,,,,,,,,,,,,,,,,,,,,,,,,,,,,,,,,,,,,,,,,,,,,,,,,,,,,,,,,,,,,,,,,,,,,1,0.7482815000112168,237.8860797000234,None,ScrollDown,정답입니다,237.8860797000234,None,237.8860797000234,None,237.8860797000234,None,237.8860797000234,None,238.54106940003112,None,238.54106940003112,239.0409023000393,,,,,,,,,,,,,,,,103,2023-04-20_14h54.19.557,FishGame,2022.1.1,60.081566733583955,
,11,나를 데려가줘,6,Green,B,0,0,ScrollDown,ScrollUp,Green.png,2,NonTarget,NonTarget,0,0,0,0,,,,,,,,,,,,,,,,,0,10,10,10,,,,,,,,,,,,,,,,,,,,,,,,,,,,,,,,,,,,,,,,,,,,,,,,,,,,,,,,,,,,,,,,,,,,,,,,,,,,,,,,,1.0586419602235158,0.7828894999693148,239.6467959000147,None,ScrollDown,정답입니다,239.6467959000147,None,239.6467959000147,None,239.6467959000147,None,239.6467959000147,None,240.34074760001386,None,240.34074760001386,240.84070589998737,,,,,,,,,,,,,,,,103,2023-04-20_14h54.19.557,FishGame,2022.1.1,60.081566733583955,
,12,넌 독선적이야,5,Orange,A,2.458333333333333,1.933333333333333,ScrollDown,ScrollUp,Orange.png,2,Negative,Incongruent,0,0,0,0,,,,,,,,,,,,,,,,,0,11,11,11,,,,,,,,,,,,,,,,,,,,,,,,,,,,,,,,,,,,,,,,,,,,,,,,,,,,,,,,,,,,,,,,,,,,,,,,,,,,,,,,,1,0.8310511999879964,241.45316360000288,None,ScrollDown,정답입니다,241.45316360000288,None,241.45316360000288,None,241.45316360000288,None,241.45316360000288,None,242.1906446000212,None,242.1906446000212,242.69067420001375,,,,,,,,,,,,,,,,103,2023-04-20_14h54.19.557,FishGame,2022.1.1,60.081566733583955,
,13,나를 보내줘,6,Orange,A,0,0,ScrollUp,ScrollDown,Orange.png,2,NonTarget,NonTarget,0,0,0,0,,,,,,,,,,,,,,,,,0,12,12,12,,,,,,,,,,,,,,,,,,,,,,,,,,,,,,,,,,,,,,,,,,,,,,,,,,,,,,,,,,,,,,,,,,,,,,,,,,,,,,,,,1.939814825852712,0.8501572000095621,243.29726240003947,None,ScrollUp,정답입니다,243.29726240003947,None,243.29726240003947,None,243.29726240003947,None,243.29726240003947,None,244.05729930003872,None,244.05729930003872,244.5572815000196,,,,,,,,,,,,,,,,103,2023-04-20_14h54.19.557,FishGame,2022.1.1,60.081566733583955,
,14,넌 책임감있어,1,Green,B,6.347826086956522,6,ScrollUp,ScrollDown,Green.png,2,Positive,Incongruent,0,0,0,0,,,,,,,,,,,,,,,,,0,13,13,13,,,,,,,,,,,,,,,,,,,,,,,,,,,,,,,,,,,,,,,,,,,,,,,,,,,,,,,,,,,,,,,,,,,,,,,,,,,,,,,,,1.9537037014961243,0.796181500016246,245.16460930003086,None,ScrollUp,정답입니다,245.16460930003086,None,245.16460930003086,None,245.16460930003086,None,245.16460930003086,None,245.87405889999354,None,245.87405889999354,246.37397350004176,,,,,,,,,,,,,,,,103,2023-04-20_14h54.19.557,FishGame,2022.1.1,60.081566733583955,
,15,넌 문학적이야,3,Orange,A,4.708333333333334,4.333333333333333,ScrollDown,ScrollUp,Orange.png,2,Neutral,Neutral,0,0,0,0,,,,,,,,,,,,,,,,,0,14,14,14,,,,,,,,,,,,,,,,,,,,,,,,,,,,,,,,,,,,,,,,,,,,,,,,,,,,,,,,,,,,,,,,,,,,,,,,,,,,,,,,,1.3348765447735786,0.6307540000416338,246.98637070000404,None,ScrollDown,정답입니다,246.98637070000404,None,246.98637070000404,None,246.98637070000404,None,246.98637070000404,None,247.52159780001966,None,247.52159780001966,248.021681800019,,,,,,,,,,,,,,,,103,2023-04-20_14h54.19.557,FishGame,2022.1.1,60.081566733583955,
,16,넌 재미있어,1,Green,B,5.875,5.7,ScrollUp,ScrollDown,Green.png,2,Positive,Incongruent,0,0,0,0,,,,,,,,,,,,,,,,,0,15,15,15,,,,,,,,,,,,,,,,,,,,,,,,,,,,,,,,,,,,,,,,,,,,,,,,,,,,,,,,,,,,,,,,,,,,,,,,,,,,,,,,,1.743827154239019,0.766395199985709,248.62583430000814,None,ScrollUp,정답입니다,248.62583430000814,None,248.62583430000814,None,248.62583430000814,None,248.62583430000814,None,249.30495260003954,None,249.30495260003954,249.8072750000283,,,,,,,,,,,,,,,,103,2023-04-20_14h54.19.557,FishGame,2022.1.1,60.081566733583955,
,17,나를 데려가줘,6,Green,B,0,0,ScrollDown,ScrollUp,Green.png,2,NonTarget,NonTarget,0,0,0,0,,,,,,,,,,,,,,,,,0,16,16,16,,,,,,,,,,,,,,,,,,,,,,,,,,,,,,,,,,,,,,,,,,,,,,,,,,,,,,,,,,,,,,,,,,,,,,,,,,,,,,,,,1.3194444427887597,0.7984902000171132,250.41359400004148,None,ScrollDown,정답입니다,250.41359400004148,None,250.41359400004148,None,250.41359400004148,None,250.41359400004148,None,251.1219455000246,None,251.1219455000246,251.62404210004024,,,,,,,,,,,,,,,,103,2023-04-20_14h54.19.557,FishGame,2022.1.1,60.081566733583955,
,18,넌 협력적이야,1,Orange,A,5.625,5.633333333333334,ScrollDown,ScrollUp,Orange.png,2,Positive,Congruent,0,0,0,0,,,,,,,,,,,,,,,,,0,17,17,17,,,,,,,,,,,,,,,,,,,,,,,,,,,,,,,,,,,,,,,,,,,,,,,,,,,,,,,,,,,,,,,,,,,,,,,,,,,,,,,,,1.2407407313585281,0.7993923000176437,252.23583910003072,None,ScrollDown,정답입니다,252.23583910003072,None,252.23583910003072,None,252.23583910003072,None,252.23583910003072,None,252.94048839999596,None,252.94048839999596,253.4404547000304,,,,,,,,,,,,,,,,103,2023-04-20_14h54.19.557,FishGame,2022.1.1,60.081566733583955,
,19,넌 평범해,3,Green,B,4.333333333333332,4.233333333333333,ScrollUp,ScrollDown,Green.png,2,Neutral,Neutral,0,0,0,0,,,,,,,,,,,,,,,,,0,18,18,18,,,,,,,,,,,,,,,,,,,,,,,,,,,,,,,,,,,,,,,,,,,,,,,,,,,,,,,,,,,,,,,,,,,,,,,,,,,,,,,,,1.8611111144224803,0.7315362000372261,254.04853269999148,None,ScrollUp,정답입니다,254.04853269999148,None,254.04853269999148,None,254.04853269999148,None,254.04853269999148,None,254.69062270002905,None,254.69062270002905,255.19051119999494,,,,,,,,,,,,,,,,103,2023-04-20_14h54.19.557,FishGame,2022.1.1,60.081566733583955,
,20,넌 오만해,5,Orange,A,2.333333333333333,2,ScrollDown,ScrollUp,Orange.png,2,Negative,Incongruent,0,0,0,0,,,,,,,,,,,,,,,,,0,19,19,19,,,,,,,,,,,,,,,,,,,,,,,,,,,,,,,,,,,,,,,,,,,,,,,,,,,,,,,,,,,,,,,,,,,,,,,,,,,,,,,,,1.0632716019948323,0.7316262000240386,255.800970100041,None,ScrollDown,정답입니다,255.800970100041,None,255.800970100041,None,255.800970100041,None,255.800970100041,None,256.4383170999936,None,256.4383170999936,256.94035129999975,,,,,,,,,,,,,,,,103,2023-04-20_14h54.19.557,FishGame,2022.1.1,60.081566733583955,
,21,넌 운이없어,4,Green,B,3,3.466666666666667,ScrollUp,ScrollDown,Green.png,2,Negative,Congruent,0,0,0,0,,,,,,,,,,,,,,,,,0,20,20,20,,,,,,,,,,,,,,,,,,,,,,,,,,,,,,,,,,,,,,,,,,,,,,,,,,,,,,,,,,,,,,,,,,,,,,,,,,,,,,,,,1.7947530895471573,0.6963143000029959,257.54887120000785,None,ScrollUp,정답입니다,257.54887120000785,None,257.54887120000785,None,257.54887120000785,None,257.54887120000785,None,258.1570798000321,None,258.1570798000321,258.6570361999911,,,,,,,,,,,,,,,,103,2023-04-20_14h54.19.557,FishGame,2022.1.1,60.081566733583955,
,22,넌 창조적이야,2,Green,B,6.125,4.633333333333334,ScrollUp,ScrollDown,Green.png,2,Positive,Incongruent,0,0,0,0,,,,,,,,,,,,,,,,,0,21,21,21,,,,,,,,,,,,,,,,,,,,,,,,,,,,,,,,,,,,,,,,,,,,,,,,,,,,,,,,,,,,,,,,,,,,,,,,,,,,,,,,,1.959876557191213,0.696984100039117,259.2672002000036,None,ScrollUp,정답입니다,259.2672002000036,None,259.2672002000036,None,259.2672002000036,None,259.2672002000036,None,259.8737654000288,None,259.8737654000288,260.373594100005,,,,,,,,,,,,,,,,103,2023-04-20_14h54.19.557,FishGame,2022.1.1,60.081566733583955,
,23,나를 보내줘,6,Orange,A,0,0,ScrollUp,ScrollDown,Orange.png,2,NonTarget,NonTarget,0,0,0,0,,,,,,,,,,,,,,,,,0,22,22,22,,,,,,,,,,,,,,,,,,,,,,,,,,,,,,,,,,,,,,,,,,,,,,,,,,,,,,,,,,,,,,,,,,,,,,,,,,,,,,,,,1.9614197711149852,0.8983104999642819,260.9811771000386,None,ScrollUp,정답입니다,260.9811771000386,None,260.9811771000386,None,260.9811771000386,None,260.9811771000386,None,261.7882585999905,None,261.7882585999905,262.290245399985,,,,,,,,,,,,,,,,103,2023-04-20_14h54.19.557,FishGame,2022.1.1,60.081566733583955,
,24,넌 통찰력있어,2,Orange,A,6.5,4.8,ScrollDown,ScrollUp,Orange.png,2,Positive,Congruent,0,0,0,0,,,,,,,,,,,,,,,,,0,23,23,23,,,,,,,,,,,,,,,,,,,,,,,,,,,,,,,,,,,,,,,,,,,,,,,,,,,,,,,,,,,,,,,,,,,,,,,,,,,,,,,,,1,0.8835233999998309,262.90244820003863,None,ScrollDown,정답입니다,262.90244820003863,None,262.90244820003863,None,262.90244820003863,None,262.90244820003863,None,263.6903110999847,None,263.6903110999847,264.19025119999424,,,,,,,,,,,,,,,,103,2023-04-20_14h54.19.557,FishGame,2022.1.1,60.081566733583955,
,25,넌 경솔해,5,Green,B,2.458333333333333,2.266666666666667,ScrollUp,ScrollDown,Green.png,2,Negative,Congruent,0,0,0,0,,,,,,,,,,,,,,,,,0,24,24,24,,,,,,,,,,,,,,,,,,,,,,,,,,,,,,,,,,,,,,,,,,,,,,,,,,,,,,,,,,,,,,,,,,,,,,,,,,,,,,,,,1.7962963034709294,0.7128040000097826,264.7983782000374,None,ScrollUp,정답입니다,264.7983782000374,None,264.7983782000374,None,264.7983782000374,None,264.7983782000374,None,265.4214799000183,None,265.4214799000183,265.9234935999848,,,,,,,,,,,,,,,,103,2023-04-20_14h54.19.557,FishGame,2022.1.1,60.081566733583955,
,26,넌 초조해,4,Orange,A,2.916666666666667,3.133333333333333,ScrollDown,ScrollUp,Orange.png,2,Negative,Incongruent,0,0,0,0,,,,,,,,,,,,,,,,,0,25,25,25,,,,,,,,,,,,,,,,,,,,,,,,,,,,,,,,,,,,,,,,,,,,,,,,,,,,,,,,,,,,,,,,,,,,,,,,,,,,,,,,,1.1851851791143417,0.7830623000045307,266.5335363000049,None,ScrollDown,정답입니다,266.5335363000049,None,266.5335363000049,None,266.5335363000049,None,266.5335363000049,None,267.2234804999898,None,267.2234804999898,267.72348400001647,,,,,,,,,,,,,,,,103,2023-04-20_14h54.19.557,FishGame,2022.1.1,60.081566733583955,
,27,넌 무관심해,4,Green,B,2.833333333333333,2.9,ScrollUp,ScrollDown,Green.png,2,Negative,Congruent,0,0,0,0,,,,,,,,,,,,,,,,,0,26,26,26,,,,,,,,,,,,,,,,,,,,,,,,,,,,,,,,,,,,,,,,,,,,,,,,,,,,,,,,,,,,,,,,,,,,,,,,,,,,,,,,,1.825617293516795,0.6666538999998011,268.3315176999895,None,ScrollUp,정답입니다,268.3315176999895,None,268.3315176999895,None,268.3315176999895,None,268.3315176999895,None,268.9069834999973,None,268.9069834999973,269.4068172000116,,,,,,,,,,,,,,,,103,2023-04-20_14h54.19.557,FishGame,2022.1.1,60.081566733583955,
,28,넌 감성적이야,3,Green,B,4.125,4.166666666666667,ScrollUp,ScrollDown,Green.png,2,Neutral,Neutral,0,0,0,0,,,,,,,,,,,,,,,,,0,27,27,27,,,,,,,,,,,,,,,,,,,,,,,,,,,,,,,,,,,,,,,,,,,,,,,,,,,,,,,,,,,,,,,,,,,,,,,,,,,,,,,,,1.9429012537002563,0.8264114999910817,270.02177140000276,None,ScrollUp,정답입니다,270.02177140000276,None,270.02177140000276,None,270.02177140000276,None,270.02177140000276,None,270.75447039998835,None,270.75447039998835,271.255577700038,,,,,,,,,,,,,,,,103,2023-04-20_14h54.19.557,FishGame,2022.1.1,60.081566733583955,
,29,넌 배려심있어,1,Orange,A,6.083333333333333,5.5,ScrollDown,ScrollUp,Orange.png,2,Positive,Congruent,0,0,0,0,,,,,,,,,,,,,,,,,0,28,28,28,,,,,,,,,,,,,,,,,,,,,,,,,,,,,,,,,,,,,,,,,,,,,,,,,,,,,,,,,,,,,,,,,,,,,,,,,,,,,,,,,1.2608024626970291,0.6647858999785967,271.8627315000049,None,ScrollDown,정답입니다,271.8627315000049,None,271.8627315000049,None,271.8627315000049,None,271.8627315000049,None,272.437810500036,None,272.437810500036,272.93895260000136,,,,,,,,,,,,,,,,103,2023-04-20_14h54.19.557,FishGame,2022.1.1,60.081566733583955,
,30,넌 숨김없어,3,Orange,A,4.5,4.933333333333334,ScrollDown,ScrollUp,Orange.png,2,Neutral,Neutral,0,0,0,0,,,,,,,,,,,,,,,,,0,29,29,29,,,,,,,,,,,,,,,,,,,,,,,,,,,,,,,,,,,,,,,,,,,,,,,,,,,,,,,,,,,,,,,,,,,,,,,,,,,,,,,,,1.276234577099482,0.6816550999647006,273.54964770004153,None,ScrollDown,정답입니다,273.54964770004153,None,273.54964770004153,None,273.54964770004153,None,273.54964770004153,None,274.13779000000795,None,274.13779000000795,274.6378270999994,,,,,,,,,,,,,,,,103,2023-04-20_14h54.19.557,FishGame,2022.1.1,60.081566733583955,
,31,넌 훌륭해,2,Green,B,5.916666666666667,4.033333333333333,ScrollUp,ScrollDown,Green.png,2,Positive,Incongruent,0,0,0,0,,,,,,,,,,,,,,,,,0,30,30,30,,,,,,,,,,,,,,,,,,,,,,,,,,,,,,,,,,,,,,,,,,,,,,,,,,,,,,,,,,,,,,,,,,,,,,,,,,,,,,,,,1.983024666706721,0.7481358000077307,275.24847260001116,None,ScrollUp,정답입니다,275.24847260001116,None,275.24847260001116,None,275.24847260001116,None,275.24847260001116,None,275.9069740999839,None,275.9069740999839,276.40685870003654,,,,,,,,,,,,,,,,103,2023-04-20_14h54.19.557,FishGame,2022.1.1,60.081566733583955,
,32,넌 슬기로워,2,Orange,A,6.166666666666667,4.1,ScrollDown,ScrollUp,Orange.png,2,Positive,Congruent,0,0,0,0,,,,,,,,,,,,,,,,,0,31,31,31,,,,,,,,,,,,,,,,,,,,,,,,,,,,,,,,,,,,,,,,,,,,,,,,,,,,,,,,,,,,,,,,,,,,,,,,,,,,,,,,,1.2746913631757102,0.6978988000191748,277.0137754000025,None,ScrollDown,정답입니다,277.0137754000025,None,277.0137754000025,None,277.0137754000025,None,277.0137754000025,None,277.6233970000176,None,277.6233970000176,278.1232810000074,,,,,,,,,,,,,,,,103,2023-04-20_14h54.19.557,FishGame,2022.1.1,60.081566733583955,
,33,넌 냉혹해,5,Orange,A,2.583333333333333,2.1,ScrollDown,ScrollUp,Orange.png,2,Negative,Incongruent,0,0,0,0,,,,,,,,,,,,,,,,,0,32,32,32,,,,,,,,,,,,,,,,,,,,,,,,,,,,,,,,,,,,,,,,,,,,,,,,,,,,,,,,,,,,,,,,,,,,,,,,,,,,,,,,,1.3749999950329461,0.6663860999979079,278.734218800033,None,ScrollDown,정답입니다,278.734218800033,None,278.734218800033,None,278.734218800033,None,278.734218800033,None,279.30657660000725,None,279.30657660000725,279.8066098000272,,,,,,,,,,,,,,,,103,2023-04-20_14h54.19.557,FishGame,2022.1.1,60.081566733583955,
,34,나를 데려가줘,6,Green,B,0,0,ScrollDown,ScrollUp,Green.png,2,NonTarget,NonTarget,0,0,0,0,,,,,,,,,,,,,,,,,0,33,33,33,,,,,,,,,,,,,,,,,,,,,,,,,,,,,,,,,,,,,,,,,,,,,,,,,,,,,,,,,,,,,,,,,,,,,,,,,,,,,,,,,1.1589506169160206,0.8472583999973722,280.408228699991,None,ScrollDown,정답입니다,280.408228699991,None,280.408228699991,None,280.408228699991,None,280.408228699991,None,281.1709464000305,None,281.1709464000305,281.67091290000826,,,,,,,,,,,,,,,,103,2023-04-20_14h54.19.557,FishGame,2022.1.1,60.081566733583955,
,35,넌 편파적이야,5,Green,B,2.125,2,ScrollUp,ScrollDown,Green.png,2,Negative,Congruent,0,0,0,0,,,,,,,,,,,,,,,,,0,34,34,34,,,,,,,,,,,,,,,,,,,,,,,,,,,,,,,,,,,,,,,,,,,,,,,,,,,,,,,,,,,,,,,,,,,,,,,,,,,,,,,,,1.8040123482545216,0.7645309999934398,282.27588229998946,None,ScrollUp,정답입니다,282.27588229998946,None,282.27588229998946,None,282.27588229998946,None,282.27588229998946,None,282.954281000013,None,282.954281000013,283.4566563999979,,,,,,,,,,,,,,,,103,2023-04-20_14h54.19.557,FishGame,2022.1.1,60.081566733583955,
,36,넌 슬퍼,4,Orange,A,2.583333333333333,3.066666666666667,ScrollDown,ScrollUp,Orange.png,2,Negative,Incongruent,0,0,0,0,,,,,,,,,,,,,,,,,0,35,35,35,,,,,,,,,,,,,,,,,,,,,,,,,,,,,,,,,,,,,,,,,,,,,,,,,,,,,,,,,,,,,,,,,,,,,,,,,,,,,,,,,1.2932098805904388,0.7666614999761805,284.0630036999937,None,ScrollDown,정답입니다,284.0630036999937,None,284.0630036999937,None,284.0630036999937,None,284.0630036999937,None,284.7400572000188,None,284.7400572000188,285.2399961000192,,,,,,,,,,,,,,,,103,2023-04-20_14h54.19.557,FishGame,2022.1.1,60.081566733583955,
,37,나를 데려가줘,6,Green,B,0,0,ScrollDown,ScrollUp,Green.png,2,NonTarget,NonTarget,0,0,0,0,,,,,,,,,,,,,,,,,0,36,36,36,,,,,,,,,,,,,,,,,,,,,,,,,,,,,,,,,,,,,,,,,,,,,,,,,,,,,,,,,,,,,,,,,,,,,,,,,,,,,,,,,1.2160493830839794,0.8127248000237159,285.8489630999975,None,ScrollDown,정답입니다,285.8489630999975,None,285.8489630999975,None,285.8489630999975,None,285.8489630999975,None,286.57319100003224,None,286.57319100003224,287.073180700012,,,,,,,,,,,,,,,,103,2023-04-20_14h54.19.557,FishGame,2022.1.1,60.081566733583955,
,38,넌 친절해,1,Green,B,6.041666666666667,5.533333333333333,ScrollUp,ScrollDown,Green.png,2,Positive,Incongruent,0,0,0,0,,,,,,,,,,,,,,,,,0,37,37,37,,,,,,,,,,,,,,,,,,,,,,,,,,,,,,,,,,,,,,,,,,,,,,,,,,,,,,,,,,,,,,,,,,,,,,,,,,,,,,,,,2,0.7460242000524886,287.681226900022,None,ScrollUp,정답입니다,287.681226900022,None,287.681226900022,None,287.681226900022,None,287.681226900022,None,288.33973320003133,None,288.33973320003133,288.8397987000062,,,,,,,,,,,,,,,,103,2023-04-20_14h54.19.557,FishGame,2022.1.1,60.081566733583955,
,1,넌 엉성해,4,Orange,A,3,3.3,ScrollDown,ScrollUp,Orange.png,3,Negative,Incongruent,0,0,0,0,,,,,,,,,,,,,,,,,,,,,0,0,0,0,,,,,,,,,,,,,,,,,,,,,,,,,,,,,,,,,,,,320.3723978000344,321.87261930003297,321.9058745999937,322.8559021000401,322.90590840001823,323.85590510000475,323.85590510000475,None,,,,,,,,,,,,,,,,,,,,,,,,,,,,,,,,,,1.121913582086563,0.7694155999924988,324.93816479999805,None,ScrollDown,정답입니다,324.93816479999805,None,324.93816479999805,None,324.93816479999805,None,324.93816479999805,None,325.6155330000329,None,325.6155330000329,326.120007599995,289.33970680000493,None,289.33970680000493,None,0.1574074,-0.094444446,1,0,0,0.01625632995273918,None,319.33897889999207,None,,,103,2023-04-20_14h54.19.557,FishGame,2022.1.1,60.081566733583955,
,2,나를 보내줘,6,Orange,A,0,0,ScrollUp,ScrollDown,Orange.png,3,NonTarget,NonTarget,0,0,0,0,,,,,,,,,,,,,,,,,,,,,0,1,1,1,,,,,,,,,,,,,,,,,,,,,,,,,,,,,,,,,,,,,,,,,,,,,,,,,,,,,,,,,,,,,,,,,,,,,,,,,,,,,1.9367283980051677,0.847805600031279,326.72281599999405,None,ScrollUp,정답입니다,326.72281599999405,None,326.72281599999405,None,326.72281599999405,None,326.72281599999405,None,327.48665430000983,None,327.48665430000983,327.9895022000419,,,,,,,,,,,,,,,,103,2023-04-20_14h54.19.557,FishGame,2022.1.1,60.081566733583955,
,3,넌 활발해,1,Green,B,5.666666666666667,5.6,ScrollUp,ScrollDown,Green.png,3,Positive,Incongruent,0,0,0,0,,,,,,,,,,,,,,,,,,,,,0,2,2,2,,,,,,,,,,,,,,,,,,,,,,,,,,,,,,,,,,,,,,,,,,,,,,,,,,,,,,,,,,,,,,,,,,,,,,,,,,,,,1.7145061641931534,0.7688953999895602,328.5951841000351,None,ScrollUp,정답입니다,328.5951841000351,None,328.5951841000351,None,328.5951841000351,None,328.5951841000351,None,329.27037530002417,None,329.27037530002417,329.7723941000295,,,,,,,,,,,,,,,,103,2023-04-20_14h54.19.557,FishGame,2022.1.1,60.081566733583955,
,4,넌 논리적이야,2,Orange,A,5.666666666666666,4.633333333333334,ScrollDown,ScrollUp,Orange.png,3,Positive,Congruent,0,0,0,0,,,,,,,,,,,,,,,,,,,,,0,3,3,3,,,,,,,,,,,,,,,,,,,,,,,,,,,,,,,,,,,,,,,,,,,,,,,,,,,,,,,,,,,,,,,,,,,,,,,,,,,,,1.1851851791143417,0.6830347999930382,330.3791790000396,None,ScrollDown,정답입니다,330.3791790000396,None,330.3791790000396,None,330.3791790000396,None,330.3791790000396,None,330.9701941999956,None,330.9701941999956,331.4721913000103,,,,,,,,,,,,,,,,103,2023-04-20_14h54.19.557,FishGame,2022.1.1,60.081566733583955,
,5,넌 과묵해,3,Orange,A,3.875,4.4,ScrollDown,ScrollUp,Orange.png,3,Neutral,Neutral,0,0,0,0,,,,,,,,,,,,,,,,,,,,,0,4,4,4,,,,,,,,,,,,,,,,,,,,,,,,,,,,,,,,,,,,,,,,,,,,,,,,,,,,,,,,,,,,,,,,,,,,,,,,,,,,,1,0.6978215000126511,332.07889100001194,None,ScrollDown,정답입니다,332.07889100001194,None,332.07889100001194,None,332.07889100001194,None,332.07889100001194,None,332.68887860001996,None,332.68887860001996,333.1889230000088,,,,,,,,,,,,,,,,103,2023-04-20_14h54.19.557,FishGame,2022.1.1,60.081566733583955,
,6,나를 데려가줘,6,Green,B,0,0,ScrollDown,ScrollUp,Green.png,3,NonTarget,NonTarget,0,0,0,0,,,,,,,,,,,,,,,,,,,,,0,5,5,5,,,,,,,,,,,,,,,,,,,,,,,,,,,,,,,,,,,,,,,,,,,,,,,,,,,,,,,,,,,,,,,,,,,,,,,,,,,,,1.115740751226743,0.811647400027141,333.7967493000324,None,ScrollDown,정답입니다,333.7967493000324,None,333.7967493000324,None,333.7967493000324,None,333.7967493000324,None,334.52228760003345,None,334.52228760003345,335.02218359999824,,,,,,,,,,,,,,,,103,2023-04-20_14h54.19.557,FishGame,2022.1.1,60.081566733583955,
,7,넌 미숙해,4,Green,B,3,3,ScrollUp,ScrollDown,Green.png,3,Negative,Congruent,0,0,0,0,,,,,,,,,,,,,,,,,,,,,0,6,6,6,,,,,,,,,,,,,,,,,,,,,,,,,,,,,,,,,,,,,,,,,,,,,,,,,,,,,,,,,,,,,,,,,,,,,,,,,,,,,2,0.6837914999923669,335.6298458999954,None,ScrollUp,정답입니다,335.6298458999954,None,335.6298458999954,None,335.6298458999954,None,335.6298458999954,None,336.2200845000334,None,336.2200845000334,336.72204500000225,,,,,,,,,,,,,,,,103,2023-04-20_14h54.19.557,FishGame,2022.1.1,60.081566733583955,
,8,나를 보내줘,6,Orange,A,0,0,ScrollUp,ScrollDown,Orange.png,3,NonTarget,NonTarget,0,0,0,0,,,,,,,,,,,,,,,,,,,,,0,7,7,7,,,,,,,,,,,,,,,,,,,,,,,,,,,,,,,,,,,,,,,,,,,,,,,,,,,,,,,,,,,,,,,,,,,,,,,,,,,,,1.679012343287468,0.8313634999794886,337.3263623000239,None,ScrollUp,정답입니다,337.3263623000239,None,337.3263623000239,None,337.3263623000239,None,337.3263623000239,None,338.07207659998676,None,338.07207659998676,338.57210900000064,,,,,,,,,,,,,,,,103,2023-04-20_14h54.19.557,FishGame,2022.1.1,60.081566733583955,
,9,넌 자신만만해,3,Green,B,4.833333333333334,4.333333333333333,ScrollUp,ScrollDown,Green.png,3,Neutral,Neutral,0,0,0,0,,,,,,,,,,,,,,,,,,,,,0,8,8,8,,,,,,,,,,,,,,,,,,,,,,,,,,,,,,,,,,,,,,,,,,,,,,,,,,,,,,,,,,,,,,,,,,,,,,,,,,,,,1.858024686574936,0.84458590002032,339.176940400037,None,ScrollUp,정답입니다,339.176940400037,None,339.176940400037,None,339.176940400037,None,339.176940400037,None,339.93187959998613,None,339.93187959998613,340.43644740001764,,,,,,,,,,,,,,,,103,2023-04-20_14h54.19.557,FishGame,2022.1.1,60.081566733583955,
,10,넌 탐욕스러워,5,Orange,A,2.25,2.1,ScrollDown,ScrollUp,Orange.png,3,Negative,Incongruent,0,0,0,0,,,,,,,,,,,,,,,,,,,,,0,9,9,9,,,,,,,,,,,,,,,,,,,,,,,,,,,,,,,,,,,,,,,,,,,,,,,,,,,,,,,,,,,,,,,,,,,,,,,,,,,,,1.192901223897934,1.2313300999812782,341.04614759999095,None,ScrollDown,정답입니다,341.04614759999095,None,341.04614759999095,None,341.04614759999095,None,341.04614759999095,None,342.1864035000326,None,342.1864035000326,342.6887989999959,,,,,,,,,,,,,,,,103,2023-04-20_14h54.19.557,FishGame,2022.1.1,60.081566733583955,
,11,넌 인기있어,2,Orange,A,5.458333333333333,4.5,ScrollDown,ScrollUp,Orange.png,3,Positive,Congruent,0,0,0,0,,,,,,,,,,,,,,,,,,,,,0,10,10,10,,,,,,,,,,,,,,,,,,,,,,,,,,,,,,,,,,,,,,,,,,,,,,,,,,,,,,,,,,,,,,,,,,,,,,,,,,,,,1.1682098756233852,0.6836320000002161,343.29556050000247,None,ScrollDown,정답입니다,343.29556050000247,None,343.29556050000247,None,343.29556050000247,None,343.29556050000247,None,343.8889041999937,None,343.8889041999937,344.3887792000314,,,,,,,,,,,,,,,,103,2023-04-20_14h54.19.557,FishGame,2022.1.1,60.081566733583955,
,12,나를 데려가줘,6,Green,B,0,0,ScrollDown,ScrollUp,Green.png,3,NonTarget,NonTarget,0,0,0,0,,,,,,,,,,,,,,,,,,,,,0,11,11,11,,,,,,,,,,,,,,,,,,,,,,,,,,,,,,,,,,,,,,,,,,,,,,,,,,,,,,,,,,,,,,,,,,,,,,,,,,,,,1.1635802586873372,0.864363000029698,344.99030539998785,None,ScrollDown,정답입니다,344.99030539998785,None,344.99030539998785,None,344.99030539998785,None,344.99030539998785,None,345.7719788000104,None,345.7719788000104,346.27192510000896,,,,,,,,,,,,,,,,103,2023-04-20_14h54.19.557,FishGame,2022.1.1,60.081566733583955,
,13,넌 뛰어나,2,Green,B,6.166666666666667,4,ScrollUp,ScrollDown,Green.png,3,Positive,Incongruent,0,0,0,0,,,,,,,,,,,,,,,,,,,,,0,12,12,12,,,,,,,,,,,,,,,,,,,,,,,,,,,,,,,,,,,,,,,,,,,,,,,,,,,,,,,,,,,,,,,,,,,,,,,,,,,,,1.904320980111758,0.6809799000038765,346.8766243000282,None,ScrollUp,정답입니다,346.8766243000282,None,346.8766243000282,None,346.8766243000282,None,346.8766243000282,None,347.46958760003326,None,347.46958760003326,347.9695597999962,,,,,,,,,,,,,,,,103,2023-04-20_14h54.19.557,FishGame,2022.1.1,60.081566733583955,
,14,넌 낙관적이야,1,Orange,A,5.75,5.8,ScrollDown,ScrollUp,Orange.png,3,Positive,Congruent,0,0,0,0,,,,,,,,,,,,,,,,,,,,,0,13,13,13,,,,,,,,,,,,,,,,,,,,,,,,,,,,,,,,,,,,,,,,,,,,,,,,,,,,,,,,,,,,,,,,,,,,,,,,,,,,,1.115740751226743,0.697964699997101,348.5769041000167,None,ScrollDown,정답입니다,348.5769041000167,None,348.5769041000167,None,348.5769041000167,None,348.5769041000167,None,349.1862748999847,None,349.1862748999847,349.6862691999995,,,,,,,,,,,,,,,,103,2023-04-20_14h54.19.557,FishGame,2022.1.1,60.081566733583955,
,15,넌 산만해,4,Green,B,2.695652173913043,3.033333333333333,ScrollUp,ScrollDown,Green.png,3,Negative,Congruent,0,0,0,0,,,,,,,,,,,,,,,,,,,,,0,14,14,14,,,,,,,,,,,,,,,,,,,,,,,,,,,,,,,,,,,,,,,,,,,,,,,,,,,,,,,,,,,,,,,,,,,,,,,,,,,,,2,0.7336190000060014,350.2917629000149,None,ScrollUp,정답입니다,350.2917629000149,None,350.2917629000149,None,350.2917629000149,None,350.2917629000149,None,350.9387362000416,None,350.9387362000416,351.4393460000283,,,,,,,,,,,,,,,,103,2023-04-20_14h54.19.557,FishGame,2022.1.1,60.081566733583955,
,16,나를 보내줘,6,Orange,A,0,0,ScrollUp,ScrollDown,Orange.png,3,NonTarget,NonTarget,0,0,0,0,,,,,,,,,,,,,,,,,,,,,0,15,15,15,,,,,,,,,,,,,,,,,,,,,,,,,,,,,,,,,,,,,,,,,,,,,,,,,,,,,,,,,,,,,,,,,,,,,,,,,,,,,1.9845678806304932,1.2159802000387572,352.0423396000406,None,ScrollUp,정답입니다,352.0423396000406,None,352.0423396000406,None,352.0423396000406,None,352.0423396000406,None,353.1718949000351,None,353.1718949000351,353.67495270003565,,,,,,,,,,,,,,,,103,2023-04-20_14h54.19.557,FishGame,2022.1.1,60.081566733583955,
,17,넌 교활해,5,Green,B,2.333333333333333,2.133333333333333,ScrollUp,ScrollDown,Green.png,3,Negative,Congruent,0,0,0,0,,,,,,,,,,,,,,,,,,,,,0,16,16,16,,,,,,,,,,,,,,,,,,,,,,,,,,,,,,,,,,,,,,,,,,,,,,,,,,,,,,,,,,,,,,,,,,,,,,,,,,,,,1.90586419403553,0.8313857999746688,354.2775551000377,None,ScrollUp,정답입니다,354.2775551000377,None,354.2775551000377,None,354.2775551000377,None,354.2775551000377,None,355.01966260001063,None,355.01966260001063,355.5216720000026,,,,,,,,,,,,,,,,103,2023-04-20_14h54.19.557,FishGame,2022.1.1,60.081566733583955,
,18,나를 보내줘,6,Orange,A,0,0,ScrollUp,ScrollDown,Orange.png,3,NonTarget,NonTarget,0,0,0,0,,,,,,,,,,,,,,,,,,,,,0,17,17,17,,,,,,,,,,,,,,,,,,,,,,,,,,,,,,,,,,,,,,,,,,,,,,,,,,,,,,,,,,,,,,,,,,,,,,,,,,,,,1.8317901243766148,0.8628893999848515,356.1259568000096,None,ScrollUp,정답입니다,356.1259568000096,None,356.1259568000096,None,356.1259568000096,None,356.1259568000096,None,356.90503540000645,None,356.90503540000645,357.4050716999918,,,,,,,,,,,,,,,,103,2023-04-20_14h54.19.557,FishGame,2022.1.1,60.081566733583955,
,19,넌 불친절해,5,Green,B,2.208333333333333,2.033333333333333,ScrollUp,ScrollDown,Green.png,3,Negative,Congruent,0,0,0,0,,,,,,,,,,,,,,,,,,,,,0,18,18,18,,,,,,,,,,,,,,,,,,,,,,,,,,,,,,,,,,,,,,,,,,,,,,,,,,,,,,,,,,,,,,,,,,,,,,,,,,,,,1.7114197611808777,0.7758885999792255,358.0127094000345,None,ScrollUp,정답입니다,358.0127094000345,None,358.0127094000345,None,358.0127094000345,None,358.0127094000345,None,358.6981487000012,None,358.6981487000012,359.20267730002524,,,,,,,,,,,,,,,,103,2023-04-20_14h54.19.557,FishGame,2022.1.1,60.081566733583955,
,20,넌 지적이야,2,Green,B,5.75,4.366666666666666,ScrollUp,ScrollDown,Green.png,3,Positive,Incongruent,0,0,0,0,,,,,,,,,,,,,,,,,,,,,0,19,19,19,,,,,,,,,,,,,,,,,,,,,,,,,,,,,,,,,,,,,,,,,,,,,,,,,,,,,,,,,,,,,,,,,,,,,,,,,,,,,1.839506169160207,0.6496649999753572,359.80116720002843,None,ScrollUp,정답입니다,359.80116720002843,None,359.80116720002843,None,359.80116720002843,None,359.80116720002843,None,360.3693168000318,None,360.3693168000318,360.86938829999417,,,,,,,,,,,,,,,,103,2023-04-20_14h54.19.557,FishGame,2022.1.1,60.081566733583955,
,21,넌 우유부단해,4,Orange,A,2.666666666666667,3.166666666666667,ScrollDown,ScrollUp,Orange.png,3,Negative,Incongruent,0,0,0,0,,,,,,,,,,,,,,,,,,,,,0,20,20,20,,,,,,,,,,,,,,,,,,,,,,,,,,,,,,,,,,,,,,,,,,,,,,,,,,,,,,,,,,,,,,,,,,,,,,,,,,,,,1.174382706483205,0.7660114000318572,361.480924100033,None,ScrollDown,정답입니다,361.480924100033,None,361.480924100033,None,361.480924100033,None,361.480924100033,None,362.1551485999953,None,362.1551485999953,362.6551182999974,,,,,,,,,,,,,,,,103,2023-04-20_14h54.19.557,FishGame,2022.1.1,60.081566733583955,
,22,나를 데려가줘,6,Green,B,0,0,ScrollDown,ScrollUp,Green.png,3,NonTarget,NonTarget,0,0,0,0,,,,,,,,,,,,,,,,,,,,,0,21,21,21,,,,,,,,,,,,,,,,,,,,,,,,,,,,,,,,,,,,,,,,,,,,,,,,,,,,,,,,,,,,,,,,,,,,,,,,,,,,,1.3040123408039412,1.0427176000084728,363.268193099997,None,ScrollDown,정답입니다,363.268193099997,None,363.268193099997,None,363.268193099997,None,363.268193099997,None,364.2192151999916,None,364.2192151999916,364.71922150003957,,,,,,,,,,,,,,,,103,2023-04-20_14h54.19.557,FishGame,2022.1.1,60.081566733583955,
,23,넌 성실해,1,Green,B,6.041666666666666,5.7,ScrollUp,ScrollDown,Green.png,3,Positive,Incongruent,0,0,0,0,,,,,,,,,,,,,,,,,,,,,0,22,22,22,,,,,,,,,,,,,,,,,,,,,,,,,,,,,,,,,,,,,,,,,,,,,,,,,,,,,,,,,,,,,,,,,,,,,,,,,,,,,1.8688271592060726,0.7479701000265777,365.3189635000308,None,ScrollUp,정답입니다,365.3189635000308,None,365.3189635000308,None,365.3189635000308,None,365.3189635000308,None,365.9859214000171,None,365.9859214000171,366.4882914000191,,,,,,,,,,,,,,,,103,2023-04-20_14h54.19.557,FishGame,2022.1.1,60.081566733583955,
,24,넌 현실주의적이야,3,Orange,A,4.625,4.4,ScrollDown,ScrollUp,Orange.png,3,Neutral,Neutral,0,0,0,0,,,,,,,,,,,,,,,,,,,,,0,23,23,23,,,,,,,,,,,,,,,,,,,,,,,,,,,,,,,,,,,,,,,,,,,,,,,,,,,,,,,,,,,,,,,,,,,,,,,,,,,,,1.192901223897934,0.8317324999952689,367.0971626000246,None,ScrollDown,정답입니다,367.0971626000246,None,367.0971626000246,None,367.0971626000246,None,367.0971626000246,None,367.8383376999991,None,367.8383376999991,368.33830940001644,,,,,,,,,,,,,,,,103,2023-04-20_14h54.19.557,FishGame,2022.1.1,60.081566733583955,
,25,넌 진실돼,1,Orange,A,6.625,5.566666666666666,ScrollDown,ScrollUp,Orange.png,3,Positive,Congruent,0,0,0,0,,,,,,,,,,,,,,,,,,,,,0,24,24,24,,,,,,,,,,,,,,,,,,,,,,,,,,,,,,,,,,,,,,,,,,,,,,,,,,,,,,,,,,,,,,,,,,,,,,,,,,,,,1.2037036965290706,0.7996812000055797,368.94758690003073,None,ScrollDown,정답입니다,368.94758690003073,None,368.94758690003073,None,368.94758690003073,None,368.94758690003073,None,369.6548579999944,None,369.6548579999944,370.1547988000093,,,,,,,,,,,,,,,,103,2023-04-20_14h54.19.557,FishGame,2022.1.1,60.081566733583955,
,26,넌 천진난만해,3,Green,B,4.958333333333334,4.833333333333333,ScrollUp,ScrollDown,Green.png,3,Neutral,Neutral,0,0,0,0,,,,,,,,,,,,,,,,,,,,,0,25,25,25,,,,,,,,,,,,,,,,,,,,,,,,,,,,,,,,,,,,,,,,,,,,,,,,,,,,,,,,,,,,,,,,,,,,,,,,,,,,,1.8719135870536168,0.6777956999721937,370.7691780999885,None,ScrollUp,정답입니다,370.7691780999885,None,370.7691780999885,None,370.7691780999885,None,370.7691780999885,None,371.3524300000281,None,371.3524300000281,371.85244049999164,,,,,,,,,,,,,,,,103,2023-04-20_14h54.19.557,FishGame,2022.1.1,60.081566733583955,
,27,넌 교양없어,5,Orange,A,2.416666666666667,2.2,ScrollDown,ScrollUp,Orange.png,3,Negative,Incongruent,0,0,0,0,,,,,,,,,,,,,,,,,,,,,0,26,26,26,,,,,,,,,,,,,,,,,,,,,,,,,,,,,,,,,,,,,,,,,,,,,,,,,,,,,,,,,,,,,,,,,,,,,,,,,,,,,1.0987654229005177,0.7467626999714412,372.4609308000072,None,ScrollDown,정답입니다,372.4609308000072,None,372.4609308000072,None,372.4609308000072,None,372.4609308000072,None,373.11912889999803,None,373.11912889999803,373.62148660002276,,,,,,,,,,,,,,,,103,2023-04-20_14h54.19.557,FishGame,2022.1.1,60.081566733583955,
,28,나를 보내줘,6,Orange,A,0,0,ScrollUp,ScrollDown,Orange.png,3,NonTarget,NonTarget,0,0,0,0,,,,,,,,,,,,,,,,,,,,,0,27,27,27,,,,,,,,,,,,,,,,,,,,,,,,,,,,,,,,,,,,,,,,,,,,,,,,,,,,,,,,,,,,,,,,,,,,,,,,,,,,,1.6728395000100136,0.8815893999999389,374.22475570003735,None,ScrollUp,정답입니다,374.22475570003735,None,374.22475570003735,None,374.22475570003735,None,374.22475570003735,None,375.0215372000239,None,375.0215372000239,375.52144959999714,,,,,,,,,,,,,,,,103,2023-04-20_14h54.19.557,FishGame,2022.1.1,60.081566733583955,
,29,넌 엉뚱스러워,3,Orange,A,4.166666666666667,4.133333333333334,ScrollDown,ScrollUp,Orange.png,3,Neutral,Neutral,0,0,0,0,,,,,,,,,,,,,,,,,,,,,0,28,28,28,,,,,,,,,,,,,,,,,,,,,,,,,,,,,,,,,,,,,,,,,,,,,,,,,,,,,,,,,,,,,,,,,,,,,,,,,,,,,1.3117283980051675,0.7298924999777228,376.12996220000787,None,ScrollDown,정답입니다,376.12996220000787,None,376.12996220000787,None,376.12996220000787,None,376.12996220000787,None,376.7713379000197,None,376.7713379000197,377.2712930000271,,,,,,,,,,,,,,,,103,2023-04-20_14h54.19.557,FishGame,2022.1.1,60.081566733583955,
,30,넌 무지해,4,Green,B,2.541666666666667,3.066666666666667,ScrollUp,ScrollDown,Green.png,3,Negative,Congruent,0,0,0,0,,,,,,,,,,,,,,,,,,,,,0,29,29,29,,,,,,,,,,,,,,,,,,,,,,,,,,,,,,,,,,,,,,,,,,,,,,,,,,,,,,,,,,,,,,,,,,,,,,,,,,,,,1.8518518557151158,0.7127139000222087,377.8818932999857,None,ScrollUp,정답입니다,377.8818932999857,None,377.8818932999857,None,377.8818932999857,None,377.8818932999857,None,378.5045944000012,None,378.5045944000012,379.00453869998455,,,,,,,,,,,,,,,,103,2023-04-20_14h54.19.557,FishGame,2022.1.1,60.081566733583955,
,31,넌 음울해,5,Green,B,2.25,2.233333333333333,ScrollUp,ScrollDown,Green.png,3,Negative,Congruent,0,0,0,0,,,,,,,,,,,,,,,,,,,,,0,30,30,30,,,,,,,,,,,,,,,,,,,,,,,,,,,,,,,,,,,,,,,,,,,,,,,,,,,,,,,,,,,,,,,,,,,,,,,,,,,,,1.7376543233791986,0.7668806000147015,379.6094579999917,None,ScrollUp,정답입니다,379.6094579999917,None,379.6094579999917,None,379.6094579999917,None,379.6094579999917,None,380.287919400027,None,380.287919400027,380.78809340001317,,,,,,,,,,,,,,,,103,2023-04-20_14h54.19.557,FishGame,2022.1.1,60.081566733583955,
,32,넌 냉소적이야,5,Orange,A,2.916666666666667,2.4,ScrollDown,ScrollUp,Orange.png,3,Negative,Incongruent,0,0,0,0,,,,,,,,,,,,,,,,,,,,,0,31,31,31,,,,,,,,,,,,,,,,,,,,,,,,,,,,,,,,,,,,,,,,,,,,,,,,,,,,,,,,,,,,,,,,,,,,,,,,,,,,,1.194444437821706,0.8499368000193499,381.3948504999862,None,ScrollDown,정답입니다,381.3948504999862,None,381.3948504999862,None,381.3948504999862,None,381.3948504999862,None,382.1546284999931,None,382.1546284999931,382.65446420002263,,,,,,,,,,,,,,,,103,2023-04-20_14h54.19.557,FishGame,2022.1.1,60.081566733583955,
,33,나를 데려가줘,6,Green,B,0,0,ScrollDown,ScrollUp,Green.png,3,NonTarget,NonTarget,0,0,0,0,,,,,,,,,,,,,,,,,,,,,0,32,32,32,,,,,,,,,,,,,,,,,,,,,,,,,,,,,,,,,,,,,,,,,,,,,,,,,,,,,,,,,,,,,,,,,,,,,,,,,,,,,1.1373456716537476,0.7639512000023387,383.2553135000053,None,ScrollDown,정답입니다,383.2553135000053,None,383.2553135000053,None,383.2553135000053,None,383.2553135000053,None,383.9357513000141,None,383.9357513000141,384.437779400032,,,,,,,,,,,,,,,,103,2023-04-20_14h54.19.557,FishGame,2022.1.1,60.081566733583955,
,34,넌 쾌활해,1,Orange,A,5.541666666666666,5.733333333333333,ScrollDown,ScrollUp,Orange.png,3,Positive,Congruent,0,0,0,0,,,,,,,,,,,,,,,,,,,,,0,33,33,33,,,,,,,,,,,,,,,,,,,,,,,,,,,,,,,,,,,,,,,,,,,,,,,,,,,,,,,,,,,,,,,,,,,,,,,,,,,,,1.2515432039896646,0.7960661000106484,385.044323900016,None,ScrollDown,정답입니다,385.044323900016,None,385.044323900016,None,385.044323900016,None,385.044323900016,None,385.7524401000119,None,385.7524401000119,386.2544493000023,,,,,,,,,,,,,,,,103,2023-04-20_14h54.19.557,FishGame,2022.1.1,60.081566733583955,
,35,나를 보내줘,6,Orange,A,0,0,ScrollUp,ScrollDown,Orange.png,3,NonTarget,NonTarget,0,0,0,0,,,,,,,,,,,,,,,,,,,,,0,34,34,34,,,,,,,,,,,,,,,,,,,,,,,,,,,,,,,,,,,,,,,,,,,,,,,,,,,,,,,,,,,,,,,,,,,,,,,,,,,,,1.8132716069618862,0.8458681000047363,386.8609242000384,None,ScrollUp,정답입니다,386.8609242000384,None,386.8609242000384,None,386.8609242000384,None,386.8609242000384,None,387.6187520000385,None,387.6187520000385,388.1187368000392,,,,,,,,,,,,,,,,103,2023-04-20_14h54.19.557,FishGame,2022.1.1,60.081566733583955,
,36,넌 명랑해,1,Green,B,5.739130434782609,5.666666666666667,ScrollUp,ScrollDown,Green.png,3,Positive,Incongruent,0,0,0,0,,,,,,,,,,,,,,,,,,,,,0,35,35,35,,,,,,,,,,,,,,,,,,,,,,,,,,,,,,,,,,,,,,,,,,,,,,,,,,,,,,,,,,,,,,,,,,,,,,,,,,,,,1.9922839502493541,0.7480336999869905,388.71961189998547,None,ScrollUp,정답입니다,388.71961189998547,None,388.71961189998547,None,388.71961189998547,None,388.71961189998547,None,389.3854435000103,None,389.3854435000103,389.8854205000098,,,,,,,,,,,,,,,,103,2023-04-20_14h54.19.557,FishGame,2022.1.1,60.081566733583955,
,37,넌 멍해,4,Orange,A,2.833333333333333,3.4,ScrollDown,ScrollUp,Orange.png,3,Negative,Incongruent,0,0,0,0,,,,,,,,,,,,,,,,,,,,,0,36,36,36,,,,,,,,,,,,,,,,,,,,,,,,,,,,,,,,,,,,,,,,,,,,,,,,,,,,,,,,,,,,,,,,,,,,,,,,,,,,,1.233024686574936,0.765002700034529,390.49431280000135,None,ScrollDown,정답입니다,390.49431280000135,None,390.49431280000135,None,390.49431280000135,None,390.49431280000135,None,391.1711912000319,None,391.1711912000319,391.67112300003646,,,,,,,,,,,,,,,,103,2023-04-20_14h54.19.557,FishGame,2022.1.1,60.081566733583955,
,38,나를 데려가줘,6,Green,B,0,0,ScrollDown,ScrollUp,Green.png,3,NonTarget,NonTarget,0,0,0,0,,,,,,,,,,,,,,,,,,,,,0,37,37,37,,,,,,,,,,,,,,,,,,,,,,,,,,,,,,,,,,,,,,,,,,,,,,,,,,,,,,,,,,,,,,,,,,,,,,,,,,,,,1.1188271542390187,0.7782768000033684,392.2839439000236,None,ScrollDown,정답입니다,392.2839439000236,None,392.2839439000236,None,392.2839439000236,None,392.2839439000236,None,392.9686332999845,None,392.9686332999845,393.46877370000584,,,,,,,,,,,,,,,,103,2023-04-20_14h54.19.557,FishGame,2022.1.1,60.081566733583955,
,39,넌 현명해,2,Orange,A,6.541666666666666,4.533333333333333,ScrollDown,ScrollUp,Orange.png,3,Positive,Congruent,0,0,0,0,,,,,,,,,,,,,,,,,,,,,0,38,38,38,,,,,,,,,,,,,,,,,,,,,,,,,,,,,,,,,,,,,,,,,,,,,,,,,,,,,,,,,,,,,,,,,,,,,,,,,,,,,1.1172839403152466,0.764172299997881,394.0708682000404,None,ScrollDown,정답입니다,394.0708682000404,None,394.0708682000404,None,394.0708682000404,None,394.0708682000404,None,394.7519942999934,None,394.7519942999934,395.25443520001136,,,,,,,,,,,,,,,,103,2023-04-20_14h54.19.557,FishGame,2022.1.1,60.081566733583955,
,40,넌 수줍어,3,Green,B,3.541666666666666,4.366666666666666,ScrollUp,ScrollDown,Green.png,3,Neutral,Neutral,0,0,0,0,,,,,,,,,,,,,,,,,,,,,0,39,39,39,,,,,,,,,,,,,,,,,,,,,,,,,,,,,,,,,,,,,,,,,,,,,,,,,,,,,,,,,,,,,,,,,,,,,,,,,,,,,1.8719135870536168,0.7128554999944754,395.86097410001094,None,ScrollUp,정답입니다,395.86097410001094,None,395.86097410001094,None,395.86097410001094,None,395.86097410001094,None,396.4877566000214,None,396.4877566000214,396.9876565000159,,,,,,,,,,,,,,,,103,2023-04-20_14h54.19.557,FishGame,2022.1.1,60.081566733583955,
,41,나를 데려가줘,6,Green,B,0,0,ScrollDown,ScrollUp,Green.png,3,NonTarget,NonTarget,0,0,0,0,,,,,,,,,,,,,,,,,,,,,0,40,40,40,,,,,,,,,,,,,,,,,,,,,,,,,,,,,,,,,,,,,,,,,,,,,,,,,,,,,,,,,,,,,,,,,,,,,,,,,,,,,1.1728395173947017,0.7650150999543257,397.59578400000464,None,ScrollDown,정답입니다,397.59578400000464,None,397.59578400000464,None,397.59578400000464,None,397.59578400000464,None,398.27094970003236,None,398.27094970003236,398.7708637000178,,,,,,,,,,,,,,,,103,2023-04-20_14h54.19.557,FishGame,2022.1.1,60.081566733583955,
,42,넌 성숙해,2,Green,B,5.833333333333333,4.533333333333333,ScrollUp,ScrollDown,Green.png,3,Positive,Incongruent,0,0,0,0,,,,,,,,,,,,,,,,,,,,,0,41,41,41,,,,,,,,,,,,,,,,,,,,,,,,,,,,,,,,,,,,,,,,,,,,,,,,,,,,,,,,,,,,,,,,,,,,,,,,,,,,,2,0.6996541999978945,399.37279649998527,None,ScrollUp,정답입니다,399.37279649998527,None,399.37279649998527,None,399.37279649998527,None,399.37279649998527,None,399.98753470001975,None,399.98753470001975,400.48754529998405,,,,,,,,,,,,,,,,103,2023-04-20_14h54.19.557,FishGame,2022.1.1,60.081566733583955,
,1,넌 매력적이야,2,Green,B,6.125,4.666666666666667,ScrollUp,ScrollDown,Green.png,4,Positive,Incongruent,0,0,0,0,,,,,,,,,,,,,,,,,,,,,,,,,0,0,0,0,,,,,,,,,,,,,,,,,,,,,,,,,,,,,,,,432.06807700003264,433.5703759000171,433.60369010001887,434.55365330004133,434.6036595000187,435.55362170003355,435.55362170003355,None,,,,,,,,,,,,,,,,,,,,,,,,,,,,,,,,,,1.5725308619439602,0.7951480000047013,436.63417590002064,None,ScrollUp,정답입니다,436.63417590002064,None,436.63417590002064,None,436.63417590002064,None,436.63417590002064,None,437.33673690003343,None,437.33673690003343,437.83674300002167,400.9875092000002,None,400.9875092000002,None,-0.0037037036,-0.09074074,1,0,0,0.016408430004958063,None,431.00339770002756,None,,,103,2023-04-20_14h54.19.557,FishGame,2022.1.1,60.081566733583955,
,2,나를 보내줘,6,Orange,A,0,0,ScrollUp,ScrollDown,Orange.png,4,NonTarget,NonTarget,0,0,0,0,,,,,,,,,,,,,,,,,,,,,,,,,0,1,1,1,,,,,,,,,,,,,,,,,,,,,,,,,,,,,,,,,,,,,,,,,,,,,,,,,,,,,,,,,,,,,,,,,,,,,,,,,1.7901234477758408,0.826203600037843,438.4484498000238,None,ScrollUp,정답입니다,438.4484498000238,None,438.4484498000238,None,438.4484498000238,None,438.4484498000238,None,439.1843622000306,None,439.1843622000306,439.6843516000081,,,,,,,,,,,,,,,,103,2023-04-20_14h54.19.557,FishGame,2022.1.1,60.081566733583955,
,3,넌 조심스러워,3,Orange,A,4.791666666666666,4.666666666666667,ScrollDown,ScrollUp,Orange.png,4,Neutral,Neutral,0,0,0,0,,,,,,,,,,,,,,,,,,,,,,,,,0,2,2,2,,,,,,,,,,,,,,,,,,,,,,,,,,,,,,,,,,,,,,,,,,,,,,,,,,,,,,,,,,,,,,,,,,,,,,,,,1.2376543283462524,0.6972652000258677,440.2894895999925,None,ScrollDown,정답입니다,440.2894895999925,None,440.2894895999925,None,440.2894895999925,None,440.2894895999925,None,440.90104170003906,None,440.90104170003906,441.40343569999095,,,,,,,,,,,,,,,,103,2023-04-20_14h54.19.557,FishGame,2022.1.1,60.081566733583955,
,4,넌 철학적이야,3,Green,B,4.5,4.266666666666667,ScrollUp,ScrollDown,Green.png,4,Neutral,Neutral,0,0,0,0,,,,,,,,,,,,,,,,,,,,,,,,,0,3,3,3,,,,,,,,,,,,,,,,,,,,,,,,,,,,,,,,,,,,,,,,,,,,,,,,,,,,,,,,,,,,,,,,,,,,,,,,,1.6975308607021966,0.6151270999689586,442.0111363999895,None,ScrollUp,정답입니다,442.0111363999895,None,442.0111363999895,None,442.0111363999895,None,442.0111363999895,None,442.5368921000045,None,442.5368921000045,443.03671439999016,,,,,,,,,,,,,,,,103,2023-04-20_14h54.19.557,FishGame,2022.1.1,60.081566733583955,
,5,넌 쩨쩨해,5,Orange,A,2.375,2.133333333333333,ScrollDown,ScrollUp,Orange.png,4,Negative,Incongruent,0,0,0,0,,,,,,,,,,,,,,,,,,,,,,,,,0,4,4,4,,,,,,,,,,,,,,,,,,,,,,,,,,,,,,,,,,,,,,,,,,,,,,,,,,,,,,,,,,,,,,,,,,,,,,,,,1.194444437821706,0.7608207000303082,443.65204320003977,None,ScrollDown,정답입니다,443.65204320003977,None,443.65204320003977,None,443.65204320003977,None,443.65204320003977,None,444.3176298000035,None,444.3176298000035,444.8175775000127,,,,,,,,,,,,,,,,103,2023-04-20_14h54.19.557,FishGame,2022.1.1,60.081566733583955,
,6,나를 데려가줘,6,Green,B,0,0,ScrollDown,ScrollUp,Green.png,4,NonTarget,NonTarget,0,0,0,0,,,,,,,,,,,,,,,,,,,,,,,,,0,5,5,5,,,,,,,,,,,,,,,,,,,,,,,,,,,,,,,,,,,,,,,,,,,,,,,,,,,,,,,,,,,,,,,,,,,,,,,,,1.2438271592060726,0.8493654999765567,445.4197114999988,None,ScrollDown,정답입니다,445.4197114999988,None,445.4197114999988,None,445.4197114999988,None,445.4197114999988,None,446.18429220002145,None,446.18429220002145,446.686644100002,,,,,,,,,,,,,,,,103,2023-04-20_14h54.19.557,FishGame,2022.1.1,60.081566733583955,
,7,넌 고집불통이야,5,Green,B,2.875,2,ScrollUp,ScrollDown,Green.png,4,Negative,Congruent,0,0,0,0,,,,,,,,,,,,,,,,,,,,,,,,,0,6,6,6,,,,,,,,,,,,,,,,,,,,,,,,,,,,,,,,,,,,,,,,,,,,,,,,,,,,,,,,,,,,,,,,,,,,,,,,,1.7746913582086563,0.6164194000302814,447.291980500042,None,ScrollUp,정답입니다,447.291980500042,None,447.291980500042,None,447.291980500042,None,447.291980500042,None,447.8200499000377,None,447.8200499000377,448.31999600003473,,,,,,,,,,,,,,,,103,2023-04-20_14h54.19.557,FishGame,2022.1.1,60.081566733583955,
,8,넌 무심해,4,Orange,A,2.875,3.2,ScrollDown,ScrollUp,Orange.png,4,Negative,Incongruent,0,0,0,0,,,,,,,,,,,,,,,,,,,,,,,,,0,7,7,7,,,,,,,,,,,,,,,,,,,,,,,,,,,,,,,,,,,,,,,,,,,,,,,,,,,,,,,,,,,,,,,,,,,,,,,,,1.3626543208956718,0.5638889000401832,448.924568300019,None,ScrollDown,정답입니다,448.924568300019,None,448.924568300019,None,448.924568300019,None,448.924568300019,None,449.40082000003895,None,449.40082000003895,449.9009867000277,,,,,,,,,,,,,,,,103,2023-04-20_14h54.19.557,FishGame,2022.1.1,60.081566733583955,
,9,넌 정겨워,1,Orange,A,5.791666666666667,5.666666666666667,ScrollDown,ScrollUp,Orange.png,4,Positive,Congruent,0,0,0,0,,,,,,,,,,,,,,,,,,,,,,,,,0,8,8,8,,,,,,,,,,,,,,,,,,,,,,,,,,,,,,,,,,,,,,,,,,,,,,,,,,,,,,,,,,,,,,,,,,,,,,,,,1.266975318392118,1.1991536000277847,450.5119399999967,None,ScrollDown,정답입니다,450.5119399999967,None,450.5119399999967,None,450.5119399999967,None,450.5119399999967,None,451.61750019999454,None,451.61750019999454,452.1199218000402,,,,,,,,,,,,,,,,103,2023-04-20_14h54.19.557,FishGame,2022.1.1,60.081566733583955,
,10,나를 데려가줘,6,Green,B,0,0,ScrollDown,ScrollUp,Green.png,4,NonTarget,NonTarget,0,0,0,0,,,,,,,,,,,,,,,,,,,,,,,,,0,9,9,9,,,,,,,,,,,,,,,,,,,,,,,,,,,,,,,,,,,,,,,,,,,,,,,,,,,,,,,,,,,,,,,,,,,,,,,,,1.3827160522341728,0.7984701000386849,452.7212789999903,None,ScrollDown,정답입니다,452.7212789999903,None,452.7212789999903,None,452.7212789999903,None,452.7212789999903,None,453.4366157000186,None,453.4366157000186,453.93977639998775,,,,,,,,,,,,,,,,103,2023-04-20_14h54.19.557,FishGame,2022.1.1,60.081566733583955,
,11,넌 체제순응적이야,4,Green,B,3,3.6,ScrollUp,ScrollDown,Green.png,4,Negative,Congruent,0,0,0,0,,,,,,,,,,,,,,,,,,,,,,,,,0,10,10,10,,,,,,,,,,,,,,,,,,,,,,,,,,,,,,,,,,,,,,,,,,,,,,,,,,,,,,,,,,,,,,,,,,,,,,,,,1.904320980111758,0.6978482999838889,454.5507055000053,None,ScrollUp,정답입니다,454.5507055000053,None,454.5507055000053,None,454.5507055000053,None,454.5507055000053,None,455.15311230003135,None,455.15311230003135,455.6530276000267,,,,,,,,,,,,,,,,103,2023-04-20_14h54.19.557,FishGame,2022.1.1,60.081566733583955,
,12,나를 보내줘,6,Orange,A,0,0,ScrollUp,ScrollDown,Orange.png,4,NonTarget,NonTarget,0,0,0,0,,,,,,,,,,,,,,,,,,,,,,,,,0,11,11,11,,,,,,,,,,,,,,,,,,,,,,,,,,,,,,,,,,,,,,,,,,,,,,,,,,,,,,,,,,,,,,,,,,,,,,,,,1.7808641890684764,0.8794238999835216,456.26523469999665,None,ScrollUp,정답입니다,456.26523469999665,None,456.26523469999665,None,456.26523469999665,None,456.26523469999665,None,457.0530457000132,None,457.0530457000132,457.5529628000222,,,,,,,,,,,,,,,,103,2023-04-20_14h54.19.557,FishGame,2022.1.1,60.081566733583955,
,13,넌 박식해,2,Orange,A,5.625,3.933333333333333,ScrollDown,ScrollUp,Orange.png,4,Positive,Congruent,0,0,0,0,,,,,,,,,,,,,,,,,,,,,,,,,0,12,12,12,,,,,,,,,,,,,,,,,,,,,,,,,,,,,,,,,,,,,,,,,,,,,,,,,,,,,,,,,,,,,,,,,,,,,,,,,1.2361111144224803,0.7481523999595083,458.1607806000393,None,ScrollDown,정답입니다,458.1607806000393,None,458.1607806000393,None,458.1607806000393,None,458.1607806000393,None,458.8195894000237,None,458.8195894000237,459.319548200001,,,,,,,,,,,,,,,,103,2023-04-20_14h54.19.557,FishGame,2022.1.1,60.081566733583955,
,14,나를 보내줘,6,Orange,A,0,0,ScrollUp,ScrollDown,Orange.png,4,NonTarget,NonTarget,0,0,0,0,,,,,,,,,,,,,,,,,,,,,,,,,0,13,13,13,,,,,,,,,,,,,,,,,,,,,,,,,,,,,,,,,,,,,,,,,,,,,,,,,,,,,,,,,,,,,,,,,,,,,,,,,1.6496913532416024,0.8150078000035137,459.92528700002003,None,ScrollUp,정답입니다,459.92528700002003,None,459.92528700002003,None,459.92528700002003,None,459.92528700002003,None,460.65089009999065,None,460.65089009999065,461.1529106000089,,,,,,,,,,,,,,,,103,2023-04-20_14h54.19.557,FishGame,2022.1.1,60.081566733583955,
,15,넌 침착해,1,Green,B,5.458333333333333,5.566666666666666,ScrollUp,ScrollDown,Green.png,4,Positive,Incongruent,0,0,0,0,,,,,,,,,,,,,,,,,,,,,,,,,0,14,14,14,,,,,,,,,,,,,,,,,,,,,,,,,,,,,,,,,,,,,,,,,,,,,,,,,,,,,,,,,,,,,,,,,,,,,,,,,1.5817901206513247,0.71289969998179,461.7571258000098,None,ScrollUp,정답입니다,461.7571258000098,None,461.7571258000098,None,461.7571258000098,None,461.7571258000098,None,462.38626200001454,None,462.38626200001454,462.88626950001344,,,,,,,,,,,,,,,,103,2023-04-20_14h54.19.557,FishGame,2022.1.1,60.081566733583955,
,16,나를 데려가줘,6,Green,B,0,0,ScrollDown,ScrollUp,Green.png,4,NonTarget,NonTarget,0,0,0,0,,,,,,,,,,,,,,,,,,,,,,,,,0,15,15,15,,,,,,,,,,,,,,,,,,,,,,,,,,,,,,,,,,,,,,,,,,,,,,,,,,,,,,,,,,,,,,,,,,,,,,,,,1.5864197500050068,0.7461136999772862,463.4946043000091,None,ScrollUp,오답입니다,463.4946043000091,None,463.4946043000091,None,463.4946043000091,None,463.4946043000091,None,464.15085600002203,None,464.15085600002203,464.6528217000305,,,,,,,,,,,,,,,,103,2023-04-20_14h54.19.557,FishGame,2022.1.1,60.081566733583955,
,17,넌 행복해,1,Orange,A,6.416666666666666,6.166666666666667,ScrollDown,ScrollUp,Orange.png,4,Positive,Congruent,0,0,0,0,,,,,,,,,,,,,,,,,,,,,,,,,0,16,16,16,,,,,,,,,,,,,,,,,,,,,,,,,,,,,,,,,,,,,,,,,,,,,,,,,,,,,,,,,,,,,,,,,,,,,,,,,1.2253086417913437,1.014930600009393,465.2633930000011,None,ScrollDown,정답입니다,465.2633930000011,None,465.2633930000011,None,465.2633930000011,None,465.2633930000011,None,466.18619460001355,None,466.18619460001355,466.6861515000346,,,,,,,,,,,,,,,,103,2023-04-20_14h54.19.557,FishGame,2022.1.1,60.081566733583955,
,18,넌 겸손해,2,Green,B,5.791666666666667,4.766666666666667,ScrollUp,ScrollDown,Green.png,4,Positive,Incongruent,0,0,0,0,,,,,,,,,,,,,,,,,,,,,,,,,0,17,17,17,,,,,,,,,,,,,,,,,,,,,,,,,,,,,,,,,,,,,,,,,,,,,,,,,,,,,,,,,,,,,,,,,,,,,,,,,1.5756172835826874,0.7812017999822274,467.2952786000096,None,ScrollUp,정답입니다,467.2952786000096,None,467.2952786000096,None,467.2952786000096,None,467.2952786000096,None,467.9861159999855,None,467.9861159999855,468.4860648000031,,,,,,,,,,,,,,,,103,2023-04-20_14h54.19.557,FishGame,2022.1.1,60.081566733583955,
,19,나를 보내줘,6,Orange,A,0,0,ScrollUp,ScrollDown,Orange.png,4,NonTarget,NonTarget,0,0,0,0,,,,,,,,,,,,,,,,,,,,,,,,,0,18,18,18,,,,,,,,,,,,,,,,,,,,,,,,,,,,,,,,,,,,,,,,,,,,,,,,,,,,,,,,,,,,,,,,,,,,,,,,,1.9089506218830745,0.833463299961295,469.09027670003707,None,ScrollUp,정답입니다,469.09027670003707,None,469.09027670003707,None,469.09027670003707,None,469.09027670003707,None,469.83403309999267,None,469.83403309999267,470.33600780001143,,,,,,,,,,,,,,,,103,2023-04-20_14h54.19.557,FishGame,2022.1.1,60.081566733583955,
,20,넌 의심없어,3,Orange,A,4.166666666666667,4.6,ScrollDown,ScrollUp,Orange.png,4,Neutral,Neutral,0,0,0,0,,,,,,,,,,,,,,,,,,,,,,,,,0,19,19,19,,,,,,,,,,,,,,,,,,,,,,,,,,,,,,,,,,,,,,,,,,,,,,,,,,,,,,,,,,,,,,,,,,,,,,,,,1.253086417913437,0.7646846999996342,470.9429259999888,None,ScrollDown,정답입니다,470.9429259999888,None,470.9429259999888,None,470.9429259999888,None,470.9429259999888,None,471.61946830002125,None,471.61946830002125,472.11939559999155,,,,,,,,,,,,,,,,103,2023-04-20_14h54.19.557,FishGame,2022.1.1,60.081566733583955,
,21,넌 시시해,4,Orange,A,2.666666666666667,2.966666666666667,ScrollDown,ScrollUp,Orange.png,4,Negative,Incongruent,0,0,0,0,,,,,,,,,,,,,,,,,,,,,,,,,0,20,20,20,,,,,,,,,,,,,,,,,,,,,,,,,,,,,,,,,,,,,,,,,,,,,,,,,,,,,,,,,,,,,,,,,,,,,,,,,1.296296296020349,0.7128496999503113,472.7226849999861,None,ScrollDown,정답입니다,472.7226849999861,None,472.7226849999861,None,472.7226849999861,None,472.7226849999861,None,473.35057479998795,None,473.35057479998795,473.8525798000046,,,,,,,,,,,,,,,,103,2023-04-20_14h54.19.557,FishGame,2022.1.1,60.081566733583955,
,22,나를 데려가줘,6,Green,B,0,0,ScrollDown,ScrollUp,Green.png,4,NonTarget,NonTarget,0,0,0,0,,,,,,,,,,,,,,,,,,,,,,,,,0,21,21,21,,,,,,,,,,,,,,,,,,,,,,,,,,,,,,,,,,,,,,,,,,,,,,,,,,,,,,,,,,,,,,,,,,,,,,,,,1.31635802735885,0.8000052999705076,474.4573423000402,None,ScrollDown,정답입니다,474.4573423000402,None,474.4573423000402,None,474.4573423000402,None,474.4573423000402,None,475.1693327000248,None,475.1693327000248,475.66930670000147,,,,,,,,,,,,,,,,103,2023-04-20_14h54.19.557,FishGame,2022.1.1,60.081566733583955,
,23,넌 무정해,5,Orange,A,2.5,2.2,ScrollDown,ScrollUp,Orange.png,4,Negative,Incongruent,0,0,0,0,,,,,,,,,,,,,,,,,,,,,,,,,0,22,22,22,,,,,,,,,,,,,,,,,,,,,,,,,,,,,,,,,,,,,,,,,,,,,,,,,,,,,,,,,,,,,,,,,,,,,,,,,1.3425925895571709,0.7501661999849603,476.27213310002116,None,ScrollDown,정답입니다,476.27213310002116,None,476.27213310002116,None,476.27213310002116,None,476.27213310002116,None,476.9389571000356,None,476.9389571000356,477.45254640001804,,,,,,,,,,,,,,,,103,2023-04-20_14h54.19.557,FishGame,2022.1.1,60.081566733583955,
,24,넌 긍정적이야,1,Green,B,6.041666666666667,6.066666666666666,ScrollUp,ScrollDown,Green.png,4,Positive,Incongruent,0,0,0,0,,,,,,,,,,,,,,,,,,,,,,,,,0,23,23,23,,,,,,,,,,,,,,,,,,,,,,,,,,,,,,,,,,,,,,,,,,,,,,,,,,,,,,,,,,,,,,,,,,,,,,,,,1.540123456468185,0.6296672999742441,478.0574647000176,None,NoResponse,무응답입니다,478.0574647000176,None,478.0574647000176,None,478.0574647000176,None,478.0574647000176,None,478.60048790002475,None,478.60048790002475,479.10249040002236,,,,,,,,,,,,,,,,103,2023-04-20_14h54.19.557,FishGame,2022.1.1,60.081566733583955,
,25,나를 보내줘,6,Orange,A,0,0,ScrollUp,ScrollDown,Orange.png,4,NonTarget,NonTarget,0,0,0,0,,,,,,,,,,,,,,,,,,,,,,,,,0,24,24,24,,,,,,,,,,,,,,,,,,,,,,,,,,,,,,,,,,,,,,,,,,,,,,,,,,,,,,,,,,,,,,,,,,,,,,,,,2,0.94997830002103,479.7089949999936,None,ScrollUp,정답입니다,479.7089949999936,None,479.7089949999936,None,479.7089949999936,None,479.7089949999936,None,480.5693082000362,None,480.5693082000362,481.06918039999437,,,,,,,,,,,,,,,,103,2023-04-20_14h54.19.557,FishGame,2022.1.1,60.081566733583955,
,26,넌 시기심이 많아,5,Green,B,2.458333333333333,2.233333333333333,ScrollUp,ScrollDown,Green.png,4,Negative,Congruent,0,0,0,0,,,,,,,,,,,,,,,,,,,,,,,,,0,25,25,25,,,,,,,,,,,,,,,,,,,,,,,,,,,,,,,,,,,,,,,,,,,,,,,,,,,,,,,,,,,,,,,,,,,,,,,,,1.9367283980051677,0.8390922999824397,481.67489190003835,None,ScrollUp,정답입니다,481.67489190003835,None,481.67489190003835,None,481.67489190003835,None,481.67489190003835,None,482.42915570002515,None,482.42915570002515,482.9357314000372,,,,,,,,,,,,,,,,103,2023-04-20_14h54.19.557,FishGame,2022.1.1,60.081566733583955,
,27,넌 탁월해,2,Orange,A,5.708333333333334,4.5,ScrollDown,ScrollUp,Orange.png,4,Positive,Congruent,0,0,0,0,,,,,,,,,,,,,,,,,,,,,,,,,0,26,26,26,,,,,,,,,,,,,,,,,,,,,,,,,,,,,,,,,,,,,,,,,,,,,,,,,,,,,,,,,,,,,,,,,,,,,,,,,1.194444437821706,0.6838767000008374,483.5460919000325,None,ScrollDown,정답입니다,483.5460919000325,None,483.5460919000325,None,483.5460919000325,None,483.5460919000325,None,484.1336935000145,None,484.1336935000145,484.6357351000188,,,,,,,,,,,,,,,,103,2023-04-20_14h54.19.557,FishGame,2022.1.1,60.081566733583955,
,28,나를 데려가줘,6,Green,B,0,0,ScrollDown,ScrollUp,Green.png,4,NonTarget,NonTarget,0,0,0,0,,,,,,,,,,,,,,,,,,,,,,,,,0,27,27,27,,,,,,,,,,,,,,,,,,,,,,,,,,,,,,,,,,,,,,,,,,,,,,,,,,,,,,,,,,,,,,,,,,,,,,,,,1.1126543233791988,0.7814372999710031,485.24023350002244,None,ScrollDown,정답입니다,485.24023350002244,None,485.24023350002244,None,485.24023350002244,None,485.24023350002244,None,485.93576050002594,None,485.93576050002594,486.4357015999849,,,,,,,,,,,,,,,,103,2023-04-20_14h54.19.557,FishGame,2022.1.1,60.081566733583955,
,29,넌 조용해,3,Green,B,4.333333333333333,4.166666666666667,ScrollUp,ScrollDown,Green.png,4,Neutral,Neutral,0,0,0,0,,,,,,,,,,,,,,,,,,,,,,,,,0,28,28,28,,,,,,,,,,,,,,,,,,,,,,,,,,,,,,,,,,,,,,,,,,,,,,,,,,,,,,,,,,,,,,,,,,,,,,,,,1.6250000049670539,0.9500817999942228,487.0405000000028,None,ScrollUp,정답입니다,487.0405000000028,None,487.0405000000028,None,487.0405000000028,None,487.0405000000028,None,487.9023945000372,None,487.9023945000372,488.41898930002935,,,,,,,,,,,,,,,,103,2023-04-20_14h54.19.557,FishGame,2022.1.1,60.081566733583955,
,30,넌 다정해,1,Orange,A,5.833333333333334,5.7,ScrollDown,ScrollUp,Orange.png,4,Positive,Congruent,0,0,0,0,,,,,,,,,,,,,,,,,,,,,,,,,0,29,29,29,,,,,,,,,,,,,,,,,,,,,,,,,,,,,,,,,,,,,,,,,,,,,,,,,,,,,,,,,,,,,,,,,,,,,,,,,1.320987656712532,0.6978537000250071,489.0101441000006,None,ScrollDown,정답입니다,489.0101441000006,None,489.0101441000006,None,489.0101441000006,None,489.0101441000006,None,489.6169113999931,None,489.6169113999931,490.1189385000034,,,,,,,,,,,,,,,,103,2023-04-20_14h54.19.557,FishGame,2022.1.1,60.081566733583955,
,31,넌 능력있어,2,Green,B,6.166666666666666,4.6,ScrollUp,ScrollDown,Green.png,4,Positive,Incongruent,0,0,0,0,,,,,,,,,,,,,,,,,,,,,,,,,0,30,30,30,,,,,,,,,,,,,,,,,,,,,,,,,,,,,,,,,,,,,,,,,,,,,,,,,,,,,,,,,,,,,,,,,,,,,,,,,1.7716049303611119,0.8167070000199601,490.71990510000614,None,ScrollUp,정답입니다,490.71990510000614,None,490.71990510000614,None,490.71990510000614,None,490.71990510000614,None,491.45227830001386,None,491.45227830001386,491.95229280000785,,,,,,,,,,,,,,,,103,2023-04-20_14h54.19.557,FishGame,2022.1.1,60.081566733583955,
,32,넌 불쾌해,5,Orange,A,2.125,1.933333333333333,ScrollDown,ScrollUp,Orange.png,4,Negative,Incongruent,0,0,0,0,,,,,,,,,,,,,,,,,,,,,,,,,0,31,31,31,,,,,,,,,,,,,,,,,,,,,,,,,,,,,,,,,,,,,,,,,,,,,,,,,,,,,,,,,,,,,,,,,,,,,,,,,1.1882716069618862,0.683295700000599,492.55635930004064,None,ScrollDown,정답입니다,492.55635930004064,None,492.55635930004064,None,492.55635930004064,None,492.55635930004064,None,493.1523632000317,None,493.1523632000317,493.65219120000256,,,,,,,,,,,,,,,,103,2023-04-20_14h54.19.557,FishGame,2022.1.1,60.081566733583955,
,33,나를 데려가줘,6,Green,B,0,0,ScrollDown,ScrollUp,Green.png,4,NonTarget,NonTarget,0,0,0,0,,,,,,,,,,,,,,,,,,,,,,,,,0,32,32,32,,,,,,,,,,,,,,,,,,,,,,,,,,,,,,,,,,,,,,,,,,,,,,,,,,,,,,,,,,,,,,,,,,,,,,,,,1.0509259402751923,0.7834039999870583,494.2568516000174,None,ScrollDown,정답입니다,494.2568516000174,None,494.2568516000174,None,494.2568516000174,None,494.2568516000174,None,494.950154900027,None,494.950154900027,495.45211449998897,,,,,,,,,,,,,,,,103,2023-04-20_14h54.19.557,FishGame,2022.1.1,60.081566733583955,
,34,넌 유순해,3,Orange,A,4.458333333333333,5,ScrollDown,ScrollUp,Orange.png,4,Neutral,Neutral,0,0,0,0,,,,,,,,,,,,,,,,,,,,,,,,,0,33,33,33,,,,,,,,,,,,,,,,,,,,,,,,,,,,,,,,,,,,,,,,,,,,,,,,,,,,,,,,,,,,,,,,,,,,,,,,,1.2700617214043937,0.6665452999877743,496.05687979998766,None,ScrollDown,정답입니다,496.05687979998766,None,496.05687979998766,None,496.05687979998766,None,496.05687979998766,None,496.635569999984,None,496.635569999984,497.1354873999953,,,,,,,,,,,,,,,,103,2023-04-20_14h54.19.557,FishGame,2022.1.1,60.081566733583955,
,35,넌 근심스러워,4,Green,B,2.708333333333333,3.133333333333333,ScrollUp,ScrollDown,Green.png,4,Negative,Congruent,0,0,0,0,,,,,,,,,,,,,,,,,,,,,,,,,0,34,34,34,,,,,,,,,,,,,,,,,,,,,,,,,,,,,,,,,,,,,,,,,,,,,,,,,,,,,,,,,,,,,,,,,,,,,,,,,1.6435185223817825,0.700230099959299,497.7431186999893,None,ScrollUp,정답입니다,497.7431186999893,None,497.7431186999893,None,497.7431186999893,None,497.7431186999893,None,498.35028690000763,None,498.35028690000763,498.85222520004027,,,,,,,,,,,,,,,,103,2023-04-20_14h54.19.557,FishGame,2022.1.1,60.081566733583955,
,36,넌 세련되었어,2,Orange,A,5.5,4.6,ScrollDown,ScrollUp,Orange.png,4,Positive,Congruent,0,0,0,0,,,,,,,,,,,,,,,,,,,,,,,,,0,35,35,35,,,,,,,,,,,,,,,,,,,,,,,,,,,,,,,,,,,,,,,,,,,,,,,,,,,,,,,,,,,,,,,,,,,,,,,,,1.1172839403152466,0.7481469999765977,499.46117710002,None,ScrollDown,정답입니다,499.46117710002,None,499.46117710002,None,499.46117710002,None,499.46117710002,None,500.118718200014,None,500.118718200014,500.61871960002463,,,,,,,,,,,,,,,,103,2023-04-20_14h54.19.557,FishGame,2022.1.1,60.081566733583955,
,37,나를 보내줘,6,Orange,A,0,0,ScrollUp,ScrollDown,Orange.png,4,NonTarget,NonTarget,0,0,0,0,,,,,,,,,,,,,,,,,,,,,,,,,0,36,36,36,,,,,,,,,,,,,,,,,,,,,,,,,,,,,,,,,,,,,,,,,,,,,,,,,,,,,,,,,,,,,,,,,,,,,,,,,1.7638888855775197,0.7982658999972045,501.22294589999365,None,ScrollUp,정답입니다,501.22294589999365,None,501.22294589999365,None,501.22294589999365,None,501.22294589999365,None,501.9354493999854,None,501.9354493999854,502.4354398000287,,,,,,,,,,,,,,,,103,2023-04-20_14h54.19.557,FishGame,2022.1.1,60.081566733583955,
,38,넌 확고해,3,Green,B,4.708333333333334,4.566666666666666,ScrollUp,ScrollDown,Green.png,4,Neutral,Neutral,0,0,0,0,,,,,,,,,,,,,,,,,,,,,,,,,0,37,37,37,,,,,,,,,,,,,,,,,,,,,,,,,,,,,,,,,,,,,,,,,,,,,,,,,,,,,,,,,,,,,,,,,,,,,,,,,1.9429012537002563,0.6810066000325605,503.0420286000008,None,ScrollUp,정답입니다,503.0420286000008,None,503.0420286000008,None,503.0420286000008,None,503.0420286000008,None,503.63305380003294,None,503.63305380003294,504.13317200000165,,,,,,,,,,,,,,,,103,2023-04-20_14h54.19.557,FishGame,2022.1.1,60.081566733583955,
,39,넌 이해심이 많아,1,Green,B,6.041666666666668,5.533333333333333,ScrollUp,ScrollDown,Green.png,4,Positive,Incongruent,0,0,0,0,,,,,,,,,,,,,,,,,,,,,,,,,0,38,38,38,,,,,,,,,,,,,,,,,,,,,,,,,,,,,,,,,,,,,,,,,,,,,,,,,,,,,,,,,,,,,,,,,,,,,,,,,1.8410493830839794,0.6635095000383444,504.73417640000116,None,ScrollUp,정답입니다,504.73417640000116,None,504.73417640000116,None,504.73417640000116,None,504.73417640000116,None,505.3163333000266,None,505.3163333000266,505.81878690002486,,,,,,,,,,,,,,,,103,2023-04-20_14h54.19.557,FishGame,2022.1.1,60.081566733583955,
,40,나를 보내줘,6,Orange,A,0,0,ScrollUp,ScrollDown,Orange.png,4,NonTarget,NonTarget,0,0,0,0,,,,,,,,,,,,,,,,,,,,,,,,,0,39,39,39,,,,,,,,,,,,,,,,,,,,,,,,,,,,,,,,,,,,,,,,,,,,,,,,,,,,,,,,,,,,,,,,,,,,,,,,,1.9135802388191223,0.8668630999745801,506.423260200012,None,ScrollUp,정답입니다,506.423260200012,None,506.423260200012,None,506.423260200012,None,506.423260200012,None,507.20219580002595,None,507.20219580002595,507.70207520003896,,,,,,,,,,,,,,,,103,2023-04-20_14h54.19.557,FishGame,2022.1.1,60.081566733583955,
,41,넌 거칠어,4,Orange,A,2.625,3.033333333333333,ScrollDown,ScrollUp,Orange.png,4,Negative,Incongruent,0,0,0,0,,,,,,,,,,,,,,,,,,,,,,,,,0,40,40,40,,,,,,,,,,,,,,,,,,,,,,,,,,,,,,,,,,,,,,,,,,,,,,,,,,,,,,,,,,,,,,,,,,,,,,,,,1.200617293516795,0.907970700005535,508.324950899987,None,ScrollDown,정답입니다,508.324950899987,None,508.324950899987,None,508.324950899987,None,508.324950899987,None,509.1329884000006,None,509.1329884000006,509.63307029998396,,,,,,,,,,,,,,,,103,2023-04-20_14h54.19.557,FishGame,2022.1.1,60.081566733583955,
,42,넌 변덕맞아,5,Green,B,2.75,2.166666666666667,ScrollUp,ScrollDown,Green.png,4,Negative,Congruent,0,0,0,0,,,,,,,,,,,,,,,,,,,,,,,,,0,41,41,41,,,,,,,,,,,,,,,,,,,,,,,,,,,,,,,,,,,,,,,,,,,,,,,,,,,,,,,,,,,,,,,,,,,,,,,,,1.7299382785956063,0.6831394000328146,510.2377936000121,None,ScrollUp,정답입니다,510.2377936000121,None,510.2377936000121,None,510.2377936000121,None,510.2377936000121,None,510.832963199995,None,510.832963199995,511.3353738000151,,,,,,,,,,,,,,,,103,2023-04-20_14h54.19.557,FishGame,2022.1.1,60.081566733583955,
,43,나를 데려가줘,6,Green,B,0,0,ScrollDown,ScrollUp,Green.png,4,NonTarget,NonTarget,0,0,0,0,,,,,,,,,,,,,,,,,,,,,,,,,0,42,42,42,,,,,,,,,,,,,,,,,,,,,,,,,,,,,,,,,,,,,,,,,,,,,,,,,,,,,,,,,,,,,,,,,,,,,,,,,1.1064814925193787,0.7984436999540776,511.9399907999905,None,ScrollDown,정답입니다,511.9399907999905,None,511.9399907999905,None,511.9399907999905,None,511.9399907999905,None,512.6522153000114,None,512.6522153000114,513.1520719000255,,,,,,,,,,,,,,,,103,2023-04-20_14h54.19.557,FishGame,2022.1.1,60.081566733583955,
,44,넌 외로워,4,Green,B,2.833333333333333,3.3,ScrollUp,ScrollDown,Green.png,4,Negative,Congruent,0,0,0,0,,,,,,,,,,,,,,,,,,,,,,,,,0,43,43,43,,,,,,,,,,,,,,,,,,,,,,,,,,,,,,,,,,,,,,,,,,,,,,,,,,,,,,,,,,,,,,,,,,,,,,,,,1.9660493632157643,0.692511499975808,513.7641706999857,None,ScrollUp,정답입니다,513.7641706999857,None,513.7641706999857,None,513.7641706999857,None,513.7641706999857,None,514.3661488000071,None,514.3661488000071,514.8661502000177,,,,,,,,,,,,,,,,103,2023-04-20_14h54.19.557,FishGame,2022.1.1,60.081566733583955,
,1,넌 불평스러워,5,Orange,A,2.25,2.066666666666667,ScrollDown,ScrollUp,Orange.png,5,Negative,Incongruent,0,0,0,0,,,,,,,,,,,,,,,,,,,,,,,,,,,,,0,0,0,0,,,,,,,,,,,,,,,,,,,,,,,,,,,,545.4679662000271,546.9680167000042,547.0013332000235,547.9543049000204,548.0044560999959,548.967999799992,548.9512833000044,None,,,,,,,,,,,,,,,,,,,,,,,,,,,,,,,,,,1.2592592487732568,1.468228599987924,550.0428189000231,None,ScrollDown,정답입니다,550.0428189000231,None,550.0428189000231,None,550.0428189000231,None,550.0428189000231,None,551.4153919999953,None,551.4153919999953,551.91538760002,515.3661830000347,None,515.3661830000347,None,0.7037037,0.037962962,1,0,0,0.016255329945124686,None,545.3678100000252,None,,,103,2023-04-20_14h54.19.557,FishGame,2022.1.1,60.081566733583955,
,2,나를 보내줘,6,Orange,A,0,0,ScrollUp,ScrollDown,Orange.png,5,NonTarget,NonTarget,0,0,0,0,,,,,,,,,,,,,,,,,,,,,,,,,,,,,0,1,1,1,,,,,,,,,,,,,,,,,,,,,,,,,,,,,,,,,,,,,,,,,,,,,,,,,,,,,,,,,,,,,,,,,,,,,1.8209876517454784,0.8359464000095613,552.5225425999961,None,ScrollUp,정답입니다,552.5225425999961,None,552.5225425999961,None,552.5225425999961,None,552.5225425999961,None,553.2678901000181,None,553.2678901000181,553.767843300011,,,,,,,,,,,,,,,,103,2023-04-20_14h54.19.557,FishGame,2022.1.1,60.081566733583955,
,3,넌 다재다능해,2,Green,B,6.208333333333333,4.5,ScrollUp,ScrollDown,Green.png,5,Positive,Incongruent,0,0,0,0,,,,,,,,,,,,,,,,,,,,,,,,,,,,,0,2,2,2,,,,,,,,,,,,,,,,,,,,,,,,,,,,,,,,,,,,,,,,,,,,,,,,,,,,,,,,,,,,,,,,,,,,,1.8209876517454784,0.714938200020697,554.370035000029,None,ScrollUp,정답입니다,554.370035000029,None,554.370035000029,None,554.370035000029,None,554.370035000029,None,555.0012727000285,None,555.0012727000285,555.5010089999996,,,,,,,,,,,,,,,,103,2023-04-20_14h54.19.557,FishGame,2022.1.1,60.081566733583955,
,4,넌 과감해,3,Orange,A,4.833333333333334,4.6,ScrollDown,ScrollUp,Orange.png,5,Neutral,Neutral,0,0,0,0,,,,,,,,,,,,,,,,,,,,,,,,,,,,,0,3,3,3,,,,,,,,,,,,,,,,,,,,,,,,,,,,,,,,,,,,,,,,,,,,,,,,,,,,,,,,,,,,,,,,,,,,,1.2206790000200272,0.6979071999667212,556.1053220999893,None,ScrollDown,정답입니다,556.1053220999893,None,556.1053220999893,None,556.1053220999893,None,556.1053220999893,None,556.7156067999895,None,556.7156067999895,557.2176227000309,,,,,,,,,,,,,,,,103,2023-04-20_14h54.19.557,FishGame,2022.1.1,60.081566733583955,
,5,넌 고분고분해,3,Green,B,3.75,4.033333333333333,ScrollUp,ScrollDown,Green.png,5,Neutral,Neutral,0,0,0,0,,,,,,,,,,,,,,,,,,,,,,,,,,,,,0,4,4,4,,,,,,,,,,,,,,,,,,,,,,,,,,,,,,,,,,,,,,,,,,,,,,,,,,,,,,,,,,,,,,,,,,,,,1.6651234552264214,0.6000636999960989,557.8247239000048,None,ScrollUp,정답입니다,557.8247239000048,None,557.8247239000048,None,557.8247239000048,None,557.8247239000048,None,558.3321863000165,None,558.3321863000165,558.834186299995,,,,,,,,,,,,,,,,103,2023-04-20_14h54.19.557,FishGame,2022.1.1,60.081566733583955,
,6,나를 보내줘,6,Orange,A,0,0,ScrollUp,ScrollDown,Orange.png,5,NonTarget,NonTarget,0,0,0,0,,,,,,,,,,,,,,,,,,,,,,,,,,,,,0,5,5,5,,,,,,,,,,,,,,,,,,,,,,,,,,,,,,,,,,,,,,,,,,,,,,,,,,,,,,,,,,,,,,,,,,,,,1.8719135870536168,0.8650850999983959,559.4431788999937,None,ScrollUp,정답입니다,559.4431788999937,None,559.4431788999937,None,559.4431788999937,None,559.4431788999937,None,560.2175162000349,None,560.2175162000349,560.7175630999845,,,,,,,,,,,,,,,,103,2023-04-20_14h54.19.557,FishGame,2022.1.1,60.081566733583955,
,7,넌 잘 잊어,4,Orange,A,3,3.7,ScrollDown,ScrollUp,Orange.png,5,Negative,Incongruent,0,0,0,0,,,,,,,,,,,,,,,,,,,,,,,,,,,,,0,6,6,6,,,,,,,,,,,,,,,,,,,,,,,,,,,,,,,,,,,,,,,,,,,,,,,,,,,,,,,,,,,,,,,,,,,,,1.1975308656692505,0.7459849999868311,561.3285063999938,None,ScrollDown,정답입니다,561.3285063999938,None,561.3285063999938,None,561.3285063999938,None,561.3285063999938,None,561.9818427999853,None,561.9818427999853,562.482046500023,,,,,,,,,,,,,,,,103,2023-04-20_14h54.19.557,FishGame,2022.1.1,60.081566733583955,
,8,넌 탐구심이없어,4,Green,B,2.833333333333333,3.066666666666667,ScrollUp,ScrollDown,Green.png,5,Negative,Congruent,0,0,0,0,,,,,,,,,,,,,,,,,,,,,,,,,,,,,0,7,7,7,,,,,,,,,,,,,,,,,,,,,,,,,,,,,,,,,,,,,,,,,,,,,,,,,,,,,,,,,,,,,,,,,,,,,1.6929012313485146,0.6470614999998361,563.0850214000093,None,ScrollUp,정답입니다,563.0850214000093,None,563.0850214000093,None,563.0850214000093,None,563.0850214000093,None,563.648485600017,None,563.648485600017,564.148533700034,,,,,,,,,,,,,,,,103,2023-04-20_14h54.19.557,FishGame,2022.1.1,60.081566733583955,
,9,나를 데려가줘,6,Green,B,0,0,ScrollDown,ScrollUp,Green.png,5,NonTarget,NonTarget,0,0,0,0,,,,,,,,,,,,,,,,,,,,,,,,,,,,,0,8,8,8,,,,,,,,,,,,,,,,,,,,,,,,,,,,,,,,,,,,,,,,,,,,,,,,,,,,,,,,,,,,,,,,,,,,,1.2052469104528427,0.7669764999882318,564.7515837000101,None,ScrollDown,정답입니다,564.7515837000101,None,564.7515837000101,None,564.7515837000101,None,564.7515837000101,None,565.434263400035,None,565.434263400035,565.9342786000343,,,,,,,,,,,,,,,,103,2023-04-20_14h54.19.557,FishGame,2022.1.1,60.081566733583955,
,10,넌 참되어,2,Orange,A,6.041666666666664,4.733333333333333,ScrollDown,ScrollUp,Orange.png,5,Positive,Congruent,0,0,0,0,,,,,,,,,,,,,,,,,,,,,,,,,,,,,0,9,9,9,,,,,,,,,,,,,,,,,,,,,,,,,,,,,,,,,,,,,,,,,,,,,,,,,,,,,,,,,,,,,,,,,,,,,1.1898148208856583,0.6999535000068136,566.5440435000346,None,ScrollDown,정답입니다,566.5440435000346,None,566.5440435000346,None,566.5440435000346,None,566.5440435000346,None,567.1486798000406,None,567.1486798000406,567.6506672000396,,,,,,,,,,,,,,,,103,2023-04-20_14h54.19.557,FishGame,2022.1.1,60.081566733583955,
,11,넌 생기있어,1,Green,B,5.875,5.633333333333334,ScrollUp,ScrollDown,Green.png,5,Positive,Incongruent,0,0,0,0,,,,,,,,,,,,,,,,,,,,,,,,,,,,,0,10,10,10,,,,,,,,,,,,,,,,,,,,,,,,,,,,,,,,,,,,,,,,,,,,,,,,,,,,,,,,,,,,,,,,,,,,,1.8827160596847534,0.7127735000103712,568.2537989999983,None,ScrollUp,정답입니다,568.2537989999983,None,568.2537989999983,None,568.2537989999983,None,568.2537989999983,None,568.8840247000335,None,568.8840247000335,569.3840501999948,,,,,,,,,,,,,,,,103,2023-04-20_14h54.19.557,FishGame,2022.1.1,60.081566733583955,
,12,넌 비사교적이야,4,Green,B,2.875,2.9,ScrollUp,ScrollDown,Green.png,5,Negative,Congruent,0,0,0,0,,,,,,,,,,,,,,,,,,,,,,,,,,,,,0,11,11,11,,,,,,,,,,,,,,,,,,,,,,,,,,,,,,,,,,,,,,,,,,,,,,,,,,,,,,,,,,,,,,,,,,,,,1.7962963034709294,0.6816883999854326,569.9863569000154,None,ScrollUp,정답입니다,569.9863569000154,None,569.9863569000154,None,569.9863569000154,None,569.9863569000154,None,570.5840770000359,None,570.5840770000359,571.0839413999929,,,,,,,,,,,,,,,,103,2023-04-20_14h54.19.557,FishGame,2022.1.1,60.081566733583955,
,13,나를 데려가줘,6,Green,B,0,0,ScrollDown,ScrollUp,Green.png,5,NonTarget,NonTarget,0,0,0,0,,,,,,,,,,,,,,,,,,,,,,,,,,,,,0,12,12,12,,,,,,,,,,,,,,,,,,,,,,,,,,,,,,,,,,,,,,,,,,,,,,,,,,,,,,,,,,,,,,,,,,,,,1.2577160596847534,0.7999603999778628,571.6882622000412,None,ScrollDown,정답입니다,571.6882622000412,None,571.6882622000412,None,571.6882622000412,None,571.6882622000412,None,572.3985525000026,None,572.3985525000026,572.9006148999906,,,,,,,,,,,,,,,,103,2023-04-20_14h54.19.557,FishGame,2022.1.1,60.081566733583955,
,14,넌 고독해,4,Orange,A,2.916666666666667,3.233333333333333,ScrollDown,ScrollUp,Orange.png,5,Negative,Incongruent,0,0,0,0,,,,,,,,,,,,,,,,,,,,,,,,,,,,,0,13,13,13,,,,,,,,,,,,,,,,,,,,,,,,,,,,,,,,,,,,,,,,,,,,,,,,,,,,,,,,,,,,,,,,,,,,,1.200617293516795,0.7340333000174724,573.5020558999968,None,ScrollDown,정답입니다,573.5020558999968,None,573.5020558999968,None,573.5020558999968,None,573.5020558999968,None,574.150670700008,None,574.150670700008,574.650630499993,,,,,,,,,,,,,,,,103,2023-04-20_14h54.19.557,FishGame,2022.1.1,60.081566733583955,
,15,넌 신경질적이야,5,Green,B,2.375,2.233333333333333,ScrollUp,ScrollDown,Green.png,5,Negative,Congruent,0,0,0,0,,,,,,,,,,,,,,,,,,,,,,,,,,,,,0,14,14,14,,,,,,,,,,,,,,,,,,,,,,,,,,,,,,,,,,,,,,,,,,,,,,,,,,,,,,,,,,,,,,,,,,,,,1.8549382835626602,0.7646167000057176,575.2659004000016,None,ScrollUp,정답입니다,575.2659004000016,None,575.2659004000016,None,575.2659004000016,None,575.2659004000016,None,575.9338312000036,None,575.9338312000036,576.4318162000272,,,,,,,,,,,,,,,,103,2023-04-20_14h54.19.557,FishGame,2022.1.1,60.081566733583955,
,16,넌 똑똑해,2,Green,B,5.666666666666667,3.966666666666667,ScrollUp,ScrollDown,Green.png,5,Positive,Incongruent,0,0,0,0,,,,,,,,,,,,,,,,,,,,,,,,,,,,,0,15,15,15,,,,,,,,,,,,,,,,,,,,,,,,,,,,,,,,,,,,,,,,,,,,,,,,,,,,,,,,,,,,,,,,,,,,,2,0.6812056000344455,577.0360412999871,None,ScrollUp,정답입니다,577.0360412999871,None,577.0360412999871,None,577.0360412999871,None,577.0360412999871,None,577.6338073000079,None,577.6338073000079,578.1338532000082,,,,,,,,,,,,,,,,103,2023-04-20_14h54.19.557,FishGame,2022.1.1,60.081566733583955,
,17,나를 보내줘,6,Orange,A,0,0,ScrollUp,ScrollDown,Orange.png,5,NonTarget,NonTarget,0,0,0,0,,,,,,,,,,,,,,,,,,,,,,,,,,,,,0,16,16,16,,,,,,,,,,,,,,,,,,,,,,,,,,,,,,,,,,,,,,,,,,,,,,,,,,,,,,,,,,,,,,,,,,,,,1.6697530845801034,0.8148892999743111,578.7379414000316,None,ScrollUp,정답입니다,578.7379414000316,None,578.7379414000316,None,578.7379414000316,None,578.7379414000316,None,579.4651356000104,None,579.4651356000104,579.9671669999952,,,,,,,,,,,,,,,,103,2023-04-20_14h54.19.557,FishGame,2022.1.1,60.081566733583955,
,18,넌 협조적이야,1,Orange,A,5.625,5.666666666666667,ScrollDown,ScrollUp,Orange.png,5,Positive,Congruent,0,0,0,0,,,,,,,,,,,,,,,,,,,,,,,,,,,,,0,17,17,17,,,,,,,,,,,,,,,,,,,,,,,,,,,,,,,,,,,,,,,,,,,,,,,,,,,,,,,,,,,,,,,,,,,,,1.2932098805904388,1.164853599970229,580.5740400000359,None,ScrollDown,정답입니다,580.5740400000359,None,580.5740400000359,None,580.5740400000359,None,580.5740400000359,None,581.6483837999986,None,581.6483837999986,582.1503593000234,,,,,,,,,,,,,,,,103,2023-04-20_14h54.19.557,FishGame,2022.1.1,60.081566733583955,
,19,나를 데려가줘,6,Green,B,0,0,ScrollDown,ScrollUp,Green.png,5,NonTarget,NonTarget,0,0,0,0,,,,,,,,,,,,,,,,,,,,,,,,,,,,,0,18,18,18,,,,,,,,,,,,,,,,,,,,,,,,,,,,,,,,,,,,,,,,,,,,,,,,,,,,,,,,,,,,,,,,,,,,,1.2067901243766148,0.7650663999957033,582.7528838000144,None,ScrollDown,정답입니다,582.7528838000144,None,582.7528838000144,None,582.7528838000144,None,582.7528838000144,None,583.4337435000343,None,583.4337435000343,583.9337170000072,,,,,,,,,,,,,,,,103,2023-04-20_14h54.19.557,FishGame,2022.1.1,60.081566733583955,
,20,넌 몰인정해,5,Green,B,2.541666666666667,2.066666666666667,ScrollUp,ScrollDown,Green.png,5,Negative,Congruent,0,0,0,0,,,,,,,,,,,,,,,,,,,,,,,,,,,,,0,19,19,19,,,,,,,,,,,,,,,,,,,,,,,,,,,,,,,,,,,,,,,,,,,,,,,,,,,,,,,,,,,,,,,,,,,,,2,0.6831779999774881,584.5398297000211,None,ScrollUp,정답입니다,584.5398297000211,None,584.5398297000211,None,584.5398297000211,None,584.5398297000211,None,585.1338233000133,None,585.1338233000133,585.6337130999891,,,,,,,,,,,,,,,,103,2023-04-20_14h54.19.557,FishGame,2022.1.1,60.081566733583955,
,21,나를 데려가줘,6,Green,B,0,0,ScrollDown,ScrollUp,Green.png,5,NonTarget,NonTarget,0,0,0,0,,,,,,,,,,,,,,,,,,,,,,,,,,,,,0,20,20,20,,,,,,,,,,,,,,,,,,,,,,,,,,,,,,,,,,,,,,,,,,,,,,,,,,,,,,,,,,,,,,,,,,,,,1.2577160596847534,0.7478367000003345,586.2348062000237,None,ScrollDown,정답입니다,586.2348062000237,None,586.2348062000237,None,586.2348062000237,None,586.2348062000237,None,586.900345800037,None,586.900345800037,587.4002936999896,,,,,,,,,,,,,,,,103,2023-04-20_14h54.19.557,FishGame,2022.1.1,60.081566733583955,
