name,TrialNum,Word,WordCategory,FishType,WordList,WordValence,WordReputation,CorrectResp,IncorrectResp,FishTypeFile,Round,WordType,Condition,LoopforOrange.thisRepN,LoopforOrange.thisTrialN,LoopforOrange.thisN,LoopforOrange.thisIndex,LoopForGreen.thisRepN,LoopForGreen.thisTrialN,LoopForGreen.thisN,LoopForGreen.thisIndex,GreenInstLoop.thisRepN,GreenInstLoop.thisTrialN,GreenInstLoop.thisN,GreenInstLoop.thisIndex,GreenPrac.thisRepN,GreenPrac.thisTrialN,GreenPrac.thisN,GreenPrac.thisIndex,trials_2.thisRepN,trials_2.thisTrialN,trials_2.thisN,trials_2.thisIndex,GreenRound1.thisRepN,GreenRound1.thisTrialN,GreenRound1.thisN,GreenRound1.thisIndex,GreenRound2.thisRepN,GreenRound2.thisTrialN,GreenRound2.thisN,GreenRound2.thisIndex,GreenRound3.thisRepN,GreenRound3.thisTrialN,GreenRound3.thisN,GreenRound3.thisIndex,GreenRound4.thisRepN,GreenRound4.thisTrialN,GreenRound4.thisN,GreenRound4.thisIndex,GreenRound5.thisRepN,GreenRound5.thisTrialN,GreenRound5.thisN,GreenRound5.thisIndex,text_2.started,text_2.stopped,text_3.started,text_3.stopped,key_resp.keys,key_resp.rt,key_resp.started,key_resp.stopped,PassI.started,PassI.stopped,PassInst.keys,PassInst.rt,PassInst.started,PassInst.stopped,mouse_2.x,mouse_2.y,mouse_2.leftButton,mouse_2.midButton,mouse_2.rightButton,mouse_2.started,mouse_2.stopped,image.started,image.stopped,text_5.started,text_5.stopped,text_6.started,text_6.stopped,text_7.started,text_7.stopped,text_8.started,text_8.stopped,slider_3.response,slider_3.rt,slider_3.started,slider_3.stopped,Response_3,Feedback_3,BackGround_3.started,BackGround_3.stopped,Fish_3.started,Fish_3.stopped,WordBox_3.started,WordBox_3.stopped,Words_3.started,Words_3.stopped,BackGround_Feedback_3.started,BackGround_Feedback_3.stopped,Feedbacks_3.started,Feedbacks_3.stopped,Continue_or_not_2.keys,Continue_or_not_2.rt,Continue_or_not_2.started,Continue_or_not_2.stopped,image_4.started,image_4.stopped,mouse_3.x,mouse_3.y,mouse_3.leftButton,mouse_3.midButton,mouse_3.rightButton,mouse_3.started,mouse_3.stopped,startmain.started,startmain.stopped,slider_4.response,slider_4.rt,slider_4.started,slider_4.stopped,Response_4,Feedback_4,BackGround_4.started,BackGround_4.stopped,Fish_4.started,Fish_4.stopped,WordBox_4.started,WordBox_4.stopped,Words_4.started,Words_4.stopped,BackGround_Feedback_4.started,BackGround_Feedback_4.stopped,Feedbacks_4.started,Feedbacks_4.stopped,text.started,text.stopped,break_interval.started,break_interval.stopped,mouse.x,mouse.y,mouse.leftButton,mouse.midButton,mouse.rightButton,mouse.started,mouse.stopped,stratnextround.started,stratnextround.stopped,endgame.started,endgame.stopped,participant,date,expName,psychopyVersion,frameRate,
,,,,,,,,,,,,,,,,,,,,,,,,,,,,,,,,,,,,,,,,,,,,,,,,,,,,,,16.842379600013373,None,16.842379600013373,None,space,0.6856193999701645,17.32445660000667,None,,,,,,,,,,,,,,,,,,,,,,,,,,,,,,,,,,,,,,,,,,,,,,,,,,,,,,,,,,,,,,,,,,,,,,,,,,,,,,,,,,,,,,,,,,104,2023-04-18_15h39.02.504,FishGame,2022.1.1,59.87414454824591,
물고기과제_instruction(참가자용)GreenVersion.mp4,,,,,,,,,,,,,,,,,,0,0,0,0,0,0,0,0,,,,,,,,,,,,,,,,,,,,,,,,,,,,,,,,,,,,,89.08652850001818,None,n,1.691000599967083,89.08652850001818,None,,,,,,,,,,,,,,,,,,,,,,,,,,,,,,,,,,,,,,,,,,,,,,,,,,,,,,,,,,,,,,,,,,,,,,,,,,,,,,,,,,,,104,2023-04-18_15h39.02.504,FishGame,2022.1.1,59.87414454824591,
,1,넌 교활해,5,Orange,B,2.333333333333333,2.133333333333333,ScrollUp,ScrollDown,Orange.png,practice,,,,,,,0,0,0,0,,,,,0,0,0,0,0,0,0,0,,,,,,,,,,,,,,,,,,,,,,,,,,,,,,,,,,,0.11666667,-0.21388888,1,0,0,0.5143847699800972,None,90.80063930002507,None,102.33389040001202,103.8391703000234,103.85583240000415,104.81937300000573,104.86942200001795,105.8228488000168,105.80600229999982,None,1.9953703780968983,4.926986300008139,107.0882482000161,None,ScrollUp,정답입니다,107.0882482000161,None,107.0882482000161,None,107.0882482000161,None,107.0882482000161,None,111.73351050002384,None,111.73351050002384,112.23591430002125,,,,,,,,,,,,,,,,,,,,,,,,,,,,,,,,,,,,,,,,,,,,,,,,,104,2023-04-18_15h39.02.504,FishGame,2022.1.1,59.87414454824591,
,2,넌 슬기로워,2,Green,A,6.166666666666667,4.1,ScrollDown,ScrollUp,Green.png,practice,,,,,,,0,0,0,0,,,,,0,0,0,0,0,1,1,1,,,,,,,,,,,,,,,,,,,,,,,,,,,,,,,,,,,,,,,,,,,,,,,,,,,,1.1882716069618862,0.9148079000005964,112.8410432000237,None,ScrollDown,정답입니다,112.8410432000237,None,112.8410432000237,None,112.8410432000237,None,112.8410432000237,None,113.66925210002228,None,113.66925210002228,114.17278240001178,,,,,,,,,,,,,,,,,,,,,,,,,,,,,,,,,,,,,,,,,,,,,,,,,104,2023-04-18_15h39.02.504,FishGame,2022.1.1,59.87414454824591,
,3,나를 보내줘,6,Green,A,0,0,ScrollUp,ScrollDown,Green.png,practice,,,,,,,0,0,0,0,,,,,0,0,0,0,0,2,2,2,,,,,,,,,,,,,,,,,,,,,,,,,,,,,,,,,,,,,,,,,,,,,,,,,,,,2,0.9796716000128072,114.77617810000083,None,ScrollUp,정답입니다,114.77617810000083,None,114.77617810000083,None,114.77617810000083,None,114.77617810000083,None,115.6690078000247,None,115.6690078000247,116.16905680001946,,,,,,,,,,,,,,,,,,,,,,,,,,,,,,,,,,,,,,,,,,,,,,,,,104,2023-04-18_15h39.02.504,FishGame,2022.1.1,59.87414454824591,
,4,나를 데려가줘,6,Orange,B,0,0,ScrollDown,ScrollUp,Orange.png,practice,,,,,,,0,0,0,0,,,,,0,0,0,0,0,3,3,3,,,,,,,,,,,,,,,,,,,,,,,,,,,,,,,,,,,,,,,,,,,,,,,,,,,,1.0509259402751923,1.232030000013765,116.77442250002059,None,ScrollDown,정답입니다,116.77442250002059,None,116.77442250002059,None,116.77442250002059,None,116.77442250002059,None,117.91936430000351,None,117.91936430000351,118.41894590001903,,,,,,,,,,,,,,,,,,,,,,,,,,,,,,,,,,,,,,,,,,,,,,,,,104,2023-04-18_15h39.02.504,FishGame,2022.1.1,59.87414454824591,
,1,넌 교활해,5,Orange,B,2.333333333333333,2.133333333333333,ScrollUp,ScrollDown,Orange.png,practice,,,,,,,0,0,0,0,,,,,0,0,0,0,,,,,,,,,,,,,,,,,,,,,,,,,,,,,,,,,,,,,,,,,,,,,,,,,,,,,,,,,,,,,,,,,,,,,,,,,,n,37.60291259997757,118.91897850000532,None,118.91897850000532,None,,,,,,,,,,,,,,,,,,,,,,,,,,,,,,,,,,,,,,,,,,,104,2023-04-18_15h39.02.504,FishGame,2022.1.1,59.87414454824591,
,1,넌 따뜻해,1,Orange,B,6.083333333333333,5.6,ScrollUp,ScrollDown,Orange.png,1,Positive,Incongruent,,,,,0,0,0,0,,,,,,,,,,,,,0,0,0,0,,,,,,,,,,,,,,,,,,,,,,,,,,,,,,,,,,,,,,,,160.86807060000137,162.36835810000775,162.40165020001587,163.3516124000016,163.4016017000249,164.35468930000206,164.3382570000249,None,,,,,,,,,,,,,,,,,,,,,,,,,0.13425925,-0.1537037,1,0,0,0.3169278699788265,None,156.55154620000394,None,1.9845678806304932,1.5085171000100672,165.63037510000868,None,ScrollUp,정답입니다,165.63037510000868,None,165.63037510000868,None,165.63037510000868,None,165.63037510000868,None,166.84936079999898,None,166.84936079999898,167.3546271000232,,,,,,,,,,,,,,,,104,2023-04-18_15h39.02.504,FishGame,2022.1.1,59.87414454824591,
,2,넌 기품있어,2,Orange,B,5.791666666666668,4.5,ScrollUp,ScrollDown,Orange.png,1,Positive,Incongruent,,,,,0,0,0,0,,,,,,,,,,,,,0,1,1,1,,,,,,,,,,,,,,,,,,,,,,,,,,,,,,,,,,,,,,,,,,,,,,,,,,,,,,,,,,,,,,,,,,,,,,,,,,,,,,,,,1.9444444676240284,0.8962120000214782,167.9631835000182,None,ScrollUp,정답입니다,167.9631835000182,None,167.9631835000182,None,167.9631835000182,None,167.9631835000182,None,168.76797280000756,None,168.76797280000756,169.2679199000122,,,,,,,,,,,,,,,,104,2023-04-18_15h39.02.504,FishGame,2022.1.1,59.87414454824591,
,3,나를 보내줘,6,Green,A,0,0,ScrollUp,ScrollDown,Green.png,1,NonTarget,NonTarget,,,,,0,0,0,0,,,,,,,,,,,,,0,2,2,2,,,,,,,,,,,,,,,,,,,,,,,,,,,,,,,,,,,,,,,,,,,,,,,,,,,,,,,,,,,,,,,,,,,,,,,,,,,,,,,,,1.9691357910633087,0.813105600012932,169.87944550000248,None,ScrollUp,정답입니다,169.87944550000248,None,169.87944550000248,None,169.87944550000248,None,169.87944550000248,None,170.5990919000178,None,170.5990919000178,171.1012267000042,,,,,,,,,,,,,,,,104,2023-04-18_15h39.02.504,FishGame,2022.1.1,59.87414454824591,
,4,넌 수동적이야,4,Green,A,2.833333333333333,2.933333333333333,ScrollDown,ScrollUp,Green.png,1,Negative,Incongruent,,,,,0,0,0,0,,,,,,,,,,,,,0,3,3,3,,,,,,,,,,,,,,,,,,,,,,,,,,,,,,,,,,,,,,,,,,,,,,,,,,,,,,,,,,,,,,,,,,,,,,,,,,,,,,,,,1.040123442808787,0.8297378999995999,171.71313350001583,None,ScrollDown,정답입니다,171.71313350001583,None,171.71313350001583,None,171.71313350001583,None,171.71313350001583,None,172.45122550000087,None,172.45122550000087,172.9511410999985,,,,,,,,,,,,,,,,104,2023-04-18_15h39.02.504,FishGame,2022.1.1,59.87414454824591,
,5,넌 사심이 없어,3,Orange,B,4.916666666666666,4.333333333333333,ScrollUp,ScrollDown,Orange.png,1,Neutral,Neutral,,,,,0,0,0,0,,,,,,,,,,,,,0,4,4,4,,,,,,,,,,,,,,,,,,,,,,,,,,,,,,,,,,,,,,,,,,,,,,,,,,,,,,,,,,,,,,,,,,,,,,,,,,,,,,,,,1.6712962985038757,1.0650709999899846,173.5675480000209,None,ScrollUp,정답입니다,173.5675480000209,None,173.5675480000209,None,173.5675480000209,None,173.5675480000209,None,174.53449869999895,None,174.53449869999895,175.0511730000144,,,,,,,,,,,,,,,,104,2023-04-18_15h39.02.504,FishGame,2022.1.1,59.87414454824591,
,6,넌 헤퍼,5,Green,A,2.458333333333334,2.233333333333333,ScrollDown,ScrollUp,Green.png,1,Negative,Incongruent,,,,,0,0,0,0,,,,,,,,,,,,,0,5,5,5,,,,,,,,,,,,,,,,,,,,,,,,,,,,,,,,,,,,,,,,,,,,,,,,,,,,,,,,,,,,,,,,,,,,,,,,,,,,,,,,,1.7175925920406976,1.0631527999939863,175.65797890000977,None,ScrollUp,오답입니다,175.65797890000977,None,175.65797890000977,None,175.65797890000977,None,175.65797890000977,None,176.63248560001375,None,176.63248560001375,177.1349289000209,,,,,,,,,,,,,,,,104,2023-04-18_15h39.02.504,FishGame,2022.1.1,59.87414454824591,
,7,넌 말쑥해,3,Green,A,4.833333333333334,4.333333333333333,ScrollDown,ScrollUp,Green.png,1,Neutral,Neutral,,,,,0,0,0,0,,,,,,,,,,,,,0,6,6,6,,,,,,,,,,,,,,,,,,,,,,,,,,,,,,,,,,,,,,,,,,,,,,,,,,,,,,,,,,,,,,,,,,,,,,,,,,,,,,,,,1.0910493781169255,1.1298853000043891,177.74144540002453,None,ScrollDown,정답입니다,177.74144540002453,None,177.74144540002453,None,177.74144540002453,None,177.74144540002453,None,178.7823351000261,None,178.7823351000261,179.28440200001933,,,,,,,,,,,,,,,,104,2023-04-18_15h39.02.504,FishGame,2022.1.1,59.87414454824591,
,8,넌 투덜거려,5,Orange,B,2.541666666666667,2.266666666666667,ScrollUp,ScrollDown,Orange.png,1,Negative,Congruent,,,,,0,0,0,0,,,,,,,,,,,,,0,7,7,7,,,,,,,,,,,,,,,,,,,,,,,,,,,,,,,,,,,,,,,,,,,,,,,,,,,,,,,,,,,,,,,,,,,,,,,,,,,,,,,,,1.8765432039896648,0.8795076000096742,179.89717890002066,None,ScrollUp,정답입니다,179.89717890002066,None,179.89717890002066,None,179.89717890002066,None,179.89717890002066,None,180.6844750000164,None,180.6844750000164,181.18435870000394,,,,,,,,,,,,,,,,104,2023-04-18_15h39.02.504,FishGame,2022.1.1,59.87414454824591,
,9,넌 적극적이야,1,Green,A,5.708333333333333,5.533333333333333,ScrollDown,ScrollUp,Green.png,1,Positive,Congruent,,,,,0,0,0,0,,,,,,,,,,,,,0,8,8,8,,,,,,,,,,,,,,,,,,,,,,,,,,,,,,,,,,,,,,,,,,,,,,,,,,,,,,,,,,,,,,,,,,,,,,,,,,,,,,,,,1.0138889054457347,0.8628733000077773,181.79113580001285,None,ScrollDown,정답입니다,181.79113580001285,None,181.79113580001285,None,181.79113580001285,None,181.79113580001285,None,182.56762090002303,None,182.56762090002303,183.06566260001273,,,,,,,,,,,,,,,,104,2023-04-18_15h39.02.504,FishGame,2022.1.1,59.87414454824591,
,10,넌 재미없어,4,Orange,B,2.625,2.966666666666667,ScrollUp,ScrollDown,Orange.png,1,Negative,Congruent,,,,,0,0,0,0,,,,,,,,,,,,,0,9,9,9,,,,,,,,,,,,,,,,,,,,,,,,,,,,,,,,,,,,,,,,,,,,,,,,,,,,,,,,,,,,,,,,,,,,,,,,,,,,,,,,,1.9614197711149852,0.898163099976955,183.67724170000292,None,ScrollUp,정답입니다,183.67724170000292,None,183.67724170000292,None,183.67724170000292,None,183.67724170000292,None,184.4842863000231,None,184.4842863000231,184.98429310001666,,,,,,,,,,,,,,,,104,2023-04-18_15h39.02.504,FishGame,2022.1.1,59.87414454824591,
,11,넌 명석해,2,Green,A,5.875,4.033333333333333,ScrollDown,ScrollUp,Green.png,1,Positive,Congruent,,,,,0,0,0,0,,,,,,,,,,,,,0,10,10,10,,,,,,,,,,,,,,,,,,,,,,,,,,,,,,,,,,,,,,,,,,,,,,,,,,,,,,,,,,,,,,,,,,,,,,,,,,,,,,,,,1.9506172736485798,1.0962006000045221,185.59133990001283,None,ScrollUp,오답입니다,185.59133990001283,None,185.59133990001283,None,185.59133990001283,None,185.59133990001283,None,186.59892310001305,None,186.59892310001305,187.1009674000088,,,,,,,,,,,,,,,,104,2023-04-18_15h39.02.504,FishGame,2022.1.1,59.87414454824591,
,12,나를 데려가줘,6,Orange,B,0,0,ScrollDown,ScrollUp,Orange.png,1,NonTarget,NonTarget,,,,,0,0,0,0,,,,,,,,,,,,,0,11,11,11,,,,,,,,,,,,,,,,,,,,,,,,,,,,,,,,,,,,,,,,,,,,,,,,,,,,,,,,,,,,,,,,,,,,,,,,,,,,,,,,,1,0.8795896999945398,187.71171010000398,None,ScrollDown,정답입니다,187.71171010000398,None,187.71171010000398,None,187.71171010000398,None,187.71171010000398,None,188.49881250000908,None,188.49881250000908,189.000846800016,,,,,,,,,,,,,,,,104,2023-04-18_15h39.02.504,FishGame,2022.1.1,59.87414454824591,
,13,넌 소심해,4,Green,A,3,3.1,ScrollDown,ScrollUp,Green.png,1,Negative,Incongruent,,,,,0,0,0,0,,,,,,,,,,,,,0,12,12,12,,,,,,,,,,,,,,,,,,,,,,,,,,,,,,,,,,,,,,,,,,,,,,,,,,,,,,,,,,,,,,,,,,,,,,,,,,,,,,,,,1,1.9294221000163816,189.6069458000129,None,ScrollDown,정답입니다,189.6069458000129,None,189.6069458000129,None,189.6069458000129,None,189.6069458000129,None,191.45087120000971,None,191.45087120000971,191.95083640000666,,,,,,,,,,,,,,,,104,2023-04-18_15h39.02.504,FishGame,2022.1.1,59.87414454824591,
,14,넌 합리적이야,2,Green,A,5.583333333333333,4.733333333333333,ScrollDown,ScrollUp,Green.png,1,Positive,Congruent,,,,,0,0,0,0,,,,,,,,,,,,,0,13,13,13,,,,,,,,,,,,,,,,,,,,,,,,,,,,,,,,,,,,,,,,,,,,,,,,,,,,,,,,,,,,,,,,,,,,,,,,,,,,,,,,,1,0.8796744999999646,192.55897000001278,None,ScrollDown,정답입니다,192.55897000001278,None,192.55897000001278,None,192.55897000001278,None,192.55897000001278,None,193.3507967000187,None,193.3507967000187,193.85075100001995,,,,,,,,,,,,,,,,104,2023-04-18_15h39.02.504,FishGame,2022.1.1,59.87414454824591,
,15,넌 무자비해,5,Orange,B,2.333333333333333,2.1,ScrollUp,ScrollDown,Orange.png,1,Negative,Congruent,,,,,0,0,0,0,,,,,,,,,,,,,0,14,14,14,,,,,,,,,,,,,,,,,,,,,,,,,,,,,,,,,,,,,,,,,,,,,,,,,,,,,,,,,,,,,,,,,,,,,,,,,,,,,,,,,1.6481481517354646,0.9296997000055853,194.46299530001124,None,ScrollUp,정답입니다,194.46299530001124,None,194.46299530001124,None,194.46299530001124,None,194.46299530001124,None,195.29869500000495,None,195.29869500000495,195.80074110001442,,,,,,,,,,,,,,,,104,2023-04-18_15h39.02.504,FishGame,2022.1.1,59.87414454824591,
,16,나를 보내줘,6,Green,A,0,0,ScrollUp,ScrollDown,Green.png,1,NonTarget,NonTarget,,,,,0,0,0,0,,,,,,,,,,,,,0,15,15,15,,,,,,,,,,,,,,,,,,,,,,,,,,,,,,,,,,,,,,,,,,,,,,,,,,,,,,,,,,,,,,,,,,,,,,,,,,,,,,,,,1.8904321044683456,0.8964854999794625,196.40418219999992,None,ScrollUp,정답입니다,196.40418219999992,None,196.40418219999992,None,196.40418219999992,None,196.40418219999992,None,197.2173837000155,None,197.2173837000155,197.71748230000958,,,,,,,,,,,,,,,,104,2023-04-18_15h39.02.504,FishGame,2022.1.1,59.87414454824591,
,17,넌 현실적이야,3,Orange,B,4.608695652173913,4.766666666666667,ScrollUp,ScrollDown,Orange.png,1,Neutral,Neutral,,,,,0,0,0,0,,,,,,,,,,,,,0,16,16,16,,,,,,,,,,,,,,,,,,,,,,,,,,,,,,,,,,,,,,,,,,,,,,,,,,,,,,,,,,,,,,,,,,,,,,,,,,,,,,,,,1.6358024651805558,0.8127482999989297,198.32771950002643,None,ScrollUp,정답입니다,198.32771950002643,None,198.32771950002643,None,198.32771950002643,None,198.32771950002643,None,199.04860810001264,None,199.04860810001264,199.5506485000078,,,,,,,,,,,,,,,,104,2023-04-18_15h39.02.504,FishGame,2022.1.1,59.87414454824591,
,18,넌 의리있어,1,Orange,B,5.833333333333334,5.633333333333334,ScrollUp,ScrollDown,Orange.png,1,Positive,Incongruent,,,,,0,0,0,0,,,,,,,,,,,,,0,17,17,17,,,,,,,,,,,,,,,,,,,,,,,,,,,,,,,,,,,,,,,,,,,,,,,,,,,,,,,,,,,,,,,,,,,,,,,,,,,,,,,,,1.7638888855775197,0.8797864000080153,200.15912480000407,None,ScrollUp,정답입니다,200.15912480000407,None,200.15912480000407,None,200.15912480000407,None,200.15912480000407,None,200.9506464000151,None,200.9506464000151,201.4506653000135,,,,,,,,,,,,,,,,104,2023-04-18_15h39.02.504,FishGame,2022.1.1,59.87414454824591,
,19,넌 신경과민이야,5,Green,A,2.541666666666667,2.166666666666667,ScrollDown,ScrollUp,Green.png,1,Negative,Incongruent,,,,,0,0,0,0,,,,,,,,,,,,,0,18,18,18,,,,,,,,,,,,,,,,,,,,,,,,,,,,,,,,,,,,,,,,,,,,,,,,,,,,,,,,,,,,,,,,,,,,,,,,,,,,,,,,,1.1759259204069774,0.7796760000055656,202.0613779000123,None,ScrollDown,정답입니다,202.0613779000123,None,202.0613779000123,None,202.0613779000123,None,202.0613779000123,None,202.74861910002073,None,202.74861910002073,203.25063760002377,,,,,,,,,,,,,,,,104,2023-04-18_15h39.02.504,FishGame,2022.1.1,59.87414454824591,
,20,넌 편안해,1,Green,A,5.916666666666666,5.866666666666666,ScrollDown,ScrollUp,Green.png,1,Positive,Congruent,,,,,0,0,0,0,,,,,,,,,,,,,0,19,19,19,,,,,,,,,,,,,,,,,,,,,,,,,,,,,,,,,,,,,,,,,,,,,,,,,,,,,,,,,,,,,,,,,,,,,,,,,,,,,,,,,1.0817901194095612,0.9263092000037432,203.86708440000075,None,ScrollDown,정답입니다,203.86708440000075,None,203.86708440000075,None,203.86708440000075,None,203.86708440000075,None,204.69827370002167,None,204.69827370002167,205.19825510002556,,,,,,,,,,,,,,,,104,2023-04-18_15h39.02.504,FishGame,2022.1.1,59.87414454824591,
,21,넌 품위있어,2,Orange,B,5.291666666666666,4.466666666666667,ScrollUp,ScrollDown,Orange.png,1,Positive,Incongruent,,,,,0,0,0,0,,,,,,,,,,,,,0,20,20,20,,,,,,,,,,,,,,,,,,,,,,,,,,,,,,,,,,,,,,,,,,,,,,,,,,,,,,,,,,,,,,,,,,,,,,,,,,,,,,,,,1.879629631837209,0.8482576999813318,205.80521550000412,None,ScrollUp,정답입니다,205.80521550000412,None,205.80521550000412,None,205.80521550000412,None,205.80521550000412,None,206.5649517000129,None,206.5649517000129,207.0673410000163,,,,,,,,,,,,,,,,104,2023-04-18_15h39.02.504,FishGame,2022.1.1,59.87414454824591,
,22,넌 빈틈없어,3,Green,A,4.833333333333333,3.966666666666667,ScrollDown,ScrollUp,Green.png,1,Neutral,Neutral,,,,,0,0,0,0,,,,,,,,,,,,,0,21,21,21,,,,,,,,,,,,,,,,,,,,,,,,,,,,,,,,,,,,,,,,,,,,,,,,,,,,,,,,,,,,,,,,,,,,,,,,,,,,,,,,,1,0.9298860999988392,207.67544479999924,None,ScrollDown,정답입니다,207.67544479999924,None,207.67544479999924,None,207.67544479999924,None,207.67544479999924,None,208.51725960001932,None,208.51725960001932,209.02037070001825,,,,,,,,,,,,,,,,104,2023-04-18_15h39.02.504,FishGame,2022.1.1,59.87414454824591,
,23,넌 상상력없어,4,Orange,B,2.833333333333333,3.133333333333333,ScrollUp,ScrollDown,Orange.png,1,Negative,Congruent,,,,,0,0,0,0,,,,,,,,,,,,,0,22,22,22,,,,,,,,,,,,,,,,,,,,,,,,,,,,,,,,,,,,,,,,,,,,,,,,,,,,,,,,,,,,,,,,,,,,,,,,,,,,,,,,,1.663580241302649,0.8296353000041563,209.62695060000988,None,ScrollUp,정답입니다,209.62695060000988,None,209.62695060000988,None,209.62695060000988,None,209.62695060000988,None,210.36512329999823,None,210.36512329999823,210.86713410000084,,,,,,,,,,,,,,,,104,2023-04-18_15h39.02.504,FishGame,2022.1.1,59.87414454824591,
,24,넌 지혜로워,2,Orange,B,6.333333333333334,4.633333333333334,ScrollUp,ScrollDown,Orange.png,1,Positive,Incongruent,,,,,0,0,0,0,,,,,,,,,,,,,0,23,23,23,,,,,,,,,,,,,,,,,,,,,,,,,,,,,,,,,,,,,,,,,,,,,,,,,,,,,,,,,,,,,,,,,,,,,,,,,,,,,,,,,1.6172839477658272,0.8791086999990512,211.47910430000047,None,ScrollUp,정답입니다,211.47910430000047,None,211.47910430000047,None,211.47910430000047,None,211.47910430000047,None,212.26702530001057,None,212.26702530001057,212.76705350002158,,,,,,,,,,,,,,,,104,2023-04-18_15h39.02.504,FishGame,2022.1.1,59.87414454824591,
,25,넌 시끄러워,4,Green,A,2.833333333333333,3.033333333333333,ScrollDown,ScrollUp,Green.png,1,Negative,Incongruent,,,,,0,0,0,0,,,,,,,,,,,,,0,24,24,24,,,,,,,,,,,,,,,,,,,,,,,,,,,,,,,,,,,,,,,,,,,,,,,,,,,,,,,,,,,,,,,,,,,,,,,,,,,,,,,,,1.1126543233791988,0.9464315000222996,213.3753498000151,None,ScrollDown,정답입니다,213.3753498000151,None,213.3753498000151,None,213.3753498000151,None,213.3753498000151,None,214.23370250000153,None,214.23370250000153,214.7337352000177,,,,,,,,,,,,,,,,104,2023-04-18_15h39.02.504,FishGame,2022.1.1,59.87414454824591,
,26,넌 만사태평이야,3,Orange,B,4,4.333333333333333,ScrollUp,ScrollDown,Orange.png,1,Neutral,Neutral,,,,,0,0,0,0,,,,,,,,,,,,,0,25,25,25,,,,,,,,,,,,,,,,,,,,,,,,,,,,,,,,,,,,,,,,,,,,,,,,,,,,,,,,,,,,,,,,,,,,,,,,,,,,,,,,,1.699074074625969,0.8463061999937054,215.3452320000215,None,ScrollUp,정답입니다,215.3452320000215,None,215.3452320000215,None,215.3452320000215,None,215.3452320000215,None,216.10039370000595,None,216.10039370000595,216.60031680000247,,,,,,,,,,,,,,,,104,2023-04-18_15h39.02.504,FishGame,2022.1.1,59.87414454824591,
,27,넌 붙임성있어,1,Green,A,5.708333333333333,5.633333333333334,ScrollDown,ScrollUp,Green.png,1,Positive,Congruent,,,,,0,0,0,0,,,,,,,,,,,,,0,26,26,26,,,,,,,,,,,,,,,,,,,,,,,,,,,,,,,,,,,,,,,,,,,,,,,,,,,,,,,,,,,,,,,,,,,,,,,,,,,,,,,,,1,0.863096899993252,217.2091096000222,None,ScrollDown,정답입니다,217.2091096000222,None,217.2091096000222,None,217.2091096000222,None,217.2091096000222,None,217.98361600001226,None,217.98361600001226,218.48362920002546,,,,,,,,,,,,,,,,104,2023-04-18_15h39.02.504,FishGame,2022.1.1,59.87414454824591,
,28,넌 영리해,2,Green,A,6,4.033333333333333,ScrollDown,ScrollUp,Green.png,1,Positive,Congruent,,,,,0,0,0,0,,,,,,,,,,,,,0,27,27,27,,,,,,,,,,,,,,,,,,,,,,,,,,,,,,,,,,,,,,,,,,,,,,,,,,,,,,,,,,,,,,,,,,,,,,,,,,,,,,,,,1,0.7483627999899909,219.08973230002448,None,ScrollDown,정답입니다,219.08973230002448,None,219.08973230002448,None,219.08973230002448,None,219.08973230002448,None,219.74828910001088,None,219.74828910001088,220.2502882000117,,,,,,,,,,,,,,,,104,2023-04-18_15h39.02.504,FishGame,2022.1.1,59.87414454824591,
,29,넌 열심이야,1,Orange,B,6.041666666666667,5.833333333333333,ScrollUp,ScrollDown,Orange.png,1,Positive,Incongruent,,,,,0,0,0,0,,,,,,,,,,,,,0,28,28,28,,,,,,,,,,,,,,,,,,,,,,,,,,,,,,,,,,,,,,,,,,,,,,,,,,,,,,,,,,,,,,,,,,,,,,,,,,,,,,,,,1.703703703979651,0.7294069000054151,220.8600702000258,None,ScrollUp,정답입니다,220.8600702000258,None,220.8600702000258,None,220.8600702000258,None,220.8600702000258,None,221.50023060000967,None,221.50023060000967,222.0002142000012,,,,,,,,,,,,,,,,104,2023-04-18_15h39.02.504,FishGame,2022.1.1,59.87414454824591,
,30,넌 인기없어,4,Orange,B,3,3.3,ScrollUp,ScrollDown,Orange.png,1,Negative,Congruent,,,,,0,0,0,0,,,,,,,,,,,,,0,29,29,29,,,,,,,,,,,,,,,,,,,,,,,,,,,,,,,,,,,,,,,,,,,,,,,,,,,,,,,,,,,,,,,,,,,,,,,,,,,,,,,,,1.8163580348094304,0.8816525000147521,222.6095763000194,None,ScrollUp,정답입니다,222.6095763000194,None,222.6095763000194,None,222.6095763000194,None,222.6095763000194,None,223.4001560000179,None,223.4001560000179,223.90018890000647,,,,,,,,,,,,,,,,104,2023-04-18_15h39.02.504,FishGame,2022.1.1,59.87414454824591,
,31,넌 익살스러워,3,Green,A,4.708333333333334,4.833333333333333,ScrollDown,ScrollUp,Green.png,1,Neutral,Neutral,,,,,0,0,0,0,,,,,,,,,,,,,0,30,30,30,,,,,,,,,,,,,,,,,,,,,,,,,,,,,,,,,,,,,,,,,,,,,,,,,,,,,,,,,,,,,,,,,,,,,,,,,,,,,,,,,1.1388888855775197,0.796143999992637,224.50859599999967,None,ScrollDown,정답입니다,224.50859599999967,None,224.50859599999967,None,224.50859599999967,None,224.50859599999967,None,225.21688580000773,None,225.21688580000773,225.7168802000233,,,,,,,,,,,,,,,,104,2023-04-18_15h39.02.504,FishGame,2022.1.1,59.87414454824591,
,32,넌 이기적이야,5,Orange,B,2.291666666666667,2.333333333333333,ScrollUp,ScrollDown,Orange.png,1,Negative,Congruent,,,,,0,0,0,0,,,,,,,,,,,,,0,31,31,31,,,,,,,,,,,,,,,,,,,,,,,,,,,,,,,,,,,,,,,,,,,,,,,,,,,,,,,,,,,,,,,,,,,,,,,,,,,,,,,,,1.7345678955316544,0.8796210000000428,226.3229311000032,None,ScrollUp,정답입니다,226.3229311000032,None,226.3229311000032,None,226.3229311000032,None,226.3229311000032,None,227.114711000002,None,227.114711000002,227.6168007000233,,,,,,,,,,,,,,,,104,2023-04-18_15h39.02.504,FishGame,2022.1.1,59.87414454824591,
,33,나를 데려가줘,6,Orange,B,0,0,ScrollDown,ScrollUp,Orange.png,1,NonTarget,NonTarget,,,,,0,0,0,0,,,,,,,,,,,,,0,32,32,32,,,,,,,,,,,,,,,,,,,,,,,,,,,,,,,,,,,,,,,,,,,,,,,,,,,,,,,,,,,,,,,,,,,,,,,,,,,,,,,,,1.1373456716537476,0.8462710000167135,228.22792000000481,None,ScrollDown,정답입니다,228.22792000000481,None,228.22792000000481,None,228.22792000000481,None,228.22792000000481,None,228.98342060000869,None,228.98342060000869,229.48337750000064,,,,,,,,,,,,,,,,104,2023-04-18_15h39.02.504,FishGame,2022.1.1,59.87414454824591,
,34,넌 기회주의자야,5,Green,A,2.875,2.133333333333333,ScrollDown,ScrollUp,Green.png,1,Negative,Incongruent,,,,,0,0,0,0,,,,,,,,,,,,,0,33,33,33,,,,,,,,,,,,,,,,,,,,,,,,,,,,,,,,,,,,,,,,,,,,,,,,,,,,,,,,,,,,,,,,,,,,,,,,,,,,,,,,,1.0709876716136932,0.9151968999940436,230.09102500000154,None,ScrollDown,정답입니다,230.09102500000154,None,230.09102500000154,None,230.09102500000154,None,230.09102500000154,None,230.91474720000406,None,230.91474720000406,231.41669460001867,,,,,,,,,,,,,,,,104,2023-04-18_15h39.02.504,FishGame,2022.1.1,59.87414454824591,
,1,넌 미성숙해,4,Green,A,3,3.2,ScrollDown,ScrollUp,Green.png,2,Negative,Incongruent,,,,,0,0,0,0,,,,,,,,,,,,,,,,,0,0,0,0,,,,,,,,,,,,,,,,,,,,,,,,,,,,,,,,,,,,265.8993935000035,267.3994952000212,267.4328553000232,268.3859829000139,268.43602900000405,269.39949820001493,269.3828211000073,None,,,,,,,,,,,,,,,,,,,,,,,,,,,,,,,,,,1,1.3765737999929115,270.463839700009,None,ScrollDown,정답입니다,270.463839700009,None,270.463839700009,None,270.463839700009,None,270.463839700009,None,271.7469336000213,None,271.7469336000213,272.2469123000046,231.91689600000973,None,231.91689600000973,None,0.2777778,-0.1037037,1,0,0,0.016091969999251887,None,261.9189400000032,None,,,104,2023-04-18_15h39.02.504,FishGame,2022.1.1,59.87414454824591,
,2,넌 반사회적이야,5,Orange,B,2.416666666666667,2.033333333333333,ScrollUp,ScrollDown,Orange.png,2,Negative,Congruent,,,,,0,0,0,0,,,,,,,,,,,,,,,,,0,1,1,1,,,,,,,,,,,,,,,,,,,,,,,,,,,,,,,,,,,,,,,,,,,,,,,,,,,,,,,,,,,,,,,,,,,,,,,,,,,,,1.8688271592060726,0.8479771999991499,272.86076910002157,None,ScrollUp,정답입니다,272.86076910002157,None,272.86076910002157,None,272.86076910002157,None,272.86076910002157,None,273.6160052000196,None,273.6160052000196,274.1159611000039,,,,,,,,,,,,,,,,104,2023-04-18_15h39.02.504,FishGame,2022.1.1,59.87414454824591,
,3,넌 유능해,2,Green,A,6.208333333333333,4.433333333333334,ScrollDown,ScrollUp,Green.png,2,Positive,Congruent,,,,,0,0,0,0,,,,,,,,,,,,,,,,,0,2,2,2,,,,,,,,,,,,,,,,,,,,,,,,,,,,,,,,,,,,,,,,,,,,,,,,,,,,,,,,,,,,,,,,,,,,,,,,,,,,,1,0.765177199995378,274.72513080001227,None,ScrollDown,정답입니다,274.72513080001227,None,274.72513080001227,None,274.72513080001227,None,274.72513080001227,None,275.40270610002335,None,275.40270610002335,275.91582920000656,,,,,,,,,,,,,,,,104,2023-04-18_15h39.02.504,FishGame,2022.1.1,59.87414454824591,
,4,넌 능숙해,2,Orange,B,5.666666666666667,4.733333333333333,ScrollUp,ScrollDown,Orange.png,2,Positive,Incongruent,,,,,0,0,0,0,,,,,,,,,,,,,,,,,0,3,3,3,,,,,,,,,,,,,,,,,,,,,,,,,,,,,,,,,,,,,,,,,,,,,,,,,,,,,,,,,,,,,,,,,,,,,,,,,,,,,1.8410493830839794,0.881747000006726,276.52150990001974,None,ScrollUp,정답입니다,276.52150990001974,None,276.52150990001974,None,276.52150990001974,None,276.52150990001974,None,277.3158216000011,None,277.3158216000011,277.83561730000656,,,,,,,,,,,,,,,,104,2023-04-18_15h39.02.504,FishGame,2022.1.1,59.87414454824591,
,5,넌 진부해,4,Orange,B,2.458333333333333,3.166666666666667,ScrollUp,ScrollDown,Orange.png,2,Negative,Congruent,,,,,0,0,0,0,,,,,,,,,,,,,,,,,0,4,4,4,,,,,,,,,,,,,,,,,,,,,,,,,,,,,,,,,,,,,,,,,,,,,,,,,,,,,,,,,,,,,,,,,,,,,,,,,,,,,2,0.9463287999969907,278.42496770000434,None,ScrollUp,정답입니다,278.42496770000434,None,278.42496770000434,None,278.42496770000434,None,278.42496770000434,None,279.2803363999992,None,279.2803363999992,279.782346699998,,,,,,,,,,,,,,,,104,2023-04-18_15h39.02.504,FishGame,2022.1.1,59.87414454824591,
,6,나를 보내줘,6,Green,A,0,0,ScrollUp,ScrollDown,Green.png,2,NonTarget,NonTarget,,,,,0,0,0,0,,,,,,,,,,,,,,,,,0,5,5,5,,,,,,,,,,,,,,,,,,,,,,,,,,,,,,,,,,,,,,,,,,,,,,,,,,,,,,,,,,,,,,,,,,,,,,,,,,,,,2,0.9319124999747146,280.3858047000249,None,ScrollUp,정답입니다,280.3858047000249,None,280.3858047000249,None,280.3858047000249,None,280.3858047000249,None,281.2326296000101,None,281.2326296000101,281.7323976000189,,,,,,,,,,,,,,,,104,2023-04-18_15h39.02.504,FishGame,2022.1.1,59.87414454824591,
,7,넌 엄격해,3,Green,A,4.166666666666666,4.1,ScrollDown,ScrollUp,Green.png,2,Neutral,Neutral,,,,,0,0,0,0,,,,,,,,,,,,,,,,,0,6,6,6,,,,,,,,,,,,,,,,,,,,,,,,,,,,,,,,,,,,,,,,,,,,,,,,,,,,,,,,,,,,,,,,,,,,,,,,,,,,,1,1.2458145999989938,282.33977040002355,None,ScrollDown,정답입니다,282.33977040002355,None,282.33977040002355,None,282.33977040002355,None,282.33977040002355,None,283.4966834000079,None,283.4966834000079,283.996678800002,,,,,,,,,,,,,,,,104,2023-04-18_15h39.02.504,FishGame,2022.1.1,59.87414454824591,
,8,나를 보내줘,6,Green,A,0,0,ScrollUp,ScrollDown,Green.png,2,NonTarget,NonTarget,,,,,0,0,0,0,,,,,,,,,,,,,,,,,0,7,7,7,,,,,,,,,,,,,,,,,,,,,,,,,,,,,,,,,,,,,,,,,,,,,,,,,,,,,,,,,,,,,,,,,,,,,,,,,,,,,1,0.9337905000138562,284.60051660001045,None,ScrollDown,오답입니다,284.60051660001045,None,284.60051660001045,None,284.60051660001045,None,284.60051660001045,None,285.44928359999903,None,285.44928359999903,285.9490752000129,,,,,,,,,,,,,,,,104,2023-04-18_15h39.02.504,FishGame,2022.1.1,59.87414454824591,
,9,넌 대담해,3,Orange,B,4.875,4.866666666666666,ScrollUp,ScrollDown,Orange.png,2,Neutral,Neutral,,,,,0,0,0,0,,,,,,,,,,,,,,,,,0,8,8,8,,,,,,,,,,,,,,,,,,,,,,,,,,,,,,,,,,,,,,,,,,,,,,,,,,,,,,,,,,,,,,,,,,,,,,,,,,,,,1.9382716119289398,0.9322451000043657,286.55867640001816,None,ScrollUp,정답입니다,286.55867640001816,None,286.55867640001816,None,286.55867640001816,None,286.55867640001816,None,287.3991842000105,None,287.3991842000105,287.89891139999963,,,,,,,,,,,,,,,,104,2023-04-18_15h39.02.504,FishGame,2022.1.1,59.87414454824591,
,10,넌 꾸준해,1,Green,A,5.916666666666668,5.8,ScrollDown,ScrollUp,Green.png,2,Positive,Congruent,,,,,0,0,0,0,,,,,,,,,,,,,,,,,0,9,9,9,,,,,,,,,,,,,,,,,,,,,,,,,,,,,,,,,,,,,,,,,,,,,,,,,,,,,,,,,,,,,,,,,,,,,,,,,,,,,1,0.9481153000087943,288.5061709000147,None,ScrollDown,정답입니다,288.5061709000147,None,288.5061709000147,None,288.5061709000147,None,288.5061709000147,None,289.36562570001115,None,289.36562570001115,289.865588900022,,,,,,,,,,,,,,,,104,2023-04-18_15h39.02.504,FishGame,2022.1.1,59.87414454824591,
,11,나를 데려가줘,6,Orange,B,0,0,ScrollDown,ScrollUp,Orange.png,2,NonTarget,NonTarget,,,,,0,0,0,0,,,,,,,,,,,,,,,,,0,10,10,10,,,,,,,,,,,,,,,,,,,,,,,,,,,,,,,,,,,,,,,,,,,,,,,,,,,,,,,,,,,,,,,,,,,,,,,,,,,,,1.1111111094554265,0.8129579000233207,290.4718844000017,None,ScrollDown,정답입니다,290.4718844000017,None,290.4718844000017,None,290.4718844000017,None,290.4718844000017,None,291.1988035000104,None,291.1988035000104,291.69883700000355,,,,,,,,,,,,,,,,104,2023-04-18_15h39.02.504,FishGame,2022.1.1,59.87414454824591,
,12,넌 독선적이야,5,Green,A,2.458333333333333,1.933333333333333,ScrollDown,ScrollUp,Green.png,2,Negative,Incongruent,,,,,0,0,0,0,,,,,,,,,,,,,,,,,0,11,11,11,,,,,,,,,,,,,,,,,,,,,,,,,,,,,,,,,,,,,,,,,,,,,,,,,,,,,,,,,,,,,,,,,,,,,,,,,,,,,1.0895061641931534,0.8463988000003155,292.3115205000213,None,ScrollDown,정답입니다,292.3115205000213,None,292.3115205000213,None,292.3115205000213,None,292.3115205000213,None,293.06551480002236,None,293.06551480002236,293.56548350001685,,,,,,,,,,,,,,,,104,2023-04-18_15h39.02.504,FishGame,2022.1.1,59.87414454824591,
,13,나를 보내줘,6,Green,A,0,0,ScrollUp,ScrollDown,Green.png,2,NonTarget,NonTarget,,,,,0,0,0,0,,,,,,,,,,,,,,,,,0,12,12,12,,,,,,,,,,,,,,,,,,,,,,,,,,,,,,,,,,,,,,,,,,,,,,,,,,,,,,,,,,,,,,,,,,,,,,,,,,,,,2,0.9459269999933895,294.16990990002523,None,ScrollUp,정답입니다,294.16990990002523,None,294.16990990002523,None,294.16990990002523,None,294.16990990002523,None,295.0300342999981,None,295.0300342999981,295.5320177000249,,,,,,,,,,,,,,,,104,2023-04-18_15h39.02.504,FishGame,2022.1.1,59.87414454824591,
,14,넌 책임감있어,1,Orange,B,6.347826086956522,6,ScrollUp,ScrollDown,Orange.png,2,Positive,Incongruent,,,,,0,0,0,0,,,,,,,,,,,,,,,,,0,13,13,13,,,,,,,,,,,,,,,,,,,,,,,,,,,,,,,,,,,,,,,,,,,,,,,,,,,,,,,,,,,,,,,,,,,,,,,,,,,,,1.8518518557151158,0.7985696999821812,296.1422414999979,None,ScrollUp,정답입니다,296.1422414999979,None,296.1422414999979,None,296.1422414999979,None,296.1422414999979,None,296.8467099000118,None,296.8467099000118,297.34870420000516,,,,,,,,,,,,,,,,104,2023-04-18_15h39.02.504,FishGame,2022.1.1,59.87414454824591,
,15,넌 문학적이야,3,Green,A,4.708333333333334,4.333333333333333,ScrollDown,ScrollUp,Green.png,2,Neutral,Neutral,,,,,0,0,0,0,,,,,,,,,,,,,,,,,0,14,14,14,,,,,,,,,,,,,,,,,,,,,,,,,,,,,,,,,,,,,,,,,,,,,,,,,,,,,,,,,,,,,,,,,,,,,,,,,,,,,1,1.4298382999841124,297.95631390000926,None,ScrollDown,정답입니다,297.95631390000926,None,297.95631390000926,None,297.95631390000926,None,297.95631390000926,None,299.29667020001216,None,299.29667020001216,299.7987430000212,,,,,,,,,,,,,,,,104,2023-04-18_15h39.02.504,FishGame,2022.1.1,59.87414454824591,
,16,넌 재미있어,1,Orange,B,5.875,5.7,ScrollUp,ScrollDown,Orange.png,2,Positive,Incongruent,,,,,0,0,0,0,,,,,,,,,,,,,,,,,0,15,15,15,,,,,,,,,,,,,,,,,,,,,,,,,,,,,,,,,,,,,,,,,,,,,,,,,,,,,,,,,,,,,,,,,,,,,,,,,,,,,1.9459876318772633,0.9460232999990694,300.4108771000174,None,ScrollUp,정답입니다,300.4108771000174,None,300.4108771000174,None,300.4108771000174,None,300.4108771000174,None,301.2632696000219,None,301.2632696000219,301.76525570001104,,,,,,,,,,,,,,,,104,2023-04-18_15h39.02.504,FishGame,2022.1.1,59.87414454824591,
,17,나를 데려가줘,6,Orange,B,0,0,ScrollDown,ScrollUp,Orange.png,2,NonTarget,NonTarget,,,,,0,0,0,0,,,,,,,,,,,,,,,,,0,16,16,16,,,,,,,,,,,,,,,,,,,,,,,,,,,,,,,,,,,,,,,,,,,,,,,,,,,,,,,,,,,,,,,,,,,,,,,,,,,,,1,1.0484430000069551,302.37098570002127,None,ScrollDown,정답입니다,302.37098570002127,None,302.37098570002127,None,302.37098570002127,None,302.37098570002127,None,303.33196360000875,None,303.33196360000875,303.8319598000089,,,,,,,,,,,,,,,,104,2023-04-18_15h39.02.504,FishGame,2022.1.1,59.87414454824591,
,18,넌 협력적이야,1,Green,A,5.625,5.633333333333334,ScrollDown,ScrollUp,Green.png,2,Positive,Congruent,,,,,0,0,0,0,,,,,,,,,,,,,,,,,0,17,17,17,,,,,,,,,,,,,,,,,,,,,,,,,,,,,,,,,,,,,,,,,,,,,,,,,,,,,,,,,,,,,,,,,,,,,,,,,,,,,1,0.9462504999828525,304.44380840001395,None,ScrollDown,정답입니다,304.44380840001395,None,304.44380840001395,None,304.44380840001395,None,304.44380840001395,None,305.2985016000166,None,305.2985016000166,305.7985280000139,,,,,,,,,,,,,,,,104,2023-04-18_15h39.02.504,FishGame,2022.1.1,59.87414454824591,
,19,넌 평범해,3,Orange,B,4.333333333333332,4.233333333333333,ScrollUp,ScrollDown,Orange.png,2,Neutral,Neutral,,,,,0,0,0,0,,,,,,,,,,,,,,,,,0,18,18,18,,,,,,,,,,,,,,,,,,,,,,,,,,,,,,,,,,,,,,,,,,,,,,,,,,,,,,,,,,,,,,,,,,,,,,,,,,,,,1.7793209999799728,0.8152306999836583,306.40704879999976,None,ScrollUp,정답입니다,306.40704879999976,None,306.40704879999976,None,306.40704879999976,None,306.40704879999976,None,307.1298679000174,None,307.1298679000174,307.63188020000234,,,,,,,,,,,,,,,,104,2023-04-18_15h39.02.504,FishGame,2022.1.1,59.87414454824591,
,20,넌 오만해,5,Green,A,2.333333333333333,2,ScrollDown,ScrollUp,Green.png,2,Negative,Incongruent,,,,,0,0,0,0,,,,,,,,,,,,,,,,,0,19,19,19,,,,,,,,,,,,,,,,,,,,,,,,,,,,,,,,,,,,,,,,,,,,,,,,,,,,,,,,,,,,,,,,,,,,,,,,,,,,,1.0200617114702861,0.9292388999892864,308.24315449999995,None,ScrollDown,정답입니다,308.24315449999995,None,308.24315449999995,None,308.24315449999995,None,308.24315449999995,None,309.07953290001024,None,309.07953290001024,309.5794976000034,,,,,,,,,,,,,,,,104,2023-04-18_15h39.02.504,FishGame,2022.1.1,59.87414454824591,
,21,넌 운이없어,4,Orange,B,3,3.466666666666667,ScrollUp,ScrollDown,Orange.png,2,Negative,Congruent,,,,,0,0,0,0,,,,,,,,,,,,,,,,,0,20,20,20,,,,,,,,,,,,,,,,,,,,,,,,,,,,,,,,,,,,,,,,,,,,,,,,,,,,,,,,,,,,,,,,,,,,,,,,,,,,,1.9120370248953502,1.2654819000163116,310.19130650002626,None,ScrollUp,정답입니다,310.19130650002626,None,310.19130650002626,None,310.19130650002626,None,310.19130650002626,None,311.36534270000993,None,311.36534270000993,311.86525680002524,,,,,,,,,,,,,,,,104,2023-04-18_15h39.02.504,FishGame,2022.1.1,59.87414454824591,
,22,넌 창조적이야,2,Orange,B,6.125,4.633333333333334,ScrollUp,ScrollDown,Orange.png,2,Positive,Incongruent,,,,,0,0,0,0,,,,,,,,,,,,,,,,,0,21,21,21,,,,,,,,,,,,,,,,,,,,,,,,,,,,,,,,,,,,,,,,,,,,,,,,,,,,,,,,,,,,,,,,,,,,,,,,,,,,,1.7731481442848842,0.8789795000047889,312.47599910001736,None,ScrollUp,정답입니다,312.47599910001736,None,312.47599910001736,None,312.47599910001736,None,312.47599910001736,None,313.2627651000221,None,313.2627651000221,313.76272250001784,,,,,,,,,,,,,,,,104,2023-04-18_15h39.02.504,FishGame,2022.1.1,59.87414454824591,
,23,나를 보내줘,6,Green,A,0,0,ScrollUp,ScrollDown,Green.png,2,NonTarget,NonTarget,,,,,0,0,0,0,,,,,,,,,,,,,,,,,0,22,22,22,,,,,,,,,,,,,,,,,,,,,,,,,,,,,,,,,,,,,,,,,,,,,,,,,,,,,,,,,,,,,,,,,,,,,,,,,,,,,1.6975308607021966,0.7983300999912899,314.36601480000536,None,ScrollUp,정답입니다,314.36601480000536,None,314.36601480000536,None,314.36601480000536,None,314.36601480000536,None,315.07944640002097,None,315.07944640002097,315.58179260001634,,,,,,,,,,,,,,,,104,2023-04-18_15h39.02.504,FishGame,2022.1.1,59.87414454824591,
,24,넌 통찰력있어,2,Green,A,6.5,4.8,ScrollDown,ScrollUp,Green.png,2,Positive,Congruent,,,,,0,0,0,0,,,,,,,,,,,,,,,,,0,23,23,23,,,,,,,,,,,,,,,,,,,,,,,,,,,,,,,,,,,,,,,,,,,,,,,,,,,,,,,,,,,,,,,,,,,,,,,,,,,,,1,1.1484912000014447,316.1902159000165,None,ScrollDown,정답입니다,316.1902159000165,None,316.1902159000165,None,316.1902159000165,None,316.1902159000165,None,317.2485447000072,None,317.2485447000072,317.7520238000143,,,,,,,,,,,,,,,,104,2023-04-18_15h39.02.504,FishGame,2022.1.1,59.87414454824591,
,25,넌 경솔해,5,Orange,B,2.458333333333333,2.266666666666667,ScrollUp,ScrollDown,Orange.png,2,Negative,Congruent,,,,,0,0,0,0,,,,,,,,,,,,,,,,,0,24,24,24,,,,,,,,,,,,,,,,,,,,,,,,,,,,,,,,,,,,,,,,,,,,,,,,,,,,,,,,,,,,,,,,,,,,,,,,,,,,,1.8024691343307495,0.8483990000095218,318.3602236000006,None,ScrollUp,정답입니다,318.3602236000006,None,318.3602236000006,None,318.3602236000006,None,318.3602236000006,None,319.11500760001945,None,319.11500760001945,319.61498949999805,,,,,,,,,,,,,,,,104,2023-04-18_15h39.02.504,FishGame,2022.1.1,59.87414454824591,
,26,넌 초조해,4,Green,A,2.916666666666667,3.133333333333333,ScrollDown,ScrollUp,Green.png,2,Negative,Incongruent,,,,,0,0,0,0,,,,,,,,,,,,,,,,,0,25,25,25,,,,,,,,,,,,,,,,,,,,,,,,,,,,,,,,,,,,,,,,,,,,,,,,,,,,,,,,,,,,,,,,,,,,,,,,,,,,,1,0.9296220999967773,320.2202157000138,None,ScrollDown,정답입니다,320.2202157000138,None,320.2202157000138,None,320.2202157000138,None,320.2202157000138,None,321.064872500021,None,321.064872500021,321.56486800001585,,,,,,,,,,,,,,,,104,2023-04-18_15h39.02.504,FishGame,2022.1.1,59.87414454824591,
,27,넌 무관심해,4,Orange,B,2.833333333333333,2.9,ScrollUp,ScrollDown,Orange.png,2,Negative,Congruent,,,,,0,0,0,0,,,,,,,,,,,,,,,,,0,26,26,26,,,,,,,,,,,,,,,,,,,,,,,,,,,,,,,,,,,,,,,,,,,,,,,,,,,,,,,,,,,,,,,,,,,,,,,,,,,,,1.8533950696388881,1.1460794000013266,322.1733157999988,None,ScrollUp,정답입니다,322.1733157999988,None,322.1733157999988,None,322.1733157999988,None,322.1733157999988,None,323.2295105000085,None,323.2295105000085,323.7315508000029,,,,,,,,,,,,,,,,104,2023-04-18_15h39.02.504,FishGame,2022.1.1,59.87414454824591,
,28,넌 감성적이야,3,Orange,B,4.125,4.166666666666667,ScrollUp,ScrollDown,Orange.png,2,Neutral,Neutral,,,,,0,0,0,0,,,,,,,,,,,,,,,,,0,27,27,27,,,,,,,,,,,,,,,,,,,,,,,,,,,,,,,,,,,,,,,,,,,,,,,,,,,,,,,,,,,,,,,,,,,,,,,,,,,,,1.6172839477658272,0.796119800012093,324.34372270002495,None,ScrollUp,정답입니다,324.34372270002495,None,324.34372270002495,None,324.34372270002495,None,324.34372270002495,None,325.04588340001646,None,325.04588340001646,325.545924200007,,,,,,,,,,,,,,,,104,2023-04-18_15h39.02.504,FishGame,2022.1.1,59.87414454824591,
,29,넌 배려심있어,1,Green,A,6.083333333333333,5.5,ScrollDown,ScrollUp,Green.png,2,Positive,Congruent,,,,,0,0,0,0,,,,,,,,,,,,,,,,,0,28,28,28,,,,,,,,,,,,,,,,,,,,,,,,,,,,,,,,,,,,,,,,,,,,,,,,,,,,,,,,,,,,,,,,,,,,,,,,,,,,,1,0.9672183000075165,326.15027540002484,None,ScrollDown,정답입니다,326.15027540002484,None,326.15027540002484,None,326.15027540002484,None,326.15027540002484,None,327.03166280000005,None,327.03166280000005,327.53160070002195,,,,,,,,,,,,,,,,104,2023-04-18_15h39.02.504,FishGame,2022.1.1,59.87414454824591,
,30,넌 숨김없어,3,Green,A,4.5,4.933333333333334,ScrollDown,ScrollUp,Green.png,2,Neutral,Neutral,,,,,0,0,0,0,,,,,,,,,,,,,,,,,0,29,29,29,,,,,,,,,,,,,,,,,,,,,,,,,,,,,,,,,,,,,,,,,,,,,,,,,,,,,,,,,,,,,,,,,,,,,,,,,,,,,1.0046296219031017,0.8482467000139877,328.14025830000173,None,ScrollDown,정답입니다,328.14025830000173,None,328.14025830000173,None,328.14025830000173,None,328.14025830000173,None,328.8982800000231,None,328.8982800000231,329.3981997000228,,,,,,,,,,,,,,,,104,2023-04-18_15h39.02.504,FishGame,2022.1.1,59.87414454824591,
,31,넌 훌륭해,2,Orange,B,5.916666666666667,4.033333333333333,ScrollUp,ScrollDown,Orange.png,2,Positive,Incongruent,,,,,0,0,0,0,,,,,,,,,,,,,,,,,0,30,30,30,,,,,,,,,,,,,,,,,,,,,,,,,,,,,,,,,,,,,,,,,,,,,,,,,,,,,,,,,,,,,,,,,,,,,,,,,,,,,2,0.8766025000077207,330.0173452000017,None,ScrollUp,정답입니다,330.0173452000017,None,330.0173452000017,None,330.0173452000017,None,330.0173452000017,None,330.7980113000085,None,330.7980113000085,331.29804690001765,,,,,,,,,,,,,,,,104,2023-04-18_15h39.02.504,FishGame,2022.1.1,59.87414454824591,
,32,넌 슬기로워,2,Green,A,6.166666666666667,4.1,ScrollDown,ScrollUp,Green.png,2,Positive,Congruent,,,,,0,0,0,0,,,,,,,,,,,,,,,,,0,31,31,31,,,,,,,,,,,,,,,,,,,,,,,,,,,,,,,,,,,,,,,,,,,,,,,,,,,,,,,,,,,,,,,,,,,,,,,,,,,,,1,0.8983553999860305,331.90379840001697,None,ScrollDown,정답입니다,331.90379840001697,None,331.90379840001697,None,331.90379840001697,None,331.90379840001697,None,332.7126495000266,None,332.7126495000266,333.21471500000916,,,,,,,,,,,,,,,,104,2023-04-18_15h39.02.504,FishGame,2022.1.1,59.87414454824591,
,33,넌 냉혹해,5,Green,A,2.583333333333333,2.1,ScrollDown,ScrollUp,Green.png,2,Negative,Incongruent,,,,,0,0,0,0,,,,,,,,,,,,,,,,,0,32,32,32,,,,,,,,,,,,,,,,,,,,,,,,,,,,,,,,,,,,,,,,,,,,,,,,,,,,,,,,,,,,,,,,,,,,,,,,,,,,,1.1682098756233852,0.8460664000012912,333.8269704999984,None,ScrollDown,정답입니다,333.8269704999984,None,333.8269704999984,None,333.8269704999984,None,333.8269704999984,None,334.5812527000089,None,334.5812527000089,335.0812504000205,,,,,,,,,,,,,,,,104,2023-04-18_15h39.02.504,FishGame,2022.1.1,59.87414454824591,
,34,나를 데려가줘,6,Orange,B,0,0,ScrollDown,ScrollUp,Orange.png,2,NonTarget,NonTarget,,,,,0,0,0,0,,,,,,,,,,,,,,,,,0,33,33,33,,,,,,,,,,,,,,,,,,,,,,,,,,,,,,,,,,,,,,,,,,,,,,,,,,,,,,,,,,,,,,,,,,,,,,,,,,,,,1,0.7966788999910932,335.6872294000059,None,ScrollDown,정답입니다,335.6872294000059,None,335.6872294000059,None,335.6872294000059,None,335.6872294000059,None,336.39801720000105,None,336.39801720000105,336.89795250000316,,,,,,,,,,,,,,,,104,2023-04-18_15h39.02.504,FishGame,2022.1.1,59.87414454824591,
,35,넌 편파적이야,5,Orange,B,2.125,2,ScrollUp,ScrollDown,Orange.png,2,Negative,Congruent,,,,,0,0,0,0,,,,,,,,,,,,,,,,,0,34,34,34,,,,,,,,,,,,,,,,,,,,,,,,,,,,,,,,,,,,,,,,,,,,,,,,,,,,,,,,,,,,,,,,,,,,,,,,,,,,,1.7916666616996129,0.896162999997614,337.506798300019,None,ScrollUp,정답입니다,337.506798300019,None,337.506798300019,None,337.506798300019,None,337.506798300019,None,338.31454120000126,None,338.31454120000126,338.8145462000102,,,,,,,,,,,,,,,,104,2023-04-18_15h39.02.504,FishGame,2022.1.1,59.87414454824591,
,36,넌 슬퍼,4,Green,A,2.583333333333333,3.066666666666667,ScrollDown,ScrollUp,Green.png,2,Negative,Incongruent,,,,,0,0,0,0,,,,,,,,,,,,,,,,,0,35,35,35,,,,,,,,,,,,,,,,,,,,,,,,,,,,,,,,,,,,,,,,,,,,,,,,,,,,,,,,,,,,,,,,,,,,,,,,,,,,,1.1172839403152466,0.8298141999985091,339.4244416000147,None,ScrollDown,정답입니다,339.4244416000147,None,339.4244416000147,None,339.4244416000147,None,339.4244416000147,None,340.1645055000263,None,340.1645055000263,340.6645011000219,,,,,,,,,,,,,,,,104,2023-04-18_15h39.02.504,FishGame,2022.1.1,59.87414454824591,
,37,나를 데려가줘,6,Orange,B,0,0,ScrollDown,ScrollUp,Orange.png,2,NonTarget,NonTarget,,,,,0,0,0,0,,,,,,,,,,,,,,,,,0,36,36,36,,,,,,,,,,,,,,,,,,,,,,,,,,,,,,,,,,,,,,,,,,,,,,,,,,,,,,,,,,,,,,,,,,,,,,,,,,,,,1,0.8464070000045467,341.27092249999987,None,ScrollDown,정답입니다,341.27092249999987,None,341.27092249999987,None,341.27092249999987,None,341.27092249999987,None,342.0311768000247,None,342.0311768000247,342.5312152999977,,,,,,,,,,,,,,,,104,2023-04-18_15h39.02.504,FishGame,2022.1.1,59.87414454824591,
,38,넌 친절해,1,Orange,B,6.041666666666667,5.533333333333333,ScrollUp,ScrollDown,Orange.png,2,Positive,Incongruent,,,,,0,0,0,0,,,,,,,,,,,,,,,,,0,37,37,37,,,,,,,,,,,,,,,,,,,,,,,,,,,,,,,,,,,,,,,,,,,,,,,,,,,,,,,,,,,,,,,,,,,,,,,,,,,,,1.9135802388191223,1.2630200999847148,343.14874990002136,None,ScrollUp,정답입니다,343.14874990002136,None,343.14874990002136,None,343.14874990002136,None,343.14874990002136,None,344.31462790002115,None,344.31462790002115,344.81447710000793,,,,,,,,,,,,,,,,104,2023-04-18_15h39.02.504,FishGame,2022.1.1,59.87414454824591,
,1,넌 엉성해,4,Green,A,3,3.3,ScrollDown,ScrollUp,Green.png,3,Negative,Incongruent,,,,,0,0,0,0,,,,,,,,,,,,,,,,,,,,,0,0,0,0,,,,,,,,,,,,,,,,,,,,,,,,,,,,,,,,378.24710580002284,379.74726280002506,379.78057900001295,380.7335802000016,380.7838116000057,381.7472364999994,381.7305692000082,None,,,,,,,,,,,,,,,,,,,,,,,,,,,,,,,,,,1,1.2606904999993276,382.8144837,None,ScrollDown,정답입니다,382.8144837,None,382.8144837,None,382.8144837,None,382.8144837,None,383.98051730002044,None,383.98051730002044,384.48037520001526,345.317784200015,None,345.317784200015,None,0.26666668,-0.15833333,1,0,0,0.016404969966970384,None,375.33036910000374,None,,,104,2023-04-18_15h39.02.504,FishGame,2022.1.1,59.87414454824591,
,2,나를 보내줘,6,Green,A,0,0,ScrollUp,ScrollDown,Green.png,3,NonTarget,NonTarget,,,,,0,0,0,0,,,,,,,,,,,,,,,,,,,,,0,1,1,1,,,,,,,,,,,,,,,,,,,,,,,,,,,,,,,,,,,,,,,,,,,,,,,,,,,,,,,,,,,,,,,,,,,,,,,,,1.7299382785956063,0.8426783999893814,385.09294780000346,None,ScrollUp,정답입니다,385.09294780000346,None,385.09294780000346,None,385.09294780000346,None,385.09294780000346,None,385.84463990002405,None,385.84463990002405,386.3446291,,,,,,,,,,,,,,,,104,2023-04-18_15h39.02.504,FishGame,2022.1.1,59.87414454824591,
,3,넌 활발해,1,Orange,B,5.666666666666667,5.6,ScrollUp,ScrollDown,Orange.png,3,Positive,Incongruent,,,,,0,0,0,0,,,,,,,,,,,,,,,,,,,,,0,2,2,2,,,,,,,,,,,,,,,,,,,,,,,,,,,,,,,,,,,,,,,,,,,,,,,,,,,,,,,,,,,,,,,,,,,,,,,,,1.9104938358068466,1.0978837999864481,386.9516569999978,None,ScrollUp,정답입니다,386.9516569999978,None,386.9516569999978,None,386.9516569999978,None,386.9516569999978,None,387.9614707000146,None,387.9614707000146,388.46374560002005,,,,,,,,,,,,,,,,104,2023-04-18_15h39.02.504,FishGame,2022.1.1,59.87414454824591,
,4,넌 논리적이야,2,Green,A,5.666666666666666,4.633333333333334,ScrollDown,ScrollUp,Green.png,3,Positive,Congruent,,,,,0,0,0,0,,,,,,,,,,,,,,,,,,,,,0,3,3,3,,,,,,,,,,,,,,,,,,,,,,,,,,,,,,,,,,,,,,,,,,,,,,,,,,,,,,,,,,,,,,,,,,,,,,,,,1,0.8819102999987081,389.0703757000156,None,ScrollDown,정답입니다,389.0703757000156,None,389.0703757000156,None,389.0703757000156,None,389.0703757000156,None,389.8637690000178,None,389.8637690000178,390.366809500003,,,,,,,,,,,,,,,,104,2023-04-18_15h39.02.504,FishGame,2022.1.1,59.87414454824591,
,5,넌 과묵해,3,Green,A,3.875,4.4,ScrollDown,ScrollUp,Green.png,3,Neutral,Neutral,,,,,0,0,0,0,,,,,,,,,,,,,,,,,,,,,0,4,4,4,,,,,,,,,,,,,,,,,,,,,,,,,,,,,,,,,,,,,,,,,,,,,,,,,,,,,,,,,,,,,,,,,,,,,,,,,1.3179012288649878,0.9964146999991499,390.96942210002453,None,ScrollDown,정답입니다,390.96942210002453,None,390.96942210002453,None,390.96942210002453,None,390.96942210002453,None,391.88014570000814,None,391.88014570000814,392.3801838000072,,,,,,,,,,,,,,,,104,2023-04-18_15h39.02.504,FishGame,2022.1.1,59.87414454824591,
,6,나를 데려가줘,6,Orange,B,0,0,ScrollDown,ScrollUp,Orange.png,3,NonTarget,NonTarget,,,,,0,0,0,0,,,,,,,,,,,,,,,,,,,,,0,5,5,5,,,,,,,,,,,,,,,,,,,,,,,,,,,,,,,,,,,,,,,,,,,,,,,,,,,,,,,,,,,,,,,,,,,,,,,,,1,0.8761863999825437,392.99436710000737,None,ScrollDown,정답입니다,392.99436710000737,None,392.99436710000737,None,392.99436710000737,None,392.99436710000737,None,393.77780700000585,None,393.77780700000585,394.2777839000046,,,,,,,,,,,,,,,,104,2023-04-18_15h39.02.504,FishGame,2022.1.1,59.87414454824591,
,7,넌 미숙해,4,Orange,B,3,3,ScrollUp,ScrollDown,Orange.png,3,Negative,Congruent,,,,,0,0,0,0,,,,,,,,,,,,,,,,,,,,,0,6,6,6,,,,,,,,,,,,,,,,,,,,,,,,,,,,,,,,,,,,,,,,,,,,,,,,,,,,,,,,,,,,,,,,,,,,,,,,,1.7839506169160206,0.898123899998609,394.87856490002014,None,ScrollUp,정답입니다,394.87856490002014,None,394.87856490002014,None,394.87856490002014,None,394.87856490002014,None,395.6945278000203,None,395.6945278000203,396.19695550002507,,,,,,,,,,,,,,,,104,2023-04-18_15h39.02.504,FishGame,2022.1.1,59.87414454824591,
,8,나를 보내줘,6,Green,A,0,0,ScrollUp,ScrollDown,Green.png,3,NonTarget,NonTarget,,,,,0,0,0,0,,,,,,,,,,,,,,,,,,,,,0,7,7,7,,,,,,,,,,,,,,,,,,,,,,,,,,,,,,,,,,,,,,,,,,,,,,,,,,,,,,,,,,,,,,,,,,,,,,,,,1.8425925970077515,0.9154700000071898,396.8006922000204,None,ScrollUp,정답입니다,396.8006922000204,None,396.8006922000204,None,396.8006922000204,None,396.8006922000204,None,397.6303629000031,None,397.6303629000031,398.13346570002614,,,,,,,,,,,,,,,,104,2023-04-18_15h39.02.504,FishGame,2022.1.1,59.87414454824591,
,9,넌 자신만만해,3,Orange,B,4.833333333333334,4.333333333333333,ScrollUp,ScrollDown,Orange.png,3,Neutral,Neutral,,,,,0,0,0,0,,,,,,,,,,,,,,,,,,,,,0,8,8,8,,,,,,,,,,,,,,,,,,,,,,,,,,,,,,,,,,,,,,,,,,,,,,,,,,,,,,,,,,,,,,,,,,,,,,,,,2,1.2297760999936145,398.7358966000029,None,ScrollUp,정답입니다,398.7358966000029,None,398.7358966000029,None,398.7358966000029,None,398.7358966000029,None,399.880141200003,None,399.880141200003,400.3800263000012,,,,,,,,,,,,,,,,104,2023-04-18_15h39.02.504,FishGame,2022.1.1,59.87414454824591,
,10,넌 탐욕스러워,5,Green,A,2.25,2.1,ScrollDown,ScrollUp,Green.png,3,Negative,Incongruent,,,,,0,0,0,0,,,,,,,,,,,,,,,,,,,,,0,9,9,9,,,,,,,,,,,,,,,,,,,,,,,,,,,,,,,,,,,,,,,,,,,,,,,,,,,,,,,,,,,,,,,,,,,,,,,,,1.0895061641931534,0.9430507999786641,400.99476090000826,None,ScrollDown,정답입니다,400.99476090000826,None,400.99476090000826,None,400.99476090000826,None,400.99476090000826,None,401.84432920001564,None,401.84432920001564,402.3443935000105,,,,,,,,,,,,,,,,104,2023-04-18_15h39.02.504,FishGame,2022.1.1,59.87414454824591,
,11,넌 인기있어,2,Green,A,5.458333333333333,4.5,ScrollDown,ScrollUp,Green.png,3,Positive,Congruent,,,,,0,0,0,0,,,,,,,,,,,,,,,,,,,,,0,10,10,10,,,,,,,,,,,,,,,,,,,,,,,,,,,,,,,,,,,,,,,,,,,,,,,,,,,,,,,,,,,,,,,,,,,,,,,,,1,0.9143219000252429,402.94540140000754,None,ScrollDown,정답입니다,402.94540140000754,None,402.94540140000754,None,402.94540140000754,None,402.94540140000754,None,403.77766910000355,None,403.77766910000355,404.2800904000178,,,,,,,,,,,,,,,,104,2023-04-18_15h39.02.504,FishGame,2022.1.1,59.87414454824591,
,12,나를 데려가줘,6,Orange,B,0,0,ScrollDown,ScrollUp,Orange.png,3,NonTarget,NonTarget,,,,,0,0,0,0,,,,,,,,,,,,,,,,,,,,,0,11,11,11,,,,,,,,,,,,,,,,,,,,,,,,,,,,,,,,,,,,,,,,,,,,,,,,,,,,,,,,,,,,,,,,,,,,,,,,,1,0.8815186999854632,404.8873099000193,None,ScrollDown,정답입니다,404.8873099000193,None,404.8873099000193,None,404.8873099000193,None,404.8873099000193,None,405.68015280002146,None,405.68015280002146,406.1800163000007,,,,,,,,,,,,,,,,104,2023-04-18_15h39.02.504,FishGame,2022.1.1,59.87414454824591,
,13,넌 뛰어나,2,Orange,B,6.166666666666667,4,ScrollUp,ScrollDown,Orange.png,3,Positive,Incongruent,,,,,0,0,0,0,,,,,,,,,,,,,,,,,,,,,0,12,12,12,,,,,,,,,,,,,,,,,,,,,,,,,,,,,,,,,,,,,,,,,,,,,,,,,,,,,,,,,,,,,,,,,,,,,,,,,1.5709876542290053,0.9463547999912407,406.79247520002536,None,ScrollUp,정답입니다,406.79247520002536,None,406.79247520002536,None,406.79247520002536,None,406.79247520002536,None,407.6465167000133,None,407.6465167000133,408.14651990000857,,,,,,,,,,,,,,,,104,2023-04-18_15h39.02.504,FishGame,2022.1.1,59.87414454824591,
,14,넌 낙관적이야,1,Green,A,5.75,5.8,ScrollDown,ScrollUp,Green.png,3,Positive,Congruent,,,,,0,0,0,0,,,,,,,,,,,,,,,,,,,,,0,13,13,13,,,,,,,,,,,,,,,,,,,,,,,,,,,,,,,,,,,,,,,,,,,,,,,,,,,,,,,,,,,,,,,,,,,,,,,,,1.060185174147288,1.0818635000032373,408.75398580002366,None,ScrollDown,정답입니다,408.75398580002366,None,408.75398580002366,None,408.75398580002366,None,408.75398580002366,None,409.7466105000058,None,409.7466105000058,410.24640930001624,,,,,,,,,,,,,,,,104,2023-04-18_15h39.02.504,FishGame,2022.1.1,59.87414454824591,
,15,넌 산만해,4,Orange,B,2.695652173913043,3.033333333333333,ScrollUp,ScrollDown,Orange.png,3,Negative,Congruent,,,,,0,0,0,0,,,,,,,,,,,,,,,,,,,,,0,14,14,14,,,,,,,,,,,,,,,,,,,,,,,,,,,,,,,,,,,,,,,,,,,,,,,,,,,,,,,,,,,,,,,,,,,,,,,,,1.8626543283462524,0.9294681999890599,410.8514787000022,None,ScrollUp,정답입니다,410.8514787000022,None,410.8514787000022,None,410.8514787000022,None,410.8514787000022,None,411.69438300002366,None,411.69438300002366,412.19639490000554,,,,,,,,,,,,,,,,104,2023-04-18_15h39.02.504,FishGame,2022.1.1,59.87414454824591,
,16,나를 보내줘,6,Green,A,0,0,ScrollUp,ScrollDown,Green.png,3,NonTarget,NonTarget,,,,,0,0,0,0,,,,,,,,,,,,,,,,,,,,,0,15,15,15,,,,,,,,,,,,,,,,,,,,,,,,,,,,,,,,,,,,,,,,,,,,,,,,,,,,,,,,,,,,,,,,,,,,,,,,,1.8348765522241592,0.8319198999961372,412.8008795000205,None,ScrollUp,정답입니다,412.8008795000205,None,412.8008795000205,None,412.8008795000205,None,412.8008795000205,None,413.54643170000054,None,413.54643170000054,414.04650720002246,,,,,,,,,,,,,,,,104,2023-04-18_15h39.02.504,FishGame,2022.1.1,59.87414454824591,
,17,넌 교활해,5,Orange,B,2.333333333333333,2.133333333333333,ScrollUp,ScrollDown,Orange.png,3,Negative,Congruent,,,,,0,0,0,0,,,,,,,,,,,,,,,,,,,,,0,16,16,16,,,,,,,,,,,,,,,,,,,,,,,,,,,,,,,,,,,,,,,,,,,,,,,,,,,,,,,,,,,,,,,,,,,,,,,,,1.751543199022611,0.8461151999945287,414.654431700008,None,ScrollUp,정답입니다,414.654431700008,None,414.654431700008,None,414.654431700008,None,414.654431700008,None,415.4107136000239,None,415.4107136000239,415.9107058000227,,,,,,,,,,,,,,,,104,2023-04-18_15h39.02.504,FishGame,2022.1.1,59.87414454824591,
,18,나를 보내줘,6,Green,A,0,0,ScrollUp,ScrollDown,Green.png,3,NonTarget,NonTarget,,,,,0,0,0,0,,,,,,,,,,,,,,,,,,,,,0,17,17,17,,,,,,,,,,,,,,,,,,,,,,,,,,,,,,,,,,,,,,,,,,,,,,,,,,,,,,,,,,,,,,,,,,,,,,,,,1.7253086368242898,0.7981748000020161,416.5114204999991,None,ScrollUp,정답입니다,416.5114204999991,None,416.5114204999991,None,416.5114204999991,None,416.5114204999991,None,417.2274140000227,None,417.2274140000227,417.72981250000885,,,,,,,,,,,,,,,,104,2023-04-18_15h39.02.504,FishGame,2022.1.1,59.87414454824591,
,19,넌 불친절해,5,Orange,B,2.208333333333333,2.033333333333333,ScrollUp,ScrollDown,Orange.png,3,Negative,Congruent,,,,,0,0,0,0,,,,,,,,,,,,,,,,,,,,,0,18,18,18,,,,,,,,,,,,,,,,,,,,,,,,,,,,,,,,,,,,,,,,,,,,,,,,,,,,,,,,,,,,,,,,,,,,,,,,,1.7222222338120141,1.514862499985611,418.3359563999984,None,ScrollUp,정답입니다,418.3359563999984,None,418.3359563999984,None,418.3359563999984,None,418.3359563999984,None,419.7632595000032,None,419.7632595000032,420.26294090002193,,,,,,,,,,,,,,,,104,2023-04-18_15h39.02.504,FishGame,2022.1.1,59.87414454824591,
,20,넌 지적이야,2,Orange,B,5.75,4.366666666666666,ScrollUp,ScrollDown,Orange.png,3,Positive,Incongruent,,,,,0,0,0,0,,,,,,,,,,,,,,,,,,,,,0,19,19,19,,,,,,,,,,,,,,,,,,,,,,,,,,,,,,,,,,,,,,,,,,,,,,,,,,,,,,,,,,,,,,,,,,,,,,,,,1.825617293516795,0.898484000004828,420.86926860001404,None,ScrollUp,정답입니다,420.86926860001404,None,420.86926860001404,None,420.86926860001404,None,420.86926860001404,None,421.67969700001413,None,421.67969700001413,422.1796163000108,,,,,,,,,,,,,,,,104,2023-04-18_15h39.02.504,FishGame,2022.1.1,59.87414454824591,
,21,넌 우유부단해,4,Green,A,2.666666666666667,3.166666666666667,ScrollDown,ScrollUp,Green.png,3,Negative,Incongruent,,,,,0,0,0,0,,,,,,,,,,,,,,,,,,,,,0,20,20,20,,,,,,,,,,,,,,,,,,,,,,,,,,,,,,,,,,,,,,,,,,,,,,,,,,,,,,,,,,,,,,,,,,,,,,,,,1,0.8297418999718502,422.7863893000176,None,ScrollDown,정답입니다,422.7863893000176,None,422.7863893000176,None,422.7863893000176,None,422.7863893000176,None,423.52746320000733,None,423.52746320000733,424.0295044000086,,,,,,,,,,,,,,,,104,2023-04-18_15h39.02.504,FishGame,2022.1.1,59.87414454824591,
,22,나를 데려가줘,6,Orange,B,0,0,ScrollDown,ScrollUp,Orange.png,3,NonTarget,NonTarget,,,,,0,0,0,0,,,,,,,,,,,,,,,,,,,,,0,21,21,21,,,,,,,,,,,,,,,,,,,,,,,,,,,,,,,,,,,,,,,,,,,,,,,,,,,,,,,,,,,,,,,,,,,,,,,,,1,0.8149360000097658,424.6344397000212,None,ScrollDown,정답입니다,424.6344397000212,None,424.6344397000212,None,424.6344397000212,None,424.6344397000212,None,425.36080819999916,None,425.36080819999916,425.86285679999855,,,,,,,,,,,,,,,,104,2023-04-18_15h39.02.504,FishGame,2022.1.1,59.87414454824591,
,23,넌 성실해,1,Orange,B,6.041666666666666,5.7,ScrollUp,ScrollDown,Orange.png,3,Positive,Incongruent,,,,,0,0,0,0,,,,,,,,,,,,,,,,,,,,,0,22,22,22,,,,,,,,,,,,,,,,,,,,,,,,,,,,,,,,,,,,,,,,,,,,,,,,,,,,,,,,,,,,,,,,,,,,,,,,,1.9521604875723522,0.7595803999865893,426.4652888000128,None,ScrollUp,정답입니다,426.4652888000128,None,426.4652888000128,None,426.4652888000128,None,426.4652888000128,None,427.13925960002234,None,427.13925960002234,427.6438135000062,,,,,,,,,,,,,,,,104,2023-04-18_15h39.02.504,FishGame,2022.1.1,59.87414454824591,
,24,넌 현실주의적이야,3,Green,A,4.625,4.4,ScrollDown,ScrollUp,Green.png,3,Neutral,Neutral,,,,,0,0,0,0,,,,,,,,,,,,,,,,,,,,,0,23,23,23,,,,,,,,,,,,,,,,,,,,,,,,,,,,,,,,,,,,,,,,,,,,,,,,,,,,,,,,,,,,,,,,,,,,,,,,,1.0092592636744182,0.7814501000102609,428.24644240000634,None,ScrollDown,정답입니다,428.24644240000634,None,428.24644240000634,None,428.24644240000634,None,428.24644240000634,None,428.9437938000192,None,428.9437938000192,429.44383070000913,,,,,,,,,,,,,,,,104,2023-04-18_15h39.02.504,FishGame,2022.1.1,59.87414454824591,
,25,넌 진실돼,1,Green,A,6.625,5.566666666666666,ScrollDown,ScrollUp,Green.png,3,Positive,Congruent,,,,,0,0,0,0,,,,,,,,,,,,,,,,,,,,,0,24,24,24,,,,,,,,,,,,,,,,,,,,,,,,,,,,,,,,,,,,,,,,,,,,,,,,,,,,,,,,,,,,,,,,,,,,,,,,,1,1.0818658999924082,430.0532239000022,None,ScrollDown,정답입니다,430.0532239000022,None,430.0532239000022,None,430.0532239000022,None,430.0532239000022,None,431.04630020001787,None,431.04630020001787,431.5462038000114,,,,,,,,,,,,,,,,104,2023-04-18_15h39.02.504,FishGame,2022.1.1,59.87414454824591,
,26,넌 천진난만해,3,Orange,B,4.958333333333334,4.833333333333333,ScrollUp,ScrollDown,Orange.png,3,Neutral,Neutral,,,,,0,0,0,0,,,,,,,,,,,,,,,,,,,,,0,25,25,25,,,,,,,,,,,,,,,,,,,,,,,,,,,,,,,,,,,,,,,,,,,,,,,,,,,,,,,,,,,,,,,,,,,,,,,,,1.8333333383003871,0.8484021000040229,432.1552079000103,None,ScrollUp,정답입니다,432.1552079000103,None,432.1552079000103,None,432.1552079000103,None,432.1552079000103,None,432.910781100014,None,432.910781100014,433.41267170000356,,,,,,,,,,,,,,,,104,2023-04-18_15h39.02.504,FishGame,2022.1.1,59.87414454824591,
,27,넌 교양없어,5,Green,A,2.416666666666667,2.2,ScrollDown,ScrollUp,Green.png,3,Negative,Incongruent,,,,,0,0,0,0,,,,,,,,,,,,,,,,,,,,,0,26,26,26,,,,,,,,,,,,,,,,,,,,,,,,,,,,,,,,,,,,,,,,,,,,,,,,,,,,,,,,,,,,,,,,,,,,,,,,,1.1049382785956066,0.6985870999924373,434.0156040000147,None,ScrollDown,정답입니다,434.0156040000147,None,434.0156040000147,None,434.0156040000147,None,434.0156040000147,None,434.62934980000136,None,434.62934980000136,435.1293331000197,,,,,,,,,,,,,,,,104,2023-04-18_15h39.02.504,FishGame,2022.1.1,59.87414454824591,
,28,나를 보내줘,6,Green,A,0,0,ScrollUp,ScrollDown,Green.png,3,NonTarget,NonTarget,,,,,0,0,0,0,,,,,,,,,,,,,,,,,,,,,0,27,27,27,,,,,,,,,,,,,,,,,,,,,,,,,,,,,,,,,,,,,,,,,,,,,,,,,,,,,,,,,,,,,,,,,,,,,,,,,2,1.145312600012403,435.7363261000137,None,ScrollUp,정답입니다,435.7363261000137,None,435.7363261000137,None,435.7363261000137,None,435.7363261000137,None,436.7960126000107,None,436.7960126000107,437.2959685000242,,,,,,,,,,,,,,,,104,2023-04-18_15h39.02.504,FishGame,2022.1.1,59.87414454824591,
,29,넌 엉뚱스러워,3,Green,A,4.166666666666667,4.133333333333334,ScrollDown,ScrollUp,Green.png,3,Neutral,Neutral,,,,,0,0,0,0,,,,,,,,,,,,,,,,,,,,,0,28,28,28,,,,,,,,,,,,,,,,,,,,,,,,,,,,,,,,,,,,,,,,,,,,,,,,,,,,,,,,,,,,,,,,,,,,,,,,,1.2746913631757102,1.1763616999960504,437.910440800013,None,ScrollDown,정답입니다,437.910440800013,None,437.910440800013,None,437.910440800013,None,437.910440800013,None,438.99361010000575,None,438.99361010000575,439.49396280001383,,,,,,,,,,,,,,,,104,2023-04-18_15h39.02.504,FishGame,2022.1.1,59.87414454824591,
,30,넌 무지해,4,Orange,B,2.541666666666667,3.066666666666667,ScrollUp,ScrollDown,Orange.png,3,Negative,Congruent,,,,,0,0,0,0,,,,,,,,,,,,,,,,,,,,,0,29,29,29,,,,,,,,,,,,,,,,,,,,,,,,,,,,,,,,,,,,,,,,,,,,,,,,,,,,,,,,,,,,,,,,,,,,,,,,,1.8657407313585281,0.9658549999876413,440.0983181000047,None,ScrollUp,정답입니다,440.0983181000047,None,440.0983181000047,None,440.0983181000047,None,440.0983181000047,None,440.97934370001894,None,440.97934370001894,441.4793063000252,,,,,,,,,,,,,,,,104,2023-04-18_15h39.02.504,FishGame,2022.1.1,59.87414454824591,
,31,넌 음울해,5,Orange,B,2.25,2.233333333333333,ScrollUp,ScrollDown,Orange.png,3,Negative,Congruent,,,,,0,0,0,0,,,,,,,,,,,,,,,,,,,,,0,30,30,30,,,,,,,,,,,,,,,,,,,,,,,,,,,,,,,,,,,,,,,,,,,,,,,,,,,,,,,,,,,,,,,,,,,,,,,,,1.9876543084780376,0.9434232999919914,442.0856529000157,None,ScrollUp,정답입니다,442.0856529000157,None,442.0856529000157,None,442.0856529000157,None,442.0856529000157,None,442.9292676000041,None,442.9292676000041,443.44349410000723,,,,,,,,,,,,,,,,104,2023-04-18_15h39.02.504,FishGame,2022.1.1,59.87414454824591,
,32,넌 냉소적이야,5,Green,A,2.916666666666667,2.4,ScrollDown,ScrollUp,Green.png,3,Negative,Incongruent,,,,,0,0,0,0,,,,,,,,,,,,,,,,,,,,,0,31,31,31,,,,,,,,,,,,,,,,,,,,,,,,,,,,,,,,,,,,,,,,,,,,,,,,,,,,,,,,,,,,,,,,,,,,,,,,,1,0.8980945000075735,444.04516390000936,None,ScrollDown,정답입니다,444.04516390000936,None,444.04516390000936,None,444.04516390000936,None,444.04516390000936,None,444.86018129999866,None,444.86018129999866,445.3625552000012,,,,,,,,,,,,,,,,104,2023-04-18_15h39.02.504,FishGame,2022.1.1,59.87414454824591,
,33,나를 데려가줘,6,Orange,B,0,0,ScrollDown,ScrollUp,Orange.png,3,NonTarget,NonTarget,,,,,0,0,0,0,,,,,,,,,,,,,,,,,,,,,0,32,32,32,,,,,,,,,,,,,,,,,,,,,,,,,,,,,,,,,,,,,,,,,,,,,,,,,,,,,,,,,,,,,,,,,,,,,,,,,1.1018518507480621,0.8798560999857727,445.9690087000199,None,ScrollDown,정답입니다,445.9690087000199,None,445.9690087000199,None,445.9690087000199,None,445.9690087000199,None,446.7625884000154,None,446.7625884000154,447.26253649999853,,,,,,,,,,,,,,,,104,2023-04-18_15h39.02.504,FishGame,2022.1.1,59.87414454824591,
,34,넌 쾌활해,1,Green,A,5.541666666666666,5.733333333333333,ScrollDown,ScrollUp,Green.png,3,Positive,Congruent,,,,,0,0,0,0,,,,,,,,,,,,,,,,,,,,,0,33,33,33,,,,,,,,,,,,,,,,,,,,,,,,,,,,,,,,,,,,,,,,,,,,,,,,,,,,,,,,,,,,,,,,,,,,,,,,,1.1033950646718342,0.8620282000047155,447.87078190001193,None,ScrollDown,정답입니다,447.87078190001193,None,447.87078190001193,None,447.87078190001193,None,447.87078190001193,None,448.64568400001735,None,448.64568400001735,449.1457341000205,,,,,,,,,,,,,,,,104,2023-04-18_15h39.02.504,FishGame,2022.1.1,59.87414454824591,
,35,나를 보내줘,6,Green,A,0,0,ScrollUp,ScrollDown,Green.png,3,NonTarget,NonTarget,,,,,0,0,0,0,,,,,,,,,,,,,,,,,,,,,0,34,34,34,,,,,,,,,,,,,,,,,,,,,,,,,,,,,,,,,,,,,,,,,,,,,,,,,,,,,,,,,,,,,,,,,,,,,,,,,1.9938271641731262,0.9454729999997653,449.7489504000114,None,ScrollUp,정답입니다,449.7489504000114,None,449.7489504000114,None,449.7489504000114,None,449.7489504000114,None,450.6123146000027,None,450.6123146000027,451.12893410000834,,,,,,,,,,,,,,,,104,2023-04-18_15h39.02.504,FishGame,2022.1.1,59.87414454824591,
,36,넌 명랑해,1,Orange,B,5.739130434782609,5.666666666666667,ScrollUp,ScrollDown,Orange.png,3,Positive,Incongruent,,,,,0,0,0,0,,,,,,,,,,,,,,,,,,,,,0,35,35,35,,,,,,,,,,,,,,,,,,,,,,,,,,,,,,,,,,,,,,,,,,,,,,,,,,,,,,,,,,,,,,,,,,,,,,,,,1.8688271592060726,0.8797788999800105,451.72065719999955,None,ScrollUp,정답입니다,451.72065719999955,None,451.72065719999955,None,451.72065719999955,None,451.72065719999955,None,452.5122386000003,None,452.5122386000003,453.0122735000041,,,,,,,,,,,,,,,,104,2023-04-18_15h39.02.504,FishGame,2022.1.1,59.87414454824591,
,37,넌 멍해,4,Green,A,2.833333333333333,3.4,ScrollDown,ScrollUp,Green.png,3,Negative,Incongruent,,,,,0,0,0,0,,,,,,,,,,,,,,,,,,,,,0,36,36,36,,,,,,,,,,,,,,,,,,,,,,,,,,,,,,,,,,,,,,,,,,,,,,,,,,,,,,,,,,,,,,,,,,,,,,,,,1.1913580348094304,0.8463446999958251,453.6183512000134,None,ScrollDown,정답입니다,453.6183512000134,None,453.6183512000134,None,453.6183512000134,None,453.6183512000134,None,454.3790343000146,None,454.3790343000146,454.8822091000038,,,,,,,,,,,,,,,,104,2023-04-18_15h39.02.504,FishGame,2022.1.1,59.87414454824591,
,38,나를 데려가줘,6,Orange,B,0,0,ScrollDown,ScrollUp,Orange.png,3,NonTarget,NonTarget,,,,,0,0,0,0,,,,,,,,,,,,,,,,,,,,,0,37,37,37,,,,,,,,,,,,,,,,,,,,,,,,,,,,,,,,,,,,,,,,,,,,,,,,,,,,,,,,,,,,,,,,,,,,,,,,,1,0.7984370000194758,455.48411360001774,None,ScrollDown,정답입니다,455.48411360001774,None,455.48411360001774,None,455.48411360001774,None,455.48411360001774,None,456.1935490000178,None,456.1935490000178,456.6955133000156,,,,,,,,,,,,,,,,104,2023-04-18_15h39.02.504,FishGame,2022.1.1,59.87414454824591,
,39,넌 현명해,2,Green,A,6.541666666666666,4.533333333333333,ScrollDown,ScrollUp,Green.png,3,Positive,Congruent,,,,,0,0,0,0,,,,,,,,,,,,,,,,,,,,,0,38,38,38,,,,,,,,,,,,,,,,,,,,,,,,,,,,,,,,,,,,,,,,,,,,,,,,,,,,,,,,,,,,,,,,,,,,,,,,,1.8287036965290706,0.9315009000129066,457.29672900002333,None,ScrollUp,오답입니다,457.29672900002333,None,457.29672900002333,None,457.29672900002333,None,457.29672900002333,None,458.14347060001455,None,458.14347060001455,458.6455255000037,,,,,,,,,,,,,,,,104,2023-04-18_15h39.02.504,FishGame,2022.1.1,59.87414454824591,
,40,넌 수줍어,3,Orange,B,3.541666666666666,4.366666666666666,ScrollUp,ScrollDown,Orange.png,3,Neutral,Neutral,,,,,0,0,0,0,,,,,,,,,,,,,,,,,,,,,0,39,39,39,,,,,,,,,,,,,,,,,,,,,,,,,,,,,,,,,,,,,,,,,,,,,,,,,,,,,,,,,,,,,,,,,,,,,,,,,1.785493830839793,0.9461982999928296,459.25876840000274,None,ScrollUp,정답입니다,459.25876840000274,None,459.25876840000274,None,459.25876840000274,None,459.25876840000274,None,460.10981650001486,None,460.10981650001486,460.60980950001976,,,,,,,,,,,,,,,,104,2023-04-18_15h39.02.504,FishGame,2022.1.1,59.87414454824591,
,41,나를 데려가줘,6,Orange,B,0,0,ScrollDown,ScrollUp,Orange.png,3,NonTarget,NonTarget,,,,,0,0,0,0,,,,,,,,,,,,,,,,,,,,,0,40,40,40,,,,,,,,,,,,,,,,,,,,,,,,,,,,,,,,,,,,,,,,,,,,,,,,,,,,,,,,,,,,,,,,,,,,,,,,,1,0.8666064999997616,461.215167700022,None,ScrollDown,정답입니다,461.215167700022,None,461.215167700022,None,461.215167700022,None,461.215167700022,None,461.99564269999973,None,461.99564269999973,462.49552600001334,,,,,,,,,,,,,,,,104,2023-04-18_15h39.02.504,FishGame,2022.1.1,59.87414454824591,
,42,넌 성숙해,2,Orange,B,5.833333333333333,4.533333333333333,ScrollUp,ScrollDown,Orange.png,3,Positive,Incongruent,,,,,0,0,0,0,,,,,,,,,,,,,,,,,,,,,0,41,41,41,,,,,,,,,,,,,,,,,,,,,,,,,,,,,,,,,,,,,,,,,,,,,,,,,,,,,,,,,,,,,,,,,,,,,,,,,1.8873456766208012,1.049742500006687,463.10060410000733,None,ScrollUp,정답입니다,463.10060410000733,None,463.10060410000733,None,463.10060410000733,None,463.10060410000733,None,464.06223599999794,None,464.06223599999794,464.56539990002057,,,,,,,,,,,,,,,,104,2023-04-18_15h39.02.504,FishGame,2022.1.1,59.87414454824591,
,1,넌 매력적이야,2,Orange,B,6.125,4.666666666666667,ScrollUp,ScrollDown,Orange.png,4,Positive,Incongruent,,,,,0,0,0,0,,,,,,,,,,,,,,,,,,,,,,,,,0,0,0,0,,,,,,,,,,,,,,,,,,,,,,,,,,,,496.3446557999996,497.84487580001587,497.878174100013,498.82820270000957,498.87821380002424,499.82821310000145,499.82821310000145,None,,,,,,,,,,,,,,,,,,,,,,,,,,,,,,,,,,1.9891975224018097,1.058492500014836,500.9050397000101,None,ScrollUp,정답입니다,500.9050397000101,None,500.9050397000101,None,500.9050397000101,None,500.9050397000101,None,501.87797060000594,None,501.87797060000594,502.37797390000196,465.06214880000334,None,465.06214880000334,None,0.28611112,-0.094444446,1,0,0,0.016237469972111285,None,495.06135990002076,None,,,104,2023-04-18_15h39.02.504,FishGame,2022.1.1,59.87414454824591,
,2,나를 보내줘,6,Green,A,0,0,ScrollUp,ScrollDown,Green.png,4,NonTarget,NonTarget,,,,,0,0,0,0,,,,,,,,,,,,,,,,,,,,,,,,,0,1,1,1,,,,,,,,,,,,,,,,,,,,,,,,,,,,,,,,,,,,,,,,,,,,,,,,,,,,,,,,,,,,,,,,,,,,,1.8626543283462524,0.8103131999960169,502.98553320000065,None,ScrollUp,정답입니다,502.98553320000065,None,502.98553320000065,None,502.98553320000065,None,502.98553320000065,None,503.71127660002094,None,503.71127660002094,504.2113173000107,,,,,,,,,,,,,,,,104,2023-04-18_15h39.02.504,FishGame,2022.1.1,59.87414454824591,
,3,넌 조심스러워,3,Green,A,4.791666666666666,4.666666666666667,ScrollDown,ScrollUp,Green.png,4,Neutral,Neutral,,,,,0,0,0,0,,,,,,,,,,,,,,,,,,,,,,,,,0,2,2,2,,,,,,,,,,,,,,,,,,,,,,,,,,,,,,,,,,,,,,,,,,,,,,,,,,,,,,,,,,,,,,,,,,,,,1,0.8149628000101075,504.8201107000059,None,ScrollDown,정답입니다,504.8201107000059,None,504.8201107000059,None,504.8201107000059,None,504.8201107000059,None,505.5425162000174,None,505.5425162000174,506.0444975999999,,,,,,,,,,,,,,,,104,2023-04-18_15h39.02.504,FishGame,2022.1.1,59.87414454824591,
,4,넌 철학적이야,3,Orange,B,4.5,4.266666666666667,ScrollUp,ScrollDown,Orange.png,4,Neutral,Neutral,,,,,0,0,0,0,,,,,,,,,,,,,,,,,,,,,,,,,0,3,3,3,,,,,,,,,,,,,,,,,,,,,,,,,,,,,,,,,,,,,,,,,,,,,,,,,,,,,,,,,,,,,,,,,,,,,2,0.8482435999903828,506.6498713000037,None,ScrollUp,정답입니다,506.6498713000037,None,506.6498713000037,None,506.6498713000037,None,506.6498713000037,None,507.40917120000813,None,507.40917120000813,507.91123009999865,,,,,,,,,,,,,,,,104,2023-04-18_15h39.02.504,FishGame,2022.1.1,59.87414454824591,
,5,넌 쩨쩨해,5,Green,A,2.375,2.133333333333333,ScrollDown,ScrollUp,Green.png,4,Negative,Incongruent,,,,,0,0,0,0,,,,,,,,,,,,,,,,,,,,,,,,,0,4,4,4,,,,,,,,,,,,,,,,,,,,,,,,,,,,,,,,,,,,,,,,,,,,,,,,,,,,,,,,,,,,,,,,,,,,,1.0262345671653748,0.7595225000113714,508.52516410002136,None,ScrollDown,정답입니다,508.52516410002136,None,508.52516410002136,None,508.52516410002136,None,508.52516410002136,None,509.19221000000834,None,509.19221000000834,509.69216910001705,,,,,,,,,,,,,,,,104,2023-04-18_15h39.02.504,FishGame,2022.1.1,59.87414454824591,
,6,나를 데려가줘,6,Orange,B,0,0,ScrollDown,ScrollUp,Orange.png,4,NonTarget,NonTarget,,,,,0,0,0,0,,,,,,,,,,,,,,,,,,,,,,,,,0,5,5,5,,,,,,,,,,,,,,,,,,,,,,,,,,,,,,,,,,,,,,,,,,,,,,,,,,,,,,,,,,,,,,,,,,,,,1.0262345671653748,0.7982485000102315,510.2969398999994,None,ScrollDown,정답입니다,510.2969398999994,None,510.2969398999994,None,510.2969398999994,None,510.2969398999994,None,511.00886250002077,None,511.00886250002077,511.5112192000088,,,,,,,,,,,,,,,,104,2023-04-18_15h39.02.504,FishGame,2022.1.1,59.87414454824591,
,7,넌 고집불통이야,5,Orange,B,2.875,2,ScrollUp,ScrollDown,Orange.png,4,Negative,Congruent,,,,,0,0,0,0,,,,,,,,,,,,,,,,,,,,,,,,,0,6,6,6,,,,,,,,,,,,,,,,,,,,,,,,,,,,,,,,,,,,,,,,,,,,,,,,,,,,,,,,,,,,,,,,,,,,,1.8919753183921177,0.898354200005997,512.1215063999989,None,ScrollUp,정답입니다,512.1215063999989,None,512.1215063999989,None,512.1215063999989,None,512.1215063999989,None,512.9280228000134,None,512.9280228000134,513.4278799000022,,,,,,,,,,,,,,,,104,2023-04-18_15h39.02.504,FishGame,2022.1.1,59.87414454824591,
,8,넌 무심해,4,Green,A,2.875,3.2,ScrollDown,ScrollUp,Green.png,4,Negative,Incongruent,,,,,0,0,0,0,,,,,,,,,,,,,,,,,,,,,,,,,0,7,7,7,,,,,,,,,,,,,,,,,,,,,,,,,,,,,,,,,,,,,,,,,,,,,,,,,,,,,,,,,,,,,,,,,,,,,1.0895061641931534,0.7624869999999646,514.0297241000226,None,ScrollDown,정답입니다,514.0297241000226,None,514.0297241000226,None,514.0297241000226,None,514.0297241000226,None,514.7087546000257,None,514.7087546000257,515.2087290000054,,,,,,,,,,,,,,,,104,2023-04-18_15h39.02.504,FishGame,2022.1.1,59.87414454824591,
,9,넌 정겨워,1,Green,A,5.791666666666667,5.666666666666667,ScrollDown,ScrollUp,Green.png,4,Positive,Congruent,,,,,0,0,0,0,,,,,,,,,,,,,,,,,,,,,,,,,0,8,8,8,,,,,,,,,,,,,,,,,,,,,,,,,,,,,,,,,,,,,,,,,,,,,,,,,,,,,,,,,,,,,,,,,,,,,1,0.7629326000169385,515.8156021000177,None,ScrollDown,정답입니다,515.8156021000177,None,515.8156021000177,None,515.8156021000177,None,515.8156021000177,None,516.4920986000216,None,516.4920986000216,516.9944700000051,,,,,,,,,,,,,,,,104,2023-04-18_15h39.02.504,FishGame,2022.1.1,59.87414454824591,
,10,나를 데려가줘,6,Orange,B,0,0,ScrollDown,ScrollUp,Orange.png,4,NonTarget,NonTarget,,,,,0,0,0,0,,,,,,,,,,,,,,,,,,,,,,,,,0,9,9,9,,,,,,,,,,,,,,,,,,,,,,,,,,,,,,,,,,,,,,,,,,,,,,,,,,,,,,,,,,,,,,,,,,,,,1,0.8464533000078518,517.6104945999978,None,ScrollDown,정답입니다,517.6104945999978,None,517.6104945999978,None,517.6104945999978,None,517.6104945999978,None,518.3611474000209,None,518.3611474000209,518.8641775000142,,,,,,,,,,,,,,,,104,2023-04-18_15h39.02.504,FishGame,2022.1.1,59.87414454824591,
,11,넌 체제순응적이야,4,Orange,B,3,3.6,ScrollUp,ScrollDown,Orange.png,4,Negative,Congruent,,,,,0,0,0,0,,,,,,,,,,,,,,,,,,,,,,,,,0,10,10,10,,,,,,,,,,,,,,,,,,,,,,,,,,,,,,,,,,,,,,,,,,,,,,,,,,,,,,,,,,,,,,,,,,,,,1.9614197711149852,0.7316940999880899,519.4735023000103,None,ScrollUp,정답입니다,519.4735023000103,None,519.4735023000103,None,519.4735023000103,None,519.4735023000103,None,520.1088982000074,None,520.1088982000074,520.6109508000081,,,,,,,,,,,,,,,,104,2023-04-18_15h39.02.504,FishGame,2022.1.1,59.87414454824591,
,12,나를 보내줘,6,Green,A,0,0,ScrollUp,ScrollDown,Green.png,4,NonTarget,NonTarget,,,,,0,0,0,0,,,,,,,,,,,,,,,,,,,,,,,,,0,11,11,11,,,,,,,,,,,,,,,,,,,,,,,,,,,,,,,,,,,,,,,,,,,,,,,,,,,,,,,,,,,,,,,,,,,,,1.9382716119289398,0.7817204000020865,521.2109735000122,None,ScrollUp,정답입니다,521.2109735000122,None,521.2109735000122,None,521.2109735000122,None,521.2109735000122,None,521.9088420000044,None,521.9088420000044,522.410847000021,,,,,,,,,,,,,,,,104,2023-04-18_15h39.02.504,FishGame,2022.1.1,59.87414454824591,
,13,넌 박식해,2,Green,A,5.625,3.933333333333333,ScrollDown,ScrollUp,Green.png,4,Positive,Congruent,,,,,0,0,0,0,,,,,,,,,,,,,,,,,,,,,,,,,0,12,12,12,,,,,,,,,,,,,,,,,,,,,,,,,,,,,,,,,,,,,,,,,,,,,,,,,,,,,,,,,,,,,,,,,,,,,1.0262345671653748,0.7984380999987479,523.0190480000165,None,ScrollDown,정답입니다,523.0190480000165,None,523.0190480000165,None,523.0190480000165,None,523.0190480000165,None,523.7275508000166,None,523.7275508000166,524.2275509000174,,,,,,,,,,,,,,,,104,2023-04-18_15h39.02.504,FishGame,2022.1.1,59.87414454824591,
,14,나를 보내줘,6,Green,A,0,0,ScrollUp,ScrollDown,Green.png,4,NonTarget,NonTarget,,,,,0,0,0,0,,,,,,,,,,,,,,,,,,,,,,,,,0,13,13,13,,,,,,,,,,,,,,,,,,,,,,,,,,,,,,,,,,,,,,,,,,,,,,,,,,,,,,,,,,,,,,,,,,,,,1.8333333383003871,0.7628830999892671,524.8309107000241,None,ScrollUp,정답입니다,524.8309107000241,None,524.8309107000241,None,524.8309107000241,None,524.8309107000241,None,525.5087245000177,None,525.5087245000177,526.0107962000184,,,,,,,,,,,,,,,,104,2023-04-18_15h39.02.504,FishGame,2022.1.1,59.87414454824591,
,15,넌 침착해,1,Orange,B,5.458333333333333,5.566666666666666,ScrollUp,ScrollDown,Orange.png,4,Positive,Incongruent,,,,,0,0,0,0,,,,,,,,,,,,,,,,,,,,,,,,,0,14,14,14,,,,,,,,,,,,,,,,,,,,,,,,,,,,,,,,,,,,,,,,,,,,,,,,,,,,,,,,,,,,,,,,,,,,,1.9074074079593022,0.8807828999997582,526.6192636000051,None,ScrollUp,정답입니다,526.6192636000051,None,526.6192636000051,None,526.6192636000051,None,526.6192636000051,None,527.4107527000015,None,527.4107527000015,527.9107916000066,,,,,,,,,,,,,,,,104,2023-04-18_15h39.02.504,FishGame,2022.1.1,59.87414454824591,
,16,나를 데려가줘,6,Orange,B,0,0,ScrollDown,ScrollUp,Orange.png,4,NonTarget,NonTarget,,,,,0,0,0,0,,,,,,,,,,,,,,,,,,,,,,,,,0,15,15,15,,,,,,,,,,,,,,,,,,,,,,,,,,,,,,,,,,,,,,,,,,,,,,,,,,,,,,,,,,,,,,,,,,,,,1.0138889054457347,0.9291598999989219,528.513788900018,None,ScrollDown,정답입니다,528.513788900018,None,528.513788900018,None,528.513788900018,None,528.513788900018,None,529.3608238000015,None,529.3608238000015,529.8608098000113,,,,,,,,,,,,,,,,104,2023-04-18_15h39.02.504,FishGame,2022.1.1,59.87414454824591,
,17,넌 행복해,1,Green,A,6.416666666666666,6.166666666666667,ScrollDown,ScrollUp,Green.png,4,Positive,Congruent,,,,,0,0,0,0,,,,,,,,,,,,,,,,,,,,,,,,,0,16,16,16,,,,,,,,,,,,,,,,,,,,,,,,,,,,,,,,,,,,,,,,,,,,,,,,,,,,,,,,,,,,,,,,,,,,,1.0246913532416027,0.7459007000143174,530.4679247000022,None,ScrollDown,정답입니다,530.4679247000022,None,530.4679247000022,None,530.4679247000022,None,530.4679247000022,None,531.125073800009,None,531.125073800009,531.6256992999988,,,,,,,,,,,,,,,,104,2023-04-18_15h39.02.504,FishGame,2022.1.1,59.87414454824591,
,18,넌 겸손해,2,Orange,B,5.791666666666667,4.766666666666667,ScrollUp,ScrollDown,Orange.png,4,Positive,Incongruent,,,,,0,0,0,0,,,,,,,,,,,,,,,,,,,,,,,,,0,17,17,17,,,,,,,,,,,,,,,,,,,,,,,,,,,,,,,,,,,,,,,,,,,,,,,,,,,,,,,,,,,,,,,,,,,,,1.9104938358068466,1.0315052999940235,532.2326325000031,None,ScrollUp,정답입니다,532.2326325000031,None,532.2326325000031,None,532.2326325000031,None,532.2326325000031,None,533.1751087000011,None,533.1751087000011,533.6775075000187,,,,,,,,,,,,,,,,104,2023-04-18_15h39.02.504,FishGame,2022.1.1,59.87414454824591,
,19,나를 보내줘,6,Green,A,0,0,ScrollUp,ScrollDown,Green.png,4,NonTarget,NonTarget,,,,,0,0,0,0,,,,,,,,,,,,,,,,,,,,,,,,,0,18,18,18,,,,,,,,,,,,,,,,,,,,,,,,,,,,,,,,,,,,,,,,,,,,,,,,,,,,,,,,,,,,,,,,,,,,,1.9367283980051677,0.8484220000100322,534.2803358000237,None,ScrollUp,정답입니다,534.2803358000237,None,534.2803358000237,None,534.2803358000237,None,534.2803358000237,None,535.0442166000139,None,535.0442166000139,535.5441127000086,,,,,,,,,,,,,,,,104,2023-04-18_15h39.02.504,FishGame,2022.1.1,59.87414454824591,
,20,넌 의심없어,3,Green,A,4.166666666666667,4.6,ScrollDown,ScrollUp,Green.png,4,Neutral,Neutral,,,,,0,0,0,0,,,,,,,,,,,,,,,,,,,,,,,,,0,19,19,19,,,,,,,,,,,,,,,,,,,,,,,,,,,,,,,,,,,,,,,,,,,,,,,,,,,,,,,,,,,,,,,,,,,,,1.8672839452823002,0.8483488000056241,536.1447730000073,None,ScrollUp,오답입니다,536.1447730000073,None,536.1447730000073,None,536.1447730000073,None,536.1447730000073,None,536.908645700023,None,536.908645700023,537.4106302,,,,,,,,,,,,,,,,104,2023-04-18_15h39.02.504,FishGame,2022.1.1,59.87414454824591,
,21,넌 시시해,4,Green,A,2.666666666666667,2.966666666666667,ScrollDown,ScrollUp,Green.png,4,Negative,Incongruent,,,,,0,0,0,0,,,,,,,,,,,,,,,,,,,,,,,,,0,20,20,20,,,,,,,,,,,,,,,,,,,,,,,,,,,,,,,,,,,,,,,,,,,,,,,,,,,,,,,,,,,,,,,,,,,,,1,0.8949939000012819,538.0231381000194,None,ScrollDown,정답입니다,538.0231381000194,None,538.0231381000194,None,538.0231381000194,None,538.0231381000194,None,538.8251460000174,None,538.8251460000174,539.3272663000098,,,,,,,,,,,,,,,,104,2023-04-18_15h39.02.504,FishGame,2022.1.1,59.87414454824591,
,22,나를 데려가줘,6,Orange,B,0,0,ScrollDown,ScrollUp,Orange.png,4,NonTarget,NonTarget,,,,,0,0,0,0,,,,,,,,,,,,,,,,,,,,,,,,,0,21,21,21,,,,,,,,,,,,,,,,,,,,,,,,,,,,,,,,,,,,,,,,,,,,,,,,,,,,,,,,,,,,,,,,,,,,,1.0787036915620167,0.8131225999968592,539.9332864000171,None,ScrollDown,정답입니다,539.9332864000171,None,539.9332864000171,None,539.9332864000171,None,539.9332864000171,None,540.6605625000084,None,540.6605625000084,541.1605169000104,,,,,,,,,,,,,,,,104,2023-04-18_15h39.02.504,FishGame,2022.1.1,59.87414454824591,
,23,넌 무정해,5,Green,A,2.5,2.2,ScrollDown,ScrollUp,Green.png,4,Negative,Incongruent,,,,,0,0,0,0,,,,,,,,,,,,,,,,,,,,,,,,,0,22,22,22,,,,,,,,,,,,,,,,,,,,,,,,,,,,,,,,,,,,,,,,,,,,,,,,,,,,,,,,,,,,,,,,,,,,,1,1.0485671999922488,541.7632659000228,None,ScrollDown,정답입니다,541.7632659000228,None,541.7632659000228,None,541.7632659000228,None,541.7632659000228,None,542.727223200025,None,542.727223200025,543.2250628000183,,,,,,,,,,,,,,,,104,2023-04-18_15h39.02.504,FishGame,2022.1.1,59.87414454824591,
,24,넌 긍정적이야,1,Orange,B,6.041666666666667,6.066666666666666,ScrollUp,ScrollDown,Orange.png,4,Positive,Incongruent,,,,,0,0,0,0,,,,,,,,,,,,,,,,,,,,,,,,,0,23,23,23,,,,,,,,,,,,,,,,,,,,,,,,,,,,,,,,,,,,,,,,,,,,,,,,,,,,,,,,,,,,,,,,,,,,,1.7885802586873372,0.7463242000085302,543.8338070000173,None,ScrollUp,정답입니다,543.8338070000173,None,543.8338070000173,None,543.8338070000173,None,543.8338070000173,None,544.4917074000114,None,544.4917074000114,544.9937286000059,,,,,,,,,,,,,,,,104,2023-04-18_15h39.02.504,FishGame,2022.1.1,59.87414454824591,
,25,나를 보내줘,6,Green,A,0,0,ScrollUp,ScrollDown,Green.png,4,NonTarget,NonTarget,,,,,0,0,0,0,,,,,,,,,,,,,,,,,,,,,,,,,0,24,24,24,,,,,,,,,,,,,,,,,,,,,,,,,,,,,,,,,,,,,,,,,,,,,,,,,,,,,,,,,,,,,,,,,,,,,1.8657407313585281,0.9295917999988887,545.597482800018,None,ScrollUp,정답입니다,545.597482800018,None,545.597482800018,None,545.597482800018,None,545.597482800018,None,546.4416818000027,None,546.4416818000027,546.9437654000067,,,,,,,,,,,,,,,,104,2023-04-18_15h39.02.504,FishGame,2022.1.1,59.87414454824591,
,26,넌 시기심이 많아,5,Orange,B,2.458333333333333,2.233333333333333,ScrollUp,ScrollDown,Orange.png,4,Negative,Congruent,,,,,0,0,0,0,,,,,,,,,,,,,,,,,,,,,,,,,0,25,25,25,,,,,,,,,,,,,,,,,,,,,,,,,,,,,,,,,,,,,,,,,,,,,,,,,,,,,,,,,,,,,,,,,,,,,1.9459876318772633,1.1125885999936145,547.5545661000069,None,ScrollUp,정답입니다,547.5545661000069,None,547.5545661000069,None,547.5545661000069,None,547.5545661000069,None,548.5747181000188,None,548.5747181000188,549.0747181000188,,,,,,,,,,,,,,,,104,2023-04-18_15h39.02.504,FishGame,2022.1.1,59.87414454824591,
,27,넌 탁월해,2,Green,A,5.708333333333334,4.5,ScrollDown,ScrollUp,Green.png,4,Positive,Congruent,,,,,0,0,0,0,,,,,,,,,,,,,,,,,,,,,,,,,0,26,26,26,,,,,,,,,,,,,,,,,,,,,,,,,,,,,,,,,,,,,,,,,,,,,,,,,,,,,,,,,,,,,,,,,,,,,1,1.184098300000187,549.6807032000215,None,ScrollDown,정답입니다,549.6807032000215,None,549.6807032000215,None,549.6807032000215,None,549.6807032000215,None,550.7771942000254,None,550.7771942000254,551.2771492000029,,,,,,,,,,,,,,,,104,2023-04-18_15h39.02.504,FishGame,2022.1.1,59.87414454824591,
,28,나를 데려가줘,6,Orange,B,0,0,ScrollDown,ScrollUp,Orange.png,4,NonTarget,NonTarget,,,,,0,0,0,0,,,,,,,,,,,,,,,,,,,,,,,,,0,27,27,27,,,,,,,,,,,,,,,,,,,,,,,,,,,,,,,,,,,,,,,,,,,,,,,,,,,,,,,,,,,,,,,,,,,,,1,0.8816275999997742,551.8801850000164,None,ScrollDown,정답입니다,551.8801850000164,None,551.8801850000164,None,551.8801850000164,None,551.8801850000164,None,552.6771484000201,None,552.6771484000201,553.1769517000066,,,,,,,,,,,,,,,,104,2023-04-18_15h39.02.504,FishGame,2022.1.1,59.87414454824591,
,29,넌 조용해,3,Orange,B,4.333333333333333,4.166666666666667,ScrollUp,ScrollDown,Orange.png,4,Neutral,Neutral,,,,,0,0,0,0,,,,,,,,,,,,,,,,,,,,,,,,,0,28,28,28,,,,,,,,,,,,,,,,,,,,,,,,,,,,,,,,,,,,,,,,,,,,,,,,,,,,,,,,,,,,,,,,,,,,,1.7978395173947017,0.9464004000183195,553.785878900002,None,ScrollUp,정답입니다,553.785878900002,None,553.785878900002,None,553.785878900002,None,553.785878900002,None,554.6435648000042,None,554.6435648000042,555.1436153000104,,,,,,,,,,,,,,,,104,2023-04-18_15h39.02.504,FishGame,2022.1.1,59.87414454824591,
,30,넌 다정해,1,Green,A,5.833333333333334,5.7,ScrollDown,ScrollUp,Green.png,4,Positive,Congruent,,,,,0,0,0,0,,,,,,,,,,,,,,,,,,,,,,,,,0,29,29,29,,,,,,,,,,,,,,,,,,,,,,,,,,,,,,,,,,,,,,,,,,,,,,,,,,,,,,,,,,,,,,,,,,,,,1.2654321044683456,1.0288259999942966,555.7518132000114,None,ScrollDown,정답입니다,555.7518132000114,None,555.7518132000114,None,555.7518132000114,None,555.7518132000114,None,556.6936127000081,None,556.6936127000081,557.1935861000093,,,,,,,,,,,,,,,,104,2023-04-18_15h39.02.504,FishGame,2022.1.1,59.87414454824591,
,31,넌 능력있어,2,Orange,B,6.166666666666666,4.6,ScrollUp,ScrollDown,Orange.png,4,Positive,Incongruent,,,,,0,0,0,0,,,,,,,,,,,,,,,,,,,,,,,,,0,30,30,30,,,,,,,,,,,,,,,,,,,,,,,,,,,,,,,,,,,,,,,,,,,,,,,,,,,,,,,,,,,,,,,,,,,,,1.8935185074806213,0.9119276000128593,557.801116800023,None,ScrollUp,정답입니다,557.801116800023,None,557.801116800023,None,557.801116800023,None,557.801116800023,None,558.6268940000155,None,558.6268940000155,559.1268184000219,,,,,,,,,,,,,,,,104,2023-04-18_15h39.02.504,FishGame,2022.1.1,59.87414454824591,
,32,넌 불쾌해,5,Green,A,2.125,1.933333333333333,ScrollDown,ScrollUp,Green.png,4,Negative,Incongruent,,,,,0,0,0,0,,,,,,,,,,,,,,,,,,,,,,,,,0,31,31,31,,,,,,,,,,,,,,,,,,,,,,,,,,,,,,,,,,,,,,,,,,,,,,,,,,,,,,,,,,,,,,,,,,,,,1.141975313425064,0.8961100000014994,559.7268808000081,None,ScrollDown,정답입니다,559.7268808000081,None,559.7268808000081,None,559.7268808000081,None,559.7268808000081,None,560.5411803000025,None,560.5411803000025,561.0411271000048,,,,,,,,,,,,,,,,104,2023-04-18_15h39.02.504,FishGame,2022.1.1,59.87414454824591,
,33,나를 데려가줘,6,Orange,B,0,0,ScrollDown,ScrollUp,Orange.png,4,NonTarget,NonTarget,,,,,0,0,0,0,,,,,,,,,,,,,,,,,,,,,,,,,0,32,32,32,,,,,,,,,,,,,,,,,,,,,,,,,,,,,,,,,,,,,,,,,,,,,,,,,,,,,,,,,,,,,,,,,,,,,1,0.8629541999835055,561.6495232000016,None,ScrollDown,정답입니다,561.6495232000016,None,561.6495232000016,None,561.6495232000016,None,561.6495232000016,None,562.4245096000086,None,562.4245096000086,562.9268530000118,,,,,,,,,,,,,,,,104,2023-04-18_15h39.02.504,FishGame,2022.1.1,59.87414454824591,
,34,넌 유순해,3,Green,A,4.458333333333333,5,ScrollDown,ScrollUp,Green.png,4,Neutral,Neutral,,,,,0,0,0,0,,,,,,,,,,,,,,,,,,,,,,,,,0,33,33,33,,,,,,,,,,,,,,,,,,,,,,,,,,,,,,,,,,,,,,,,,,,,,,,,,,,,,,,,,,,,,,,,,,,,,1.2932098805904388,0.8985032000055071,563.5305542999995,None,ScrollDown,정답입니다,563.5305542999995,None,563.5305542999995,None,563.5305542999995,None,563.5305542999995,None,564.3436142000137,None,564.3436142000137,564.8467327000108,,,,,,,,,,,,,,,,104,2023-04-18_15h39.02.504,FishGame,2022.1.1,59.87414454824591,
,35,넌 근심스러워,4,Orange,B,2.708333333333333,3.133333333333333,ScrollUp,ScrollDown,Orange.png,4,Negative,Congruent,,,,,0,0,0,0,,,,,,,,,,,,,,,,,,,,,,,,,0,34,34,34,,,,,,,,,,,,,,,,,,,,,,,,,,,,,,,,,,,,,,,,,,,,,,,,,,,,,,,,,,,,,,,,,,,,,1.7638888855775197,0.881907200004207,565.4509669000108,None,ScrollUp,정답입니다,565.4509669000108,None,565.4509669000108,None,565.4509669000108,None,565.4509669000108,None,566.2433563000232,None,566.2433563000232,566.7433621000091,,,,,,,,,,,,,,,,104,2023-04-18_15h39.02.504,FishGame,2022.1.1,59.87414454824591,
,36,넌 세련되었어,2,Green,A,5.5,4.6,ScrollDown,ScrollUp,Green.png,4,Positive,Congruent,,,,,0,0,0,0,,,,,,,,,,,,,,,,,,,,,,,,,0,35,35,35,,,,,,,,,,,,,,,,,,,,,,,,,,,,,,,,,,,,,,,,,,,,,,,,,,,,,,,,,,,,,,,,,,,,,1.080246905485789,0.7597564999887254,567.3592104999989,None,ScrollDown,정답입니다,567.3592104999989,None,567.3592104999989,None,567.3592104999989,None,567.3592104999989,None,568.0243253000081,None,568.0243253000081,568.5243256000103,,,,,,,,,,,,,,,,104,2023-04-18_15h39.02.504,FishGame,2022.1.1,59.87414454824591,
,37,나를 보내줘,6,Green,A,0,0,ScrollUp,ScrollDown,Green.png,4,NonTarget,NonTarget,,,,,0,0,0,0,,,,,,,,,,,,,,,,,,,,,,,,,0,36,36,36,,,,,,,,,,,,,,,,,,,,,,,,,,,,,,,,,,,,,,,,,,,,,,,,,,,,,,,,,,,,,,,,,,,,,1.873456800977389,0.8814854999945965,569.1257918000047,None,ScrollUp,정답입니다,569.1257918000047,None,569.1257918000047,None,569.1257918000047,None,569.1257918000047,None,569.924359000026,None,569.924359000026,570.4267199000169,,,,,,,,,,,,,,,,104,2023-04-18_15h39.02.504,FishGame,2022.1.1,59.87414454824591,
,38,넌 확고해,3,Orange,B,4.708333333333334,4.566666666666666,ScrollUp,ScrollDown,Orange.png,4,Neutral,Neutral,,,,,0,0,0,0,,,,,,,,,,,,,,,,,,,,,,,,,0,37,37,37,,,,,,,,,,,,,,,,,,,,,,,,,,,,,,,,,,,,,,,,,,,,,,,,,,,,,,,,,,,,,,,,,,,,,1.839506169160207,0.965312400017865,571.0355788000161,None,ScrollUp,정답입니다,571.0355788000161,None,571.0355788000161,None,571.0355788000161,None,571.0355788000161,None,571.9101194000104,None,571.9101194000104,572.4100423000054,,,,,,,,,,,,,,,,104,2023-04-18_15h39.02.504,FishGame,2022.1.1,59.87414454824591,
,39,넌 이해심이 많아,1,Orange,B,6.041666666666668,5.533333333333333,ScrollUp,ScrollDown,Orange.png,4,Positive,Incongruent,,,,,0,0,0,0,,,,,,,,,,,,,,,,,,,,,,,,,0,38,38,38,,,,,,,,,,,,,,,,,,,,,,,,,,,,,,,,,,,,,,,,,,,,,,,,,,,,,,,,,,,,,,,,,,,,,1.837962955236435,0.9319212000118569,573.0160628000158,None,ScrollUp,정답입니다,573.0160628000158,None,573.0160628000158,None,573.0160628000158,None,573.0160628000158,None,573.859898100025,None,573.859898100025,574.3598569000023,,,,,,,,,,,,,,,,104,2023-04-18_15h39.02.504,FishGame,2022.1.1,59.87414454824591,
,40,나를 보내줘,6,Green,A,0,0,ScrollUp,ScrollDown,Green.png,4,NonTarget,NonTarget,,,,,0,0,0,0,,,,,,,,,,,,,,,,,,,,,,,,,0,39,39,39,,,,,,,,,,,,,,,,,,,,,,,,,,,,,,,,,,,,,,,,,,,,,,,,,,,,,,,,,,,,,,,,,,,,,1.8148148208856583,0.9319806999992579,574.9745822999976,None,ScrollUp,정답입니다,574.9745822999976,None,574.9745822999976,None,574.9745822999976,None,574.9745822999976,None,575.8265029000177,None,575.8265029000177,576.3264564000128,,,,,,,,,,,,,,,,104,2023-04-18_15h39.02.504,FishGame,2022.1.1,59.87414454824591,
,41,넌 거칠어,4,Green,A,2.625,3.033333333333333,ScrollDown,ScrollUp,Green.png,4,Negative,Incongruent,,,,,0,0,0,0,,,,,,,,,,,,,,,,,,,,,,,,,0,40,40,40,,,,,,,,,,,,,,,,,,,,,,,,,,,,,,,,,,,,,,,,,,,,,,,,,,,,,,,,,,,,,,,,,,,,,1.632716049750646,1.015049599984195,576.9324599000101,None,ScrollUp,오답입니다,576.9324599000101,None,576.9324599000101,None,576.9324599000101,None,576.9324599000101,None,577.8598969000159,None,577.8598969000159,578.3598477000196,,,,,,,,,,,,,,,,104,2023-04-18_15h39.02.504,FishGame,2022.1.1,59.87414454824591,
,42,넌 변덕맞아,5,Orange,B,2.75,2.166666666666667,ScrollUp,ScrollDown,Orange.png,4,Negative,Congruent,,,,,0,0,0,0,,,,,,,,,,,,,,,,,,,,,,,,,0,41,41,41,,,,,,,,,,,,,,,,,,,,,,,,,,,,,,,,,,,,,,,,,,,,,,,,,,,,,,,,,,,,,,,,,,,,,1.7638888855775197,0.9435226999921724,578.97049040001,None,ScrollUp,정답입니다,578.97049040001,None,578.97049040001,None,578.97049040001,None,578.97049040001,None,579.8196005000209,None,579.8196005000209,580.3241433000076,,,,,,,,,,,,,,,,104,2023-04-18_15h39.02.504,FishGame,2022.1.1,59.87414454824591,
,43,나를 데려가줘,6,Orange,B,0,0,ScrollDown,ScrollUp,Orange.png,4,NonTarget,NonTarget,,,,,0,0,0,0,,,,,,,,,,,,,,,,,,,,,,,,,0,42,42,42,,,,,,,,,,,,,,,,,,,,,,,,,,,,,,,,,,,,,,,,,,,,,,,,,,,,,,,,,,,,,,,,,,,,,1.0493827263514202,0.8977780000132043,580.9283213000163,None,ScrollDown,정답입니다,580.9283213000163,None,580.9283213000163,None,580.9283213000163,None,580.9283213000163,None,581.7407940000121,None,581.7407940000121,582.243180999998,,,,,,,,,,,,,,,,104,2023-04-18_15h39.02.504,FishGame,2022.1.1,59.87414454824591,
,44,넌 외로워,4,Orange,B,2.833333333333333,3.3,ScrollUp,ScrollDown,Orange.png,4,Negative,Congruent,,,,,0,0,0,0,,,,,,,,,,,,,,,,,,,,,,,,,0,43,43,43,,,,,,,,,,,,,,,,,,,,,,,,,,,,,,,,,,,,,,,,,,,,,,,,,,,,,,,,,,,,,,,,,,,,,1.7484567960103354,0.9315569000027608,582.8524815000128,None,ScrollUp,정답입니다,582.8524815000128,None,582.8524815000128,None,582.8524815000128,None,582.8524815000128,None,583.6931755999976,None,583.6931755999976,584.1931161000102,,,,,,,,,,,,,,,,104,2023-04-18_15h39.02.504,FishGame,2022.1.1,59.87414454824591,
,1,넌 불평스러워,5,Green,A,2.25,2.066666666666667,ScrollDown,ScrollUp,Green.png,5,Negative,Incongruent,,,,,0,0,0,0,,,,,,,,,,,,,,,,,,,,,,,,,,,,,0,0,0,0,,,,,,,,,,,,,,,,,,,,,,,,615.8924656000163,617.39248770001,617.4258555000124,618.3758262000047,618.4257892000023,619.3758145000029,619.3758145000029,None,,,,,,,,,,,,,,,,,,,,,,,,,,,,,,,,,,1.2839506218830743,1.5909131999942474,620.4514688000199,None,ScrollDown,정답입니다,620.4514688000199,None,620.4514688000199,None,620.4514688000199,None,620.4514688000199,None,621.9565961000044,None,621.9565961000044,622.456579700025,584.6908665000228,None,584.6908665000228,None,0.26018518,-0.10555556,1,0,0,0.016191670001717284,None,614.6922396000009,None,,,104,2023-04-18_15h39.02.504,FishGame,2022.1.1,59.87414454824591,
,2,나를 보내줘,6,Green,A,0,0,ScrollUp,ScrollDown,Green.png,5,NonTarget,NonTarget,,,,,0,0,0,0,,,,,,,,,,,,,,,,,,,,,,,,,,,,,0,1,1,1,,,,,,,,,,,,,,,,,,,,,,,,,,,,,,,,,,,,,,,,,,,,,,,,,,,,,,,,,,,,,,,,,1.9151234527428944,0.8654953999794088,623.0578719000041,None,ScrollUp,정답입니다,623.0578719000041,None,623.0578719000041,None,623.0578719000041,None,623.0578719000041,None,623.8399499000225,None,623.8399499000225,624.3423168000008,,,,,,,,,,,,,,,,104,2023-04-18_15h39.02.504,FishGame,2022.1.1,59.87414454824591,
,3,넌 다재다능해,2,Orange,B,6.208333333333333,4.5,ScrollUp,ScrollDown,Orange.png,5,Positive,Incongruent,,,,,0,0,0,0,,,,,,,,,,,,,,,,,,,,,,,,,,,,,0,2,2,2,,,,,,,,,,,,,,,,,,,,,,,,,,,,,,,,,,,,,,,,,,,,,,,,,,,,,,,,,,,,,,,,,1.9135802388191223,0.7818867999885697,624.9495835000125,None,ScrollUp,정답입니다,624.9495835000125,None,624.9495835000125,None,624.9495835000125,None,624.9495835000125,None,625.6424525000039,None,625.6424525000039,626.1422986000252,,,,,,,,,,,,,,,,104,2023-04-18_15h39.02.504,FishGame,2022.1.1,59.87414454824591,
,4,넌 과감해,3,Green,A,4.833333333333334,4.6,ScrollDown,ScrollUp,Green.png,5,Neutral,Neutral,,,,,0,0,0,0,,,,,,,,,,,,,,,,,,,,,,,,,,,,,0,3,3,3,,,,,,,,,,,,,,,,,,,,,,,,,,,,,,,,,,,,,,,,,,,,,,,,,,,,,,,,,,,,,,,,,1.0632716019948323,0.7628257000178564,626.746111800021,None,ScrollDown,정답입니다,626.746111800021,None,626.746111800021,None,626.746111800021,None,626.746111800021,None,627.4255078000133,None,627.4255078000133,627.9255135999992,,,,,,,,,,,,,,,,104,2023-04-18_15h39.02.504,FishGame,2022.1.1,59.87414454824591,
,5,넌 고분고분해,3,Orange,B,3.75,4.033333333333333,ScrollUp,ScrollDown,Orange.png,5,Neutral,Neutral,,,,,0,0,0,0,,,,,,,,,,,,,,,,,,,,,,,,,,,,,0,4,4,4,,,,,,,,,,,,,,,,,,,,,,,,,,,,,,,,,,,,,,,,,,,,,,,,,,,,,,,,,,,,,,,,,1.8163580348094304,0.895755100005772,628.5383666999987,None,ScrollUp,정답입니다,628.5383666999987,None,628.5383666999987,None,628.5383666999987,None,628.5383666999987,None,629.3397540000151,None,629.3397540000151,629.8397525000037,,,,,,,,,,,,,,,,104,2023-04-18_15h39.02.504,FishGame,2022.1.1,59.87414454824591,
,6,나를 보내줘,6,Green,A,0,0,ScrollUp,ScrollDown,Green.png,5,NonTarget,NonTarget,,,,,0,0,0,0,,,,,,,,,,,,,,,,,,,,,,,,,,,,,0,5,5,5,,,,,,,,,,,,,,,,,,,,,,,,,,,,,,,,,,,,,,,,,,,,,,,,,,,,,,,,,,,,,,,,,1.9907407363255818,0.7812389999744482,630.4377459000098,None,ScrollUp,정답입니다,630.4377459000098,None,630.4377459000098,None,630.4377459000098,None,630.4377459000098,None,631.1397725999996,None,631.1397725999996,631.6421458000259,,,,,,,,,,,,,,,,104,2023-04-18_15h39.02.504,FishGame,2022.1.1,59.87414454824591,
,7,넌 잘 잊어,4,Green,A,3,3.7,ScrollDown,ScrollUp,Green.png,5,Negative,Incongruent,,,,,0,0,0,0,,,,,,,,,,,,,,,,,,,,,,,,,,,,,0,6,6,6,,,,,,,,,,,,,,,,,,,,,,,,,,,,,,,,,,,,,,,,,,,,,,,,,,,,,,,,,,,,,,,,,1.0586419602235158,0.8318443000025582,632.2469681000221,None,ScrollDown,정답입니다,632.2469681000221,None,632.2469681000221,None,632.2469681000221,None,632.2469681000221,None,632.9922574000084,None,632.9922574000084,633.492127000005,,,,,,,,,,,,,,,,104,2023-04-18_15h39.02.504,FishGame,2022.1.1,59.87414454824591,
,8,넌 탐구심이없어,4,Orange,B,2.833333333333333,3.066666666666667,ScrollUp,ScrollDown,Orange.png,5,Negative,Congruent,,,,,0,0,0,0,,,,,,,,,,,,,,,,,,,,,,,,,,,,,0,7,7,7,,,,,,,,,,,,,,,,,,,,,,,,,,,,,,,,,,,,,,,,,,,,,,,,,,,,,,,,,,,,,,,,,2,0.798406400019303,634.1035141000175,None,ScrollUp,정답입니다,634.1035141000175,None,634.1035141000175,None,634.1035141000175,None,634.1035141000175,None,634.8086286000034,None,634.8086286000034,635.3252840000205,,,,,,,,,,,,,,,,104,2023-04-18_15h39.02.504,FishGame,2022.1.1,59.87414454824591,
,9,나를 데려가줘,6,Orange,B,0,0,ScrollDown,ScrollUp,Orange.png,5,NonTarget,NonTarget,,,,,0,0,0,0,,,,,,,,,,,,,,,,,,,,,,,,,,,,,0,8,8,8,,,,,,,,,,,,,,,,,,,,,,,,,,,,,,,,,,,,,,,,,,,,,,,,,,,,,,,,,,,,,,,,,1.2253086417913437,0.846479800005909,635.9123642000195,None,ScrollDown,정답입니다,635.9123642000195,None,635.9123642000195,None,635.9123642000195,None,635.9123642000195,None,636.6753565000254,None,636.6753565000254,637.175204500003,,,,,,,,,,,,,,,,104,2023-04-18_15h39.02.504,FishGame,2022.1.1,59.87414454824591,
,10,넌 참되어,2,Green,A,6.041666666666664,4.733333333333333,ScrollDown,ScrollUp,Green.png,5,Positive,Congruent,,,,,0,0,0,0,,,,,,,,,,,,,,,,,,,,,,,,,,,,,0,9,9,9,,,,,,,,,,,,,,,,,,,,,,,,,,,,,,,,,,,,,,,,,,,,,,,,,,,,,,,,,,,,,,,,,1.1527777860562007,0.8129973000031896,637.7812825000146,None,ScrollDown,정답입니다,637.7812825000146,None,637.7812825000146,None,637.7812825000146,None,637.7812825000146,None,638.5085498000262,None,638.5085498000262,639.0085526000184,,,,,,,,,,,,,,,,104,2023-04-18_15h39.02.504,FishGame,2022.1.1,59.87414454824591,
,11,넌 생기있어,1,Orange,B,5.875,5.633333333333334,ScrollUp,ScrollDown,Orange.png,5,Positive,Incongruent,,,,,0,0,0,0,,,,,,,,,,,,,,,,,,,,,,,,,,,,,0,10,10,10,,,,,,,,,,,,,,,,,,,,,,,,,,,,,,,,,,,,,,,,,,,,,,,,,,,,,,,,,,,,,,,,,1.819444437821706,0.8486072999949101,639.6163932000054,None,ScrollUp,정답입니다,639.6163932000054,None,639.6163932000054,None,639.6163932000054,None,639.6163932000054,None,640.3731872000208,None,640.3731872000208,640.8752082000137,,,,,,,,,,,,,,,,104,2023-04-18_15h39.02.504,FishGame,2022.1.1,59.87414454824591,
,12,넌 비사교적이야,4,Orange,B,2.875,2.9,ScrollUp,ScrollDown,Orange.png,5,Negative,Congruent,,,,,0,0,0,0,,,,,,,,,,,,,,,,,,,,,,,,,,,,,0,11,11,11,,,,,,,,,,,,,,,,,,,,,,,,,,,,,,,,,,,,,,,,,,,,,,,,,,,,,,,,,,,,,,,,,1.8688271592060726,0.8960454000043683,641.479049400019,None,ScrollUp,정답입니다,641.479049400019,None,641.479049400019,None,641.479049400019,None,641.479049400019,None,642.2917648000002,None,642.2917648000002,642.8084533000074,,,,,,,,,,,,,,,,104,2023-04-18_15h39.02.504,FishGame,2022.1.1,59.87414454824591,
,13,나를 데려가줘,6,Orange,B,0,0,ScrollDown,ScrollUp,Orange.png,5,NonTarget,NonTarget,,,,,0,0,0,0,,,,,,,,,,,,,,,,,,,,,,,,,,,,,0,12,12,12,,,,,,,,,,,,,,,,,,,,,,,,,,,,,,,,,,,,,,,,,,,,,,,,,,,,,,,,,,,,,,,,,1.1728395173947017,0.865493300021626,643.4131007000105,None,ScrollDown,정답입니다,643.4131007000105,None,643.4131007000105,None,643.4131007000105,None,643.4131007000105,None,644.1898846000258,None,644.1898846000258,644.6918092000124,,,,,,,,,,,,,,,,104,2023-04-18_15h39.02.504,FishGame,2022.1.1,59.87414454824591,
,14,넌 고독해,4,Green,A,2.916666666666667,3.233333333333333,ScrollDown,ScrollUp,Green.png,5,Negative,Incongruent,,,,,0,0,0,0,,,,,,,,,,,,,,,,,,,,,,,,,,,,,0,13,13,13,,,,,,,,,,,,,,,,,,,,,,,,,,,,,,,,,,,,,,,,,,,,,,,,,,,,,,,,,,,,,,,,,1.7253086368242898,0.8487708999891765,645.2916391000035,None,ScrollUp,오답입니다,645.2916391000035,None,645.2916391000035,None,645.2916391000035,None,645.2916391000035,None,646.0587024000124,None,646.0587024000124,646.5583723000018,,,,,,,,,,,,,,,,104,2023-04-18_15h39.02.504,FishGame,2022.1.1,59.87414454824591,
,15,넌 신경질적이야,5,Orange,B,2.375,2.233333333333333,ScrollUp,ScrollDown,Orange.png,5,Negative,Congruent,,,,,0,0,0,0,,,,,,,,,,,,,,,,,,,,,,,,,,,,,0,14,14,14,,,,,,,,,,,,,,,,,,,,,,,,,,,,,,,,,,,,,,,,,,,,,,,,,,,,,,,,,,,,,,,,,1.8935185074806213,0.8486207999812905,647.1692500000063,None,ScrollUp,정답입니다,647.1692500000063,None,647.1692500000063,None,647.1692500000063,None,647.1692500000063,None,647.9229914000025,None,647.9229914000025,648.4250289000047,,,,,,,,,,,,,,,,104,2023-04-18_15h39.02.504,FishGame,2022.1.1,59.87414454824591,
,16,넌 똑똑해,2,Orange,B,5.666666666666667,3.966666666666667,ScrollUp,ScrollDown,Orange.png,5,Positive,Incongruent,,,,,0,0,0,0,,,,,,,,,,,,,,,,,,,,,,,,,,,,,0,15,15,15,,,,,,,,,,,,,,,,,,,,,,,,,,,,,,,,,,,,,,,,,,,,,,,,,,,,,,,,,,,,,,,,,1.8317901243766148,0.8650714000104927,649.0321532000089,None,ScrollUp,정답입니다,649.0321532000089,None,649.0321532000089,None,649.0321532000089,None,649.0321532000089,None,649.8083611000038,None,649.8083611000038,650.308362300013,,,,,,,,,,,,,,,,104,2023-04-18_15h39.02.504,FishGame,2022.1.1,59.87414454824591,
,17,나를 보내줘,6,Green,A,0,0,ScrollUp,ScrollDown,Green.png,5,NonTarget,NonTarget,,,,,0,0,0,0,,,,,,,,,,,,,,,,,,,,,,,,,,,,,0,16,16,16,,,,,,,,,,,,,,,,,,,,,,,,,,,,,,,,,,,,,,,,,,,,,,,,,,,,,,,,,,,,,,,,,1.8348765522241592,0.8650385000219103,650.9092265000218,None,ScrollUp,정답입니다,650.9092265000218,None,650.9092265000218,None,650.9092265000218,None,650.9092265000218,None,651.6916219000123,None,651.6916219000123,652.1915984000079,,,,,,,,,,,,,,,,104,2023-04-18_15h39.02.504,FishGame,2022.1.1,59.87414454824591,
,18,넌 협조적이야,1,Green,A,5.625,5.666666666666667,ScrollDown,ScrollUp,Green.png,5,Positive,Congruent,,,,,0,0,0,0,,,,,,,,,,,,,,,,,,,,,,,,,,,,,0,17,17,17,,,,,,,,,,,,,,,,,,,,,,,,,,,,,,,,,,,,,,,,,,,,,,,,,,,,,,,,,,,,,,,,,1,0.8316220999986399,652.7950176000013,None,ScrollDown,정답입니다,652.7950176000013,None,652.7950176000013,None,652.7950176000013,None,652.7950176000013,None,653.5415920000232,None,653.5415920000232,654.0415835000167,,,,,,,,,,,,,,,,104,2023-04-18_15h39.02.504,FishGame,2022.1.1,59.87414454824591,
,19,나를 데려가줘,6,Orange,B,0,0,ScrollDown,ScrollUp,Orange.png,5,NonTarget,NonTarget,,,,,0,0,0,0,,,,,,,,,,,,,,,,,,,,,,,,,,,,,0,18,18,18,,,,,,,,,,,,,,,,,,,,,,,,,,,,,,,,,,,,,,,,,,,,,,,,,,,,,,,,,,,,,,,,,1.1990740795930226,0.8967754000041168,654.6442091000208,None,ScrollDown,정답입니다,654.6442091000208,None,654.6442091000208,None,654.6442091000208,None,654.6442091000208,None,655.4582036000211,None,655.4582036000211,655.9582155000244,,,,,,,,,,,,,,,,104,2023-04-18_15h39.02.504,FishGame,2022.1.1,59.87414454824591,
,20,넌 몰인정해,5,Orange,B,2.541666666666667,2.066666666666667,ScrollUp,ScrollDown,Orange.png,5,Negative,Congruent,,,,,0,0,0,0,,,,,,,,,,,,,,,,,,,,,,,,,,,,,0,19,19,19,,,,,,,,,,,,,,,,,,,,,,,,,,,,,,,,,,,,,,,,,,,,,,,,,,,,,,,,,,,,,,,,,1.8086419651905696,0.8983547999814618,656.5643734000041,None,ScrollUp,정답입니다,656.5643734000041,None,656.5643734000041,None,656.5643734000041,None,656.5643734000041,None,657.3727943999984,None,657.3727943999984,657.8748181000119,,,,,,,,,,,,,,,,104,2023-04-18_15h39.02.504,FishGame,2022.1.1,59.87414454824591,
,21,나를 데려가줘,6,Orange,B,0,0,ScrollDown,ScrollUp,Orange.png,5,NonTarget,NonTarget,,,,,0,0,0,0,,,,,,,,,,,,,,,,,,,,,,,,,,,,,0,20,20,20,,,,,,,,,,,,,,,,,,,,,,,,,,,,,,,,,,,,,,,,,,,,,,,,,,,,,,,,,,,,,,,,,1.1496913582086563,0.8276594999770168,658.4856588000257,None,ScrollDown,정답입니다,658.4856588000257,None,658.4856588000257,None,658.4856588000257,None,658.4856588000257,None,659.2248011000047,None,659.2248011000047,659.7248382000253,,,,,,,,,,,,,,,,104,2023-04-18_15h39.02.504,FishGame,2022.1.1,59.87414454824591,
,22,넌 순진해,3,Orange,B,4.125,4.166666666666667,ScrollUp,ScrollDown,Orange.png,5,Neutral,Neutral,,,,,0,0,0,0,,,,,,,,,,,,,,,,,,,,,,,,,,,,,0,21,21,21,,,,,,,,,,,,,,,,,,,,,,,,,,,,,,,,,,,,,,,,,,,,,,,,,,,,,,,,,,,,,,,,,1.3595679054657617,0.9503390000027139,660.3310487999988,None,ScrollDown,오답입니다,660.3310487999988,None,660.3310487999988,None,660.3310487999988,None,660.3310487999988,None,661.1916468999989,None,661.1916468999989,661.6914892000204,,,,,,,,,,,,,,,,104,2023-04-18_15h39.02.504,FishGame,2022.1.1,59.87414454824591,
