name,TrialNum,Word,WordCategory,FishType,WordList,WordValence,WordReputation,CorrectResp,IncorrectResp,FishTypeFile,Round,WordType,Condition,LoopforOrange.thisRepN,LoopforOrange.thisTrialN,LoopforOrange.thisN,LoopforOrange.thisIndex,OrangeInstLoop.thisRepN,OrangeInstLoop.thisTrialN,OrangeInstLoop.thisN,OrangeInstLoop.thisIndex,OrangePrac.thisRepN,OrangePrac.thisTrialN,OrangePrac.thisN,OrangePrac.thisIndex,temp1.thisRepN,temp1.thisTrialN,temp1.thisN,temp1.thisIndex,OrangeRound1.thisRepN,OrangeRound1.thisTrialN,OrangeRound1.thisN,OrangeRound1.thisIndex,OrangeRound2.thisRepN,OrangeRound2.thisTrialN,OrangeRound2.thisN,OrangeRound2.thisIndex,OrangeRound3.thisRepN,OrangeRound3.thisTrialN,OrangeRound3.thisN,OrangeRound3.thisIndex,OrangeRound4.thisRepN,OrangeRound4.thisTrialN,OrangeRound4.thisN,OrangeRound4.thisIndex,OrangeRound5.thisRepN,OrangeRound5.thisTrialN,OrangeRound5.thisN,OrangeRound5.thisIndex,LoopForGreen.thisRepN,LoopForGreen.thisTrialN,LoopForGreen.thisN,LoopForGreen.thisIndex,text_2.started,text_2.stopped,text_3.started,text_3.stopped,key_resp.keys,key_resp.rt,key_resp.started,key_resp.stopped,PassI_2.started,PassI_2.stopped,PassInst_2.keys,PassInst_2.rt,PassInst_2.started,PassInst_2.stopped,mouse_2.x,mouse_2.y,mouse_2.leftButton,mouse_2.midButton,mouse_2.rightButton,mouse_2.started,mouse_2.stopped,image.started,image.stopped,text_5.started,text_5.stopped,text_6.started,text_6.stopped,text_7.started,text_7.stopped,text_8.started,text_8.stopped,slider_2.response,slider_2.rt,slider_2.started,slider_2.stopped,Response_2,Feedback_2,BackGround_2.started,BackGround_2.stopped,Fish_2.started,Fish_2.stopped,WordBox_2.started,WordBox_2.stopped,Words_2.started,Words_2.stopped,BackGround_Feedback_2.started,BackGround_Feedback_2.stopped,Feedbacks_2.started,Feedbacks_2.stopped,Continue_or_not.keys,Continue_or_not.rt,Continue_or_not.started,Continue_or_not.stopped,image_3.started,image_3.stopped,mouse_3.x,mouse_3.y,mouse_3.leftButton,mouse_3.midButton,mouse_3.rightButton,mouse_3.started,mouse_3.stopped,startmain.started,startmain.stopped,slider.response,slider.rt,slider.started,slider.stopped,Response,Feedback,BackGround.started,BackGround.stopped,Fish.started,Fish.stopped,WordBox.started,WordBox.stopped,Words.started,Words.stopped,BackGround_Feedback.started,BackGround_Feedback.stopped,Feedbacks.started,Feedbacks.stopped,text.started,text.stopped,break_interval.started,break_interval.stopped,mouse.x,mouse.y,mouse.leftButton,mouse.midButton,mouse.rightButton,mouse.started,mouse.stopped,stratnextround.started,stratnextround.stopped,endgame.started,endgame.stopped,participant,date,expName,psychopyVersion,frameRate,
,,,,,,,,,,,,,,,,,,,,,,,,,,,,,,,,,,,,,,,,,,,,,,,,,,,,,,17.948805299995,None,17.948805299995,None,space,1.239700999984052,18.43773340000189,None,,,,,,,,,,,,,,,,,,,,,,,,,,,,,,,,,,,,,,,,,,,,,,,,,,,,,,,,,,,,,,,,,,,,,,,,,,,,,,,,,,,,,,,,,,105,2023-04-19_13h22.18.850,FishGame,2022.1.1,60.08257750078947,
물고기과제_instruction(참가자용)OrangeVersion.mp4,,,,,,,,,,,,,,0,0,0,0,0,0,0,0,,,,,,,,,,,,,,,,,,,,,,,,,,,,,,,,,,,,,,,,,27.631804600008763,None,n,2.126339500013273,27.631804600008763,None,,,,,,,,,,,,,,,,,,,,,,,,,,,,,,,,,,,,,,,,,,,,,,,,,,,,,,,,,,,,,,,,,,,,,,,,,,,,,,,,,,,,105,2023-04-19_13h22.18.850,FishGame,2022.1.1,60.08257750078947,
,1,넌 교활해,5,Green,B,2.333333333333333,2.133333333333333,ScrollUp,ScrollDown,Green.png,practice,,,0,0,0,0,,,,,0,0,0,0,0,0,0,0,,,,,,,,,,,,,,,,,,,,,,,,,,,,,,,,,,,,,,,0.0712963,-0.2787037,1,0,0,0.5143647700024303,None,29.784176699991804,None,34.33394370001042,35.83413149998523,35.8674531999859,36.82038150000153,36.84844530001283,37.801296199992066,37.81744389998494,None,1.8163580348094304,0.9605117999890354,39.092330999992555,None,ScrollUp,정답입니다,39.092330999992555,None,39.092330999992555,None,39.092330999992555,None,39.092330999992555,None,39.764801299985265,None,39.764801299985265,40.26486510000541,,,,,,,,,,,,,,,,,,,,,,,,,,,,,,,,,,,,,,,,,,,,,,,,,105,2023-04-19_13h22.18.850,FishGame,2022.1.1,60.08257750078947,
,2,넌 슬기로워,2,Orange,A,6.166666666666667,4.1,ScrollDown,ScrollUp,Orange.png,practice,,,0,0,0,0,,,,,0,0,0,0,0,1,1,1,,,,,,,,,,,,,,,,,,,,,,,,,,,,,,,,,,,,,,,,,,,,,,,,,,,,,,,,1.1018518507480621,0.783325700002024,40.87003369999002,None,ScrollDown,정답입니다,40.87003369999002,None,40.87003369999002,None,40.87003369999002,None,40.87003369999002,None,41.564808600000106,None,41.564808600000106,42.06481330000679,,,,,,,,,,,,,,,,,,,,,,,,,,,,,,,,,,,,,,,,,,,,,,,,,105,2023-04-19_13h22.18.850,FishGame,2022.1.1,60.08257750078947,
,3,나를 보내줘,6,Orange,A,0,0,ScrollUp,ScrollDown,Orange.png,practice,,,0,0,0,0,,,,,0,0,0,0,0,2,2,2,,,,,,,,,,,,,,,,,,,,,,,,,,,,,,,,,,,,,,,,,,,,,,,,,,,,,,,,1.095679019888242,0.664987199997995,42.6757013000024,None,ScrollDown,오답입니다,42.6757013000024,None,42.6757013000024,None,42.6757013000024,None,42.6757013000024,None,43.25054879998788,None,43.25054879998788,43.75047480000649,,,,,,,,,,,,,,,,,,,,,,,,,,,,,,,,,,,,,,,,,,,,,,,,,105,2023-04-19_13h22.18.850,FishGame,2022.1.1,60.08257750078947,
,4,나를 데려가줘,6,Green,B,0,0,ScrollDown,ScrollUp,Green.png,practice,,,0,0,0,0,,,,,0,0,0,0,0,3,3,3,,,,,,,,,,,,,,,,,,,,,,,,,,,,,,,,,,,,,,,,,,,,,,,,,,,,,,,,1.253086417913437,0.9953558999986853,44.354560200008564,None,ScrollDown,정답입니다,44.354560200008564,None,44.354560200008564,None,44.354560200008564,None,44.354560200008564,None,45.26023869999335,None,45.26023869999335,45.76543900000979,,,,,,,,,,,,,,,,,,,,,,,,,,,,,,,,,,,,,,,,,,,,,,,,,105,2023-04-19_13h22.18.850,FishGame,2022.1.1,60.08257750078947,
,1,넌 교활해,5,Green,B,2.333333333333333,2.133333333333333,ScrollUp,ScrollDown,Green.png,practice,,,0,0,0,0,,,,,0,0,0,0,,,,,,,,,,,,,,,,,,,,,,,,,,,,,,,,,,,,,,,,,,,,,,,,,,,,,,,,,,,,,,,,,,,,,,,,,,,,,,n,3.3249953000049572,46.265002100000856,None,46.265002100000856,None,,,,,,,,,,,,,,,,,,,,,,,,,,,,,,,,,,,,,,,,,,,105,2023-04-19_13h22.18.850,FishGame,2022.1.1,60.08257750078947,
,1,넌 따뜻해,1,Green,B,6.083333333333333,5.6,ScrollUp,ScrollDown,Green.png,1,Positive,Incongruent,0,0,0,0,,,,,,,,,,,,,0,0,0,0,,,,,,,,,,,,,,,,,,,,,,,,,,,,,,,,,,,,,,,,,,,,50.93358010001248,52.43376129999524,52.46710179999354,53.42027939998661,53.47008189998451,54.43373670001165,54.41706599999452,None,,,,,,,,,,,,,,,,,,,,,,,,,0.0027777778,-0.07962963,1,0,0,0.3150386699999217,None,49.617120300012175,None,1.805555562178294,0.9616888000164181,55.699884000001475,None,ScrollUp,정답입니다,55.699884000001475,None,55.699884000001475,None,55.699884000001475,None,55.699884000001475,None,56.36449440001161,None,56.36449440001161,56.864474200003315,,,,,,,,,,,,,,,,105,2023-04-19_13h22.18.850,FishGame,2022.1.1,60.08257750078947,
,2,넌 기품있어,2,Green,B,5.791666666666668,4.5,ScrollUp,ScrollDown,Green.png,1,Positive,Incongruent,0,0,0,0,,,,,,,,,,,,,0,1,1,1,,,,,,,,,,,,,,,,,,,,,,,,,,,,,,,,,,,,,,,,,,,,,,,,,,,,,,,,,,,,,,,,,,,,,,,,,,,,,,,,,,,,,1.7901234477758408,0.699674600007711,57.476872600003844,None,ScrollUp,정답입니다,57.476872600003844,None,57.476872600003844,None,57.476872600003844,None,57.476872600003844,None,58.08116040000459,None,58.08116040000459,58.58114100000239,,,,,,,,,,,,,,,,105,2023-04-19_13h22.18.850,FishGame,2022.1.1,60.08257750078947,
,3,나를 보내줘,6,Orange,A,0,0,ScrollUp,ScrollDown,Orange.png,1,NonTarget,NonTarget,0,0,0,0,,,,,,,,,,,,,0,2,2,2,,,,,,,,,,,,,,,,,,,,,,,,,,,,,,,,,,,,,,,,,,,,,,,,,,,,,,,,,,,,,,,,,,,,,,,,,,,,,,,,,,,,,1.5987654303510985,0.6835469000216108,59.19744739998714,None,ScrollUp,정답입니다,59.19744739998714,None,59.19744739998714,None,59.19744739998714,None,59.19744739998714,None,59.78346450001118,None,59.78346450001118,60.28347900000517,,,,,,,,,,,,,,,,105,2023-04-19_13h22.18.850,FishGame,2022.1.1,60.08257750078947,
,4,넌 수동적이야,4,Orange,A,2.833333333333333,2.933333333333333,ScrollDown,ScrollUp,Orange.png,1,Negative,Incongruent,0,0,0,0,,,,,,,,,,,,,0,3,3,3,,,,,,,,,,,,,,,,,,,,,,,,,,,,,,,,,,,,,,,,,,,,,,,,,,,,,,,,,,,,,,,,,,,,,,,,,,,,,,,,,,,,,1.0246913532416027,0.8308305999962613,60.91098730001249,None,ScrollDown,정답입니다,60.91098730001249,None,60.91098730001249,None,60.91098730001249,None,60.91098730001249,None,61.63102040000376,None,61.63102040000376,62.131724700011546,,,,,,,,,,,,,,,,105,2023-04-19_13h22.18.850,FishGame,2022.1.1,60.08257750078947,
,5,넌 사심이 없어,3,Green,B,4.916666666666666,4.333333333333333,ScrollUp,ScrollDown,Green.png,1,Neutral,Neutral,0,0,0,0,,,,,,,,,,,,,0,4,4,4,,,,,,,,,,,,,,,,,,,,,,,,,,,,,,,,,,,,,,,,,,,,,,,,,,,,,,,,,,,,,,,,,,,,,,,,,,,,,,,,,,,,,1.6080246890584626,0.7482332999934442,62.741651999996975,None,ScrollUp,정답입니다,62.741651999996975,None,62.741651999996975,None,62.741651999996975,None,62.741651999996975,None,63.39770490000956,None,63.39770490000956,63.90009879998979,,,,,,,,,,,,,,,,105,2023-04-19_13h22.18.850,FishGame,2022.1.1,60.08257750078947,
,6,넌 헤퍼,5,Orange,A,2.458333333333334,2.233333333333333,ScrollDown,ScrollUp,Orange.png,1,Negative,Incongruent,0,0,0,0,,,,,,,,,,,,,0,5,5,5,,,,,,,,,,,,,,,,,,,,,,,,,,,,,,,,,,,,,,,,,,,,,,,,,,,,,,,,,,,,,,,,,,,,,,,,,,,,,,,,,,,,,1.0848765472571056,0.7982807999942452,64.51026839998667,None,ScrollDown,정답입니다,64.51026839998667,None,64.51026839998667,None,64.51026839998667,None,64.51026839998667,None,65.2168670000101,None,65.2168670000101,65.71990629998618,,,,,,,,,,,,,,,,105,2023-04-19_13h22.18.850,FishGame,2022.1.1,60.08257750078947,
,7,넌 말쑥해,3,Orange,A,4.833333333333334,4.333333333333333,ScrollDown,ScrollUp,Orange.png,1,Neutral,Neutral,0,0,0,0,,,,,,,,,,,,,0,6,6,6,,,,,,,,,,,,,,,,,,,,,,,,,,,,,,,,,,,,,,,,,,,,,,,,,,,,,,,,,,,,,,,,,,,,,,,,,,,,,,,,,,,,,1.1913580348094304,0.6961967000097502,66.32656509999651,None,ScrollDown,정답입니다,66.32656509999651,None,66.32656509999651,None,66.32656509999651,None,66.32656509999651,None,66.93119440000737,None,66.93119440000737,67.43325090000872,,,,,,,,,,,,,,,,105,2023-04-19_13h22.18.850,FishGame,2022.1.1,60.08257750078947,
,8,넌 투덜거려,5,Green,B,2.541666666666667,2.266666666666667,ScrollUp,ScrollDown,Green.png,1,Negative,Congruent,0,0,0,0,,,,,,,,,,,,,0,7,7,7,,,,,,,,,,,,,,,,,,,,,,,,,,,,,,,,,,,,,,,,,,,,,,,,,,,,,,,,,,,,,,,,,,,,,,,,,,,,,,,,,,,,,1.5833333345750966,0.6809942000254523,68.04406769998604,None,ScrollUp,정답입니다,68.04406769998604,None,68.04406769998604,None,68.04406769998604,None,68.04406769998604,None,68.63087379999342,None,68.63087379999342,69.13099450001027,,,,,,,,,,,,,,,,105,2023-04-19_13h22.18.850,FishGame,2022.1.1,60.08257750078947,
,9,넌 적극적이야,1,Orange,A,5.708333333333333,5.533333333333333,ScrollDown,ScrollUp,Orange.png,1,Positive,Congruent,0,0,0,0,,,,,,,,,,,,,0,8,8,8,,,,,,,,,,,,,,,,,,,,,,,,,,,,,,,,,,,,,,,,,,,,,,,,,,,,,,,,,,,,,,,,,,,,,,,,,,,,,,,,,,,,,1.2037036965290706,0.6984367999830283,69.74387090001255,None,ScrollDown,정답입니다,69.74387090001255,None,69.74387090001255,None,69.74387090001255,None,69.74387090001255,None,70.34756039999775,None,70.34756039999775,70.84992280000006,,,,,,,,,,,,,,,,105,2023-04-19_13h22.18.850,FishGame,2022.1.1,60.08257750078947,
,10,넌 재미없어,4,Green,B,2.625,2.966666666666667,ScrollUp,ScrollDown,Green.png,1,Negative,Congruent,0,0,0,0,,,,,,,,,,,,,0,9,9,9,,,,,,,,,,,,,,,,,,,,,,,,,,,,,,,,,,,,,,,,,,,,,,,,,,,,,,,,,,,,,,,,,,,,,,,,,,,,,,,,,,,,,1.6064814875523248,0.71475789998658,71.4589985999919,None,ScrollUp,정답입니다,71.4589985999919,None,71.4589985999919,None,71.4589985999919,None,71.4589985999919,None,72.08336610000697,None,72.08336610000697,72.5832769999979,,,,,,,,,,,,,,,,105,2023-04-19_13h22.18.850,FishGame,2022.1.1,60.08257750078947,
,11,넌 명석해,2,Orange,A,5.875,4.033333333333333,ScrollDown,ScrollUp,Orange.png,1,Positive,Congruent,0,0,0,0,,,,,,,,,,,,,0,10,10,10,,,,,,,,,,,,,,,,,,,,,,,,,,,,,,,,,,,,,,,,,,,,,,,,,,,,,,,,,,,,,,,,,,,,,,,,,,,,,,,,,,,,,1.1882716069618862,0.6815585999866016,73.20945009999559,None,ScrollDown,정답입니다,73.20945009999559,None,73.20945009999559,None,73.20945009999559,None,73.20945009999559,None,73.79973140000948,None,73.79973140000948,74.29975609999383,,,,,,,,,,,,,,,,105,2023-04-19_13h22.18.850,FishGame,2022.1.1,60.08257750078947,
,12,나를 데려가줘,6,Green,B,0,0,ScrollDown,ScrollUp,Green.png,1,NonTarget,NonTarget,0,0,0,0,,,,,,,,,,,,,0,11,11,11,,,,,,,,,,,,,,,,,,,,,,,,,,,,,,,,,,,,,,,,,,,,,,,,,,,,,,,,,,,,,,,,,,,,,,,,,,,,,,,,,,,,,1.1790123482545216,0.7458355999842752,74.9124914999993,None,ScrollDown,정답입니다,74.9124914999993,None,74.9124914999993,None,74.9124914999993,None,74.9124914999993,None,75.56404060000204,None,75.56404060000204,76.06406189998961,,,,,,,,,,,,,,,,105,2023-04-19_13h22.18.850,FishGame,2022.1.1,60.08257750078947,
,13,넌 소심해,4,Orange,A,3,3.1,ScrollDown,ScrollUp,Orange.png,1,Negative,Incongruent,0,0,0,0,,,,,,,,,,,,,0,12,12,12,,,,,,,,,,,,,,,,,,,,,,,,,,,,,,,,,,,,,,,,,,,,,,,,,,,,,,,,,,,,,,,,,,,,,,,,,,,,,,,,,,,,,1.212962955236435,0.616560299997218,76.67117139999755,None,ScrollDown,정답입니다,76.67117139999755,None,76.67117139999755,None,76.67117139999755,None,76.67117139999755,None,77.1974443999934,None,77.1974443999934,77.69776839998667,,,,,,,,,,,,,,,,105,2023-04-19_13h22.18.850,FishGame,2022.1.1,60.08257750078947,
,14,넌 합리적이야,2,Orange,A,5.583333333333333,4.733333333333333,ScrollDown,ScrollUp,Orange.png,1,Positive,Congruent,0,0,0,0,,,,,,,,,,,,,0,13,13,13,,,,,,,,,,,,,,,,,,,,,,,,,,,,,,,,,,,,,,,,,,,,,,,,,,,,,,,,,,,,,,,,,,,,,,,,,,,,,,,,,,,,,1.2175925970077515,0.6667989999987185,78.31107110000448,None,ScrollDown,정답입니다,78.31107110000448,None,78.31107110000448,None,78.31107110000448,None,78.31107110000448,None,78.88317359998473,None,78.88317359998473,79.38315139999031,,,,,,,,,,,,,,,,105,2023-04-19_13h22.18.850,FishGame,2022.1.1,60.08257750078947,
,15,넌 무자비해,5,Green,B,2.333333333333333,2.1,ScrollUp,ScrollDown,Green.png,1,Negative,Congruent,0,0,0,0,,,,,,,,,,,,,0,14,14,14,,,,,,,,,,,,,,,,,,,,,,,,,,,,,,,,,,,,,,,,,,,,,,,,,,,,,,,,,,,,,,,,,,,,,,,,,,,,,,,,,,,,,1.6219135771195092,0.6832900000154041,79.99207380000735,None,ScrollUp,정답입니다,79.99207380000735,None,79.99207380000735,None,79.99207380000735,None,79.99207380000735,None,80.582983100001,None,80.582983100001,81.08293299999787,,,,,,,,,,,,,,,,105,2023-04-19_13h22.18.850,FishGame,2022.1.1,60.08257750078947,
,16,나를 보내줘,6,Orange,A,0,0,ScrollUp,ScrollDown,Orange.png,1,NonTarget,NonTarget,0,0,0,0,,,,,,,,,,,,,0,15,15,15,,,,,,,,,,,,,,,,,,,,,,,,,,,,,,,,,,,,,,,,,,,,,,,,,,,,,,,,,,,,,,,,,,,,,,,,,,,,,,,,,,,,,1.6496913532416024,0.7665459999989253,81.68996879999759,None,ScrollUp,정답입니다,81.68996879999759,None,81.68996879999759,None,81.68996879999759,None,81.68996879999759,None,82.36632410000311,None,82.36632410000311,82.86620389999007,,,,,,,,,,,,,,,,105,2023-04-19_13h22.18.850,FishGame,2022.1.1,60.08257750078947,
,17,넌 현실적이야,3,Green,B,4.608695652173913,4.766666666666667,ScrollUp,ScrollDown,Green.png,1,Neutral,Neutral,0,0,0,0,,,,,,,,,,,,,0,16,16,16,,,,,,,,,,,,,,,,,,,,,,,,,,,,,,,,,,,,,,,,,,,,,,,,,,,,,,,,,,,,,,,,,,,,,,,,,,,,,,,,,,,,,1.5910493855675063,0.6661167999845929,83.47401320000063,None,ScrollUp,정답입니다,83.47401320000063,None,83.47401320000063,None,83.47401320000063,None,83.47401320000063,None,84.04949800000759,None,84.04949800000759,84.54954249999719,,,,,,,,,,,,,,,,105,2023-04-19_13h22.18.850,FishGame,2022.1.1,60.08257750078947,
,18,넌 의리있어,1,Green,B,5.833333333333334,5.633333333333334,ScrollUp,ScrollDown,Green.png,1,Positive,Incongruent,0,0,0,0,,,,,,,,,,,,,0,17,17,17,,,,,,,,,,,,,,,,,,,,,,,,,,,,,,,,,,,,,,,,,,,,,,,,,,,,,,,,,,,,,,,,,,,,,,,,,,,,,,,,,,,,,1.5756172835826874,0.664921299990965,85.15685420000227,None,ScrollUp,정답입니다,85.15685420000227,None,85.15685420000227,None,85.15685420000227,None,85.15685420000227,None,85.73287370000617,None,85.73287370000617,86.23286099999677,,,,,,,,,,,,,,,,105,2023-04-19_13h22.18.850,FishGame,2022.1.1,60.08257750078947,
,19,넌 신경과민이야,5,Orange,A,2.541666666666667,2.166666666666667,ScrollDown,ScrollUp,Orange.png,1,Negative,Incongruent,0,0,0,0,,,,,,,,,,,,,0,18,18,18,,,,,,,,,,,,,,,,,,,,,,,,,,,,,,,,,,,,,,,,,,,,,,,,,,,,,,,,,,,,,,,,,,,,,,,,,,,,,,,,,,,,,1.1280864129463832,0.6790469999832567,86.8457509999862,None,ScrollDown,정답입니다,86.8457509999862,None,86.8457509999862,None,86.8457509999862,None,86.8457509999862,None,87.43050439999206,None,87.43050439999206,87.93047880000086,,,,,,,,,,,,,,,,105,2023-04-19_13h22.18.850,FishGame,2022.1.1,60.08257750078947,
,20,넌 편안해,1,Orange,A,5.916666666666666,5.866666666666666,ScrollDown,ScrollUp,Orange.png,1,Positive,Congruent,0,0,0,0,,,,,,,,,,,,,0,19,19,19,,,,,,,,,,,,,,,,,,,,,,,,,,,,,,,,,,,,,,,,,,,,,,,,,,,,,,,,,,,,,,,,,,,,,,,,,,,,,,,,,,,,,1.1774691343307495,0.6794855000043754,88.54304660001071,None,ScrollDown,정답입니다,88.54304660001071,None,88.54304660001071,None,88.54304660001071,None,88.54304660001071,None,89.13051799999084,None,89.13051799999084,89.63054300000658,,,,,,,,,,,,,,,,105,2023-04-19_13h22.18.850,FishGame,2022.1.1,60.08257750078947,
,21,넌 품위있어,2,Green,B,5.291666666666666,4.466666666666667,ScrollUp,ScrollDown,Green.png,1,Positive,Incongruent,0,0,0,0,,,,,,,,,,,,,0,20,20,20,,,,,,,,,,,,,,,,,,,,,,,,,,,,,,,,,,,,,,,,,,,,,,,,,,,,,,,,,,,,,,,,,,,,,,,,,,,,,,,,,,,,,1.6280864203969636,0.866756900009932,90.24039550000452,None,ScrollUp,정답입니다,90.24039550000452,None,90.24039550000452,None,90.24039550000452,None,90.24039550000452,None,91.0162016999966,None,91.0162016999966,91.5161960000114,,,,,,,,,,,,,,,,105,2023-04-19_13h22.18.850,FishGame,2022.1.1,60.08257750078947,
,22,넌 빈틈없어,3,Orange,A,4.833333333333333,3.966666666666667,ScrollDown,ScrollUp,Orange.png,1,Neutral,Neutral,0,0,0,0,,,,,,,,,,,,,0,21,21,21,,,,,,,,,,,,,,,,,,,,,,,,,,,,,,,,,,,,,,,,,,,,,,,,,,,,,,,,,,,,,,,,,,,,,,,,,,,,,,,,,,,,,1.1574074029922485,0.7149206999747548,92.12625189998653,None,ScrollDown,정답입니다,92.12625189998653,None,92.12625189998653,None,92.12625189998653,None,92.12625189998653,None,92.74939010001253,None,92.74939010001253,93.24936539999908,,,,,,,,,,,,,,,,105,2023-04-19_13h22.18.850,FishGame,2022.1.1,60.08257750078947,
,23,넌 상상력없어,4,Green,B,2.833333333333333,3.133333333333333,ScrollUp,ScrollDown,Green.png,1,Negative,Congruent,0,0,0,0,,,,,,,,,,,,,0,22,22,22,,,,,,,,,,,,,,,,,,,,,,,,,,,,,,,,,,,,,,,,,,,,,,,,,,,,,,,,,,,,,,,,,,,,,,,,,,,,,,,,,,,,,1.5679012325902781,0.6929856000060681,93.86280279999482,None,ScrollUp,정답입니다,93.86280279999482,None,93.86280279999482,None,93.86280279999482,None,93.86280279999482,None,94.46602550000534,None,94.46602550000534,94.96600779998698,,,,,,,,,,,,,,,,105,2023-04-19_13h22.18.850,FishGame,2022.1.1,60.08257750078947,
,24,넌 지혜로워,2,Green,B,6.333333333333334,4.633333333333334,ScrollUp,ScrollDown,Green.png,1,Positive,Incongruent,0,0,0,0,,,,,,,,,,,,,0,23,23,23,,,,,,,,,,,,,,,,,,,,,,,,,,,,,,,,,,,,,,,,,,,,,,,,,,,,,,,,,,,,,,,,,,,,,,,,,,,,,,,,,,,,,1.584876542290052,0.6792476999980863,95.57582420000108,None,ScrollUp,정답입니다,95.57582420000108,None,95.57582420000108,None,95.57582420000108,None,95.57582420000108,None,96.16388179999194,None,96.16388179999194,96.66397379999398,,,,,,,,,,,,,,,,105,2023-04-19_13h22.18.850,FishGame,2022.1.1,60.08257750078947,
,25,넌 시끄러워,4,Orange,A,2.833333333333333,3.033333333333333,ScrollDown,ScrollUp,Orange.png,1,Negative,Incongruent,0,0,0,0,,,,,,,,,,,,,0,24,24,24,,,,,,,,,,,,,,,,,,,,,,,,,,,,,,,,,,,,,,,,,,,,,,,,,,,,,,,,,,,,,,,,,,,,,,,,,,,,,,,,,,,,,1.1589506169160206,0.714598799997475,97.27678720001131,None,ScrollDown,정답입니다,97.27678720001131,None,97.27678720001131,None,97.27678720001131,None,97.27678720001131,None,97.89923740000813,None,97.89923740000813,98.39924569998402,,,,,,,,,,,,,,,,105,2023-04-19_13h22.18.850,FishGame,2022.1.1,60.08257750078947,
,26,넌 만사태평이야,3,Green,B,4,4.333333333333333,ScrollUp,ScrollDown,Green.png,1,Neutral,Neutral,0,0,0,0,,,,,,,,,,,,,0,25,25,25,,,,,,,,,,,,,,,,,,,,,,,,,,,,,,,,,,,,,,,,,,,,,,,,,,,,,,,,,,,,,,,,,,,,,,,,,,,,,,,,,,,,,1.6265432064731917,0.8166904000099748,99.00951299999724,None,ScrollUp,정답입니다,99.00951299999724,None,99.00951299999724,None,99.00951299999724,None,99.00951299999724,None,99.73256539998692,None,99.73256539998692,100.23259349999717,,,,,,,,,,,,,,,,105,2023-04-19_13h22.18.850,FishGame,2022.1.1,60.08257750078947,
,27,넌 붙임성있어,1,Orange,A,5.708333333333333,5.633333333333334,ScrollDown,ScrollUp,Orange.png,1,Positive,Congruent,0,0,0,0,,,,,,,,,,,,,0,26,26,26,,,,,,,,,,,,,,,,,,,,,,,,,,,,,,,,,,,,,,,,,,,,,,,,,,,,,,,,,,,,,,,,,,,,,,,,,,,,,,,,,,,,,1.2206790000200272,0.6780156000168063,100.85306429999764,None,ScrollDown,정답입니다,100.85306429999764,None,100.85306429999764,None,100.85306429999764,None,100.85306429999764,None,101.43021069999668,None,101.43021069999668,101.93101110000862,,,,,,,,,,,,,,,,105,2023-04-19_13h22.18.850,FishGame,2022.1.1,60.08257750078947,
,28,넌 영리해,2,Orange,A,6,4.033333333333333,ScrollDown,ScrollUp,Orange.png,1,Positive,Congruent,0,0,0,0,,,,,,,,,,,,,0,27,27,27,,,,,,,,,,,,,,,,,,,,,,,,,,,,,,,,,,,,,,,,,,,,,,,,,,,,,,,,,,,,,,,,,,,,,,,,,,,,,,,,,,,,,1.1126543233791988,0.6980200000107288,102.54038250001031,None,ScrollDown,정답입니다,102.54038250001031,None,102.54038250001031,None,102.54038250001031,None,102.54038250001031,None,103.14689129998442,None,103.14689129998442,103.64928589999909,,,,,,,,,,,,,,,,105,2023-04-19_13h22.18.850,FishGame,2022.1.1,60.08257750078947,
,29,넌 열심이야,1,Green,B,6.041666666666667,5.833333333333333,ScrollUp,ScrollDown,Green.png,1,Positive,Incongruent,0,0,0,0,,,,,,,,,,,,,0,28,28,28,,,,,,,,,,,,,,,,,,,,,,,,,,,,,,,,,,,,,,,,,,,,,,,,,,,,,,,,,,,,,,,,,,,,,,,,,,,,,,,,,,,,,1.6080246890584626,0.7146417000039946,104.25654959998792,None,ScrollUp,정답입니다,104.25654959998792,None,104.25654959998792,None,104.25654959998792,None,104.25654959998792,None,104.88264600001276,None,104.88264600001276,105.38258730000234,,,,,,,,,,,,,,,,105,2023-04-19_13h22.18.850,FishGame,2022.1.1,60.08257750078947,
,30,넌 인기없어,4,Green,B,3,3.3,ScrollUp,ScrollDown,Green.png,1,Negative,Congruent,0,0,0,0,,,,,,,,,,,,,0,29,29,29,,,,,,,,,,,,,,,,,,,,,,,,,,,,,,,,,,,,,,,,,,,,,,,,,,,,,,,,,,,,,,,,,,,,,,,,,,,,,,,,,,,,,1.6188271616895995,0.7481019999831915,105.98978850001004,None,ScrollUp,정답입니다,105.98978850001004,None,105.98978850001004,None,105.98978850001004,None,105.98978850001004,None,106.64917290001176,None,106.64917290001176,107.14911359999678,,,,,,,,,,,,,,,,105,2023-04-19_13h22.18.850,FishGame,2022.1.1,60.08257750078947,
,31,넌 익살스러워,3,Orange,A,4.708333333333334,4.833333333333333,ScrollDown,ScrollUp,Orange.png,1,Neutral,Neutral,0,0,0,0,,,,,,,,,,,,,0,30,30,30,,,,,,,,,,,,,,,,,,,,,,,,,,,,,,,,,,,,,,,,,,,,,,,,,,,,,,,,,,,,,,,,,,,,,,,,,,,,,,,,,,,,,1.2361111144224803,0.6782473000057507,107.76411809999263,None,ScrollDown,정답입니다,107.76411809999263,None,107.76411809999263,None,107.76411809999263,None,107.76411809999263,None,108.34906909998972,None,108.34906909998972,108.84904729999835,,,,,,,,,,,,,,,,105,2023-04-19_13h22.18.850,FishGame,2022.1.1,60.08257750078947,
,32,넌 이기적이야,5,Green,B,2.291666666666667,2.333333333333333,ScrollUp,ScrollDown,Green.png,1,Negative,Congruent,0,0,0,0,,,,,,,,,,,,,0,31,31,31,,,,,,,,,,,,,,,,,,,,,,,,,,,,,,,,,,,,,,,,,,,,,,,,,,,,,,,,,,,,,,,,,,,,,,,,,,,,,,,,,,,,,1.5555555584530034,0.6791061999974772,109.45375690000947,None,ScrollUp,정답입니다,109.45375690000947,None,109.45375690000947,None,109.45375690000947,None,109.45375690000947,None,110.04671259998577,None,110.04671259998577,110.54672099999152,,,,,,,,,,,,,,,,105,2023-04-19_13h22.18.850,FishGame,2022.1.1,60.08257750078947,
,33,나를 데려가줘,6,Green,B,0,0,ScrollDown,ScrollUp,Green.png,1,NonTarget,NonTarget,0,0,0,0,,,,,,,,,,,,,0,32,32,32,,,,,,,,,,,,,,,,,,,,,,,,,,,,,,,,,,,,,,,,,,,,,,,,,,,,,,,,,,,,,,,,,,,,,,,,,,,,,,,,,,,,,1.140432099501292,0.7480378999898676,111.14969759999076,None,ScrollDown,정답입니다,111.14969759999076,None,111.14969759999076,None,111.14969759999076,None,111.14969759999076,None,111.81340129999444,None,111.81340129999444,112.31337709998479,,,,,,,,,,,,,,,,105,2023-04-19_13h22.18.850,FishGame,2022.1.1,60.08257750078947,
,34,넌 기회주의자야,5,Orange,A,2.875,2.133333333333333,ScrollDown,ScrollUp,Orange.png,1,Negative,Incongruent,0,0,0,0,,,,,,,,,,,,,0,33,33,33,,,,,,,,,,,,,,,,,,,,,,,,,,,,,,,,,,,,,,,,,,,,,,,,,,,,,,,,,,,,,,,,,,,,,,,,,,,,,,,,,,,,,1.141975313425064,0.6670863000035752,112.9271335999947,None,ScrollDown,정답입니다,112.9271335999947,None,112.9271335999947,None,112.9271335999947,None,112.9271335999947,None,113.49908439998399,None,113.49908439998399,113.99908179999329,,,,,,,,,,,,,,,,105,2023-04-19_13h22.18.850,FishGame,2022.1.1,60.08257750078947,
,1,넌 미성숙해,4,Orange,A,3,3.2,ScrollDown,ScrollUp,Orange.png,2,Negative,Incongruent,0,0,0,0,,,,,,,,,,,,,,,,,0,0,0,0,,,,,,,,,,,,,,,,,,,,,,,,,,,,,,,,,,,,,,,,145.08161009999458,146.58177709998563,146.6151174000115,147.56510239999625,147.61512890001177,148.56507139999303,148.56507139999303,None,,,,,,,,,,,,,,,,,,,,,,,,,,,,,,,,,,1.0354938507080078,0.841213500010781,149.64573759998893,None,ScrollDown,정답입니다,149.64573759998893,None,149.64573759998893,None,149.64573759998893,None,149.64573759998893,None,150.3913256000087,None,150.3913256000087,150.895854900009,114.49907250000979,None,114.49907250000979,None,0.022222223,-0.20092593,1,0,0,0.01611666998360306,None,144.49821769999107,None,,,105,2023-04-19_13h22.18.850,FishGame,2022.1.1,60.08257750078947,
,2,넌 반사회적이야,5,Green,B,2.416666666666667,2.033333333333333,ScrollUp,ScrollDown,Green.png,2,Negative,Congruent,0,0,0,0,,,,,,,,,,,,,,,,,0,1,1,1,,,,,,,,,,,,,,,,,,,,,,,,,,,,,,,,,,,,,,,,,,,,,,,,,,,,,,,,,,,,,,,,,,,,,,,,,,,,,,,,,1.6188271616895995,0.6833306000044104,151.5011269999959,None,ScrollUp,정답입니다,151.5011269999959,None,151.5011269999959,None,151.5011269999959,None,151.5011269999959,None,152.09581530001014,None,152.09581530001014,152.59588830001303,,,,,,,,,,,,,,,,105,2023-04-19_13h22.18.850,FishGame,2022.1.1,60.08257750078947,
,3,넌 유능해,2,Orange,A,6.208333333333333,4.433333333333334,ScrollDown,ScrollUp,Orange.png,2,Positive,Congruent,0,0,0,0,,,,,,,,,,,,,,,,,0,2,2,2,,,,,,,,,,,,,,,,,,,,,,,,,,,,,,,,,,,,,,,,,,,,,,,,,,,,,,,,,,,,,,,,,,,,,,,,,,,,,,,,,1.1558641890684764,0.7981541000190191,153.20903550001094,None,ScrollDown,정답입니다,153.20903550001094,None,153.20903550001094,None,153.20903550001094,None,153.20903550001094,None,153.9150193000096,None,153.9150193000096,154.41490010000416,,,,,,,,,,,,,,,,105,2023-04-19_13h22.18.850,FishGame,2022.1.1,60.08257750078947,
,4,넌 능숙해,2,Green,B,5.666666666666667,4.733333333333333,ScrollUp,ScrollDown,Green.png,2,Positive,Incongruent,0,0,0,0,,,,,,,,,,,,,,,,,0,3,3,3,,,,,,,,,,,,,,,,,,,,,,,,,,,,,,,,,,,,,,,,,,,,,,,,,,,,,,,,,,,,,,,,,,,,,,,,,,,,,,,,,1.6373456791043282,0.6811567000113428,155.01982899999712,None,ScrollUp,정답입니다,155.01982899999712,None,155.01982899999712,None,155.01982899999712,None,155.01982899999712,None,155.61474600000656,None,155.61474600000656,156.11476100000436,,,,,,,,,,,,,,,,105,2023-04-19_13h22.18.850,FishGame,2022.1.1,60.08257750078947,
,5,넌 진부해,4,Green,B,2.458333333333333,3.166666666666667,ScrollUp,ScrollDown,Green.png,2,Negative,Congruent,0,0,0,0,,,,,,,,,,,,,,,,,0,4,4,4,,,,,,,,,,,,,,,,,,,,,,,,,,,,,,,,,,,,,,,,,,,,,,,,,,,,,,,,,,,,,,,,,,,,,,,,,,,,,,,,,1.67746914178133,0.7166266000131145,156.72221619999618,None,ScrollUp,정답입니다,156.72221619999618,None,156.72221619999618,None,156.72221619999618,None,156.72221619999618,None,157.34806550000212,None,157.34806550000212,157.848084199999,,,,,,,,,,,,,,,,105,2023-04-19_13h22.18.850,FishGame,2022.1.1,60.08257750078947,
,6,나를 보내줘,6,Orange,A,0,0,ScrollUp,ScrollDown,Orange.png,2,NonTarget,NonTarget,0,0,0,0,,,,,,,,,,,,,,,,,0,5,5,5,,,,,,,,,,,,,,,,,,,,,,,,,,,,,,,,,,,,,,,,,,,,,,,,,,,,,,,,,,,,,,,,,,,,,,,,,,,,,,,,,1.6188271616895995,0.766652200021781,158.45448220000253,None,ScrollUp,정답입니다,158.45448220000253,None,158.45448220000253,None,158.45448220000253,None,158.45448220000253,None,159.13127789998543,None,159.13127789998543,159.631258599984,,,,,,,,,,,,,,,,105,2023-04-19_13h22.18.850,FishGame,2022.1.1,60.08257750078947,
,7,넌 엄격해,3,Orange,A,4.166666666666666,4.1,ScrollDown,ScrollUp,Orange.png,2,Neutral,Neutral,0,0,0,0,,,,,,,,,,,,,,,,,0,6,6,6,,,,,,,,,,,,,,,,,,,,,,,,,,,,,,,,,,,,,,,,,,,,,,,,,,,,,,,,,,,,,,,,,,,,,,,,,,,,,,,,,1.0910493781169255,0.6820906999928411,160.241454300005,None,ScrollDown,정답입니다,160.241454300005,None,160.241454300005,None,160.241454300005,None,160.241454300005,None,160.83128389998456,None,160.83128389998456,161.33127999998396,,,,,,,,,,,,,,,,105,2023-04-19_13h22.18.850,FishGame,2022.1.1,60.08257750078947,
,8,나를 보내줘,6,Orange,A,0,0,ScrollUp,ScrollDown,Orange.png,2,NonTarget,NonTarget,0,0,0,0,,,,,,,,,,,,,,,,,0,7,7,7,,,,,,,,,,,,,,,,,,,,,,,,,,,,,,,,,,,,,,,,,,,,,,,,,,,,,,,,,,,,,,,,,,,,,,,,,,,,,,,,,1.614197532335917,0.7669062999775633,161.93797609998728,None,ScrollUp,정답입니다,161.93797609998728,None,161.93797609998728,None,161.93797609998728,None,161.93797609998728,None,162.61472849998972,None,162.61472849998972,163.11457380000502,,,,,,,,,,,,,,,,105,2023-04-19_13h22.18.850,FishGame,2022.1.1,60.08257750078947,
,9,넌 대담해,3,Green,B,4.875,4.866666666666666,ScrollUp,ScrollDown,Green.png,2,Neutral,Neutral,0,0,0,0,,,,,,,,,,,,,,,,,0,8,8,8,,,,,,,,,,,,,,,,,,,,,,,,,,,,,,,,,,,,,,,,,,,,,,,,,,,,,,,,,,,,,,,,,,,,,,,,,,,,,,,,,1.5740740758677325,0.6461983000044711,163.7222347999923,None,ScrollUp,정답입니다,163.7222347999923,None,163.7222347999923,None,163.7222347999923,None,163.7222347999923,None,164.2811737000011,None,164.2811737000011,164.78123069999856,,,,,,,,,,,,,,,,105,2023-04-19_13h22.18.850,FishGame,2022.1.1,60.08257750078947,
,10,넌 꾸준해,1,Orange,A,5.916666666666668,5.8,ScrollDown,ScrollUp,Orange.png,2,Positive,Congruent,0,0,0,0,,,,,,,,,,,,,,,,,0,9,9,9,,,,,,,,,,,,,,,,,,,,,,,,,,,,,,,,,,,,,,,,,,,,,,,,,,,,,,,,,,,,,,,,,,,,,,,,,,,,,,,,,1.2175925970077515,0.7499889000027906,165.39116669999203,None,ScrollDown,정답입니다,165.39116669999203,None,165.39116669999203,None,165.39116669999203,None,165.39116669999203,None,166.0478643999959,None,166.0478643999959,166.54786500000046,,,,,,,,,,,,,,,,105,2023-04-19_13h22.18.850,FishGame,2022.1.1,60.08257750078947,
,11,나를 데려가줘,6,Green,B,0,0,ScrollDown,ScrollUp,Green.png,2,NonTarget,NonTarget,0,0,0,0,,,,,,,,,,,,,,,,,0,10,10,10,,,,,,,,,,,,,,,,,,,,,,,,,,,,,,,,,,,,,,,,,,,,,,,,,,,,,,,,,,,,,,,,,,,,,,,,,,,,,,,,,1.1867283930381138,0.6994503000169061,167.152302100003,None,ScrollDown,정답입니다,167.152302100003,None,167.152302100003,None,167.152302100003,None,167.152302100003,None,167.7645494999888,None,167.7645494999888,168.26445049999165,,,,,,,,,,,,,,,,105,2023-04-19_13h22.18.850,FishGame,2022.1.1,60.08257750078947,
,12,넌 독선적이야,5,Orange,A,2.458333333333333,1.933333333333333,ScrollDown,ScrollUp,Orange.png,2,Negative,Incongruent,0,0,0,0,,,,,,,,,,,,,,,,,0,11,11,11,,,,,,,,,,,,,,,,,,,,,,,,,,,,,,,,,,,,,,,,,,,,,,,,,,,,,,,,,,,,,,,,,,,,,,,,,,,,,,,,,1.1635802586873372,0.683035199996084,168.87529989998438,None,ScrollDown,정답입니다,168.87529989998438,None,168.87529989998438,None,168.87529989998438,None,168.87529989998438,None,169.46438079999643,None,169.46438079999643,169.9644549000077,,,,,,,,,,,,,,,,105,2023-04-19_13h22.18.850,FishGame,2022.1.1,60.08257750078947,
,13,나를 보내줘,6,Orange,A,0,0,ScrollUp,ScrollDown,Orange.png,2,NonTarget,NonTarget,0,0,0,0,,,,,,,,,,,,,,,,,0,12,12,12,,,,,,,,,,,,,,,,,,,,,,,,,,,,,,,,,,,,,,,,,,,,,,,,,,,,,,,,,,,,,,,,,,,,,,,,,,,,,,,,,1.6388888930281005,0.7665527999924961,170.57081669999752,None,ScrollUp,정답입니다,170.57081669999752,None,170.57081669999752,None,170.57081669999752,None,170.57081669999752,None,171.24787009999272,None,171.24787009999272,171.7477627999906,,,,,,,,,,,,,,,,105,2023-04-19_13h22.18.850,FishGame,2022.1.1,60.08257750078947,
,14,넌 책임감있어,1,Green,B,6.347826086956522,6,ScrollUp,ScrollDown,Green.png,2,Positive,Incongruent,0,0,0,0,,,,,,,,,,,,,,,,,0,13,13,13,,,,,,,,,,,,,,,,,,,,,,,,,,,,,,,,,,,,,,,,,,,,,,,,,,,,,,,,,,,,,,,,,,,,,,,,,,,,,,,,,1.6466049378116927,0.7001414999831468,172.35615989999496,None,ScrollUp,정답입니다,172.35615989999496,None,172.35615989999496,None,172.35615989999496,None,172.35615989999496,None,172.96455070000957,None,172.96455070000957,173.4643218999845,,,,,,,,,,,,,,,,105,2023-04-19_13h22.18.850,FishGame,2022.1.1,60.08257750078947,
,15,넌 문학적이야,3,Orange,A,4.708333333333334,4.333333333333333,ScrollDown,ScrollUp,Orange.png,2,Neutral,Neutral,0,0,0,0,,,,,,,,,,,,,,,,,0,14,14,14,,,,,,,,,,,,,,,,,,,,,,,,,,,,,,,,,,,,,,,,,,,,,,,,,,,,,,,,,,,,,,,,,,,,,,,,,,,,,,,,,1.1095678955316544,0.6980363999900874,174.07474310000543,None,ScrollDown,정답입니다,174.07474310000543,None,174.07474310000543,None,174.07474310000543,None,174.07474310000543,None,174.68101550001302,None,174.68101550001302,175.18095390000963,,,,,,,,,,,,,,,,105,2023-04-19_13h22.18.850,FishGame,2022.1.1,60.08257750078947,
,16,넌 재미있어,1,Green,B,5.875,5.7,ScrollUp,ScrollDown,Green.png,2,Positive,Incongruent,0,0,0,0,,,,,,,,,,,,,,,,,0,15,15,15,,,,,,,,,,,,,,,,,,,,,,,,,,,,,,,,,,,,,,,,,,,,,,,,,,,,,,,,,,,,,,,,,,,,,,,,,,,,,,,,,1.6203703756133714,0.6999512999900617,175.78549790001125,None,ScrollUp,정답입니다,175.78549790001125,None,175.78549790001125,None,175.78549790001125,None,175.78549790001125,None,176.39773140000761,None,176.39773140000761,176.8976690999989,,,,,,,,,,,,,,,,105,2023-04-19_13h22.18.850,FishGame,2022.1.1,60.08257750078947,
,17,나를 데려가줘,6,Green,B,0,0,ScrollDown,ScrollUp,Green.png,2,NonTarget,NonTarget,0,0,0,0,,,,,,,,,,,,,,,,,0,16,16,16,,,,,,,,,,,,,,,,,,,,,,,,,,,,,,,,,,,,,,,,,,,,,,,,,,,,,,,,,,,,,,,,,,,,,,,,,,,,,,,,,1.2361111144224803,0.6743138000019826,177.5026382000069,None,ScrollDown,정답입니다,177.5026382000069,None,177.5026382000069,None,177.5026382000069,None,177.5026382000069,None,178.09086190001108,None,178.09086190001108,178.59756580000976,,,,,,,,,,,,,,,,105,2023-04-19_13h22.18.850,FishGame,2022.1.1,60.08257750078947,
,18,넌 협력적이야,1,Orange,A,5.625,5.633333333333334,ScrollDown,ScrollUp,Orange.png,2,Positive,Congruent,0,0,0,0,,,,,,,,,,,,,,,,,0,17,17,17,,,,,,,,,,,,,,,,,,,,,,,,,,,,,,,,,,,,,,,,,,,,,,,,,,,,,,,,,,,,,,,,,,,,,,,,,,,,,,,,,1.1543209999799728,0.6981558999978006,179.20665830001235,None,ScrollDown,정답입니다,179.20665830001235,None,179.20665830001235,None,179.20665830001235,None,179.20665830001235,None,179.81418929999927,None,179.81418929999927,180.31419030000689,,,,,,,,,,,,,,,,105,2023-04-19_13h22.18.850,FishGame,2022.1.1,60.08257750078947,
,19,넌 평범해,3,Green,B,4.333333333333332,4.233333333333333,ScrollUp,ScrollDown,Green.png,2,Neutral,Neutral,0,0,0,0,,,,,,,,,,,,,,,,,0,18,18,18,,,,,,,,,,,,,,,,,,,,,,,,,,,,,,,,,,,,,,,,,,,,,,,,,,,,,,,,,,,,,,,,,,,,,,,,,,,,,,,,,1.609567902982235,0.7483796000014991,180.92080679998617,None,ScrollUp,정답입니다,180.92080679998617,None,180.92080679998617,None,180.92080679998617,None,180.92080679998617,None,181.580861800001,None,181.580861800001,182.0808943999873,,,,,,,,,,,,,,,,105,2023-04-19_13h22.18.850,FishGame,2022.1.1,60.08257750078947,
,20,넌 오만해,5,Orange,A,2.333333333333333,2,ScrollDown,ScrollUp,Orange.png,2,Negative,Incongruent,0,0,0,0,,,,,,,,,,,,,,,,,0,19,19,19,,,,,,,,,,,,,,,,,,,,,,,,,,,,,,,,,,,,,,,,,,,,,,,,,,,,,,,,,,,,,,,,,,,,,,,,,,,,,,,,,1.2407407313585281,0.646271900011925,182.6899265999964,None,ScrollDown,정답입니다,182.6899265999964,None,182.6899265999964,None,182.6899265999964,None,182.6899265999964,None,183.2475573999982,None,183.2475573999982,183.74744149998878,,,,,,,,,,,,,,,,105,2023-04-19_13h22.18.850,FishGame,2022.1.1,60.08257750078947,
,21,넌 운이없어,4,Green,B,3,3.466666666666667,ScrollUp,ScrollDown,Green.png,2,Negative,Congruent,0,0,0,0,,,,,,,,,,,,,,,,,0,20,20,20,,,,,,,,,,,,,,,,,,,,,,,,,,,,,,,,,,,,,,,,,,,,,,,,,,,,,,,,,,,,,,,,,,,,,,,,,,,,,,,,,1.560185187806686,0.6814324000151828,184.35458640000434,None,ScrollUp,정답입니다,184.35458640000434,None,184.35458640000434,None,184.35458640000434,None,184.35458640000434,None,184.94539209999493,None,184.94539209999493,185.44738110000617,,,,,,,,,,,,,,,,105,2023-04-19_13h22.18.850,FishGame,2022.1.1,60.08257750078947,
,22,넌 창조적이야,2,Green,B,6.125,4.633333333333334,ScrollUp,ScrollDown,Green.png,2,Positive,Incongruent,0,0,0,0,,,,,,,,,,,,,,,,,0,21,21,21,,,,,,,,,,,,,,,,,,,,,,,,,,,,,,,,,,,,,,,,,,,,,,,,,,,,,,,,,,,,,,,,,,,,,,,,,,,,,,,,,1.5987654303510985,0.6995660999964457,186.05588430000353,None,ScrollUp,정답입니다,186.05588430000353,None,186.05588430000353,None,186.05588430000353,None,186.05588430000353,None,186.66412309999578,None,186.66412309999578,187.16409909998765,,,,,,,,,,,,,,,,105,2023-04-19_13h22.18.850,FishGame,2022.1.1,60.08257750078947,
,23,나를 보내줘,6,Orange,A,0,0,ScrollUp,ScrollDown,Orange.png,2,NonTarget,NonTarget,0,0,0,0,,,,,,,,,,,,,,,,,0,22,22,22,,,,,,,,,,,,,,,,,,,,,,,,,,,,,,,,,,,,,,,,,,,,,,,,,,,,,,,,,,,,,,,,,,,,,,,,,,,,,,,,,1.5864197500050068,0.7313271999883,187.7718595000042,None,ScrollUp,정답입니다,187.7718595000042,None,187.7718595000042,None,187.7718595000042,None,187.7718595000042,None,188.41413920000196,None,188.41413920000196,188.91400359998806,,,,,,,,,,,,,,,,105,2023-04-19_13h22.18.850,FishGame,2022.1.1,60.08257750078947,
,24,넌 통찰력있어,2,Orange,A,6.5,4.8,ScrollDown,ScrollUp,Orange.png,2,Positive,Congruent,0,0,0,0,,,,,,,,,,,,,,,,,0,23,23,23,,,,,,,,,,,,,,,,,,,,,,,,,,,,,,,,,,,,,,,,,,,,,,,,,,,,,,,,,,,,,,,,,,,,,,,,,,,,,,,,,1.1496913582086563,0.6813423999992665,189.52455840000766,None,ScrollDown,정답입니다,189.52455840000766,None,189.52455840000766,None,189.52455840000766,None,189.52455840000766,None,190.1140308000031,None,190.1140308000031,190.61399009998422,,,,,,,,,,,,,,,,105,2023-04-19_13h22.18.850,FishGame,2022.1.1,60.08257750078947,
,25,넌 경솔해,5,Green,B,2.458333333333333,2.266666666666667,ScrollUp,ScrollDown,Green.png,2,Negative,Congruent,0,0,0,0,,,,,,,,,,,,,,,,,0,24,24,24,,,,,,,,,,,,,,,,,,,,,,,,,,,,,,,,,,,,,,,,,,,,,,,,,,,,,,,,,,,,,,,,,,,,,,,,,,,,,,,,,1.5879629639287791,0.6479163000185508,191.22036410000874,None,ScrollUp,정답입니다,191.22036410000874,None,191.22036410000874,None,191.22036410000874,None,191.22036410000874,None,191.78068490000442,None,191.78068490000442,192.28068239998538,,,,,,,,,,,,,,,,105,2023-04-19_13h22.18.850,FishGame,2022.1.1,60.08257750078947,
,26,넌 초조해,4,Orange,A,2.916666666666667,3.133333333333333,ScrollDown,ScrollUp,Orange.png,2,Negative,Incongruent,0,0,0,0,,,,,,,,,,,,,,,,,0,25,25,25,,,,,,,,,,,,,,,,,,,,,,,,,,,,,,,,,,,,,,,,,,,,,,,,,,,,,,,,,,,,,,,,,,,,,,,,,,,,,,,,,1.214506169160207,0.6819970000069588,192.88931649998995,None,ScrollDown,정답입니다,192.88931649998995,None,192.88931649998995,None,192.88931649998995,None,192.88931649998995,None,193.48064449999947,None,193.48064449999947,193.9838841999881,,,,,,,,,,,,,,,,105,2023-04-19_13h22.18.850,FishGame,2022.1.1,60.08257750078947,
,27,넌 무관심해,4,Green,B,2.833333333333333,2.9,ScrollUp,ScrollDown,Green.png,2,Negative,Congruent,0,0,0,0,,,,,,,,,,,,,,,,,0,26,26,26,,,,,,,,,,,,,,,,,,,,,,,,,,,,,,,,,,,,,,,,,,,,,,,,,,,,,,,,,,,,,,,,,,,,,,,,,,,,,,,,,1.6265432064731917,0.6480574000161141,194.587483899988,None,ScrollUp,정답입니다,194.587483899988,None,194.587483899988,None,194.587483899988,None,194.587483899988,None,195.14720549999038,None,195.14720549999038,195.64717859998927,,,,,,,,,,,,,,,,105,2023-04-19_13h22.18.850,FishGame,2022.1.1,60.08257750078947,
,28,넌 감성적이야,3,Green,B,4.125,4.166666666666667,ScrollUp,ScrollDown,Green.png,2,Neutral,Neutral,0,0,0,0,,,,,,,,,,,,,,,,,0,27,27,27,,,,,,,,,,,,,,,,,,,,,,,,,,,,,,,,,,,,,,,,,,,,,,,,,,,,,,,,,,,,,,,,,,,,,,,,,,,,,,,,,1.584876542290052,0.6834720999759156,196.2519353000098,None,ScrollUp,정답입니다,196.2519353000098,None,196.2519353000098,None,196.2519353000098,None,196.2519353000098,None,196.84722809999948,None,196.84722809999948,197.34724830000778,,,,,,,,,,,,,,,,105,2023-04-19_13h22.18.850,FishGame,2022.1.1,60.08257750078947,
,29,넌 배려심있어,1,Orange,A,6.083333333333333,5.5,ScrollDown,ScrollUp,Orange.png,2,Positive,Congruent,0,0,0,0,,,,,,,,,,,,,,,,,0,28,28,28,,,,,,,,,,,,,,,,,,,,,,,,,,,,,,,,,,,,,,,,,,,,,,,,,,,,,,,,,,,,,,,,,,,,,,,,,,,,,,,,,1.1311728407939274,0.6939598000026308,197.9574319999956,None,ScrollDown,정답입니다,197.9574319999956,None,197.9574319999956,None,197.9574319999956,None,197.9574319999956,None,198.55704509999487,None,198.55704509999487,199.0615351999877,,,,,,,,,,,,,,,,105,2023-04-19_13h22.18.850,FishGame,2022.1.1,60.08257750078947,
,30,넌 숨김없어,3,Orange,A,4.5,4.933333333333334,ScrollDown,ScrollUp,Orange.png,2,Neutral,Neutral,0,0,0,0,,,,,,,,,,,,,,,,,0,29,29,29,,,,,,,,,,,,,,,,,,,,,,,,,,,,,,,,,,,,,,,,,,,,,,,,,,,,,,,,,,,,,,,,,,,,,,,,,,,,,,,,,1.1851851791143417,0.6837298000173178,199.6698359999864,None,ScrollDown,정답입니다,199.6698359999864,None,199.6698359999864,None,199.6698359999864,None,199.6698359999864,None,200.26156700000865,None,200.26156700000865,200.76155229998403,,,,,,,,,,,,,,,,105,2023-04-19_13h22.18.850,FishGame,2022.1.1,60.08257750078947,
,31,넌 훌륭해,2,Green,B,5.916666666666667,4.033333333333333,ScrollUp,ScrollDown,Green.png,2,Positive,Incongruent,0,0,0,0,,,,,,,,,,,,,,,,,0,30,30,30,,,,,,,,,,,,,,,,,,,,,,,,,,,,,,,,,,,,,,,,,,,,,,,,,,,,,,,,,,,,,,,,,,,,,,,,,,,,,,,,,1.589506171643734,0.7317059999913909,201.37185999998474,None,ScrollUp,정답입니다,201.37185999998474,None,201.37185999998474,None,201.37185999998474,None,201.37185999998474,None,202.014021400013,None,202.014021400013,202.5139862000069,,,,,,,,,,,,,,,,105,2023-04-19_13h22.18.850,FishGame,2022.1.1,60.08257750078947,
,32,넌 슬기로워,2,Orange,A,6.166666666666667,4.1,ScrollDown,ScrollUp,Orange.png,2,Positive,Congruent,0,0,0,0,,,,,,,,,,,,,,,,,0,31,31,31,,,,,,,,,,,,,,,,,,,,,,,,,,,,,,,,,,,,,,,,,,,,,,,,,,,,,,,,,,,,,,,,,,,,,,,,,,,,,,,,,1.174382706483205,0.6645396999956574,203.12344070000108,None,ScrollDown,정답입니다,203.12344070000108,None,203.12344070000108,None,203.12344070000108,None,203.12344070000108,None,203.697090200003,None,203.697090200003,204.197078600002,,,,,,,,,,,,,,,,105,2023-04-19_13h22.18.850,FishGame,2022.1.1,60.08257750078947,
,33,넌 냉혹해,5,Orange,A,2.583333333333333,2.1,ScrollDown,ScrollUp,Orange.png,2,Negative,Incongruent,0,0,0,0,,,,,,,,,,,,,,,,,0,32,32,32,,,,,,,,,,,,,,,,,,,,,,,,,,,,,,,,,,,,,,,,,,,,,,,,,,,,,,,,,,,,,,,,,,,,,,,,,,,,,,,,,1.2469135870536168,0.5985577999963425,204.80669789999956,None,ScrollDown,정답입니다,204.80669789999956,None,204.80669789999956,None,204.80669789999956,None,204.80669789999956,None,205.31368640001165,None,205.31368640001165,205.81377839998459,,,,,,,,,,,,,,,,105,2023-04-19_13h22.18.850,FishGame,2022.1.1,60.08257750078947,
,34,나를 데려가줘,6,Green,B,0,0,ScrollDown,ScrollUp,Green.png,2,NonTarget,NonTarget,0,0,0,0,,,,,,,,,,,,,,,,,0,33,33,33,,,,,,,,,,,,,,,,,,,,,,,,,,,,,,,,,,,,,,,,,,,,,,,,,,,,,,,,,,,,,,,,,,,,,,,,,,,,,,,,,1.2839506218830743,0.7165472999913618,206.4188856999972,None,ScrollDown,정답입니다,206.4188856999972,None,206.4188856999972,None,206.4188856999972,None,206.4188856999972,None,207.0469952999847,None,207.0469952999847,207.5469419999863,,,,,,,,,,,,,,,,105,2023-04-19_13h22.18.850,FishGame,2022.1.1,60.08257750078947,
,35,넌 편파적이야,5,Green,B,2.125,2,ScrollUp,ScrollDown,Green.png,2,Negative,Congruent,0,0,0,0,,,,,,,,,,,,,,,,,0,34,34,34,,,,,,,,,,,,,,,,,,,,,,,,,,,,,,,,,,,,,,,,,,,,,,,,,,,,,,,,,,,,,,,,,,,,,,,,,,,,,,,,,1.56944444651405,0.6666419999965001,208.15426509999088,None,ScrollUp,정답입니다,208.15426509999088,None,208.15426509999088,None,208.15426509999088,None,208.15426509999088,None,208.73026730000856,None,208.73026730000856,209.23028339998564,,,,,,,,,,,,,,,,105,2023-04-19_13h22.18.850,FishGame,2022.1.1,60.08257750078947,
,36,넌 슬퍼,4,Orange,A,2.583333333333333,3.066666666666667,ScrollDown,ScrollUp,Orange.png,2,Negative,Incongruent,0,0,0,0,,,,,,,,,,,,,,,,,0,35,35,35,,,,,,,,,,,,,,,,,,,,,,,,,,,,,,,,,,,,,,,,,,,,,,,,,,,,,,,,,,,,,,,,,,,,,,,,,,,,,,,,,1.276234577099482,0.6461674000020139,209.8364850000071,None,ScrollDown,정답입니다,209.8364850000071,None,209.8364850000071,None,209.8364850000071,None,209.8364850000071,None,210.3970018000109,None,210.3970018000109,210.8969674000109,,,,,,,,,,,,,,,,105,2023-04-19_13h22.18.850,FishGame,2022.1.1,60.08257750078947,
,37,나를 데려가줘,6,Green,B,0,0,ScrollDown,ScrollUp,Green.png,2,NonTarget,NonTarget,0,0,0,0,,,,,,,,,,,,,,,,,0,36,36,36,,,,,,,,,,,,,,,,,,,,,,,,,,,,,,,,,,,,,,,,,,,,,,,,,,,,,,,,,,,,,,,,,,,,,,,,,,,,,,,,,1.2222222139437993,0.7802223000035156,211.50153000000864,None,ScrollDown,정답입니다,211.50153000000864,None,211.50153000000864,None,211.50153000000864,None,211.50153000000864,None,212.19459279999137,None,212.19459279999137,212.69514970001183,,,,,,,,,,,,,,,,105,2023-04-19_13h22.18.850,FishGame,2022.1.1,60.08257750078947,
,38,넌 친절해,1,Green,B,6.041666666666667,5.533333333333333,ScrollUp,ScrollDown,Green.png,2,Positive,Incongruent,0,0,0,0,,,,,,,,,,,,,,,,,0,37,37,37,,,,,,,,,,,,,,,,,,,,,,,,,,,,,,,,,,,,,,,,,,,,,,,,,,,,,,,,,,,,,,,,,,,,,,,,,,,,,,,,,1.6712962985038757,0.7646767999976873,213.3026702000061,None,ScrollUp,정답입니다,213.3026702000061,None,213.3026702000061,None,213.3026702000061,None,213.3026702000061,None,213.97795790000237,None,213.97795790000237,214.47793910000473,,,,,,,,,,,,,,,,105,2023-04-19_13h22.18.850,FishGame,2022.1.1,60.08257750078947,
,1,넌 엉성해,4,Orange,A,3,3.3,ScrollDown,ScrollUp,Orange.png,3,Negative,Incongruent,0,0,0,0,,,,,,,,,,,,,,,,,,,,,0,0,0,0,,,,,,,,,,,,,,,,,,,,,,,,,,,,,,,,,,,,245.52947189999395,247.02974100000574,247.06308120000176,248.01302670000587,248.06302890001098,249.01300760000595,249.01300760000595,None,,,,,,,,,,,,,,,,,,,,,,,,,,,,,,,,,,1.1728395173947017,0.8097894000238739,250.0959579999908,None,ScrollDown,정답입니다,250.0959579999908,None,250.0959579999908,None,250.0959579999908,None,250.0959579999908,None,250.81283959999564,None,250.81283959999564,251.31280250000418,214.980398899992,None,214.980398899992,None,0.06759259,-0.18148148,1,0,0,0.01617736998014152,None,244.97944359999383,None,,,105,2023-04-19_13h22.18.850,FishGame,2022.1.1,60.08257750078947,
,2,나를 보내줘,6,Orange,A,0,0,ScrollUp,ScrollDown,Orange.png,3,NonTarget,NonTarget,0,0,0,0,,,,,,,,,,,,,,,,,,,,,0,1,1,1,,,,,,,,,,,,,,,,,,,,,,,,,,,,,,,,,,,,,,,,,,,,,,,,,,,,,,,,,,,,,,,,,,,,,,,,,,,,,1.6203703756133714,0.7460802000132389,251.91936309999437,None,ScrollUp,정답입니다,251.91936309999437,None,251.91936309999437,None,251.91936309999437,None,251.91936309999437,None,252.57733209998696,None,252.57733209998696,253.0793629999971,,,,,,,,,,,,,,,,105,2023-04-19_13h22.18.850,FishGame,2022.1.1,60.08257750078947,
,3,넌 활발해,1,Green,B,5.666666666666667,5.6,ScrollUp,ScrollDown,Green.png,3,Positive,Incongruent,0,0,0,0,,,,,,,,,,,,,,,,,,,,,0,2,2,2,,,,,,,,,,,,,,,,,,,,,,,,,,,,,,,,,,,,,,,,,,,,,,,,,,,,,,,,,,,,,,,,,,,,,,,,,,,,,1.6373456791043282,0.6500368000124581,253.68684819998452,None,ScrollUp,정답입니다,253.68684819998452,None,253.68684819998452,None,253.68684819998452,None,253.68684819998452,None,254.24616730000707,None,254.24616730000707,254.7460088999942,,,,,,,,,,,,,,,,105,2023-04-19_13h22.18.850,FishGame,2022.1.1,60.08257750078947,
,4,넌 논리적이야,2,Orange,A,5.666666666666666,4.633333333333334,ScrollDown,ScrollUp,Orange.png,3,Positive,Congruent,0,0,0,0,,,,,,,,,,,,,,,,,,,,,0,3,3,3,,,,,,,,,,,,,,,,,,,,,,,,,,,,,,,,,,,,,,,,,,,,,,,,,,,,,,,,,,,,,,,,,,,,,,,,,,,,,1.160493830839793,0.6625802000053227,255.35538769999403,None,ScrollDown,정답입니다,255.35538769999403,None,255.35538769999403,None,255.35538769999403,None,255.35538769999403,None,255.92702589998953,None,255.92702589998953,256.4270305999962,,,,,,,,,,,,,,,,105,2023-04-19_13h22.18.850,FishGame,2022.1.1,60.08257750078947,
,5,넌 과묵해,3,Orange,A,3.875,4.4,ScrollDown,ScrollUp,Orange.png,3,Neutral,Neutral,0,0,0,0,,,,,,,,,,,,,,,,,,,,,0,4,4,4,,,,,,,,,,,,,,,,,,,,,,,,,,,,,,,,,,,,,,,,,,,,,,,,,,,,,,,,,,,,,,,,,,,,,,,,,,,,,1.1882716069618862,0.6666701000067405,257.0340625999961,None,ScrollDown,정답입니다,257.0340625999961,None,257.0340625999961,None,257.0340625999961,None,257.0340625999961,None,257.61037949999445,None,257.61037949999445,258.11278019999736,,,,,,,,,,,,,,,,105,2023-04-19_13h22.18.850,FishGame,2022.1.1,60.08257750078947,
,6,나를 데려가줘,6,Green,B,0,0,ScrollDown,ScrollUp,Green.png,3,NonTarget,NonTarget,0,0,0,0,,,,,,,,,,,,,,,,,,,,,0,5,5,5,,,,,,,,,,,,,,,,,,,,,,,,,,,,,,,,,,,,,,,,,,,,,,,,,,,,,,,,,,,,,,,,,,,,,,,,,,,,,1.2114197413126628,0.7834167999972124,258.71765669999877,None,ScrollDown,정답입니다,258.71765669999877,None,258.71765669999877,None,258.71765669999877,None,258.71765669999877,None,259.41278449998936,None,259.41278449998936,259.9127238999936,,,,,,,,,,,,,,,,105,2023-04-19_13h22.18.850,FishGame,2022.1.1,60.08257750078947,
,7,넌 미숙해,4,Green,B,3,3,ScrollUp,ScrollDown,Green.png,3,Negative,Congruent,0,0,0,0,,,,,,,,,,,,,,,,,,,,,0,6,6,6,,,,,,,,,,,,,,,,,,,,,,,,,,,,,,,,,,,,,,,,,,,,,,,,,,,,,,,,,,,,,,,,,,,,,,,,,,,,,1.5987654303510985,0.7263168999925256,260.52060920000076,None,ScrollUp,정답입니다,260.52060920000076,None,260.52060920000076,None,260.52060920000076,None,260.52060920000076,None,261.1625931999879,None,261.1625931999879,261.6625698999851,,,,,,,,,,,,,,,,105,2023-04-19_13h22.18.850,FishGame,2022.1.1,60.08257750078947,
,8,나를 보내줘,6,Orange,A,0,0,ScrollUp,ScrollDown,Orange.png,3,NonTarget,NonTarget,0,0,0,0,,,,,,,,,,,,,,,,,,,,,0,7,7,7,,,,,,,,,,,,,,,,,,,,,,,,,,,,,,,,,,,,,,,,,,,,,,,,,,,,,,,,,,,,,,,,,,,,,,,,,,,,,1.6126543184121451,0.7459209999942686,262.27537260000827,None,ScrollUp,정답입니다,262.27537260000827,None,262.27537260000827,None,262.27537260000827,None,262.27537260000827,None,262.92715649999445,None,262.92715649999445,263.429160700005,,,,,,,,,,,,,,,,105,2023-04-19_13h22.18.850,FishGame,2022.1.1,60.08257750078947,
,9,넌 자신만만해,3,Green,B,4.833333333333334,4.333333333333333,ScrollUp,ScrollDown,Green.png,3,Neutral,Neutral,0,0,0,0,,,,,,,,,,,,,,,,,,,,,0,8,8,8,,,,,,,,,,,,,,,,,,,,,,,,,,,,,,,,,,,,,,,,,,,,,,,,,,,,,,,,,,,,,,,,,,,,,,,,,,,,,1.5864197500050068,0.7147409000026528,264.0338129999873,None,ScrollUp,정답입니다,264.0338129999873,None,264.0338129999873,None,264.0338129999873,None,264.0338129999873,None,264.66244149999693,None,264.66244149999693,265.1624969000113,,,,,,,,,,,,,,,,105,2023-04-19_13h22.18.850,FishGame,2022.1.1,60.08257750078947,
,10,넌 탐욕스러워,5,Orange,A,2.25,2.1,ScrollDown,ScrollUp,Orange.png,3,Negative,Incongruent,0,0,0,0,,,,,,,,,,,,,,,,,,,,,0,9,9,9,,,,,,,,,,,,,,,,,,,,,,,,,,,,,,,,,,,,,,,,,,,,,,,,,,,,,,,,,,,,,,,,,,,,,,,,,,,,,1.1975308656692505,0.6462082000216469,265.77356159998453,None,ScrollDown,정답입니다,265.77356159998453,None,265.77356159998453,None,265.77356159998453,None,265.77356159998453,None,266.3292020999943,None,266.3292020999943,266.82918050000444,,,,,,,,,,,,,,,,105,2023-04-19_13h22.18.850,FishGame,2022.1.1,60.08257750078947,
,11,넌 인기있어,2,Orange,A,5.458333333333333,4.5,ScrollDown,ScrollUp,Orange.png,3,Positive,Congruent,0,0,0,0,,,,,,,,,,,,,,,,,,,,,0,10,10,10,,,,,,,,,,,,,,,,,,,,,,,,,,,,,,,,,,,,,,,,,,,,,,,,,,,,,,,,,,,,,,,,,,,,,,,,,,,,,1.182098776102066,0.6833532000018749,267.4354211000027,None,ScrollDown,정답입니다,267.4354211000027,None,267.4354211000027,None,267.4354211000027,None,267.4354211000027,None,268.02906729999813,None,268.02906729999813,268.5290306000097,,,,,,,,,,,,,,,,105,2023-04-19_13h22.18.850,FishGame,2022.1.1,60.08257750078947,
,12,나를 데려가줘,6,Green,B,0,0,ScrollDown,ScrollUp,Green.png,3,NonTarget,NonTarget,0,0,0,0,,,,,,,,,,,,,,,,,,,,,0,11,11,11,,,,,,,,,,,,,,,,,,,,,,,,,,,,,,,,,,,,,,,,,,,,,,,,,,,,,,,,,,,,,,,,,,,,,,,,,,,,,1.1913580348094304,0.7314912999863736,269.1337971999892,None,ScrollDown,정답입니다,269.1337971999892,None,269.1337971999892,None,269.1337971999892,None,269.1337971999892,None,269.7770390000078,None,269.7770390000078,270.2790898999956,,,,,,,,,,,,,,,,105,2023-04-19_13h22.18.850,FishGame,2022.1.1,60.08257750078947,
,13,넌 뛰어나,2,Green,B,6.166666666666667,4,ScrollUp,ScrollDown,Green.png,3,Positive,Incongruent,0,0,0,0,,,,,,,,,,,,,,,,,,,,,0,12,12,12,,,,,,,,,,,,,,,,,,,,,,,,,,,,,,,,,,,,,,,,,,,,,,,,,,,,,,,,,,,,,,,,,,,,,,,,,,,,,1.5833333345750966,0.6814661000098567,270.88647389999824,None,ScrollUp,정답입니다,270.88647389999824,None,270.88647389999824,None,270.88647389999824,None,270.88647389999824,None,271.4792643999972,None,271.4792643999972,271.9789932999993,,,,,,,,,,,,,,,,105,2023-04-19_13h22.18.850,FishGame,2022.1.1,60.08257750078947,
,14,넌 낙관적이야,1,Orange,A,5.75,5.8,ScrollDown,ScrollUp,Orange.png,3,Positive,Congruent,0,0,0,0,,,,,,,,,,,,,,,,,,,,,0,13,13,13,,,,,,,,,,,,,,,,,,,,,,,,,,,,,,,,,,,,,,,,,,,,,,,,,,,,,,,,,,,,,,,,,,,,,,,,,,,,,1.1836419651905696,0.715112500009127,272.5878539000114,None,ScrollDown,정답입니다,272.5878539000114,None,272.5878539000114,None,272.5878539000114,None,272.5878539000114,None,273.2123186000099,None,273.2123186000099,273.71227709998493,,,,,,,,,,,,,,,,105,2023-04-19_13h22.18.850,FishGame,2022.1.1,60.08257750078947,
,15,넌 산만해,4,Green,B,2.695652173913043,3.033333333333333,ScrollUp,ScrollDown,Green.png,3,Negative,Congruent,0,0,0,0,,,,,,,,,,,,,,,,,,,,,0,14,14,14,,,,,,,,,,,,,,,,,,,,,,,,,,,,,,,,,,,,,,,,,,,,,,,,,,,,,,,,,,,,,,,,,,,,,,,,,,,,,1.6265432064731917,0.6999282000178937,274.31862700000056,None,ScrollUp,정답입니다,274.31862700000056,None,274.31862700000056,None,274.31862700000056,None,274.31862700000056,None,274.928946,None,274.928946,275.42895699999644,,,,,,,,,,,,,,,,105,2023-04-19_13h22.18.850,FishGame,2022.1.1,60.08257750078947,
,16,나를 보내줘,6,Orange,A,0,0,ScrollUp,ScrollDown,Orange.png,3,NonTarget,NonTarget,0,0,0,0,,,,,,,,,,,,,,,,,,,,,0,15,15,15,,,,,,,,,,,,,,,,,,,,,,,,,,,,,,,,,,,,,,,,,,,,,,,,,,,,,,,,,,,,,,,,,,,,,,,,,,,,,1.6234567910432816,0.7061465000151657,276.03595709998626,None,ScrollUp,정답입니다,276.03595709998626,None,276.03595709998626,None,276.03595709998626,None,276.03595709998626,None,276.65549309999915,None,276.65549309999915,277.1599966000067,,,,,,,,,,,,,,,,105,2023-04-19_13h22.18.850,FishGame,2022.1.1,60.08257750078947,
,17,넌 교활해,5,Green,B,2.333333333333333,2.133333333333333,ScrollUp,ScrollDown,Green.png,3,Negative,Congruent,0,0,0,0,,,,,,,,,,,,,,,,,,,,,0,16,16,16,,,,,,,,,,,,,,,,,,,,,,,,,,,,,,,,,,,,,,,,,,,,,,,,,,,,,,,,,,,,,,,,,,,,,,,,,,,,,1.6404320945342383,0.664769900002284,277.7640121000004,None,ScrollUp,정답입니다,277.7640121000004,None,277.7640121000004,None,277.7640121000004,None,277.7640121000004,None,278.3432330999931,None,278.3432330999931,278.84325780000654,,,,,,,,,,,,,,,,105,2023-04-19_13h22.18.850,FishGame,2022.1.1,60.08257750078947,
,18,나를 보내줘,6,Orange,A,0,0,ScrollUp,ScrollDown,Orange.png,3,NonTarget,NonTarget,0,0,0,0,,,,,,,,,,,,,,,,,,,,,0,17,17,17,,,,,,,,,,,,,,,,,,,,,,,,,,,,,,,,,,,,,,,,,,,,,,,,,,,,,,,,,,,,,,,,,,,,,,,,,,,,,1.614197532335917,0.698635100008687,279.4524665999925,None,ScrollUp,정답입니다,279.4524665999925,None,279.4524665999925,None,279.4524665999925,None,279.4524665999925,None,280.0624640999886,None,280.0624640999886,280.5623182999843,,,,,,,,,,,,,,,,105,2023-04-19_13h22.18.850,FishGame,2022.1.1,60.08257750078947,
,19,넌 불친절해,5,Green,B,2.208333333333333,2.033333333333333,ScrollUp,ScrollDown,Green.png,3,Negative,Congruent,0,0,0,0,,,,,,,,,,,,,,,,,,,,,0,18,18,18,,,,,,,,,,,,,,,,,,,,,,,,,,,,,,,,,,,,,,,,,,,,,,,,,,,,,,,,,,,,,,,,,,,,,,,,,,,,,1.5956790149211884,0.7154871000093408,281.17261410001083,None,ScrollUp,정답입니다,281.17261410001083,None,281.17261410001083,None,281.17261410001083,None,281.17261410001083,None,281.7954381000018,None,281.7954381000018,282.29542499998934,,,,,,,,,,,,,,,,105,2023-04-19_13h22.18.850,FishGame,2022.1.1,60.08257750078947,
,20,넌 지적이야,2,Green,B,5.75,4.366666666666666,ScrollUp,ScrollDown,Green.png,3,Positive,Incongruent,0,0,0,0,,,,,,,,,,,,,,,,,,,,,0,19,19,19,,,,,,,,,,,,,,,,,,,,,,,,,,,,,,,,,,,,,,,,,,,,,,,,,,,,,,,,,,,,,,,,,,,,,,,,,,,,,1.5817901206513247,0.6983261999848764,282.89972069999203,None,ScrollUp,정답입니다,282.89972069999203,None,282.89972069999203,None,282.89972069999203,None,282.89972069999203,None,283.51217420000467,None,283.51217420000467,284.0121060000092,,,,,,,,,,,,,,,,105,2023-04-19_13h22.18.850,FishGame,2022.1.1,60.08257750078947,
,21,넌 우유부단해,4,Orange,A,2.666666666666667,3.166666666666667,ScrollDown,ScrollUp,Orange.png,3,Negative,Incongruent,0,0,0,0,,,,,,,,,,,,,,,,,,,,,0,20,20,20,,,,,,,,,,,,,,,,,,,,,,,,,,,,,,,,,,,,,,,,,,,,,,,,,,,,,,,,,,,,,,,,,,,,,,,,,,,,,1.1435185273488362,0.6960741000075359,284.63381979998667,None,ScrollDown,정답입니다,284.63381979998667,None,284.63381979998667,None,284.63381979998667,None,284.63381979998667,None,285.2287237000128,None,285.2287237000128,285.7287215999968,,,,,,,,,,,,,,,,105,2023-04-19_13h22.18.850,FishGame,2022.1.1,60.08257750078947,
,22,나를 데려가줘,6,Green,B,0,0,ScrollDown,ScrollUp,Green.png,3,NonTarget,NonTarget,0,0,0,0,,,,,,,,,,,,,,,,,,,,,0,21,21,21,,,,,,,,,,,,,,,,,,,,,,,,,,,,,,,,,,,,,,,,,,,,,,,,,,,,,,,,,,,,,,,,,,,,,,,,,,,,,1.2160493830839794,0.5982833000016399,286.3413132999849,None,ScrollDown,정답입니다,286.3413132999849,None,286.3413132999849,None,286.3413132999849,None,286.3413132999849,None,286.84530869999435,None,286.84530869999435,287.34535789999063,,,,,,,,,,,,,,,,105,2023-04-19_13h22.18.850,FishGame,2022.1.1,60.08257750078947,
,23,넌 성실해,1,Green,B,6.041666666666666,5.7,ScrollUp,ScrollDown,Green.png,3,Positive,Incongruent,0,0,0,0,,,,,,,,,,,,,,,,,,,,,0,22,22,22,,,,,,,,,,,,,,,,,,,,,,,,,,,,,,,,,,,,,,,,,,,,,,,,,,,,,,,,,,,,,,,,,,,,,,,,,,,,,1.5586419738829136,0.6312883000064176,287.95089539999026,None,ScrollUp,정답입니다,287.95089539999026,None,287.95089539999026,None,287.95089539999026,None,287.95089539999026,None,288.4953664999921,None,288.4953664999921,288.99534230001154,,,,,,,,,,,,,,,,105,2023-04-19_13h22.18.850,FishGame,2022.1.1,60.08257750078947,
,24,넌 현실주의적이야,3,Orange,A,4.625,4.4,ScrollDown,ScrollUp,Orange.png,3,Neutral,Neutral,0,0,0,0,,,,,,,,,,,,,,,,,,,,,0,23,23,23,,,,,,,,,,,,,,,,,,,,,,,,,,,,,,,,,,,,,,,,,,,,,,,,,,,,,,,,,,,,,,,,,,,,,,,,,,,,,1.2716049353281655,0.5794317999971099,289.60421920000226,None,ScrollDown,정답입니다,289.60421920000226,None,289.60421920000226,None,289.60421920000226,None,289.60421920000226,None,290.0929921999923,None,290.0929921999923,290.59300679998705,,,,,,,,,,,,,,,,105,2023-04-19_13h22.18.850,FishGame,2022.1.1,60.08257750078947,
,25,넌 진실돼,1,Orange,A,6.625,5.566666666666666,ScrollDown,ScrollUp,Orange.png,3,Positive,Congruent,0,0,0,0,,,,,,,,,,,,,,,,,,,,,0,24,24,24,,,,,,,,,,,,,,,,,,,,,,,,,,,,,,,,,,,,,,,,,,,,,,,,,,,,,,,,,,,,,,,,,,,,,,,,,,,,,1.2685185074806213,0.8137847000034526,291.2020396000007,None,ScrollDown,정답입니다,291.2020396000007,None,291.2020396000007,None,291.2020396000007,None,291.2020396000007,None,291.9263389999978,None,291.9263389999978,292.42874299999676,,,,,,,,,,,,,,,,105,2023-04-19_13h22.18.850,FishGame,2022.1.1,60.08257750078947,
,26,넌 천진난만해,3,Green,B,4.958333333333334,4.833333333333333,ScrollUp,ScrollDown,Green.png,3,Neutral,Neutral,0,0,0,0,,,,,,,,,,,,,,,,,,,,,0,25,25,25,,,,,,,,,,,,,,,,,,,,,,,,,,,,,,,,,,,,,,,,,,,,,,,,,,,,,,,,,,,,,,,,,,,,,,,,,,,,,1.5092592594834664,0.6169292000122368,293.0387931999867,None,NoResponse,무응답입니다,293.0387931999867,None,293.0387931999867,None,293.0387931999867,None,293.0387931999867,None,293.562069800013,None,293.562069800013,294.0620265000034,,,,,,,,,,,,,,,,105,2023-04-19_13h22.18.850,FishGame,2022.1.1,60.08257750078947,
,27,넌 교양없어,5,Orange,A,2.416666666666667,2.2,ScrollDown,ScrollUp,Orange.png,3,Negative,Incongruent,0,0,0,0,,,,,,,,,,,,,,,,,,,,,0,26,26,26,,,,,,,,,,,,,,,,,,,,,,,,,,,,,,,,,,,,,,,,,,,,,,,,,,,,,,,,,,,,,,,,,,,,,,,,,,,,,1.1697530895471573,0.6974117000063416,294.67860929999733,None,ScrollDown,정답입니다,294.67860929999733,None,294.67860929999733,None,294.67860929999733,None,294.67860929999733,None,295.2762255000125,None,295.2762255000125,295.7762780000048,,,,,,,,,,,,,,,,105,2023-04-19_13h22.18.850,FishGame,2022.1.1,60.08257750078947,
,28,나를 보내줘,6,Orange,A,0,0,ScrollUp,ScrollDown,Orange.png,3,NonTarget,NonTarget,0,0,0,0,,,,,,,,,,,,,,,,,,,,,0,27,27,27,,,,,,,,,,,,,,,,,,,,,,,,,,,,,,,,,,,,,,,,,,,,,,,,,,,,,,,,,,,,,,,,,,,,,,,,,,,,,1.5802469129363694,0.7295491000113543,296.38481799999136,None,ScrollUp,정답입니다,296.38481799999136,None,296.38481799999136,None,296.38481799999136,None,296.38481799999136,None,297.0262220999866,None,297.0262220999866,297.52860359998886,,,,,,,,,,,,,,,,105,2023-04-19_13h22.18.850,FishGame,2022.1.1,60.08257750078947,
,29,넌 엉뚱스러워,3,Orange,A,4.166666666666667,4.133333333333334,ScrollDown,ScrollUp,Orange.png,3,Neutral,Neutral,0,0,0,0,,,,,,,,,,,,,,,,,,,,,0,28,28,28,,,,,,,,,,,,,,,,,,,,,,,,,,,,,,,,,,,,,,,,,,,,,,,,,,,,,,,,,,,,,,,,,,,,,,,,,,,,,1.1450617164373398,0.780242900014855,298.1540849999874,None,ScrollDown,정답입니다,298.1540849999874,None,298.1540849999874,None,298.1540849999874,None,298.1540849999874,None,298.8286614000099,None,298.8286614000099,299.3286645000044,,,,,,,,,,,,,,,,105,2023-04-19_13h22.18.850,FishGame,2022.1.1,60.08257750078947,
,30,넌 무지해,4,Green,B,2.541666666666667,3.066666666666667,ScrollUp,ScrollDown,Green.png,3,Negative,Congruent,0,0,0,0,,,,,,,,,,,,,,,,,,,,,0,29,29,29,,,,,,,,,,,,,,,,,,,,,,,,,,,,,,,,,,,,,,,,,,,,,,,,,,,,,,,,,,,,,,,,,,,,,,,,,,,,,1.5632716032365956,0.7000305999827106,299.9340181000007,None,ScrollUp,정답입니다,299.9340181000007,None,299.9340181000007,None,299.9340181000007,None,299.9340181000007,None,300.5450839000114,None,300.5450839000114,301.04506720000063,,,,,,,,,,,,,,,,105,2023-04-19_13h22.18.850,FishGame,2022.1.1,60.08257750078947,
,31,넌 음울해,5,Green,B,2.25,2.233333333333333,ScrollUp,ScrollDown,Green.png,3,Negative,Congruent,0,0,0,0,,,,,,,,,,,,,,,,,,,,,0,30,30,30,,,,,,,,,,,,,,,,,,,,,,,,,,,,,,,,,,,,,,,,,,,,,,,,,,,,,,,,,,,,,,,,,,,,,,,,,,,,,1.5864197500050068,0.6779311000136659,301.66423570000916,None,ScrollUp,정답입니다,301.66423570000916,None,301.66423570000916,None,301.66423570000916,None,301.66423570000916,None,302.24272370000836,None,302.24272370000836,302.7427445999929,,,,,,,,,,,,,,,,105,2023-04-19_13h22.18.850,FishGame,2022.1.1,60.08257750078947,
,32,넌 냉소적이야,5,Orange,A,2.916666666666667,2.4,ScrollDown,ScrollUp,Orange.png,3,Negative,Incongruent,0,0,0,0,,,,,,,,,,,,,,,,,,,,,0,31,31,31,,,,,,,,,,,,,,,,,,,,,,,,,,,,,,,,,,,,,,,,,,,,,,,,,,,,,,,,,,,,,,,,,,,,,,,,,,,,,1.1388888855775197,0.7139899999892805,303.3512764000043,None,ScrollDown,정답입니다,303.3512764000043,None,303.3512764000043,None,303.3512764000043,None,303.3512764000043,None,303.97606980000273,None,303.97606980000273,304.47845389999566,,,,,,,,,,,,,,,,105,2023-04-19_13h22.18.850,FishGame,2022.1.1,60.08257750078947,
,33,나를 데려가줘,6,Green,B,0,0,ScrollDown,ScrollUp,Green.png,3,NonTarget,NonTarget,0,0,0,0,,,,,,,,,,,,,,,,,,,,,0,32,32,32,,,,,,,,,,,,,,,,,,,,,,,,,,,,,,,,,,,,,,,,,,,,,,,,,,,,,,,,,,,,,,,,,,,,,,,,,,,,,1.3533950621883073,0.7002406999818049,305.08506390001276,None,ScrollDown,정답입니다,305.08506390001276,None,305.08506390001276,None,305.08506390001276,None,305.08506390001276,None,305.69510899999295,None,305.69510899999295,306.1951184000063,,,,,,,,,,,,,,,,105,2023-04-19_13h22.18.850,FishGame,2022.1.1,60.08257750078947,
,34,넌 쾌활해,1,Orange,A,5.541666666666666,5.733333333333333,ScrollDown,ScrollUp,Orange.png,3,Positive,Congruent,0,0,0,0,,,,,,,,,,,,,,,,,,,,,0,33,33,33,,,,,,,,,,,,,,,,,,,,,,,,,,,,,,,,,,,,,,,,,,,,,,,,,,,,,,,,,,,,,,,,,,,,,,,,,,,,,1.1049382785956066,0.7290250000078231,306.8108407999971,None,ScrollDown,정답입니다,306.8108407999971,None,306.8108407999971,None,306.8108407999971,None,306.8108407999971,None,307.4426310999843,None,307.4426310999843,307.9428295000107,,,,,,,,,,,,,,,,105,2023-04-19_13h22.18.850,FishGame,2022.1.1,60.08257750078947,
,35,나를 보내줘,6,Orange,A,0,0,ScrollUp,ScrollDown,Orange.png,3,NonTarget,NonTarget,0,0,0,0,,,,,,,,,,,,,,,,,,,,,0,34,34,34,,,,,,,,,,,,,,,,,,,,,,,,,,,,,,,,,,,,,,,,,,,,,,,,,,,,,,,,,,,,,,,,,,,,,,,,,,,,,1.6404320945342383,0.7657711000065319,308.5495157999976,None,ScrollUp,정답입니다,308.5495157999976,None,308.5495157999976,None,308.5495157999976,None,308.5495157999976,None,309.22598200000357,None,309.22598200000357,309.7261146999954,,,,,,,,,,,,,,,,105,2023-04-19_13h22.18.850,FishGame,2022.1.1,60.08257750078947,
,36,넌 명랑해,1,Green,B,5.739130434782609,5.666666666666667,ScrollUp,ScrollDown,Green.png,3,Positive,Incongruent,0,0,0,0,,,,,,,,,,,,,,,,,,,,,0,35,35,35,,,,,,,,,,,,,,,,,,,,,,,,,,,,,,,,,,,,,,,,,,,,,,,,,,,,,,,,,,,,,,,,,,,,,,,,,,,,,1.6388888930281005,0.7170568000001367,310.33602950000204,None,ScrollUp,정답입니다,310.33602950000204,None,310.33602950000204,None,310.33602950000204,None,310.33602950000204,None,310.96167290001176,None,310.96167290001176,311.46166929998435,,,,,,,,,,,,,,,,105,2023-04-19_13h22.18.850,FishGame,2022.1.1,60.08257750078947,
,37,넌 멍해,4,Orange,A,2.833333333333333,3.4,ScrollDown,ScrollUp,Orange.png,3,Negative,Incongruent,0,0,0,0,,,,,,,,,,,,,,,,,,,,,0,36,36,36,,,,,,,,,,,,,,,,,,,,,,,,,,,,,,,,,,,,,,,,,,,,,,,,,,,,,,,,,,,,,,,,,,,,,,,,,,,,,1.1712963034709294,0.6833894999872427,312.0719194000121,None,ScrollDown,정답입니다,312.0719194000121,None,312.0719194000121,None,312.0719194000121,None,312.0719194000121,None,312.6617544000037,None,312.6617544000037,313.16151860001264,,,,,,,,,,,,,,,,105,2023-04-19_13h22.18.850,FishGame,2022.1.1,60.08257750078947,
,38,나를 데려가줘,6,Green,B,0,0,ScrollDown,ScrollUp,Green.png,3,NonTarget,NonTarget,0,0,0,0,,,,,,,,,,,,,,,,,,,,,0,37,37,37,,,,,,,,,,,,,,,,,,,,,,,,,,,,,,,,,,,,,,,,,,,,,,,,,,,,,,,,,,,,,,,,,,,,,,,,,,,,,1.2314814726511638,0.7334288000129163,313.76742329998524,None,ScrollDown,정답입니다,313.76742329998524,None,313.76742329998524,None,313.76742329998524,None,313.76742329998524,None,314.4115377999842,None,314.4115377999842,314.91147689998616,,,,,,,,,,,,,,,,105,2023-04-19_13h22.18.850,FishGame,2022.1.1,60.08257750078947,
,39,넌 현명해,2,Orange,A,6.541666666666666,4.533333333333333,ScrollDown,ScrollUp,Orange.png,3,Positive,Congruent,0,0,0,0,,,,,,,,,,,,,,,,,,,,,0,38,38,38,,,,,,,,,,,,,,,,,,,,,,,,,,,,,,,,,,,,,,,,,,,,,,,,,,,,,,,,,,,,,,,,,,,,,,,,,,,,,1.1250000099341075,0.6819404999841936,315.5191599999962,None,ScrollDown,정답입니다,315.5191599999962,None,315.5191599999962,None,315.5191599999962,None,315.5191599999962,None,316.11137540001073,None,316.11137540001073,316.6114360000065,,,,,,,,,,,,,,,,105,2023-04-19_13h22.18.850,FishGame,2022.1.1,60.08257750078947,
,40,넌 수줍어,3,Green,B,3.541666666666666,4.366666666666666,ScrollUp,ScrollDown,Green.png,3,Neutral,Neutral,0,0,0,0,,,,,,,,,,,,,,,,,,,,,0,39,39,39,,,,,,,,,,,,,,,,,,,,,,,,,,,,,,,,,,,,,,,,,,,,,,,,,,,,,,,,,,,,,,,,,,,,,,,,,,,,,1.549382715175549,0.6646541000227444,317.21922510000877,None,NoResponse,무응답입니다,317.21922510000877,None,317.21922510000877,None,317.21922510000877,None,317.21922510000877,None,317.79470779999974,None,317.79470779999974,318.2946942000126,,,,,,,,,,,,,,,,105,2023-04-19_13h22.18.850,FishGame,2022.1.1,60.08257750078947,
,41,나를 데려가줘,6,Green,B,0,0,ScrollDown,ScrollUp,Green.png,3,NonTarget,NonTarget,0,0,0,0,,,,,,,,,,,,,,,,,,,,,0,40,40,40,,,,,,,,,,,,,,,,,,,,,,,,,,,,,,,,,,,,,,,,,,,,,,,,,,,,,,,,,,,,,,,,,,,,,,,,,,,,,1.0138889054457347,0.8315096999867819,318.9007922000019,None,ScrollDown,정답입니다,318.9007922000019,None,318.9007922000019,None,318.9007922000019,None,318.9007922000019,None,319.6448115000094,None,319.6448115000094,320.1446647999983,,,,,,,,,,,,,,,,105,2023-04-19_13h22.18.850,FishGame,2022.1.1,60.08257750078947,
,42,넌 성숙해,2,Green,B,5.833333333333333,4.533333333333333,ScrollUp,ScrollDown,Green.png,3,Positive,Incongruent,0,0,0,0,,,,,,,,,,,,,,,,,,,,,0,41,41,41,,,,,,,,,,,,,,,,,,,,,,,,,,,,,,,,,,,,,,,,,,,,,,,,,,,,,,,,,,,,,,,,,,,,,,,,,,,,,1.6419753084580102,0.7642944999970496,320.75026709999656,None,ScrollUp,정답입니다,320.75026709999656,None,320.75026709999656,None,320.75026709999656,None,320.75026709999656,None,321.42568980000215,None,321.42568980000215,321.9256697999954,,,,,,,,,,,,,,,,105,2023-04-19_13h22.18.850,FishGame,2022.1.1,60.08257750078947,
,1,넌 매력적이야,2,Green,B,6.125,4.666666666666667,ScrollUp,ScrollDown,Green.png,4,Positive,Incongruent,0,0,0,0,,,,,,,,,,,,,,,,,,,,,,,,,0,0,0,0,,,,,,,,,,,,,,,,,,,,,,,,,,,,,,,,352.9440251000051,354.4441523999849,354.47748420000426,355.4304856999952,355.4751583999896,356.42744639999,356.42744639999,None,,,,,,,,,,,,,,,,,,,,,,,,,,,,,,,,,,1.6975308607021966,0.8215343000192661,357.5209865999932,None,ScrollUp,정답입니다,357.5209865999932,None,357.5209865999932,None,357.5209865999932,None,357.5209865999932,None,358.24404479999794,None,358.24404479999794,358.7438719999918,322.42581990000326,None,322.42581990000326,None,0.11481482,-0.21203704,1,0,0,0.016204770014155656,None,352.4272813999851,None,,,105,2023-04-19_13h22.18.850,FishGame,2022.1.1,60.08257750078947,
,2,나를 보내줘,6,Orange,A,0,0,ScrollUp,ScrollDown,Orange.png,4,NonTarget,NonTarget,0,0,0,0,,,,,,,,,,,,,,,,,,,,,,,,,0,1,1,1,,,,,,,,,,,,,,,,,,,,,,,,,,,,,,,,,,,,,,,,,,,,,,,,,,,,,,,,,,,,,,,,,,,,,,,,,1.6666666691501937,0.764571400010027,359.3516382999951,None,ScrollUp,정답입니다,359.3516382999951,None,359.3516382999951,None,359.3516382999951,None,359.3516382999951,None,360.0272124999901,None,360.0272124999901,360.52718969999114,,,,,,,,,,,,,,,,105,2023-04-19_13h22.18.850,FishGame,2022.1.1,60.08257750078947,
,3,넌 조심스러워,3,Orange,A,4.791666666666666,4.666666666666667,ScrollDown,ScrollUp,Orange.png,4,Neutral,Neutral,0,0,0,0,,,,,,,,,,,,,,,,,,,,,,,,,0,2,2,2,,,,,,,,,,,,,,,,,,,,,,,,,,,,,,,,,,,,,,,,,,,,,,,,,,,,,,,,,,,,,,,,,,,,,,,,,1.0679012437661488,0.6446267999999691,361.1360046000045,None,ScrollDown,정답입니다,361.1360046000045,None,361.1360046000045,None,361.1360046000045,None,361.1360046000045,None,361.68699529999867,None,361.68699529999867,362.1914942000003,,,,,,,,,,,,,,,,105,2023-04-19_13h22.18.850,FishGame,2022.1.1,60.08257750078947,
,4,넌 철학적이야,3,Green,B,4.5,4.266666666666667,ScrollUp,ScrollDown,Green.png,4,Neutral,Neutral,0,0,0,0,,,,,,,,,,,,,,,,,,,,,,,,,0,3,3,3,,,,,,,,,,,,,,,,,,,,,,,,,,,,,,,,,,,,,,,,,,,,,,,,,,,,,,,,,,,,,,,,,,,,,,,,,1.7376543233791986,0.6999011000152677,362.79881820001174,None,ScrollUp,정답입니다,362.79881820001174,None,362.79881820001174,None,362.79881820001174,None,362.79881820001174,None,363.4081426000048,None,363.4081426000048,363.908230800007,,,,,,,,,,,,,,,,105,2023-04-19_13h22.18.850,FishGame,2022.1.1,60.08257750078947,
,5,넌 쩨쩨해,5,Orange,A,2.375,2.133333333333333,ScrollDown,ScrollUp,Orange.png,4,Negative,Incongruent,0,0,0,0,,,,,,,,,,,,,,,,,,,,,,,,,0,4,4,4,,,,,,,,,,,,,,,,,,,,,,,,,,,,,,,,,,,,,,,,,,,,,,,,,,,,,,,,,,,,,,,,,,,,,,,,,1.180555562178294,0.6837763999938034,364.5207148999907,None,ScrollDown,정답입니다,364.5207148999907,None,364.5207148999907,None,364.5207148999907,None,364.5207148999907,None,365.1106018999999,None,365.1106018999999,365.61053179999,,,,,,,,,,,,,,,,105,2023-04-19_13h22.18.850,FishGame,2022.1.1,60.08257750078947,
,6,나를 데려가줘,6,Green,B,0,0,ScrollDown,ScrollUp,Green.png,4,NonTarget,NonTarget,0,0,0,0,,,,,,,,,,,,,,,,,,,,,,,,,0,5,5,5,,,,,,,,,,,,,,,,,,,,,,,,,,,,,,,,,,,,,,,,,,,,,,,,,,,,,,,,,,,,,,,,,,,,,,,,,1.2037036965290706,0.7000557999999728,366.2168395000044,None,ScrollDown,정답입니다,366.2168395000044,None,366.2168395000044,None,366.2168395000044,None,366.2168395000044,None,366.8271149999928,None,366.8271149999928,367.3270150999888,,,,,,,,,,,,,,,,105,2023-04-19_13h22.18.850,FishGame,2022.1.1,60.08257750078947,
,7,넌 고집불통이야,5,Green,B,2.875,2,ScrollUp,ScrollDown,Green.png,4,Negative,Congruent,0,0,0,0,,,,,,,,,,,,,,,,,,,,,,,,,0,6,6,6,,,,,,,,,,,,,,,,,,,,,,,,,,,,,,,,,,,,,,,,,,,,,,,,,,,,,,,,,,,,,,,,,,,,,,,,,1.67746914178133,0.6666588000080083,367.93688279998605,None,ScrollUp,정답입니다,367.93688279998605,None,367.93688279998605,None,367.93688279998605,None,367.93688279998605,None,368.51031549999607,None,368.51031549999607,369.01038359999075,,,,,,,,,,,,,,,,105,2023-04-19_13h22.18.850,FishGame,2022.1.1,60.08257750078947,
,8,넌 무심해,4,Orange,A,2.875,3.2,ScrollDown,ScrollUp,Orange.png,4,Negative,Incongruent,0,0,0,0,,,,,,,,,,,,,,,,,,,,,,,,,0,7,7,7,,,,,,,,,,,,,,,,,,,,,,,,,,,,,,,,,,,,,,,,,,,,,,,,,,,,,,,,,,,,,,,,,,,,,,,,,1.1527777860562007,0.6630507999798283,369.62143689999357,None,ScrollDown,정답입니다,369.62143689999357,None,369.62143689999357,None,369.62143689999357,None,369.62143689999357,None,370.1937539000064,None,370.1937539000064,370.69368029999896,,,,,,,,,,,,,,,,105,2023-04-19_13h22.18.850,FishGame,2022.1.1,60.08257750078947,
,9,넌 정겨워,1,Orange,A,5.791666666666667,5.666666666666667,ScrollDown,ScrollUp,Orange.png,4,Positive,Congruent,0,0,0,0,,,,,,,,,,,,,,,,,,,,,,,,,0,8,8,8,,,,,,,,,,,,,,,,,,,,,,,,,,,,,,,,,,,,,,,,,,,,,,,,,,,,,,,,,,,,,,,,,,,,,,,,,1.1250000099341075,0.6980451999988873,371.3048375000071,None,ScrollDown,정답입니다,371.3048375000071,None,371.3048375000071,None,371.3048375000071,None,371.3048375000071,None,371.9102946000057,None,371.9102946000057,372.4102256000042,,,,,,,,,,,,,,,,105,2023-04-19_13h22.18.850,FishGame,2022.1.1,60.08257750078947,
,10,나를 데려가줘,6,Green,B,0,0,ScrollDown,ScrollUp,Green.png,4,NonTarget,NonTarget,0,0,0,0,,,,,,,,,,,,,,,,,,,,,,,,,0,9,9,9,,,,,,,,,,,,,,,,,,,,,,,,,,,,,,,,,,,,,,,,,,,,,,,,,,,,,,,,,,,,,,,,,,,,,,,,,1.200617293516795,0.7500472000101581,373.01561480000964,None,ScrollDown,정답입니다,373.01561480000964,None,373.01561480000964,None,373.01561480000964,None,373.01561480000964,None,373.67487769998843,None,373.67487769998843,374.17689239999163,,,,,,,,,,,,,,,,105,2023-04-19_13h22.18.850,FishGame,2022.1.1,60.08257750078947,
,11,넌 체제순응적이야,4,Green,B,3,3.6,ScrollUp,ScrollDown,Green.png,4,Negative,Congruent,0,0,0,0,,,,,,,,,,,,,,,,,,,,,,,,,0,10,10,10,,,,,,,,,,,,,,,,,,,,,,,,,,,,,,,,,,,,,,,,,,,,,,,,,,,,,,,,,,,,,,,,,,,,,,,,,1.632716049750646,0.7147828000015579,374.78890769998543,None,ScrollUp,정답입니다,374.78890769998543,None,374.78890769998543,None,374.78890769998543,None,374.78890769998543,None,375.41021360000013,None,375.41021360000013,375.9102307999856,,,,,,,,,,,,,,,,105,2023-04-19_13h22.18.850,FishGame,2022.1.1,60.08257750078947,
,12,나를 보내줘,6,Orange,A,0,0,ScrollUp,ScrollDown,Orange.png,4,NonTarget,NonTarget,0,0,0,0,,,,,,,,,,,,,,,,,,,,,,,,,0,11,11,11,,,,,,,,,,,,,,,,,,,,,,,,,,,,,,,,,,,,,,,,,,,,,,,,,,,,,,,,,,,,,,,,,,,,,,,,,1.6388888930281005,0.7332975000026636,376.52379209999344,None,ScrollUp,정답입니다,376.52379209999344,None,376.52379209999344,None,376.52379209999344,None,376.52379209999344,None,377.1601307000092,None,377.1601307000092,377.6601857999922,,,,,,,,,,,,,,,,105,2023-04-19_13h22.18.850,FishGame,2022.1.1,60.08257750078947,
,13,넌 박식해,2,Orange,A,5.625,3.933333333333333,ScrollDown,ScrollUp,Orange.png,4,Positive,Congruent,0,0,0,0,,,,,,,,,,,,,,,,,,,,,,,,,0,12,12,12,,,,,,,,,,,,,,,,,,,,,,,,,,,,,,,,,,,,,,,,,,,,,,,,,,,,,,,,,,,,,,,,,,,,,,,,,1.0879629751046498,0.6647307999955956,378.2712666000007,None,ScrollDown,정답입니다,378.2712666000007,None,378.2712666000007,None,378.2712666000007,None,378.2712666000007,None,378.843558499997,None,378.843558499997,379.34674899998936,,,,,,,,,,,,,,,,105,2023-04-19_13h22.18.850,FishGame,2022.1.1,60.08257750078947,
,14,나를 보내줘,6,Orange,A,0,0,ScrollUp,ScrollDown,Orange.png,4,NonTarget,NonTarget,0,0,0,0,,,,,,,,,,,,,,,,,,,,,,,,,0,13,13,13,,,,,,,,,,,,,,,,,,,,,,,,,,,,,,,,,,,,,,,,,,,,,,,,,,,,,,,,,,,,,,,,,,,,,,,,,1.6080246890584626,0.7332840999879409,379.9510336999956,None,ScrollUp,정답입니다,379.9510336999956,None,379.9510336999956,None,379.9510336999956,None,379.9510336999956,None,380.59336150001036,None,380.59336150001036,381.0933675999986,,,,,,,,,,,,,,,,105,2023-04-19_13h22.18.850,FishGame,2022.1.1,60.08257750078947,
,15,넌 침착해,1,Green,B,5.458333333333333,5.566666666666666,ScrollUp,ScrollDown,Green.png,4,Positive,Incongruent,0,0,0,0,,,,,,,,,,,,,,,,,,,,,,,,,0,14,14,14,,,,,,,,,,,,,,,,,,,,,,,,,,,,,,,,,,,,,,,,,,,,,,,,,,,,,,,,,,,,,,,,,,,,,,,,,1.71913580596447,0.6647480000101496,381.7025413000083,None,ScrollUp,정답입니다,381.7025413000083,None,381.7025413000083,None,381.7025413000083,None,381.7025413000083,None,382.27678580000065,None,382.27678580000065,382.77673640000285,,,,,,,,,,,,,,,,105,2023-04-19_13h22.18.850,FishGame,2022.1.1,60.08257750078947,
,16,나를 데려가줘,6,Green,B,0,0,ScrollDown,ScrollUp,Green.png,4,NonTarget,NonTarget,0,0,0,0,,,,,,,,,,,,,,,,,,,,,,,,,0,15,15,15,,,,,,,,,,,,,,,,,,,,,,,,,,,,,,,,,,,,,,,,,,,,,,,,,,,,,,,,,,,,,,,,,,,,,,,,,1.1327160547176998,0.7833774999890011,383.38281439998536,None,ScrollDown,정답입니다,383.38281439998536,None,383.38281439998536,None,383.38281439998536,None,383.38281439998536,None,384.07675340000424,None,384.07675340000424,384.5766334999935,,,,,,,,,,,,,,,,105,2023-04-19_13h22.18.850,FishGame,2022.1.1,60.08257750078947,
,17,넌 행복해,1,Orange,A,6.416666666666666,6.166666666666667,ScrollDown,ScrollUp,Orange.png,4,Positive,Congruent,0,0,0,0,,,,,,,,,,,,,,,,,,,,,,,,,0,16,16,16,,,,,,,,,,,,,,,,,,,,,,,,,,,,,,,,,,,,,,,,,,,,,,,,,,,,,,,,,,,,,,,,,,,,,,,,,1.182098776102066,0.6483809999772348,385.18709570000647,None,ScrollDown,정답입니다,385.18709570000647,None,385.18709570000647,None,385.18709570000647,None,385.18709570000647,None,385.74126449998585,None,385.74126449998585,386.2432467000035,,,,,,,,,,,,,,,,105,2023-04-19_13h22.18.850,FishGame,2022.1.1,60.08257750078947,
,18,넌 겸손해,2,Green,B,5.791666666666667,4.766666666666667,ScrollUp,ScrollDown,Green.png,4,Positive,Incongruent,0,0,0,0,,,,,,,,,,,,,,,,,,,,,,,,,0,17,17,17,,,,,,,,,,,,,,,,,,,,,,,,,,,,,,,,,,,,,,,,,,,,,,,,,,,,,,,,,,,,,,,,,,,,,,,,,1.7376543233791986,0.7648514000175055,386.8519498000096,None,ScrollUp,정답입니다,386.8519498000096,None,386.8519498000096,None,386.8519498000096,None,386.8519498000096,None,387.52459459999227,None,387.52459459999227,388.026646000013,,,,,,,,,,,,,,,,105,2023-04-19_13h22.18.850,FishGame,2022.1.1,60.08257750078947,
,19,나를 보내줘,6,Orange,A,0,0,ScrollUp,ScrollDown,Orange.png,4,NonTarget,NonTarget,0,0,0,0,,,,,,,,,,,,,,,,,,,,,,,,,0,18,18,18,,,,,,,,,,,,,,,,,,,,,,,,,,,,,,,,,,,,,,,,,,,,,,,,,,,,,,,,,,,,,,,,,,,,,,,,,1.702160490055879,0.7452207999886014,388.63275600000634,None,ScrollUp,정답입니다,388.63275600000634,None,388.63275600000634,None,388.63275600000634,None,388.63275600000634,None,389.2864518999995,None,389.2864518999995,389.7909413999878,,,,,,,,,,,,,,,,105,2023-04-19_13h22.18.850,FishGame,2022.1.1,60.08257750078947,
,20,넌 의심없어,3,Orange,A,4.166666666666667,4.6,ScrollDown,ScrollUp,Orange.png,4,Neutral,Neutral,0,0,0,0,,,,,,,,,,,,,,,,,,,,,,,,,0,19,19,19,,,,,,,,,,,,,,,,,,,,,,,,,,,,,,,,,,,,,,,,,,,,,,,,,,,,,,,,,,,,,,,,,,,,,,,,,1.1527777860562007,0.664461400010623,390.39764280000236,None,ScrollDown,정답입니다,390.39764280000236,None,390.39764280000236,None,390.39764280000236,None,390.39764280000236,None,390.9742353000038,None,390.9742353000038,391.4764887999918,,,,,,,,,,,,,,,,105,2023-04-19_13h22.18.850,FishGame,2022.1.1,60.08257750078947,
,21,넌 시시해,4,Orange,A,2.666666666666667,2.966666666666667,ScrollDown,ScrollUp,Orange.png,4,Negative,Incongruent,0,0,0,0,,,,,,,,,,,,,,,,,,,,,,,,,0,20,20,20,,,,,,,,,,,,,,,,,,,,,,,,,,,,,,,,,,,,,,,,,,,,,,,,,,,,,,,,,,,,,,,,,,,,,,,,,1.2206790000200272,0.6859084000170697,392.08214059998863,None,ScrollDown,정답입니다,392.08214059998863,None,392.08214059998863,None,392.08214059998863,None,392.08214059998863,None,392.67675059998874,None,392.67675059998874,393.1766243999882,,,,,,,,,,,,,,,,105,2023-04-19_13h22.18.850,FishGame,2022.1.1,60.08257750078947,
,22,나를 데려가줘,6,Green,B,0,0,ScrollDown,ScrollUp,Green.png,4,NonTarget,NonTarget,0,0,0,0,,,,,,,,,,,,,,,,,,,,,,,,,0,21,21,21,,,,,,,,,,,,,,,,,,,,,,,,,,,,,,,,,,,,,,,,,,,,,,,,,,,,,,,,,,,,,,,,,,,,,,,,,1.1913580348094304,0.7812585000065155,393.7881192000059,None,ScrollDown,정답입니다,393.7881192000059,None,393.7881192000059,None,393.7881192000059,None,393.7881192000059,None,394.4765575999918,None,394.4765575999918,394.9764939000015,,,,,,,,,,,,,,,,105,2023-04-19_13h22.18.850,FishGame,2022.1.1,60.08257750078947,
,23,넌 무정해,5,Orange,A,2.5,2.2,ScrollDown,ScrollUp,Orange.png,4,Negative,Incongruent,0,0,0,0,,,,,,,,,,,,,,,,,,,,,,,,,0,22,22,22,,,,,,,,,,,,,,,,,,,,,,,,,,,,,,,,,,,,,,,,,,,,,,,,,,,,,,,,,,,,,,,,,,,,,,,,,1.09413580596447,0.7482399000145961,395.5841405999963,None,ScrollDown,정답입니다,395.5841405999963,None,395.5841405999963,None,395.5841405999963,None,395.5841405999963,None,396.24317619999056,None,396.24317619999056,396.7431484000117,,,,,,,,,,,,,,,,105,2023-04-19_13h22.18.850,FishGame,2022.1.1,60.08257750078947,
,24,넌 긍정적이야,1,Green,B,6.041666666666667,6.066666666666666,ScrollUp,ScrollDown,Green.png,4,Positive,Incongruent,0,0,0,0,,,,,,,,,,,,,,,,,,,,,,,,,0,23,23,23,,,,,,,,,,,,,,,,,,,,,,,,,,,,,,,,,,,,,,,,,,,,,,,,,,,,,,,,,,,,,,,,,,,,,,,,,1.6867284004886947,0.6815481999947224,397.3517431000073,None,ScrollUp,정답입니다,397.3517431000073,None,397.3517431000073,None,397.3517431000073,None,397.3517431000073,None,397.94100120000076,None,397.94100120000076,398.4430219999922,,,,,,,,,,,,,,,,105,2023-04-19_13h22.18.850,FishGame,2022.1.1,60.08257750078947,
,25,나를 보내줘,6,Orange,A,0,0,ScrollUp,ScrollDown,Orange.png,4,NonTarget,NonTarget,0,0,0,0,,,,,,,,,,,,,,,,,,,,,,,,,0,24,24,24,,,,,,,,,,,,,,,,,,,,,,,,,,,,,,,,,,,,,,,,,,,,,,,,,,,,,,,,,,,,,,,,,,,,,,,,,1.7361111094554267,0.6814158999768551,399.0506658999948,None,ScrollUp,정답입니다,399.0506658999948,None,399.0506658999948,None,399.0506658999948,None,399.0506658999948,None,399.6430936999968,None,399.6430936999968,400.14301400000113,,,,,,,,,,,,,,,,105,2023-04-19_13h22.18.850,FishGame,2022.1.1,60.08257750078947,
,26,넌 시기심이 많아,5,Green,B,2.458333333333333,2.233333333333333,ScrollUp,ScrollDown,Green.png,4,Negative,Congruent,0,0,0,0,,,,,,,,,,,,,,,,,,,,,,,,,0,25,25,25,,,,,,,,,,,,,,,,,,,,,,,,,,,,,,,,,,,,,,,,,,,,,,,,,,,,,,,,,,,,,,,,,,,,,,,,,1.7145061641931534,0.6332546999910846,400.75349209998967,None,ScrollUp,정답입니다,400.75349209998967,None,400.75349209998967,None,400.75349209998967,None,400.75349209998967,None,401.2930766000063,None,401.2930766000063,401.7961709999945,,,,,,,,,,,,,,,,105,2023-04-19_13h22.18.850,FishGame,2022.1.1,60.08257750078947,
,27,넌 탁월해,2,Orange,A,5.708333333333334,4.5,ScrollDown,ScrollUp,Orange.png,4,Positive,Congruent,0,0,0,0,,,,,,,,,,,,,,,,,,,,,,,,,0,26,26,26,,,,,,,,,,,,,,,,,,,,,,,,,,,,,,,,,,,,,,,,,,,,,,,,,,,,,,,,,,,,,,,,,,,,,,,,,1.1033950646718342,0.6480894999986049,402.40412520000245,None,ScrollDown,정답입니다,402.40412520000245,None,402.40412520000245,None,402.40412520000245,None,402.40412520000245,None,402.95757389999926,None,402.95757389999926,403.4595796999929,,,,,,,,,,,,,,,,105,2023-04-19_13h22.18.850,FishGame,2022.1.1,60.08257750078947,
,28,나를 데려가줘,6,Green,B,0,0,ScrollDown,ScrollUp,Green.png,4,NonTarget,NonTarget,0,0,0,0,,,,,,,,,,,,,,,,,,,,,,,,,0,27,27,27,,,,,,,,,,,,,,,,,,,,,,,,,,,,,,,,,,,,,,,,,,,,,,,,,,,,,,,,,,,,,,,,,,,,,,,,,1.194444437821706,0.6334343999915291,404.06560460000765,None,ScrollDown,정답입니다,404.06560460000765,None,404.06560460000765,None,404.06560460000765,None,404.06560460000765,None,404.60959710000316,None,404.60959710000316,405.1096130000078,,,,,,,,,,,,,,,,105,2023-04-19_13h22.18.850,FishGame,2022.1.1,60.08257750078947,
,29,넌 조용해,3,Green,B,4.333333333333333,4.166666666666667,ScrollUp,ScrollDown,Green.png,4,Neutral,Neutral,0,0,0,0,,,,,,,,,,,,,,,,,,,,,,,,,0,28,28,28,,,,,,,,,,,,,,,,,,,,,,,,,,,,,,,,,,,,,,,,,,,,,,,,,,,,,,,,,,,,,,,,,,,,,,,,,1.6851851865649223,0.6813334999897052,405.7180669000081,None,ScrollUp,정답입니다,405.7180669000081,None,405.7180669000081,None,405.7180669000081,None,405.7180669000081,None,406.3096125999873,None,406.3096125999873,406.8128720000095,,,,,,,,,,,,,,,,105,2023-04-19_13h22.18.850,FishGame,2022.1.1,60.08257750078947,
,30,넌 다정해,1,Orange,A,5.833333333333334,5.7,ScrollDown,ScrollUp,Orange.png,4,Positive,Congruent,0,0,0,0,,,,,,,,,,,,,,,,,,,,,,,,,0,29,29,29,,,,,,,,,,,,,,,,,,,,,,,,,,,,,,,,,,,,,,,,,,,,,,,,,,,,,,,,,,,,,,,,,,,,,,,,,1.1712963034709294,0.5980060000147205,407.4190035999927,None,ScrollDown,정답입니다,407.4190035999927,None,407.4190035999927,None,407.4190035999927,None,407.4190035999927,None,407.9241047000105,None,407.9241047000105,408.42618889998994,,,,,,,,,,,,,,,,105,2023-04-19_13h22.18.850,FishGame,2022.1.1,60.08257750078947,
,31,넌 능력있어,2,Green,B,6.166666666666666,4.6,ScrollUp,ScrollDown,Green.png,4,Positive,Incongruent,0,0,0,0,,,,,,,,,,,,,,,,,,,,,,,,,0,30,30,30,,,,,,,,,,,,,,,,,,,,,,,,,,,,,,,,,,,,,,,,,,,,,,,,,,,,,,,,,,,,,,,,,,,,,,,,,1.6450617238879204,0.6499775999982376,409.0335375999857,None,ScrollUp,정답입니다,409.0335375999857,None,409.0335375999857,None,409.0335375999857,None,409.0335375999857,None,409.59286810000776,None,409.59286810000776,410.0928378000099,,,,,,,,,,,,,,,,105,2023-04-19_13h22.18.850,FishGame,2022.1.1,60.08257750078947,
,32,넌 불쾌해,5,Orange,A,2.125,1.933333333333333,ScrollDown,ScrollUp,Orange.png,4,Negative,Incongruent,0,0,0,0,,,,,,,,,,,,,,,,,,,,,,,,,0,31,31,31,,,,,,,,,,,,,,,,,,,,,,,,,,,,,,,,,,,,,,,,,,,,,,,,,,,,,,,,,,,,,,,,,,,,,,,,,1.1172839403152466,0.7145985999959521,410.7009158000001,None,ScrollDown,정답입니다,410.7009158000001,None,410.7009158000001,None,410.7009158000001,None,410.7009158000001,None,411.32604340001126,None,411.32604340001126,411.8260717999947,,,,,,,,,,,,,,,,105,2023-04-19_13h22.18.850,FishGame,2022.1.1,60.08257750078947,
,33,나를 데려가줘,6,Green,B,0,0,ScrollDown,ScrollUp,Green.png,4,NonTarget,NonTarget,0,0,0,0,,,,,,,,,,,,,,,,,,,,,,,,,0,32,32,32,,,,,,,,,,,,,,,,,,,,,,,,,,,,,,,,,,,,,,,,,,,,,,,,,,,,,,,,,,,,,,,,,,,,,,,,,1.0756172637144725,0.7500006999762263,412.43157869999413,None,ScrollDown,정답입니다,412.43157869999413,None,412.43157869999413,None,412.43157869999413,None,412.43157869999413,None,413.0927228000073,None,413.0927228000073,413.5927303000062,,,,,,,,,,,,,,,,105,2023-04-19_13h22.18.850,FishGame,2022.1.1,60.08257750078947,
,34,넌 유순해,3,Orange,A,4.458333333333333,5,ScrollDown,ScrollUp,Orange.png,4,Neutral,Neutral,0,0,0,0,,,,,,,,,,,,,,,,,,,,,,,,,0,33,33,33,,,,,,,,,,,,,,,,,,,,,,,,,,,,,,,,,,,,,,,,,,,,,,,,,,,,,,,,,,,,,,,,,,,,,,,,,1.2098765522241592,0.6646580999949947,414.200611200009,None,ScrollDown,정답입니다,414.200611200009,None,414.200611200009,None,414.200611200009,None,414.200611200009,None,414.776022200007,None,414.776022200007,415.27606549998745,,,,,,,,,,,,,,,,105,2023-04-19_13h22.18.850,FishGame,2022.1.1,60.08257750078947,
,35,넌 근심스러워,4,Green,B,2.708333333333333,3.133333333333333,ScrollUp,ScrollDown,Green.png,4,Negative,Congruent,0,0,0,0,,,,,,,,,,,,,,,,,,,,,,,,,0,34,34,34,,,,,,,,,,,,,,,,,,,,,,,,,,,,,,,,,,,,,,,,,,,,,,,,,,,,,,,,,,,,,,,,,,,,,,,,,1.6944444452722869,0.7273181999917142,415.8849246999889,None,ScrollUp,정답입니다,415.8849246999889,None,415.8849246999889,None,415.8849246999889,None,415.8849246999889,None,416.519106199994,None,416.519106199994,417.0236734999926,,,,,,,,,,,,,,,,105,2023-04-19_13h22.18.850,FishGame,2022.1.1,60.08257750078947,
,36,넌 세련되었어,2,Orange,A,5.5,4.6,ScrollDown,ScrollUp,Orange.png,4,Positive,Congruent,0,0,0,0,,,,,,,,,,,,,,,,,,,,,,,,,0,35,35,35,,,,,,,,,,,,,,,,,,,,,,,,,,,,,,,,,,,,,,,,,,,,,,,,,,,,,,,,,,,,,,,,,,,,,,,,,1.0848765472571056,0.6811391999945045,417.6365947999875,None,ScrollDown,정답입니다,417.6365947999875,None,417.6365947999875,None,417.6365947999875,None,417.6365947999875,None,418.22367239999585,None,418.22367239999585,418.7238592999929,,,,,,,,,,,,,,,,105,2023-04-19_13h22.18.850,FishGame,2022.1.1,60.08257750078947,
,37,나를 보내줘,6,Orange,A,0,0,ScrollUp,ScrollDown,Orange.png,4,NonTarget,NonTarget,0,0,0,0,,,,,,,,,,,,,,,,,,,,,,,,,0,36,36,36,,,,,,,,,,,,,,,,,,,,,,,,,,,,,,,,,,,,,,,,,,,,,,,,,,,,,,,,,,,,,,,,,,,,,,,,,1.7530864129463832,0.7831522999913432,419.33419789999607,None,ScrollUp,정답입니다,419.33419789999607,None,419.33419789999607,None,419.33419789999607,None,419.33419789999607,None,420.0261657999945,None,420.0261657999945,420.52606110001216,,,,,,,,,,,,,,,,105,2023-04-19_13h22.18.850,FishGame,2022.1.1,60.08257750078947,
,38,넌 확고해,3,Green,B,4.708333333333334,4.566666666666666,ScrollUp,ScrollDown,Green.png,4,Neutral,Neutral,0,0,0,0,,,,,,,,,,,,,,,,,,,,,,,,,0,37,37,37,,,,,,,,,,,,,,,,,,,,,,,,,,,,,,,,,,,,,,,,,,,,,,,,,,,,,,,,,,,,,,,,,,,,,,,,,1.7608024577299755,0.7445054000127129,421.14288379999925,None,ScrollUp,정답입니다,421.14288379999925,None,421.14288379999925,None,421.14288379999925,None,421.14288379999925,None,421.790264100011,None,421.790264100011,422.2902402000036,,,,,,,,,,,,,,,,105,2023-04-19_13h22.18.850,FishGame,2022.1.1,60.08257750078947,
,39,넌 이해심이 많아,1,Green,B,6.041666666666668,5.533333333333333,ScrollUp,ScrollDown,Green.png,4,Positive,Incongruent,0,0,0,0,,,,,,,,,,,,,,,,,,,,,,,,,0,38,38,38,,,,,,,,,,,,,,,,,,,,,,,,,,,,,,,,,,,,,,,,,,,,,,,,,,,,,,,,,,,,,,,,,,,,,,,,,1.7484567960103354,0.6998015999852214,422.8947079000063,None,ScrollUp,정답입니다,422.8947079000063,None,422.8947079000063,None,422.8947079000063,None,422.8947079000063,None,423.5069463000109,None,423.5069463000109,424.0093449999986,,,,,,,,,,,,,,,,105,2023-04-19_13h22.18.850,FishGame,2022.1.1,60.08257750078947,
,40,나를 보내줘,6,Orange,A,0,0,ScrollUp,ScrollDown,Orange.png,4,NonTarget,NonTarget,0,0,0,0,,,,,,,,,,,,,,,,,,,,,,,,,0,39,39,39,,,,,,,,,,,,,,,,,,,,,,,,,,,,,,,,,,,,,,,,,,,,,,,,,,,,,,,,,,,,,,,,,,,,,,,,,1.679012343287468,0.750402200006647,424.61734180001076,None,ScrollUp,정답입니다,424.61734180001076,None,424.61734180001076,None,424.61734180001076,None,424.61734180001076,None,425.2760225000093,None,425.2760225000093,425.7790329999989,,,,,,,,,,,,,,,,105,2023-04-19_13h22.18.850,FishGame,2022.1.1,60.08257750078947,
,41,넌 거칠어,4,Orange,A,2.625,3.033333333333333,ScrollDown,ScrollUp,Orange.png,4,Negative,Incongruent,0,0,0,0,,,,,,,,,,,,,,,,,,,,,,,,,0,40,40,40,,,,,,,,,,,,,,,,,,,,,,,,,,,,,,,,,,,,,,,,,,,,,,,,,,,,,,,,,,,,,,,,,,,,,,,,,1.192901223897934,0.6666268999979366,426.3861617000075,None,ScrollDown,정답입니다,426.3861617000075,None,426.3861617000075,None,426.3861617000075,None,426.3861617000075,None,426.9593149999855,None,426.9593149999855,427.45913100001053,,,,,,,,,,,,,,,,105,2023-04-19_13h22.18.850,FishGame,2022.1.1,60.08257750078947,
,42,넌 변덕맞아,5,Green,B,2.75,2.166666666666667,ScrollUp,ScrollDown,Green.png,4,Negative,Congruent,0,0,0,0,,,,,,,,,,,,,,,,,,,,,,,,,0,41,41,41,,,,,,,,,,,,,,,,,,,,,,,,,,,,,,,,,,,,,,,,,,,,,,,,,,,,,,,,,,,,,,,,,,,,,,,,,1.7145061641931534,0.6648658000049181,428.0764766999928,None,ScrollUp,정답입니다,428.0764766999928,None,428.0764766999928,None,428.0764766999928,None,428.0764766999928,None,428.64241400000174,None,428.64241400000174,429.14240360000986,,,,,,,,,,,,,,,,105,2023-04-19_13h22.18.850,FishGame,2022.1.1,60.08257750078947,
,43,나를 데려가줘,6,Green,B,0,0,ScrollDown,ScrollUp,Green.png,4,NonTarget,NonTarget,0,0,0,0,,,,,,,,,,,,,,,,,,,,,,,,,0,42,42,42,,,,,,,,,,,,,,,,,,,,,,,,,,,,,,,,,,,,,,,,,,,,,,,,,,,,,,,,,,,,,,,,,,,,,,,,,1,0.9150956000084989,429.74820120001095,None,ScrollDown,정답입니다,429.74820120001095,None,429.74820120001095,None,429.74820120001095,None,429.74820120001095,None,430.5758341999899,None,430.5758341999899,431.0757501999906,,,,,,,,,,,,,,,,105,2023-04-19_13h22.18.850,FishGame,2022.1.1,60.08257750078947,
,44,넌 외로워,4,Green,B,2.833333333333333,3.3,ScrollUp,ScrollDown,Green.png,4,Negative,Congruent,0,0,0,0,,,,,,,,,,,,,,,,,,,,,,,,,0,43,43,43,,,,,,,,,,,,,,,,,,,,,,,,,,,,,,,,,,,,,,,,,,,,,,,,,,,,,,,,,,,,,,,,,,,,,,,,,1.6496913532416024,0.7285240000055637,431.68670299998485,None,ScrollUp,정답입니다,431.68670299998485,None,431.68670299998485,None,431.68670299998485,None,431.68670299998485,None,432.325668400008,None,432.325668400008,432.82566410000436,,,,,,,,,,,,,,,,105,2023-04-19_13h22.18.850,FishGame,2022.1.1,60.08257750078947,
,1,넌 불평스러워,5,Orange,A,2.25,2.066666666666667,ScrollDown,ScrollUp,Orange.png,5,Negative,Incongruent,0,0,0,0,,,,,,,,,,,,,,,,,,,,,,,,,,,,,0,0,0,0,,,,,,,,,,,,,,,,,,,,,,,,,,,,463.7750240000023,465.27520269999513,465.3085158999893,466.2584807999956,466.30850849999115,467.2584918999928,467.2584918999928,None,,,,,,,,,,,,,,,,,,,,,,,,,,,,,,,,,,1,0.7570355999923777,468.3414535000047,None,ScrollDown,정답입니다,468.3414535000047,None,468.3414535000047,None,468.3414535000047,None,468.3414535000047,None,469.0059455999872,None,469.0059455999872,469.5061141999904,433.3256512999942,None,433.3256512999942,None,0.13425925,-0.21574074,1,0,0,0.016276170033961535,None,463.3249390000128,None,,,105,2023-04-19_13h22.18.850,FishGame,2022.1.1,60.08257750078947,
,2,나를 보내줘,6,Orange,A,0,0,ScrollUp,ScrollDown,Orange.png,5,NonTarget,NonTarget,0,0,0,0,,,,,,,,,,,,,,,,,,,,,,,,,,,,,0,1,1,1,,,,,,,,,,,,,,,,,,,,,,,,,,,,,,,,,,,,,,,,,,,,,,,,,,,,,,,,,,,,,,,,,,,,,1.7484567960103354,0.7645191999909002,470.1116752999951,None,ScrollUp,정답입니다,470.1116752999951,None,470.1116752999951,None,470.1116752999951,None,470.1116752999951,None,470.7893010000116,None,470.7893010000116,471.2893794999982,,,,,,,,,,,,,,,,105,2023-04-19_13h22.18.850,FishGame,2022.1.1,60.08257750078947,
,3,넌 다재다능해,2,Green,B,6.208333333333333,4.5,ScrollUp,ScrollDown,Green.png,5,Positive,Incongruent,0,0,0,0,,,,,,,,,,,,,,,,,,,,,,,,,,,,,0,2,2,2,,,,,,,,,,,,,,,,,,,,,,,,,,,,,,,,,,,,,,,,,,,,,,,,,,,,,,,,,,,,,,,,,,,,,1.7361111094554267,0.6650127999891993,471.89762730000075,None,ScrollUp,정답입니다,471.89762730000075,None,471.89762730000075,None,471.89762730000075,None,471.89762730000075,None,472.4751111000078,None,472.4751111000078,472.9749761999992,,,,,,,,,,,,,,,,105,2023-04-19_13h22.18.850,FishGame,2022.1.1,60.08257750078947,
,4,넌 과감해,3,Orange,A,4.833333333333334,4.6,ScrollDown,ScrollUp,Orange.png,5,Neutral,Neutral,0,0,0,0,,,,,,,,,,,,,,,,,,,,,,,,,,,,,0,3,3,3,,,,,,,,,,,,,,,,,,,,,,,,,,,,,,,,,,,,,,,,,,,,,,,,,,,,,,,,,,,,,,,,,,,,,1.0108024775981903,0.781246700003976,473.58849819999887,None,ScrollDown,정답입니다,473.58849819999887,None,473.58849819999887,None,473.58849819999887,None,473.58849819999887,None,474.27485849999357,None,474.27485849999357,474.7748345999862,,,,,,,,,,,,,,,,105,2023-04-19_13h22.18.850,FishGame,2022.1.1,60.08257750078947,
,5,넌 고분고분해,3,Green,B,3.75,4.033333333333333,ScrollUp,ScrollDown,Green.png,5,Neutral,Neutral,0,0,0,0,,,,,,,,,,,,,,,,,,,,,,,,,,,,,0,4,4,4,,,,,,,,,,,,,,,,,,,,,,,,,,,,,,,,,,,,,,,,,,,,,,,,,,,,,,,,,,,,,,,,,,,,,1.6913580298423767,0.6795043000020087,475.38353630001075,None,ScrollUp,정답입니다,475.38353630001075,None,475.38353630001075,None,475.38353630001075,None,475.38353630001075,None,475.9727026000037,None,475.9727026000037,476.47474559998955,,,,,,,,,,,,,,,,105,2023-04-19_13h22.18.850,FishGame,2022.1.1,60.08257750078947,
,6,나를 보내줘,6,Orange,A,0,0,ScrollUp,ScrollDown,Orange.png,5,NonTarget,NonTarget,0,0,0,0,,,,,,,,,,,,,,,,,,,,,,,,,,,,,0,5,5,5,,,,,,,,,,,,,,,,,,,,,,,,,,,,,,,,,,,,,,,,,,,,,,,,,,,,,,,,,,,,,,,,,,,,,1.6697530845801034,0.7315850000013597,477.08197060000384,None,ScrollUp,정답입니다,477.08197060000384,None,477.08197060000384,None,477.08197060000384,None,477.08197060000384,None,477.72471660000156,None,477.72471660000156,478.224707699992,,,,,,,,,,,,,,,,105,2023-04-19_13h22.18.850,FishGame,2022.1.1,60.08257750078947,
,7,넌 잘 잊어,4,Orange,A,3,3.7,ScrollDown,ScrollUp,Orange.png,5,Negative,Incongruent,0,0,0,0,,,,,,,,,,,,,,,,,,,,,,,,,,,,,0,6,6,6,,,,,,,,,,,,,,,,,,,,,,,,,,,,,,,,,,,,,,,,,,,,,,,,,,,,,,,,,,,,,,,,,,,,,1.1512345721324284,0.7164022999932058,478.8366290999984,None,ScrollDown,정답입니다,478.8366290999984,None,478.8366290999984,None,478.8366290999984,None,478.8366290999984,None,479.4580844999873,None,479.4580844999873,479.95806629999424,,,,,,,,,,,,,,,,105,2023-04-19_13h22.18.850,FishGame,2022.1.1,60.08257750078947,
,8,넌 탐구심이없어,4,Green,B,2.833333333333333,3.066666666666667,ScrollUp,ScrollDown,Green.png,5,Negative,Congruent,0,0,0,0,,,,,,,,,,,,,,,,,,,,,,,,,,,,,0,7,7,7,,,,,,,,,,,,,,,,,,,,,,,,,,,,,,,,,,,,,,,,,,,,,,,,,,,,,,,,,,,,,,,,,,,,,1.6126543184121451,0.6879906000103801,480.5680438000127,None,ScrollUp,정답입니다,480.5680438000127,None,480.5680438000127,None,480.5680438000127,None,480.5680438000127,None,481.1678879999963,None,481.1678879999963,481.67237580000074,,,,,,,,,,,,,,,,105,2023-04-19_13h22.18.850,FishGame,2022.1.1,60.08257750078947,
,9,나를 데려가줘,6,Green,B,0,0,ScrollDown,ScrollUp,Green.png,5,NonTarget,NonTarget,0,0,0,0,,,,,,,,,,,,,,,,,,,,,,,,,,,,,0,8,8,8,,,,,,,,,,,,,,,,,,,,,,,,,,,,,,,,,,,,,,,,,,,,,,,,,,,,,,,,,,,,,,,,,,,,,1.0848765472571056,0.6476077999977861,482.27905280000414,None,ScrollDown,정답입니다,482.27905280000414,None,482.27905280000414,None,482.27905280000414,None,482.27905280000414,None,482.83897869999055,None,482.83897869999055,483.3413375999953,,,,,,,,,,,,,,,,105,2023-04-19_13h22.18.850,FishGame,2022.1.1,60.08257750078947,
,10,넌 참되어,2,Orange,A,6.041666666666664,4.733333333333333,ScrollDown,ScrollUp,Orange.png,5,Positive,Congruent,0,0,0,0,,,,,,,,,,,,,,,,,,,,,,,,,,,,,0,9,9,9,,,,,,,,,,,,,,,,,,,,,,,,,,,,,,,,,,,,,,,,,,,,,,,,,,,,,,,,,,,,,,,,,,,,,1.1296296268701553,0.6160230000095908,483.9521326000104,None,ScrollDown,정답입니다,483.9521326000104,None,483.9521326000104,None,483.9521326000104,None,483.9521326000104,None,484.47476209999877,None,484.47476209999877,484.974738799996,,,,,,,,,,,,,,,,105,2023-04-19_13h22.18.850,FishGame,2022.1.1,60.08257750078947,
,11,넌 생기있어,1,Green,B,5.875,5.633333333333334,ScrollUp,ScrollDown,Green.png,5,Positive,Incongruent,0,0,0,0,,,,,,,,,,,,,,,,,,,,,,,,,,,,,0,10,10,10,,,,,,,,,,,,,,,,,,,,,,,,,,,,,,,,,,,,,,,,,,,,,,,,,,,,,,,,,,,,,,,,,,,,,1.6435185223817825,0.6481184000149369,485.58245539999916,None,ScrollUp,정답입니다,485.58245539999916,None,485.58245539999916,None,485.58245539999916,None,485.58245539999916,None,486.1412573000125,None,486.1412573000125,486.6412149000098,,,,,,,,,,,,,,,,105,2023-04-19_13h22.18.850,FishGame,2022.1.1,60.08257750078947,
,12,넌 비사교적이야,4,Green,B,2.875,2.9,ScrollUp,ScrollDown,Green.png,5,Negative,Congruent,0,0,0,0,,,,,,,,,,,,,,,,,,,,,,,,,,,,,0,11,11,11,,,,,,,,,,,,,,,,,,,,,,,,,,,,,,,,,,,,,,,,,,,,,,,,,,,,,,,,,,,,,,,,,,,,,1.652777781089147,0.7647069999948144,487.24731070001144,None,ScrollUp,정답입니다,487.24731070001144,None,487.24731070001144,None,487.24731070001144,None,487.24731070001144,None,487.9246397000097,None,487.9246397000097,488.42460110000684,,,,,,,,,,,,,,,,105,2023-04-19_13h22.18.850,FishGame,2022.1.1,60.08257750078947,
,13,나를 데려가줘,6,Green,B,0,0,ScrollDown,ScrollUp,Green.png,5,NonTarget,NonTarget,0,0,0,0,,,,,,,,,,,,,,,,,,,,,,,,,,,,,0,12,12,12,,,,,,,,,,,,,,,,,,,,,,,,,,,,,,,,,,,,,,,,,,,,,,,,,,,,,,,,,,,,,,,,,,,,,1.0740740497907002,0.9113405000243802,489.0389834000089,None,ScrollDown,정답입니다,489.0389834000089,None,489.0389834000089,None,489.0389834000089,None,489.0389834000089,None,489.8555100999947,None,489.8555100999947,490.3556375000044,,,,,,,,,,,,,,,,105,2023-04-19_13h22.18.850,FishGame,2022.1.1,60.08257750078947,
,14,넌 고독해,4,Orange,A,2.916666666666667,3.233333333333333,ScrollDown,ScrollUp,Orange.png,5,Negative,Incongruent,0,0,0,0,,,,,,,,,,,,,,,,,,,,,,,,,,,,,0,13,13,13,,,,,,,,,,,,,,,,,,,,,,,,,,,,,,,,,,,,,,,,,,,,,,,,,,,,,,,,,,,,,,,,,,,,,1.0370370149612427,0.6831243999768049,490.96294430000125,None,ScrollDown,정답입니다,490.96294430000125,None,490.96294430000125,None,490.96294430000125,None,490.96294430000125,None,491.5555303999863,None,491.5555303999863,492.0579091999971,,,,,,,,,,,,,,,,105,2023-04-19_13h22.18.850,FishGame,2022.1.1,60.08257750078947,
,15,넌 신경질적이야,5,Green,B,2.375,2.233333333333333,ScrollUp,ScrollDown,Green.png,5,Negative,Congruent,0,0,0,0,,,,,,,,,,,,,,,,,,,,,,,,,,,,,0,14,14,14,,,,,,,,,,,,,,,,,,,,,,,,,,,,,,,,,,,,,,,,,,,,,,,,,,,,,,,,,,,,,,,,,,,,,1.6913580298423767,0.7149550000031013,492.6684178999858,None,ScrollUp,정답입니다,492.6684178999858,None,492.6684178999858,None,492.6684178999858,None,492.6684178999858,None,493.2913109000074,None,493.2913109000074,493.791198299994,,,,,,,,,,,,,,,,105,2023-04-19_13h22.18.850,FishGame,2022.1.1,60.08257750078947,
,16,넌 똑똑해,2,Green,B,5.666666666666667,3.966666666666667,ScrollUp,ScrollDown,Green.png,5,Positive,Incongruent,0,0,0,0,,,,,,,,,,,,,,,,,,,,,,,,,,,,,0,15,15,15,,,,,,,,,,,,,,,,,,,,,,,,,,,,,,,,,,,,,,,,,,,,,,,,,,,,,,,,,,,,,,,,,,,,,1.751543199022611,0.7815594999992754,494.4042816000001,None,ScrollUp,정답입니다,494.4042816000001,None,494.4042816000001,None,494.4042816000001,None,494.4042816000001,None,495.09104130000924,None,495.09104130000924,495.5910543999926,,,,,,,,,,,,,,,,105,2023-04-19_13h22.18.850,FishGame,2022.1.1,60.08257750078947,
,17,나를 보내줘,6,Orange,A,0,0,ScrollUp,ScrollDown,Orange.png,5,NonTarget,NonTarget,0,0,0,0,,,,,,,,,,,,,,,,,,,,,,,,,,,,,0,16,16,16,,,,,,,,,,,,,,,,,,,,,,,,,,,,,,,,,,,,,,,,,,,,,,,,,,,,,,,,,,,,,,,,,,,,,1.703703703979651,0.7832296999986283,496.19900469999993,None,ScrollUp,정답입니다,496.19900469999993,None,496.19900469999993,None,496.19900469999993,None,496.19900469999993,None,496.89099379998515,None,496.89099379998515,497.3909810000041,,,,,,,,,,,,,,,,105,2023-04-19_13h22.18.850,FishGame,2022.1.1,60.08257750078947,
,18,넌 협조적이야,1,Orange,A,5.625,5.666666666666667,ScrollDown,ScrollUp,Orange.png,5,Positive,Congruent,0,0,0,0,,,,,,,,,,,,,,,,,,,,,,,,,,,,,0,17,17,17,,,,,,,,,,,,,,,,,,,,,,,,,,,,,,,,,,,,,,,,,,,,,,,,,,,,,,,,,,,,,,,,,,,,,1.0123456915219624,0.7498845999944024,497.999023100012,None,ScrollDown,정답입니다,497.999023100012,None,497.999023100012,None,497.999023100012,None,497.999023100012,None,498.6555776000023,None,498.6555776000023,499.1576262000017,,,,,,,,,,,,,,,,105,2023-04-19_13h22.18.850,FishGame,2022.1.1,60.08257750078947,
,19,나를 데려가줘,6,Green,B,0,0,ScrollDown,ScrollUp,Green.png,5,NonTarget,NonTarget,0,0,0,0,,,,,,,,,,,,,,,,,,,,,,,,,,,,,0,18,18,18,,,,,,,,,,,,,,,,,,,,,,,,,,,,,,,,,,,,,,,,,,,,,,,,,,,,,,,,,,,,,,,,,,,,,1.0493827263514202,0.7646894000063185,499.76330930000404,None,ScrollDown,정답입니다,499.76330930000404,None,499.76330930000404,None,499.76330930000404,None,499.76330930000404,None,500.44103929999983,None,500.44103929999983,500.9409591000003,,,,,,,,,,,,,,,,105,2023-04-19_13h22.18.850,FishGame,2022.1.1,60.08257750078947,
,20,넌 몰인정해,5,Green,B,2.541666666666667,2.066666666666667,ScrollUp,ScrollDown,Green.png,5,Negative,Congruent,0,0,0,0,,,,,,,,,,,,,,,,,,,,,,,,,,,,,0,19,19,19,,,,,,,,,,,,,,,,,,,,,,,,,,,,,,,,,,,,,,,,,,,,,,,,,,,,,,,,,,,,,,,,,,,,,1.7592592686414719,0.6999256999988575,501.55458440000075,None,ScrollUp,정답입니다,501.55458440000075,None,501.55458440000075,None,501.55458440000075,None,501.55458440000075,None,502.1575795999961,None,502.1575795999961,502.6575247999863,,,,,,,,,,,,,,,,105,2023-04-19_13h22.18.850,FishGame,2022.1.1,60.08257750078947,
,21,나를 데려가줘,6,Green,B,0,0,ScrollDown,ScrollUp,Green.png,5,NonTarget,NonTarget,0,0,0,0,,,,,,,,,,,,,,,,,,,,,,,,,,,,,0,20,20,20,,,,,,,,,,,,,,,,,,,,,,,,,,,,,,,,,,,,,,,,,,,,,,,,,,,,,,,,,,,,,,,,,,,,,1.0725308855374653,0.7499668999807909,503.2631223000062,None,ScrollDown,정답입니다,503.2631223000062,None,503.2631223000062,None,503.2631223000062,None,503.2631223000062,None,503.9242832000018,None,503.9242832000018,504.42421170001035,,,,,,,,,,,,,,,,105,2023-04-19_13h22.18.850,FishGame,2022.1.1,60.08257750078947,
