name,TrialNum,Word,WordCategory,FishType,WordList,WordValence,WordReputation,CorrectResp,IncorrectResp,FishTypeFile,Round,WordType,Condition,LoopforOrange.thisRepN,LoopforOrange.thisTrialN,LoopforOrange.thisN,LoopforOrange.thisIndex,LoopForGreen.thisRepN,LoopForGreen.thisTrialN,LoopForGreen.thisN,LoopForGreen.thisIndex,GreenInstLoop.thisRepN,GreenInstLoop.thisTrialN,GreenInstLoop.thisN,GreenInstLoop.thisIndex,GreenPrac.thisRepN,GreenPrac.thisTrialN,GreenPrac.thisN,GreenPrac.thisIndex,trials_2.thisRepN,trials_2.thisTrialN,trials_2.thisN,trials_2.thisIndex,GreenRound1.thisRepN,GreenRound1.thisTrialN,GreenRound1.thisN,GreenRound1.thisIndex,GreenRound2.thisRepN,GreenRound2.thisTrialN,GreenRound2.thisN,GreenRound2.thisIndex,GreenRound3.thisRepN,GreenRound3.thisTrialN,GreenRound3.thisN,GreenRound3.thisIndex,GreenRound4.thisRepN,GreenRound4.thisTrialN,GreenRound4.thisN,GreenRound4.thisIndex,GreenRound5.thisRepN,GreenRound5.thisTrialN,GreenRound5.thisN,GreenRound5.thisIndex,text_2.started,text_2.stopped,text_3.started,text_3.stopped,key_resp.keys,key_resp.rt,key_resp.started,key_resp.stopped,PassI.started,PassI.stopped,PassInst.keys,PassInst.rt,PassInst.started,PassInst.stopped,mouse_2.x,mouse_2.y,mouse_2.leftButton,mouse_2.midButton,mouse_2.rightButton,mouse_2.started,mouse_2.stopped,image.started,image.stopped,text_5.started,text_5.stopped,text_6.started,text_6.stopped,text_7.started,text_7.stopped,text_8.started,text_8.stopped,slider_3.response,slider_3.rt,slider_3.started,slider_3.stopped,Response_3,Feedback_3,BackGround_3.started,BackGround_3.stopped,Fish_3.started,Fish_3.stopped,WordBox_3.started,WordBox_3.stopped,Words_3.started,Words_3.stopped,BackGround_Feedback_3.started,BackGround_Feedback_3.stopped,Feedbacks_3.started,Feedbacks_3.stopped,Continue_or_not_2.keys,Continue_or_not_2.rt,Continue_or_not_2.started,Continue_or_not_2.stopped,image_4.started,image_4.stopped,mouse_3.x,mouse_3.y,mouse_3.leftButton,mouse_3.midButton,mouse_3.rightButton,mouse_3.started,mouse_3.stopped,startmain.started,startmain.stopped,slider_4.response,slider_4.rt,slider_4.started,slider_4.stopped,Response_4,Feedback_4,BackGround_4.started,BackGround_4.stopped,Fish_4.started,Fish_4.stopped,WordBox_4.started,WordBox_4.stopped,Words_4.started,Words_4.stopped,BackGround_Feedback_4.started,BackGround_Feedback_4.stopped,Feedbacks_4.started,Feedbacks_4.stopped,text.started,text.stopped,break_interval.started,break_interval.stopped,mouse.x,mouse.y,mouse.leftButton,mouse.midButton,mouse.rightButton,mouse.started,mouse.stopped,stratnextround.started,stratnextround.stopped,endgame.started,endgame.stopped,participant,date,expName,psychopyVersion,frameRate,
,,,,,,,,,,,,,,,,,,,,,,,,,,,,,,,,,,,,,,,,,,,,,,,,,,,,,,166.7647580000339,None,166.7647580000339,None,space,0.2123171000275761,167.25390100001823,None,,,,,,,,,,,,,,,,,,,,,,,,,,,,,,,,,,,,,,,,,,,,,,,,,,,,,,,,,,,,,,,,,,,,,,,,,,,,,,,,,,,,,,,,,,106,2023-04-26_10h13.03.573,FishGame,2022.1.1,59.14734370262377,
물고기과제_instruction(참가자용)GreenVersion.mp4,,,,,,,,,,,,,,,,,,0,0,0,0,0,0,0,0,,,,,,,,,,,,,,,,,,,,,,,,,,,,,,,,,,,,,240.31918640004005,None,n,1.8414662999566644,240.31918640004005,None,,,,,,,,,,,,,,,,,,,,,,,,,,,,,,,,,,,,,,,,,,,,,,,,,,,,,,,,,,,,,,,,,,,,,,,,,,,,,,,,,,,,106,2023-04-26_10h13.03.573,FishGame,2022.1.1,59.14734370262377,
,1,넌 교활해,5,Orange,B,2.333333333333333,2.133333333333333,ScrollUp,ScrollDown,Orange.png,practice,,,,,,,0,0,0,0,,,,,0,0,0,0,0,0,0,0,,,,,,,,,,,,,,,,,,,,,,,,,,,,,,,,,,,0.028703704,-0.21944444,1,0,0,0.5143284799996763,None,242.18229700007942,None,244.79889970005024,246.29912530002184,246.33246200007852,247.28240720008034,247.33242109999992,248.2824156000279,248.2824156000279,None,1.614197532335917,1.131576900021173,249.5501420000801,None,ScrollUp,정답입니다,249.5501420000801,None,249.5501420000801,None,249.5501420000801,None,249.5501420000801,None,250.4004059000872,None,250.4004059000872,250.9021156000672,,,,,,,,,,,,,,,,,,,,,,,,,,,,,,,,,,,,,,,,,,,,,,,,,106,2023-04-26_10h13.03.573,FishGame,2022.1.1,59.14734370262377,
,2,넌 슬기로워,2,Green,A,6.166666666666667,4.1,ScrollDown,ScrollUp,Green.png,practice,,,,,,,0,0,0,0,,,,,0,0,0,0,0,1,1,1,,,,,,,,,,,,,,,,,,,,,,,,,,,,,,,,,,,,,,,,,,,,,,,,,,,,1.0910493781169255,0.8980517000891268,251.5205324999988,None,ScrollDown,정답입니다,251.5205324999988,None,251.5205324999988,None,251.5205324999988,None,251.5205324999988,None,252.33212170004845,None,252.33212170004845,252.83209640008863,,,,,,,,,,,,,,,,,,,,,,,,,,,,,,,,,,,,,,,,,,,,,,,,,106,2023-04-26_10h13.03.573,FishGame,2022.1.1,59.14734370262377,
,3,나를 보내줘,6,Green,A,0,0,ScrollUp,ScrollDown,Green.png,practice,,,,,,,0,0,0,0,,,,,0,0,0,0,0,2,2,2,,,,,,,,,,,,,,,,,,,,,,,,,,,,,,,,,,,,,,,,,,,,,,,,,,,,1.5555555584530034,0.8940962000051513,253.4400361001026,None,ScrollUp,정답입니다,253.4400361001026,None,253.4400361001026,None,253.4400361001026,None,253.4400361001026,None,254.23003700003028,None,254.23003700003028,254.73214700003155,,,,,,,,,,,,,,,,,,,,,,,,,,,,,,,,,,,,,,,,,,,,,,,,,106,2023-04-26_10h13.03.573,FishGame,2022.1.1,59.14734370262377,
,4,나를 데려가줘,6,Orange,B,0,0,ScrollDown,ScrollUp,Orange.png,practice,,,,,,,0,0,0,0,,,,,0,0,0,0,0,3,3,3,,,,,,,,,,,,,,,,,,,,,,,,,,,,,,,,,,,,,,,,,,,,,,,,,,,,1.2422839452823002,1.4471562000690028,255.3419803000288,None,ScrollDown,정답입니다,255.3419803000288,None,255.3419803000288,None,255.3419803000288,None,255.3419803000288,None,256.6964248000877,None,256.6964248000877,257.19640500005335,,,,,,,,,,,,,,,,,,,,,,,,,,,,,,,,,,,,,,,,,,,,,,,,,106,2023-04-26_10h13.03.573,FishGame,2022.1.1,59.14734370262377,
,1,넌 교활해,5,Orange,B,2.333333333333333,2.133333333333333,ScrollUp,ScrollDown,Orange.png,practice,,,,,,,0,0,0,0,,,,,0,0,0,0,,,,,,,,,,,,,,,,,,,,,,,,,,,,,,,,,,,,,,,,,,,,,,,,,,,,,,,,,,,,,,,,,,,,,,,,,,n,3.240271699964069,257.6965065000113,None,257.6965065000113,None,,,,,,,,,,,,,,,,,,,,,,,,,,,,,,,,,,,,,,,,,,,106,2023-04-26_10h13.03.573,FishGame,2022.1.1,59.14734370262377,
,1,넌 따뜻해,1,Orange,B,6.083333333333333,5.6,ScrollUp,ScrollDown,Orange.png,1,Positive,Incongruent,,,,,0,0,0,0,,,,,,,,,,,,,0,0,0,0,,,,,,,,,,,,,,,,,,,,,,,,,,,,,,,,,,,,,,,,263.66517160006333,265.16534569999203,265.1987314000726,266.14874660002533,266.1987324000802,267.14872820000164,267.14872820000164,None,,,,,,,,,,,,,,,,,,,,,,,,,0.010185185,-0.11018518,1,0,0,0.31491777999326587,None,260.9655027000699,None,1.7500000099341075,1.280042800004594,268.4346212000819,None,ScrollUp,정답입니다,268.4346212000819,None,268.4346212000819,None,268.4346212000819,None,268.4346212000819,None,269.41525180009194,None,269.41525180009194,269.91517620009836,,,,,,,,,,,,,,,,106,2023-04-26_10h13.03.573,FishGame,2022.1.1,59.14734370262377,
,2,넌 기품있어,2,Orange,B,5.791666666666668,4.5,ScrollUp,ScrollDown,Orange.png,1,Positive,Incongruent,,,,,0,0,0,0,,,,,,,,,,,,,0,1,1,1,,,,,,,,,,,,,,,,,,,,,,,,,,,,,,,,,,,,,,,,,,,,,,,,,,,,,,,,,,,,,,,,,,,,,,,,,,,,,,,,,1.799382706483205,0.6815163999563083,270.5282160000643,None,ScrollUp,정답입니다,270.5282160000643,None,270.5282160000643,None,270.5282160000643,None,270.5282160000643,None,271.11508650006726,None,271.11508650006726,271.6150349000236,,,,,,,,,,,,,,,,106,2023-04-26_10h13.03.573,FishGame,2022.1.1,59.14734370262377,
,3,나를 보내줘,6,Green,A,0,0,ScrollUp,ScrollDown,Green.png,1,NonTarget,NonTarget,,,,,0,0,0,0,,,,,,,,,,,,,0,2,2,2,,,,,,,,,,,,,,,,,,,,,,,,,,,,,,,,,,,,,,,,,,,,,,,,,,,,,,,,,,,,,,,,,,,,,,,,,,,,,,,,,1.4938271606030564,0.9166209000395611,272.22664310003165,None,NoResponse,무응답입니다,272.22664310003165,None,272.22664310003165,None,272.22664310003165,None,272.22664310003165,None,273.0484147000825,None,273.0484147000825,273.5484199000057,,,,,,,,,,,,,,,,106,2023-04-26_10h13.03.573,FishGame,2022.1.1,59.14734370262377,
,4,넌 수동적이야,4,Green,A,2.833333333333333,2.933333333333333,ScrollDown,ScrollUp,Green.png,1,Negative,Incongruent,,,,,0,0,0,0,,,,,,,,,,,,,0,3,3,3,,,,,,,,,,,,,,,,,,,,,,,,,,,,,,,,,,,,,,,,,,,,,,,,,,,,,,,,,,,,,,,,,,,,,,,,,,,,,,,,,1.2932098805904388,0.8270278999116272,274.1612452000845,None,ScrollDown,정답입니다,274.1612452000845,None,274.1612452000845,None,274.1612452000845,None,274.1612452000845,None,274.89157650002744,None,274.89157650002744,275.3983094000723,,,,,,,,,,,,,,,,106,2023-04-26_10h13.03.573,FishGame,2022.1.1,59.14734370262377,
,5,넌 사심이 없어,3,Orange,B,4.916666666666666,4.333333333333333,ScrollUp,ScrollDown,Orange.png,1,Neutral,Neutral,,,,,0,0,0,0,,,,,,,,,,,,,0,4,4,4,,,,,,,,,,,,,,,,,,,,,,,,,,,,,,,,,,,,,,,,,,,,,,,,,,,,,,,,,,,,,,,,,,,,,,,,,,,,,,,,,1.9274691144625347,0.8833767999894917,276.00947450008243,None,ScrollUp,정답입니다,276.00947450008243,None,276.00947450008243,None,276.00947450008243,None,276.00947450008243,None,276.79627650009934,None,276.79627650009934,277.2983111999929,,,,,,,,,,,,,,,,106,2023-04-26_10h13.03.573,FishGame,2022.1.1,59.14734370262377,
,6,넌 헤퍼,5,Green,A,2.458333333333334,2.233333333333333,ScrollDown,ScrollUp,Green.png,1,Negative,Incongruent,,,,,0,0,0,0,,,,,,,,,,,,,0,5,5,5,,,,,,,,,,,,,,,,,,,,,,,,,,,,,,,,,,,,,,,,,,,,,,,,,,,,,,,,,,,,,,,,,,,,,,,,,,,,,,,,,1.1589506169160206,0.7146508999867365,277.90545479999855,None,ScrollDown,정답입니다,277.90545479999855,None,277.90545479999855,None,277.90545479999855,None,277.90545479999855,None,278.5316391000524,None,278.5316391000524,279.0316487000091,,,,,,,,,,,,,,,,106,2023-04-26_10h13.03.573,FishGame,2022.1.1,59.14734370262377,
,7,넌 말쑥해,3,Green,A,4.833333333333334,4.333333333333333,ScrollDown,ScrollUp,Green.png,1,Neutral,Neutral,,,,,0,0,0,0,,,,,,,,,,,,,0,6,6,6,,,,,,,,,,,,,,,,,,,,,,,,,,,,,,,,,,,,,,,,,,,,,,,,,,,,,,,,,,,,,,,,,,,,,,,,,,,,,,,,,1.2422839452823002,0.6486253999173641,279.6394520000322,None,ScrollDown,정답입니다,279.6394520000322,None,279.6394520000322,None,279.6394520000322,None,279.6394520000322,None,280.1983160000527,None,280.1983160000527,280.71485760004725,,,,,,,,,,,,,,,,106,2023-04-26_10h13.03.573,FishGame,2022.1.1,59.14734370262377,
,8,넌 투덜거려,5,Orange,B,2.541666666666667,2.266666666666667,ScrollUp,ScrollDown,Orange.png,1,Negative,Congruent,,,,,0,0,0,0,,,,,,,,,,,,,0,7,7,7,,,,,,,,,,,,,,,,,,,,,,,,,,,,,,,,,,,,,,,,,,,,,,,,,,,,,,,,,,,,,,,,,,,,,,,,,,,,,,,,,1.6913580298423767,0.7813004000345245,281.3109981000889,None,ScrollUp,정답입니다,281.3109981000889,None,281.3109981000889,None,281.3109981000889,None,281.3109981000889,None,281.9961535000475,None,281.9961535000475,282.49821800005157,,,,,,,,,,,,,,,,106,2023-04-26_10h13.03.573,FishGame,2022.1.1,59.14734370262377,
,9,넌 적극적이야,1,Green,A,5.708333333333333,5.533333333333333,ScrollDown,ScrollUp,Green.png,1,Positive,Congruent,,,,,0,0,0,0,,,,,,,,,,,,,0,8,8,8,,,,,,,,,,,,,,,,,,,,,,,,,,,,,,,,,,,,,,,,,,,,,,,,,,,,,,,,,,,,,,,,,,,,,,,,,,,,,,,,,1.3132715995113053,0.6310072999913245,283.10517910006456,None,ScrollDown,정답입니다,283.10517910006456,None,283.10517910006456,None,283.10517910006456,None,283.10517910006456,None,283.6482579000294,None,283.6482579000294,284.1485643000342,,,,,,,,,,,,,,,,106,2023-04-26_10h13.03.573,FishGame,2022.1.1,59.14734370262377,
,10,넌 재미없어,4,Orange,B,2.625,2.966666666666667,ScrollUp,ScrollDown,Orange.png,1,Negative,Congruent,,,,,0,0,0,0,,,,,,,,,,,,,0,9,9,9,,,,,,,,,,,,,,,,,,,,,,,,,,,,,,,,,,,,,,,,,,,,,,,,,,,,,,,,,,,,,,,,,,,,,,,,,,,,,,,,,1.540123456468185,0.7144058999838307,284.7583266000729,None,NoResponse,무응답입니다,284.7583266000729,None,284.7583266000729,None,284.7583266000729,None,284.7583266000729,None,285.37922260002233,None,285.37922260002233,285.879180500051,,,,,,,,,,,,,,,,106,2023-04-26_10h13.03.573,FishGame,2022.1.1,59.14734370262377,
,11,넌 명석해,2,Green,A,5.875,4.033333333333333,ScrollDown,ScrollUp,Green.png,1,Positive,Congruent,,,,,0,0,0,0,,,,,,,,,,,,,0,10,10,10,,,,,,,,,,,,,,,,,,,,,,,,,,,,,,,,,,,,,,,,,,,,,,,,,,,,,,,,,,,,,,,,,,,,,,,,,,,,,,,,,1.2361111144224803,0.7493911000201479,286.48544860002585,None,ScrollDown,정답입니다,286.48544860002585,None,286.48544860002585,None,286.48544860002585,None,286.48544860002585,None,287.1458945000777,None,287.1458945000777,287.6458663000958,,,,,,,,,,,,,,,,106,2023-04-26_10h13.03.573,FishGame,2022.1.1,59.14734370262377,
,12,나를 데려가줘,6,Orange,B,0,0,ScrollDown,ScrollUp,Orange.png,1,NonTarget,NonTarget,,,,,0,0,0,0,,,,,,,,,,,,,0,11,11,11,,,,,,,,,,,,,,,,,,,,,,,,,,,,,,,,,,,,,,,,,,,,,,,,,,,,,,,,,,,,,,,,,,,,,,,,,,,,,,,,,1.2638888905445733,0.8813415999757126,288.2598484000191,None,ScrollDown,정답입니다,288.2598484000191,None,288.2598484000191,None,288.2598484000191,None,288.2598484000191,None,289.04843500000425,None,289.04843500000425,289.5482163000852,,,,,,,,,,,,,,,,106,2023-04-26_10h13.03.573,FishGame,2022.1.1,59.14734370262377,
,13,넌 소심해,4,Green,A,3,3.1,ScrollDown,ScrollUp,Green.png,1,Negative,Incongruent,,,,,0,0,0,0,,,,,,,,,,,,,0,12,12,12,,,,,,,,,,,,,,,,,,,,,,,,,,,,,,,,,,,,,,,,,,,,,,,,,,,,,,,,,,,,,,,,,,,,,,,,,,,,,,,,,1.1990740795930226,0.7647478000726551,290.15475260000676,None,ScrollDown,정답입니다,290.15475260000676,None,290.15475260000676,None,290.15475260000676,None,290.15475260000676,None,290.83146250003483,None,290.83146250003483,291.3313989000162,,,,,,,,,,,,,,,,106,2023-04-26_10h13.03.573,FishGame,2022.1.1,59.14734370262377,
,14,넌 합리적이야,2,Green,A,5.583333333333333,4.733333333333333,ScrollDown,ScrollUp,Green.png,1,Positive,Congruent,,,,,0,0,0,0,,,,,,,,,,,,,0,13,13,13,,,,,,,,,,,,,,,,,,,,,,,,,,,,,,,,,,,,,,,,,,,,,,,,,,,,,,,,,,,,,,,,,,,,,,,,,,,,,,,,,1.1172839403152466,0.7593122000107542,291.94820470002014,None,ScrollDown,정답입니다,291.94820470002014,None,291.94820470002014,None,291.94820470002014,None,291.94820470002014,None,292.61240820004605,None,292.61240820004605,293.1123734000139,,,,,,,,,,,,,,,,106,2023-04-26_10h13.03.573,FishGame,2022.1.1,59.14734370262377,
,15,넌 무자비해,5,Orange,B,2.333333333333333,2.1,ScrollUp,ScrollDown,Orange.png,1,Negative,Congruent,,,,,0,0,0,0,,,,,,,,,,,,,0,14,14,14,,,,,,,,,,,,,,,,,,,,,,,,,,,,,,,,,,,,,,,,,,,,,,,,,,,,,,,,,,,,,,,,,,,,,,,,,,,,,,,,,1.904320980111758,0.7458957000635564,293.72618670004886,None,ScrollUp,정답입니다,293.72618670004886,None,293.72618670004886,None,293.72618670004886,None,293.72618670004886,None,294.37906190007925,None,294.37906190007925,294.8814788000891,,,,,,,,,,,,,,,,106,2023-04-26_10h13.03.573,FishGame,2022.1.1,59.14734370262377,
,16,나를 보내줘,6,Green,A,0,0,ScrollUp,ScrollDown,Green.png,1,NonTarget,NonTarget,,,,,0,0,0,0,,,,,,,,,,,,,0,15,15,15,,,,,,,,,,,,,,,,,,,,,,,,,,,,,,,,,,,,,,,,,,,,,,,,,,,,,,,,,,,,,,,,,,,,,,,,,,,,,,,,,1.6959876591960588,0.8481856000144035,295.48577640007716,None,ScrollUp,정답입니다,295.48577640007716,None,295.48577640007716,None,295.48577640007716,None,295.48577640007716,None,296.2482274000067,None,296.2482274000067,296.7480828000698,,,,,,,,,,,,,,,,106,2023-04-26_10h13.03.573,FishGame,2022.1.1,59.14734370262377,
,17,넌 현실적이야,3,Orange,B,4.608695652173913,4.766666666666667,ScrollUp,ScrollDown,Orange.png,1,Neutral,Neutral,,,,,0,0,0,0,,,,,,,,,,,,,0,16,16,16,,,,,,,,,,,,,,,,,,,,,,,,,,,,,,,,,,,,,,,,,,,,,,,,,,,,,,,,,,,,,,,,,,,,,,,,,,,,,,,,,1.6851851865649223,0.7998303999193013,297.35857000004034,None,ScrollUp,정답입니다,297.35857000004034,None,297.35857000004034,None,297.35857000004034,None,297.35857000004034,None,298.06461940007284,None,298.06461940007284,298.56463070004247,,,,,,,,,,,,,,,,106,2023-04-26_10h13.03.573,FishGame,2022.1.1,59.14734370262377,
,18,넌 의리있어,1,Orange,B,5.833333333333334,5.633333333333334,ScrollUp,ScrollDown,Orange.png,1,Positive,Incongruent,,,,,0,0,0,0,,,,,,,,,,,,,0,17,17,17,,,,,,,,,,,,,,,,,,,,,,,,,,,,,,,,,,,,,,,,,,,,,,,,,,,,,,,,,,,,,,,,,,,,,,,,,,,,,,,,,1.6250000049670539,0.7258819999406114,299.18337210000027,None,ScrollUp,정답입니다,299.18337210000027,None,299.18337210000027,None,299.18337210000027,None,299.18337210000027,None,299.81222120008897,None,299.81222120008897,300.31223030004185,,,,,,,,,,,,,,,,106,2023-04-26_10h13.03.573,FishGame,2022.1.1,59.14734370262377,
,19,넌 신경과민이야,5,Green,A,2.541666666666667,2.166666666666667,ScrollDown,ScrollUp,Green.png,1,Negative,Incongruent,,,,,0,0,0,0,,,,,,,,,,,,,0,18,18,18,,,,,,,,,,,,,,,,,,,,,,,,,,,,,,,,,,,,,,,,,,,,,,,,,,,,,,,,,,,,,,,,,,,,,,,,,,,,,,,,,1.347222218910853,0.7301800999557599,300.9335382001009,None,ScrollDown,정답입니다,300.9335382001009,None,300.9335382001009,None,300.9335382001009,None,300.9335382001009,None,301.5622679000953,None,301.5622679000953,302.06225429999176,,,,,,,,,,,,,,,,106,2023-04-26_10h13.03.573,FishGame,2022.1.1,59.14734370262377,
,20,넌 편안해,1,Green,A,5.916666666666666,5.866666666666666,ScrollDown,ScrollUp,Green.png,1,Positive,Congruent,,,,,0,0,0,0,,,,,,,,,,,,,0,19,19,19,,,,,,,,,,,,,,,,,,,,,,,,,,,,,,,,,,,,,,,,,,,,,,,,,,,,,,,,,,,,,,,,,,,,,,,,,,,,,,,,,1.2114197413126628,0.6666931000072509,302.6735083000967,None,ScrollDown,정답입니다,302.6735083000967,None,302.6735083000967,None,302.6735083000967,None,302.6735083000967,None,303.2480249000946,None,303.2480249000946,303.7479181000963,,,,,,,,,,,,,,,,106,2023-04-26_10h13.03.573,FishGame,2022.1.1,59.14734370262377,
,21,넌 품위있어,2,Orange,B,5.291666666666666,4.466666666666667,ScrollUp,ScrollDown,Orange.png,1,Positive,Incongruent,,,,,0,0,0,0,,,,,,,,,,,,,0,20,20,20,,,,,,,,,,,,,,,,,,,,,,,,,,,,,,,,,,,,,,,,,,,,,,,,,,,,,,,,,,,,,,,,,,,,,,,,,,,,,,,,,1.5956790149211884,0.5945728999795392,304.3657161000883,None,ScrollUp,정답입니다,304.3657161000883,None,304.3657161000883,None,304.3657161000883,None,304.3657161000883,None,304.86212410009466,None,304.86212410009466,305.36211760004517,,,,,,,,,,,,,,,,106,2023-04-26_10h13.03.573,FishGame,2022.1.1,59.14734370262377,
,22,넌 빈틈없어,3,Green,A,4.833333333333333,3.966666666666667,ScrollDown,ScrollUp,Green.png,1,Neutral,Neutral,,,,,0,0,0,0,,,,,,,,,,,,,0,21,21,21,,,,,,,,,,,,,,,,,,,,,,,,,,,,,,,,,,,,,,,,,,,,,,,,,,,,,,,,,,,,,,,,,,,,,,,,,,,,,,,,,1.2731481492519379,0.5998812000034377,305.9682085000677,None,ScrollDown,정답입니다,305.9682085000677,None,305.9682085000677,None,305.9682085000677,None,305.9682085000677,None,306.4788127000211,None,306.4788127000211,306.9788222000934,,,,,,,,,,,,,,,,106,2023-04-26_10h13.03.573,FishGame,2022.1.1,59.14734370262377,
,23,넌 상상력없어,4,Orange,B,2.833333333333333,3.133333333333333,ScrollUp,ScrollDown,Orange.png,1,Negative,Congruent,,,,,0,0,0,0,,,,,,,,,,,,,0,22,22,22,,,,,,,,,,,,,,,,,,,,,,,,,,,,,,,,,,,,,,,,,,,,,,,,,,,,,,,,,,,,,,,,,,,,,,,,,,,,,,,,,1.5108024687506258,0.5335772999096662,307.5918520000996,None,NoResponse,무응답입니다,307.5918520000996,None,307.5918520000996,None,307.5918520000996,None,307.5918520000996,None,308.0312930000946,None,308.0312930000946,308.5311597000109,,,,,,,,,,,,,,,,106,2023-04-26_10h13.03.573,FishGame,2022.1.1,59.14734370262377,
,24,넌 지혜로워,2,Orange,B,6.333333333333334,4.633333333333334,ScrollUp,ScrollDown,Orange.png,1,Positive,Incongruent,,,,,0,0,0,0,,,,,,,,,,,,,0,23,23,23,,,,,,,,,,,,,,,,,,,,,,,,,,,,,,,,,,,,,,,,,,,,,,,,,,,,,,,,,,,,,,,,,,,,,,,,,,,,,,,,,1.7052469179034233,0.7122998998966068,309.14956730010454,None,ScrollUp,정답입니다,309.14956730010454,None,309.14956730010454,None,309.14956730010454,None,309.14956730010454,None,309.7620238000527,None,309.7620238000527,310.2620288000908,,,,,,,,,,,,,,,,106,2023-04-26_10h13.03.573,FishGame,2022.1.1,59.14734370262377,
,25,넌 시끄러워,4,Green,A,2.833333333333333,3.033333333333333,ScrollDown,ScrollUp,Green.png,1,Negative,Incongruent,,,,,0,0,0,0,,,,,,,,,,,,,0,24,24,24,,,,,,,,,,,,,,,,,,,,,,,,,,,,,,,,,,,,,,,,,,,,,,,,,,,,,,,,,,,,,,,,,,,,,,,,,,,,,,,,,1.0416666567325592,0.797391299973242,310.87089800008107,None,ScrollDown,정답입니다,310.87089800008107,None,310.87089800008107,None,310.87089800008107,None,310.87089800008107,None,311.578729400062,None,311.578729400062,312.07876890001353,,,,,,,,,,,,,,,,106,2023-04-26_10h13.03.573,FishGame,2022.1.1,59.14734370262377,
,26,넌 만사태평이야,3,Orange,B,4,4.333333333333333,ScrollUp,ScrollDown,Orange.png,1,Neutral,Neutral,,,,,0,0,0,0,,,,,,,,,,,,,0,25,25,25,,,,,,,,,,,,,,,,,,,,,,,,,,,,,,,,,,,,,,,,,,,,,,,,,,,,,,,,,,,,,,,,,,,,,,,,,,,,,,,,,1.7577160547176998,0.5833908000495285,312.69706220005173,None,ScrollUp,정답입니다,312.69706220005173,None,312.69706220005173,None,312.69706220005173,None,312.69706220005173,None,313.18120330001693,None,313.18120330001693,313.681093399995,,,,,,,,,,,,,,,,106,2023-04-26_10h13.03.573,FishGame,2022.1.1,59.14734370262377,
,27,넌 붙임성있어,1,Green,A,5.708333333333333,5.633333333333334,ScrollDown,ScrollUp,Green.png,1,Positive,Congruent,,,,,0,0,0,0,,,,,,,,,,,,,0,26,26,26,,,,,,,,,,,,,,,,,,,,,,,,,,,,,,,,,,,,,,,,,,,,,,,,,,,,,,,,,,,,,,,,,,,,,,,,,,,,,,,,,1.126543199022611,0.6460561999119818,314.29073300003074,None,ScrollDown,정답입니다,314.29073300003074,None,314.29073300003074,None,314.29073300003074,None,314.29073300003074,None,314.84776870009955,None,314.84776870009955,315.3475954000605,,,,,,,,,,,,,,,,106,2023-04-26_10h13.03.573,FishGame,2022.1.1,59.14734370262377,
,28,넌 영리해,2,Green,A,6,4.033333333333333,ScrollDown,ScrollUp,Green.png,1,Positive,Congruent,,,,,0,0,0,0,,,,,,,,,,,,,0,27,27,27,,,,,,,,,,,,,,,,,,,,,,,,,,,,,,,,,,,,,,,,,,,,,,,,,,,,,,,,,,,,,,,,,,,,,,,,,,,,,,,,,1.2608024626970291,0.7147235999582335,315.9592956000706,None,ScrollDown,정답입니다,315.9592956000706,None,315.9592956000706,None,315.9592956000706,None,315.9592956000706,None,316.578837600071,None,316.578837600071,317.0808887000894,,,,,,,,,,,,,,,,106,2023-04-26_10h13.03.573,FishGame,2022.1.1,59.14734370262377,
,29,넌 열심이야,1,Orange,B,6.041666666666667,5.833333333333333,ScrollUp,ScrollDown,Orange.png,1,Positive,Incongruent,,,,,0,0,0,0,,,,,,,,,,,,,0,28,28,28,,,,,,,,,,,,,,,,,,,,,,,,,,,,,,,,,,,,,,,,,,,,,,,,,,,,,,,,,,,,,,,,,,,,,,,,,,,,,,,,,1.6450617238879204,0.5999878000002354,317.6912718000822,None,ScrollUp,정답입니다,317.6912718000822,None,317.6912718000822,None,317.6912718000822,None,317.6912718000822,None,318.1976485000923,None,318.1976485000923,318.6975420000963,,,,,,,,,,,,,,,,106,2023-04-26_10h13.03.573,FishGame,2022.1.1,59.14734370262377,
,30,넌 인기없어,4,Orange,B,3,3.3,ScrollUp,ScrollDown,Orange.png,1,Negative,Congruent,,,,,0,0,0,0,,,,,,,,,,,,,0,29,29,29,,,,,,,,,,,,,,,,,,,,,,,,,,,,,,,,,,,,,,,,,,,,,,,,,,,,,,,,,,,,,,,,,,,,,,,,,,,,,,,,,1.6435185223817825,1.062608000007458,319.30577249999624,None,ScrollUp,정답입니다,319.30577249999624,None,319.30577249999624,None,319.30577249999624,None,319.30577249999624,None,320.28085430001374,None,320.28085430001374,320.7807535000611,,,,,,,,,,,,,,,,106,2023-04-26_10h13.03.573,FishGame,2022.1.1,59.14734370262377,
,31,넌 익살스러워,3,Green,A,4.708333333333334,4.833333333333333,ScrollDown,ScrollUp,Green.png,1,Neutral,Neutral,,,,,0,0,0,0,,,,,,,,,,,,,0,30,30,30,,,,,,,,,,,,,,,,,,,,,,,,,,,,,,,,,,,,,,,,,,,,,,,,,,,,,,,,,,,,,,,,,,,,,,,,,,,,,,,,,1.1018518507480621,0.6979258999926969,321.3973338000942,None,ScrollDown,정답입니다,321.3973338000942,None,321.3973338000942,None,321.3973338000942,None,321.3973338000942,None,321.9953913000645,None,321.9953913000645,322.4973506000824,,,,,,,,,,,,,,,,106,2023-04-26_10h13.03.573,FishGame,2022.1.1,59.14734370262377,
,32,넌 이기적이야,5,Orange,B,2.291666666666667,2.333333333333333,ScrollUp,ScrollDown,Orange.png,1,Negative,Congruent,,,,,0,0,0,0,,,,,,,,,,,,,0,31,31,31,,,,,,,,,,,,,,,,,,,,,,,,,,,,,,,,,,,,,,,,,,,,,,,,,,,,,,,,,,,,,,,,,,,,,,,,,,,,,,,,,1.481481481033067,0.6460013999603689,323.10394220007583,None,NoResponse,무응답입니다,323.10394220007583,None,323.10394220007583,None,323.10394220007583,None,323.10394220007583,None,323.66421760001685,None,323.66421760001685,324.16408800007775,,,,,,,,,,,,,,,,106,2023-04-26_10h13.03.573,FishGame,2022.1.1,59.14734370262377,
,33,나를 데려가줘,6,Orange,B,0,0,ScrollDown,ScrollUp,Orange.png,1,NonTarget,NonTarget,,,,,0,0,0,0,,,,,,,,,,,,,0,32,32,32,,,,,,,,,,,,,,,,,,,,,,,,,,,,,,,,,,,,,,,,,,,,,,,,,,,,,,,,,,,,,,,,,,,,,,,,,,,,,,,,,1.0123456915219624,1.0958003000123426,324.7705005001044,None,ScrollDown,정답입니다,324.7705005001044,None,324.7705005001044,None,324.7705005001044,None,324.7705005001044,None,325.77838530007284,None,325.77838530007284,326.27928850008175,,,,,,,,,,,,,,,,106,2023-04-26_10h13.03.573,FishGame,2022.1.1,59.14734370262377,
,34,넌 기회주의자야,5,Green,A,2.875,2.133333333333333,ScrollDown,ScrollUp,Green.png,1,Negative,Incongruent,,,,,0,0,0,0,,,,,,,,,,,,,0,33,33,33,,,,,,,,,,,,,,,,,,,,,,,,,,,,,,,,,,,,,,,,,,,,,,,,,,,,,,,,,,,,,,,,,,,,,,,,,,,,,,,,,1.2206790000200272,0.715610499959439,326.8838720000349,None,ScrollDown,정답입니다,326.8838720000349,None,326.8838720000349,None,326.8838720000349,None,326.8838720000349,None,327.51175100007094,None,327.51175100007094,328.0141877999995,,,,,,,,,,,,,,,,106,2023-04-26_10h13.03.573,FishGame,2022.1.1,59.14734370262377,
,1,넌 미성숙해,4,Green,A,3,3.2,ScrollDown,ScrollUp,Green.png,2,Negative,Incongruent,,,,,0,0,0,0,,,,,,,,,,,,,,,,,0,0,0,0,,,,,,,,,,,,,,,,,,,,,,,,,,,,,,,,,,,,360.01326870010234,361.51666550000664,361.54998560005333,362.513486300013,362.5468386000721,363.49984280008357,363.49984280008357,None,,,,,,,,,,,,,,,,,,,,,,,,,,,,,,,,,,1.1111111094554265,0.82785449991934,364.58826410002075,None,ScrollDown,정답입니다,364.58826410002075,None,364.58826410002075,None,364.58826410002075,None,364.58826410002075,None,365.3301333000418,None,365.3301333000418,365.82995720009785,328.5141816000687,None,328.5141816000687,None,0.07777778,-0.11574074,1,0,0,0.016317480010911822,None,358.5164555000374,None,,,106,2023-04-26_10h13.03.573,FishGame,2022.1.1,59.14734370262377,
,2,넌 반사회적이야,5,Orange,B,2.416666666666667,2.033333333333333,ScrollUp,ScrollDown,Orange.png,2,Negative,Congruent,,,,,0,0,0,0,,,,,,,,,,,,,,,,,0,1,1,1,,,,,,,,,,,,,,,,,,,,,,,,,,,,,,,,,,,,,,,,,,,,,,,,,,,,,,,,,,,,,,,,,,,,,,,,,,,,,1.7916666616996129,0.6331761999754235,366.43968579999637,None,ScrollUp,정답입니다,366.43968579999637,None,366.43968579999637,None,366.43968579999637,None,366.43968579999637,None,366.97989660000894,None,366.97989660000894,367.4798289000755,,,,,,,,,,,,,,,,106,2023-04-26_10h13.03.573,FishGame,2022.1.1,59.14734370262377,
,3,넌 유능해,2,Green,A,6.208333333333333,4.433333333333334,ScrollDown,ScrollUp,Green.png,2,Positive,Congruent,,,,,0,0,0,0,,,,,,,,,,,,,,,,,0,2,2,2,,,,,,,,,,,,,,,,,,,,,,,,,,,,,,,,,,,,,,,,,,,,,,,,,,,,,,,,,,,,,,,,,,,,,,,,,,,,,1.0262345671653748,0.7294481999706477,368.08754380000755,None,ScrollDown,정답입니다,368.08754380000755,None,368.08754380000755,None,368.08754380000755,None,368.08754380000755,None,368.72989300009795,None,368.72989300009795,369.22988600004464,,,,,,,,,,,,,,,,106,2023-04-26_10h13.03.573,FishGame,2022.1.1,59.14734370262377,
,4,넌 능숙해,2,Orange,B,5.666666666666667,4.733333333333333,ScrollUp,ScrollDown,Orange.png,2,Positive,Incongruent,,,,,0,0,0,0,,,,,,,,,,,,,,,,,0,3,3,3,,,,,,,,,,,,,,,,,,,,,,,,,,,,,,,,,,,,,,,,,,,,,,,,,,,,,,,,,,,,,,,,,,,,,,,,,,,,,1.8564814726511638,0.6482251000124961,369.8370380999986,None,ScrollUp,정답입니다,369.8370380999986,None,369.8370380999986,None,369.8370380999986,None,369.8370380999986,None,370.39657360001,None,370.39657360001,370.8964186999947,,,,,,,,,,,,,,,,106,2023-04-26_10h13.03.573,FishGame,2022.1.1,59.14734370262377,
,5,넌 진부해,4,Orange,B,2.458333333333333,3.166666666666667,ScrollUp,ScrollDown,Orange.png,2,Negative,Congruent,,,,,0,0,0,0,,,,,,,,,,,,,,,,,0,4,4,4,,,,,,,,,,,,,,,,,,,,,,,,,,,,,,,,,,,,,,,,,,,,,,,,,,,,,,,,,,,,,,,,,,,,,,,,,,,,,1.7839506169160206,0.7127588000148535,371.50652420008555,None,ScrollUp,정답입니다,371.50652420008555,None,371.50652420008555,None,371.50652420008555,None,371.50652420008555,None,372.12973250006326,None,372.12973250006326,372.6297456000466,,,,,,,,,,,,,,,,106,2023-04-26_10h13.03.573,FishGame,2022.1.1,59.14734370262377,
,6,나를 보내줘,6,Green,A,0,0,ScrollUp,ScrollDown,Green.png,2,NonTarget,NonTarget,,,,,0,0,0,0,,,,,,,,,,,,,,,,,0,5,5,5,,,,,,,,,,,,,,,,,,,,,,,,,,,,,,,,,,,,,,,,,,,,,,,,,,,,,,,,,,,,,,,,,,,,,,,,,,,,,1.7839506169160206,0.7316174000734463,373.2389498000266,None,ScrollUp,정답입니다,373.2389498000266,None,373.2389498000266,None,373.2389498000266,None,373.2389498000266,None,373.87978610000573,None,373.87978610000573,374.37977550004143,,,,,,,,,,,,,,,,106,2023-04-26_10h13.03.573,FishGame,2022.1.1,59.14734370262377,
,7,넌 엄격해,3,Green,A,4.166666666666666,4.1,ScrollDown,ScrollUp,Green.png,2,Neutral,Neutral,,,,,0,0,0,0,,,,,,,,,,,,,,,,,0,6,6,6,,,,,,,,,,,,,,,,,,,,,,,,,,,,,,,,,,,,,,,,,,,,,,,,,,,,,,,,,,,,,,,,,,,,,,,,,,,,,1.1666666616996129,0.6290421999292448,374.98651740001515,None,ScrollDown,정답입니다,374.98651740001515,None,374.98651740001515,None,374.98651740001515,None,374.98651740001515,None,375.5274297000142,None,375.5274297000142,376.0274692000821,,,,,,,,,,,,,,,,106,2023-04-26_10h13.03.573,FishGame,2022.1.1,59.14734370262377,
,8,나를 보내줘,6,Green,A,0,0,ScrollUp,ScrollDown,Green.png,2,NonTarget,NonTarget,,,,,0,0,0,0,,,,,,,,,,,,,,,,,0,7,7,7,,,,,,,,,,,,,,,,,,,,,,,,,,,,,,,,,,,,,,,,,,,,,,,,,,,,,,,,,,,,,,,,,,,,,,,,,,,,,1.2793209801117578,0.6635429000016302,376.6285005999962,None,ScrollDown,오답입니다,376.6285005999962,None,376.6285005999962,None,376.6285005999962,None,376.6285005999962,None,377.21077880007215,None,377.21077880007215,377.7107505000895,,,,,,,,,,,,,,,,106,2023-04-26_10h13.03.573,FishGame,2022.1.1,59.14734370262377,
,9,넌 대담해,3,Orange,B,4.875,4.866666666666666,ScrollUp,ScrollDown,Orange.png,2,Neutral,Neutral,,,,,0,0,0,0,,,,,,,,,,,,,,,,,0,8,8,8,,,,,,,,,,,,,,,,,,,,,,,,,,,,,,,,,,,,,,,,,,,,,,,,,,,,,,,,,,,,,,,,,,,,,,,,,,,,,1.858024686574936,0.7999862000579014,378.3223081000615,None,ScrollUp,정답입니다,378.3223081000615,None,378.3223081000615,None,378.3223081000615,None,378.3223081000615,None,379.0298876001034,None,379.0298876001034,379.5297978000017,,,,,,,,,,,,,,,,106,2023-04-26_10h13.03.573,FishGame,2022.1.1,59.14734370262377,
,10,넌 꾸준해,1,Green,A,5.916666666666668,5.8,ScrollDown,ScrollUp,Green.png,2,Positive,Congruent,,,,,0,0,0,0,,,,,,,,,,,,,,,,,0,9,9,9,,,,,,,,,,,,,,,,,,,,,,,,,,,,,,,,,,,,,,,,,,,,,,,,,,,,,,,,,,,,,,,,,,,,,,,,,,,,,1.3194444427887597,0.6987975999945775,380.1348407000769,None,ScrollDown,정답입니다,380.1348407000769,None,380.1348407000769,None,380.1348407000769,None,380.1348407000769,None,380.74634380009957,None,380.74634380009957,381.2462435000343,,,,,,,,,,,,,,,,106,2023-04-26_10h13.03.573,FishGame,2022.1.1,59.14734370262377,
,11,나를 데려가줘,6,Orange,B,0,0,ScrollDown,ScrollUp,Orange.png,2,NonTarget,NonTarget,,,,,0,0,0,0,,,,,,,,,,,,,,,,,0,10,10,10,,,,,,,,,,,,,,,,,,,,,,,,,,,,,,,,,,,,,,,,,,,,,,,,,,,,,,,,,,,,,,,,,,,,,,,,,,,,,1.2361111144224803,0.8308560000732541,381.85268630005885,None,ScrollDown,정답입니다,381.85268630005885,None,381.85268630005885,None,381.85268630005885,None,381.85268630005885,None,382.59392110002227,None,382.59392110002227,383.0940388001036,,,,,,,,,,,,,,,,106,2023-04-26_10h13.03.573,FishGame,2022.1.1,59.14734370262377,
,12,넌 독선적이야,5,Green,A,2.458333333333333,1.933333333333333,ScrollDown,ScrollUp,Green.png,2,Negative,Incongruent,,,,,0,0,0,0,,,,,,,,,,,,,,,,,0,11,11,11,,,,,,,,,,,,,,,,,,,,,,,,,,,,,,,,,,,,,,,,,,,,,,,,,,,,,,,,,,,,,,,,,,,,,,,,,,,,,1.2283950696388881,0.8135081001091748,383.6982447000919,None,ScrollDown,정답입니다,383.6982447000919,None,383.6982447000919,None,383.6982447000919,None,383.6982447000919,None,384.42729910009075,None,384.42729910009075,384.92966490006074,,,,,,,,,,,,,,,,106,2023-04-26_10h13.03.573,FishGame,2022.1.1,59.14734370262377,
,13,나를 보내줘,6,Green,A,0,0,ScrollUp,ScrollDown,Green.png,2,NonTarget,NonTarget,,,,,0,0,0,0,,,,,,,,,,,,,,,,,0,12,12,12,,,,,,,,,,,,,,,,,,,,,,,,,,,,,,,,,,,,,,,,,,,,,,,,,,,,,,,,,,,,,,,,,,,,,,,,,,,,,1.6373456791043282,0.7343504000455141,385.5320870000869,None,ScrollUp,정답입니다,385.5320870000869,None,385.5320870000869,None,385.5320870000869,None,385.5320870000869,None,386.17979890003335,None,386.17979890003335,386.6796391000971,,,,,,,,,,,,,,,,106,2023-04-26_10h13.03.573,FishGame,2022.1.1,59.14734370262377,
,14,넌 책임감있어,1,Orange,B,6.347826086956522,6,ScrollUp,ScrollDown,Orange.png,2,Positive,Incongruent,,,,,0,0,0,0,,,,,,,,,,,,,,,,,0,13,13,13,,,,,,,,,,,,,,,,,,,,,,,,,,,,,,,,,,,,,,,,,,,,,,,,,,,,,,,,,,,,,,,,,,,,,,,,,,,,,1.7962963034709294,0.5612277999753132,387.2921452000737,None,ScrollUp,정답입니다,387.2921452000737,None,387.2921452000737,None,387.2921452000737,None,387.2921452000737,None,387.76285910001025,None,387.76285910001025,388.2628474000376,,,,,,,,,,,,,,,,106,2023-04-26_10h13.03.573,FishGame,2022.1.1,59.14734370262377,
,15,넌 문학적이야,3,Green,A,4.708333333333334,4.333333333333333,ScrollDown,ScrollUp,Green.png,2,Neutral,Neutral,,,,,0,0,0,0,,,,,,,,,,,,,,,,,0,14,14,14,,,,,,,,,,,,,,,,,,,,,,,,,,,,,,,,,,,,,,,,,,,,,,,,,,,,,,,,,,,,,,,,,,,,,,,,,,,,,1.1033950646718342,0.6623490999918431,388.8674838000443,None,ScrollDown,정답입니다,388.8674838000443,None,388.8674838000443,None,388.8674838000443,None,388.8674838000443,None,389.44380220002495,None,389.44380220002495,389.94377790007275,,,,,,,,,,,,,,,,106,2023-04-26_10h13.03.573,FishGame,2022.1.1,59.14734370262377,
,16,넌 재미있어,1,Orange,B,5.875,5.7,ScrollUp,ScrollDown,Orange.png,2,Positive,Incongruent,,,,,0,0,0,0,,,,,,,,,,,,,,,,,0,15,15,15,,,,,,,,,,,,,,,,,,,,,,,,,,,,,,,,,,,,,,,,,,,,,,,,,,,,,,,,,,,,,,,,,,,,,,,,,,,,,1.7700617164373398,0.6164704998955131,390.5463690001052,None,ScrollUp,정답입니다,390.5463690001052,None,390.5463690001052,None,390.5463690001052,None,390.5463690001052,None,391.0771623000037,None,391.0771623000037,391.5771470000036,,,,,,,,,,,,,,,,106,2023-04-26_10h13.03.573,FishGame,2022.1.1,59.14734370262377,
,17,나를 데려가줘,6,Orange,B,0,0,ScrollDown,ScrollUp,Orange.png,2,NonTarget,NonTarget,,,,,0,0,0,0,,,,,,,,,,,,,,,,,0,16,16,16,,,,,,,,,,,,,,,,,,,,,,,,,,,,,,,,,,,,,,,,,,,,,,,,,,,,,,,,,,,,,,,,,,,,,,,,,,,,,1.5,0.831332299974747,392.18687040009536,None,NoResponse,무응답입니다,392.18687040009536,None,392.18687040009536,None,392.18687040009536,None,392.18687040009536,None,392.92956170008983,None,392.92956170008983,393.4295328001026,,,,,,,,,,,,,,,,106,2023-04-26_10h13.03.573,FishGame,2022.1.1,59.14734370262377,
,18,넌 협력적이야,1,Green,A,5.625,5.633333333333334,ScrollDown,ScrollUp,Green.png,2,Positive,Congruent,,,,,0,0,0,0,,,,,,,,,,,,,,,,,0,17,17,17,,,,,,,,,,,,,,,,,,,,,,,,,,,,,,,,,,,,,,,,,,,,,,,,,,,,,,,,,,,,,,,,,,,,,,,,,,,,,1.1712963034709294,0.7144120000302792,394.034316400066,None,ScrollDown,정답입니다,394.034316400066,None,394.034316400066,None,394.034316400066,None,394.034316400066,None,394.6606519999914,None,394.6606519999914,395.1606789000798,,,,,,,,,,,,,,,,106,2023-04-26_10h13.03.573,FishGame,2022.1.1,59.14734370262377,
,19,넌 평범해,3,Orange,B,4.333333333333332,4.233333333333333,ScrollUp,ScrollDown,Orange.png,2,Neutral,Neutral,,,,,0,0,0,0,,,,,,,,,,,,,,,,,0,18,18,18,,,,,,,,,,,,,,,,,,,,,,,,,,,,,,,,,,,,,,,,,,,,,,,,,,,,,,,,,,,,,,,,,,,,,,,,,,,,,1.654320982595285,0.6429051000159234,395.7795571000315,None,ScrollUp,정답입니다,395.7795571000315,None,395.7795571000315,None,395.7795571000315,None,395.7795571000315,None,396.3269782999996,None,396.3269782999996,396.82695410004817,,,,,,,,,,,,,,,,106,2023-04-26_10h13.03.573,FishGame,2022.1.1,59.14734370262377,
,20,넌 오만해,5,Green,A,2.333333333333333,2,ScrollDown,ScrollUp,Green.png,2,Negative,Incongruent,,,,,0,0,0,0,,,,,,,,,,,,,,,,,0,19,19,19,,,,,,,,,,,,,,,,,,,,,,,,,,,,,,,,,,,,,,,,,,,,,,,,,,,,,,,,,,,,,,,,,,,,,,,,,,,,,1.160493830839793,1.4644926999462768,397.4278909000568,None,ScrollDown,정답입니다,397.4278909000568,None,397.4278909000568,None,397.4278909000568,None,397.4278909000568,None,398.81035610008985,None,398.81035610008985,399.31270070001483,,,,,,,,,,,,,,,,106,2023-04-26_10h13.03.573,FishGame,2022.1.1,59.14734370262377,
,21,넌 운이없어,4,Orange,B,3,3.466666666666667,ScrollUp,ScrollDown,Orange.png,2,Negative,Congruent,,,,,0,0,0,0,,,,,,,,,,,,,,,,,0,20,20,20,,,,,,,,,,,,,,,,,,,,,,,,,,,,,,,,,,,,,,,,,,,,,,,,,,,,,,,,,,,,,,,,,,,,,,,,,,,,,1.6496913532416024,0.6959857998881489,399.9202489000745,None,ScrollUp,정답입니다,399.9202489000745,None,399.9202489000745,None,399.9202489000745,None,399.9202489000745,None,400.5294408000773,None,400.5294408000773,401.03253220010083,,,,,,,,,,,,,,,,106,2023-04-26_10h13.03.573,FishGame,2022.1.1,59.14734370262377,
,22,넌 창조적이야,2,Orange,B,6.125,4.633333333333334,ScrollUp,ScrollDown,Orange.png,2,Positive,Incongruent,,,,,0,0,0,0,,,,,,,,,,,,,,,,,0,21,21,21,,,,,,,,,,,,,,,,,,,,,,,,,,,,,,,,,,,,,,,,,,,,,,,,,,,,,,,,,,,,,,,,,,,,,,,,,,,,,1.6373456791043282,0.7127389999805018,401.63931080000475,None,ScrollUp,정답입니다,401.63931080000475,None,401.63931080000475,None,401.63931080000475,None,401.63931080000475,None,402.26258330000564,None,402.26258330000564,402.7625270000426,,,,,,,,,,,,,,,,106,2023-04-26_10h13.03.573,FishGame,2022.1.1,59.14734370262377,
,23,나를 보내줘,6,Green,A,0,0,ScrollUp,ScrollDown,Green.png,2,NonTarget,NonTarget,,,,,0,0,0,0,,,,,,,,,,,,,,,,,0,22,22,22,,,,,,,,,,,,,,,,,,,,,,,,,,,,,,,,,,,,,,,,,,,,,,,,,,,,,,,,,,,,,,,,,,,,,,,,,,,,,1.766975313425064,0.6780365000013262,403.3664889000356,None,ScrollUp,정답입니다,403.3664889000356,None,403.3664889000356,None,403.3664889000356,None,403.3664889000356,None,403.9624573000474,None,403.9624573000474,404.46245350001846,,,,,,,,,,,,,,,,106,2023-04-26_10h13.03.573,FishGame,2022.1.1,59.14734370262377,
,24,넌 통찰력있어,2,Green,A,6.5,4.8,ScrollDown,ScrollUp,Green.png,2,Positive,Congruent,,,,,0,0,0,0,,,,,,,,,,,,,,,,,0,23,23,23,,,,,,,,,,,,,,,,,,,,,,,,,,,,,,,,,,,,,,,,,,,,,,,,,,,,,,,,,,,,,,,,,,,,,,,,,,,,,1.3688271641731262,0.8499168999260291,405.0679395000916,None,ScrollDown,정답입니다,405.0679395000916,None,405.0679395000916,None,405.0679395000916,None,405.0679395000916,None,405.8292318000458,None,405.8292318000458,406.3291403000476,,,,,,,,,,,,,,,,106,2023-04-26_10h13.03.573,FishGame,2022.1.1,59.14734370262377,
,25,넌 경솔해,5,Orange,B,2.458333333333333,2.266666666666667,ScrollUp,ScrollDown,Orange.png,2,Negative,Congruent,,,,,0,0,0,0,,,,,,,,,,,,,,,,,0,24,24,24,,,,,,,,,,,,,,,,,,,,,,,,,,,,,,,,,,,,,,,,,,,,,,,,,,,,,,,,,,,,,,,,,,,,,,,,,,,,,1.817901223897934,0.6625945999985561,406.94275180005934,None,ScrollUp,정답입니다,406.94275180005934,None,406.94275180005934,None,406.94275180005934,None,406.94275180005934,None,407.51239980000537,None,407.51239980000537,408.012334600091,,,,,,,,,,,,,,,,106,2023-04-26_10h13.03.573,FishGame,2022.1.1,59.14734370262377,
,26,넌 초조해,4,Green,A,2.916666666666667,3.133333333333333,ScrollDown,ScrollUp,Green.png,2,Negative,Incongruent,,,,,0,0,0,0,,,,,,,,,,,,,,,,,0,25,25,25,,,,,,,,,,,,,,,,,,,,,,,,,,,,,,,,,,,,,,,,,,,,,,,,,,,,,,,,,,,,,,,,,,,,,,,,,,,,,1.2206790000200272,0.6481047999113798,408.615959100076,None,ScrollDown,정답입니다,408.615959100076,None,408.615959100076,None,408.615959100076,None,408.615959100076,None,409.17906250001397,None,409.17906250001397,409.6790084000677,,,,,,,,,,,,,,,,106,2023-04-26_10h13.03.573,FishGame,2022.1.1,59.14734370262377,
,27,넌 무관심해,4,Orange,B,2.833333333333333,2.9,ScrollUp,ScrollDown,Orange.png,2,Negative,Congruent,,,,,0,0,0,0,,,,,,,,,,,,,,,,,0,26,26,26,,,,,,,,,,,,,,,,,,,,,,,,,,,,,,,,,,,,,,,,,,,,,,,,,,,,,,,,,,,,,,,,,,,,,,,,,,,,,1.5478395074605942,0.6145723999943584,410.28717420005705,None,NoResponse,무응답입니다,410.28717420005705,None,410.28717420005705,None,410.28717420005705,None,410.28717420005705,None,410.81043350009713,None,410.81043350009713,411.3123872000724,,,,,,,,,,,,,,,,106,2023-04-26_10h13.03.573,FishGame,2022.1.1,59.14734370262377,
,28,넌 감성적이야,3,Orange,B,4.125,4.166666666666667,ScrollUp,ScrollDown,Orange.png,2,Neutral,Neutral,,,,,0,0,0,0,,,,,,,,,,,,,,,,,0,27,27,27,,,,,,,,,,,,,,,,,,,,,,,,,,,,,,,,,,,,,,,,,,,,,,,,,,,,,,,,,,,,,,,,,,,,,,,,,,,,,1.904320980111758,0.6978940999833867,411.91787420003675,None,ScrollUp,정답입니다,411.91787420003675,None,411.91787420003675,None,411.91787420003675,None,411.91787420003675,None,412.5289689000929,None,412.5289689000929,413.02893330005463,,,,,,,,,,,,,,,,106,2023-04-26_10h13.03.573,FishGame,2022.1.1,59.14734370262377,
,29,넌 배려심있어,1,Green,A,6.083333333333333,5.5,ScrollDown,ScrollUp,Green.png,2,Positive,Congruent,,,,,0,0,0,0,,,,,,,,,,,,,,,,,0,28,28,28,,,,,,,,,,,,,,,,,,,,,,,,,,,,,,,,,,,,,,,,,,,,,,,,,,,,,,,,,,,,,,,,,,,,,,,,,,,,,1.0586419602235158,0.8143848000327125,413.6337657000404,None,ScrollDown,정답입니다,413.6337657000404,None,413.6337657000404,None,413.6337657000404,None,413.6337657000404,None,414.3624102000613,None,414.3624102000613,414.8622383000329,,,,,,,,,,,,,,,,106,2023-04-26_10h13.03.573,FishGame,2022.1.1,59.14734370262377,
,30,넌 숨김없어,3,Green,A,4.5,4.933333333333334,ScrollDown,ScrollUp,Green.png,2,Neutral,Neutral,,,,,0,0,0,0,,,,,,,,,,,,,,,,,0,29,29,29,,,,,,,,,,,,,,,,,,,,,,,,,,,,,,,,,,,,,,,,,,,,,,,,,,,,,,,,,,,,,,,,,,,,,,,,,,,,,1.0509259402751923,0.7628086999757215,415.4697218000656,None,ScrollDown,정답입니다,415.4697218000656,None,415.4697218000656,None,415.4697218000656,None,415.4697218000656,None,416.14559530001134,None,416.14559530001134,416.6456052000867,,,,,,,,,,,,,,,,106,2023-04-26_10h13.03.573,FishGame,2022.1.1,59.14734370262377,
,31,넌 훌륭해,2,Orange,B,5.916666666666667,4.033333333333333,ScrollUp,ScrollDown,Orange.png,2,Positive,Incongruent,,,,,0,0,0,0,,,,,,,,,,,,,,,,,0,30,30,30,,,,,,,,,,,,,,,,,,,,,,,,,,,,,,,,,,,,,,,,,,,,,,,,,,,,,,,,,,,,,,,,,,,,,,,,,,,,,1.7175925920406976,0.6330773000372574,417.2573083000025,None,ScrollUp,정답입니다,417.2573083000025,None,417.2573083000025,None,417.2573083000025,None,417.2573083000025,None,417.7935212000739,None,417.7935212000739,418.29556700005196,,,,,,,,,,,,,,,,106,2023-04-26_10h13.03.573,FishGame,2022.1.1,59.14734370262377,
,32,넌 슬기로워,2,Green,A,6.166666666666667,4.1,ScrollDown,ScrollUp,Green.png,2,Positive,Congruent,,,,,0,0,0,0,,,,,,,,,,,,,,,,,0,31,31,31,,,,,,,,,,,,,,,,,,,,,,,,,,,,,,,,,,,,,,,,,,,,,,,,,,,,,,,,,,,,,,,,,,,,,,,,,,,,,1.0632716019948323,0.7829506000271067,418.9030793000711,None,ScrollDown,정답입니다,418.9030793000711,None,418.9030793000711,None,418.9030793000711,None,418.9030793000711,None,419.59552840003744,None,419.59552840003744,420.0955080999993,,,,,,,,,,,,,,,,106,2023-04-26_10h13.03.573,FishGame,2022.1.1,59.14734370262377,
,33,넌 냉혹해,5,Green,A,2.583333333333333,2.1,ScrollDown,ScrollUp,Green.png,2,Negative,Incongruent,,,,,0,0,0,0,,,,,,,,,,,,,,,,,0,32,32,32,,,,,,,,,,,,,,,,,,,,,,,,,,,,,,,,,,,,,,,,,,,,,,,,,,,,,,,,,,,,,,,,,,,,,,,,,,,,,1.1358024577299755,0.6923596999840811,420.70216710004024,None,ScrollDown,정답입니다,420.70216710004024,None,420.70216710004024,None,420.70216710004024,None,420.70216710004024,None,421.305300100008,None,421.305300100008,421.812089700019,,,,,,,,,,,,,,,,106,2023-04-26_10h13.03.573,FishGame,2022.1.1,59.14734370262377,
,34,나를 데려가줘,6,Orange,B,0,0,ScrollDown,ScrollUp,Orange.png,2,NonTarget,NonTarget,,,,,0,0,0,0,,,,,,,,,,,,,,,,,0,33,33,33,,,,,,,,,,,,,,,,,,,,,,,,,,,,,,,,,,,,,,,,,,,,,,,,,,,,,,,,,,,,,,,,,,,,,,,,,,,,,1.336419758697351,0.8482167000183836,422.41644860000815,None,ScrollDown,정답입니다,422.41644860000815,None,422.41644860000815,None,422.41644860000815,None,422.41644860000815,None,423.17670630000066,None,423.17670630000066,423.6787305000471,,,,,,,,,,,,,,,,106,2023-04-26_10h13.03.573,FishGame,2022.1.1,59.14734370262377,
,35,넌 편파적이야,5,Orange,B,2.125,2,ScrollUp,ScrollDown,Orange.png,2,Negative,Congruent,,,,,0,0,0,0,,,,,,,,,,,,,,,,,0,34,34,34,,,,,,,,,,,,,,,,,,,,,,,,,,,,,,,,,,,,,,,,,,,,,,,,,,,,,,,,,,,,,,,,,,,,,,,,,,,,,1.9135802388191223,0.8648251999402419,424.287012899993,None,ScrollUp,정답입니다,424.287012899993,None,424.287012899993,None,424.287012899993,None,424.287012899993,None,425.06213970005047,None,425.06213970005047,425.56211639998946,,,,,,,,,,,,,,,,106,2023-04-26_10h13.03.573,FishGame,2022.1.1,59.14734370262377,
,36,넌 슬퍼,4,Green,A,2.583333333333333,3.066666666666667,ScrollDown,ScrollUp,Green.png,2,Negative,Incongruent,,,,,0,0,0,0,,,,,,,,,,,,,,,,,0,35,35,35,,,,,,,,,,,,,,,,,,,,,,,,,,,,,,,,,,,,,,,,,,,,,,,,,,,,,,,,,,,,,,,,,,,,,,,,,,,,,1.1527777860562007,0.76135719998274,426.16344090003986,None,ScrollDown,정답입니다,426.16344090003986,None,426.16344090003986,None,426.16344090003986,None,426.16344090003986,None,426.83857360004913,None,426.83857360004913,427.34303710004315,,,,,,,,,,,,,,,,106,2023-04-26_10h13.03.573,FishGame,2022.1.1,59.14734370262377,
,37,나를 데려가줘,6,Orange,B,0,0,ScrollDown,ScrollUp,Orange.png,2,NonTarget,NonTarget,,,,,0,0,0,0,,,,,,,,,,,,,,,,,0,36,36,36,,,,,,,,,,,,,,,,,,,,,,,,,,,,,,,,,,,,,,,,,,,,,,,,,,,,,,,,,,,,,,,,,,,,,,,,,,,,,1.347222218910853,0.833094000001438,427.9535252000205,None,ScrollDown,정답입니다,427.9535252000205,None,427.9535252000205,None,427.9535252000205,None,427.9535252000205,None,428.69307860010304,None,428.69307860010304,429.19318360008765,,,,,,,,,,,,,,,,106,2023-04-26_10h13.03.573,FishGame,2022.1.1,59.14734370262377,
,38,넌 친절해,1,Orange,B,6.041666666666667,5.533333333333333,ScrollUp,ScrollDown,Orange.png,2,Positive,Incongruent,,,,,0,0,0,0,,,,,,,,,,,,,,,,,0,37,37,37,,,,,,,,,,,,,,,,,,,,,,,,,,,,,,,,,,,,,,,,,,,,,,,,,,,,,,,,,,,,,,,,,,,,,,,,,,,,,1.8487654278675716,0.6814864999614656,429.80496060010046,None,ScrollUp,정답입니다,429.80496060010046,None,429.80496060010046,None,429.80496060010046,None,429.80496060010046,None,430.39559840003494,None,430.39559840003494,430.8954167000484,,,,,,,,,,,,,,,,106,2023-04-26_10h13.03.573,FishGame,2022.1.1,59.14734370262377,
,1,넌 엉성해,4,Green,A,3,3.3,ScrollDown,ScrollUp,Green.png,3,Negative,Incongruent,,,,,0,0,0,0,,,,,,,,,,,,,,,,,,,,,0,0,0,0,,,,,,,,,,,,,,,,,,,,,,,,,,,,,,,,462.29461980005726,463.794803100056,463.8281591000268,464.7813693000935,464.8313291000668,465.79481180000585,465.7781471000053,None,,,,,,,,,,,,,,,,,,,,,,,,,,,,,,,,,,1.6944444452722869,0.8753219000063837,466.852827200084,None,ScrollUp,오답입니다,466.852827200084,None,466.852827200084,None,466.852827200084,None,466.852827200084,None,467.6422257000813,None,467.6422257000813,468.1422560000792,431.3954797000624,None,431.3954797000624,None,0.125,-0.12222222,1,0,0,0.016230579931288958,None,461.39509490004275,None,,,106,2023-04-26_10h13.03.573,FishGame,2022.1.1,59.14734370262377,
,2,나를 보내줘,6,Green,A,0,0,ScrollUp,ScrollDown,Green.png,3,NonTarget,NonTarget,,,,,0,0,0,0,,,,,,,,,,,,,,,,,,,,,0,1,1,1,,,,,,,,,,,,,,,,,,,,,,,,,,,,,,,,,,,,,,,,,,,,,,,,,,,,,,,,,,,,,,,,,,,,,,,,,1.9814815024534862,0.9827534999931231,468.7428256000858,None,ScrollUp,정답입니다,468.7428256000858,None,468.7428256000858,None,468.7428256000858,None,468.7428256000858,None,469.64226370002143,None,469.64226370002143,470.1446203000378,,,,,,,,,,,,,,,,106,2023-04-26_10h13.03.573,FishGame,2022.1.1,59.14734370262377,
,3,넌 활발해,1,Orange,B,5.666666666666667,5.6,ScrollUp,ScrollDown,Orange.png,3,Positive,Incongruent,,,,,0,0,0,0,,,,,,,,,,,,,,,,,,,,,0,2,2,2,,,,,,,,,,,,,,,,,,,,,,,,,,,,,,,,,,,,,,,,,,,,,,,,,,,,,,,,,,,,,,,,,,,,,,,,,1.8827160596847534,0.9814513999735937,470.75370230001863,None,ScrollUp,정답입니다,470.75370230001863,None,470.75370230001863,None,470.75370230001863,None,470.75370230001863,None,471.6447646000888,None,471.6447646000888,472.1446378000546,,,,,,,,,,,,,,,,106,2023-04-26_10h13.03.573,FishGame,2022.1.1,59.14734370262377,
,4,넌 논리적이야,2,Green,A,5.666666666666666,4.633333333333334,ScrollDown,ScrollUp,Green.png,3,Positive,Congruent,,,,,0,0,0,0,,,,,,,,,,,,,,,,,,,,,0,3,3,3,,,,,,,,,,,,,,,,,,,,,,,,,,,,,,,,,,,,,,,,,,,,,,,,,,,,,,,,,,,,,,,,,,,,,,,,,1.1635802586873372,0.6316524000139907,472.74978950002696,None,ScrollDown,정답입니다,472.74978950002696,None,472.74978950002696,None,472.74978950002696,None,472.74978950002696,None,473.2945813999977,None,473.2945813999977,473.79443380003795,,,,,,,,,,,,,,,,106,2023-04-26_10h13.03.573,FishGame,2022.1.1,59.14734370262377,
,5,넌 과묵해,3,Green,A,3.875,4.4,ScrollDown,ScrollUp,Green.png,3,Neutral,Neutral,,,,,0,0,0,0,,,,,,,,,,,,,,,,,,,,,0,4,4,4,,,,,,,,,,,,,,,,,,,,,,,,,,,,,,,,,,,,,,,,,,,,,,,,,,,,,,,,,,,,,,,,,,,,,,,,,1.2839506218830743,0.6288069000001997,474.4047615000745,None,ScrollDown,정답입니다,474.4047615000745,None,474.4047615000745,None,474.4047615000745,None,474.4047615000745,None,474.94240280007944,None,474.94240280007944,475.44441410002764,,,,,,,,,,,,,,,,106,2023-04-26_10h13.03.573,FishGame,2022.1.1,59.14734370262377,
,6,나를 데려가줘,6,Orange,B,0,0,ScrollDown,ScrollUp,Orange.png,3,NonTarget,NonTarget,,,,,0,0,0,0,,,,,,,,,,,,,,,,,,,,,0,5,5,5,,,,,,,,,,,,,,,,,,,,,,,,,,,,,,,,,,,,,,,,,,,,,,,,,,,,,,,,,,,,,,,,,,,,,,,,,1.2623456766208014,0.8309102000202984,476.05619650008157,None,ScrollDown,정답입니다,476.05619650008157,None,476.05619650008157,None,476.05619650008157,None,476.05619650008157,None,476.7922925000312,None,476.7922925000312,477.29431220004335,,,,,,,,,,,,,,,,106,2023-04-26_10h13.03.573,FishGame,2022.1.1,59.14734370262377,
,7,넌 미숙해,4,Orange,B,3,3,ScrollUp,ScrollDown,Orange.png,3,Negative,Congruent,,,,,0,0,0,0,,,,,,,,,,,,,,,,,,,,,0,6,6,6,,,,,,,,,,,,,,,,,,,,,,,,,,,,,,,,,,,,,,,,,,,,,,,,,,,,,,,,,,,,,,,,,,,,,,,,,1.6620370397965112,0.6645212000003085,477.89830780006014,None,ScrollUp,정답입니다,477.89830780006014,None,477.89830780006014,None,477.89830780006014,None,477.89830780006014,None,478.4776502000168,None,478.4776502000168,478.9776859000558,,,,,,,,,,,,,,,,106,2023-04-26_10h13.03.573,FishGame,2022.1.1,59.14734370262377,
,8,나를 보내줘,6,Green,A,0,0,ScrollUp,ScrollDown,Green.png,3,NonTarget,NonTarget,,,,,0,0,0,0,,,,,,,,,,,,,,,,,,,,,0,7,7,7,,,,,,,,,,,,,,,,,,,,,,,,,,,,,,,,,,,,,,,,,,,,,,,,,,,,,,,,,,,,,,,,,,,,,,,,,1.837962955236435,0.7481781999813393,479.5808993000537,None,ScrollUp,정답입니다,479.5808993000537,None,479.5808993000537,None,479.5808993000537,None,479.5808993000537,None,480.24448360002134,None,480.24448360002134,480.7442368000047,,,,,,,,,,,,,,,,106,2023-04-26_10h13.03.573,FishGame,2022.1.1,59.14734370262377,
,9,넌 자신만만해,3,Orange,B,4.833333333333334,4.333333333333333,ScrollUp,ScrollDown,Orange.png,3,Neutral,Neutral,,,,,0,0,0,0,,,,,,,,,,,,,,,,,,,,,0,8,8,8,,,,,,,,,,,,,,,,,,,,,,,,,,,,,,,,,,,,,,,,,,,,,,,,,,,,,,,,,,,,,,,,,,,,,,,,,1.8518518557151158,0.7812660000054166,481.34818259999156,None,ScrollUp,정답입니다,481.34818259999156,None,481.34818259999156,None,481.34818259999156,None,481.34818259999156,None,482.0442808000371,None,482.0442808000371,482.54424860002473,,,,,,,,,,,,,,,,106,2023-04-26_10h13.03.573,FishGame,2022.1.1,59.14734370262377,
,10,넌 탐욕스러워,5,Green,A,2.25,2.1,ScrollDown,ScrollUp,Green.png,3,Negative,Incongruent,,,,,0,0,0,0,,,,,,,,,,,,,,,,,,,,,0,9,9,9,,,,,,,,,,,,,,,,,,,,,,,,,,,,,,,,,,,,,,,,,,,,,,,,,,,,,,,,,,,,,,,,,,,,,,,,,1.3055555547277131,0.7146303999470547,483.15207280009054,None,ScrollDown,정답입니다,483.15207280009054,None,483.15207280009054,None,483.15207280009054,None,483.15207280009054,None,483.77555950009264,None,483.77555950009264,484.27759640000295,,,,,,,,,,,,,,,,106,2023-04-26_10h13.03.573,FishGame,2022.1.1,59.14734370262377,
,11,넌 인기있어,2,Green,A,5.458333333333333,4.5,ScrollDown,ScrollUp,Green.png,3,Positive,Congruent,,,,,0,0,0,0,,,,,,,,,,,,,,,,,,,,,0,10,10,10,,,,,,,,,,,,,,,,,,,,,,,,,,,,,,,,,,,,,,,,,,,,,,,,,,,,,,,,,,,,,,,,,,,,,,,,,1.1558641890684764,0.6294810000108555,484.8865446000127,None,ScrollDown,정답입니다,484.8865446000127,None,484.8865446000127,None,484.8865446000127,None,484.8865446000127,None,485.42521270003635,None,485.42521270003635,485.92520160006825,,,,,,,,,,,,,,,,106,2023-04-26_10h13.03.573,FishGame,2022.1.1,59.14734370262377,
,12,나를 데려가줘,6,Orange,B,0,0,ScrollDown,ScrollUp,Orange.png,3,NonTarget,NonTarget,,,,,0,0,0,0,,,,,,,,,,,,,,,,,,,,,0,11,11,11,,,,,,,,,,,,,,,,,,,,,,,,,,,,,,,,,,,,,,,,,,,,,,,,,,,,,,,,,,,,,,,,,,,,,,,,,1.387345681587855,0.9144198000431061,486.5278490000637,None,ScrollDown,정답입니다,486.5278490000637,None,486.5278490000637,None,486.5278490000637,None,486.5278490000637,None,487.35857460007537,None,487.35857460007537,487.86092730006203,,,,,,,,,,,,,,,,106,2023-04-26_10h13.03.573,FishGame,2022.1.1,59.14734370262377,
,13,넌 뛰어나,2,Orange,B,6.166666666666667,4,ScrollUp,ScrollDown,Orange.png,3,Positive,Incongruent,,,,,0,0,0,0,,,,,,,,,,,,,,,,,,,,,0,12,12,12,,,,,,,,,,,,,,,,,,,,,,,,,,,,,,,,,,,,,,,,,,,,,,,,,,,,,,,,,,,,,,,,,,,,,,,,,1.9459876318772633,0.7667895999038592,488.46899520000443,None,ScrollUp,정답입니다,488.46899520000443,None,488.46899520000443,None,488.46899520000443,None,488.46899520000443,None,489.1443244999973,None,489.1443244999973,489.6442819000222,,,,,,,,,,,,,,,,106,2023-04-26_10h13.03.573,FishGame,2022.1.1,59.14734370262377,
,14,넌 낙관적이야,1,Green,A,5.75,5.8,ScrollDown,ScrollUp,Green.png,3,Positive,Congruent,,,,,0,0,0,0,,,,,,,,,,,,,,,,,,,,,0,13,13,13,,,,,,,,,,,,,,,,,,,,,,,,,,,,,,,,,,,,,,,,,,,,,,,,,,,,,,,,,,,,,,,,,,,,,,,,,1.2515432039896646,0.614325699978508,490.2489188000327,None,ScrollDown,정답입니다,490.2489188000327,None,490.2489188000327,None,490.2489188000327,None,490.2489188000327,None,490.7754486000631,None,490.7754486000631,491.2774138000095,,,,,,,,,,,,,,,,106,2023-04-26_10h13.03.573,FishGame,2022.1.1,59.14734370262377,
,15,넌 산만해,4,Orange,B,2.695652173913043,3.033333333333333,ScrollUp,ScrollDown,Orange.png,3,Negative,Congruent,,,,,0,0,0,0,,,,,,,,,,,,,,,,,,,,,0,14,14,14,,,,,,,,,,,,,,,,,,,,,,,,,,,,,,,,,,,,,,,,,,,,,,,,,,,,,,,,,,,,,,,,,,,,,,,,,1.7145061641931534,0.664826099993661,491.8842472000979,None,ScrollUp,정답입니다,491.8842472000979,None,491.8842472000979,None,491.8842472000979,None,491.8842472000979,None,492.460775500047,None,492.460775500047,492.9607601000462,,,,,,,,,,,,,,,,106,2023-04-26_10h13.03.573,FishGame,2022.1.1,59.14734370262377,
,16,나를 보내줘,6,Green,A,0,0,ScrollUp,ScrollDown,Green.png,3,NonTarget,NonTarget,,,,,0,0,0,0,,,,,,,,,,,,,,,,,,,,,0,15,15,15,,,,,,,,,,,,,,,,,,,,,,,,,,,,,,,,,,,,,,,,,,,,,,,,,,,,,,,,,,,,,,,,,,,,,,,,,1.5709876542290053,0.8666512999916449,493.56426830007695,None,ScrollUp,정답입니다,493.56426830007695,None,493.56426830007695,None,493.56426830007695,None,493.56426830007695,None,494.3419513000408,None,494.3419513000408,494.8439568000613,,,,,,,,,,,,,,,,106,2023-04-26_10h13.03.573,FishGame,2022.1.1,59.14734370262377,
,17,넌 교활해,5,Orange,B,2.333333333333333,2.133333333333333,ScrollUp,ScrollDown,Orange.png,3,Negative,Congruent,,,,,0,0,0,0,,,,,,,,,,,,,,,,,,,,,0,16,16,16,,,,,,,,,,,,,,,,,,,,,,,,,,,,,,,,,,,,,,,,,,,,,,,,,,,,,,,,,,,,,,,,,,,,,,,,,1.7947530895471573,0.666662500007078,495.45021730009466,None,ScrollUp,정답입니다,495.45021730009466,None,495.45021730009466,None,495.45021730009466,None,495.45021730009466,None,496.02732870006,None,496.02732870006,496.5273238000227,,,,,,,,,,,,,,,,106,2023-04-26_10h13.03.573,FishGame,2022.1.1,59.14734370262377,
,18,나를 보내줘,6,Green,A,0,0,ScrollUp,ScrollDown,Green.png,3,NonTarget,NonTarget,,,,,0,0,0,0,,,,,,,,,,,,,,,,,,,,,0,17,17,17,,,,,,,,,,,,,,,,,,,,,,,,,,,,,,,,,,,,,,,,,,,,,,,,,,,,,,,,,,,,,,,,,,,,,,,,,1.4151234577099483,0.8626300999894738,497.1308517000871,None,ScrollDown,오답입니다,497.1308517000871,None,497.1308517000871,None,497.1308517000871,None,497.1308517000871,None,497.90830440004356,None,497.90830440004356,498.4082963000983,,,,,,,,,,,,,,,,106,2023-04-26_10h13.03.573,FishGame,2022.1.1,59.14734370262377,
,19,넌 불친절해,5,Orange,B,2.208333333333333,2.033333333333333,ScrollUp,ScrollDown,Orange.png,3,Negative,Congruent,,,,,0,0,0,0,,,,,,,,,,,,,,,,,,,,,0,18,18,18,,,,,,,,,,,,,,,,,,,,,,,,,,,,,,,,,,,,,,,,,,,,,,,,,,,,,,,,,,,,,,,,,,,,,,,,,1.746913582086563,0.7497399999992922,499.01288450008724,None,ScrollUp,정답입니다,499.01288450008724,None,499.01288450008724,None,499.01288450008724,None,499.01288450008724,None,499.6750072001014,None,499.6750072001014,500.17740050004795,,,,,,,,,,,,,,,,106,2023-04-26_10h13.03.573,FishGame,2022.1.1,59.14734370262377,
,20,넌 지적이야,2,Orange,B,5.75,4.366666666666666,ScrollUp,ScrollDown,Orange.png,3,Positive,Incongruent,,,,,0,0,0,0,,,,,,,,,,,,,,,,,,,,,0,19,19,19,,,,,,,,,,,,,,,,,,,,,,,,,,,,,,,,,,,,,,,,,,,,,,,,,,,,,,,,,,,,,,,,,,,,,,,,,1.6466049378116927,0.6164492000825703,500.78275310003664,None,ScrollUp,정답입니다,500.78275310003664,None,500.78275310003664,None,500.78275310003664,None,500.78275310003664,None,501.31076150003355,None,501.31076150003355,501.8106956999982,,,,,,,,,,,,,,,,106,2023-04-26_10h13.03.573,FishGame,2022.1.1,59.14734370262377,
,21,넌 우유부단해,4,Green,A,2.666666666666667,3.166666666666667,ScrollDown,ScrollUp,Green.png,3,Negative,Incongruent,,,,,0,0,0,0,,,,,,,,,,,,,,,,,,,,,0,20,20,20,,,,,,,,,,,,,,,,,,,,,,,,,,,,,,,,,,,,,,,,,,,,,,,,,,,,,,,,,,,,,,,,,,,,,,,,,1.3487654328346252,0.6665063000982627,502.42275710008107,None,ScrollDown,정답입니다,502.42275710008107,None,502.42275710008107,None,502.42275710008107,None,502.42275710008107,None,502.99182720005047,None,502.99182720005047,503.49383450008463,,,,,,,,,,,,,,,,106,2023-04-26_10h13.03.573,FishGame,2022.1.1,59.14734370262377,
,22,나를 데려가줘,6,Orange,B,0,0,ScrollDown,ScrollUp,Orange.png,3,NonTarget,NonTarget,,,,,0,0,0,0,,,,,,,,,,,,,,,,,,,,,0,21,21,21,,,,,,,,,,,,,,,,,,,,,,,,,,,,,,,,,,,,,,,,,,,,,,,,,,,,,,,,,,,,,,,,,,,,,,,,,1.6188271616895995,0.8146783000556752,504.0977569000097,None,ScrollUp,오답입니다,504.0977569000097,None,504.0977569000097,None,504.0977569000097,None,504.0977569000097,None,504.82727210002486,None,504.82727210002486,505.32718750007916,,,,,,,,,,,,,,,,106,2023-04-26_10h13.03.573,FishGame,2022.1.1,59.14734370262377,
,23,넌 성실해,1,Orange,B,6.041666666666666,5.7,ScrollUp,ScrollDown,Orange.png,3,Positive,Incongruent,,,,,0,0,0,0,,,,,,,,,,,,,,,,,,,,,0,22,22,22,,,,,,,,,,,,,,,,,,,,,,,,,,,,,,,,,,,,,,,,,,,,,,,,,,,,,,,,,,,,,,,,,,,,,,,,,1.6929012313485146,0.7426178000168875,505.94036010000855,None,ScrollUp,정답입니다,505.94036010000855,None,505.94036010000855,None,505.94036010000855,None,505.94036010000855,None,506.5914795000572,None,506.5914795000572,507.09148890001234,,,,,,,,,,,,,,,,106,2023-04-26_10h13.03.573,FishGame,2022.1.1,59.14734370262377,
,24,넌 현실주의적이야,3,Green,A,4.625,4.4,ScrollDown,ScrollUp,Green.png,3,Neutral,Neutral,,,,,0,0,0,0,,,,,,,,,,,,,,,,,,,,,0,23,23,23,,,,,,,,,,,,,,,,,,,,,,,,,,,,,,,,,,,,,,,,,,,,,,,,,,,,,,,,,,,,,,,,,,,,,,,,,1.300925925374031,0.733206000062637,507.6937656000955,None,ScrollDown,정답입니다,507.6937656000955,None,507.6937656000955,None,507.6937656000955,None,507.6937656000955,None,508.34150880004745,None,508.34150880004745,508.84384460002184,,,,,,,,,,,,,,,,106,2023-04-26_10h13.03.573,FishGame,2022.1.1,59.14734370262377,
,25,넌 진실돼,1,Green,A,6.625,5.566666666666666,ScrollDown,ScrollUp,Green.png,3,Positive,Congruent,,,,,0,0,0,0,,,,,,,,,,,,,,,,,,,,,0,24,24,24,,,,,,,,,,,,,,,,,,,,,,,,,,,,,,,,,,,,,,,,,,,,,,,,,,,,,,,,,,,,,,,,,,,,,,,,,1.1990740795930226,0.6481348999077454,509.44910890003666,None,ScrollDown,정답입니다,509.44910890003666,None,509.44910890003666,None,509.44910890003666,None,509.44910890003666,None,510.0106098999968,None,510.0106098999968,510.5105574000627,,,,,,,,,,,,,,,,106,2023-04-26_10h13.03.573,FishGame,2022.1.1,59.14734370262377,
,26,넌 천진난만해,3,Orange,B,4.958333333333334,4.833333333333333,ScrollUp,ScrollDown,Orange.png,3,Neutral,Neutral,,,,,0,0,0,0,,,,,,,,,,,,,,,,,,,,,0,25,25,25,,,,,,,,,,,,,,,,,,,,,,,,,,,,,,,,,,,,,,,,,,,,,,,,,,,,,,,,,,,,,,,,,,,,,,,,,1.658950611948967,0.6524255000986159,511.1206519000698,None,ScrollUp,정답입니다,511.1206519000698,None,511.1206519000698,None,511.1206519000698,None,511.1206519000698,None,511.6770858000964,None,511.6770858000964,512.1936771000037,,,,,,,,,,,,,,,,106,2023-04-26_10h13.03.573,FishGame,2022.1.1,59.14734370262377,
,27,넌 교양없어,5,Green,A,2.416666666666667,2.2,ScrollDown,ScrollUp,Green.png,3,Negative,Incongruent,,,,,0,0,0,0,,,,,,,,,,,,,,,,,,,,,0,26,26,26,,,,,,,,,,,,,,,,,,,,,,,,,,,,,,,,,,,,,,,,,,,,,,,,,,,,,,,,,,,,,,,,,,,,,,,,,1.2854938358068466,0.6311806999146938,512.7813166000415,None,ScrollDown,정답입니다,512.7813166000415,None,512.7813166000415,None,512.7813166000415,None,512.7813166000415,None,513.3270328000654,None,513.3270328000654,513.826977299992,,,,,,,,,,,,,,,,106,2023-04-26_10h13.03.573,FishGame,2022.1.1,59.14734370262377,
,28,나를 보내줘,6,Green,A,0,0,ScrollUp,ScrollDown,Green.png,3,NonTarget,NonTarget,,,,,0,0,0,0,,,,,,,,,,,,,,,,,,,,,0,27,27,27,,,,,,,,,,,,,,,,,,,,,,,,,,,,,,,,,,,,,,,,,,,,,,,,,,,,,,,,,,,,,,,,,,,,,,,,,1.7700617164373398,0.8640320000704378,514.429896500078,None,ScrollUp,정답입니다,514.429896500078,None,514.429896500078,None,514.429896500078,None,514.429896500078,None,515.2079457000364,None,515.2079457000364,515.7079493000638,,,,,,,,,,,,,,,,106,2023-04-26_10h13.03.573,FishGame,2022.1.1,59.14734370262377,
,29,넌 엉뚱스러워,3,Green,A,4.166666666666667,4.133333333333334,ScrollDown,ScrollUp,Green.png,3,Neutral,Neutral,,,,,0,0,0,0,,,,,,,,,,,,,,,,,,,,,0,28,28,28,,,,,,,,,,,,,,,,,,,,,,,,,,,,,,,,,,,,,,,,,,,,,,,,,,,,,,,,,,,,,,,,,,,,,,,,,1.2283950696388881,0.8331175999483094,516.3131201000651,None,ScrollDown,정답입니다,516.3131201000651,None,516.3131201000651,None,516.3131201000651,None,516.3131201000651,None,517.0579721000977,None,517.0579721000977,517.5604264000431,,,,,,,,,,,,,,,,106,2023-04-26_10h13.03.573,FishGame,2022.1.1,59.14734370262377,
,30,넌 무지해,4,Orange,B,2.541666666666667,3.066666666666667,ScrollUp,ScrollDown,Orange.png,3,Negative,Congruent,,,,,0,0,0,0,,,,,,,,,,,,,,,,,,,,,0,29,29,29,,,,,,,,,,,,,,,,,,,,,,,,,,,,,,,,,,,,,,,,,,,,,,,,,,,,,,,,,,,,,,,,,,,,,,,,,1.6450617238879204,0.6152132999850437,518.1654435000382,None,ScrollUp,정답입니다,518.1654435000382,None,518.1654435000382,None,518.1654435000382,None,518.1654435000382,None,518.6938084000722,None,518.6938084000722,519.1937957000919,,,,,,,,,,,,,,,,106,2023-04-26_10h13.03.573,FishGame,2022.1.1,59.14734370262377,
,31,넌 음울해,5,Orange,B,2.25,2.233333333333333,ScrollUp,ScrollDown,Orange.png,3,Negative,Congruent,,,,,0,0,0,0,,,,,,,,,,,,,,,,,,,,,0,30,30,30,,,,,,,,,,,,,,,,,,,,,,,,,,,,,,,,,,,,,,,,,,,,,,,,,,,,,,,,,,,,,,,,,,,,,,,,,1.589506171643734,0.5999845999758691,519.8026069999905,None,ScrollUp,정답입니다,519.8026069999905,None,519.8026069999905,None,519.8026069999905,None,519.8026069999905,None,520.3101436001016,None,520.3101436001016,520.8101864000782,,,,,,,,,,,,,,,,106,2023-04-26_10h13.03.573,FishGame,2022.1.1,59.14734370262377,
,32,넌 냉소적이야,5,Green,A,2.916666666666667,2.4,ScrollDown,ScrollUp,Green.png,3,Negative,Incongruent,,,,,0,0,0,0,,,,,,,,,,,,,,,,,,,,,0,31,31,31,,,,,,,,,,,,,,,,,,,,,,,,,,,,,,,,,,,,,,,,,,,,,,,,,,,,,,,,,,,,,,,,,,,,,,,,,1.2206790000200272,0.5460022001061589,521.4179163000081,None,ScrollDown,정답입니다,521.4179163000081,None,521.4179163000081,None,521.4179163000081,None,521.4179163000081,None,521.8769347000634,None,521.8769347000634,522.3768219000194,,,,,,,,,,,,,,,,106,2023-04-26_10h13.03.573,FishGame,2022.1.1,59.14734370262377,
,33,나를 데려가줘,6,Orange,B,0,0,ScrollDown,ScrollUp,Orange.png,3,NonTarget,NonTarget,,,,,0,0,0,0,,,,,,,,,,,,,,,,,,,,,0,32,32,32,,,,,,,,,,,,,,,,,,,,,,,,,,,,,,,,,,,,,,,,,,,,,,,,,,,,,,,,,,,,,,,,,,,,,,,,,1.2453703731298447,0.7976639000698924,522.9816667000996,None,ScrollDown,정답입니다,522.9816667000996,None,522.9816667000996,None,522.9816667000996,None,522.9816667000996,None,523.6935270000249,None,523.6935270000249,524.1933754000347,,,,,,,,,,,,,,,,106,2023-04-26_10h13.03.573,FishGame,2022.1.1,59.14734370262377,
,34,넌 쾌활해,1,Green,A,5.541666666666666,5.733333333333333,ScrollDown,ScrollUp,Green.png,3,Positive,Congruent,,,,,0,0,0,0,,,,,,,,,,,,,,,,,,,,,0,33,33,33,,,,,,,,,,,,,,,,,,,,,,,,,,,,,,,,,,,,,,,,,,,,,,,,,,,,,,,,,,,,,,,,,,,,,,,,,1.2299382835626602,0.6834905999712646,524.7988888000837,None,ScrollDown,정답입니다,524.7988888000837,None,524.7988888000837,None,524.7988888000837,None,524.7988888000837,None,525.3913169000298,None,525.3913169000298,525.8933962000301,,,,,,,,,,,,,,,,106,2023-04-26_10h13.03.573,FishGame,2022.1.1,59.14734370262377,
,35,나를 보내줘,6,Green,A,0,0,ScrollUp,ScrollDown,Green.png,3,NonTarget,NonTarget,,,,,0,0,0,0,,,,,,,,,,,,,,,,,,,,,0,34,34,34,,,,,,,,,,,,,,,,,,,,,,,,,,,,,,,,,,,,,,,,,,,,,,,,,,,,,,,,,,,,,,,,,,,,,,,,,1.5925925932824612,0.6646861999761313,526.4948120000772,None,ScrollUp,정답입니다,526.4948120000772,None,526.4948120000772,None,526.4948120000772,None,526.4948120000772,None,527.0767206000164,None,527.0767206000164,527.5767201000126,,,,,,,,,,,,,,,,106,2023-04-26_10h13.03.573,FishGame,2022.1.1,59.14734370262377,
,36,넌 명랑해,1,Orange,B,5.739130434782609,5.666666666666667,ScrollUp,ScrollDown,Orange.png,3,Positive,Incongruent,,,,,0,0,0,0,,,,,,,,,,,,,,,,,,,,,0,35,35,35,,,,,,,,,,,,,,,,,,,,,,,,,,,,,,,,,,,,,,,,,,,,,,,,,,,,,,,,,,,,,,,,,,,,,,,,,1.6172839477658272,0.5789316999725997,528.1861150000477,None,ScrollUp,정답입니다,528.1861150000477,None,528.1861150000477,None,528.1861150000477,None,528.1861150000477,None,528.6743576000445,None,528.6743576000445,529.1743484000908,,,,,,,,,,,,,,,,106,2023-04-26_10h13.03.573,FishGame,2022.1.1,59.14734370262377,
,37,넌 멍해,4,Green,A,2.833333333333333,3.4,ScrollDown,ScrollUp,Green.png,3,Negative,Incongruent,,,,,0,0,0,0,,,,,,,,,,,,,,,,,,,,,0,36,36,36,,,,,,,,,,,,,,,,,,,,,,,,,,,,,,,,,,,,,,,,,,,,,,,,,,,,,,,,,,,,,,,,,,,,,,,,,1.2932098805904388,0.6949504999211058,529.7811845000833,None,ScrollDown,정답입니다,529.7811845000833,None,529.7811845000833,None,529.7811845000833,None,529.7811845000833,None,530.3910436000442,None,530.3910436000442,530.891026700032,,,,,,,,,,,,,,,,106,2023-04-26_10h13.03.573,FishGame,2022.1.1,59.14734370262377,
,38,나를 데려가줘,6,Orange,B,0,0,ScrollDown,ScrollUp,Orange.png,3,NonTarget,NonTarget,,,,,0,0,0,0,,,,,,,,,,,,,,,,,,,,,0,37,37,37,,,,,,,,,,,,,,,,,,,,,,,,,,,,,,,,,,,,,,,,,,,,,,,,,,,,,,,,,,,,,,,,,,,,,,,,,1.435185182839632,0.7167248000623658,531.4983397000469,None,ScrollDown,정답입니다,531.4983397000469,None,531.4983397000469,None,531.4983397000469,None,531.4983397000469,None,532.1268173001008,None,532.1268173001008,532.6267257001018,,,,,,,,,,,,,,,,106,2023-04-26_10h13.03.573,FishGame,2022.1.1,59.14734370262377,
,39,넌 현명해,2,Green,A,6.541666666666666,4.533333333333333,ScrollDown,ScrollUp,Green.png,3,Positive,Congruent,,,,,0,0,0,0,,,,,,,,,,,,,,,,,,,,,0,38,38,38,,,,,,,,,,,,,,,,,,,,,,,,,,,,,,,,,,,,,,,,,,,,,,,,,,,,,,,,,,,,,,,,,,,,,,,,,1.1975308656692505,1.5466287999879569,533.2305052001029,None,ScrollDown,정답입니다,533.2305052001029,None,533.2305052001029,None,533.2305052001029,None,533.2305052001029,None,534.6909225001,None,534.6909225001,535.1908913000952,,,,,,,,,,,,,,,,106,2023-04-26_10h13.03.573,FishGame,2022.1.1,59.14734370262377,
,40,넌 수줍어,3,Orange,B,3.541666666666666,4.366666666666666,ScrollUp,ScrollDown,Orange.png,3,Neutral,Neutral,,,,,0,0,0,0,,,,,,,,,,,,,,,,,,,,,0,39,39,39,,,,,,,,,,,,,,,,,,,,,,,,,,,,,,,,,,,,,,,,,,,,,,,,,,,,,,,,,,,,,,,,,,,,,,,,,1.5632716032365956,0.5797766000032425,535.7965408000164,None,ScrollUp,정답입니다,535.7965408000164,None,535.7965408000164,None,535.7965408000164,None,535.7965408000164,None,536.2908587000566,None,536.2908587000566,536.7909889000002,,,,,,,,,,,,,,,,106,2023-04-26_10h13.03.573,FishGame,2022.1.1,59.14734370262377,
,41,나를 데려가줘,6,Orange,B,0,0,ScrollDown,ScrollUp,Orange.png,3,NonTarget,NonTarget,,,,,0,0,0,0,,,,,,,,,,,,,,,,,,,,,0,40,40,40,,,,,,,,,,,,,,,,,,,,,,,,,,,,,,,,,,,,,,,,,,,,,,,,,,,,,,,,,,,,,,,,,,,,,,,,,1.387345681587855,0.8146157000446692,537.3985874000937,None,ScrollDown,정답입니다,537.3985874000937,None,537.3985874000937,None,537.3985874000937,None,537.3985874000937,None,538.1266463000793,None,538.1266463000793,538.6266008000821,,,,,,,,,,,,,,,,106,2023-04-26_10h13.03.573,FishGame,2022.1.1,59.14734370262377,
,42,넌 성숙해,2,Orange,B,5.833333333333333,4.533333333333333,ScrollUp,ScrollDown,Orange.png,3,Positive,Incongruent,,,,,0,0,0,0,,,,,,,,,,,,,,,,,,,,,0,41,41,41,,,,,,,,,,,,,,,,,,,,,,,,,,,,,,,,,,,,,,,,,,,,,,,,,,,,,,,,,,,,,,,,,,,,,,,,,1.182098776102066,0.7992054000496864,539.233357100049,None,ScrollDown,오답입니다,539.233357100049,None,539.233357100049,None,539.233357100049,None,539.233357100049,None,539.9433455000399,None,539.9433455000399,540.4464056000579,,,,,,,,,,,,,,,,106,2023-04-26_10h13.03.573,FishGame,2022.1.1,59.14734370262377,
,1,넌 매력적이야,2,Orange,B,6.125,4.666666666666667,ScrollUp,ScrollDown,Orange.png,4,Positive,Incongruent,,,,,0,0,0,0,,,,,,,,,,,,,,,,,,,,,,,,,0,0,0,0,,,,,,,,,,,,,,,,,,,,,,,,,,,,572.3091377000092,573.8092673000647,573.8426262000576,574.7957430999959,574.8290853000944,575.7931351000443,575.7931351000443,None,,,,,,,,,,,,,,,,,,,,,,,,,,,,,,,,,,2,0.9357673999620602,576.8818786999909,None,ScrollUp,정답입니다,576.8818786999909,None,576.8818786999909,None,576.8818786999909,None,576.8818786999909,None,577.7234022000339,None,577.7234022000339,578.2234359000577,540.943096300005,None,540.943096300005,None,0.09259259,-0.075925924,1,0,0,0.016257779905572534,None,570.9423806000268,None,,,106,2023-04-26_10h13.03.573,FishGame,2022.1.1,59.14734370262377,
,2,나를 보내줘,6,Green,A,0,0,ScrollUp,ScrollDown,Green.png,4,NonTarget,NonTarget,,,,,0,0,0,0,,,,,,,,,,,,,,,,,,,,,,,,,0,1,1,1,,,,,,,,,,,,,,,,,,,,,,,,,,,,,,,,,,,,,,,,,,,,,,,,,,,,,,,,,,,,,,,,,,,,,1.8487654278675716,0.9143020000774413,578.8233071001014,None,ScrollUp,정답입니다,578.8233071001014,None,578.8233071001014,None,578.8233071001014,None,578.8233071001014,None,579.6567366000963,None,579.6567366000963,580.1591491000727,,,,,,,,,,,,,,,,106,2023-04-26_10h13.03.573,FishGame,2022.1.1,59.14734370262377,
,3,넌 조심스러워,3,Green,A,4.791666666666666,4.666666666666667,ScrollDown,ScrollUp,Green.png,4,Neutral,Neutral,,,,,0,0,0,0,,,,,,,,,,,,,,,,,,,,,,,,,0,2,2,2,,,,,,,,,,,,,,,,,,,,,,,,,,,,,,,,,,,,,,,,,,,,,,,,,,,,,,,,,,,,,,,,,,,,,1.256172845760981,0.5667453000787646,580.7636672999943,None,ScrollDown,정답입니다,580.7636672999943,None,580.7636672999943,None,580.7636672999943,None,580.7636672999943,None,581.242625700077,None,581.242625700077,581.7424372000387,,,,,,,,,,,,,,,,106,2023-04-26_10h13.03.573,FishGame,2022.1.1,59.14734370262377,
,4,넌 철학적이야,3,Orange,B,4.5,4.266666666666667,ScrollUp,ScrollDown,Orange.png,4,Neutral,Neutral,,,,,0,0,0,0,,,,,,,,,,,,,,,,,,,,,,,,,0,3,3,3,,,,,,,,,,,,,,,,,,,,,,,,,,,,,,,,,,,,,,,,,,,,,,,,,,,,,,,,,,,,,,,,,,,,,2,0.8757209000177681,582.3583540000254,None,ScrollUp,정답입니다,582.3583540000254,None,582.3583540000254,None,582.3583540000254,None,582.3583540000254,None,583.139937400003,None,583.139937400003,583.6399852000177,,,,,,,,,,,,,,,,106,2023-04-26_10h13.03.573,FishGame,2022.1.1,59.14734370262377,
,5,넌 쩨쩨해,5,Green,A,2.375,2.133333333333333,ScrollDown,ScrollUp,Green.png,4,Negative,Incongruent,,,,,0,0,0,0,,,,,,,,,,,,,,,,,,,,,,,,,0,4,4,4,,,,,,,,,,,,,,,,,,,,,,,,,,,,,,,,,,,,,,,,,,,,,,,,,,,,,,,,,,,,,,,,,,,,,1.256172845760981,0.6295682000927627,584.2465660000453,None,ScrollDown,정답입니다,584.2465660000453,None,584.2465660000453,None,584.2465660000453,None,584.2465660000453,None,584.7899563000537,None,584.7899563000537,585.2927765999921,,,,,,,,,,,,,,,,106,2023-04-26_10h13.03.573,FishGame,2022.1.1,59.14734370262377,
,6,나를 데려가줘,6,Orange,B,0,0,ScrollDown,ScrollUp,Orange.png,4,NonTarget,NonTarget,,,,,0,0,0,0,,,,,,,,,,,,,,,,,,,,,,,,,0,5,5,5,,,,,,,,,,,,,,,,,,,,,,,,,,,,,,,,,,,,,,,,,,,,,,,,,,,,,,,,,,,,,,,,,,,,,1.5987654303510985,0.8331329999491572,585.8961807000451,None,ScrollUp,오답입니다,585.8961807000451,None,585.8961807000451,None,585.8961807000451,None,585.8961807000451,None,586.6423382000066,None,586.6423382000066,587.142339700018,,,,,,,,,,,,,,,,106,2023-04-26_10h13.03.573,FishGame,2022.1.1,59.14734370262377,
,7,넌 고집불통이야,5,Orange,B,2.875,2,ScrollUp,ScrollDown,Orange.png,4,Negative,Congruent,,,,,0,0,0,0,,,,,,,,,,,,,,,,,,,,,,,,,0,6,6,6,,,,,,,,,,,,,,,,,,,,,,,,,,,,,,,,,,,,,,,,,,,,,,,,,,,,,,,,,,,,,,,,,,,,,1.5555555584530034,0.7609151999931782,587.7588813999901,None,ScrollUp,정답입니다,587.7588813999901,None,587.7588813999901,None,587.7588813999901,None,587.7588813999901,None,588.4231869000942,None,588.4231869000942,588.9232716000406,,,,,,,,,,,,,,,,106,2023-04-26_10h13.03.573,FishGame,2022.1.1,59.14734370262377,
,8,넌 무심해,4,Green,A,2.875,3.2,ScrollDown,ScrollUp,Green.png,4,Negative,Incongruent,,,,,0,0,0,0,,,,,,,,,,,,,,,,,,,,,,,,,0,7,7,7,,,,,,,,,,,,,,,,,,,,,,,,,,,,,,,,,,,,,,,,,,,,,,,,,,,,,,,,,,,,,,,,,,,,,1.2824074079593024,0.6478124000132084,589.5243374001002,None,ScrollDown,정답입니다,589.5243374001002,None,589.5243374001002,None,589.5243374001002,None,589.5243374001002,None,590.0898319000844,None,590.0898319000844,590.5898247000296,,,,,,,,,,,,,,,,106,2023-04-26_10h13.03.573,FishGame,2022.1.1,59.14734370262377,
,9,넌 정겨워,1,Green,A,5.791666666666667,5.666666666666667,ScrollDown,ScrollUp,Green.png,4,Positive,Congruent,,,,,0,0,0,0,,,,,,,,,,,,,,,,,,,,,,,,,0,8,8,8,,,,,,,,,,,,,,,,,,,,,,,,,,,,,,,,,,,,,,,,,,,,,,,,,,,,,,,,,,,,,,,,,,,,,1.2114197413126628,0.6836689999327064,591.1940359000582,None,ScrollDown,정답입니다,591.1940359000582,None,591.1940359000582,None,591.1940359000582,None,591.1940359000582,None,591.7922725999961,None,591.7922725999961,592.2922058000695,,,,,,,,,,,,,,,,106,2023-04-26_10h13.03.573,FishGame,2022.1.1,59.14734370262377,
,10,나를 데려가줘,6,Orange,B,0,0,ScrollDown,ScrollUp,Orange.png,4,NonTarget,NonTarget,,,,,0,0,0,0,,,,,,,,,,,,,,,,,,,,,,,,,0,9,9,9,,,,,,,,,,,,,,,,,,,,,,,,,,,,,,,,,,,,,,,,,,,,,,,,,,,,,,,,,,,,,,,,,,,,,1.3441358034809432,0.7979411999695003,592.8972575000953,None,ScrollDown,정답입니다,592.8972575000953,None,592.8972575000953,None,592.8972575000953,None,592.8972575000953,None,593.6088983000955,None,593.6088983000955,594.108890100033,,,,,,,,,,,,,,,,106,2023-04-26_10h13.03.573,FishGame,2022.1.1,59.14734370262377,
,11,넌 체제순응적이야,4,Orange,B,3,3.6,ScrollUp,ScrollDown,Orange.png,4,Negative,Congruent,,,,,0,0,0,0,,,,,,,,,,,,,,,,,,,,,,,,,0,10,10,10,,,,,,,,,,,,,,,,,,,,,,,,,,,,,,,,,,,,,,,,,,,,,,,,,,,,,,,,,,,,,,,,,,,,,1.4845679011195898,0.6780586999375373,594.7254157999996,None,NoResponse,무응답입니다,594.7254157999996,None,594.7254157999996,None,594.7254157999996,None,594.7254157999996,None,595.3066832000623,None,595.3066832000623,595.8086933000013,,,,,,,,,,,,,,,,106,2023-04-26_10h13.03.573,FishGame,2022.1.1,59.14734370262377,
,12,나를 보내줘,6,Green,A,0,0,ScrollUp,ScrollDown,Green.png,4,NonTarget,NonTarget,,,,,0,0,0,0,,,,,,,,,,,,,,,,,,,,,,,,,0,11,11,11,,,,,,,,,,,,,,,,,,,,,,,,,,,,,,,,,,,,,,,,,,,,,,,,,,,,,,,,,,,,,,,,,,,,,1.6666666691501937,0.7931455998914316,596.4193257000297,None,ScrollUp,정답입니다,596.4193257000297,None,596.4193257000297,None,596.4193257000297,None,596.4193257000297,None,597.1230106001021,None,597.1230106001021,597.6230145000154,,,,,,,,,,,,,,,,106,2023-04-26_10h13.03.573,FishGame,2022.1.1,59.14734370262377,
,13,넌 박식해,2,Green,A,5.625,3.933333333333333,ScrollDown,ScrollUp,Green.png,4,Positive,Congruent,,,,,0,0,0,0,,,,,,,,,,,,,,,,,,,,,,,,,0,12,12,12,,,,,,,,,,,,,,,,,,,,,,,,,,,,,,,,,,,,,,,,,,,,,,,,,,,,,,,,,,,,,,,,,,,,,1.1450617164373398,0.7321809000568464,598.2287867000559,None,ScrollDown,정답입니다,598.2287867000559,None,598.2287867000559,None,598.2287867000559,None,598.2287867000559,None,598.8730065000709,None,598.8730065000709,599.3753948000958,,,,,,,,,,,,,,,,106,2023-04-26_10h13.03.573,FishGame,2022.1.1,59.14734370262377,
,14,나를 보내줘,6,Green,A,0,0,ScrollUp,ScrollDown,Green.png,4,NonTarget,NonTarget,,,,,0,0,0,0,,,,,,,,,,,,,,,,,,,,,,,,,0,13,13,13,,,,,,,,,,,,,,,,,,,,,,,,,,,,,,,,,,,,,,,,,,,,,,,,,,,,,,,,,,,,,,,,,,,,,1.839506169160207,0.8145155999809504,599.9775685000932,None,ScrollUp,정답입니다,599.9775685000932,None,599.9775685000932,None,599.9775685000932,None,599.9775685000932,None,600.7087507999968,None,600.7087507999968,601.2087090000277,,,,,,,,,,,,,,,,106,2023-04-26_10h13.03.573,FishGame,2022.1.1,59.14734370262377,
,15,넌 침착해,1,Orange,B,5.458333333333333,5.566666666666666,ScrollUp,ScrollDown,Orange.png,4,Positive,Incongruent,,,,,0,0,0,0,,,,,,,,,,,,,,,,,,,,,,,,,0,14,14,14,,,,,,,,,,,,,,,,,,,,,,,,,,,,,,,,,,,,,,,,,,,,,,,,,,,,,,,,,,,,,,,,,,,,,1.4938271606030564,0.9497393999481574,601.8167507000035,None,NoResponse,무응답입니다,601.8167507000035,None,601.8167507000035,None,601.8167507000035,None,601.8167507000035,None,602.6753100000788,None,602.6753100000788,603.1751935000066,,,,,,,,,,,,,,,,106,2023-04-26_10h13.03.573,FishGame,2022.1.1,59.14734370262377,
,16,나를 데려가줘,6,Orange,B,0,0,ScrollDown,ScrollUp,Orange.png,4,NonTarget,NonTarget,,,,,0,0,0,0,,,,,,,,,,,,,,,,,,,,,,,,,0,15,15,15,,,,,,,,,,,,,,,,,,,,,,,,,,,,,,,,,,,,,,,,,,,,,,,,,,,,,,,,,,,,,,,,,,,,,1.2237654278675716,0.8816222000168636,603.7865767000476,None,ScrollDown,정답입니다,603.7865767000476,None,603.7865767000476,None,603.7865767000476,None,603.7865767000476,None,604.5752472000895,None,604.5752472000895,605.0751727001043,,,,,,,,,,,,,,,,106,2023-04-26_10h13.03.573,FishGame,2022.1.1,59.14734370262377,
,17,넌 행복해,1,Green,A,6.416666666666666,6.166666666666667,ScrollDown,ScrollUp,Green.png,4,Positive,Congruent,,,,,0,0,0,0,,,,,,,,,,,,,,,,,,,,,,,,,0,16,16,16,,,,,,,,,,,,,,,,,,,,,,,,,,,,,,,,,,,,,,,,,,,,,,,,,,,,,,,,,,,,,,,,,,,,,1.1913580348094304,0.7974829999729991,605.6800472000614,None,ScrollDown,정답입니다,605.6800472000614,None,605.6800472000614,None,605.6800472000614,None,605.6800472000614,None,606.3894709000597,None,606.3894709000597,606.8901457000757,,,,,,,,,,,,,,,,106,2023-04-26_10h13.03.573,FishGame,2022.1.1,59.14734370262377,
,18,넌 겸손해,2,Orange,B,5.791666666666667,4.766666666666667,ScrollUp,ScrollDown,Orange.png,4,Positive,Incongruent,,,,,0,0,0,0,,,,,,,,,,,,,,,,,,,,,,,,,0,17,17,17,,,,,,,,,,,,,,,,,,,,,,,,,,,,,,,,,,,,,,,,,,,,,,,,,,,,,,,,,,,,,,,,,,,,,1.9290123283863068,0.5996399000287056,607.4972156001022,None,ScrollUp,정답입니다,607.4972156001022,None,607.4972156001022,None,607.4972156001022,None,607.4972156001022,None,608.0061546000652,None,608.0061546000652,608.5085995000554,,,,,,,,,,,,,,,,106,2023-04-26_10h13.03.573,FishGame,2022.1.1,59.14734370262377,
,19,나를 보내줘,6,Green,A,0,0,ScrollUp,ScrollDown,Green.png,4,NonTarget,NonTarget,,,,,0,0,0,0,,,,,,,,,,,,,,,,,,,,,,,,,0,18,18,18,,,,,,,,,,,,,,,,,,,,,,,,,,,,,,,,,,,,,,,,,,,,,,,,,,,,,,,,,,,,,,,,,,,,,1.8009259204069774,0.6812737999716774,609.1126191000221,None,ScrollUp,정답입니다,609.1126191000221,None,609.1126191000221,None,609.1126191000221,None,609.1126191000221,None,609.7085466000717,None,609.7085466000717,610.2085092000198,,,,,,,,,,,,,,,,106,2023-04-26_10h13.03.573,FishGame,2022.1.1,59.14734370262377,
,20,넌 의심없어,3,Green,A,4.166666666666667,4.6,ScrollDown,ScrollUp,Green.png,4,Neutral,Neutral,,,,,0,0,0,0,,,,,,,,,,,,,,,,,,,,,,,,,0,19,19,19,,,,,,,,,,,,,,,,,,,,,,,,,,,,,,,,,,,,,,,,,,,,,,,,,,,,,,,,,,,,,,,,,,,,,1.5956790149211884,1.0161541999550536,610.8113670001039,None,ScrollUp,오답입니다,610.8113670001039,None,610.8113670001039,None,610.8113670001039,None,610.8113670001039,None,611.7417087000795,None,611.7417087000795,612.2416701000184,,,,,,,,,,,,,,,,106,2023-04-26_10h13.03.573,FishGame,2022.1.1,59.14734370262377,
,21,넌 시시해,4,Green,A,2.666666666666667,2.966666666666667,ScrollDown,ScrollUp,Green.png,4,Negative,Incongruent,,,,,0,0,0,0,,,,,,,,,,,,,,,,,,,,,,,,,0,20,20,20,,,,,,,,,,,,,,,,,,,,,,,,,,,,,,,,,,,,,,,,,,,,,,,,,,,,,,,,,,,,,,,,,,,,,1.1388888855775197,0.7644907000940293,612.8449285000097,None,ScrollDown,정답입니다,612.8449285000097,None,612.8449285000097,None,612.8449285000097,None,612.8449285000097,None,613.5250676000724,None,613.5250676000724,614.0249912000727,,,,,,,,,,,,,,,,106,2023-04-26_10h13.03.573,FishGame,2022.1.1,59.14734370262377,
,22,나를 데려가줘,6,Orange,B,0,0,ScrollDown,ScrollUp,Orange.png,4,NonTarget,NonTarget,,,,,0,0,0,0,,,,,,,,,,,,,,,,,,,,,,,,,0,21,21,21,,,,,,,,,,,,,,,,,,,,,,,,,,,,,,,,,,,,,,,,,,,,,,,,,,,,,,,,,,,,,,,,,,,,,1.2623456766208014,1.0130306000355631,614.6346973000327,None,ScrollDown,정답입니다,614.6346973000327,None,614.6346973000327,None,614.6346973000327,None,614.6346973000327,None,615.5582025999902,None,615.5582025999902,616.0582385000307,,,,,,,,,,,,,,,,106,2023-04-26_10h13.03.573,FishGame,2022.1.1,59.14734370262377,
,23,넌 무정해,5,Green,A,2.5,2.2,ScrollDown,ScrollUp,Green.png,4,Negative,Incongruent,,,,,0,0,0,0,,,,,,,,,,,,,,,,,,,,,,,,,0,22,22,22,,,,,,,,,,,,,,,,,,,,,,,,,,,,,,,,,,,,,,,,,,,,,,,,,,,,,,,,,,,,,,,,,,,,,1.2885802388191223,0.8295615999959409,616.6622129000025,None,ScrollDown,정답입니다,616.6622129000025,None,616.6622129000025,None,616.6622129000025,None,616.6622129000025,None,617.4059298000066,None,617.4059298000066,617.9059093000833,,,,,,,,,,,,,,,,106,2023-04-26_10h13.03.573,FishGame,2022.1.1,59.14734370262377,
,24,넌 긍정적이야,1,Orange,B,6.041666666666667,6.066666666666666,ScrollUp,ScrollDown,Orange.png,4,Positive,Incongruent,,,,,0,0,0,0,,,,,,,,,,,,,,,,,,,,,,,,,0,23,23,23,,,,,,,,,,,,,,,,,,,,,,,,,,,,,,,,,,,,,,,,,,,,,,,,,,,,,,,,,,,,,,,,,,,,,1.959876557191213,0.6832929999800399,618.5128954000538,None,ScrollUp,정답입니다,618.5128954000538,None,618.5128954000538,None,618.5128954000538,None,618.5128954000538,None,619.1059596000705,None,619.1059596000705,619.6059353000019,,,,,,,,,,,,,,,,106,2023-04-26_10h13.03.573,FishGame,2022.1.1,59.14734370262377,
,25,나를 보내줘,6,Green,A,0,0,ScrollUp,ScrollDown,Green.png,4,NonTarget,NonTarget,,,,,0,0,0,0,,,,,,,,,,,,,,,,,,,,,,,,,0,24,24,24,,,,,,,,,,,,,,,,,,,,,,,,,,,,,,,,,,,,,,,,,,,,,,,,,,,,,,,,,,,,,,,,,,,,,1.9089506218830745,0.8812448000535369,620.2110221000621,None,ScrollUp,정답입니다,620.2110221000621,None,620.2110221000621,None,620.2110221000621,None,620.2110221000621,None,621.0083785000024,None,621.0083785000024,621.5083226000424,,,,,,,,,,,,,,,,106,2023-04-26_10h13.03.573,FishGame,2022.1.1,59.14734370262377,
,26,넌 시기심이 많아,5,Orange,B,2.458333333333333,2.233333333333333,ScrollUp,ScrollDown,Orange.png,4,Negative,Congruent,,,,,0,0,0,0,,,,,,,,,,,,,,,,,,,,,,,,,0,25,25,25,,,,,,,,,,,,,,,,,,,,,,,,,,,,,,,,,,,,,,,,,,,,,,,,,,,,,,,,,,,,,,,,,,,,,1.7160493781169257,0.7277042999630794,622.1272346000187,None,ScrollUp,정답입니다,622.1272346000187,None,622.1272346000187,None,622.1272346000187,None,622.1272346000187,None,622.7558400999987,None,622.7558400999987,623.2557976000244,,,,,,,,,,,,,,,,106,2023-04-26_10h13.03.573,FishGame,2022.1.1,59.14734370262377,
,27,넌 탁월해,2,Green,A,5.708333333333334,4.5,ScrollDown,ScrollUp,Green.png,4,Positive,Congruent,,,,,0,0,0,0,,,,,,,,,,,,,,,,,,,,,,,,,0,26,26,26,,,,,,,,,,,,,,,,,,,,,,,,,,,,,,,,,,,,,,,,,,,,,,,,,,,,,,,,,,,,,,,,,,,,,1.256172845760981,0.5822481999639422,623.9196762000211,None,ScrollDown,정답입니다,623.9196762000211,None,623.9196762000211,None,623.9196762000211,None,623.9196762000211,None,624.3558521000668,None,624.3558521000668,624.8558307000203,,,,,,,,,,,,,,,,106,2023-04-26_10h13.03.573,FishGame,2022.1.1,59.14734370262377,
,28,나를 데려가줘,6,Orange,B,0,0,ScrollDown,ScrollUp,Orange.png,4,NonTarget,NonTarget,,,,,0,0,0,0,,,,,,,,,,,,,,,,,,,,,,,,,0,27,27,27,,,,,,,,,,,,,,,,,,,,,,,,,,,,,,,,,,,,,,,,,,,,,,,,,,,,,,,,,,,,,,,,,,,,,1.3503086467583976,0.8498293999582529,625.4634512000484,None,ScrollDown,정답입니다,625.4634512000484,None,625.4634512000484,None,625.4634512000484,None,625.4634512000484,None,626.2249014000408,None,626.2249014000408,626.7248333001044,,,,,,,,,,,,,,,,106,2023-04-26_10h13.03.573,FishGame,2022.1.1,59.14734370262377,
,29,넌 조용해,3,Orange,B,4.333333333333333,4.166666666666667,ScrollUp,ScrollDown,Orange.png,4,Neutral,Neutral,,,,,0,0,0,0,,,,,,,,,,,,,,,,,,,,,,,,,0,28,28,28,,,,,,,,,,,,,,,,,,,,,,,,,,,,,,,,,,,,,,,,,,,,,,,,,,,,,,,,,,,,,,,,,,,,,1.7901234477758408,0.9157042000442743,627.334146700101,None,ScrollUp,정답입니다,627.334146700101,None,627.334146700101,None,627.334146700101,None,627.334146700101,None,628.1580313000595,None,628.1580313000595,628.6580363000976,,,,,,,,,,,,,,,,106,2023-04-26_10h13.03.573,FishGame,2022.1.1,59.14734370262377,
,30,넌 다정해,1,Green,A,5.833333333333334,5.7,ScrollDown,ScrollUp,Green.png,4,Positive,Congruent,,,,,0,0,0,0,,,,,,,,,,,,,,,,,,,,,,,,,0,29,29,29,,,,,,,,,,,,,,,,,,,,,,,,,,,,,,,,,,,,,,,,,,,,,,,,,,,,,,,,,,,,,,,,,,,,,1.09413580596447,0.7291147999931127,629.2616179001052,None,ScrollDown,정답입니다,629.2616179001052,None,629.2616179001052,None,629.2616179001052,None,629.2616179001052,None,629.9080735000316,None,629.9080735000316,630.4111279000062,,,,,,,,,,,,,,,,106,2023-04-26_10h13.03.573,FishGame,2022.1.1,59.14734370262377,
,31,넌 능력있어,2,Orange,B,6.166666666666666,4.6,ScrollUp,ScrollDown,Orange.png,4,Positive,Incongruent,,,,,0,0,0,0,,,,,,,,,,,,,,,,,,,,,,,,,0,30,30,30,,,,,,,,,,,,,,,,,,,,,,,,,,,,,,,,,,,,,,,,,,,,,,,,,,,,,,,,,,,,,,,,,,,,,1.8858024626970291,0.6958300000987947,631.0124320000177,None,ScrollUp,정답입니다,631.0124320000177,None,631.0124320000177,None,631.0124320000177,None,631.0124320000177,None,631.6246034000069,None,631.6246034000069,632.1245520000812,,,,,,,,,,,,,,,,106,2023-04-26_10h13.03.573,FishGame,2022.1.1,59.14734370262377,
,32,넌 불쾌해,5,Green,A,2.125,1.933333333333333,ScrollDown,ScrollUp,Green.png,4,Negative,Incongruent,,,,,0,0,0,0,,,,,,,,,,,,,,,,,,,,,,,,,0,31,31,31,,,,,,,,,,,,,,,,,,,,,,,,,,,,,,,,,,,,,,,,,,,,,,,,,,,,,,,,,,,,,,,,,,,,,1.2839506218830743,0.6794649999355897,632.7276336000068,None,ScrollDown,정답입니다,632.7276336000068,None,632.7276336000068,None,632.7276336000068,None,632.7276336000068,None,633.3225763000082,None,633.3225763000082,633.824592399993,,,,,,,,,,,,,,,,106,2023-04-26_10h13.03.573,FishGame,2022.1.1,59.14734370262377,
,33,나를 데려가줘,6,Orange,B,0,0,ScrollDown,ScrollUp,Orange.png,4,NonTarget,NonTarget,,,,,0,0,0,0,,,,,,,,,,,,,,,,,,,,,,,,,0,32,32,32,,,,,,,,,,,,,,,,,,,,,,,,,,,,,,,,,,,,,,,,,,,,,,,,,,,,,,,,,,,,,,,,,,,,,1.200617293516795,0.8811889999778941,634.4293502999935,None,ScrollDown,정답입니다,634.4293502999935,None,634.4293502999935,None,634.4293502999935,None,634.4293502999935,None,635.2244611000642,None,635.2244611000642,635.7245359000517,,,,,,,,,,,,,,,,106,2023-04-26_10h13.03.573,FishGame,2022.1.1,59.14734370262377,
,34,넌 유순해,3,Green,A,4.458333333333333,5,ScrollDown,ScrollUp,Green.png,4,Neutral,Neutral,,,,,0,0,0,0,,,,,,,,,,,,,,,,,,,,,,,,,0,33,33,33,,,,,,,,,,,,,,,,,,,,,,,,,,,,,,,,,,,,,,,,,,,,,,,,,,,,,,,,,,,,,,,,,,,,,1.32253085821867,0.7334140000166371,636.327736300067,None,ScrollDown,정답입니다,636.327736300067,None,636.327736300067,None,636.327736300067,None,636.327736300067,None,636.9724525000202,None,636.9724525000202,637.4744532000041,,,,,,,,,,,,,,,,106,2023-04-26_10h13.03.573,FishGame,2022.1.1,59.14734370262377,
,35,넌 근심스러워,4,Orange,B,2.708333333333333,3.133333333333333,ScrollUp,ScrollDown,Orange.png,4,Negative,Congruent,,,,,0,0,0,0,,,,,,,,,,,,,,,,,,,,,,,,,0,34,34,34,,,,,,,,,,,,,,,,,,,,,,,,,,,,,,,,,,,,,,,,,,,,,,,,,,,,,,,,,,,,,,,,,,,,,1.7731481442848842,0.6978385000256822,638.0818720000098,None,ScrollUp,정답입니다,638.0818720000098,None,638.0818720000098,None,638.0818720000098,None,638.0818720000098,None,638.6912029000232,None,638.6912029000232,639.1911445000442,,,,,,,,,,,,,,,,106,2023-04-26_10h13.03.573,FishGame,2022.1.1,59.14734370262377,
,36,넌 세련되었어,2,Green,A,5.5,4.6,ScrollDown,ScrollUp,Green.png,4,Positive,Congruent,,,,,0,0,0,0,,,,,,,,,,,,,,,,,,,,,,,,,0,35,35,35,,,,,,,,,,,,,,,,,,,,,,,,,,,,,,,,,,,,,,,,,,,,,,,,,,,,,,,,,,,,,,,,,,,,,1.2175925970077515,0.8110583999659866,639.8034325999906,None,ScrollDown,정답입니다,639.8034325999906,None,639.8034325999906,None,639.8034325999906,None,639.8034325999906,None,640.5176545000868,None,640.5176545000868,641.0244086000603,,,,,,,,,,,,,,,,106,2023-04-26_10h13.03.573,FishGame,2022.1.1,59.14734370262377,
,37,나를 보내줘,6,Green,A,0,0,ScrollUp,ScrollDown,Green.png,4,NonTarget,NonTarget,,,,,0,0,0,0,,,,,,,,,,,,,,,,,,,,,,,,,0,36,36,36,,,,,,,,,,,,,,,,,,,,,,,,,,,,,,,,,,,,,,,,,,,,,,,,,,,,,,,,,,,,,,,,,,,,,1.8240740795930226,0.7999178000027314,641.6278013000265,None,ScrollUp,정답입니다,641.6278013000265,None,641.6278013000265,None,641.6278013000265,None,641.6278013000265,None,642.3410837000702,None,642.3410837000702,642.8410543000791,,,,,,,,,,,,,,,,106,2023-04-26_10h13.03.573,FishGame,2022.1.1,59.14734370262377,
,38,넌 확고해,3,Orange,B,4.708333333333334,4.566666666666666,ScrollUp,ScrollDown,Orange.png,4,Neutral,Neutral,,,,,0,0,0,0,,,,,,,,,,,,,,,,,,,,,,,,,0,37,37,37,,,,,,,,,,,,,,,,,,,,,,,,,,,,,,,,,,,,,,,,,,,,,,,,,,,,,,,,,,,,,,,,,,,,,1.560185187806686,0.5812023999169469,643.4530012001051,None,ScrollUp,정답입니다,643.4530012001051,None,643.4530012001051,None,643.4530012001051,None,643.4530012001051,None,643.9410476000048,None,643.9410476000048,644.4410311999964,,,,,,,,,,,,,,,,106,2023-04-26_10h13.03.573,FishGame,2022.1.1,59.14734370262377,
,39,넌 이해심이 많아,1,Orange,B,6.041666666666668,5.533333333333333,ScrollUp,ScrollDown,Orange.png,4,Positive,Incongruent,,,,,0,0,0,0,,,,,,,,,,,,,,,,,,,,,,,,,0,38,38,38,,,,,,,,,,,,,,,,,,,,,,,,,,,,,,,,,,,,,,,,,,,,,,,,,,,,,,,,,,,,,,,,,,,,,1.751543199022611,0.7474870999576524,645.0488157999935,None,ScrollUp,정답입니다,645.0488157999935,None,645.0488157999935,None,645.0488157999935,None,645.0488157999935,None,645.7076933000935,None,645.7076933000935,646.2075976000633,,,,,,,,,,,,,,,,106,2023-04-26_10h13.03.573,FishGame,2022.1.1,59.14734370262377,
,40,나를 보내줘,6,Green,A,0,0,ScrollUp,ScrollDown,Green.png,4,NonTarget,NonTarget,,,,,0,0,0,0,,,,,,,,,,,,,,,,,,,,,,,,,0,39,39,39,,,,,,,,,,,,,,,,,,,,,,,,,,,,,,,,,,,,,,,,,,,,,,,,,,,,,,,,,,,,,,,,,,,,,1.9074074079593022,0.847872499958612,646.8109205000801,None,ScrollUp,정답입니다,646.8109205000801,None,646.8109205000801,None,646.8109205000801,None,646.8109205000801,None,647.5723687000573,None,647.5723687000573,648.0742843000917,,,,,,,,,,,,,,,,106,2023-04-26_10h13.03.573,FishGame,2022.1.1,59.14734370262377,
,41,넌 거칠어,4,Green,A,2.625,3.033333333333333,ScrollDown,ScrollUp,Green.png,4,Negative,Incongruent,,,,,0,0,0,0,,,,,,,,,,,,,,,,,,,,,,,,,0,40,40,40,,,,,,,,,,,,,,,,,,,,,,,,,,,,,,,,,,,,,,,,,,,,,,,,,,,,,,,,,,,,,,,,,,,,,1.3302469154198966,0.748095600050874,648.679102400085,None,ScrollDown,정답입니다,648.679102400085,None,648.679102400085,None,648.679102400085,None,648.679102400085,None,649.3409750000574,None,649.3409750000574,649.8409297000617,,,,,,,,,,,,,,,,106,2023-04-26_10h13.03.573,FishGame,2022.1.1,59.14734370262377,
,42,넌 변덕맞아,5,Orange,B,2.75,2.166666666666667,ScrollUp,ScrollDown,Orange.png,4,Negative,Congruent,,,,,0,0,0,0,,,,,,,,,,,,,,,,,,,,,,,,,0,41,41,41,,,,,,,,,,,,,,,,,,,,,,,,,,,,,,,,,,,,,,,,,,,,,,,,,,,,,,,,,,,,,,,,,,,,,1.501543209849236,0.5626505999825895,650.4514965000562,None,NoResponse,무응답입니다,650.4514965000562,None,650.4514965000562,None,650.4514965000562,None,650.4514965000562,None,650.9219215000048,None,650.9219215000048,651.4220611000201,,,,,,,,,,,,,,,,106,2023-04-26_10h13.03.573,FishGame,2022.1.1,59.14734370262377,
,43,나를 데려가줘,6,Orange,B,0,0,ScrollDown,ScrollUp,Orange.png,4,NonTarget,NonTarget,,,,,0,0,0,0,,,,,,,,,,,,,,,,,,,,,,,,,0,42,42,42,,,,,,,,,,,,,,,,,,,,,,,,,,,,,,,,,,,,,,,,,,,,,,,,,,,,,,,,,,,,,,,,,,,,,1.2175925970077515,0.9628688999218866,652.0280959000811,None,ScrollDown,정답입니다,652.0280959000811,None,652.0280959000811,None,652.0280959000811,None,652.0280959000811,None,652.9052762000356,None,652.9052762000356,653.4052639000583,,,,,,,,,,,,,,,,106,2023-04-26_10h13.03.573,FishGame,2022.1.1,59.14734370262377,
,44,넌 외로워,4,Orange,B,2.833333333333333,3.3,ScrollUp,ScrollDown,Orange.png,4,Negative,Congruent,,,,,0,0,0,0,,,,,,,,,,,,,,,,,,,,,,,,,0,43,43,43,,,,,,,,,,,,,,,,,,,,,,,,,,,,,,,,,,,,,,,,,,,,,,,,,,,,,,,,,,,,,,,,,,,,,1.8981481492519379,0.6332215000875294,654.015294300043,None,ScrollUp,정답입니다,654.015294300043,None,654.015294300043,None,654.015294300043,None,654.015294300043,None,654.5576775000663,None,654.5576775000663,655.0576200000942,,,,,,,,,,,,,,,,106,2023-04-26_10h13.03.573,FishGame,2022.1.1,59.14734370262377,
,1,넌 불평스러워,5,Green,A,2.25,2.066666666666667,ScrollDown,ScrollUp,Green.png,5,Negative,Incongruent,,,,,0,0,0,0,,,,,,,,,,,,,,,,,,,,,,,,,,,,,0,0,0,0,,,,,,,,,,,,,,,,,,,,,,,,686.7267890000949,688.240264800028,688.2569466000423,689.2070142000448,689.257019200013,690.207013700041,690.207013700041,None,,,,,,,,,,,,,,,,,,,,,,,,,,,,,,,,,,1.9645061492919922,0.7278247999493033,691.2833087000763,None,ScrollUp,오답입니다,691.2833087000763,None,691.2833087000763,None,691.2833087000763,None,691.2833087000763,None,691.9235375000862,None,691.9235375000862,692.4234512000112,655.5575176000129,None,655.5575176000129,None,0.13148148,-0.07037037,1,0,0,0.016221079975366592,None,685.5567720000399,None,,,106,2023-04-26_10h13.03.573,FishGame,2022.1.1,59.14734370262377,
,2,나를 보내줘,6,Green,A,0,0,ScrollUp,ScrollDown,Green.png,5,NonTarget,NonTarget,,,,,0,0,0,0,,,,,,,,,,,,,,,,,,,,,,,,,,,,,0,1,1,1,,,,,,,,,,,,,,,,,,,,,,,,,,,,,,,,,,,,,,,,,,,,,,,,,,,,,,,,,,,,,,,,,1.6620370397965112,0.8760472999420017,693.0496124000056,None,ScrollUp,정답입니다,693.0496124000056,None,693.0496124000056,None,693.0496124000056,None,693.0496124000056,None,693.8377547001,None,693.8377547001,694.3377053000731,,,,,,,,,,,,,,,,106,2023-04-26_10h13.03.573,FishGame,2022.1.1,59.14734370262377,
,3,넌 다재다능해,2,Orange,B,6.208333333333333,4.5,ScrollUp,ScrollDown,Orange.png,5,Positive,Incongruent,,,,,0,0,0,0,,,,,,,,,,,,,,,,,,,,,,,,,,,,,0,2,2,2,,,,,,,,,,,,,,,,,,,,,,,,,,,,,,,,,,,,,,,,,,,,,,,,,,,,,,,,,,,,,,,,,1.8163580348094304,0.6645741000538692,694.9396441000281,None,ScrollUp,정답입니다,694.9396441000281,None,694.9396441000281,None,694.9396441000281,None,694.9396441000281,None,695.5210891000461,None,695.5210891000461,696.0234330000822,,,,,,,,,,,,,,,,106,2023-04-26_10h13.03.573,FishGame,2022.1.1,59.14734370262377,
,4,넌 과감해,3,Green,A,4.833333333333334,4.6,ScrollDown,ScrollUp,Green.png,5,Neutral,Neutral,,,,,0,0,0,0,,,,,,,,,,,,,,,,,,,,,,,,,,,,,0,3,3,3,,,,,,,,,,,,,,,,,,,,,,,,,,,,,,,,,,,,,,,,,,,,,,,,,,,,,,,,,,,,,,,,,1.6419753084580102,0.6814781000139192,696.626829600078,None,ScrollUp,오답입니다,696.626829600078,None,696.626829600078,None,696.626829600078,None,696.626829600078,None,697.2234556000913,None,697.2234556000913,697.7234477000311,,,,,,,,,,,,,,,,106,2023-04-26_10h13.03.573,FishGame,2022.1.1,59.14734370262377,
,5,넌 고분고분해,3,Orange,B,3.75,4.033333333333333,ScrollUp,ScrollDown,Orange.png,5,Neutral,Neutral,,,,,0,0,0,0,,,,,,,,,,,,,,,,,,,,,,,,,,,,,0,4,4,4,,,,,,,,,,,,,,,,,,,,,,,,,,,,,,,,,,,,,,,,,,,,,,,,,,,,,,,,,,,,,,,,,1.839506169160207,0.9610516999382526,698.3419304999989,None,ScrollUp,정답입니다,698.3419304999989,None,698.3419304999989,None,698.3419304999989,None,698.3419304999989,None,699.2043185000075,None,699.2043185000075,699.7044267000165,,,,,,,,,,,,,,,,106,2023-04-26_10h13.03.573,FishGame,2022.1.1,59.14734370262377,
,6,나를 보내줘,6,Green,A,0,0,ScrollUp,ScrollDown,Green.png,5,NonTarget,NonTarget,,,,,0,0,0,0,,,,,,,,,,,,,,,,,,,,,,,,,,,,,0,5,5,5,,,,,,,,,,,,,,,,,,,,,,,,,,,,,,,,,,,,,,,,,,,,,,,,,,,,,,,,,,,,,,,,,1.663580241302649,0.9335171000566334,700.3055701000849,None,ScrollUp,정답입니다,700.3055701000849,None,700.3055701000849,None,700.3055701000849,None,700.3055701000849,None,701.1569143000524,None,701.1569143000524,701.6566947000101,,,,,,,,,,,,,,,,106,2023-04-26_10h13.03.573,FishGame,2022.1.1,59.14734370262377,
,7,넌 잘 잊어,4,Green,A,3,3.7,ScrollDown,ScrollUp,Green.png,5,Negative,Incongruent,,,,,0,0,0,0,,,,,,,,,,,,,,,,,,,,,,,,,,,,,0,6,6,6,,,,,,,,,,,,,,,,,,,,,,,,,,,,,,,,,,,,,,,,,,,,,,,,,,,,,,,,,,,,,,,,,1.2438271592060726,0.8669904000125825,702.2613574001007,None,ScrollDown,정답입니다,702.2613574001007,None,702.2613574001007,None,702.2613574001007,None,702.2613574001007,None,703.0400092999917,None,703.0400092999917,703.5400450000307,,,,,,,,,,,,,,,,106,2023-04-26_10h13.03.573,FishGame,2022.1.1,59.14734370262377,
,8,넌 탐구심이없어,4,Orange,B,2.833333333333333,3.066666666666667,ScrollUp,ScrollDown,Orange.png,5,Negative,Congruent,,,,,0,0,0,0,,,,,,,,,,,,,,,,,,,,,,,,,,,,,0,7,7,7,,,,,,,,,,,,,,,,,,,,,,,,,,,,,,,,,,,,,,,,,,,,,,,,,,,,,,,,,,,,,,,,,1.939814825852712,0.6333847000496462,704.147665400058,None,ScrollUp,정답입니다,704.147665400058,None,704.147665400058,None,704.147665400058,None,704.147665400058,None,704.6899154999992,None,704.6899154999992,705.1898123000283,,,,,,,,,,,,,,,,106,2023-04-26_10h13.03.573,FishGame,2022.1.1,59.14734370262377,
,9,나를 데려가줘,6,Orange,B,0,0,ScrollDown,ScrollUp,Orange.png,5,NonTarget,NonTarget,,,,,0,0,0,0,,,,,,,,,,,,,,,,,,,,,,,,,,,,,0,8,8,8,,,,,,,,,,,,,,,,,,,,,,,,,,,,,,,,,,,,,,,,,,,,,,,,,,,,,,,,,,,,,,,,,1.160493830839793,1.0944839000003412,705.8035688000964,None,ScrollDown,정답입니다,705.8035688000964,None,705.8035688000964,None,705.8035688000964,None,705.8035688000964,None,706.804132200079,None,706.804132200079,707.3041266000364,,,,,,,,,,,,,,,,106,2023-04-26_10h13.03.573,FishGame,2022.1.1,59.14734370262377,
,10,넌 참되어,2,Green,A,6.041666666666664,4.733333333333333,ScrollDown,ScrollUp,Green.png,5,Positive,Congruent,,,,,0,0,0,0,,,,,,,,,,,,,,,,,,,,,,,,,,,,,0,9,9,9,,,,,,,,,,,,,,,,,,,,,,,,,,,,,,,,,,,,,,,,,,,,,,,,,,,,,,,,,,,,,,,,,1.2037036965290706,0.6624150000279769,707.9108990000095,None,ScrollDown,정답입니다,707.9108990000095,None,707.9108990000095,None,707.9108990000095,None,707.9108990000095,None,708.4874904000899,None,708.4874904000899,708.9899043000769,,,,,,,,,,,,,,,,106,2023-04-26_10h13.03.573,FishGame,2022.1.1,59.14734370262377,
,11,넌 생기있어,1,Orange,B,5.875,5.633333333333334,ScrollUp,ScrollDown,Orange.png,5,Positive,Incongruent,,,,,0,0,0,0,,,,,,,,,,,,,,,,,,,,,,,,,,,,,0,10,10,10,,,,,,,,,,,,,,,,,,,,,,,,,,,,,,,,,,,,,,,,,,,,,,,,,,,,,,,,,,,,,,,,,1.7253086368242898,0.6831298000179231,709.5965420000721,None,ScrollUp,정답입니다,709.5965420000721,None,709.5965420000721,None,709.5965420000721,None,709.5965420000721,None,710.1899665000383,None,710.1899665000383,710.6898774000583,,,,,,,,,,,,,,,,106,2023-04-26_10h13.03.573,FishGame,2022.1.1,59.14734370262377,
,12,넌 비사교적이야,4,Orange,B,2.875,2.9,ScrollUp,ScrollDown,Orange.png,5,Negative,Congruent,,,,,0,0,0,0,,,,,,,,,,,,,,,,,,,,,,,,,,,,,0,11,11,11,,,,,,,,,,,,,,,,,,,,,,,,,,,,,,,,,,,,,,,,,,,,,,,,,,,,,,,,,,,,,,,,,1.7500000099341075,0.74609979998786,711.2958998000249,None,ScrollUp,정답입니다,711.2958998000249,None,711.2958998000249,None,711.2958998000249,None,711.2958998000249,None,711.9563524000114,None,711.9563524000114,712.4563387000235,,,,,,,,,,,,,,,,106,2023-04-26_10h13.03.573,FishGame,2022.1.1,59.14734370262377,
,13,나를 데려가줘,6,Orange,B,0,0,ScrollDown,ScrollUp,Orange.png,5,NonTarget,NonTarget,,,,,0,0,0,0,,,,,,,,,,,,,,,,,,,,,,,,,,,,,0,12,12,12,,,,,,,,,,,,,,,,,,,,,,,,,,,,,,,,,,,,,,,,,,,,,,,,,,,,,,,,,,,,,,,,,1.233024686574936,0.8831238000420853,713.0662401000736,None,ScrollDown,정답입니다,713.0662401000736,None,713.0662401000736,None,713.0662401000736,None,713.0662401000736,None,713.8542740000412,None,713.8542740000412,714.3562534000957,,,,,,,,,,,,,,,,106,2023-04-26_10h13.03.573,FishGame,2022.1.1,59.14734370262377,
,14,넌 고독해,4,Green,A,2.916666666666667,3.233333333333333,ScrollDown,ScrollUp,Green.png,5,Negative,Incongruent,,,,,0,0,0,0,,,,,,,,,,,,,,,,,,,,,,,,,,,,,0,13,13,13,,,,,,,,,,,,,,,,,,,,,,,,,,,,,,,,,,,,,,,,,,,,,,,,,,,,,,,,,,,,,,,,,1.1851851791143417,1.0149651999818161,714.960150900064,None,ScrollDown,정답입니다,714.960150900064,None,714.960150900064,None,714.960150900064,None,714.960150900064,None,715.8896409000736,None,715.8896409000736,716.3895940000657,,,,,,,,,,,,,,,,106,2023-04-26_10h13.03.573,FishGame,2022.1.1,59.14734370262377,
,15,넌 신경질적이야,5,Orange,B,2.375,2.233333333333333,ScrollUp,ScrollDown,Orange.png,5,Negative,Congruent,,,,,0,0,0,0,,,,,,,,,,,,,,,,,,,,,,,,,,,,,0,14,14,14,,,,,,,,,,,,,,,,,,,,,,,,,,,,,,,,,,,,,,,,,,,,,,,,,,,,,,,,,,,,,,,,,1.766975313425064,0.781560399918817,716.996347200009,None,ScrollUp,정답입니다,716.996347200009,None,716.996347200009,None,716.996347200009,None,716.996347200009,None,717.6896720000077,None,717.6896720000077,718.1929004000267,,,,,,,,,,,,,,,,106,2023-04-26_10h13.03.573,FishGame,2022.1.1,59.14734370262377,
,16,넌 똑똑해,2,Orange,B,5.666666666666667,3.966666666666667,ScrollUp,ScrollDown,Orange.png,5,Positive,Incongruent,,,,,0,0,0,0,,,,,,,,,,,,,,,,,,,,,,,,,,,,,0,15,15,15,,,,,,,,,,,,,,,,,,,,,,,,,,,,,,,,,,,,,,,,,,,,,,,,,,,,,,,,,,,,,,,,,1.6666666691501937,0.8998965000500903,718.7952663000906,None,ScrollUp,정답입니다,718.7952663000906,None,718.7952663000906,None,718.7952663000906,None,718.7952663000906,None,719.6062426000135,None,719.6062426000135,720.1061624001013,,,,,,,,,,,,,,,,106,2023-04-26_10h13.03.573,FishGame,2022.1.1,59.14734370262377,
,17,나를 보내줘,6,Green,A,0,0,ScrollUp,ScrollDown,Green.png,5,NonTarget,NonTarget,,,,,0,0,0,0,,,,,,,,,,,,,,,,,,,,,,,,,,,,,0,16,16,16,,,,,,,,,,,,,,,,,,,,,,,,,,,,,,,,,,,,,,,,,,,,,,,,,,,,,,,,,,,,,,,,,1.5771604912976422,0.7478652000427246,720.7092972000828,None,ScrollUp,정답입니다,720.7092972000828,None,720.7092972000828,None,720.7092972000828,None,720.7092972000828,None,721.3728784000268,None,721.3728784000268,721.872824100079,,,,,,,,,,,,,,,,106,2023-04-26_10h13.03.573,FishGame,2022.1.1,59.14734370262377,
,18,넌 협조적이야,1,Green,A,5.625,5.666666666666667,ScrollDown,ScrollUp,Green.png,5,Positive,Congruent,,,,,0,0,0,0,,,,,,,,,,,,,,,,,,,,,,,,,,,,,0,17,17,17,,,,,,,,,,,,,,,,,,,,,,,,,,,,,,,,,,,,,,,,,,,,,,,,,,,,,,,,,,,,,,,,,1.2391975422700245,0.7645940999500453,722.4750135000795,None,ScrollDown,정답입니다,722.4750135000795,None,722.4750135000795,None,722.4750135000795,None,722.4750135000795,None,723.1560391000239,None,723.1560391000239,723.656070600031,,,,,,,,,,,,,,,,106,2023-04-26_10h13.03.573,FishGame,2022.1.1,59.14734370262377,
,19,나를 데려가줘,6,Orange,B,0,0,ScrollDown,ScrollUp,Orange.png,5,NonTarget,NonTarget,,,,,0,0,0,0,,,,,,,,,,,,,,,,,,,,,,,,,,,,,0,18,18,18,,,,,,,,,,,,,,,,,,,,,,,,,,,,,,,,,,,,,,,,,,,,,,,,,,,,,,,,,,,,,,,,,1.2577160596847534,0.8128983000060543,724.2619659000775,None,ScrollDown,정답입니다,724.2619659000775,None,724.2619659000775,None,724.2619659000775,None,724.2619659000775,None,724.9873736000154,None,724.9873736000154,725.489388499991,,,,,,,,,,,,,,,,106,2023-04-26_10h13.03.573,FishGame,2022.1.1,59.14734370262377,
,20,넌 몰인정해,5,Orange,B,2.541666666666667,2.066666666666667,ScrollUp,ScrollDown,Orange.png,5,Negative,Congruent,,,,,0,0,0,0,,,,,,,,,,,,,,,,,,,,,,,,,,,,,0,19,19,19,,,,,,,,,,,,,,,,,,,,,,,,,,,,,,,,,,,,,,,,,,,,,,,,,,,,,,,,,,,,,,,,,1.6003086442748704,0.5961003999691457,726.0952034000074,None,ScrollUp,정답입니다,726.0952034000074,None,726.0952034000074,None,726.0952034000074,None,726.0952034000074,None,726.6061789999949,None,726.6061789999949,727.1060505000642,,,,,,,,,,,,,,,,106,2023-04-26_10h13.03.573,FishGame,2022.1.1,59.14734370262377,
,21,나를 데려가줘,6,Orange,B,0,0,ScrollDown,ScrollUp,Orange.png,5,NonTarget,NonTarget,,,,,0,0,0,0,,,,,,,,,,,,,,,,,,,,,,,,,,,,,0,20,20,20,,,,,,,,,,,,,,,,,,,,,,,,,,,,,,,,,,,,,,,,,,,,,,,,,,,,,,,,,,,,,,,,,1.4197530870636303,0.8476174999959767,727.7104246000526,None,ScrollDown,정답입니다,727.7104246000526,None,727.7104246000526,None,727.7104246000526,None,727.7104246000526,None,728.4703650000738,None,728.4703650000738,728.9703587000258,,,,,,,,,,,,,,,,106,2023-04-26_10h13.03.573,FishGame,2022.1.1,59.14734370262377,
