name,TrialNum,Word,WordCategory,FishType,WordList,WordValence,WordReputation,CorrectResp,IncorrectResp,FishTypeFile,Round,WordType,Condition,LoopforOrange.thisRepN,LoopforOrange.thisTrialN,LoopforOrange.thisN,LoopforOrange.thisIndex,OrangeInstLoop.thisRepN,OrangeInstLoop.thisTrialN,OrangeInstLoop.thisN,OrangeInstLoop.thisIndex,OrangePrac.thisRepN,OrangePrac.thisTrialN,OrangePrac.thisN,OrangePrac.thisIndex,temp1.thisRepN,temp1.thisTrialN,temp1.thisN,temp1.thisIndex,OrangeRound1.thisRepN,OrangeRound1.thisTrialN,OrangeRound1.thisN,OrangeRound1.thisIndex,OrangeRound2.thisRepN,OrangeRound2.thisTrialN,OrangeRound2.thisN,OrangeRound2.thisIndex,OrangeRound3.thisRepN,OrangeRound3.thisTrialN,OrangeRound3.thisN,OrangeRound3.thisIndex,OrangeRound4.thisRepN,OrangeRound4.thisTrialN,OrangeRound4.thisN,OrangeRound4.thisIndex,OrangeRound5.thisRepN,OrangeRound5.thisTrialN,OrangeRound5.thisN,OrangeRound5.thisIndex,LoopForGreen.thisRepN,LoopForGreen.thisTrialN,LoopForGreen.thisN,LoopForGreen.thisIndex,text_2.started,text_2.stopped,text_3.started,text_3.stopped,key_resp.keys,key_resp.rt,key_resp.started,key_resp.stopped,PassI_2.started,PassI_2.stopped,PassInst_2.keys,PassInst_2.rt,PassInst_2.started,PassInst_2.stopped,mouse_2.x,mouse_2.y,mouse_2.leftButton,mouse_2.midButton,mouse_2.rightButton,mouse_2.started,mouse_2.stopped,image.started,image.stopped,text_5.started,text_5.stopped,text_6.started,text_6.stopped,text_7.started,text_7.stopped,text_8.started,text_8.stopped,slider_2.response,slider_2.rt,slider_2.started,slider_2.stopped,Response_2,Feedback_2,BackGround_2.started,BackGround_2.stopped,Fish_2.started,Fish_2.stopped,WordBox_2.started,WordBox_2.stopped,Words_2.started,Words_2.stopped,BackGround_Feedback_2.started,BackGround_Feedback_2.stopped,Feedbacks_2.started,Feedbacks_2.stopped,Continue_or_not.keys,Continue_or_not.rt,Continue_or_not.started,Continue_or_not.stopped,image_3.started,image_3.stopped,mouse_3.x,mouse_3.y,mouse_3.leftButton,mouse_3.midButton,mouse_3.rightButton,mouse_3.started,mouse_3.stopped,startmain.started,startmain.stopped,slider.response,slider.rt,slider.started,slider.stopped,Response,Feedback,BackGround.started,BackGround.stopped,Fish.started,Fish.stopped,WordBox.started,WordBox.stopped,Words.started,Words.stopped,BackGround_Feedback.started,BackGround_Feedback.stopped,Feedbacks.started,Feedbacks.stopped,text.started,text.stopped,break_interval.started,break_interval.stopped,mouse.x,mouse.y,mouse.leftButton,mouse.midButton,mouse.rightButton,mouse.started,mouse.stopped,stratnextround.started,stratnextround.stopped,endgame.started,endgame.stopped,participant,date,expName,psychopyVersion,frameRate,
,,,,,,,,,,,,,,,,,,,,,,,,,,,,,,,,,,,,,,,,,,,,,,,,,,,,,,19.997319900001457,None,19.997319900001457,None,space,0.3786980000004405,20.492111799998384,None,,,,,,,,,,,,,,,,,,,,,,,,,,,,,,,,,,,,,,,,,,,,,,,,,,,,,,,,,,,,,,,,,,,,,,,,,,,,,,,,,,,,,,,,,,107,2023-04-17_13h55.19.462,FishGame,2022.1.1,60.0800145632931,
물고기과제_instruction(참가자용)OrangeVersion.mp4,,,,,,,,,,,,,,0,0,0,0,0,0,0,0,,,,,,,,,,,,,,,,,,,,,,,,,,,,,,,,,,,,,,,,,51.26914419999957,None,n,2.137330199999269,51.26914419999957,None,,,,,,,,,,,,,,,,,,,,,,,,,,,,,,,,,,,,,,,,,,,,,,,,,,,,,,,,,,,,,,,,,,,,,,,,,,,,,,,,,,,,107,2023-04-17_13h55.19.462,FishGame,2022.1.1,60.0800145632931,
,1,넌 교활해,5,Green,B,2.333333333333333,2.133333333333333,ScrollUp,ScrollDown,Green.png,practice,,,0,0,0,0,,,,,0,0,0,0,0,0,0,0,,,,,,,,,,,,,,,,,,,,,,,,,,,,,,,,,,,,,,,0.07037037,-0.21944444,1,0,0,0.5142243200025405,None,53.438144500003546,None,57.23599400000239,58.73815669999749,58.771477200003574,59.7247051000013,59.75804600000265,60.72144990000379,60.72144990000379,None,1.9753086467583973,1.5240429999976186,62.007372200001555,None,ScrollUp,정답입니다,62.007372200001555,None,62.007372200001555,None,62.007372200001555,None,62.007372200001555,None,63.235592500001076,None,63.235592500001076,63.735557699998026,,,,,,,,,,,,,,,,,,,,,,,,,,,,,,,,,,,,,,,,,,,,,,,,,107,2023-04-17_13h55.19.462,FishGame,2022.1.1,60.0800145632931,
,2,넌 슬기로워,2,Orange,A,6.166666666666667,4.1,ScrollDown,ScrollUp,Orange.png,practice,,,0,0,0,0,,,,,0,0,0,0,0,1,1,1,,,,,,,,,,,,,,,,,,,,,,,,,,,,,,,,,,,,,,,,,,,,,,,,,,,,,,,,1.2160493830839794,1.017343699997582,64.34238129999721,None,ScrollDown,정답입니다,64.34238129999721,None,64.34238129999721,None,64.34238129999721,None,64.34238129999721,None,65.27132130000246,None,65.27132130000246,65.7712984000027,,,,,,,,,,,,,,,,,,,,,,,,,,,,,,,,,,,,,,,,,,,,,,,,,107,2023-04-17_13h55.19.462,FishGame,2022.1.1,60.0800145632931,
,3,나를 보내줘,6,Orange,A,0,0,ScrollUp,ScrollDown,Orange.png,practice,,,0,0,0,0,,,,,0,0,0,0,0,2,2,2,,,,,,,,,,,,,,,,,,,,,,,,,,,,,,,,,,,,,,,,,,,,,,,,,,,,,,,,1.7361111094554267,1.046373199998925,66.37930970000161,None,ScrollUp,정답입니다,66.37930970000161,None,66.37930970000161,None,66.37930970000161,None,66.37930970000161,None,67.33780220000335,None,67.33780220000335,67.83778919999895,,,,,,,,,,,,,,,,,,,,,,,,,,,,,,,,,,,,,,,,,,,,,,,,,107,2023-04-17_13h55.19.462,FishGame,2022.1.1,60.0800145632931,
,4,나를 데려가줘,6,Green,B,0,0,ScrollDown,ScrollUp,Green.png,practice,,,0,0,0,0,,,,,0,0,0,0,0,3,3,3,,,,,,,,,,,,,,,,,,,,,,,,,,,,,,,,,,,,,,,,,,,,,,,,,,,,,,,,1.1913580348094304,1.0151344999976573,68.44419509999716,None,ScrollDown,정답입니다,68.44419509999716,None,68.44419509999716,None,68.44419509999716,None,68.44419509999716,None,69.37109000000055,None,69.37109000000055,69.8711930999998,,,,,,,,,,,,,,,,,,,,,,,,,,,,,,,,,,,,,,,,,,,,,,,,,107,2023-04-17_13h55.19.462,FishGame,2022.1.1,60.0800145632931,
,1,넌 교활해,5,Green,B,2.333333333333333,2.133333333333333,ScrollUp,ScrollDown,Green.png,practice,,,0,0,0,0,,,,,0,0,0,0,,,,,,,,,,,,,,,,,,,,,,,,,,,,,,,,,,,,,,,,,,,,,,,,,,,,,,,,,,,,,,,,,,,,,,,,,,,,,,n,4.0518775999953505,70.37106610000046,None,70.37106610000046,None,,,,,,,,,,,,,,,,,,,,,,,,,,,,,,,,,,,,,,,,,,,107,2023-04-17_13h55.19.462,FishGame,2022.1.1,60.0800145632931,
,1,넌 따뜻해,1,Green,B,6.083333333333333,5.6,ScrollUp,ScrollDown,Green.png,1,Positive,Incongruent,0,0,0,0,,,,,,,,,,,,,0,0,0,0,,,,,,,,,,,,,,,,,,,,,,,,,,,,,,,,,,,,,,,,,,,,75.66890409999905,77.17108620000363,77.20446619999711,78.15445390000241,78.20445140000083,79.15214990000095,79.14083440000104,None,,,,,,,,,,,,,,,,,,,,,,,,,0.062037036,-0.096296296,1,0,0,0.3149503199965693,None,74.45421039999928,None,1.71913580596447,1.122168399997463,80.43518400000175,None,ScrollUp,정답입니다,80.43518400000175,None,80.43518400000175,None,80.43518400000175,None,80.43518400000175,None,81.27088879999792,None,81.27088879999792,81.76872549999825,,,,,,,,,,,,,,,,107,2023-04-17_13h55.19.462,FishGame,2022.1.1,60.0800145632931,
,2,넌 기품있어,2,Green,B,5.791666666666668,4.5,ScrollUp,ScrollDown,Green.png,1,Positive,Incongruent,0,0,0,0,,,,,,,,,,,,,0,1,1,1,,,,,,,,,,,,,,,,,,,,,,,,,,,,,,,,,,,,,,,,,,,,,,,,,,,,,,,,,,,,,,,,,,,,,,,,,,,,,,,,,,,,,1.7932098756233852,0.9148865000024671,82.38052199999947,None,ScrollUp,정답입니다,82.38052199999947,None,82.38052199999947,None,82.38052199999947,None,82.38052199999947,None,83.20410439999978,None,83.20410439999978,83.70409549999749,,,,,,,,,,,,,,,,107,2023-04-17_13h55.19.462,FishGame,2022.1.1,60.0800145632931,
,3,나를 보내줘,6,Orange,A,0,0,ScrollUp,ScrollDown,Orange.png,1,NonTarget,NonTarget,0,0,0,0,,,,,,,,,,,,,0,2,2,2,,,,,,,,,,,,,,,,,,,,,,,,,,,,,,,,,,,,,,,,,,,,,,,,,,,,,,,,,,,,,,,,,,,,,,,,,,,,,,,,,,,,,1.8456790000200272,1.0983113999973284,84.31794749999972,None,ScrollUp,정답입니다,84.31794749999972,None,84.31794749999972,None,84.31794749999972,None,84.31794749999972,None,85.32079550000344,None,85.32079550000344,85.82079969999904,,,,,,,,,,,,,,,,107,2023-04-17_13h55.19.462,FishGame,2022.1.1,60.0800145632931,
,4,넌 수동적이야,4,Orange,A,2.833333333333333,2.933333333333333,ScrollDown,ScrollUp,Orange.png,1,Negative,Incongruent,0,0,0,0,,,,,,,,,,,,,0,3,3,3,,,,,,,,,,,,,,,,,,,,,,,,,,,,,,,,,,,,,,,,,,,,,,,,,,,,,,,,,,,,,,,,,,,,,,,,,,,,,,,,,,,,,1.1141975373029709,0.8957458000004408,86.43596470000193,None,ScrollDown,정답입니다,86.43596470000193,None,86.43596470000193,None,86.43596470000193,None,86.43596470000193,None,87.23509799999738,None,87.23509799999738,87.73507609999797,,,,,,,,,,,,,,,,107,2023-04-17_13h55.19.462,FishGame,2022.1.1,60.0800145632931,
,5,넌 사심이 없어,3,Green,B,4.916666666666666,4.333333333333333,ScrollUp,ScrollDown,Green.png,1,Neutral,Neutral,0,0,0,0,,,,,,,,,,,,,0,4,4,4,,,,,,,,,,,,,,,,,,,,,,,,,,,,,,,,,,,,,,,,,,,,,,,,,,,,,,,,,,,,,,,,,,,,,,,,,,,,,,,,,,,,,1.702160490055879,0.8307100999954855,88.34288960000413,None,ScrollUp,정답입니다,88.34288960000413,None,88.34288960000413,None,88.34288960000413,None,88.34288960000413,None,89.08509710000362,None,89.08509710000362,89.5875021000029,,,,,,,,,,,,,,,,107,2023-04-17_13h55.19.462,FishGame,2022.1.1,60.0800145632931,
,6,넌 헤퍼,5,Orange,A,2.458333333333334,2.233333333333333,ScrollDown,ScrollUp,Orange.png,1,Negative,Incongruent,0,0,0,0,,,,,,,,,,,,,0,5,5,5,,,,,,,,,,,,,,,,,,,,,,,,,,,,,,,,,,,,,,,,,,,,,,,,,,,,,,,,,,,,,,,,,,,,,,,,,,,,,,,,,,,,,1.194444437821706,0.8963306000005105,90.19708630000241,None,ScrollDown,정답입니다,90.19708630000241,None,90.19708630000241,None,90.19708630000241,None,90.19708630000241,None,91.00411129999702,None,91.00411129999702,91.5041016000032,,,,,,,,,,,,,,,,107,2023-04-17_13h55.19.462,FishGame,2022.1.1,60.0800145632931,
,7,넌 말쑥해,3,Orange,A,4.833333333333334,4.333333333333333,ScrollDown,ScrollUp,Orange.png,1,Neutral,Neutral,0,0,0,0,,,,,,,,,,,,,0,6,6,6,,,,,,,,,,,,,,,,,,,,,,,,,,,,,,,,,,,,,,,,,,,,,,,,,,,,,,,,,,,,,,,,,,,,,,,,,,,,,,,,,,,,,1.0154321193695068,0.9949134999988019,92.12410470000032,None,ScrollDown,정답입니다,92.12410470000032,None,92.12410470000032,None,92.12410470000032,None,92.12410470000032,None,93.02057670000067,None,93.02057670000067,93.52059110000118,,,,,,,,,,,,,,,,107,2023-04-17_13h55.19.462,FishGame,2022.1.1,60.0800145632931,
,8,넌 투덜거려,5,Green,B,2.541666666666667,2.266666666666667,ScrollUp,ScrollDown,Green.png,1,Negative,Congruent,0,0,0,0,,,,,,,,,,,,,0,7,7,7,,,,,,,,,,,,,,,,,,,,,,,,,,,,,,,,,,,,,,,,,,,,,,,,,,,,,,,,,,,,,,,,,,,,,,,,,,,,,,,,,,,,,1.6944444452722869,0.831838099999004,94.12988819999737,None,ScrollUp,정답입니다,94.12988819999737,None,94.12988819999737,None,94.12988819999737,None,94.12988819999737,None,94.87066279999999,None,94.87066279999999,95.37386839999817,,,,,,,,,,,,,,,,107,2023-04-17_13h55.19.462,FishGame,2022.1.1,60.0800145632931,
,9,넌 적극적이야,1,Orange,A,5.708333333333333,5.533333333333333,ScrollDown,ScrollUp,Orange.png,1,Positive,Congruent,0,0,0,0,,,,,,,,,,,,,0,8,8,8,,,,,,,,,,,,,,,,,,,,,,,,,,,,,,,,,,,,,,,,,,,,,,,,,,,,,,,,,,,,,,,,,,,,,,,,,,,,,,,,,,,,,1,0.9652372000055038,95.99600430000282,None,ScrollDown,정답입니다,95.99600430000282,None,95.99600430000282,None,95.99600430000282,None,95.99600430000282,None,96.87051739999879,None,96.87051739999879,97.37100069999724,,,,,,,,,,,,,,,,107,2023-04-17_13h55.19.462,FishGame,2022.1.1,60.0800145632931,
,10,넌 재미없어,4,Green,B,2.625,2.966666666666667,ScrollUp,ScrollDown,Green.png,1,Negative,Congruent,0,0,0,0,,,,,,,,,,,,,0,9,9,9,,,,,,,,,,,,,,,,,,,,,,,,,,,,,,,,,,,,,,,,,,,,,,,,,,,,,,,,,,,,,,,,,,,,,,,,,,,,,,,,,,,,,1.8672839452823002,0.7961864000026253,97.97859359999711,None,ScrollUp,정답입니다,97.97859359999711,None,97.97859359999711,None,97.97859359999711,None,97.97859359999711,None,98.68499129999691,None,98.68499129999691,99.18525129999762,,,,,,,,,,,,,,,,107,2023-04-17_13h55.19.462,FishGame,2022.1.1,60.0800145632931,
,11,넌 명석해,2,Orange,A,5.875,4.033333333333333,ScrollDown,ScrollUp,Orange.png,1,Positive,Congruent,0,0,0,0,,,,,,,,,,,,,0,10,10,10,,,,,,,,,,,,,,,,,,,,,,,,,,,,,,,,,,,,,,,,,,,,,,,,,,,,,,,,,,,,,,,,,,,,,,,,,,,,,,,,,,,,,1,0.879485500001465,99.7976598000023,None,ScrollDown,정답입니다,99.7976598000023,None,99.7976598000023,None,99.7976598000023,None,99.7976598000023,None,100.58709760000056,None,100.58709760000056,101.10375619999832,,,,,,,,,,,,,,,,107,2023-04-17_13h55.19.462,FishGame,2022.1.1,60.0800145632931,
,12,나를 데려가줘,6,Green,B,0,0,ScrollDown,ScrollUp,Green.png,1,NonTarget,NonTarget,0,0,0,0,,,,,,,,,,,,,0,11,11,11,,,,,,,,,,,,,,,,,,,,,,,,,,,,,,,,,,,,,,,,,,,,,,,,,,,,,,,,,,,,,,,,,,,,,,,,,,,,,,,,,,,,,1,1.0984033999993699,101.69474140000239,None,ScrollDown,정답입니다,101.69474140000239,None,101.69474140000239,None,101.69474140000239,None,101.69474140000239,None,102.70369719999871,None,102.70369719999871,103.22041400000307,,,,,,,,,,,,,,,,107,2023-04-17_13h55.19.462,FishGame,2022.1.1,60.0800145632931,
,13,넌 소심해,4,Orange,A,3,3.1,ScrollDown,ScrollUp,Orange.png,1,Negative,Incongruent,0,0,0,0,,,,,,,,,,,,,0,12,12,12,,,,,,,,,,,,,,,,,,,,,,,,,,,,,,,,,,,,,,,,,,,,,,,,,,,,,,,,,,,,,,,,,,,,,,,,,,,,,,,,,,,,,1,1.015143699994951,103.81237030000193,None,ScrollDown,정답입니다,103.81237030000193,None,103.81237030000193,None,103.81237030000193,None,103.81237030000193,None,104.7370699000021,None,104.7370699000021,105.23709090000193,,,,,,,,,,,,,,,,107,2023-04-17_13h55.19.462,FishGame,2022.1.1,60.0800145632931,
,14,넌 합리적이야,2,Orange,A,5.583333333333333,4.733333333333333,ScrollDown,ScrollUp,Orange.png,1,Positive,Congruent,0,0,0,0,,,,,,,,,,,,,0,13,13,13,,,,,,,,,,,,,,,,,,,,,,,,,,,,,,,,,,,,,,,,,,,,,,,,,,,,,,,,,,,,,,,,,,,,,,,,,,,,,,,,,,,,,1,0.9647138999935123,105.85301269999763,None,ScrollDown,정답입니다,105.85301269999763,None,105.85301269999763,None,105.85301269999763,None,105.85301269999763,None,106.72038810000231,None,106.72038810000231,107.22036020000087,,,,,,,,,,,,,,,,107,2023-04-17_13h55.19.462,FishGame,2022.1.1,60.0800145632931,
,15,넌 무자비해,5,Green,B,2.333333333333333,2.1,ScrollUp,ScrollDown,Green.png,1,Negative,Congruent,0,0,0,0,,,,,,,,,,,,,0,14,14,14,,,,,,,,,,,,,,,,,,,,,,,,,,,,,,,,,,,,,,,,,,,,,,,,,,,,,,,,,,,,,,,,,,,,,,,,,,,,,,,,,,,,,1.8132716069618862,0.7964156000016374,107.82923740000115,None,ScrollUp,정답입니다,107.82923740000115,None,107.82923740000115,None,107.82923740000115,None,107.82923740000115,None,108.53694430000178,None,108.53694430000178,109.05355470000359,,,,,,,,,,,,,,,,107,2023-04-17_13h55.19.462,FishGame,2022.1.1,60.0800145632931,
,16,나를 보내줘,6,Orange,A,0,0,ScrollUp,ScrollDown,Orange.png,1,NonTarget,NonTarget,0,0,0,0,,,,,,,,,,,,,0,15,15,15,,,,,,,,,,,,,,,,,,,,,,,,,,,,,,,,,,,,,,,,,,,,,,,,,,,,,,,,,,,,,,,,,,,,,,,,,,,,,,,,,,,,,1.7947530895471573,0.8962470000042231,109.64539250000234,None,ScrollUp,정답입니다,109.64539250000234,None,109.64539250000234,None,109.64539250000234,None,109.64539250000234,None,110.45358349999879,None,110.45358349999879,110.95355869999912,,,,,,,,,,,,,,,,107,2023-04-17_13h55.19.462,FishGame,2022.1.1,60.0800145632931,
,17,넌 현실적이야,3,Green,B,4.608695652173913,4.766666666666667,ScrollUp,ScrollDown,Green.png,1,Neutral,Neutral,0,0,0,0,,,,,,,,,,,,,0,16,16,16,,,,,,,,,,,,,,,,,,,,,,,,,,,,,,,,,,,,,,,,,,,,,,,,,,,,,,,,,,,,,,,,,,,,,,,,,,,,,,,,,,,,,1.5339506162951388,0.7797925999984727,111.56144050000148,None,NoResponse,무응답입니다,111.56144050000148,None,111.56144050000148,None,111.56144050000148,None,111.56144050000148,None,112.25365530000272,None,112.25365530000272,112.75359010000102,,,,,,,,,,,,,,,,107,2023-04-17_13h55.19.462,FishGame,2022.1.1,60.0800145632931,
,18,넌 의리있어,1,Green,B,5.833333333333334,5.633333333333334,ScrollUp,ScrollDown,Green.png,1,Positive,Incongruent,0,0,0,0,,,,,,,,,,,,,0,17,17,17,,,,,,,,,,,,,,,,,,,,,,,,,,,,,,,,,,,,,,,,,,,,,,,,,,,,,,,,,,,,,,,,,,,,,,,,,,,,,,,,,,,,,1.9182098805904388,0.926136599999154,113.36930179999763,None,ScrollUp,정답입니다,113.36930179999763,None,113.36930179999763,None,113.36930179999763,None,113.36930179999763,None,114.20119340000383,None,114.20119340000383,114.70121620000282,,,,,,,,,,,,,,,,107,2023-04-17_13h55.19.462,FishGame,2022.1.1,60.0800145632931,
,19,넌 신경과민이야,5,Orange,A,2.541666666666667,2.166666666666667,ScrollDown,ScrollUp,Orange.png,1,Negative,Incongruent,0,0,0,0,,,,,,,,,,,,,0,18,18,18,,,,,,,,,,,,,,,,,,,,,,,,,,,,,,,,,,,,,,,,,,,,,,,,,,,,,,,,,,,,,,,,,,,,,,,,,,,,,,,,,,,,,1,0.9796302999966429,115.31546959999832,None,ScrollDown,정답입니다,115.31546959999832,None,115.31546959999832,None,115.31546959999832,None,115.31546959999832,None,116.20360159999836,None,116.20360159999836,116.70360079999955,,,,,,,,,,,,,,,,107,2023-04-17_13h55.19.462,FishGame,2022.1.1,60.0800145632931,
,20,넌 편안해,1,Orange,A,5.916666666666666,5.866666666666666,ScrollDown,ScrollUp,Orange.png,1,Positive,Congruent,0,0,0,0,,,,,,,,,,,,,0,19,19,19,,,,,,,,,,,,,,,,,,,,,,,,,,,,,,,,,,,,,,,,,,,,,,,,,,,,,,,,,,,,,,,,,,,,,,,,,,,,,,,,,,,,,1,0.9964244000002509,117.31379120000202,None,ScrollDown,정답입니다,117.31379120000202,None,117.31379120000202,None,117.31379120000202,None,117.31379120000202,None,118.22025610000128,None,118.22025610000128,118.72012399999949,,,,,,,,,,,,,,,,107,2023-04-17_13h55.19.462,FishGame,2022.1.1,60.0800145632931,
,21,넌 품위있어,2,Green,B,5.291666666666666,4.466666666666667,ScrollUp,ScrollDown,Green.png,1,Positive,Incongruent,0,0,0,0,,,,,,,,,,,,,0,20,20,20,,,,,,,,,,,,,,,,,,,,,,,,,,,,,,,,,,,,,,,,,,,,,,,,,,,,,,,,,,,,,,,,,,,,,,,,,,,,,,,,,,,,,1.9552469154198964,0.9140054999952554,119.32673210000212,None,ScrollUp,정답입니다,119.32673210000212,None,119.32673210000212,None,119.32673210000212,None,119.32673210000212,None,120.15338360000169,None,120.15338360000169,120.65345849999721,,,,,,,,,,,,,,,,107,2023-04-17_13h55.19.462,FishGame,2022.1.1,60.0800145632931,
,22,넌 빈틈없어,3,Orange,A,4.833333333333333,3.966666666666667,ScrollDown,ScrollUp,Orange.png,1,Neutral,Neutral,0,0,0,0,,,,,,,,,,,,,0,21,21,21,,,,,,,,,,,,,,,,,,,,,,,,,,,,,,,,,,,,,,,,,,,,,,,,,,,,,,,,,,,,,,,,,,,,,,,,,,,,,,,,,,,,,1,0.9630861999976332,121.26333110000269,None,ScrollDown,정답입니다,121.26333110000269,None,121.26333110000269,None,121.26333110000269,None,121.26333110000269,None,122.13669220000156,None,122.13669220000156,122.6366577000008,,,,,,,,,,,,,,,,107,2023-04-17_13h55.19.462,FishGame,2022.1.1,60.0800145632931,
,23,넌 상상력없어,4,Green,B,2.833333333333333,3.133333333333333,ScrollUp,ScrollDown,Green.png,1,Negative,Congruent,0,0,0,0,,,,,,,,,,,,,0,22,22,22,,,,,,,,,,,,,,,,,,,,,,,,,,,,,,,,,,,,,,,,,,,,,,,,,,,,,,,,,,,,,,,,,,,,,,,,,,,,,,,,,,,,,1.9938271641731262,0.848274500000116,123.24432700000034,None,ScrollUp,정답입니다,123.24432700000034,None,123.24432700000034,None,123.24432700000034,None,123.24432700000034,None,124.00332799999887,None,124.00332799999887,124.50332150000031,,,,,,,,,,,,,,,,107,2023-04-17_13h55.19.462,FishGame,2022.1.1,60.0800145632931,
,24,넌 지혜로워,2,Green,B,6.333333333333334,4.633333333333334,ScrollUp,ScrollDown,Green.png,1,Positive,Incongruent,0,0,0,0,,,,,,,,,,,,,0,23,23,23,,,,,,,,,,,,,,,,,,,,,,,,,,,,,,,,,,,,,,,,,,,,,,,,,,,,,,,,,,,,,,,,,,,,,,,,,,,,,,,,,,,,,1.9969135920206706,0.8319331000020611,125.11338020000403,None,ScrollUp,정답입니다,125.11338020000403,None,125.11338020000403,None,125.11338020000403,None,125.11338020000403,None,125.853340200003,None,125.853340200003,126.35320959999808,,,,,,,,,,,,,,,,107,2023-04-17_13h55.19.462,FishGame,2022.1.1,60.0800145632931,
,25,넌 시끄러워,4,Orange,A,2.833333333333333,3.033333333333333,ScrollDown,ScrollUp,Orange.png,1,Negative,Incongruent,0,0,0,0,,,,,,,,,,,,,0,24,24,24,,,,,,,,,,,,,,,,,,,,,,,,,,,,,,,,,,,,,,,,,,,,,,,,,,,,,,,,,,,,,,,,,,,,,,,,,,,,,,,,,,,,,1,0.913196200002858,126.96427810000023,None,ScrollDown,정답입니다,126.96427810000023,None,126.96427810000023,None,126.96427810000023,None,126.96427810000023,None,127.78654410000308,None,127.78654410000308,128.286523200004,,,,,,,,,,,,,,,,107,2023-04-17_13h55.19.462,FishGame,2022.1.1,60.0800145632931,
,26,넌 만사태평이야,3,Green,B,4,4.333333333333333,ScrollUp,ScrollDown,Green.png,1,Neutral,Neutral,0,0,0,0,,,,,,,,,,,,,0,25,25,25,,,,,,,,,,,,,,,,,,,,,,,,,,,,,,,,,,,,,,,,,,,,,,,,,,,,,,,,,,,,,,,,,,,,,,,,,,,,,,,,,,,,,1.9706790049870808,0.8467053999993368,128.89580209999986,None,ScrollUp,정답입니다,128.89580209999986,None,128.89580209999986,None,128.89580209999986,None,128.89580209999986,None,129.65329219999694,None,129.65329219999694,130.15328269999736,,,,,,,,,,,,,,,,107,2023-04-17_13h55.19.462,FishGame,2022.1.1,60.0800145632931,
,27,넌 붙임성있어,1,Orange,A,5.708333333333333,5.633333333333334,ScrollDown,ScrollUp,Orange.png,1,Positive,Congruent,0,0,0,0,,,,,,,,,,,,,0,26,26,26,,,,,,,,,,,,,,,,,,,,,,,,,,,,,,,,,,,,,,,,,,,,,,,,,,,,,,,,,,,,,,,,,,,,,,,,,,,,,,,,,,,,,1,0.8460651999994298,130.7638780999987,None,ScrollDown,정답입니다,130.7638780999987,None,130.7638780999987,None,130.7638780999987,None,130.7638780999987,None,131.51752719999786,None,131.51752719999786,132.01751779999904,,,,,,,,,,,,,,,,107,2023-04-17_13h55.19.462,FishGame,2022.1.1,60.0800145632931,
,28,넌 영리해,2,Orange,A,6,4.033333333333333,ScrollDown,ScrollUp,Orange.png,1,Positive,Congruent,0,0,0,0,,,,,,,,,,,,,0,27,27,27,,,,,,,,,,,,,,,,,,,,,,,,,,,,,,,,,,,,,,,,,,,,,,,,,,,,,,,,,,,,,,,,,,,,,,,,,,,,,,,,,,,,,1.0154321193695068,1.0796622999987449,132.63028009999834,None,ScrollDown,정답입니다,132.63028009999834,None,132.63028009999834,None,132.63028009999834,None,132.63028009999834,None,133.6175499000019,None,133.6175499000019,134.1199562000038,,,,,,,,,,,,,,,,107,2023-04-17_13h55.19.462,FishGame,2022.1.1,60.0800145632931,
,29,넌 열심이야,1,Green,B,6.041666666666667,5.833333333333333,ScrollUp,ScrollDown,Green.png,1,Positive,Incongruent,0,0,0,0,,,,,,,,,,,,,0,28,28,28,,,,,,,,,,,,,,,,,,,,,,,,,,,,,,,,,,,,,,,,,,,,,,,,,,,,,,,,,,,,,,,,,,,,,,,,,,,,,,,,,,,,,2,0.8982700999986264,134.72726929999772,None,ScrollUp,정답입니다,134.72726929999772,None,134.72726929999772,None,134.72726929999772,None,134.72726929999772,None,135.5365643999976,None,135.5365643999976,136.03977000000305,,,,,,,,,,,,,,,,107,2023-04-17_13h55.19.462,FishGame,2022.1.1,60.0800145632931,
,30,넌 인기없어,4,Green,B,3,3.3,ScrollUp,ScrollDown,Green.png,1,Negative,Congruent,0,0,0,0,,,,,,,,,,,,,0,29,29,29,,,,,,,,,,,,,,,,,,,,,,,,,,,,,,,,,,,,,,,,,,,,,,,,,,,,,,,,,,,,,,,,,,,,,,,,,,,,,,,,,,,,,1.983024666706721,0.8463607000012416,136.64429129999917,None,ScrollUp,정답입니다,136.64429129999917,None,136.64429129999917,None,136.64429129999917,None,136.64429129999917,None,137.4030419999981,None,137.4030419999981,137.90301980000368,,,,,,,,,,,,,,,,107,2023-04-17_13h55.19.462,FishGame,2022.1.1,60.0800145632931,
,31,넌 익살스러워,3,Orange,A,4.708333333333334,4.833333333333333,ScrollDown,ScrollUp,Orange.png,1,Neutral,Neutral,0,0,0,0,,,,,,,,,,,,,0,30,30,30,,,,,,,,,,,,,,,,,,,,,,,,,,,,,,,,,,,,,,,,,,,,,,,,,,,,,,,,,,,,,,,,,,,,,,,,,,,,,,,,,,,,,1,0.9094724999958999,138.52355620000162,None,ScrollDown,정답입니다,138.52355620000162,None,138.52355620000162,None,138.52355620000162,None,138.52355620000162,None,139.3340446000002,None,139.3340446000002,139.83409000000393,,,,,,,,,,,,,,,,107,2023-04-17_13h55.19.462,FishGame,2022.1.1,60.0800145632931,
,32,넌 이기적이야,5,Green,B,2.291666666666667,2.333333333333333,ScrollUp,ScrollDown,Green.png,1,Negative,Congruent,0,0,0,0,,,,,,,,,,,,,0,31,31,31,,,,,,,,,,,,,,,,,,,,,,,,,,,,,,,,,,,,,,,,,,,,,,,,,,,,,,,,,,,,,,,,,,,,,,,,,,,,,,,,,,,,,1.9228395223617554,0.8485702999969362,140.435776600003,None,ScrollUp,정답입니다,140.435776600003,None,140.435776600003,None,140.435776600003,None,140.435776600003,None,141.20071460000327,None,141.20071460000327,141.70309300000372,,,,,,,,,,,,,,,,107,2023-04-17_13h55.19.462,FishGame,2022.1.1,60.0800145632931,
,33,나를 데려가줘,6,Green,B,0,0,ScrollDown,ScrollUp,Green.png,1,NonTarget,NonTarget,0,0,0,0,,,,,,,,,,,,,0,32,32,32,,,,,,,,,,,,,,,,,,,,,,,,,,,,,,,,,,,,,,,,,,,,,,,,,,,,,,,,,,,,,,,,,,,,,,,,,,,,,,,,,,,,,1,0.9484406999981729,142.30764099999942,None,ScrollDown,정답입니다,142.30764099999942,None,142.30764099999942,None,142.30764099999942,None,142.30764099999942,None,143.16978579999704,None,143.16978579999704,143.66977990000305,,,,,,,,,,,,,,,,107,2023-04-17_13h55.19.462,FishGame,2022.1.1,60.0800145632931,
,34,넌 기회주의자야,5,Orange,A,2.875,2.133333333333333,ScrollDown,ScrollUp,Orange.png,1,Negative,Incongruent,0,0,0,0,,,,,,,,,,,,,0,33,33,33,,,,,,,,,,,,,,,,,,,,,,,,,,,,,,,,,,,,,,,,,,,,,,,,,,,,,,,,,,,,,,,,,,,,,,,,,,,,,,,,,,,,,1,0.8483726999984356,144.28004679999867,None,ScrollDown,정답입니다,144.28004679999867,None,144.28004679999867,None,144.28004679999867,None,144.28004679999867,None,145.03622149999865,None,145.03622149999865,145.53623489999882,,,,,,,,,,,,,,,,107,2023-04-17_13h55.19.462,FishGame,2022.1.1,60.0800145632931,
,1,넌 미성숙해,4,Orange,A,3,3.2,ScrollDown,ScrollUp,Orange.png,2,Negative,Incongruent,0,0,0,0,,,,,,,,,,,,,,,,,0,0,0,0,,,,,,,,,,,,,,,,,,,,,,,,,,,,,,,,,,,,,,,,177.56692360000307,179.07211000000098,179.08577009999863,180.03621269999712,180.10224919999746,181.05555850000383,181.03874129999895,None,,,,,,,,,,,,,,,,,,,,,,,,,,,,,,,,,,1.0030864079793294,1.0690719000049285,182.13845369999763,None,ScrollDown,정답입니다,182.13845369999763,None,182.13845369999763,None,182.13845369999763,None,182.13845369999763,None,183.11885020000045,None,183.11885020000045,183.61890909999784,146.0394460000025,None,146.0394460000025,None,0.04537037,-0.12222222,1,0,0,0.016288219994748943,None,176.05260149999958,None,,,107,2023-04-17_13h55.19.462,FishGame,2022.1.1,60.0800145632931,
,2,넌 반사회적이야,5,Green,B,2.416666666666667,2.033333333333333,ScrollUp,ScrollDown,Green.png,2,Negative,Congruent,0,0,0,0,,,,,,,,,,,,,,,,,0,1,1,1,,,,,,,,,,,,,,,,,,,,,,,,,,,,,,,,,,,,,,,,,,,,,,,,,,,,,,,,,,,,,,,,,,,,,,,,,,,,,,,,,2,0.848466899995401,184.2252410000001,None,ScrollUp,정답입니다,184.2252410000001,None,184.2252410000001,None,184.2252410000001,None,184.2252410000001,None,184.98540340000181,None,184.98540340000181,185.48552290000225,,,,,,,,,,,,,,,,107,2023-04-17_13h55.19.462,FishGame,2022.1.1,60.0800145632931,
,3,넌 유능해,2,Orange,A,6.208333333333333,4.433333333333334,ScrollDown,ScrollUp,Orange.png,2,Positive,Congruent,0,0,0,0,,,,,,,,,,,,,,,,,0,2,2,2,,,,,,,,,,,,,,,,,,,,,,,,,,,,,,,,,,,,,,,,,,,,,,,,,,,,,,,,,,,,,,,,,,,,,,,,,,,,,,,,,1,1.548216199997114,186.0953484999991,None,ScrollDown,정답입니다,186.0953484999991,None,186.0953484999991,None,186.0953484999991,None,186.0953484999991,None,187.552059200003,None,187.552059200003,188.0520891999986,,,,,,,,,,,,,,,,107,2023-04-17_13h55.19.462,FishGame,2022.1.1,60.0800145632931,
,4,넌 능숙해,2,Green,B,5.666666666666667,4.733333333333333,ScrollUp,ScrollDown,Green.png,2,Positive,Incongruent,0,0,0,0,,,,,,,,,,,,,,,,,0,3,3,3,,,,,,,,,,,,,,,,,,,,,,,,,,,,,,,,,,,,,,,,,,,,,,,,,,,,,,,,,,,,,,,,,,,,,,,,,,,,,,,,,2,0.8797715999971842,188.65635270000348,None,ScrollUp,정답입니다,188.65635270000348,None,188.65635270000348,None,188.65635270000348,None,188.65635270000348,None,189.45195930000045,None,189.45195930000045,189.95199169999978,,,,,,,,,,,,,,,,107,2023-04-17_13h55.19.462,FishGame,2022.1.1,60.0800145632931,
,5,넌 진부해,4,Green,B,2.458333333333333,3.166666666666667,ScrollUp,ScrollDown,Green.png,2,Negative,Congruent,0,0,0,0,,,,,,,,,,,,,,,,,0,4,4,4,,,,,,,,,,,,,,,,,,,,,,,,,,,,,,,,,,,,,,,,,,,,,,,,,,,,,,,,,,,,,,,,,,,,,,,,,,,,,,,,,1.983024666706721,1.04848530000163,190.55905450000137,None,ScrollUp,정답입니다,190.55905450000137,None,190.55905450000137,None,190.55905450000137,None,190.55905450000137,None,191.51863400000002,None,191.51863400000002,192.0186188000007,,,,,,,,,,,,,,,,107,2023-04-17_13h55.19.462,FishGame,2022.1.1,60.0800145632931,
,6,나를 보내줘,6,Orange,A,0,0,ScrollUp,ScrollDown,Orange.png,2,NonTarget,NonTarget,0,0,0,0,,,,,,,,,,,,,,,,,0,5,5,5,,,,,,,,,,,,,,,,,,,,,,,,,,,,,,,,,,,,,,,,,,,,,,,,,,,,,,,,,,,,,,,,,,,,,,,,,,,,,,,,,2,1.0123116000031587,192.62545359999785,None,ScrollUp,정답입니다,192.62545359999785,None,192.62545359999785,None,192.62545359999785,None,192.62545359999785,None,193.55198380000365,None,193.55198380000365,194.05194119999942,,,,,,,,,,,,,,,,107,2023-04-17_13h55.19.462,FishGame,2022.1.1,60.0800145632931,
,7,넌 엄격해,3,Orange,A,4.166666666666666,4.1,ScrollDown,ScrollUp,Orange.png,2,Neutral,Neutral,0,0,0,0,,,,,,,,,,,,,,,,,0,6,6,6,,,,,,,,,,,,,,,,,,,,,,,,,,,,,,,,,,,,,,,,,,,,,,,,,,,,,,,,,,,,,,,,,,,,,,,,,,,,,,,,,1,0.8933225000000675,194.66431210000155,None,ScrollDown,정답입니다,194.66431210000155,None,194.66431210000155,None,194.66431210000155,None,194.66431210000155,None,195.46651640000346,None,195.46651640000346,195.96854300000268,,,,,,,,,,,,,,,,107,2023-04-17_13h55.19.462,FishGame,2022.1.1,60.0800145632931,
,8,나를 보내줘,6,Orange,A,0,0,ScrollUp,ScrollDown,Orange.png,2,NonTarget,NonTarget,0,0,0,0,,,,,,,,,,,,,,,,,0,7,7,7,,,,,,,,,,,,,,,,,,,,,,,,,,,,,,,,,,,,,,,,,,,,,,,,,,,,,,,,,,,,,,,,,,,,,,,,,,,,,,,,,1.9737654328346252,1.0794313000005786,196.57521619999898,None,ScrollUp,정답입니다,196.57521619999898,None,196.57521619999898,None,196.57521619999898,None,196.57521619999898,None,197.56848880000325,None,197.56848880000325,198.06888420000178,,,,,,,,,,,,,,,,107,2023-04-17_13h55.19.462,FishGame,2022.1.1,60.0800145632931,
,9,넌 대담해,3,Green,B,4.875,4.866666666666666,ScrollUp,ScrollDown,Green.png,2,Neutral,Neutral,0,0,0,0,,,,,,,,,,,,,,,,,0,8,8,8,,,,,,,,,,,,,,,,,,,,,,,,,,,,,,,,,,,,,,,,,,,,,,,,,,,,,,,,,,,,,,,,,,,,,,,,,,,,,,,,,2,0.7797213000012562,198.67626680000103,None,ScrollUp,정답입니다,198.67626680000103,None,198.67626680000103,None,198.67626680000103,None,198.67626680000103,None,199.3684437999982,None,199.3684437999982,199.8684973999989,,,,,,,,,,,,,,,,107,2023-04-17_13h55.19.462,FishGame,2022.1.1,60.0800145632931,
,10,넌 꾸준해,1,Orange,A,5.916666666666668,5.8,ScrollDown,ScrollUp,Orange.png,2,Positive,Congruent,0,0,0,0,,,,,,,,,,,,,,,,,0,9,9,9,,,,,,,,,,,,,,,,,,,,,,,,,,,,,,,,,,,,,,,,,,,,,,,,,,,,,,,,,,,,,,,,,,,,,,,,,,,,,,,,,1,0.8631852999969851,200.47871200000372,None,ScrollDown,정답입니다,200.47871200000372,None,200.47871200000372,None,200.47871200000372,None,200.47871200000372,None,201.25181729999895,None,201.25181729999895,201.76839699999982,,,,,,,,,,,,,,,,107,2023-04-17_13h55.19.462,FishGame,2022.1.1,60.0800145632931,
,11,나를 데려가줘,6,Green,B,0,0,ScrollDown,ScrollUp,Green.png,2,NonTarget,NonTarget,0,0,0,0,,,,,,,,,,,,,,,,,0,10,10,10,,,,,,,,,,,,,,,,,,,,,,,,,,,,,,,,,,,,,,,,,,,,,,,,,,,,,,,,,,,,,,,,,,,,,,,,,,,,,,,,,1,0.9963319000016782,202.3615665000034,None,ScrollDown,정답입니다,202.3615665000034,None,202.3615665000034,None,202.3615665000034,None,202.3615665000034,None,203.2663956000033,None,203.2663956000033,203.7683490999989,,,,,,,,,,,,,,,,107,2023-04-17_13h55.19.462,FishGame,2022.1.1,60.0800145632931,
,12,넌 독선적이야,5,Orange,A,2.458333333333333,1.933333333333333,ScrollDown,ScrollUp,Orange.png,2,Negative,Incongruent,0,0,0,0,,,,,,,,,,,,,,,,,0,11,11,11,,,,,,,,,,,,,,,,,,,,,,,,,,,,,,,,,,,,,,,,,,,,,,,,,,,,,,,,,,,,,,,,,,,,,,,,,,,,,,,,,1,0.980958100000862,204.3793014000039,None,ScrollDown,정답입니다,204.3793014000039,None,204.3793014000039,None,204.3793014000039,None,204.3793014000039,None,205.2661741999982,None,205.2661741999982,205.7683967999983,,,,,,,,,,,,,,,,107,2023-04-17_13h55.19.462,FishGame,2022.1.1,60.0800145632931,
,13,나를 보내줘,6,Orange,A,0,0,ScrollUp,ScrollDown,Orange.png,2,NonTarget,NonTarget,0,0,0,0,,,,,,,,,,,,,,,,,0,12,12,12,,,,,,,,,,,,,,,,,,,,,,,,,,,,,,,,,,,,,,,,,,,,,,,,,,,,,,,,,,,,,,,,,,,,,,,,,,,,,,,,,2,0.9123947999978554,206.37479429999803,None,ScrollUp,정답입니다,206.37479429999803,None,206.37479429999803,None,206.37479429999803,None,206.37479429999803,None,207.2016186999972,None,207.2016186999972,207.7015984000027,,,,,,,,,,,,,,,,107,2023-04-17_13h55.19.462,FishGame,2022.1.1,60.0800145632931,
,14,넌 책임감있어,1,Green,B,6.347826086956522,6,ScrollUp,ScrollDown,Green.png,2,Positive,Incongruent,0,0,0,0,,,,,,,,,,,,,,,,,0,13,13,13,,,,,,,,,,,,,,,,,,,,,,,,,,,,,,,,,,,,,,,,,,,,,,,,,,,,,,,,,,,,,,,,,,,,,,,,,,,,,,,,,1.8225308656692505,0.8481870999967214,208.30942579999828,None,ScrollUp,정답입니다,208.30942579999828,None,208.30942579999828,None,208.30942579999828,None,208.30942579999828,None,209.06827409999823,None,209.06827409999823,209.56822900000407,,,,,,,,,,,,,,,,107,2023-04-17_13h55.19.462,FishGame,2022.1.1,60.0800145632931,
,15,넌 문학적이야,3,Orange,A,4.708333333333334,4.333333333333333,ScrollDown,ScrollUp,Orange.png,2,Neutral,Neutral,0,0,0,0,,,,,,,,,,,,,,,,,0,14,14,14,,,,,,,,,,,,,,,,,,,,,,,,,,,,,,,,,,,,,,,,,,,,,,,,,,,,,,,,,,,,,,,,,,,,,,,,,,,,,,,,,1,0.8797739000001457,210.17840830000205,None,ScrollDown,정답입니다,210.17840830000205,None,210.17840830000205,None,210.17840830000205,None,210.17840830000205,None,210.96831979999843,None,210.96831979999843,211.46826470000087,,,,,,,,,,,,,,,,107,2023-04-17_13h55.19.462,FishGame,2022.1.1,60.0800145632931,
,16,넌 재미있어,1,Green,B,5.875,5.7,ScrollUp,ScrollDown,Green.png,2,Positive,Incongruent,0,0,0,0,,,,,,,,,,,,,,,,,0,15,15,15,,,,,,,,,,,,,,,,,,,,,,,,,,,,,,,,,,,,,,,,,,,,,,,,,,,,,,,,,,,,,,,,,,,,,,,,,,,,,,,,,2,0.8760498999981792,212.08097010000347,None,ScrollUp,정답입니다,212.08097010000347,None,212.08097010000347,None,212.08097010000347,None,212.08097010000347,None,212.86590140000044,None,212.86590140000044,213.36601240000164,,,,,,,,,,,,,,,,107,2023-04-17_13h55.19.462,FishGame,2022.1.1,60.0800145632931,
,17,나를 데려가줘,6,Green,B,0,0,ScrollDown,ScrollUp,Green.png,2,NonTarget,NonTarget,0,0,0,0,,,,,,,,,,,,,,,,,0,16,16,16,,,,,,,,,,,,,,,,,,,,,,,,,,,,,,,,,,,,,,,,,,,,,,,,,,,,,,,,,,,,,,,,,,,,,,,,,,,,,,,,,1,1.280510399999912,213.9723387999984,None,ScrollDown,정답입니다,213.9723387999984,None,213.9723387999984,None,213.9723387999984,None,213.9723387999984,None,215.16828080000414,None,215.16828080000414,215.6682753999994,,,,,,,,,,,,,,,,107,2023-04-17_13h55.19.462,FishGame,2022.1.1,60.0800145632931,
,18,넌 협력적이야,1,Orange,A,5.625,5.633333333333334,ScrollDown,ScrollUp,Orange.png,2,Positive,Congruent,0,0,0,0,,,,,,,,,,,,,,,,,0,17,17,17,,,,,,,,,,,,,,,,,,,,,,,,,,,,,,,,,,,,,,,,,,,,,,,,,,,,,,,,,,,,,,,,,,,,,,,,,,,,,,,,,1,0.9423978999984683,216.27616919999855,None,ScrollDown,정답입니다,216.27616919999855,None,216.27616919999855,None,216.27616919999855,None,216.27616919999855,None,217.12803970000095,None,217.12803970000095,217.6324711999987,,,,,,,,,,,,,,,,107,2023-04-17_13h55.19.462,FishGame,2022.1.1,60.0800145632931,
,19,넌 평범해,3,Green,B,4.333333333333332,4.233333333333333,ScrollUp,ScrollDown,Green.png,2,Neutral,Neutral,0,0,0,0,,,,,,,,,,,,,,,,,0,18,18,18,,,,,,,,,,,,,,,,,,,,,,,,,,,,,,,,,,,,,,,,,,,,,,,,,,,,,,,,,,,,,,,,,,,,,,,,,,,,,,,,,2,0.8130618000068353,218.24070940000092,None,ScrollUp,정답입니다,218.24070940000092,None,218.24070940000092,None,218.24070940000092,None,218.24070940000092,None,218.9658389000033,None,218.9658389000033,219.4658081000016,,,,,,,,,,,,,,,,107,2023-04-17_13h55.19.462,FishGame,2022.1.1,60.0800145632931,
,20,넌 오만해,5,Orange,A,2.333333333333333,2,ScrollDown,ScrollUp,Orange.png,2,Negative,Incongruent,0,0,0,0,,,,,,,,,,,,,,,,,0,19,19,19,,,,,,,,,,,,,,,,,,,,,,,,,,,,,,,,,,,,,,,,,,,,,,,,,,,,,,,,,,,,,,,,,,,,,,,,,,,,,,,,,1,0.8982127000053879,220.0782365999985,None,ScrollDown,정답입니다,220.0782365999985,None,220.0782365999985,None,220.0782365999985,None,220.0782365999985,None,220.8848435999971,None,220.8848435999971,221.38480680000066,,,,,,,,,,,,,,,,107,2023-04-17_13h55.19.462,FishGame,2022.1.1,60.0800145632931,
,21,넌 운이없어,4,Green,B,3,3.466666666666667,ScrollUp,ScrollDown,Green.png,2,Negative,Congruent,0,0,0,0,,,,,,,,,,,,,,,,,0,20,20,20,,,,,,,,,,,,,,,,,,,,,,,,,,,,,,,,,,,,,,,,,,,,,,,,,,,,,,,,,,,,,,,,,,,,,,,,,,,,,,,,,2,0.8818621999962488,221.9913121999998,None,ScrollUp,정답입니다,221.9913121999998,None,221.9913121999998,None,221.9913121999998,None,221.9913121999998,None,222.7848215999984,None,222.7848215999984,223.2846314999988,,,,,,,,,,,,,,,,107,2023-04-17_13h55.19.462,FishGame,2022.1.1,60.0800145632931,
,22,넌 창조적이야,2,Green,B,6.125,4.633333333333334,ScrollUp,ScrollDown,Green.png,2,Positive,Incongruent,0,0,0,0,,,,,,,,,,,,,,,,,0,21,21,21,,,,,,,,,,,,,,,,,,,,,,,,,,,,,,,,,,,,,,,,,,,,,,,,,,,,,,,,,,,,,,,,,,,,,,,,,,,,,,,,,1.604938273628553,0.8646478000009665,223.88968320000276,None,ScrollUp,정답입니다,223.88968320000276,None,223.88968320000276,None,223.88968320000276,None,223.88968320000276,None,224.66592410000158,None,224.66592410000158,225.16799000000174,,,,,,,,,,,,,,,,107,2023-04-17_13h55.19.462,FishGame,2022.1.1,60.0800145632931,
,23,나를 보내줘,6,Orange,A,0,0,ScrollUp,ScrollDown,Orange.png,2,NonTarget,NonTarget,0,0,0,0,,,,,,,,,,,,,,,,,0,22,22,22,,,,,,,,,,,,,,,,,,,,,,,,,,,,,,,,,,,,,,,,,,,,,,,,,,,,,,,,,,,,,,,,,,,,,,,,,,,,,,,,,1.9614197711149852,0.8982571000015014,225.77705979999882,None,ScrollUp,정답입니다,225.77705979999882,None,225.77705979999882,None,225.77705979999882,None,225.77705979999882,None,226.58457330000238,None,226.58457330000238,227.08454589999747,,,,,,,,,,,,,,,,107,2023-04-17_13h55.19.462,FishGame,2022.1.1,60.0800145632931,
,24,넌 통찰력있어,2,Orange,A,6.5,4.8,ScrollDown,ScrollUp,Orange.png,2,Positive,Congruent,0,0,0,0,,,,,,,,,,,,,,,,,0,23,23,23,,,,,,,,,,,,,,,,,,,,,,,,,,,,,,,,,,,,,,,,,,,,,,,,,,,,,,,,,,,,,,,,,,,,,,,,,,,,,,,,,1,0.9651943999997457,227.69461299999966,None,ScrollDown,정답입니다,227.69461299999966,None,227.69461299999966,None,227.69461299999966,None,227.69461299999966,None,228.56787089999852,None,228.56787089999852,229.0679153000019,,,,,,,,,,,,,,,,107,2023-04-17_13h55.19.462,FishGame,2022.1.1,60.0800145632931,
,25,넌 경솔해,5,Green,B,2.458333333333333,2.266666666666667,ScrollUp,ScrollDown,Green.png,2,Negative,Congruent,0,0,0,0,,,,,,,,,,,,,,,,,0,24,24,24,,,,,,,,,,,,,,,,,,,,,,,,,,,,,,,,,,,,,,,,,,,,,,,,,,,,,,,,,,,,,,,,,,,,,,,,,,,,,,,,,1.6929012313485146,0.792303099995479,229.67418180000095,None,ScrollUp,정답입니다,229.67418180000095,None,229.67418180000095,None,229.67418180000095,None,229.67418180000095,None,230.37769139999727,None,230.37769139999727,230.8821956000029,,,,,,,,,,,,,,,,107,2023-04-17_13h55.19.462,FishGame,2022.1.1,60.0800145632931,
,26,넌 초조해,4,Orange,A,2.916666666666667,3.133333333333333,ScrollDown,ScrollUp,Orange.png,2,Negative,Incongruent,0,0,0,0,,,,,,,,,,,,,,,,,0,25,25,25,,,,,,,,,,,,,,,,,,,,,,,,,,,,,,,,,,,,,,,,,,,,,,,,,,,,,,,,,,,,,,,,,,,,,,,,,,,,,,,,,1,0.8319219000040903,231.487524199998,None,ScrollDown,정답입니다,231.487524199998,None,231.487524199998,None,231.487524199998,None,231.487524199998,None,232.2321832000016,None,232.2321832000016,232.73221490000287,,,,,,,,,,,,,,,,107,2023-04-17_13h55.19.462,FishGame,2022.1.1,60.0800145632931,
,27,넌 무관심해,4,Green,B,2.833333333333333,2.9,ScrollUp,ScrollDown,Green.png,2,Negative,Congruent,0,0,0,0,,,,,,,,,,,,,,,,,0,26,26,26,,,,,,,,,,,,,,,,,,,,,,,,,,,,,,,,,,,,,,,,,,,,,,,,,,,,,,,,,,,,,,,,,,,,,,,,,,,,,,,,,1.9891975224018097,0.8319234000009601,233.3418789999996,None,ScrollUp,정답입니다,233.3418789999996,None,233.3418789999996,None,233.3418789999996,None,233.3418789999996,None,234.08463579999807,None,234.08463579999807,234.5845932000011,,,,,,,,,,,,,,,,107,2023-04-17_13h55.19.462,FishGame,2022.1.1,60.0800145632931,
,28,넌 감성적이야,3,Green,B,4.125,4.166666666666667,ScrollUp,ScrollDown,Green.png,2,Neutral,Neutral,0,0,0,0,,,,,,,,,,,,,,,,,0,27,27,27,,,,,,,,,,,,,,,,,,,,,,,,,,,,,,,,,,,,,,,,,,,,,,,,,,,,,,,,,,,,,,,,,,,,,,,,,,,,,,,,,2,0.8427848999999696,235.19655469999998,None,ScrollUp,정답입니다,235.19655469999998,None,235.19655469999998,None,235.19655469999998,None,235.19655469999998,None,235.94877180000185,None,235.94877180000185,236.4487525000004,,,,,,,,,,,,,,,,107,2023-04-17_13h55.19.462,FishGame,2022.1.1,60.0800145632931,
,29,넌 배려심있어,1,Orange,A,6.083333333333333,5.5,ScrollDown,ScrollUp,Orange.png,2,Positive,Congruent,0,0,0,0,,,,,,,,,,,,,,,,,0,28,28,28,,,,,,,,,,,,,,,,,,,,,,,,,,,,,,,,,,,,,,,,,,,,,,,,,,,,,,,,,,,,,,,,,,,,,,,,,,,,,,,,,1,0.7671898999979021,237.05617820000043,None,ScrollDown,정답입니다,237.05617820000043,None,237.05617820000043,None,237.05617820000043,None,237.05617820000043,None,237.73211230000015,None,237.73211230000015,238.23449690000416,,,,,,,,,,,,,,,,107,2023-04-17_13h55.19.462,FishGame,2022.1.1,60.0800145632931,
,30,넌 숨김없어,3,Orange,A,4.5,4.933333333333334,ScrollDown,ScrollUp,Orange.png,2,Neutral,Neutral,0,0,0,0,,,,,,,,,,,,,,,,,0,29,29,29,,,,,,,,,,,,,,,,,,,,,,,,,,,,,,,,,,,,,,,,,,,,,,,,,,,,,,,,,,,,,,,,,,,,,,,,,,,,,,,,,1,0.8647587000014028,238.84681000000273,None,ScrollDown,정답입니다,238.84681000000273,None,238.84681000000273,None,238.84681000000273,None,238.84681000000273,None,239.6178362999999,None,239.6178362999999,240.11778339999728,,,,,,,,,,,,,,,,107,2023-04-17_13h55.19.462,FishGame,2022.1.1,60.0800145632931,
,31,넌 훌륭해,2,Green,B,5.916666666666667,4.033333333333333,ScrollUp,ScrollDown,Green.png,2,Positive,Incongruent,0,0,0,0,,,,,,,,,,,,,,,,,0,30,30,30,,,,,,,,,,,,,,,,,,,,,,,,,,,,,,,,,,,,,,,,,,,,,,,,,,,,,,,,,,,,,,,,,,,,,,,,,,,,,,,,,2,0.8592360999973607,240.73494039999787,None,ScrollUp,정답입니다,240.73494039999787,None,240.73494039999787,None,240.73494039999787,None,240.73494039999787,None,241.5009424000018,None,241.5009424000018,242.00092779999977,,,,,,,,,,,,,,,,107,2023-04-17_13h55.19.462,FishGame,2022.1.1,60.0800145632931,
,32,넌 슬기로워,2,Orange,A,6.166666666666667,4.1,ScrollDown,ScrollUp,Orange.png,2,Positive,Congruent,0,0,0,0,,,,,,,,,,,,,,,,,0,31,31,31,,,,,,,,,,,,,,,,,,,,,,,,,,,,,,,,,,,,,,,,,,,,,,,,,,,,,,,,,,,,,,,,,,,,,,,,,,,,,,,,,1,0.9296123999956762,242.60962599999766,None,ScrollDown,정답입니다,242.60962599999766,None,242.60962599999766,None,242.60962599999766,None,242.60962599999766,None,243.45086760000413,None,243.45086760000413,243.9508704999971,,,,,,,,,,,,,,,,107,2023-04-17_13h55.19.462,FishGame,2022.1.1,60.0800145632931,
,33,넌 냉혹해,5,Orange,A,2.583333333333333,2.1,ScrollDown,ScrollUp,Orange.png,2,Negative,Incongruent,0,0,0,0,,,,,,,,,,,,,,,,,0,32,32,32,,,,,,,,,,,,,,,,,,,,,,,,,,,,,,,,,,,,,,,,,,,,,,,,,,,,,,,,,,,,,,,,,,,,,,,,,,,,,,,,,1,0.8484997000050498,244.57618139999977,None,ScrollDown,정답입니다,244.57618139999977,None,244.57618139999977,None,244.57618139999977,None,244.57618139999977,None,245.3342180999971,None,245.3342180999971,245.83421819999785,,,,,,,,,,,,,,,,107,2023-04-17_13h55.19.462,FishGame,2022.1.1,60.0800145632931,
,34,나를 데려가줘,6,Green,B,0,0,ScrollDown,ScrollUp,Green.png,2,NonTarget,NonTarget,0,0,0,0,,,,,,,,,,,,,,,,,0,33,33,33,,,,,,,,,,,,,,,,,,,,,,,,,,,,,,,,,,,,,,,,,,,,,,,,,,,,,,,,,,,,,,,,,,,,,,,,,,,,,,,,,1,0.9648149000058766,246.43711800000165,None,ScrollDown,정답입니다,246.43711800000165,None,246.43711800000165,None,246.43711800000165,None,246.43711800000165,None,247.31754119999823,None,247.31754119999823,247.82087109999702,,,,,,,,,,,,,,,,107,2023-04-17_13h55.19.462,FishGame,2022.1.1,60.0800145632931,
,35,넌 편파적이야,5,Green,B,2.125,2,ScrollUp,ScrollDown,Green.png,2,Negative,Congruent,0,0,0,0,,,,,,,,,,,,,,,,,0,34,34,34,,,,,,,,,,,,,,,,,,,,,,,,,,,,,,,,,,,,,,,,,,,,,,,,,,,,,,,,,,,,,,,,,,,,,,,,,,,,,,,,,2,0.9297747000018717,248.42367650000233,None,ScrollUp,정답입니다,248.42367650000233,None,248.42367650000233,None,248.42367650000233,None,248.42367650000233,None,249.2674124000041,None,249.2674124000041,249.7841058999984,,,,,,,,,,,,,,,,107,2023-04-17_13h55.19.462,FishGame,2022.1.1,60.0800145632931,
,36,넌 슬퍼,4,Orange,A,2.583333333333333,3.066666666666667,ScrollDown,ScrollUp,Orange.png,2,Negative,Incongruent,0,0,0,0,,,,,,,,,,,,,,,,,0,35,35,35,,,,,,,,,,,,,,,,,,,,,,,,,,,,,,,,,,,,,,,,,,,,,,,,,,,,,,,,,,,,,,,,,,,,,,,,,,,,,,,,,1,0.8958347000007052,250.37208929999906,None,ScrollDown,정답입니다,250.37208929999906,None,250.37208929999906,None,250.37208929999906,None,250.37208929999906,None,251.18408900000213,None,251.18408900000213,251.684081899999,,,,,,,,,,,,,,,,107,2023-04-17_13h55.19.462,FishGame,2022.1.1,60.0800145632931,
,37,나를 데려가줘,6,Green,B,0,0,ScrollDown,ScrollUp,Green.png,2,NonTarget,NonTarget,0,0,0,0,,,,,,,,,,,,,,,,,0,36,36,36,,,,,,,,,,,,,,,,,,,,,,,,,,,,,,,,,,,,,,,,,,,,,,,,,,,,,,,,,,,,,,,,,,,,,,,,,,,,,,,,,1,0.9631000000008498,252.2881542000032,None,ScrollDown,정답입니다,252.2881542000032,None,252.2881542000032,None,252.2881542000032,None,252.2881542000032,None,253.16738199999963,None,253.16738199999963,253.6673038000008,,,,,,,,,,,,,,,,107,2023-04-17_13h55.19.462,FishGame,2022.1.1,60.0800145632931,
,38,넌 친절해,1,Green,B,6.041666666666667,5.533333333333333,ScrollUp,ScrollDown,Green.png,2,Positive,Incongruent,0,0,0,0,,,,,,,,,,,,,,,,,0,37,37,37,,,,,,,,,,,,,,,,,,,,,,,,,,,,,,,,,,,,,,,,,,,,,,,,,,,,,,,,,,,,,,,,,,,,,,,,,,,,,,,,,2,0.8960344999941299,254.2725780999972,None,ScrollUp,정답입니다,254.2725780999972,None,254.2725780999972,None,254.2725780999972,None,254.2725780999972,None,255.08412829999725,None,255.08412829999725,255.58400580000307,,,,,,,,,,,,,,,,107,2023-04-17_13h55.19.462,FishGame,2022.1.1,60.0800145632931,
,1,넌 엉성해,4,Orange,A,3,3.3,ScrollDown,ScrollUp,Orange.png,3,Negative,Incongruent,0,0,0,0,,,,,,,,,,,,,,,,,,,,,0,0,0,0,,,,,,,,,,,,,,,,,,,,,,,,,,,,,,,,,,,,287.41991150000104,288.93347489999724,288.95066360000055,289.900183800004,289.95019760000287,290.9000295000005,290.9000295000005,None,,,,,,,,,,,,,,,,,,,,,,,,,,,,,,,,,,1,1.007109699996363,291.97882270000264,None,ScrollDown,정답입니다,291.97882270000264,None,291.97882270000264,None,291.97882270000264,None,291.97882270000264,None,292.8999077999979,None,292.8999077999979,293.3999358000001,256.08198229999834,None,256.08198229999834,None,0.07037037,-0.09166667,1,0,0,0.01616261999879498,None,286.0832870000013,None,,,107,2023-04-17_13h55.19.462,FishGame,2022.1.1,60.0800145632931,
,2,나를 보내줘,6,Orange,A,0,0,ScrollUp,ScrollDown,Orange.png,3,NonTarget,NonTarget,0,0,0,0,,,,,,,,,,,,,,,,,,,,,0,1,1,1,,,,,,,,,,,,,,,,,,,,,,,,,,,,,,,,,,,,,,,,,,,,,,,,,,,,,,,,,,,,,,,,,,,,,,,,,,,,,1.9907407363255818,1.0958637000003364,294.0041934000037,None,ScrollUp,정답입니다,294.0041934000037,None,294.0041934000037,None,294.0041934000037,None,294.0041934000037,None,295.01651349999884,None,295.01651349999884,295.5165350000025,,,,,,,,,,,,,,,,107,2023-04-17_13h55.19.462,FishGame,2022.1.1,60.0800145632931,
,3,넌 활발해,1,Green,B,5.666666666666667,5.6,ScrollUp,ScrollDown,Green.png,3,Positive,Incongruent,0,0,0,0,,,,,,,,,,,,,,,,,,,,,0,2,2,2,,,,,,,,,,,,,,,,,,,,,,,,,,,,,,,,,,,,,,,,,,,,,,,,,,,,,,,,,,,,,,,,,,,,,,,,,,,,,2,0.9652236999972956,296.12327950000326,None,ScrollUp,정답입니다,296.12327950000326,None,296.12327950000326,None,296.12327950000326,None,296.12327950000326,None,296.99986329999956,None,296.99986329999956,297.4998257999978,,,,,,,,,,,,,,,,107,2023-04-17_13h55.19.462,FishGame,2022.1.1,60.0800145632931,
,4,넌 논리적이야,2,Orange,A,5.666666666666666,4.633333333333334,ScrollDown,ScrollUp,Orange.png,3,Positive,Congruent,0,0,0,0,,,,,,,,,,,,,,,,,,,,,0,3,3,3,,,,,,,,,,,,,,,,,,,,,,,,,,,,,,,,,,,,,,,,,,,,,,,,,,,,,,,,,,,,,,,,,,,,,,,,,,,,,1,0.8456585999956587,298.1070910999988,None,ScrollDown,정답입니다,298.1070910999988,None,298.1070910999988,None,298.1070910999988,None,298.1070910999988,None,298.86642839999695,None,298.86642839999695,299.3664193000004,,,,,,,,,,,,,,,,107,2023-04-17_13h55.19.462,FishGame,2022.1.1,60.0800145632931,
,5,넌 과묵해,3,Orange,A,3.875,4.4,ScrollDown,ScrollUp,Orange.png,3,Neutral,Neutral,0,0,0,0,,,,,,,,,,,,,,,,,,,,,0,4,4,4,,,,,,,,,,,,,,,,,,,,,,,,,,,,,,,,,,,,,,,,,,,,,,,,,,,,,,,,,,,,,,,,,,,,,,,,,,,,,1,0.8627600000036182,299.9741587000026,None,ScrollDown,정답입니다,299.9741587000026,None,299.9741587000026,None,299.9741587000026,None,299.9741587000026,None,300.749782400002,None,300.749782400002,301.2497546000013,,,,,,,,,,,,,,,,107,2023-04-17_13h55.19.462,FishGame,2022.1.1,60.0800145632931,
,6,나를 데려가줘,6,Green,B,0,0,ScrollDown,ScrollUp,Green.png,3,NonTarget,NonTarget,0,0,0,0,,,,,,,,,,,,,,,,,,,,,0,5,5,5,,,,,,,,,,,,,,,,,,,,,,,,,,,,,,,,,,,,,,,,,,,,,,,,,,,,,,,,,,,,,,,,,,,,,,,,,,,,,1.0185184975465138,1.1983903000000282,301.85090820000187,None,ScrollDown,정답입니다,301.85090820000187,None,301.85090820000187,None,301.85090820000187,None,301.85090820000187,None,302.96641329999693,None,302.96641329999693,303.46646789999795,,,,,,,,,,,,,,,,107,2023-04-17_13h55.19.462,FishGame,2022.1.1,60.0800145632931,
,7,넌 미숙해,4,Green,B,3,3,ScrollUp,ScrollDown,Green.png,3,Negative,Congruent,0,0,0,0,,,,,,,,,,,,,,,,,,,,,0,6,6,6,,,,,,,,,,,,,,,,,,,,,,,,,,,,,,,,,,,,,,,,,,,,,,,,,,,,,,,,,,,,,,,,,,,,,,,,,,,,,2,0.84617829999479,304.06814170000143,None,ScrollUp,정답입니다,304.06814170000143,None,304.06814170000143,None,304.06814170000143,None,304.06814170000143,None,304.8329850000009,None,304.8329850000009,305.33298540000396,,,,,,,,,,,,,,,,107,2023-04-17_13h55.19.462,FishGame,2022.1.1,60.0800145632931,
,8,나를 보내줘,6,Orange,A,0,0,ScrollUp,ScrollDown,Orange.png,3,NonTarget,NonTarget,0,0,0,0,,,,,,,,,,,,,,,,,,,,,0,7,7,7,,,,,,,,,,,,,,,,,,,,,,,,,,,,,,,,,,,,,,,,,,,,,,,,,,,,,,,,,,,,,,,,,,,,,,,,,,,,,1.90586419403553,0.962769699995988,305.93869039999845,None,ScrollUp,정답입니다,305.93869039999845,None,305.93869039999845,None,305.93869039999845,None,305.93869039999845,None,306.8162758000035,None,306.8162758000035,307.3162827999986,,,,,,,,,,,,,,,,107,2023-04-17_13h55.19.462,FishGame,2022.1.1,60.0800145632931,
,9,넌 자신만만해,3,Green,B,4.833333333333334,4.333333333333333,ScrollUp,ScrollDown,Green.png,3,Neutral,Neutral,0,0,0,0,,,,,,,,,,,,,,,,,,,,,0,8,8,8,,,,,,,,,,,,,,,,,,,,,,,,,,,,,,,,,,,,,,,,,,,,,,,,,,,,,,,,,,,,,,,,,,,,,,,,,,,,,1.8827160596847534,0.9630165999988094,307.9175393999976,None,ScrollUp,정답입니다,307.9175393999976,None,307.9175393999976,None,307.9175393999976,None,307.9175393999976,None,308.79961360000016,None,308.79961360000016,309.29965220000304,,,,,,,,,,,,,,,,107,2023-04-17_13h55.19.462,FishGame,2022.1.1,60.0800145632931,
,10,넌 탐욕스러워,5,Orange,A,2.25,2.1,ScrollDown,ScrollUp,Orange.png,3,Negative,Incongruent,0,0,0,0,,,,,,,,,,,,,,,,,,,,,0,9,9,9,,,,,,,,,,,,,,,,,,,,,,,,,,,,,,,,,,,,,,,,,,,,,,,,,,,,,,,,,,,,,,,,,,,,,,,,,,,,,1,0.9314408999998705,309.9127429,None,ScrollDown,정답입니다,309.9127429,None,309.9127429,None,309.9127429,None,309.9127429,None,310.7476756000033,None,310.7476756000033,311.2496303000007,,,,,,,,,,,,,,,,107,2023-04-17_13h55.19.462,FishGame,2022.1.1,60.0800145632931,
,11,넌 인기있어,2,Orange,A,5.458333333333333,4.5,ScrollDown,ScrollUp,Orange.png,3,Positive,Congruent,0,0,0,0,,,,,,,,,,,,,,,,,,,,,0,10,10,10,,,,,,,,,,,,,,,,,,,,,,,,,,,,,,,,,,,,,,,,,,,,,,,,,,,,,,,,,,,,,,,,,,,,,,,,,,,,,1.0432098706563313,0.8793361999996705,311.85516500000085,None,ScrollDown,정답입니다,311.85516500000085,None,311.85516500000085,None,311.85516500000085,None,311.85516500000085,None,312.64955329999793,None,312.64955329999793,313.14953160000005,,,,,,,,,,,,,,,,107,2023-04-17_13h55.19.462,FishGame,2022.1.1,60.0800145632931,
,12,나를 데려가줘,6,Green,B,0,0,ScrollDown,ScrollUp,Green.png,3,NonTarget,NonTarget,0,0,0,0,,,,,,,,,,,,,,,,,,,,,0,11,11,11,,,,,,,,,,,,,,,,,,,,,,,,,,,,,,,,,,,,,,,,,,,,,,,,,,,,,,,,,,,,,,,,,,,,,,,,,,,,,1,0.9462357999946107,313.7510986999987,None,ScrollDown,정답입니다,313.7510986999987,None,313.7510986999987,None,313.7510986999987,None,313.7510986999987,None,314.61612120000063,None,314.61612120000063,315.1161342999985,,,,,,,,,,,,,,,,107,2023-04-17_13h55.19.462,FishGame,2022.1.1,60.0800145632931,
,13,넌 뛰어나,2,Green,B,6.166666666666667,4,ScrollUp,ScrollDown,Green.png,3,Positive,Incongruent,0,0,0,0,,,,,,,,,,,,,,,,,,,,,0,12,12,12,,,,,,,,,,,,,,,,,,,,,,,,,,,,,,,,,,,,,,,,,,,,,,,,,,,,,,,,,,,,,,,,,,,,,,,,,,,,,1.9969135920206706,0.8481327000044985,315.72152410000126,None,ScrollUp,정답입니다,315.72152410000126,None,315.72152410000126,None,315.72152410000126,None,315.72152410000126,None,316.48277000000235,None,316.48277000000235,316.9827802,,,,,,,,,,,,,,,,107,2023-04-17_13h55.19.462,FishGame,2022.1.1,60.0800145632931,
,14,넌 낙관적이야,1,Orange,A,5.75,5.8,ScrollDown,ScrollUp,Orange.png,3,Positive,Congruent,0,0,0,0,,,,,,,,,,,,,,,,,,,,,0,13,13,13,,,,,,,,,,,,,,,,,,,,,,,,,,,,,,,,,,,,,,,,,,,,,,,,,,,,,,,,,,,,,,,,,,,,,,,,,,,,,1,0.9149111000006087,317.58865250000235,None,ScrollDown,정답입니다,317.58865250000235,None,317.58865250000235,None,317.58865250000235,None,317.58865250000235,None,318.4161585999973,None,318.4161585999973,318.91923710000265,,,,,,,,,,,,,,,,107,2023-04-17_13h55.19.462,FishGame,2022.1.1,60.0800145632931,
,15,넌 산만해,4,Green,B,2.695652173913043,3.033333333333333,ScrollUp,ScrollDown,Green.png,3,Negative,Congruent,0,0,0,0,,,,,,,,,,,,,,,,,,,,,0,14,14,14,,,,,,,,,,,,,,,,,,,,,,,,,,,,,,,,,,,,,,,,,,,,,,,,,,,,,,,,,,,,,,,,,,,,,,,,,,,,,1.8549382835626602,0.9316910999987158,319.5194799000019,None,ScrollUp,정답입니다,319.5194799000019,None,319.5194799000019,None,319.5194799000019,None,319.5194799000019,None,320.3660266000006,None,320.3660266000006,320.86600989999715,,,,,,,,,,,,,,,,107,2023-04-17_13h55.19.462,FishGame,2022.1.1,60.0800145632931,
,16,나를 보내줘,6,Orange,A,0,0,ScrollUp,ScrollDown,Orange.png,3,NonTarget,NonTarget,0,0,0,0,,,,,,,,,,,,,,,,,,,,,0,15,15,15,,,,,,,,,,,,,,,,,,,,,,,,,,,,,,,,,,,,,,,,,,,,,,,,,,,,,,,,,,,,,,,,,,,,,,,,,,,,,1.8348765522241592,0.9985501999981352,321.47144000000117,None,ScrollUp,정답입니다,321.47144000000117,None,321.47144000000117,None,321.47144000000117,None,321.47144000000117,None,322.3826992000031,None,322.3826992000031,322.88269160000345,,,,,,,,,,,,,,,,107,2023-04-17_13h55.19.462,FishGame,2022.1.1,60.0800145632931,
,17,넌 교활해,5,Green,B,2.333333333333333,2.133333333333333,ScrollUp,ScrollDown,Green.png,3,Negative,Congruent,0,0,0,0,,,,,,,,,,,,,,,,,,,,,0,16,16,16,,,,,,,,,,,,,,,,,,,,,,,,,,,,,,,,,,,,,,,,,,,,,,,,,,,,,,,,,,,,,,,,,,,,,,,,,,,,,1.8981481492519379,0.8959890999976778,323.48571919999813,None,ScrollUp,정답입니다,323.48571919999813,None,323.48571919999813,None,323.48571919999813,None,323.48571919999813,None,324.2992682999975,None,324.2992682999975,324.7992535000012,,,,,,,,,,,,,,,,107,2023-04-17_13h55.19.462,FishGame,2022.1.1,60.0800145632931,
,18,나를 보내줘,6,Orange,A,0,0,ScrollUp,ScrollDown,Orange.png,3,NonTarget,NonTarget,0,0,0,0,,,,,,,,,,,,,,,,,,,,,0,17,17,17,,,,,,,,,,,,,,,,,,,,,,,,,,,,,,,,,,,,,,,,,,,,,,,,,,,,,,,,,,,,,,,,,,,,,,,,,,,,,1.9490740597248077,1.198207100002037,325.4031971000004,None,ScrollUp,정답입니다,325.4031971000004,None,325.4031971000004,None,325.4031971000004,None,325.4031971000004,None,326.5159061000013,None,326.5159061000013,327.01596199999767,,,,,,,,,,,,,,,,107,2023-04-17_13h55.19.462,FishGame,2022.1.1,60.0800145632931,
,19,넌 불친절해,5,Green,B,2.208333333333333,2.033333333333333,ScrollUp,ScrollDown,Green.png,3,Negative,Congruent,0,0,0,0,,,,,,,,,,,,,,,,,,,,,0,18,18,18,,,,,,,,,,,,,,,,,,,,,,,,,,,,,,,,,,,,,,,,,,,,,,,,,,,,,,,,,,,,,,,,,,,,,,,,,,,,,1.919753094514211,0.8317938999971375,327.6221044999984,None,ScrollUp,정답입니다,327.6221044999984,None,327.6221044999984,None,327.6221044999984,None,327.6221044999984,None,328.3659598000013,None,328.3659598000013,328.86584279999806,,,,,,,,,,,,,,,,107,2023-04-17_13h55.19.462,FishGame,2022.1.1,60.0800145632931,
,20,넌 지적이야,2,Green,B,5.75,4.366666666666666,ScrollUp,ScrollDown,Green.png,3,Positive,Incongruent,0,0,0,0,,,,,,,,,,,,,,,,,,,,,0,19,19,19,,,,,,,,,,,,,,,,,,,,,,,,,,,,,,,,,,,,,,,,,,,,,,,,,,,,,,,,,,,,,,,,,,,,,,,,,,,,,1.9290123283863068,0.8293529000002309,329.4675451000003,None,ScrollUp,정답입니다,329.4675451000003,None,329.4675451000003,None,329.4675451000003,None,329.4675451000003,None,330.21578939999745,None,330.21578939999745,330.7158380999972,,,,,,,,,,,,,,,,107,2023-04-17_13h55.19.462,FishGame,2022.1.1,60.0800145632931,
,21,넌 우유부단해,4,Orange,A,2.666666666666667,3.166666666666667,ScrollDown,ScrollUp,Orange.png,3,Negative,Incongruent,0,0,0,0,,,,,,,,,,,,,,,,,,,,,0,20,20,20,,,,,,,,,,,,,,,,,,,,,,,,,,,,,,,,,,,,,,,,,,,,,,,,,,,,,,,,,,,,,,,,,,,,,,,,,,,,,1,0.829458699998213,331.3254245999997,None,ScrollDown,정답입니다,331.3254245999997,None,331.3254245999997,None,331.3254245999997,None,331.3254245999997,None,332.06580440000107,None,332.06580440000107,332.565843999997,,,,,,,,,,,,,,,,107,2023-04-17_13h55.19.462,FishGame,2022.1.1,60.0800145632931,
,22,나를 데려가줘,6,Green,B,0,0,ScrollDown,ScrollUp,Green.png,3,NonTarget,NonTarget,0,0,0,0,,,,,,,,,,,,,,,,,,,,,0,21,21,21,,,,,,,,,,,,,,,,,,,,,,,,,,,,,,,,,,,,,,,,,,,,,,,,,,,,,,,,,,,,,,,,,,,,,,,,,,,,,1,0.9458216999992146,333.16747659999965,None,ScrollDown,정답입니다,333.16747659999965,None,333.16747659999965,None,333.16747659999965,None,333.16747659999965,None,334.0301154999979,None,334.0301154999979,334.53010540000105,,,,,,,,,,,,,,,,107,2023-04-17_13h55.19.462,FishGame,2022.1.1,60.0800145632931,
,23,넌 성실해,1,Green,B,6.041666666666666,5.7,ScrollUp,ScrollDown,Green.png,3,Positive,Incongruent,0,0,0,0,,,,,,,,,,,,,,,,,,,,,0,22,22,22,,,,,,,,,,,,,,,,,,,,,,,,,,,,,,,,,,,,,,,,,,,,,,,,,,,,,,,,,,,,,,,,,,,,,,,,,,,,,2,0.8480568000013591,335.1332751000009,None,ScrollUp,정답입니다,335.1332751000009,None,335.1332751000009,None,335.1332751000009,None,335.1332751000009,None,335.8968212000036,None,335.8968212000036,336.39991459999874,,,,,,,,,,,,,,,,107,2023-04-17_13h55.19.462,FishGame,2022.1.1,60.0800145632931,
,24,넌 현실주의적이야,3,Orange,A,4.625,4.4,ScrollDown,ScrollUp,Orange.png,3,Neutral,Neutral,0,0,0,0,,,,,,,,,,,,,,,,,,,,,0,23,23,23,,,,,,,,,,,,,,,,,,,,,,,,,,,,,,,,,,,,,,,,,,,,,,,,,,,,,,,,,,,,,,,,,,,,,,,,,,,,,1,0.897742000001017,337.0061609999975,None,ScrollDown,정답입니다,337.0061609999975,None,337.0061609999975,None,337.0061609999975,None,337.0061609999975,None,337.81587469999795,None,337.81587469999795,338.31583330000285,,,,,,,,,,,,,,,,107,2023-04-17_13h55.19.462,FishGame,2022.1.1,60.0800145632931,
,25,넌 진실돼,1,Orange,A,6.625,5.566666666666666,ScrollDown,ScrollUp,Orange.png,3,Positive,Congruent,0,0,0,0,,,,,,,,,,,,,,,,,,,,,0,24,24,24,,,,,,,,,,,,,,,,,,,,,,,,,,,,,,,,,,,,,,,,,,,,,,,,,,,,,,,,,,,,,,,,,,,,,,,,,,,,,1.0308642089366913,0.7983156999980565,338.9213461000036,None,ScrollDown,정답입니다,338.9213461000036,None,338.9213461000036,None,338.9213461000036,None,338.9213461000036,None,339.6323249999987,None,339.6323249999987,340.1323233000003,,,,,,,,,,,,,,,,107,2023-04-17_13h55.19.462,FishGame,2022.1.1,60.0800145632931,
,26,넌 천진난만해,3,Green,B,4.958333333333334,4.833333333333333,ScrollUp,ScrollDown,Green.png,3,Neutral,Neutral,0,0,0,0,,,,,,,,,,,,,,,,,,,,,0,25,25,25,,,,,,,,,,,,,,,,,,,,,,,,,,,,,,,,,,,,,,,,,,,,,,,,,,,,,,,,,,,,,,,,,,,,,,,,,,,,,2,0.814833099997486,340.743109199997,None,ScrollUp,정답입니다,340.743109199997,None,340.743109199997,None,340.743109199997,None,340.743109199997,None,341.46560370000225,None,341.46560370000225,341.9656079999986,,,,,,,,,,,,,,,,107,2023-04-17_13h55.19.462,FishGame,2022.1.1,60.0800145632931,
,27,넌 교양없어,5,Orange,A,2.416666666666667,2.2,ScrollDown,ScrollUp,Orange.png,3,Negative,Incongruent,0,0,0,0,,,,,,,,,,,,,,,,,,,,,0,26,26,26,,,,,,,,,,,,,,,,,,,,,,,,,,,,,,,,,,,,,,,,,,,,,,,,,,,,,,,,,,,,,,,,,,,,,,,,,,,,,1,0.9122315999993589,342.5744877000034,None,ScrollDown,정답입니다,342.5744877000034,None,342.5744877000034,None,342.5744877000034,None,342.5744877000034,None,343.3965945000018,None,343.3965945000018,343.89658919999783,,,,,,,,,,,,,,,,107,2023-04-17_13h55.19.462,FishGame,2022.1.1,60.0800145632931,
,28,나를 보내줘,6,Orange,A,0,0,ScrollUp,ScrollDown,Orange.png,3,NonTarget,NonTarget,0,0,0,0,,,,,,,,,,,,,,,,,,,,,0,27,27,27,,,,,,,,,,,,,,,,,,,,,,,,,,,,,,,,,,,,,,,,,,,,,,,,,,,,,,,,,,,,,,,,,,,,,,,,,,,,,1.8533950696388881,0.8956466000017826,344.50509769999917,None,ScrollUp,정답입니다,344.50509769999917,None,344.50509769999917,None,344.50509769999917,None,344.50509769999917,None,345.3133665999994,None,345.3133665999994,345.8156670000026,,,,,,,,,,,,,,,,107,2023-04-17_13h55.19.462,FishGame,2022.1.1,60.0800145632931,
,29,넌 엉뚱스러워,3,Orange,A,4.166666666666667,4.133333333333334,ScrollDown,ScrollUp,Orange.png,3,Neutral,Neutral,0,0,0,0,,,,,,,,,,,,,,,,,,,,,0,28,28,28,,,,,,,,,,,,,,,,,,,,,,,,,,,,,,,,,,,,,,,,,,,,,,,,,,,,,,,,,,,,,,,,,,,,,,,,,,,,,1,0.9652532999971299,346.4265491999977,None,ScrollDown,정답입니다,346.4265491999977,None,346.4265491999977,None,346.4265491999977,None,346.4265491999977,None,347.2989366000038,None,347.2989366000038,347.79896030000236,,,,,,,,,,,,,,,,107,2023-04-17_13h55.19.462,FishGame,2022.1.1,60.0800145632931,
,30,넌 무지해,4,Green,B,2.541666666666667,3.066666666666667,ScrollUp,ScrollDown,Green.png,3,Negative,Congruent,0,0,0,0,,,,,,,,,,,,,,,,,,,,,0,29,29,29,,,,,,,,,,,,,,,,,,,,,,,,,,,,,,,,,,,,,,,,,,,,,,,,,,,,,,,,,,,,,,,,,,,,,,,,,,,,,1.7484567960103354,0.7761342999947374,348.4029819999996,None,ScrollUp,정답입니다,348.4029819999996,None,348.4029819999996,None,348.4029819999996,None,348.4029819999996,None,349.09878690000187,None,349.09878690000187,349.59877750000305,,,,,,,,,,,,,,,,107,2023-04-17_13h55.19.462,FishGame,2022.1.1,60.0800145632931,
,31,넌 음울해,5,Green,B,2.25,2.233333333333333,ScrollUp,ScrollDown,Green.png,3,Negative,Congruent,0,0,0,0,,,,,,,,,,,,,,,,,,,,,0,30,30,30,,,,,,,,,,,,,,,,,,,,,,,,,,,,,,,,,,,,,,,,,,,,,,,,,,,,,,,,,,,,,,,,,,,,,,,,,,,,,2,0.8296316000050865,350.20359160000226,None,ScrollUp,정답입니다,350.20359160000226,None,350.20359160000226,None,350.20359160000226,None,350.20359160000226,None,350.9487097000019,None,350.9487097000019,351.4487137000033,,,,,,,,,,,,,,,,107,2023-04-17_13h55.19.462,FishGame,2022.1.1,60.0800145632931,
,32,넌 냉소적이야,5,Orange,A,2.916666666666667,2.4,ScrollDown,ScrollUp,Orange.png,3,Negative,Incongruent,0,0,0,0,,,,,,,,,,,,,,,,,,,,,0,31,31,31,,,,,,,,,,,,,,,,,,,,,,,,,,,,,,,,,,,,,,,,,,,,,,,,,,,,,,,,,,,,,,,,,,,,,,,,,,,,,1,0.9129730999993626,352.0542204000012,None,ScrollDown,정답입니다,352.0542204000012,None,352.0542204000012,None,352.0542204000012,None,352.0542204000012,None,352.8820358000012,None,352.8820358000012,353.38204060000135,,,,,,,,,,,,,,,,107,2023-04-17_13h55.19.462,FishGame,2022.1.1,60.0800145632931,
,33,나를 데려가줘,6,Green,B,0,0,ScrollDown,ScrollUp,Green.png,3,NonTarget,NonTarget,0,0,0,0,,,,,,,,,,,,,,,,,,,,,0,32,32,32,,,,,,,,,,,,,,,,,,,,,,,,,,,,,,,,,,,,,,,,,,,,,,,,,,,,,,,,,,,,,,,,,,,,,,,,,,,,,1,0.9983329999959096,353.98333920000005,None,ScrollDown,정답입니다,353.98333920000005,None,353.98333920000005,None,353.98333920000005,None,353.98333920000005,None,354.8986920000025,None,354.8986920000025,355.39871069999936,,,,,,,,,,,,,,,,107,2023-04-17_13h55.19.462,FishGame,2022.1.1,60.0800145632931,
,34,넌 쾌활해,1,Orange,A,5.541666666666666,5.733333333333333,ScrollDown,ScrollUp,Orange.png,3,Positive,Congruent,0,0,0,0,,,,,,,,,,,,,,,,,,,,,0,33,33,33,,,,,,,,,,,,,,,,,,,,,,,,,,,,,,,,,,,,,,,,,,,,,,,,,,,,,,,,,,,,,,,,,,,,,,,,,,,,,1,0.9794024000002537,356.0048822000026,None,ScrollDown,정답입니다,356.0048822000026,None,356.0048822000026,None,356.0048822000026,None,356.0048822000026,None,356.8985687000022,None,356.8985687000022,357.39863830000104,,,,,,,,,,,,,,,,107,2023-04-17_13h55.19.462,FishGame,2022.1.1,60.0800145632931,
,35,나를 보내줘,6,Orange,A,0,0,ScrollUp,ScrollDown,Orange.png,3,NonTarget,NonTarget,0,0,0,0,,,,,,,,,,,,,,,,,,,,,0,34,34,34,,,,,,,,,,,,,,,,,,,,,,,,,,,,,,,,,,,,,,,,,,,,,,,,,,,,,,,,,,,,,,,,,,,,,,,,,,,,,2,0.9154918999993242,358.00414340000134,None,ScrollUp,정답입니다,358.00414340000134,None,358.00414340000134,None,358.00414340000134,None,358.00414340000134,None,358.831929699998,None,358.831929699998,359.3319563999976,,,,,,,,,,,,,,,,107,2023-04-17_13h55.19.462,FishGame,2022.1.1,60.0800145632931,
,36,넌 명랑해,1,Green,B,5.739130434782609,5.666666666666667,ScrollUp,ScrollDown,Green.png,3,Positive,Incongruent,0,0,0,0,,,,,,,,,,,,,,,,,,,,,0,35,35,35,,,,,,,,,,,,,,,,,,,,,,,,,,,,,,,,,,,,,,,,,,,,,,,,,,,,,,,,,,,,,,,,,,,,,,,,,,,,,1.9691357910633087,0.9146419000026071,359.9358307000002,None,ScrollUp,정답입니다,359.9358307000002,None,359.9358307000002,None,359.9358307000002,None,359.9358307000002,None,360.7631723000013,None,360.7631723000013,361.2651740000001,,,,,,,,,,,,,,,,107,2023-04-17_13h55.19.462,FishGame,2022.1.1,60.0800145632931,
,37,넌 멍해,4,Orange,A,2.833333333333333,3.4,ScrollDown,ScrollUp,Orange.png,3,Negative,Incongruent,0,0,0,0,,,,,,,,,,,,,,,,,,,,,0,36,36,36,,,,,,,,,,,,,,,,,,,,,,,,,,,,,,,,,,,,,,,,,,,,,,,,,,,,,,,,,,,,,,,,,,,,,,,,,,,,,1,0.9295240999999805,361.8726031999977,None,ScrollDown,정답입니다,361.8726031999977,None,361.8726031999977,None,361.8726031999977,None,361.8726031999977,None,362.7152228999985,None,362.7152228999985,363.21519999999873,,,,,,,,,,,,,,,,107,2023-04-17_13h55.19.462,FishGame,2022.1.1,60.0800145632931,
,38,나를 데려가줘,6,Green,B,0,0,ScrollDown,ScrollUp,Green.png,3,NonTarget,NonTarget,0,0,0,0,,,,,,,,,,,,,,,,,,,,,0,37,37,37,,,,,,,,,,,,,,,,,,,,,,,,,,,,,,,,,,,,,,,,,,,,,,,,,,,,,,,,,,,,,,,,,,,,,,,,,,,,,1,0.9644171000036295,363.81878270000016,None,ScrollDown,정답입니다,363.81878270000016,None,363.81878270000016,None,363.81878270000016,None,363.81878270000016,None,364.69848540000385,None,364.69848540000385,365.20176779999747,,,,,,,,,,,,,,,,107,2023-04-17_13h55.19.462,FishGame,2022.1.1,60.0800145632931,
,39,넌 현명해,2,Orange,A,6.541666666666666,4.533333333333333,ScrollDown,ScrollUp,Orange.png,3,Positive,Congruent,0,0,0,0,,,,,,,,,,,,,,,,,,,,,0,38,38,38,,,,,,,,,,,,,,,,,,,,,,,,,,,,,,,,,,,,,,,,,,,,,,,,,,,,,,,,,,,,,,,,,,,,,,,,,,,,,1,0.8961996999933035,365.8053144000005,None,ScrollDown,정답입니다,365.8053144000005,None,365.8053144000005,None,365.8053144000005,None,365.8053144000005,None,366.6151366999984,None,366.6151366999984,367.11507820000406,,,,,,,,,,,,,,,,107,2023-04-17_13h55.19.462,FishGame,2022.1.1,60.0800145632931,
,40,넌 수줍어,3,Green,B,3.541666666666666,4.366666666666666,ScrollUp,ScrollDown,Green.png,3,Neutral,Neutral,0,0,0,0,,,,,,,,,,,,,,,,,,,,,0,39,39,39,,,,,,,,,,,,,,,,,,,,,,,,,,,,,,,,,,,,,,,,,,,,,,,,,,,,,,,,,,,,,,,,,,,,,,,,,,,,,1.9845678806304932,0.8981430999992881,367.72070859999803,None,ScrollUp,정답입니다,367.72070859999803,None,367.72070859999803,None,367.72070859999803,None,367.72070859999803,None,368.53172500000073,None,368.53172500000073,369.0318763000032,,,,,,,,,,,,,,,,107,2023-04-17_13h55.19.462,FishGame,2022.1.1,60.0800145632931,
,41,나를 데려가줘,6,Green,B,0,0,ScrollDown,ScrollUp,Green.png,3,NonTarget,NonTarget,0,0,0,0,,,,,,,,,,,,,,,,,,,,,0,40,40,40,,,,,,,,,,,,,,,,,,,,,,,,,,,,,,,,,,,,,,,,,,,,,,,,,,,,,,,,,,,,,,,,,,,,,,,,,,,,,1.0478395124276478,1.2126663000017288,369.63350589999754,None,ScrollDown,정답입니다,369.63350589999754,None,369.63350589999754,None,369.63350589999754,None,369.63350589999754,None,370.76272269999754,None,370.76272269999754,371.2626950999984,,,,,,,,,,,,,,,,107,2023-04-17_13h55.19.462,FishGame,2022.1.1,60.0800145632931,
,42,넌 성숙해,2,Green,B,5.833333333333333,4.533333333333333,ScrollUp,ScrollDown,Green.png,3,Positive,Incongruent,0,0,0,0,,,,,,,,,,,,,,,,,,,,,0,41,41,41,,,,,,,,,,,,,,,,,,,,,,,,,,,,,,,,,,,,,,,,,,,,,,,,,,,,,,,,,,,,,,,,,,,,,,,,,,,,,1.819444437821706,0.748347399996419,371.8646185999969,None,ScrollUp,정답입니다,371.8646185999969,None,371.8646185999969,None,371.8646185999969,None,371.8646185999969,None,372.5294095999998,None,372.5294095999998,373.0317787000022,,,,,,,,,,,,,,,,107,2023-04-17_13h55.19.462,FishGame,2022.1.1,60.0800145632931,
,1,넌 매력적이야,2,Green,B,6.125,4.666666666666667,ScrollUp,ScrollDown,Green.png,4,Positive,Incongruent,0,0,0,0,,,,,,,,,,,,,,,,,,,,,,,,,0,0,0,0,,,,,,,,,,,,,,,,,,,,,,,,,,,,,,,,408.4809078000035,409.98112769999716,410.0144702000034,410.96440900000016,411.01440469999943,411.964393299997,411.964393299997,None,,,,,,,,,,,,,,,,,,,,,,,,,,,,,,,,,,1.9336419701576233,1.136844900000142,413.0493939000007,None,ScrollUp,정답입니다,413.0493939000007,None,413.0493939000007,None,413.0493939000007,None,413.0493939000007,None,414.09749790000205,None,414.09749790000205,414.59746070000256,373.53186979999737,None,373.53186979999737,None,0.0787037,-0.12592593,1,0,0,0.01639952000550693,None,403.5309333000041,None,,,107,2023-04-17_13h55.19.462,FishGame,2022.1.1,60.0800145632931,
,2,나를 보내줘,6,Orange,A,0,0,ScrollUp,ScrollDown,Orange.png,4,NonTarget,NonTarget,0,0,0,0,,,,,,,,,,,,,,,,,,,,,,,,,0,1,1,1,,,,,,,,,,,,,,,,,,,,,,,,,,,,,,,,,,,,,,,,,,,,,,,,,,,,,,,,,,,,,,,,,,,,,,,,,1.8703703731298447,0.9963765000065905,415.20267330000206,None,ScrollUp,정답입니다,415.20267330000206,None,415.20267330000206,None,415.20267330000206,None,415.20267330000206,None,416.1140976000024,None,416.1140976000024,416.6140910000031,,,,,,,,,,,,,,,,107,2023-04-17_13h55.19.462,FishGame,2022.1.1,60.0800145632931,
,3,넌 조심스러워,3,Orange,A,4.791666666666666,4.666666666666667,ScrollDown,ScrollUp,Orange.png,4,Neutral,Neutral,0,0,0,0,,,,,,,,,,,,,,,,,,,,,,,,,0,2,2,2,,,,,,,,,,,,,,,,,,,,,,,,,,,,,,,,,,,,,,,,,,,,,,,,,,,,,,,,,,,,,,,,,,,,,,,,,1,0.8959298000045237,417.21876989999873,None,ScrollDown,정답입니다,417.21876989999873,None,417.21876989999873,None,417.21876989999873,None,417.21876989999873,None,418.0307510999992,None,418.0307510999992,418.5307679999969,,,,,,,,,,,,,,,,107,2023-04-17_13h55.19.462,FishGame,2022.1.1,60.0800145632931,
,4,넌 철학적이야,3,Green,B,4.5,4.266666666666667,ScrollUp,ScrollDown,Green.png,4,Neutral,Neutral,0,0,0,0,,,,,,,,,,,,,,,,,,,,,,,,,0,3,3,3,,,,,,,,,,,,,,,,,,,,,,,,,,,,,,,,,,,,,,,,,,,,,,,,,,,,,,,,,,,,,,,,,,,,,,,,,2,0.9291338999973959,419.1369590000031,None,ScrollUp,정답입니다,419.1369590000031,None,419.1369590000031,None,419.1369590000031,None,419.1369590000031,None,419.97838110000157,None,419.97838110000157,420.4783873999986,,,,,,,,,,,,,,,,107,2023-04-17_13h55.19.462,FishGame,2022.1.1,60.0800145632931,
,5,넌 쩨쩨해,5,Orange,A,2.375,2.133333333333333,ScrollDown,ScrollUp,Orange.png,4,Negative,Incongruent,0,0,0,0,,,,,,,,,,,,,,,,,,,,,,,,,0,4,4,4,,,,,,,,,,,,,,,,,,,,,,,,,,,,,,,,,,,,,,,,,,,,,,,,,,,,,,,,,,,,,,,,,,,,,,,,,1,0.7974322000009124,421.08246730000246,None,ScrollDown,정답입니다,421.08246730000246,None,421.08246730000246,None,421.08246730000246,None,421.08246730000246,None,421.79509739999776,None,421.79509739999776,422.29743769999914,,,,,,,,,,,,,,,,107,2023-04-17_13h55.19.462,FishGame,2022.1.1,60.0800145632931,
,6,나를 데려가줘,6,Green,B,0,0,ScrollDown,ScrollUp,Green.png,4,NonTarget,NonTarget,0,0,0,0,,,,,,,,,,,,,,,,,,,,,,,,,0,5,5,5,,,,,,,,,,,,,,,,,,,,,,,,,,,,,,,,,,,,,,,,,,,,,,,,,,,,,,,,,,,,,,,,,,,,,,,,,1,1.17953370000032,422.90294749999885,None,ScrollDown,정답입니다,422.90294749999885,None,422.90294749999885,None,422.90294749999885,None,422.90294749999885,None,423.99742150000384,None,423.99742150000384,424.4972753000038,,,,,,,,,,,,,,,,107,2023-04-17_13h55.19.462,FishGame,2022.1.1,60.0800145632931,
,7,넌 고집불통이야,5,Green,B,2.875,2,ScrollUp,ScrollDown,Green.png,4,Negative,Congruent,0,0,0,0,,,,,,,,,,,,,,,,,,,,,,,,,0,6,6,6,,,,,,,,,,,,,,,,,,,,,,,,,,,,,,,,,,,,,,,,,,,,,,,,,,,,,,,,,,,,,,,,,,,,,,,,,1.9166666666666667,0.7960457000008319,425.10441400000127,None,ScrollUp,정답입니다,425.10441400000127,None,425.10441400000127,None,425.10441400000127,None,425.10441400000127,None,425.8118848000013,None,425.8118848000013,426.31391910000093,,,,,,,,,,,,,,,,107,2023-04-17_13h55.19.462,FishGame,2022.1.1,60.0800145632931,
,8,넌 무심해,4,Orange,A,2.875,3.2,ScrollDown,ScrollUp,Orange.png,4,Negative,Incongruent,0,0,0,0,,,,,,,,,,,,,,,,,,,,,,,,,0,7,7,7,,,,,,,,,,,,,,,,,,,,,,,,,,,,,,,,,,,,,,,,,,,,,,,,,,,,,,,,,,,,,,,,,,,,,,,,,1,0.8463041000068188,426.9244211000041,None,ScrollDown,정답입니다,426.9244211000041,None,426.9244211000041,None,426.9244211000041,None,426.9244211000041,None,427.6805303000001,None,427.6805303000001,428.18049880000035,,,,,,,,,,,,,,,,107,2023-04-17_13h55.19.462,FishGame,2022.1.1,60.0800145632931,
,9,넌 정겨워,1,Orange,A,5.791666666666667,5.666666666666667,ScrollDown,ScrollUp,Orange.png,4,Positive,Congruent,0,0,0,0,,,,,,,,,,,,,,,,,,,,,,,,,0,8,8,8,,,,,,,,,,,,,,,,,,,,,,,,,,,,,,,,,,,,,,,,,,,,,,,,,,,,,,,,,,,,,,,,,,,,,,,,,1,0.8314396999994642,428.78752499999973,None,ScrollDown,정답입니다,428.78752499999973,None,428.78752499999973,None,428.78752499999973,None,428.78752499999973,None,429.53053170000203,None,429.53053170000203,430.03050559999974,,,,,,,,,,,,,,,,107,2023-04-17_13h55.19.462,FishGame,2022.1.1,60.0800145632931,
,10,나를 데려가줘,6,Green,B,0,0,ScrollDown,ScrollUp,Green.png,4,NonTarget,NonTarget,0,0,0,0,,,,,,,,,,,,,,,,,,,,,,,,,0,9,9,9,,,,,,,,,,,,,,,,,,,,,,,,,,,,,,,,,,,,,,,,,,,,,,,,,,,,,,,,,,,,,,,,,,,,,,,,,1,0.9960669000065536,430.63959109999996,None,ScrollDown,정답입니다,430.63959109999996,None,430.63959109999996,None,430.63959109999996,None,430.63959109999996,None,431.5448239000034,None,431.5448239000034,432.04480770000373,,,,,,,,,,,,,,,,107,2023-04-17_13h55.19.462,FishGame,2022.1.1,60.0800145632931,
,11,넌 체제순응적이야,4,Green,B,3,3.6,ScrollUp,ScrollDown,Green.png,4,Negative,Congruent,0,0,0,0,,,,,,,,,,,,,,,,,,,,,,,,,0,10,10,10,,,,,,,,,,,,,,,,,,,,,,,,,,,,,,,,,,,,,,,,,,,,,,,,,,,,,,,,,,,,,,,,,,,,,,,,,1.6574074104428291,0.7955420999933267,432.65486500000407,None,ScrollUp,정답입니다,432.65486500000407,None,432.65486500000407,None,432.65486500000407,None,432.65486500000407,None,433.36150720000296,None,433.36150720000296,433.8615037999989,,,,,,,,,,,,,,,,107,2023-04-17_13h55.19.462,FishGame,2022.1.1,60.0800145632931,
,12,나를 보내줘,6,Orange,A,0,0,ScrollUp,ScrollDown,Orange.png,4,NonTarget,NonTarget,0,0,0,0,,,,,,,,,,,,,,,,,,,,,,,,,0,11,11,11,,,,,,,,,,,,,,,,,,,,,,,,,,,,,,,,,,,,,,,,,,,,,,,,,,,,,,,,,,,,,,,,,,,,,,,,,1.6959876591960588,1.0152615000042715,434.470124200001,None,ScrollUp,정답입니다,434.470124200001,None,434.470124200001,None,434.470124200001,None,434.470124200001,None,435.397197600003,None,435.397197600003,435.897240600003,,,,,,,,,,,,,,,,107,2023-04-17_13h55.19.462,FishGame,2022.1.1,60.0800145632931,
,13,넌 박식해,2,Orange,A,5.625,3.933333333333333,ScrollDown,ScrollUp,Orange.png,4,Positive,Congruent,0,0,0,0,,,,,,,,,,,,,,,,,,,,,,,,,0,12,12,12,,,,,,,,,,,,,,,,,,,,,,,,,,,,,,,,,,,,,,,,,,,,,,,,,,,,,,,,,,,,,,,,,,,,,,,,,1,0.8758409000001848,436.5153522999972,None,ScrollDown,정답입니다,436.5153522999972,None,436.5153522999972,None,436.5153522999972,None,436.5153522999972,None,437.294716000004,None,437.294716000004,437.79469670000253,,,,,,,,,,,,,,,,107,2023-04-17_13h55.19.462,FishGame,2022.1.1,60.0800145632931,
,14,나를 보내줘,6,Orange,A,0,0,ScrollUp,ScrollDown,Orange.png,4,NonTarget,NonTarget,0,0,0,0,,,,,,,,,,,,,,,,,,,,,,,,,0,13,13,13,,,,,,,,,,,,,,,,,,,,,,,,,,,,,,,,,,,,,,,,,,,,,,,,,,,,,,,,,,,,,,,,,,,,,,,,,1.904320980111758,1.3008440999983577,438.39612710000074,None,ScrollUp,정답입니다,438.39612710000074,None,438.39612710000074,None,438.39612710000074,None,438.39612710000074,None,439.613829300004,None,439.613829300004,440.11380920000374,,,,,,,,,,,,,,,,107,2023-04-17_13h55.19.462,FishGame,2022.1.1,60.0800145632931,
,15,넌 침착해,1,Green,B,5.458333333333333,5.566666666666666,ScrollUp,ScrollDown,Green.png,4,Positive,Incongruent,0,0,0,0,,,,,,,,,,,,,,,,,,,,,,,,,0,14,14,14,,,,,,,,,,,,,,,,,,,,,,,,,,,,,,,,,,,,,,,,,,,,,,,,,,,,,,,,,,,,,,,,,,,,,,,,,1.9336419701576233,0.9649908000064897,440.7206253999975,None,ScrollUp,정답입니다,440.7206253999975,None,440.7206253999975,None,440.7206253999975,None,440.7206253999975,None,441.59706690000166,None,441.59706690000166,442.0970621000015,,,,,,,,,,,,,,,,107,2023-04-17_13h55.19.462,FishGame,2022.1.1,60.0800145632931,
,16,나를 데려가줘,6,Green,B,0,0,ScrollDown,ScrollUp,Green.png,4,NonTarget,NonTarget,0,0,0,0,,,,,,,,,,,,,,,,,,,,,,,,,0,15,15,15,,,,,,,,,,,,,,,,,,,,,,,,,,,,,,,,,,,,,,,,,,,,,,,,,,,,,,,,,,,,,,,,,,,,,,,,,1,0.9317019000009168,442.69803780000075,None,ScrollDown,정답입니다,442.69803780000075,None,442.69803780000075,None,442.69803780000075,None,442.69803780000075,None,443.54689119999966,None,443.54689119999966,444.0468994000039,,,,,,,,,,,,,,,,107,2023-04-17_13h55.19.462,FishGame,2022.1.1,60.0800145632931,
,17,넌 행복해,1,Orange,A,6.416666666666666,6.166666666666667,ScrollDown,ScrollUp,Orange.png,4,Positive,Congruent,0,0,0,0,,,,,,,,,,,,,,,,,,,,,,,,,0,16,16,16,,,,,,,,,,,,,,,,,,,,,,,,,,,,,,,,,,,,,,,,,,,,,,,,,,,,,,,,,,,,,,,,,,,,,,,,,1,0.8765270000003511,444.6574385999993,None,ScrollDown,정답입니다,444.6574385999993,None,444.6574385999993,None,444.6574385999993,None,444.6574385999993,None,445.44684009999764,None,445.44684009999764,445.94679539999925,,,,,,,,,,,,,,,,107,2023-04-17_13h55.19.462,FishGame,2022.1.1,60.0800145632931,
,18,넌 겸손해,2,Green,B,5.791666666666667,4.766666666666667,ScrollUp,ScrollDown,Green.png,4,Positive,Incongruent,0,0,0,0,,,,,,,,,,,,,,,,,,,,,,,,,0,17,17,17,,,,,,,,,,,,,,,,,,,,,,,,,,,,,,,,,,,,,,,,,,,,,,,,,,,,,,,,,,,,,,,,,,,,,,,,,2,0.9651481000037165,446.5536129000029,None,ScrollUp,정답입니다,446.5536129000029,None,446.5536129000029,None,446.5536129000029,None,446.5536129000029,None,447.43017600000167,None,447.43017600000167,447.93347090000316,,,,,,,,,,,,,,,,107,2023-04-17_13h55.19.462,FishGame,2022.1.1,60.0800145632931,
,19,나를 보내줘,6,Orange,A,0,0,ScrollUp,ScrollDown,Orange.png,4,NonTarget,NonTarget,0,0,0,0,,,,,,,,,,,,,,,,,,,,,,,,,0,18,18,18,,,,,,,,,,,,,,,,,,,,,,,,,,,,,,,,,,,,,,,,,,,,,,,,,,,,,,,,,,,,,,,,,,,,,,,,,2,1.246217500003695,448.5327913000001,None,ScrollUp,정답입니다,448.5327913000001,None,448.5327913000001,None,448.5327913000001,None,448.5327913000001,None,449.69672680000076,None,449.69672680000076,450.1967122999995,,,,,,,,,,,,,,,,107,2023-04-17_13h55.19.462,FishGame,2022.1.1,60.0800145632931,
,20,넌 의심없어,3,Orange,A,4.166666666666667,4.6,ScrollDown,ScrollUp,Orange.png,4,Neutral,Neutral,0,0,0,0,,,,,,,,,,,,,,,,,,,,,,,,,0,19,19,19,,,,,,,,,,,,,,,,,,,,,,,,,,,,,,,,,,,,,,,,,,,,,,,,,,,,,,,,,,,,,,,,,,,,,,,,,1,0.8315044999981183,450.8007232000018,None,ScrollDown,정답입니다,450.8007232000018,None,450.8007232000018,None,450.8007232000018,None,450.8007232000018,None,451.5468089999995,None,451.5468089999995,452.04672420000134,,,,,,,,,,,,,,,,107,2023-04-17_13h55.19.462,FishGame,2022.1.1,60.0800145632931,
,21,넌 시시해,4,Orange,A,2.666666666666667,2.966666666666667,ScrollDown,ScrollUp,Orange.png,4,Negative,Incongruent,0,0,0,0,,,,,,,,,,,,,,,,,,,,,,,,,0,20,20,20,,,,,,,,,,,,,,,,,,,,,,,,,,,,,,,,,,,,,,,,,,,,,,,,,,,,,,,,,,,,,,,,,,,,,,,,,1,1.0129476000001887,452.6576270000005,None,ScrollDown,정답입니다,452.6576270000005,None,452.6576270000005,None,452.6576270000005,None,452.6576270000005,None,453.5777257000009,None,453.5777257000009,454.0776934000023,,,,,,,,,,,,,,,,107,2023-04-17_13h55.19.462,FishGame,2022.1.1,60.0800145632931,
,22,나를 데려가줘,6,Green,B,0,0,ScrollDown,ScrollUp,Green.png,4,NonTarget,NonTarget,0,0,0,0,,,,,,,,,,,,,,,,,,,,,,,,,0,21,21,21,,,,,,,,,,,,,,,,,,,,,,,,,,,,,,,,,,,,,,,,,,,,,,,,,,,,,,,,,,,,,,,,,,,,,,,,,1,1.0311424000028637,454.6801074000032,None,ScrollDown,정답입니다,454.6801074000032,None,454.6801074000032,None,454.6801074000032,None,454.6801074000032,None,455.63009769999917,None,455.63009769999917,456.13007110000035,,,,,,,,,,,,,,,,107,2023-04-17_13h55.19.462,FishGame,2022.1.1,60.0800145632931,
,23,넌 무정해,5,Orange,A,2.5,2.2,ScrollDown,ScrollUp,Orange.png,4,Negative,Incongruent,0,0,0,0,,,,,,,,,,,,,,,,,,,,,,,,,0,22,22,22,,,,,,,,,,,,,,,,,,,,,,,,,,,,,,,,,,,,,,,,,,,,,,,,,,,,,,,,,,,,,,,,,,,,,,,,,1,0.9320131999993464,456.7353131999989,None,ScrollDown,정답입니다,456.7353131999989,None,456.7353131999989,None,456.7353131999989,None,456.7353131999989,None,457.5801236999978,None,457.5801236999978,458.08005330000015,,,,,,,,,,,,,,,,107,2023-04-17_13h55.19.462,FishGame,2022.1.1,60.0800145632931,
,24,넌 긍정적이야,1,Green,B,6.041666666666667,6.066666666666666,ScrollUp,ScrollDown,Green.png,4,Positive,Incongruent,0,0,0,0,,,,,,,,,,,,,,,,,,,,,,,,,0,23,23,23,,,,,,,,,,,,,,,,,,,,,,,,,,,,,,,,,,,,,,,,,,,,,,,,,,,,,,,,,,,,,,,,,,,,,,,,,1.8348765522241592,0.8291864999991958,458.68987180000113,None,ScrollUp,정답입니다,458.68987180000113,None,458.68987180000113,None,458.68987180000113,None,458.68987180000113,None,459.4275953000033,None,459.4275953000033,459.9275858999972,,,,,,,,,,,,,,,,107,2023-04-17_13h55.19.462,FishGame,2022.1.1,60.0800145632931,
,25,나를 보내줘,6,Orange,A,0,0,ScrollUp,ScrollDown,Orange.png,4,NonTarget,NonTarget,0,0,0,0,,,,,,,,,,,,,,,,,,,,,,,,,0,24,24,24,,,,,,,,,,,,,,,,,,,,,,,,,,,,,,,,,,,,,,,,,,,,,,,,,,,,,,,,,,,,,,,,,,,,,,,,,1.743827154239019,0.9961934000020847,460.5332086999988,None,ScrollUp,정답입니다,460.5332086999988,None,460.5332086999988,None,460.5332086999988,None,460.5332086999988,None,461.44427259999793,None,461.44427259999793,461.9466373000032,,,,,,,,,,,,,,,,107,2023-04-17_13h55.19.462,FishGame,2022.1.1,60.0800145632931,
,26,넌 시기심이 많아,5,Green,B,2.458333333333333,2.233333333333333,ScrollUp,ScrollDown,Green.png,4,Negative,Congruent,0,0,0,0,,,,,,,,,,,,,,,,,,,,,,,,,0,25,25,25,,,,,,,,,,,,,,,,,,,,,,,,,,,,,,,,,,,,,,,,,,,,,,,,,,,,,,,,,,,,,,,,,,,,,,,,,1.7731481442848842,0.8813200000004144,462.55461579999974,None,ScrollUp,정답입니다,462.55461579999974,None,462.55461579999974,None,462.55461579999974,None,462.55461579999974,None,463.34663759999967,None,463.34663759999967,463.84662409999873,,,,,,,,,,,,,,,,107,2023-04-17_13h55.19.462,FishGame,2022.1.1,60.0800145632931,
,27,넌 탁월해,2,Orange,A,5.708333333333334,4.5,ScrollDown,ScrollUp,Orange.png,4,Positive,Congruent,0,0,0,0,,,,,,,,,,,,,,,,,,,,,,,,,0,26,26,26,,,,,,,,,,,,,,,,,,,,,,,,,,,,,,,,,,,,,,,,,,,,,,,,,,,,,,,,,,,,,,,,,,,,,,,,,1,0.8624601000046823,464.4534868999981,None,ScrollDown,정답입니다,464.4534868999981,None,464.4534868999981,None,464.4534868999981,None,464.4534868999981,None,465.22977369999717,None,465.22977369999717,465.7297764000032,,,,,,,,,,,,,,,,107,2023-04-17_13h55.19.462,FishGame,2022.1.1,60.0800145632931,
,28,나를 데려가줘,6,Green,B,0,0,ScrollDown,ScrollUp,Green.png,4,NonTarget,NonTarget,0,0,0,0,,,,,,,,,,,,,,,,,,,,,,,,,0,27,27,27,,,,,,,,,,,,,,,,,,,,,,,,,,,,,,,,,,,,,,,,,,,,,,,,,,,,,,,,,,,,,,,,,,,,,,,,,1.1867283930381138,0.8458914000002551,466.3320139999996,None,ScrollDown,정답입니다,466.3320139999996,None,466.3320139999996,None,466.3320139999996,None,466.3320139999996,None,467.09641230000125,None,467.09641230000125,467.596452400001,,,,,,,,,,,,,,,,107,2023-04-17_13h55.19.462,FishGame,2022.1.1,60.0800145632931,
,29,넌 조용해,3,Green,B,4.333333333333333,4.166666666666667,ScrollUp,ScrollDown,Green.png,4,Neutral,Neutral,0,0,0,0,,,,,,,,,,,,,,,,,,,,,,,,,0,28,28,28,,,,,,,,,,,,,,,,,,,,,,,,,,,,,,,,,,,,,,,,,,,,,,,,,,,,,,,,,,,,,,,,,,,,,,,,,1.7546296268701553,0.8629906999995001,468.2021698000026,None,ScrollUp,정답입니다,468.2021698000026,None,468.2021698000026,None,468.2021698000026,None,468.2021698000026,None,468.9796764999992,None,468.9796764999992,469.4796935999984,,,,,,,,,,,,,,,,107,2023-04-17_13h55.19.462,FishGame,2022.1.1,60.0800145632931,
,30,넌 다정해,1,Orange,A,5.833333333333334,5.7,ScrollDown,ScrollUp,Orange.png,4,Positive,Congruent,0,0,0,0,,,,,,,,,,,,,,,,,,,,,,,,,0,29,29,29,,,,,,,,,,,,,,,,,,,,,,,,,,,,,,,,,,,,,,,,,,,,,,,,,,,,,,,,,,,,,,,,,,,,,,,,,1,0.8464239000022644,470.0854294000019,None,ScrollDown,정답입니다,470.0854294000019,None,470.0854294000019,None,470.0854294000019,None,470.0854294000019,None,470.8463199999969,None,470.8463199999969,471.34633710000344,,,,,,,,,,,,,,,,107,2023-04-17_13h55.19.462,FishGame,2022.1.1,60.0800145632931,
,31,넌 능력있어,2,Green,B,6.166666666666666,4.6,ScrollUp,ScrollDown,Green.png,4,Positive,Incongruent,0,0,0,0,,,,,,,,,,,,,,,,,,,,,,,,,0,30,30,30,,,,,,,,,,,,,,,,,,,,,,,,,,,,,,,,,,,,,,,,,,,,,,,,,,,,,,,,,,,,,,,,,,,,,,,,,1.9645061492919922,0.8319177999946987,471.9512651999976,None,ScrollUp,정답입니다,471.9512651999976,None,471.9512651999976,None,471.9512651999976,None,471.9512651999976,None,472.69634490000317,None,472.69634490000317,473.1963506000029,,,,,,,,,,,,,,,,107,2023-04-17_13h55.19.462,FishGame,2022.1.1,60.0800145632931,
,32,넌 불쾌해,5,Orange,A,2.125,1.933333333333333,ScrollDown,ScrollUp,Orange.png,4,Negative,Incongruent,0,0,0,0,,,,,,,,,,,,,,,,,,,,,,,,,0,31,31,31,,,,,,,,,,,,,,,,,,,,,,,,,,,,,,,,,,,,,,,,,,,,,,,,,,,,,,,,,,,,,,,,,,,,,,,,,1,0.9931651000006241,473.81153769999946,None,ScrollDown,정답입니다,473.81153769999946,None,473.81153769999946,None,473.81153769999946,None,473.81153769999946,None,474.7129316999999,None,474.7129316999999,475.2128827999986,,,,,,,,,,,,,,,,107,2023-04-17_13h55.19.462,FishGame,2022.1.1,60.0800145632931,
,33,나를 데려가줘,6,Green,B,0,0,ScrollDown,ScrollUp,Green.png,4,NonTarget,NonTarget,0,0,0,0,,,,,,,,,,,,,,,,,,,,,,,,,0,32,32,32,,,,,,,,,,,,,,,,,,,,,,,,,,,,,,,,,,,,,,,,,,,,,,,,,,,,,,,,,,,,,,,,,,,,,,,,,1,0.9151860999991186,475.8147339999996,None,ScrollDown,정답입니다,475.8147339999996,None,475.8147339999996,None,475.8147339999996,None,475.8147339999996,None,476.6462380000012,None,476.6462380000012,477.14622670000244,,,,,,,,,,,,,,,,107,2023-04-17_13h55.19.462,FishGame,2022.1.1,60.0800145632931,
,34,넌 유순해,3,Orange,A,4.458333333333333,5,ScrollDown,ScrollUp,Orange.png,4,Neutral,Neutral,0,0,0,0,,,,,,,,,,,,,,,,,,,,,,,,,0,33,33,33,,,,,,,,,,,,,,,,,,,,,,,,,,,,,,,,,,,,,,,,,,,,,,,,,,,,,,,,,,,,,,,,,,,,,,,,,1.2746913631757102,0.8149110000013025,477.7519910999981,None,ScrollDown,정답입니다,477.7519910999981,None,477.7519910999981,None,477.7519910999981,None,477.7519910999981,None,478.47959609999816,None,478.47959609999816,478.97959970000375,,,,,,,,,,,,,,,,107,2023-04-17_13h55.19.462,FishGame,2022.1.1,60.0800145632931,
,35,넌 근심스러워,4,Green,B,2.708333333333333,3.133333333333333,ScrollUp,ScrollDown,Green.png,4,Negative,Congruent,0,0,0,0,,,,,,,,,,,,,,,,,,,,,,,,,0,34,34,34,,,,,,,,,,,,,,,,,,,,,,,,,,,,,,,,,,,,,,,,,,,,,,,,,,,,,,,,,,,,,,,,,,,,,,,,,1.0586419602235158,0.8127549000055296,479.5833760000023,None,ScrollDown,오답입니다,479.5833760000023,None,479.5833760000023,None,479.5833760000023,None,479.5833760000023,None,480.31075989999954,None,480.31075989999954,480.8128063999975,,,,,,,,,,,,,,,,107,2023-04-17_13h55.19.462,FishGame,2022.1.1,60.0800145632931,
,36,넌 세련되었어,2,Orange,A,5.5,4.6,ScrollDown,ScrollUp,Orange.png,4,Positive,Congruent,0,0,0,0,,,,,,,,,,,,,,,,,,,,,,,,,0,35,35,35,,,,,,,,,,,,,,,,,,,,,,,,,,,,,,,,,,,,,,,,,,,,,,,,,,,,,,,,,,,,,,,,,,,,,,,,,1,0.8296671999996761,481.4237160999983,None,ScrollDown,정답입니다,481.4237160999983,None,481.4237160999983,None,481.4237160999983,None,481.4237160999983,None,482.16277880000416,None,482.16277880000416,482.66277249999985,,,,,,,,,,,,,,,,107,2023-04-17_13h55.19.462,FishGame,2022.1.1,60.0800145632931,
,37,나를 보내줘,6,Orange,A,0,0,ScrollUp,ScrollDown,Orange.png,4,NonTarget,NonTarget,0,0,0,0,,,,,,,,,,,,,,,,,,,,,,,,,0,36,36,36,,,,,,,,,,,,,,,,,,,,,,,,,,,,,,,,,,,,,,,,,,,,,,,,,,,,,,,,,,,,,,,,,,,,,,,,,1.9212963084379833,0.9626342999981716,483.2682286999989,None,ScrollUp,정답입니다,483.2682286999989,None,483.2682286999989,None,483.2682286999989,None,483.2682286999989,None,484.1460204000032,None,484.1460204000032,484.64602159999777,,,,,,,,,,,,,,,,107,2023-04-17_13h55.19.462,FishGame,2022.1.1,60.0800145632931,
,38,넌 확고해,3,Green,B,4.708333333333334,4.566666666666666,ScrollUp,ScrollDown,Green.png,4,Neutral,Neutral,0,0,0,0,,,,,,,,,,,,,,,,,,,,,,,,,0,37,37,37,,,,,,,,,,,,,,,,,,,,,,,,,,,,,,,,,,,,,,,,,,,,,,,,,,,,,,,,,,,,,,,,,,,,,,,,,1.9027777661879857,0.8460154999993392,485.2498467000041,None,ScrollUp,정답입니다,485.2498467000041,None,485.2498467000041,None,485.2498467000041,None,485.2498467000041,None,486.0126225999993,None,486.0126225999993,486.5126423999973,,,,,,,,,,,,,,,,107,2023-04-17_13h55.19.462,FishGame,2022.1.1,60.0800145632931,
,39,넌 이해심이 많아,1,Green,B,6.041666666666668,5.533333333333333,ScrollUp,ScrollDown,Green.png,4,Positive,Incongruent,0,0,0,0,,,,,,,,,,,,,,,,,,,,,,,,,0,38,38,38,,,,,,,,,,,,,,,,,,,,,,,,,,,,,,,,,,,,,,,,,,,,,,,,,,,,,,,,,,,,,,,,,,,,,,,,,2,0.8482914000051096,487.1166333000001,None,ScrollUp,정답입니다,487.1166333000001,None,487.1166333000001,None,487.1166333000001,None,487.1166333000001,None,487.8793816000034,None,487.8793816000034,488.37931799999933,,,,,,,,,,,,,,,,107,2023-04-17_13h55.19.462,FishGame,2022.1.1,60.0800145632931,
,40,나를 보내줘,6,Orange,A,0,0,ScrollUp,ScrollDown,Orange.png,4,NonTarget,NonTarget,0,0,0,0,,,,,,,,,,,,,,,,,,,,,,,,,0,39,39,39,,,,,,,,,,,,,,,,,,,,,,,,,,,,,,,,,,,,,,,,,,,,,,,,,,,,,,,,,,,,,,,,,,,,,,,,,2,1.179546699997445,489.04286290000164,None,ScrollUp,정답입니다,489.04286290000164,None,489.04286290000164,None,489.04286290000164,None,489.04286290000164,None,490.0792459000004,None,490.0792459000004,490.5792278000008,,,,,,,,,,,,,,,,107,2023-04-17_13h55.19.462,FishGame,2022.1.1,60.0800145632931,
,41,넌 거칠어,4,Orange,A,2.625,3.033333333333333,ScrollDown,ScrollUp,Orange.png,4,Negative,Incongruent,0,0,0,0,,,,,,,,,,,,,,,,,,,,,,,,,0,40,40,40,,,,,,,,,,,,,,,,,,,,,,,,,,,,,,,,,,,,,,,,,,,,,,,,,,,,,,,,,,,,,,,,,,,,,,,,,1.1296296268701553,0.7649839000005159,491.1855397000036,None,ScrollDown,정답입니다,491.1855397000036,None,491.1855397000036,None,491.1855397000036,None,491.1855397000036,None,491.8625863999987,None,491.8625863999987,492.36258570000064,,,,,,,,,,,,,,,,107,2023-04-17_13h55.19.462,FishGame,2022.1.1,60.0800145632931,
,42,넌 변덕맞아,5,Green,B,2.75,2.166666666666667,ScrollUp,ScrollDown,Green.png,4,Negative,Congruent,0,0,0,0,,,,,,,,,,,,,,,,,,,,,,,,,0,41,41,41,,,,,,,,,,,,,,,,,,,,,,,,,,,,,,,,,,,,,,,,,,,,,,,,,,,,,,,,,,,,,,,,,,,,,,,,,1.7314814925193787,0.7819290000043111,492.9714079000041,None,ScrollUp,정답입니다,492.9714079000041,None,492.9714079000041,None,492.9714079000041,None,492.9714079000041,None,493.66260650000186,None,493.66260650000186,494.16578899999877,,,,,,,,,,,,,,,,107,2023-04-17_13h55.19.462,FishGame,2022.1.1,60.0800145632931,
,43,나를 데려가줘,6,Green,B,0,0,ScrollDown,ScrollUp,Green.png,4,NonTarget,NonTarget,0,0,0,0,,,,,,,,,,,,,,,,,,,,,,,,,0,42,42,42,,,,,,,,,,,,,,,,,,,,,,,,,,,,,,,,,,,,,,,,,,,,,,,,,,,,,,,,,,,,,,,,,,,,,,,,,1,0.8628192999967723,494.76366289999714,None,ScrollDown,정답입니다,494.76366289999714,None,494.76366289999714,None,494.76366289999714,None,494.76366289999714,None,495.5458110999971,None,495.5458110999971,496.0458115000001,,,,,,,,,,,,,,,,107,2023-04-17_13h55.19.462,FishGame,2022.1.1,60.0800145632931,
,44,넌 외로워,4,Green,B,2.833333333333333,3.3,ScrollUp,ScrollDown,Green.png,4,Negative,Congruent,0,0,0,0,,,,,,,,,,,,,,,,,,,,,,,,,0,43,43,43,,,,,,,,,,,,,,,,,,,,,,,,,,,,,,,,,,,,,,,,,,,,,,,,,,,,,,,,,,,,,,,,,,,,,,,,,1.7762345721324284,0.8965800000005402,496.6500792000006,None,ScrollUp,정답입니다,496.6500792000006,None,496.6500792000006,None,496.6500792000006,None,496.6500792000006,None,497.46244200000365,None,497.46244200000365,497.96248950000154,,,,,,,,,,,,,,,,107,2023-04-17_13h55.19.462,FishGame,2022.1.1,60.0800145632931,
,1,넌 불평스러워,5,Orange,A,2.25,2.066666666666667,ScrollDown,ScrollUp,Orange.png,5,Negative,Incongruent,0,0,0,0,,,,,,,,,,,,,,,,,,,,,,,,,,,,,0,0,0,0,,,,,,,,,,,,,,,,,,,,,,,,,,,,531.7264714999983,533.2286295000013,533.2619588000016,534.2121711,534.2483342999985,535.2119384999969,535.2119384999969,None,,,,,,,,,,,,,,,,,,,,,,,,,,,,,,,,,,1.1574074029922485,0.8826594999991357,536.2982679999986,None,ScrollDown,정답입니다,536.2982679999986,None,536.2982679999986,None,536.2982679999986,None,536.2982679999986,None,537.0950086000012,None,537.0950086000012,537.5949355999983,498.46253029999934,None,498.46253029999934,None,0.07685185,-0.0787037,1,0,0,0.016395120008382946,None,528.464692900001,None,,,107,2023-04-17_13h55.19.462,FishGame,2022.1.1,60.0800145632931,
,2,나를 보내줘,6,Orange,A,0,0,ScrollUp,ScrollDown,Orange.png,5,NonTarget,NonTarget,0,0,0,0,,,,,,,,,,,,,,,,,,,,,,,,,,,,,0,1,1,1,,,,,,,,,,,,,,,,,,,,,,,,,,,,,,,,,,,,,,,,,,,,,,,,,,,,,,,,,,,,,,,,,,,,,1.9444444676240284,0.9489213000051677,538.2008998000019,None,ScrollUp,정답입니다,538.2008998000019,None,538.2008998000019,None,538.2008998000019,None,538.2008998000019,None,539.0616374000019,None,539.0616374000019,539.5616532999993,,,,,,,,,,,,,,,,107,2023-04-17_13h55.19.462,FishGame,2022.1.1,60.0800145632931,
,3,넌 다재다능해,2,Green,B,6.208333333333333,4.5,ScrollUp,ScrollDown,Green.png,5,Positive,Incongruent,0,0,0,0,,,,,,,,,,,,,,,,,,,,,,,,,,,,,0,2,2,2,,,,,,,,,,,,,,,,,,,,,,,,,,,,,,,,,,,,,,,,,,,,,,,,,,,,,,,,,,,,,,,,,,,,,1.9583333432674408,0.8148645999972359,540.1632476000013,None,ScrollUp,정답입니다,540.1632476000013,None,540.1632476000013,None,540.1632476000013,None,540.1632476000013,None,540.8950752000019,None,540.8950752000019,541.3981252000012,,,,,,,,,,,,,,,,107,2023-04-17_13h55.19.462,FishGame,2022.1.1,60.0800145632931,
,4,넌 과감해,3,Orange,A,4.833333333333334,4.6,ScrollDown,ScrollUp,Orange.png,5,Neutral,Neutral,0,0,0,0,,,,,,,,,,,,,,,,,,,,,,,,,,,,,0,3,3,3,,,,,,,,,,,,,,,,,,,,,,,,,,,,,,,,,,,,,,,,,,,,,,,,,,,,,,,,,,,,,,,,,,,,,1.2098765522241592,0.9464271000033477,542.0001112000027,None,ScrollDown,정답입니다,542.0001112000027,None,542.0001112000027,None,542.0001112000027,None,542.0001112000027,None,542.8615164000003,None,542.8615164000003,543.3615149000034,,,,,,,,,,,,,,,,107,2023-04-17_13h55.19.462,FishGame,2022.1.1,60.0800145632931,
,5,넌 고분고분해,3,Green,B,3.75,4.033333333333333,ScrollUp,ScrollDown,Green.png,5,Neutral,Neutral,0,0,0,0,,,,,,,,,,,,,,,,,,,,,,,,,,,,,0,4,4,4,,,,,,,,,,,,,,,,,,,,,,,,,,,,,,,,,,,,,,,,,,,,,,,,,,,,,,,,,,,,,,,,,,,,,1.8441358109315236,0.8147017000010237,543.9652656000035,None,ScrollUp,정답입니다,543.9652656000035,None,543.9652656000035,None,543.9652656000035,None,543.9652656000035,None,544.6948677999972,None,544.6948677999972,545.1948867000028,,,,,,,,,,,,,,,,107,2023-04-17_13h55.19.462,FishGame,2022.1.1,60.0800145632931,
,6,나를 보내줘,6,Orange,A,0,0,ScrollUp,ScrollDown,Orange.png,5,NonTarget,NonTarget,0,0,0,0,,,,,,,,,,,,,,,,,,,,,,,,,,,,,0,5,5,5,,,,,,,,,,,,,,,,,,,,,,,,,,,,,,,,,,,,,,,,,,,,,,,,,,,,,,,,,,,,,,,,,,,,,1.8981481492519379,0.8456090999970911,545.7989404000036,None,ScrollUp,정답입니다,545.7989404000036,None,545.7989404000036,None,545.7989404000036,None,545.7989404000036,None,546.5591666000037,None,546.5591666000037,547.059168300002,,,,,,,,,,,,,,,,107,2023-04-17_13h55.19.462,FishGame,2022.1.1,60.0800145632931,
,7,넌 잘 잊어,4,Orange,A,3,3.7,ScrollDown,ScrollUp,Orange.png,5,Negative,Incongruent,0,0,0,0,,,,,,,,,,,,,,,,,,,,,,,,,,,,,0,6,6,6,,,,,,,,,,,,,,,,,,,,,,,,,,,,,,,,,,,,,,,,,,,,,,,,,,,,,,,,,,,,,,,,,,,,,1,0.9465562000041245,547.6720405000015,None,ScrollDown,정답입니다,547.6720405000015,None,547.6720405000015,None,547.6720405000015,None,547.6720405000015,None,548.5258516000031,None,548.5258516000031,549.0284510999991,,,,,,,,,,,,,,,,107,2023-04-17_13h55.19.462,FishGame,2022.1.1,60.0800145632931,
,8,넌 탐구심이없어,4,Green,B,2.833333333333333,3.066666666666667,ScrollUp,ScrollDown,Green.png,5,Negative,Congruent,0,0,0,0,,,,,,,,,,,,,,,,,,,,,,,,,,,,,0,7,7,7,,,,,,,,,,,,,,,,,,,,,,,,,,,,,,,,,,,,,,,,,,,,,,,,,,,,,,,,,,,,,,,,,,,,,1.785493830839793,0.7649975000022096,549.633600000001,None,ScrollUp,정답입니다,549.633600000001,None,549.633600000001,None,549.633600000001,None,549.633600000001,None,550.3115610000023,None,550.3115610000023,550.8114021000001,,,,,,,,,,,,,,,,107,2023-04-17_13h55.19.462,FishGame,2022.1.1,60.0800145632931,
,9,나를 데려가줘,6,Green,B,0,0,ScrollDown,ScrollUp,Green.png,5,NonTarget,NonTarget,0,0,0,0,,,,,,,,,,,,,,,,,,,,,,,,,,,,,0,8,8,8,,,,,,,,,,,,,,,,,,,,,,,,,,,,,,,,,,,,,,,,,,,,,,,,,,,,,,,,,,,,,,,,,,,,,1.095679019888242,1.1817842000018572,551.4147435999985,None,ScrollDown,정답입니다,551.4147435999985,None,551.4147435999985,None,551.4147435999985,None,551.4147435999985,None,552.5093583999987,None,552.5093583999987,553.011399199997,,,,,,,,,,,,,,,,107,2023-04-17_13h55.19.462,FishGame,2022.1.1,60.0800145632931,
,10,넌 참되어,2,Orange,A,6.041666666666664,4.733333333333333,ScrollDown,ScrollUp,Orange.png,5,Positive,Congruent,0,0,0,0,,,,,,,,,,,,,,,,,,,,,,,,,,,,,0,9,9,9,,,,,,,,,,,,,,,,,,,,,,,,,,,,,,,,,,,,,,,,,,,,,,,,,,,,,,,,,,,,,,,,,,,,,1,0.9118266000004951,553.6203097999969,None,ScrollDown,정답입니다,553.6203097999969,None,553.6203097999969,None,553.6203097999969,None,553.6203097999969,None,554.4446998999993,None,554.4446998999993,554.9446510999987,,,,,,,,,,,,,,,,107,2023-04-17_13h55.19.462,FishGame,2022.1.1,60.0800145632931,
,11,넌 생기있어,1,Green,B,5.875,5.633333333333334,ScrollUp,ScrollDown,Green.png,5,Positive,Incongruent,0,0,0,0,,,,,,,,,,,,,,,,,,,,,,,,,,,,,0,10,10,10,,,,,,,,,,,,,,,,,,,,,,,,,,,,,,,,,,,,,,,,,,,,,,,,,,,,,,,,,,,,,,,,,,,,,1.9320987562338512,0.8930527999982587,555.5570668,None,ScrollUp,정답입니다,555.5570668,None,555.5570668,None,555.5570668,None,555.5570668,None,556.3589760000032,None,556.3589760000032,556.859036599999,,,,,,,,,,,,,,,,107,2023-04-17_13h55.19.462,FishGame,2022.1.1,60.0800145632931,
,12,넌 비사교적이야,4,Green,B,2.875,2.9,ScrollUp,ScrollDown,Green.png,5,Negative,Congruent,0,0,0,0,,,,,,,,,,,,,,,,,,,,,,,,,,,,,0,11,11,11,,,,,,,,,,,,,,,,,,,,,,,,,,,,,,,,,,,,,,,,,,,,,,,,,,,,,,,,,,,,,,,,,,,,,1.6820987711350122,0.8313777000003029,557.4605047000005,None,ScrollUp,정답입니다,557.4605047000005,None,557.4605047000005,None,557.4605047000005,None,557.4605047000005,None,558.2090085000018,None,558.2090085000018,558.7113805999979,,,,,,,,,,,,,,,,107,2023-04-17_13h55.19.462,FishGame,2022.1.1,60.0800145632931,
,13,나를 데려가줘,6,Green,B,0,0,ScrollDown,ScrollUp,Green.png,5,NonTarget,NonTarget,0,0,0,0,,,,,,,,,,,,,,,,,,,,,,,,,,,,,0,12,12,12,,,,,,,,,,,,,,,,,,,,,,,,,,,,,,,,,,,,,,,,,,,,,,,,,,,,,,,,,,,,,,,,,,,,,1.160493830839793,1.2650739000018802,559.313124100001,None,ScrollDown,정답입니다,559.313124100001,None,559.313124100001,None,559.313124100001,None,559.313124100001,None,560.4946461,None,560.4946461,560.9982613000029,,,,,,,,,,,,,,,,107,2023-04-17_13h55.19.462,FishGame,2022.1.1,60.0800145632931,
,14,넌 고독해,4,Orange,A,2.916666666666667,3.233333333333333,ScrollDown,ScrollUp,Orange.png,5,Negative,Incongruent,0,0,0,0,,,,,,,,,,,,,,,,,,,,,,,,,,,,,0,13,13,13,,,,,,,,,,,,,,,,,,,,,,,,,,,,,,,,,,,,,,,,,,,,,,,,,,,,,,,,,,,,,,,,,,,,,1,0.8651386999990791,561.5986857000025,None,ScrollDown,정답입니다,561.5986857000025,None,561.5986857000025,None,561.5986857000025,None,561.5986857000025,None,562.377859799999,None,562.377859799999,562.8778386999984,,,,,,,,,,,,,,,,107,2023-04-17_13h55.19.462,FishGame,2022.1.1,60.0800145632931,
,15,넌 신경질적이야,5,Green,B,2.375,2.233333333333333,ScrollUp,ScrollDown,Green.png,5,Negative,Congruent,0,0,0,0,,,,,,,,,,,,,,,,,,,,,,,,,,,,,0,14,14,14,,,,,,,,,,,,,,,,,,,,,,,,,,,,,,,,,,,,,,,,,,,,,,,,,,,,,,,,,,,,,,,,,,,,,1.8163580348094304,0.8647214000011445,563.5024082000018,None,ScrollUp,정답입니다,563.5024082000018,None,563.5024082000018,None,563.5024082000018,None,563.5024082000018,None,564.2611316999973,None,564.2611316999973,564.7610566000003,,,,,,,,,,,,,,,,107,2023-04-17_13h55.19.462,FishGame,2022.1.1,60.0800145632931,
,16,넌 똑똑해,2,Green,B,5.666666666666667,3.966666666666667,ScrollUp,ScrollDown,Green.png,5,Positive,Incongruent,0,0,0,0,,,,,,,,,,,,,,,,,,,,,,,,,,,,,0,15,15,15,,,,,,,,,,,,,,,,,,,,,,,,,,,,,,,,,,,,,,,,,,,,,,,,,,,,,,,,,,,,,,,,,,,,,1.7577160547176998,0.7983537000036449,565.3648657000012,None,ScrollUp,정답입니다,565.3648657000012,None,565.3648657000012,None,565.3648657000012,None,565.3648657000012,None,566.0779257000031,None,566.0779257000031,566.5777585000033,,,,,,,,,,,,,,,,107,2023-04-17_13h55.19.462,FishGame,2022.1.1,60.0800145632931,
,17,나를 보내줘,6,Orange,A,0,0,ScrollUp,ScrollDown,Orange.png,5,NonTarget,NonTarget,0,0,0,0,,,,,,,,,,,,,,,,,,,,,,,,,,,,,0,16,16,16,,,,,,,,,,,,,,,,,,,,,,,,,,,,,,,,,,,,,,,,,,,,,,,,,,,,,,,,,,,,,,,,,,,,,1.8703703731298447,1.064555200005998,567.1834034999993,None,ScrollUp,정답입니다,567.1834034999993,None,567.1834034999993,None,567.1834034999993,None,567.1834034999993,None,568.1610015999977,None,568.1610015999977,568.6610013000027,,,,,,,,,,,,,,,,107,2023-04-17_13h55.19.462,FishGame,2022.1.1,60.0800145632931,
,18,넌 협조적이야,1,Orange,A,5.625,5.666666666666667,ScrollDown,ScrollUp,Orange.png,5,Positive,Congruent,0,0,0,0,,,,,,,,,,,,,,,,,,,,,,,,,,,,,0,17,17,17,,,,,,,,,,,,,,,,,,,,,,,,,,,,,,,,,,,,,,,,,,,,,,,,,,,,,,,,,,,,,,,,,,,,,1.1373456716537476,0.7981088000015006,569.2648893000005,None,ScrollDown,정답입니다,569.2648893000005,None,569.2648893000005,None,569.2648893000005,None,569.2648893000005,None,569.9777060999986,None,569.9777060999986,570.4776855000018,,,,,,,,,,,,,,,,107,2023-04-17_13h55.19.462,FishGame,2022.1.1,60.0800145632931,
,19,나를 데려가줘,6,Green,B,0,0,ScrollDown,ScrollUp,Green.png,5,NonTarget,NonTarget,0,0,0,0,,,,,,,,,,,,,,,,,,,,,,,,,,,,,0,18,18,18,,,,,,,,,,,,,,,,,,,,,,,,,,,,,,,,,,,,,,,,,,,,,,,,,,,,,,,,,,,,,,,,,,,,,1.3040123408039412,0.9649034999965806,571.0799678000039,None,ScrollDown,정답입니다,571.0799678000039,None,571.0799678000039,None,571.0799678000039,None,571.0799678000039,None,571.9610126999978,None,571.9610126999978,572.4756397000019,,,,,,,,,,,,,,,,107,2023-04-17_13h55.19.462,FishGame,2022.1.1,60.0800145632931,
,20,넌 몰인정해,5,Green,B,2.541666666666667,2.066666666666667,ScrollUp,ScrollDown,Green.png,5,Negative,Congruent,0,0,0,0,,,,,,,,,,,,,,,,,,,,,,,,,,,,,0,19,19,19,,,,,,,,,,,,,,,,,,,,,,,,,,,,,,,,,,,,,,,,,,,,,,,,,,,,,,,,,,,,,,,,,,,,,1.9845678806304932,0.879604300003848,573.0673486000014,None,ScrollUp,정답입니다,573.0673486000014,None,573.0673486000014,None,573.0673486000014,None,573.0673486000014,None,573.8608739999981,None,573.8608739999981,574.3608717000025,,,,,,,,,,,,,,,,107,2023-04-17_13h55.19.462,FishGame,2022.1.1,60.0800145632931,
,21,나를 데려가줘,6,Green,B,0,0,ScrollDown,ScrollUp,Green.png,5,NonTarget,NonTarget,0,0,0,0,,,,,,,,,,,,,,,,,,,,,,,,,,,,,0,20,20,20,,,,,,,,,,,,,,,,,,,,,,,,,,,,,,,,,,,,,,,,,,,,,,,,,,,,,,,,,,,,,,,,,,,,,1,1.0480895999935456,574.962202900002,None,ScrollDown,정답입니다,574.962202900002,None,574.962202900002,None,574.962202900002,None,574.962202900002,None,575.9276356999981,None,575.9276356999981,576.4275965999987,,,,,,,,,,,,,,,,107,2023-04-17_13h55.19.462,FishGame,2022.1.1,60.0800145632931,
,22,넌 순진해,3,Green,B,4.125,4.166666666666667,ScrollUp,ScrollDown,Green.png,5,Neutral,Neutral,0,0,0,0,,,,,,,,,,,,,,,,,,,,,,,,,,,,,0,21,21,21,,,,,,,,,,,,,,,,,,,,,,,,,,,,,,,,,,,,,,,,,,,,,,,,,,,,,,,,,,,,,,,,,,,,,1.817901223897934,0.8980108999967342,577.0358250999998,None,ScrollUp,정답입니다,577.0358250999998,None,577.0358250999998,None,577.0358250999998,None,577.0358250999998,None,577.8441852000033,None,577.8441852000033,578.3446944000025,,,,,,,,,,,,,,,,107,2023-04-17_13h55.19.462,FishGame,2022.1.1,60.0800145632931,
,23,넌 신뢰할만해,1,Orange,A,6.625,5.533333333333333,ScrollDown,ScrollUp,Orange.png,5,Positive,Congruent,0,0,0,0,,,,,,,,,,,,,,,,,,,,,,,,,,,,,0,22,22,22,,,,,,,,,,,,,,,,,,,,,,,,,,,,,,,,,,,,,,,,,,,,,,,,,,,,,,,,,,,,,,,,,,,,,1.0879629751046498,0.8628955000021961,578.954446900003,None,ScrollDown,정답입니다,578.954446900003,None,578.954446900003,None,578.954446900003,None,578.954446900003,None,579.7274660999974,None,579.7274660999974,580.2275388999988,,,,,,,,,,,,,,,,107,2023-04-17_13h55.19.462,FishGame,2022.1.1,60.0800145632931,
,24,나를 보내줘,6,Orange,A,0,0,ScrollUp,ScrollDown,Orange.png,5,NonTarget,NonTarget,0,0,0,0,,,,,,,,,,,,,,,,,,,,,,,,,,,,,0,23,23,23,,,,,,,,,,,,,,,,,,,,,,,,,,,,,,,,,,,,,,,,,,,,,,,,,,,,,,,,,,,,,,,,,,,,,1.9552469154198964,1.1795372999986284,580.8316859999977,None,ScrollUp,정답입니다,580.8316859999977,None,580.8316859999977,None,580.8316859999977,None,580.8316859999977,None,581.9273937999969,None,581.9273937999969,582.4274044999984,,,,,,,,,,,,,,,,107,2023-04-17_13h55.19.462,FishGame,2022.1.1,60.0800145632931,
