name,TrialNum,Word,WordCategory,FishType,WordList,WordValence,WordReputation,CorrectResp,IncorrectResp,FishTypeFile,Round,WordType,Condition,LoopforOrange.thisRepN,LoopforOrange.thisTrialN,LoopforOrange.thisN,LoopforOrange.thisIndex,OrangeInstLoop.thisRepN,OrangeInstLoop.thisTrialN,OrangeInstLoop.thisN,OrangeInstLoop.thisIndex,OrangePrac.thisRepN,OrangePrac.thisTrialN,OrangePrac.thisN,OrangePrac.thisIndex,temp1.thisRepN,temp1.thisTrialN,temp1.thisN,temp1.thisIndex,OrangeRound1.thisRepN,OrangeRound1.thisTrialN,OrangeRound1.thisN,OrangeRound1.thisIndex,OrangeRound2.thisRepN,OrangeRound2.thisTrialN,OrangeRound2.thisN,OrangeRound2.thisIndex,OrangeRound3.thisRepN,OrangeRound3.thisTrialN,OrangeRound3.thisN,OrangeRound3.thisIndex,OrangeRound4.thisRepN,OrangeRound4.thisTrialN,OrangeRound4.thisN,OrangeRound4.thisIndex,OrangeRound5.thisRepN,OrangeRound5.thisTrialN,OrangeRound5.thisN,OrangeRound5.thisIndex,LoopForGreen.thisRepN,LoopForGreen.thisTrialN,LoopForGreen.thisN,LoopForGreen.thisIndex,text_2.started,text_2.stopped,text_3.started,text_3.stopped,key_resp.keys,key_resp.rt,key_resp.started,key_resp.stopped,PassI_2.started,PassI_2.stopped,PassInst_2.keys,PassInst_2.rt,PassInst_2.started,PassInst_2.stopped,mouse_2.x,mouse_2.y,mouse_2.leftButton,mouse_2.midButton,mouse_2.rightButton,mouse_2.started,mouse_2.stopped,image.started,image.stopped,text_5.started,text_5.stopped,text_6.started,text_6.stopped,text_7.started,text_7.stopped,text_8.started,text_8.stopped,slider_2.response,slider_2.rt,slider_2.started,slider_2.stopped,Response_2,Feedback_2,BackGround_2.started,BackGround_2.stopped,Fish_2.started,Fish_2.stopped,WordBox_2.started,WordBox_2.stopped,Words_2.started,Words_2.stopped,BackGround_Feedback_2.started,BackGround_Feedback_2.stopped,Feedbacks_2.started,Feedbacks_2.stopped,Continue_or_not.keys,Continue_or_not.rt,Continue_or_not.started,Continue_or_not.stopped,image_3.started,image_3.stopped,mouse_3.x,mouse_3.y,mouse_3.leftButton,mouse_3.midButton,mouse_3.rightButton,mouse_3.started,mouse_3.stopped,startmain.started,startmain.stopped,slider.response,slider.rt,slider.started,slider.stopped,Response,Feedback,BackGround.started,BackGround.stopped,Fish.started,Fish.stopped,WordBox.started,WordBox.stopped,Words.started,Words.stopped,BackGround_Feedback.started,BackGround_Feedback.stopped,Feedbacks.started,Feedbacks.stopped,text.started,text.stopped,break_interval.started,break_interval.stopped,mouse.x,mouse.y,mouse.leftButton,mouse.midButton,mouse.rightButton,mouse.started,mouse.stopped,stratnextround.started,stratnextround.stopped,endgame.started,endgame.stopped,participant,date,expName,psychopyVersion,frameRate,
,,,,,,,,,,,,,,,,,,,,,,,,,,,,,,,,,,,,,,,,,,,,,,,,,,,,,,18.220378499943763,None,18.220378499943763,None,space,2.246085899998434,18.71658030000981,None,,,,,,,,,,,,,,,,,,,,,,,,,,,,,,,,,,,,,,,,,,,,,,,,,,,,,,,,,,,,,,,,,,,,,,,,,,,,,,,,,,,,,,,,,,109,2023-04-25_13h46.16.062,FishGame,2022.1.1,60.09077312752007,
물고기과제_instruction(참가자용)OrangeVersion.mp4,,,,,,,,,,,,,,0,0,0,0,0,0,0,0,,,,,,,,,,,,,,,,,,,,,,,,,,,,,,,,,,,,,,,,,26.64631660003215,None,n,1.7471430000150576,26.64631660003215,None,,,,,,,,,,,,,,,,,,,,,,,,,,,,,,,,,,,,,,,,,,,,,,,,,,,,,,,,,,,,,,,,,,,,,,,,,,,,,,,,,,,,109,2023-04-25_13h46.16.062,FishGame,2022.1.1,60.09077312752007,
,1,넌 교활해,5,Green,B,2.333333333333333,2.133333333333333,ScrollUp,ScrollDown,Green.png,practice,,,0,0,0,0,,,,,0,0,0,0,0,0,0,0,,,,,,,,,,,,,,,,,,,,,,,,,,,,,,,,,,,,,,,0.15092592,-0.14814815,1,0,0,0.5103161098668352,None,28.41636999999173,None,31.46059899998363,32.96060500002932,32.993945299996994,33.94700009992812,33.99651890003588,34.94637190003414,34.94637190003414,None,2,1.363078499911353,36.21112709993031,None,ScrollUp,정답입니다,36.21112709993031,None,36.21112709993031,None,36.21112709993031,None,36.21112709993031,None,37.29380270000547,None,37.29380270000547,37.79378700000234,,,,,,,,,,,,,,,,,,,,,,,,,,,,,,,,,,,,,,,,,,,,,,,,,109,2023-04-25_13h46.16.062,FishGame,2022.1.1,60.09077312752007,
,2,넌 슬기로워,2,Orange,A,6.166666666666667,4.1,ScrollDown,ScrollUp,Orange.png,practice,,,0,0,0,0,,,,,0,0,0,0,0,1,1,1,,,,,,,,,,,,,,,,,,,,,,,,,,,,,,,,,,,,,,,,,,,,,,,,,,,,,,,,1.0570987462997437,0.8664963999763131,38.40047490003053,None,ScrollDown,정답입니다,38.40047490003053,None,38.40047490003053,None,38.40047490003053,None,38.40047490003053,None,39.17714129993692,None,39.17714129993692,39.67957010003738,,,,,,,,,,,,,,,,,,,,,,,,,,,,,,,,,,,,,,,,,,,,,,,,,109,2023-04-25_13h46.16.062,FishGame,2022.1.1,60.09077312752007,
,3,나를 보내줘,6,Orange,A,0,0,ScrollUp,ScrollDown,Orange.png,practice,,,0,0,0,0,,,,,0,0,0,0,0,2,2,2,,,,,,,,,,,,,,,,,,,,,,,,,,,,,,,,,,,,,,,,,,,,,,,,,,,,,,,,2,0.9148314000340179,40.2884342999896,None,ScrollUp,정답입니다,40.2884342999896,None,40.2884342999896,None,40.2884342999896,None,40.2884342999896,None,41.113003400038,None,41.113003400038,41.61648670001887,,,,,,,,,,,,,,,,,,,,,,,,,,,,,,,,,,,,,,,,,,,,,,,,,109,2023-04-25_13h46.16.062,FishGame,2022.1.1,60.09077312752007,
,4,나를 데려가줘,6,Green,B,0,0,ScrollDown,ScrollUp,Green.png,practice,,,0,0,0,0,,,,,0,0,0,0,0,3,3,3,,,,,,,,,,,,,,,,,,,,,,,,,,,,,,,,,,,,,,,,,,,,,,,,,,,,,,,,1.1188271542390187,0.8979462999850512,42.21792650001589,None,ScrollDown,정답입니다,42.21792650001589,None,42.21792650001589,None,42.21792650001589,None,42.21792650001589,None,43.029549599974416,None,43.029549599974416,43.52936349995434,,,,,,,,,,,,,,,,,,,,,,,,,,,,,,,,,,,,,,,,,,,,,,,,,109,2023-04-25_13h46.16.062,FishGame,2022.1.1,60.09077312752007,
,1,넌 교활해,5,Green,B,2.333333333333333,2.133333333333333,ScrollUp,ScrollDown,Green.png,practice,,,0,0,0,0,,,,,0,0,0,0,,,,,,,,,,,,,,,,,,,,,,,,,,,,,,,,,,,,,,,,,,,,,,,,,,,,,,,,,,,,,,,,,,,,,,,,,,,,,,n,4.0117702999850735,44.029402400017716,None,44.029402400017716,None,,,,,,,,,,,,,,,,,,,,,,,,,,,,,,,,,,,,,,,,,,,109,2023-04-25_13h46.16.062,FishGame,2022.1.1,60.09077312752007,
,1,넌 따뜻해,1,Green,B,6.083333333333333,5.6,ScrollUp,ScrollDown,Green.png,1,Positive,Incongruent,0,0,0,0,,,,,,,,,,,,,0,0,0,0,,,,,,,,,,,,,,,,,,,,,,,,,,,,,,,,,,,,,,,,,,,,53.21233539993409,54.712645999970846,54.74595829995815,55.6959112000186,55.74591789999977,56.695901299943216,56.695901299943216,None,,,,,,,,,,,,,,,,,,,,,,,,,0.037037037,-0.12685186,1,0,0,0.3148778099566698,None,48.062547000008635,None,1.9305555423100789,1.3233519999776036,57.9818029999733,None,ScrollUp,정답입니다,57.9818029999733,None,57.9818029999733,None,57.9818029999733,None,57.9818029999733,None,59.011189199984074,None,59.011189199984074,59.51229159999639,,,,,,,,,,,,,,,,109,2023-04-25_13h46.16.062,FishGame,2022.1.1,60.09077312752007,
,2,넌 기품있어,2,Green,B,5.791666666666668,4.5,ScrollUp,ScrollDown,Green.png,1,Positive,Incongruent,0,0,0,0,,,,,,,,,,,,,0,1,1,1,,,,,,,,,,,,,,,,,,,,,,,,,,,,,,,,,,,,,,,,,,,,,,,,,,,,,,,,,,,,,,,,,,,,,,,,,,,,,,,,,,,,,1.8487654278675716,1.2326038000173867,60.12317469995469,None,ScrollUp,정답입니다,60.12317469995469,None,60.12317469995469,None,60.12317469995469,None,60.12317469995469,None,61.262391899945214,None,61.262391899945214,61.762314799940214,,,,,,,,,,,,,,,,109,2023-04-25_13h46.16.062,FishGame,2022.1.1,60.09077312752007,
,3,나를 보내줘,6,Orange,A,0,0,ScrollUp,ScrollDown,Orange.png,1,NonTarget,NonTarget,0,0,0,0,,,,,,,,,,,,,0,2,2,2,,,,,,,,,,,,,,,,,,,,,,,,,,,,,,,,,,,,,,,,,,,,,,,,,,,,,,,,,,,,,,,,,,,,,,,,,,,,,,,,,,,,,1.9166666666666667,0.9332985000219196,62.37599069997668,None,ScrollUp,정답입니다,62.37599069997668,None,62.37599069997668,None,62.37599069997668,None,62.37599069997668,None,63.21235369995702,None,63.21235369995702,63.712226600036956,,,,,,,,,,,,,,,,109,2023-04-25_13h46.16.062,FishGame,2022.1.1,60.09077312752007,
,4,넌 수동적이야,4,Orange,A,2.833333333333333,2.933333333333333,ScrollDown,ScrollUp,Orange.png,1,Negative,Incongruent,0,0,0,0,,,,,,,,,,,,,0,3,3,3,,,,,,,,,,,,,,,,,,,,,,,,,,,,,,,,,,,,,,,,,,,,,,,,,,,,,,,,,,,,,,,,,,,,,,,,,,,,,,,,,,,,,1.016975333293279,0.8461164999753237,64.33114289992955,None,ScrollDown,정답입니다,64.33114289992955,None,64.33114289992955,None,64.33114289992955,None,64.33114289992955,None,65.07891919999383,None,65.07891919999383,65.5788761000149,,,,,,,,,,,,,,,,109,2023-04-25_13h46.16.062,FishGame,2022.1.1,60.09077312752007,
,5,넌 사심이 없어,3,Green,B,4.916666666666666,4.333333333333333,ScrollUp,ScrollDown,Green.png,1,Neutral,Neutral,0,0,0,0,,,,,,,,,,,,,0,4,4,4,,,,,,,,,,,,,,,,,,,,,,,,,,,,,,,,,,,,,,,,,,,,,,,,,,,,,,,,,,,,,,,,,,,,,,,,,,,,,,,,,,,,,2,0.9150879000080749,66.1879656999372,None,ScrollUp,정답입니다,66.1879656999372,None,66.1879656999372,None,66.1879656999372,None,66.1879656999372,None,67.01235720003024,None,67.01235720003024,67.51221720001195,,,,,,,,,,,,,,,,109,2023-04-25_13h46.16.062,FishGame,2022.1.1,60.09077312752007,
,6,넌 헤퍼,5,Orange,A,2.458333333333334,2.233333333333333,ScrollDown,ScrollUp,Orange.png,1,Negative,Incongruent,0,0,0,0,,,,,,,,,,,,,0,5,5,5,,,,,,,,,,,,,,,,,,,,,,,,,,,,,,,,,,,,,,,,,,,,,,,,,,,,,,,,,,,,,,,,,,,,,,,,,,,,,,,,,,,,,1.016975333293279,0.9290845000650734,68.12253349996172,None,ScrollDown,정답입니다,68.12253349996172,None,68.12253349996172,None,68.12253349996172,None,68.12253349996172,None,68.95985650003422,None,68.95985650003422,69.45980259997305,,,,,,,,,,,,,,,,109,2023-04-25_13h46.16.062,FishGame,2022.1.1,60.09077312752007,
,7,넌 말쑥해,3,Orange,A,4.833333333333334,4.333333333333333,ScrollDown,ScrollUp,Orange.png,1,Neutral,Neutral,0,0,0,0,,,,,,,,,,,,,0,6,6,6,,,,,,,,,,,,,,,,,,,,,,,,,,,,,,,,,,,,,,,,,,,,,,,,,,,,,,,,,,,,,,,,,,,,,,,,,,,,,,,,,,,,,1.141975313425064,0.7314461000496522,70.06773879996035,None,ScrollDown,정답입니다,70.06773879996035,None,70.06773879996035,None,70.06773879996035,None,70.06773879996035,None,70.70985849993303,None,70.70985849993303,71.2098405000288,,,,,,,,,,,,,,,,109,2023-04-25_13h46.16.062,FishGame,2022.1.1,60.09077312752007,
,8,넌 투덜거려,5,Green,B,2.541666666666667,2.266666666666667,ScrollUp,ScrollDown,Green.png,1,Negative,Congruent,0,0,0,0,,,,,,,,,,,,,0,7,7,7,,,,,,,,,,,,,,,,,,,,,,,,,,,,,,,,,,,,,,,,,,,,,,,,,,,,,,,,,,,,,,,,,,,,,,,,,,,,,,,,,,,,,1.7253086368242898,0.847880500019528,71.82376179995481,None,ScrollUp,정답입니다,71.82376179995481,None,71.82376179995481,None,71.82376179995481,None,71.82376179995481,None,72.57888059993275,None,72.57888059993275,73.07884630002081,,,,,,,,,,,,,,,,109,2023-04-25_13h46.16.062,FishGame,2022.1.1,60.09077312752007,
,9,넌 적극적이야,1,Orange,A,5.708333333333333,5.533333333333333,ScrollDown,ScrollUp,Orange.png,1,Positive,Congruent,0,0,0,0,,,,,,,,,,,,,0,8,8,8,,,,,,,,,,,,,,,,,,,,,,,,,,,,,,,,,,,,,,,,,,,,,,,,,,,,,,,,,,,,,,,,,,,,,,,,,,,,,,,,,,,,,1.0262345671653748,0.7835129000013694,73.6928651999915,None,ScrollDown,정답입니다,73.6928651999915,None,73.6928651999915,None,73.6928651999915,None,73.6928651999915,None,74.3787403999595,None,74.3787403999595,74.87885330000427,,,,,,,,,,,,,,,,109,2023-04-25_13h46.16.062,FishGame,2022.1.1,60.09077312752007,
,10,넌 재미없어,4,Green,B,2.625,2.966666666666667,ScrollUp,ScrollDown,Green.png,1,Negative,Congruent,0,0,0,0,,,,,,,,,,,,,0,9,9,9,,,,,,,,,,,,,,,,,,,,,,,,,,,,,,,,,,,,,,,,,,,,,,,,,,,,,,,,,,,,,,,,,,,,,,,,,,,,,,,,,,,,,1.9027777661879857,0.8332969000330195,75.48667459993158,None,ScrollUp,정답입니다,75.48667459993158,None,75.48667459993158,None,75.48667459993158,None,75.48667459993158,None,76.22870219999459,None,76.22870219999459,76.72869020001963,,,,,,,,,,,,,,,,109,2023-04-25_13h46.16.062,FishGame,2022.1.1,60.09077312752007,
,11,넌 명석해,2,Orange,A,5.875,4.033333333333333,ScrollDown,ScrollUp,Orange.png,1,Positive,Congruent,0,0,0,0,,,,,,,,,,,,,0,10,10,10,,,,,,,,,,,,,,,,,,,,,,,,,,,,,,,,,,,,,,,,,,,,,,,,,,,,,,,,,,,,,,,,,,,,,,,,,,,,,,,,,,,,,1.080246905485789,0.7216306000482291,77.33804269996472,None,ScrollDown,정답입니다,77.33804269996472,None,77.33804269996472,None,77.33804269996472,None,77.33804269996472,None,77.95982989994809,None,77.95982989994809,78.46190709993243,,,,,,,,,,,,,,,,109,2023-04-25_13h46.16.062,FishGame,2022.1.1,60.09077312752007,
,12,나를 데려가줘,6,Green,B,0,0,ScrollDown,ScrollUp,Green.png,1,NonTarget,NonTarget,0,0,0,0,,,,,,,,,,,,,0,11,11,11,,,,,,,,,,,,,,,,,,,,,,,,,,,,,,,,,,,,,,,,,,,,,,,,,,,,,,,,,,,,,,,,,,,,,,,,,,,,,,,,,,,,,1.1913580348094304,0.8625562000088394,79.07173610001337,None,ScrollDown,정답입니다,79.07173610001337,None,79.07173610001337,None,79.07173610001337,None,79.07173610001337,None,79.84526339999866,None,79.84526339999866,80.34525300003588,,,,,,,,,,,,,,,,109,2023-04-25_13h46.16.062,FishGame,2022.1.1,60.09077312752007,
,13,넌 소심해,4,Orange,A,3,3.1,ScrollDown,ScrollUp,Orange.png,1,Negative,Incongruent,0,0,0,0,,,,,,,,,,,,,0,12,12,12,,,,,,,,,,,,,,,,,,,,,,,,,,,,,,,,,,,,,,,,,,,,,,,,,,,,,,,,,,,,,,,,,,,,,,,,,,,,,,,,,,,,,1.0293209950129192,0.7959220000775531,80.95450819993857,None,ScrollDown,정답입니다,80.95450819993857,None,80.95450819993857,None,80.95450819993857,None,80.95450819993857,None,81.65957869996782,None,81.65957869996782,82.15955949993804,,,,,,,,,,,,,,,,109,2023-04-25_13h46.16.062,FishGame,2022.1.1,60.09077312752007,
,14,넌 합리적이야,2,Orange,A,5.583333333333333,4.733333333333333,ScrollDown,ScrollUp,Orange.png,1,Positive,Congruent,0,0,0,0,,,,,,,,,,,,,0,13,13,13,,,,,,,,,,,,,,,,,,,,,,,,,,,,,,,,,,,,,,,,,,,,,,,,,,,,,,,,,,,,,,,,,,,,,,,,,,,,,,,,,,,,,1.060185174147288,0.6998618000652641,82.76901339995675,None,ScrollDown,정답입니다,82.76901339995675,None,82.76901339995675,None,82.76901339995675,None,82.76901339995675,None,83.37628159997985,None,83.37628159997985,83.87636140000541,,,,,,,,,,,,,,,,109,2023-04-25_13h46.16.062,FishGame,2022.1.1,60.09077312752007,
,15,넌 무자비해,5,Green,B,2.333333333333333,2.1,ScrollUp,ScrollDown,Green.png,1,Negative,Congruent,0,0,0,0,,,,,,,,,,,,,0,14,14,14,,,,,,,,,,,,,,,,,,,,,,,,,,,,,,,,,,,,,,,,,,,,,,,,,,,,,,,,,,,,,,,,,,,,,,,,,,,,,,,,,,,,,1.8858024626970291,0.7974735999014229,84.48956469993573,None,ScrollUp,정답입니다,84.48956469993573,None,84.48956469993573,None,84.48956469993573,None,84.48956469993573,None,85.19541739998385,None,85.19541739998385,85.69530749996193,,,,,,,,,,,,,,,,109,2023-04-25_13h46.16.062,FishGame,2022.1.1,60.09077312752007,
,16,나를 보내줘,6,Orange,A,0,0,ScrollUp,ScrollDown,Orange.png,1,NonTarget,NonTarget,0,0,0,0,,,,,,,,,,,,,0,15,15,15,,,,,,,,,,,,,,,,,,,,,,,,,,,,,,,,,,,,,,,,,,,,,,,,,,,,,,,,,,,,,,,,,,,,,,,,,,,,,,,,,,,,,1.8163580348094304,0.9142861999571323,86.30288870004006,None,ScrollUp,정답입니다,86.30288870004006,None,86.30288870004006,None,86.30288870004006,None,86.30288870004006,None,87.12845780001953,None,87.12845780001953,87.62840879999567,,,,,,,,,,,,,,,,109,2023-04-25_13h46.16.062,FishGame,2022.1.1,60.09077312752007,
,17,넌 현실적이야,3,Green,B,4.608695652173913,4.766666666666667,ScrollUp,ScrollDown,Green.png,1,Neutral,Neutral,0,0,0,0,,,,,,,,,,,,,0,16,16,16,,,,,,,,,,,,,,,,,,,,,,,,,,,,,,,,,,,,,,,,,,,,,,,,,,,,,,,,,,,,,,,,,,,,,,,,,,,,,,,,,,,,,1.9459876318772633,0.8830850999802351,88.23686579999048,None,ScrollUp,정답입니다,88.23686579999048,None,88.23686579999048,None,88.23686579999048,None,88.23686579999048,None,89.02843750000466,None,89.02843750000466,89.52834930003155,,,,,,,,,,,,,,,,109,2023-04-25_13h46.16.062,FishGame,2022.1.1,60.09077312752007,
,18,넌 의리있어,1,Green,B,5.833333333333334,5.633333333333334,ScrollUp,ScrollDown,Green.png,1,Positive,Incongruent,0,0,0,0,,,,,,,,,,,,,0,17,17,17,,,,,,,,,,,,,,,,,,,,,,,,,,,,,,,,,,,,,,,,,,,,,,,,,,,,,,,,,,,,,,,,,,,,,,,,,,,,,,,,,,,,,1.7577160547176998,0.7980684000067413,90.13500989996828,None,ScrollUp,정답입니다,90.13500989996828,None,90.13500989996828,None,90.13500989996828,None,90.13500989996828,None,90.84297440003138,None,90.84297440003138,91.34505110001191,,,,,,,,,,,,,,,,109,2023-04-25_13h46.16.062,FishGame,2022.1.1,60.09077312752007,
,19,넌 신경과민이야,5,Orange,A,2.541666666666667,2.166666666666667,ScrollDown,ScrollUp,Orange.png,1,Negative,Incongruent,0,0,0,0,,,,,,,,,,,,,0,18,18,18,,,,,,,,,,,,,,,,,,,,,,,,,,,,,,,,,,,,,,,,,,,,,,,,,,,,,,,,,,,,,,,,,,,,,,,,,,,,,,,,,,,,,1.3240740721424422,0.7622243000660092,91.9587223000126,None,ScrollDown,정답입니다,91.9587223000126,None,91.9587223000126,None,91.9587223000126,None,91.9587223000126,None,92.62630869995337,None,92.62630869995337,93.12833330000285,,,,,,,,,,,,,,,,109,2023-04-25_13h46.16.062,FishGame,2022.1.1,60.09077312752007,
,20,넌 편안해,1,Orange,A,5.916666666666666,5.866666666666666,ScrollDown,ScrollUp,Orange.png,1,Positive,Congruent,0,0,0,0,,,,,,,,,,,,,0,19,19,19,,,,,,,,,,,,,,,,,,,,,,,,,,,,,,,,,,,,,,,,,,,,,,,,,,,,,,,,,,,,,,,,,,,,,,,,,,,,,,,,,,,,,1.31635802735885,0.6924647999694571,93.74757010000758,None,ScrollDown,정답입니다,93.74757010000758,None,93.74757010000758,None,93.74757010000758,None,93.74757010000758,None,94.34262070001569,None,94.34262070001569,94.84261149994563,,,,,,,,,,,,,,,,109,2023-04-25_13h46.16.062,FishGame,2022.1.1,60.09077312752007,
,21,넌 품위있어,2,Green,B,5.291666666666666,4.466666666666667,ScrollUp,ScrollDown,Green.png,1,Positive,Incongruent,0,0,0,0,,,,,,,,,,,,,0,20,20,20,,,,,,,,,,,,,,,,,,,,,,,,,,,,,,,,,,,,,,,,,,,,,,,,,,,,,,,,,,,,,,,,,,,,,,,,,,,,,,,,,,,,,1.9938271641731262,0.783366399933584,95.44747959997039,None,ScrollUp,정답입니다,95.44747959997039,None,95.44747959997039,None,95.44747959997039,None,95.44747959997039,None,96.14265719999094,None,96.14265719999094,96.64575859997422,,,,,,,,,,,,,,,,109,2023-04-25_13h46.16.062,FishGame,2022.1.1,60.09077312752007,
,22,넌 빈틈없어,3,Orange,A,4.833333333333333,3.966666666666667,ScrollDown,ScrollUp,Orange.png,1,Neutral,Neutral,0,0,0,0,,,,,,,,,,,,,0,21,21,21,,,,,,,,,,,,,,,,,,,,,,,,,,,,,,,,,,,,,,,,,,,,,,,,,,,,,,,,,,,,,,,,,,,,,,,,,,,,,,,,,,,,,1.3503086467583976,0.747816100018099,97.25655339995865,None,ScrollDown,정답입니다,97.25655339995865,None,97.25655339995865,None,97.25655339995865,None,97.25655339995865,None,97.90967810002621,None,97.90967810002621,98.41483230004087,,,,,,,,,,,,,,,,109,2023-04-25_13h46.16.062,FishGame,2022.1.1,60.09077312752007,
,23,넌 상상력없어,4,Green,B,2.833333333333333,3.133333333333333,ScrollUp,ScrollDown,Green.png,1,Negative,Congruent,0,0,0,0,,,,,,,,,,,,,0,22,22,22,,,,,,,,,,,,,,,,,,,,,,,,,,,,,,,,,,,,,,,,,,,,,,,,,,,,,,,,,,,,,,,,,,,,,,,,,,,,,,,,,,,,,1.6604938258727393,0.7804647000739351,99.01996760000475,None,ScrollUp,정답입니다,99.01996760000475,None,99.01996760000475,None,99.01996760000475,None,99.01996760000475,None,99.71166959998664,None,99.71166959998664,100.21153380000032,,,,,,,,,,,,,,,,109,2023-04-25_13h46.16.062,FishGame,2022.1.1,60.09077312752007,
,24,넌 지혜로워,2,Green,B,6.333333333333334,4.633333333333334,ScrollUp,ScrollDown,Green.png,1,Positive,Incongruent,0,0,0,0,,,,,,,,,,,,,0,23,23,23,,,,,,,,,,,,,,,,,,,,,,,,,,,,,,,,,,,,,,,,,,,,,,,,,,,,,,,,,,,,,,,,,,,,,,,,,,,,,,,,,,,,,1.7839506169160206,0.8756681999657303,100.83072530000936,None,ScrollUp,정답입니다,100.83072530000936,None,100.83072530000936,None,100.83072530000936,None,100.83072530000936,None,101.60920379997697,None,101.60920379997697,102.10915149992798,,,,,,,,,,,,,,,,109,2023-04-25_13h46.16.062,FishGame,2022.1.1,60.09077312752007,
,25,넌 시끄러워,4,Orange,A,2.833333333333333,3.033333333333333,ScrollDown,ScrollUp,Orange.png,1,Negative,Incongruent,0,0,0,0,,,,,,,,,,,,,0,24,24,24,,,,,,,,,,,,,,,,,,,,,,,,,,,,,,,,,,,,,,,,,,,,,,,,,,,,,,,,,,,,,,,,,,,,,,,,,,,,,,,,,,,,,1.3024691392978034,0.8150509000988677,102.71942019998096,None,ScrollDown,정답입니다,102.71942019998096,None,102.71942019998096,None,102.71942019998096,None,102.71942019998096,None,103.44250679994002,None,103.44250679994002,103.94491409999318,,,,,,,,,,,,,,,,109,2023-04-25_13h46.16.062,FishGame,2022.1.1,60.09077312752007,
,26,넌 만사태평이야,3,Green,B,4,4.333333333333333,ScrollUp,ScrollDown,Green.png,1,Neutral,Neutral,0,0,0,0,,,,,,,,,,,,,0,25,25,25,,,,,,,,,,,,,,,,,,,,,,,,,,,,,,,,,,,,,,,,,,,,,,,,,,,,,,,,,,,,,,,,,,,,,,,,,,,,,,,,,,,,,1.496913580301528,0.7501258999109268,104.55501380003989,None,NoResponse,무응답입니다,104.55501380003989,None,104.55501380003989,None,104.55501380003989,None,104.55501380003989,None,105.21160589996725,None,105.21160589996725,105.71159500000067,,,,,,,,,,,,,,,,109,2023-04-25_13h46.16.062,FishGame,2022.1.1,60.09077312752007,
,27,넌 붙임성있어,1,Orange,A,5.708333333333333,5.633333333333334,ScrollDown,ScrollUp,Orange.png,1,Positive,Congruent,0,0,0,0,,,,,,,,,,,,,0,26,26,26,,,,,,,,,,,,,,,,,,,,,,,,,,,,,,,,,,,,,,,,,,,,,,,,,,,,,,,,,,,,,,,,,,,,,,,,,,,,,,,,,,,,,1.126543199022611,0.9975194999715313,106.33286450000014,None,ScrollDown,정답입니다,106.33286450000014,None,106.33286450000014,None,106.33286450000014,None,106.33286450000014,None,107.225710800034,None,107.225710800034,107.72580769995693,,,,,,,,,,,,,,,,109,2023-04-25_13h46.16.062,FishGame,2022.1.1,60.09077312752007,
,28,넌 영리해,2,Orange,A,6,4.033333333333333,ScrollDown,ScrollUp,Orange.png,1,Positive,Congruent,0,0,0,0,,,,,,,,,,,,,0,27,27,27,,,,,,,,,,,,,,,,,,,,,,,,,,,,,,,,,,,,,,,,,,,,,,,,,,,,,,,,,,,,,,,,,,,,,,,,,,,,,,,,,,,,,1.1342592686414719,0.8128973999992013,108.3346563000232,None,ScrollDown,정답입니다,108.3346563000232,None,108.3346563000232,None,108.3346563000232,None,108.3346563000232,None,109.05909230001271,None,109.05909230001271,109.56144429999404,,,,,,,,,,,,,,,,109,2023-04-25_13h46.16.062,FishGame,2022.1.1,60.09077312752007,
,29,넌 열심이야,1,Green,B,6.041666666666667,5.833333333333333,ScrollUp,ScrollDown,Green.png,1,Positive,Incongruent,0,0,0,0,,,,,,,,,,,,,0,28,28,28,,,,,,,,,,,,,,,,,,,,,,,,,,,,,,,,,,,,,,,,,,,,,,,,,,,,,,,,,,,,,,,,,,,,,,,,,,,,,,,,,,,,,1.7793209999799728,0.9148636000463739,110.17005760001484,None,ScrollUp,정답입니다,110.17005760001484,None,110.17005760001484,None,110.17005760001484,None,110.17005760001484,None,110.99490689998493,None,110.99490689998493,111.49476100003812,,,,,,,,,,,,,,,,109,2023-04-25_13h46.16.062,FishGame,2022.1.1,60.09077312752007,
,30,넌 인기없어,4,Green,B,3,3.3,ScrollUp,ScrollDown,Green.png,1,Negative,Congruent,0,0,0,0,,,,,,,,,,,,,0,29,29,29,,,,,,,,,,,,,,,,,,,,,,,,,,,,,,,,,,,,,,,,,,,,,,,,,,,,,,,,,,,,,,,,,,,,,,,,,,,,,,,,,,,,,1.8966049353281658,0.8481494999723509,112.10184389993083,None,ScrollUp,정답입니다,112.10184389993083,None,112.10184389993083,None,112.10184389993083,None,112.10184389993083,None,112.86130350001622,None,112.86130350001622,113.36129849997815,,,,,,,,,,,,,,,,109,2023-04-25_13h46.16.062,FishGame,2022.1.1,60.09077312752007,
,31,넌 익살스러워,3,Orange,A,4.708333333333334,4.833333333333333,ScrollDown,ScrollUp,Orange.png,1,Neutral,Neutral,0,0,0,0,,,,,,,,,,,,,0,30,30,30,,,,,,,,,,,,,,,,,,,,,,,,,,,,,,,,,,,,,,,,,,,,,,,,,,,,,,,,,,,,,,,,,,,,,,,,,,,,,,,,,,,,,1.0185184975465138,0.7978215999901295,113.97858440002892,None,ScrollDown,정답입니다,113.97858440002892,None,113.97858440002892,None,113.97858440002892,None,113.97858440002892,None,114.6758140999591,None,114.6758140999591,115.17780539998785,,,,,,,,,,,,,,,,109,2023-04-25_13h46.16.062,FishGame,2022.1.1,60.09077312752007,
,32,넌 이기적이야,5,Green,B,2.291666666666667,2.333333333333333,ScrollUp,ScrollDown,Green.png,1,Negative,Congruent,0,0,0,0,,,,,,,,,,,,,0,31,31,31,,,,,,,,,,,,,,,,,,,,,,,,,,,,,,,,,,,,,,,,,,,,,,,,,,,,,,,,,,,,,,,,,,,,,,,,,,,,,,,,,,,,,1.8225308656692505,0.7668174999998882,115.78219249995891,None,ScrollUp,정답입니다,115.78219249995891,None,115.78219249995891,None,115.78219249995891,None,115.78219249995891,None,116.4612296000123,None,116.4612296000123,116.96120519994292,,,,,,,,,,,,,,,,109,2023-04-25_13h46.16.062,FishGame,2022.1.1,60.09077312752007,
,33,나를 데려가줘,6,Green,B,0,0,ScrollDown,ScrollUp,Green.png,1,NonTarget,NonTarget,0,0,0,0,,,,,,,,,,,,,0,32,32,32,,,,,,,,,,,,,,,,,,,,,,,,,,,,,,,,,,,,,,,,,,,,,,,,,,,,,,,,,,,,,,,,,,,,,,,,,,,,,,,,,,,,,2,1.2146997000090778,117.57723309996072,None,ScrollUp,오답입니다,117.57723309996072,None,117.57723309996072,None,117.57723309996072,None,117.57723309996072,None,118.69237920001615,None,118.69237920001615,119.19441019999795,,,,,,,,,,,,,,,,109,2023-04-25_13h46.16.062,FishGame,2022.1.1,60.09077312752007,
,34,넌 기회주의자야,5,Orange,A,2.875,2.133333333333333,ScrollDown,ScrollUp,Orange.png,1,Negative,Incongruent,0,0,0,0,,,,,,,,,,,,,0,33,33,33,,,,,,,,,,,,,,,,,,,,,,,,,,,,,,,,,,,,,,,,,,,,,,,,,,,,,,,,,,,,,,,,,,,,,,,,,,,,,,,,,,,,,1,0.8831292999675497,119.80517029995099,None,ScrollDown,정답입니다,119.80517029995099,None,119.80517029995099,None,119.80517029995099,None,119.80517029995099,None,120.59445620002225,None,120.59445620002225,121.09443369996734,,,,,,,,,,,,,,,,109,2023-04-25_13h46.16.062,FishGame,2022.1.1,60.09077312752007,
,1,넌 미성숙해,4,Orange,A,3,3.2,ScrollDown,ScrollUp,Orange.png,2,Negative,Incongruent,0,0,0,0,,,,,,,,,,,,,,,,,0,0,0,0,,,,,,,,,,,,,,,,,,,,,,,,,,,,,,,,,,,,,,,,153.42711559997406,154.92726489994675,154.9611411000369,155.91380239999853,155.96384780004155,156.92722610000055,156.91055090003647,None,,,,,,,,,,,,,,,,,,,,,,,,,,,,,,,,,,1.0138889054457347,0.9923408000031486,157.99815030000173,None,ScrollDown,정답입니다,157.99815030000173,None,157.99815030000173,None,157.99815030000173,None,157.99815030000173,None,158.89131380000617,None,158.89131380000617,159.39233860000968,121.59446529997513,None,121.59446529997513,None,0.02962963,0.05462963,1,0,0,0.016093609854578972,None,151.59371289995033,None,,,109,2023-04-25_13h46.16.062,FishGame,2022.1.1,60.09077312752007,
,2,넌 반사회적이야,5,Green,B,2.416666666666667,2.033333333333333,ScrollUp,ScrollDown,Green.png,2,Negative,Congruent,0,0,0,0,,,,,,,,,,,,,,,,,0,1,1,1,,,,,,,,,,,,,,,,,,,,,,,,,,,,,,,,,,,,,,,,,,,,,,,,,,,,,,,,,,,,,,,,,,,,,,,,,,,,,,,,,1.858024686574936,0.8143512000096962,159.99724629998673,None,ScrollUp,정답입니다,159.99724629998673,None,159.99724629998673,None,159.99724629998673,None,159.99724629998673,None,160.72467309993226,None,160.72467309993226,161.22706539998762,,,,,,,,,,,,,,,,109,2023-04-25_13h46.16.062,FishGame,2022.1.1,60.09077312752007,
,3,넌 유능해,2,Orange,A,6.208333333333333,4.433333333333334,ScrollDown,ScrollUp,Orange.png,2,Positive,Congruent,0,0,0,0,,,,,,,,,,,,,,,,,0,2,2,2,,,,,,,,,,,,,,,,,,,,,,,,,,,,,,,,,,,,,,,,,,,,,,,,,,,,,,,,,,,,,,,,,,,,,,,,,,,,,,,,,1.016975333293279,0.799384200014174,161.83858819992747,None,ScrollDown,정답입니다,161.83858819992747,None,161.83858819992747,None,161.83858819992747,None,161.83858819992747,None,162.54379989998415,None,162.54379989998415,163.0437823999673,,,,,,,,,,,,,,,,109,2023-04-25_13h46.16.062,FishGame,2022.1.1,60.09077312752007,
,4,넌 능숙해,2,Green,B,5.666666666666667,4.733333333333333,ScrollUp,ScrollDown,Green.png,2,Positive,Incongruent,0,0,0,0,,,,,,,,,,,,,,,,,0,3,3,3,,,,,,,,,,,,,,,,,,,,,,,,,,,,,,,,,,,,,,,,,,,,,,,,,,,,,,,,,,,,,,,,,,,,,,,,,,,,,,,,,1.939814825852712,0.8333832001080737,163.64830510003958,None,ScrollUp,정답입니다,163.64830510003958,None,163.64830510003958,None,163.64830510003958,None,163.64830510003958,None,164.39363690000027,None,164.39363690000027,164.89355909998994,,,,,,,,,,,,,,,,109,2023-04-25_13h46.16.062,FishGame,2022.1.1,60.09077312752007,
,5,넌 진부해,4,Green,B,2.458333333333333,3.166666666666667,ScrollUp,ScrollDown,Green.png,2,Negative,Congruent,0,0,0,0,,,,,,,,,,,,,,,,,0,4,4,4,,,,,,,,,,,,,,,,,,,,,,,,,,,,,,,,,,,,,,,,,,,,,,,,,,,,,,,,,,,,,,,,,,,,,,,,,,,,,,,,,1.8888888905445735,0.760934800026007,165.51010269997641,None,ScrollUp,정답입니다,165.51010269997641,None,165.51010269997641,None,165.51010269997641,None,165.51010269997641,None,166.17449929995928,None,166.17449929995928,166.67503599997144,,,,,,,,,,,,,,,,109,2023-04-25_13h46.16.062,FishGame,2022.1.1,60.09077312752007,
,6,나를 보내줘,6,Orange,A,0,0,ScrollUp,ScrollDown,Orange.png,2,NonTarget,NonTarget,0,0,0,0,,,,,,,,,,,,,,,,,0,5,5,5,,,,,,,,,,,,,,,,,,,,,,,,,,,,,,,,,,,,,,,,,,,,,,,,,,,,,,,,,,,,,,,,,,,,,,,,,,,,,,,,,1.9259259502092998,0.9663734999485314,167.27910809998866,None,ScrollUp,정답입니다,167.27910809998866,None,167.27910809998866,None,167.27910809998866,None,167.27910809998866,None,168.15785089996643,None,168.15785089996643,168.66022710001562,,,,,,,,,,,,,,,,109,2023-04-25_13h46.16.062,FishGame,2022.1.1,60.09077312752007,
,7,넌 엄격해,3,Orange,A,4.166666666666666,4.1,ScrollDown,ScrollUp,Orange.png,2,Neutral,Neutral,0,0,0,0,,,,,,,,,,,,,,,,,0,6,6,6,,,,,,,,,,,,,,,,,,,,,,,,,,,,,,,,,,,,,,,,,,,,,,,,,,,,,,,,,,,,,,,,,,,,,,,,,,,,,,,,,1.2083333383003871,0.7166629999410361,169.27098080003634,None,ScrollDown,정답입니다,169.27098080003634,None,169.27098080003634,None,169.27098080003634,None,169.27098080003634,None,169.8936763999518,None,169.8936763999518,170.39356240001507,,,,,,,,,,,,,,,,109,2023-04-25_13h46.16.062,FishGame,2022.1.1,60.09077312752007,
,8,나를 보내줘,6,Orange,A,0,0,ScrollUp,ScrollDown,Orange.png,2,NonTarget,NonTarget,0,0,0,0,,,,,,,,,,,,,,,,,0,7,7,7,,,,,,,,,,,,,,,,,,,,,,,,,,,,,,,,,,,,,,,,,,,,,,,,,,,,,,,,,,,,,,,,,,,,,,,,,,,,,,,,,1.9691357910633087,0.9322784000542015,171.0015706999693,None,ScrollUp,정답입니다,171.0015706999693,None,171.0015706999693,None,171.0015706999693,None,171.0015706999693,None,171.84341560001485,None,171.84341560001485,172.34341740002856,,,,,,,,,,,,,,,,109,2023-04-25_13h46.16.062,FishGame,2022.1.1,60.09077312752007,
,9,넌 대담해,3,Green,B,4.875,4.866666666666666,ScrollUp,ScrollDown,Green.png,2,Neutral,Neutral,0,0,0,0,,,,,,,,,,,,,,,,,0,8,8,8,,,,,,,,,,,,,,,,,,,,,,,,,,,,,,,,,,,,,,,,,,,,,,,,,,,,,,,,,,,,,,,,,,,,,,,,,,,,,,,,,1.0740740497907002,0.8502131999703124,172.9511406000238,None,ScrollDown,오답입니다,172.9511406000238,None,172.9511406000238,None,172.9511406000238,None,172.9511406000238,None,173.7101511999499,None,173.7101511999499,174.21004090004135,,,,,,,,,,,,,,,,109,2023-04-25_13h46.16.062,FishGame,2022.1.1,60.09077312752007,
,10,넌 꾸준해,1,Orange,A,5.916666666666668,5.8,ScrollDown,ScrollUp,Orange.png,2,Positive,Congruent,0,0,0,0,,,,,,,,,,,,,,,,,0,9,9,9,,,,,,,,,,,,,,,,,,,,,,,,,,,,,,,,,,,,,,,,,,,,,,,,,,,,,,,,,,,,,,,,,,,,,,,,,,,,,,,,,1.0787036915620167,0.8950671999482438,174.82336299994495,None,ScrollDown,정답입니다,174.82336299994495,None,174.82336299994495,None,174.82336299994495,None,174.82336299994495,None,175.62662390002515,None,175.62662390002515,176.12667569995392,,,,,,,,,,,,,,,,109,2023-04-25_13h46.16.062,FishGame,2022.1.1,60.09077312752007,
,11,나를 데려가줘,6,Green,B,0,0,ScrollDown,ScrollUp,Green.png,2,NonTarget,NonTarget,0,0,0,0,,,,,,,,,,,,,,,,,0,10,10,10,,,,,,,,,,,,,,,,,,,,,,,,,,,,,,,,,,,,,,,,,,,,,,,,,,,,,,,,,,,,,,,,,,,,,,,,,,,,,,,,,1.1635802586873372,1.081396699999459,176.73133919993415,None,ScrollDown,정답입니다,176.73133919993415,None,176.73133919993415,None,176.73133919993415,None,176.73133919993415,None,177.7266620999435,None,177.7266620999435,178.2269986999454,,,,,,,,,,,,,,,,109,2023-04-25_13h46.16.062,FishGame,2022.1.1,60.09077312752007,
,12,넌 독선적이야,5,Orange,A,2.458333333333333,1.933333333333333,ScrollDown,ScrollUp,Orange.png,2,Negative,Incongruent,0,0,0,0,,,,,,,,,,,,,,,,,0,11,11,11,,,,,,,,,,,,,,,,,,,,,,,,,,,,,,,,,,,,,,,,,,,,,,,,,,,,,,,,,,,,,,,,,,,,,,,,,,,,,,,,,1.1141975373029709,0.9336552999448031,178.84868369996548,None,ScrollDown,정답입니다,178.84868369996548,None,178.84868369996548,None,178.84868369996548,None,178.84868369996548,None,179.6745496999938,None,179.6745496999938,180.177153000026,,,,,,,,,,,,,,,,109,2023-04-25_13h46.16.062,FishGame,2022.1.1,60.09077312752007,
,13,나를 보내줘,6,Orange,A,0,0,ScrollUp,ScrollDown,Orange.png,2,NonTarget,NonTarget,0,0,0,0,,,,,,,,,,,,,,,,,0,12,12,12,,,,,,,,,,,,,,,,,,,,,,,,,,,,,,,,,,,,,,,,,,,,,,,,,,,,,,,,,,,,,,,,,,,,,,,,,,,,,,,,,1.9290123283863068,0.9792361999861896,180.78406989993528,None,ScrollUp,정답입니다,180.78406989993528,None,180.78406989993528,None,180.78406989993528,None,180.78406989993528,None,181.67443369992543,None,181.67443369992543,182.1751147999894,,,,,,,,,,,,,,,,109,2023-04-25_13h46.16.062,FishGame,2022.1.1,60.09077312752007,
,14,넌 책임감있어,1,Green,B,6.347826086956522,6,ScrollUp,ScrollDown,Green.png,2,Positive,Incongruent,0,0,0,0,,,,,,,,,,,,,,,,,0,13,13,13,,,,,,,,,,,,,,,,,,,,,,,,,,,,,,,,,,,,,,,,,,,,,,,,,,,,,,,,,,,,,,,,,,,,,,,,,,,,,,,,,2,1.1166585999308154,182.78136419993825,None,ScrollUp,정답입니다,182.78136419993825,None,182.78136419993825,None,182.78136419993825,None,182.78136419993825,None,183.80753230000846,None,183.80753230000846,184.31070809997618,,,,,,,,,,,,,,,,109,2023-04-25_13h46.16.062,FishGame,2022.1.1,60.09077312752007,
,15,넌 문학적이야,3,Orange,A,4.708333333333334,4.333333333333333,ScrollDown,ScrollUp,Orange.png,2,Neutral,Neutral,0,0,0,0,,,,,,,,,,,,,,,,,0,14,14,14,,,,,,,,,,,,,,,,,,,,,,,,,,,,,,,,,,,,,,,,,,,,,,,,,,,,,,,,,,,,,,,,,,,,,,,,,,,,,,,,,1,0.8498995000263676,184.92125140002463,None,ScrollDown,정답입니다,184.92125140002463,None,184.92125140002463,None,184.92125140002463,None,184.92125140002463,None,185.67667339998297,None,185.67667339998297,186.17983459995594,,,,,,,,,,,,,,,,109,2023-04-25_13h46.16.062,FishGame,2022.1.1,60.09077312752007,
,16,넌 재미있어,1,Green,B,5.875,5.7,ScrollUp,ScrollDown,Green.png,2,Positive,Incongruent,0,0,0,0,,,,,,,,,,,,,,,,,0,15,15,15,,,,,,,,,,,,,,,,,,,,,,,,,,,,,,,,,,,,,,,,,,,,,,,,,,,,,,,,,,,,,,,,,,,,,,,,,,,,,,,,,2,0.8498661000048742,186.78631490003318,None,ScrollUp,정답입니다,186.78631490003318,None,186.78631490003318,None,186.78631490003318,None,186.78631490003318,None,187.54314690001775,None,187.54314690001775,188.04313789994922,,,,,,,,,,,,,,,,109,2023-04-25_13h46.16.062,FishGame,2022.1.1,60.09077312752007,
,17,나를 데려가줘,6,Green,B,0,0,ScrollDown,ScrollUp,Green.png,2,NonTarget,NonTarget,0,0,0,0,,,,,,,,,,,,,,,,,0,16,16,16,,,,,,,,,,,,,,,,,,,,,,,,,,,,,,,,,,,,,,,,,,,,,,,,,,,,,,,,,,,,,,,,,,,,,,,,,,,,,,,,,1.0987654229005177,1.016590700019151,188.64793129998725,None,ScrollDown,정답입니다,188.64793129998725,None,188.64793129998725,None,188.64793129998725,None,188.64793129998725,None,189.57430169999134,None,189.57430169999134,190.07630309998058,,,,,,,,,,,,,,,,109,2023-04-25_13h46.16.062,FishGame,2022.1.1,60.09077312752007,
,18,넌 협력적이야,1,Orange,A,5.625,5.633333333333334,ScrollDown,ScrollUp,Orange.png,2,Positive,Congruent,0,0,0,0,,,,,,,,,,,,,,,,,0,17,17,17,,,,,,,,,,,,,,,,,,,,,,,,,,,,,,,,,,,,,,,,,,,,,,,,,,,,,,,,,,,,,,,,,,,,,,,,,,,,,,,,,1.0540123681227367,0.8332678000442684,190.68564559996594,None,ScrollDown,정답입니다,190.68564559996594,None,190.68564559996594,None,190.68564559996594,None,190.68564559996594,None,191.42637160001323,None,191.42637160001323,191.9263185999589,,,,,,,,,,,,,,,,109,2023-04-25_13h46.16.062,FishGame,2022.1.1,60.09077312752007,
,19,넌 평범해,3,Green,B,4.333333333333332,4.233333333333333,ScrollUp,ScrollDown,Green.png,2,Neutral,Neutral,0,0,0,0,,,,,,,,,,,,,,,,,0,18,18,18,,,,,,,,,,,,,,,,,,,,,,,,,,,,,,,,,,,,,,,,,,,,,,,,,,,,,,,,,,,,,,,,,,,,,,,,,,,,,,,,,1.9783950746059418,0.9791609999956563,192.53309609997086,None,ScrollUp,정답입니다,192.53309609997086,None,192.53309609997086,None,192.53309609997086,None,192.53309609997086,None,193.42393950000405,None,193.42393950000405,193.9240839999402,,,,,,,,,,,,,,,,109,2023-04-25_13h46.16.062,FishGame,2022.1.1,60.09077312752007,
,20,넌 오만해,5,Orange,A,2.333333333333333,2,ScrollDown,ScrollUp,Orange.png,2,Negative,Incongruent,0,0,0,0,,,,,,,,,,,,,,,,,0,19,19,19,,,,,,,,,,,,,,,,,,,,,,,,,,,,,,,,,,,,,,,,,,,,,,,,,,,,,,,,,,,,,,,,,,,,,,,,,,,,,,,,,1.1280864129463832,0.9293517000041902,194.5437065999722,None,ScrollDown,정답입니다,194.5437065999722,None,194.5437065999722,None,194.5437065999722,None,194.5437065999722,None,195.3740149999503,None,195.3740149999503,195.8764304999495,,,,,,,,,,,,,,,,109,2023-04-25_13h46.16.062,FishGame,2022.1.1,60.09077312752007,
,21,넌 운이없어,4,Green,B,3,3.466666666666667,ScrollUp,ScrollDown,Green.png,2,Negative,Congruent,0,0,0,0,,,,,,,,,,,,,,,,,0,20,20,20,,,,,,,,,,,,,,,,,,,,,,,,,,,,,,,,,,,,,,,,,,,,,,,,,,,,,,,,,,,,,,,,,,,,,,,,,,,,,,,,,1.9027777661879857,0.8667292000027373,196.48393290000968,None,ScrollUp,정답입니다,196.48393290000968,None,196.48393290000968,None,196.48393290000968,None,196.48393290000968,None,197.25970599998254,None,197.25970599998254,197.75965909997467,,,,,,,,,,,,,,,,109,2023-04-25_13h46.16.062,FishGame,2022.1.1,60.09077312752007,
,22,넌 창조적이야,2,Green,B,6.125,4.633333333333334,ScrollUp,ScrollDown,Green.png,2,Positive,Incongruent,0,0,0,0,,,,,,,,,,,,,,,,,0,21,21,21,,,,,,,,,,,,,,,,,,,,,,,,,,,,,,,,,,,,,,,,,,,,,,,,,,,,,,,,,,,,,,,,,,,,,,,,,,,,,,,,,1.6820987711350122,0.7633953999029472,198.3766586999409,None,ScrollUp,정답입니다,198.3766586999409,None,198.3766586999409,None,198.3766586999409,None,198.3766586999409,None,199.04278769996017,None,199.04278769996017,199.5428227999946,,,,,,,,,,,,,,,,109,2023-04-25_13h46.16.062,FishGame,2022.1.1,60.09077312752007,
,23,나를 보내줘,6,Orange,A,0,0,ScrollUp,ScrollDown,Orange.png,2,NonTarget,NonTarget,0,0,0,0,,,,,,,,,,,,,,,,,0,22,22,22,,,,,,,,,,,,,,,,,,,,,,,,,,,,,,,,,,,,,,,,,,,,,,,,,,,,,,,,,,,,,,,,,,,,,,,,,,,,,,,,,1.71296297510465,0.8981933000031859,200.14996039995458,None,ScrollUp,정답입니다,200.14996039995458,None,200.14996039995458,None,200.14996039995458,None,200.14996039995458,None,200.9595245999517,None,200.9595245999517,201.4594836999895,,,,,,,,,,,,,,,,109,2023-04-25_13h46.16.062,FishGame,2022.1.1,60.09077312752007,
,24,넌 통찰력있어,2,Orange,A,6.5,4.8,ScrollDown,ScrollUp,Orange.png,2,Positive,Congruent,0,0,0,0,,,,,,,,,,,,,,,,,0,23,23,23,,,,,,,,,,,,,,,,,,,,,,,,,,,,,,,,,,,,,,,,,,,,,,,,,,,,,,,,,,,,,,,,,,,,,,,,,,,,,,,,,1.0570987462997437,0.9791787000140175,202.07050379994325,None,ScrollDown,정답입니다,202.07050379994325,None,202.07050379994325,None,202.07050379994325,None,202.07050379994325,None,202.95733739994466,None,202.95733739994466,203.45937900000717,,,,,,,,,,,,,,,,109,2023-04-25_13h46.16.062,FishGame,2022.1.1,60.09077312752007,
,25,넌 경솔해,5,Green,B,2.458333333333333,2.266666666666667,ScrollUp,ScrollDown,Green.png,2,Negative,Congruent,0,0,0,0,,,,,,,,,,,,,,,,,0,24,24,24,,,,,,,,,,,,,,,,,,,,,,,,,,,,,,,,,,,,,,,,,,,,,,,,,,,,,,,,,,,,,,,,,,,,,,,,,,,,,,,,,1.825617293516795,0.8812156000640243,204.0659319999395,None,ScrollUp,정답입니다,204.0659319999395,None,204.0659319999395,None,204.0659319999395,None,204.0659319999395,None,204.85938049992546,None,204.85938049992546,205.35938709997572,,,,,,,,,,,,,,,,109,2023-04-25_13h46.16.062,FishGame,2022.1.1,60.09077312752007,
,26,넌 초조해,4,Orange,A,2.916666666666667,3.133333333333333,ScrollDown,ScrollUp,Orange.png,2,Negative,Incongruent,0,0,0,0,,,,,,,,,,,,,,,,,0,25,25,25,,,,,,,,,,,,,,,,,,,,,,,,,,,,,,,,,,,,,,,,,,,,,,,,,,,,,,,,,,,,,,,,,,,,,,,,,,,,,,,,,1.0277777810891469,0.9148051999509335,205.9691518000327,None,ScrollDown,정답입니다,205.9691518000327,None,205.9691518000327,None,205.9691518000327,None,205.9691518000327,None,206.79274369997438,None,206.79274369997438,207.29588909994345,,,,,,,,,,,,,,,,109,2023-04-25_13h46.16.062,FishGame,2022.1.1,60.09077312752007,
,27,넌 무관심해,4,Green,B,2.833333333333333,2.9,ScrollUp,ScrollDown,Green.png,2,Negative,Congruent,0,0,0,0,,,,,,,,,,,,,,,,,0,26,26,26,,,,,,,,,,,,,,,,,,,,,,,,,,,,,,,,,,,,,,,,,,,,,,,,,,,,,,,,,,,,,,,,,,,,,,,,,,,,,,,,,1.8317901243766148,0.8313471000874415,207.899638999952,None,ScrollUp,정답입니다,207.899638999952,None,207.899638999952,None,207.899638999952,None,207.899638999952,None,208.64053969993256,None,208.64053969993256,209.14256850001402,,,,,,,,,,,,,,,,109,2023-04-25_13h46.16.062,FishGame,2022.1.1,60.09077312752007,
,28,넌 감성적이야,3,Green,B,4.125,4.166666666666667,ScrollUp,ScrollDown,Green.png,2,Neutral,Neutral,0,0,0,0,,,,,,,,,,,,,,,,,0,27,27,27,,,,,,,,,,,,,,,,,,,,,,,,,,,,,,,,,,,,,,,,,,,,,,,,,,,,,,,,,,,,,,,,,,,,,,,,,,,,,,,,,1.71913580596447,0.847885699942708,209.74769839993678,None,ScrollUp,정답입니다,209.74769839993678,None,209.74769839993678,None,209.74769839993678,None,209.74769839993678,None,210.50932439998724,None,210.50932439998724,211.0092505000066,,,,,,,,,,,,,,,,109,2023-04-25_13h46.16.062,FishGame,2022.1.1,60.09077312752007,
,29,넌 배려심있어,1,Orange,A,6.083333333333333,5.5,ScrollDown,ScrollUp,Orange.png,2,Positive,Congruent,0,0,0,0,,,,,,,,,,,,,,,,,0,28,28,28,,,,,,,,,,,,,,,,,,,,,,,,,,,,,,,,,,,,,,,,,,,,,,,,,,,,,,,,,,,,,,,,,,,,,,,,,,,,,,,,,1.180555562178294,0.8291505000088364,211.61849030002486,None,ScrollDown,정답입니다,211.61849030002486,None,211.61849030002486,None,211.61849030002486,None,211.61849030002486,None,212.35688340000343,None,212.35688340000343,212.85689729999285,,,,,,,,,,,,,,,,109,2023-04-25_13h46.16.062,FishGame,2022.1.1,60.09077312752007,
,30,넌 숨김없어,3,Orange,A,4.5,4.933333333333334,ScrollDown,ScrollUp,Orange.png,2,Neutral,Neutral,0,0,0,0,,,,,,,,,,,,,,,,,0,29,29,29,,,,,,,,,,,,,,,,,,,,,,,,,,,,,,,,,,,,,,,,,,,,,,,,,,,,,,,,,,,,,,,,,,,,,,,,,,,,,,,,,1.1342592686414719,0.7807365999324247,213.4697424999904,None,ScrollDown,정답입니다,213.4697424999904,None,213.4697424999904,None,213.4697424999904,None,213.4697424999904,None,214.15694999997504,None,214.15694999997504,214.6593052999815,,,,,,,,,,,,,,,,109,2023-04-25_13h46.16.062,FishGame,2022.1.1,60.09077312752007,
,31,넌 훌륭해,2,Green,B,5.916666666666667,4.033333333333333,ScrollUp,ScrollDown,Green.png,2,Positive,Incongruent,0,0,0,0,,,,,,,,,,,,,,,,,0,30,30,30,,,,,,,,,,,,,,,,,,,,,,,,,,,,,,,,,,,,,,,,,,,,,,,,,,,,,,,,,,,,,,,,,,,,,,,,,,,,,,,,,1.8009259204069774,0.7000126000493765,215.2680396999931,None,ScrollUp,정답입니다,215.2680396999931,None,215.2680396999931,None,215.2680396999931,None,215.2680396999931,None,215.87599329999648,None,215.87599329999648,216.37592799996492,,,,,,,,,,,,,,,,109,2023-04-25_13h46.16.062,FishGame,2022.1.1,60.09077312752007,
,32,넌 슬기로워,2,Orange,A,6.166666666666667,4.1,ScrollDown,ScrollUp,Orange.png,2,Positive,Congruent,0,0,0,0,,,,,,,,,,,,,,,,,0,31,31,31,,,,,,,,,,,,,,,,,,,,,,,,,,,,,,,,,,,,,,,,,,,,,,,,,,,,,,,,,,,,,,,,,,,,,,,,,,,,,,,,,1.1790123482545216,0.8094195000594482,216.99402149999514,None,ScrollDown,정답입니다,216.99402149999514,None,216.99402149999514,None,216.99402149999514,None,216.99402149999514,None,217.70677910000086,None,217.70677910000086,218.20677089993842,,,,,,,,,,,,,,,,109,2023-04-25_13h46.16.062,FishGame,2022.1.1,60.09077312752007,
,33,넌 냉혹해,5,Orange,A,2.583333333333333,2.1,ScrollDown,ScrollUp,Orange.png,2,Negative,Incongruent,0,0,0,0,,,,,,,,,,,,,,,,,0,32,32,32,,,,,,,,,,,,,,,,,,,,,,,,,,,,,,,,,,,,,,,,,,,,,,,,,,,,,,,,,,,,,,,,,,,,,,,,,,,,,,,,,1.1188271542390187,0.7964854999445379,218.8195045000175,None,ScrollDown,정답입니다,218.8195045000175,None,218.8195045000175,None,218.8195045000175,None,218.8195045000175,None,219.5237014000304,None,219.5237014000304,220.02586179994978,,,,,,,,,,,,,,,,109,2023-04-25_13h46.16.062,FishGame,2022.1.1,60.09077312752007,
,34,나를 데려가줘,6,Green,B,0,0,ScrollDown,ScrollUp,Green.png,2,NonTarget,NonTarget,0,0,0,0,,,,,,,,,,,,,,,,,0,33,33,33,,,,,,,,,,,,,,,,,,,,,,,,,,,,,,,,,,,,,,,,,,,,,,,,,,,,,,,,,,,,,,,,,,,,,,,,,,,,,,,,,1.9737654328346252,1.1318064999068156,220.63079249998555,None,ScrollUp,오답입니다,220.63079249998555,None,220.63079249998555,None,220.63079249998555,None,220.63079249998555,None,221.6759933999274,None,221.6759933999274,222.17585150001105,,,,,,,,,,,,,,,,109,2023-04-25_13h46.16.062,FishGame,2022.1.1,60.09077312752007,
,35,넌 편파적이야,5,Green,B,2.125,2,ScrollUp,ScrollDown,Green.png,2,Negative,Congruent,0,0,0,0,,,,,,,,,,,,,,,,,0,34,34,34,,,,,,,,,,,,,,,,,,,,,,,,,,,,,,,,,,,,,,,,,,,,,,,,,,,,,,,,,,,,,,,,,,,,,,,,,,,,,,,,,1.9290123283863068,1.2812407999299467,222.78291029995307,None,ScrollUp,정답입니다,222.78291029995307,None,222.78291029995307,None,222.78291029995307,None,222.78291029995307,None,223.97564650001004,None,223.97564650001004,224.47627600003034,,,,,,,,,,,,,,,,109,2023-04-25_13h46.16.062,FishGame,2022.1.1,60.09077312752007,
,36,넌 슬퍼,4,Orange,A,2.583333333333333,3.066666666666667,ScrollDown,ScrollUp,Orange.png,2,Negative,Incongruent,0,0,0,0,,,,,,,,,,,,,,,,,0,35,35,35,,,,,,,,,,,,,,,,,,,,,,,,,,,,,,,,,,,,,,,,,,,,,,,,,,,,,,,,,,,,,,,,,,,,,,,,,,,,,,,,,1.162037044763565,0.8112799000227824,225.09214490000159,None,ScrollDown,정답입니다,225.09214490000159,None,225.09214490000159,None,225.09214490000159,None,225.09214490000159,None,225.80662369995844,None,225.80662369995844,226.30669799994212,,,,,,,,,,,,,,,,109,2023-04-25_13h46.16.062,FishGame,2022.1.1,60.09077312752007,
,37,나를 데려가줘,6,Green,B,0,0,ScrollDown,ScrollUp,Green.png,2,NonTarget,NonTarget,0,0,0,0,,,,,,,,,,,,,,,,,0,36,36,36,,,,,,,,,,,,,,,,,,,,,,,,,,,,,,,,,,,,,,,,,,,,,,,,,,,,,,,,,,,,,,,,,,,,,,,,,,,,,,,,,1.2067901243766148,1.0812297000084072,226.9164416999556,None,ScrollDown,정답입니다,226.9164416999556,None,226.9164416999556,None,226.9164416999556,None,226.9164416999556,None,227.90901519998442,None,227.90901519998442,228.40897859993856,,,,,,,,,,,,,,,,109,2023-04-25_13h46.16.062,FishGame,2022.1.1,60.09077312752007,
,38,넌 친절해,1,Green,B,6.041666666666667,5.533333333333333,ScrollUp,ScrollDown,Green.png,2,Positive,Incongruent,0,0,0,0,,,,,,,,,,,,,,,,,0,37,37,37,,,,,,,,,,,,,,,,,,,,,,,,,,,,,,,,,,,,,,,,,,,,,,,,,,,,,,,,,,,,,,,,,,,,,,,,,,,,,,,,,1.8703703731298447,0.9500011999625713,229.01745789998677,None,ScrollUp,정답입니다,229.01745789998677,None,229.01745789998677,None,229.01745789998677,None,229.01745789998677,None,229.8756890000077,None,229.8756890000077,230.37548839999363,,,,,,,,,,,,,,,,109,2023-04-25_13h46.16.062,FishGame,2022.1.1,60.09077312752007,
,1,넌 엉성해,4,Orange,A,3,3.3,ScrollDown,ScrollUp,Orange.png,3,Negative,Incongruent,0,0,0,0,,,,,,,,,,,,,,,,,,,,,0,0,0,0,,,,,,,,,,,,,,,,,,,,,,,,,,,,,,,,,,,,263.87474859994836,265.3755937999813,265.40841020003427,266.3583391000284,266.40835689997766,267.35828489996493,267.35828489996493,None,,,,,,,,,,,,,,,,,,,,,,,,,,,,,,,,,,1.0432098706563313,0.9563269999343902,268.4429583000019,None,ScrollDown,정답입니다,268.4429583000019,None,268.4429583000019,None,268.4429583000019,None,268.4429583000019,None,269.3080767999636,None,269.3080767999636,269.8080904999515,230.8755872999318,None,230.8755872999318,None,0.096296296,-0.083333336,1,0,0,0.01619160990230739,None,260.8748494000174,None,,,109,2023-04-25_13h46.16.062,FishGame,2022.1.1,60.09077312752007,
,2,나를 보내줘,6,Orange,A,0,0,ScrollUp,ScrollDown,Orange.png,3,NonTarget,NonTarget,0,0,0,0,,,,,,,,,,,,,,,,,,,,,0,1,1,1,,,,,,,,,,,,,,,,,,,,,,,,,,,,,,,,,,,,,,,,,,,,,,,,,,,,,,,,,,,,,,,,,,,,,,,,,,,,,1.7716049303611119,0.8480027000186965,270.41457849997096,None,ScrollUp,정답입니다,270.41457849997096,None,270.41457849997096,None,270.41457849997096,None,270.41457849997096,None,271.1746554999845,None,271.1746554999845,271.67512569995597,,,,,,,,,,,,,,,,109,2023-04-25_13h46.16.062,FishGame,2022.1.1,60.09077312752007,
,3,넌 활발해,1,Green,B,5.666666666666667,5.6,ScrollUp,ScrollDown,Green.png,3,Positive,Incongruent,0,0,0,0,,,,,,,,,,,,,,,,,,,,,0,2,2,2,,,,,,,,,,,,,,,,,,,,,,,,,,,,,,,,,,,,,,,,,,,,,,,,,,,,,,,,,,,,,,,,,,,,,,,,,,,,,1.9953703780968983,0.948234900017269,272.2826161000412,None,ScrollUp,정답입니다,272.2826161000412,None,272.2826161000412,None,272.2826161000412,None,272.2826161000412,None,273.1414850000292,None,273.1414850000292,273.64136330003385,,,,,,,,,,,,,,,,109,2023-04-25_13h46.16.062,FishGame,2022.1.1,60.09077312752007,
,4,넌 논리적이야,2,Orange,A,5.666666666666666,4.633333333333334,ScrollDown,ScrollUp,Orange.png,3,Positive,Congruent,0,0,0,0,,,,,,,,,,,,,,,,,,,,,0,3,3,3,,,,,,,,,,,,,,,,,,,,,,,,,,,,,,,,,,,,,,,,,,,,,,,,,,,,,,,,,,,,,,,,,,,,,,,,,,,,,1.0246913532416027,0.8127420999808237,274.2509374000365,None,ScrollDown,정답입니다,274.2509374000365,None,274.2509374000365,None,274.2509374000365,None,274.2509374000365,None,274.9725303000305,None,274.9725303000305,275.475027199951,,,,,,,,,,,,,,,,109,2023-04-25_13h46.16.062,FishGame,2022.1.1,60.09077312752007,
,5,넌 과묵해,3,Orange,A,3.875,4.4,ScrollDown,ScrollUp,Orange.png,3,Neutral,Neutral,0,0,0,0,,,,,,,,,,,,,,,,,,,,,0,4,4,4,,,,,,,,,,,,,,,,,,,,,,,,,,,,,,,,,,,,,,,,,,,,,,,,,,,,,,,,,,,,,,,,,,,,,,,,,,,,,1.0787036915620167,1.2832662001019344,276.08389350003563,None,ScrollDown,정답입니다,276.08389350003563,None,276.08389350003563,None,276.08389350003563,None,276.08389350003563,None,277.27252949995454,None,277.27252949995454,277.7746718999697,,,,,,,,,,,,,,,,109,2023-04-25_13h46.16.062,FishGame,2022.1.1,60.09077312752007,
,6,나를 데려가줘,6,Green,B,0,0,ScrollDown,ScrollUp,Green.png,3,NonTarget,NonTarget,0,0,0,0,,,,,,,,,,,,,,,,,,,,,0,5,5,5,,,,,,,,,,,,,,,,,,,,,,,,,,,,,,,,,,,,,,,,,,,,,,,,,,,,,,,,,,,,,,,,,,,,,,,,,,,,,1.1373456716537476,1.094769100076519,278.38507930003107,None,ScrollDown,정답입니다,278.38507930003107,None,278.38507930003107,None,278.38507930003107,None,278.38507930003107,None,279.39138629997615,None,279.39138629997615,279.89124739996623,,,,,,,,,,,,,,,,109,2023-04-25_13h46.16.062,FishGame,2022.1.1,60.09077312752007,
,7,넌 미숙해,4,Green,B,3,3,ScrollUp,ScrollDown,Green.png,3,Negative,Congruent,0,0,0,0,,,,,,,,,,,,,,,,,,,,,0,6,6,6,,,,,,,,,,,,,,,,,,,,,,,,,,,,,,,,,,,,,,,,,,,,,,,,,,,,,,,,,,,,,,,,,,,,,,,,,,,,,1.7638888855775197,0.9094256999669597,280.50486059999093,None,ScrollUp,정답입니다,280.50486059999093,None,280.50486059999093,None,280.50486059999093,None,280.50486059999093,None,281.3221566999564,None,281.3221566999564,281.82293689996004,,,,,,,,,,,,,,,,109,2023-04-25_13h46.16.062,FishGame,2022.1.1,60.09077312752007,
,8,나를 보내줘,6,Orange,A,0,0,ScrollUp,ScrollDown,Orange.png,3,NonTarget,NonTarget,0,0,0,0,,,,,,,,,,,,,,,,,,,,,0,7,7,7,,,,,,,,,,,,,,,,,,,,,,,,,,,,,,,,,,,,,,,,,,,,,,,,,,,,,,,,,,,,,,,,,,,,,,,,,,,,,1.8873456766208012,0.879509299993515,282.431438999949,None,ScrollUp,정답입니다,282.431438999949,None,282.431438999949,None,282.431438999949,None,282.431438999949,None,283.22217309998814,None,283.22217309998814,283.7246370000066,,,,,,,,,,,,,,,,109,2023-04-25_13h46.16.062,FishGame,2022.1.1,60.09077312752007,
,9,넌 자신만만해,3,Green,B,4.833333333333334,4.333333333333333,ScrollUp,ScrollDown,Green.png,3,Neutral,Neutral,0,0,0,0,,,,,,,,,,,,,,,,,,,,,0,8,8,8,,,,,,,,,,,,,,,,,,,,,,,,,,,,,,,,,,,,,,,,,,,,,,,,,,,,,,,,,,,,,,,,,,,,,,,,,,,,,1.7638888855775197,0.9834378999657929,284.3303644999396,None,ScrollUp,정답입니다,284.3303644999396,None,284.3303644999396,None,284.3303644999396,None,284.3303644999396,None,285.22464799997397,None,285.22464799997397,285.72451560001355,,,,,,,,,,,,,,,,109,2023-04-25_13h46.16.062,FishGame,2022.1.1,60.09077312752007,
,10,넌 탐욕스러워,5,Orange,A,2.25,2.1,ScrollDown,ScrollUp,Orange.png,3,Negative,Incongruent,0,0,0,0,,,,,,,,,,,,,,,,,,,,,0,9,9,9,,,,,,,,,,,,,,,,,,,,,,,,,,,,,,,,,,,,,,,,,,,,,,,,,,,,,,,,,,,,,,,,,,,,,,,,,,,,,1.1697530895471573,0.9647377000655979,286.33607970003504,None,ScrollDown,정답입니다,286.33607970003504,None,286.33607970003504,None,286.33607970003504,None,286.33607970003504,None,287.2077031999361,None,287.2077031999361,287.70770719996653,,,,,,,,,,,,,,,,109,2023-04-25_13h46.16.062,FishGame,2022.1.1,60.09077312752007,
,11,넌 인기있어,2,Orange,A,5.458333333333333,4.5,ScrollDown,ScrollUp,Orange.png,3,Positive,Congruent,0,0,0,0,,,,,,,,,,,,,,,,,,,,,0,10,10,10,,,,,,,,,,,,,,,,,,,,,,,,,,,,,,,,,,,,,,,,,,,,,,,,,,,,,,,,,,,,,,,,,,,,,,,,,,,,,1.2361111144224803,0.8665921000065282,288.3150212999899,None,ScrollDown,정답입니다,288.3150212999899,None,288.3150212999899,None,288.3150212999899,None,288.3150212999899,None,289.0889026999939,None,289.0889026999939,289.59094369993545,,,,,,,,,,,,,,,,109,2023-04-25_13h46.16.062,FishGame,2022.1.1,60.09077312752007,
,12,나를 데려가줘,6,Green,B,0,0,ScrollDown,ScrollUp,Green.png,3,NonTarget,NonTarget,0,0,0,0,,,,,,,,,,,,,,,,,,,,,0,11,11,11,,,,,,,,,,,,,,,,,,,,,,,,,,,,,,,,,,,,,,,,,,,,,,,,,,,,,,,,,,,,,,,,,,,,,,,,,,,,,1.2592592487732568,0.9975567000219598,290.1960394999478,None,ScrollDown,정답입니다,290.1960394999478,None,290.1960394999478,None,290.1960394999478,None,290.1960394999478,None,291.10759579995647,None,291.10759579995647,291.60759579995647,,,,,,,,,,,,,,,,109,2023-04-25_13h46.16.062,FishGame,2022.1.1,60.09077312752007,
,13,넌 뛰어나,2,Green,B,6.166666666666667,4,ScrollUp,ScrollDown,Green.png,3,Positive,Incongruent,0,0,0,0,,,,,,,,,,,,,,,,,,,,,0,12,12,12,,,,,,,,,,,,,,,,,,,,,,,,,,,,,,,,,,,,,,,,,,,,,,,,,,,,,,,,,,,,,,,,,,,,,,,,,,,,,1.7160493781169257,0.8321898999856785,292.22214259998873,None,ScrollUp,정답입니다,292.22214259998873,None,292.22214259998873,None,292.22214259998873,None,292.22214259998873,None,292.9576996000251,None,292.9576996000251,293.4577774000354,,,,,,,,,,,,,,,,109,2023-04-25_13h46.16.062,FishGame,2022.1.1,60.09077312752007,
,14,넌 낙관적이야,1,Orange,A,5.75,5.8,ScrollDown,ScrollUp,Orange.png,3,Positive,Congruent,0,0,0,0,,,,,,,,,,,,,,,,,,,,,0,13,13,13,,,,,,,,,,,,,,,,,,,,,,,,,,,,,,,,,,,,,,,,,,,,,,,,,,,,,,,,,,,,,,,,,,,,,,,,,,,,,1.2253086417913437,0.8447509999386966,294.07104900002014,None,ScrollDown,정답입니다,294.07104900002014,None,294.07104900002014,None,294.07104900002014,None,294.07104900002014,None,294.8244016999379,None,294.8244016999379,295.3242187999422,,,,,,,,,,,,,,,,109,2023-04-25_13h46.16.062,FishGame,2022.1.1,60.09077312752007,
,15,넌 산만해,4,Green,B,2.695652173913043,3.033333333333333,ScrollUp,ScrollDown,Green.png,3,Negative,Congruent,0,0,0,0,,,,,,,,,,,,,,,,,,,,,0,14,14,14,,,,,,,,,,,,,,,,,,,,,,,,,,,,,,,,,,,,,,,,,,,,,,,,,,,,,,,,,,,,,,,,,,,,,,,,,,,,,1.634259263674418,0.7456555999815464,295.93157070002053,None,ScrollUp,정답입니다,295.93157070002053,None,295.93157070002053,None,295.93157070002053,None,295.93157070002053,None,296.58875440002885,None,296.58875440002885,297.09076099994127,,,,,,,,,,,,,,,,109,2023-04-25_13h46.16.062,FishGame,2022.1.1,60.09077312752007,
,16,나를 보내줘,6,Orange,A,0,0,ScrollUp,ScrollDown,Orange.png,3,NonTarget,NonTarget,0,0,0,0,,,,,,,,,,,,,,,,,,,,,0,15,15,15,,,,,,,,,,,,,,,,,,,,,,,,,,,,,,,,,,,,,,,,,,,,,,,,,,,,,,,,,,,,,,,,,,,,,,,,,,,,,1.879629631837209,0.93123700004071,297.6974014999578,None,ScrollUp,정답입니다,297.6974014999578,None,297.6974014999578,None,297.6974014999578,None,297.6974014999578,None,298.54080700001214,None,298.54080700001214,299.0407518999418,,,,,,,,,,,,,,,,109,2023-04-25_13h46.16.062,FishGame,2022.1.1,60.09077312752007,
,17,넌 교활해,5,Green,B,2.333333333333333,2.133333333333333,ScrollUp,ScrollDown,Green.png,3,Negative,Congruent,0,0,0,0,,,,,,,,,,,,,,,,,,,,,0,16,16,16,,,,,,,,,,,,,,,,,,,,,,,,,,,,,,,,,,,,,,,,,,,,,,,,,,,,,,,,,,,,,,,,,,,,,,,,,,,,,1.6358024651805558,0.9479674999602139,299.64703019999433,None,ScrollUp,정답입니다,299.64703019999433,None,299.64703019999433,None,299.64703019999433,None,299.64703019999433,None,300.50742789998185,None,300.50742789998185,301.00746749993414,,,,,,,,,,,,,,,,109,2023-04-25_13h46.16.062,FishGame,2022.1.1,60.09077312752007,
,18,나를 보내줘,6,Orange,A,0,0,ScrollUp,ScrollDown,Orange.png,3,NonTarget,NonTarget,0,0,0,0,,,,,,,,,,,,,,,,,,,,,0,17,17,17,,,,,,,,,,,,,,,,,,,,,,,,,,,,,,,,,,,,,,,,,,,,,,,,,,,,,,,,,,,,,,,,,,,,,,,,,,,,,1.6867284004886947,0.9601068999618292,301.62365630001295,None,ScrollUp,정답입니다,301.62365630001295,None,301.62365630001295,None,301.62365630001295,None,301.62365630001295,None,302.4884153000312,None,302.4884153000312,302.98855120001826,,,,,,,,,,,,,,,,109,2023-04-25_13h46.16.062,FishGame,2022.1.1,60.09077312752007,
,19,넌 불친절해,5,Green,B,2.208333333333333,2.033333333333333,ScrollUp,ScrollDown,Green.png,3,Negative,Congruent,0,0,0,0,,,,,,,,,,,,,,,,,,,,,0,18,18,18,,,,,,,,,,,,,,,,,,,,,,,,,,,,,,,,,,,,,,,,,,,,,,,,,,,,,,,,,,,,,,,,,,,,,,,,,,,,,1.5709876542290053,1.0965535000432283,303.59743099997286,None,ScrollUp,정답입니다,303.59743099997286,None,303.59743099997286,None,303.59743099997286,None,303.59743099997286,None,304.60811359994113,None,304.60811359994113,305.1079982999945,,,,,,,,,,,,,,,,109,2023-04-25_13h46.16.062,FishGame,2022.1.1,60.09077312752007,
,20,넌 지적이야,2,Green,B,5.75,4.366666666666666,ScrollUp,ScrollDown,Green.png,3,Positive,Incongruent,0,0,0,0,,,,,,,,,,,,,,,,,,,,,0,19,19,19,,,,,,,,,,,,,,,,,,,,,,,,,,,,,,,,,,,,,,,,,,,,,,,,,,,,,,,,,,,,,,,,,,,,,,,,,,,,,1.7222222338120141,0.8834971999749541,305.71276289992966,None,ScrollUp,정답입니다,305.71276289992966,None,305.71276289992966,None,305.71276289992966,None,305.71276289992966,None,306.50746620004065,None,306.50746620004065,307.01052949996665,,,,,,,,,,,,,,,,109,2023-04-25_13h46.16.062,FishGame,2022.1.1,60.09077312752007,
,21,넌 우유부단해,4,Orange,A,2.666666666666667,3.166666666666667,ScrollDown,ScrollUp,Orange.png,3,Negative,Incongruent,0,0,0,0,,,,,,,,,,,,,,,,,,,,,0,20,20,20,,,,,,,,,,,,,,,,,,,,,,,,,,,,,,,,,,,,,,,,,,,,,,,,,,,,,,,,,,,,,,,,,,,,,,,,,,,,,1.1296296268701553,1.0646946000633761,307.6175059999805,None,ScrollDown,정답입니다,307.6175059999805,None,307.6175059999805,None,307.6175059999805,None,307.6175059999805,None,308.5906071999343,None,308.5906071999343,309.09061069996096,,,,,,,,,,,,,,,,109,2023-04-25_13h46.16.062,FishGame,2022.1.1,60.09077312752007,
,22,나를 데려가줘,6,Green,B,0,0,ScrollDown,ScrollUp,Green.png,3,NonTarget,NonTarget,0,0,0,0,,,,,,,,,,,,,,,,,,,,,0,21,21,21,,,,,,,,,,,,,,,,,,,,,,,,,,,,,,,,,,,,,,,,,,,,,,,,,,,,,,,,,,,,,,,,,,,,,,,,,,,,,1.253086417913437,0.9589572000550106,309.7045693999389,None,ScrollDown,정답입니다,309.7045693999389,None,309.7045693999389,None,309.7045693999389,None,309.7045693999389,None,310.5715951999882,None,310.5715951999882,311.07155729993246,,,,,,,,,,,,,,,,109,2023-04-25_13h46.16.062,FishGame,2022.1.1,60.09077312752007,
,23,넌 성실해,1,Green,B,6.041666666666666,5.7,ScrollUp,ScrollDown,Green.png,3,Positive,Incongruent,0,0,0,0,,,,,,,,,,,,,,,,,,,,,0,22,22,22,,,,,,,,,,,,,,,,,,,,,,,,,,,,,,,,,,,,,,,,,,,,,,,,,,,,,,,,,,,,,,,,,,,,,,,,,,,,,1.5432098750025034,0.9475645000347868,311.6787884000223,None,NoResponse,무응답입니다,311.6787884000223,None,311.6787884000223,None,311.6787884000223,None,311.6787884000223,None,312.54073060001247,None,312.54073060001247,313.04065530002117,,,,,,,,,,,,,,,,109,2023-04-25_13h46.16.062,FishGame,2022.1.1,60.09077312752007,
,24,넌 현실주의적이야,3,Orange,A,4.625,4.4,ScrollDown,ScrollUp,Orange.png,3,Neutral,Neutral,0,0,0,0,,,,,,,,,,,,,,,,,,,,,0,23,23,23,,,,,,,,,,,,,,,,,,,,,,,,,,,,,,,,,,,,,,,,,,,,,,,,,,,,,,,,,,,,,,,,,,,,,,,,,,,,,1.2361111144224803,1.1002853999380022,313.6488185999915,None,ScrollDown,정답입니다,313.6488185999915,None,313.6488185999915,None,313.6488185999915,None,313.6488185999915,None,314.65749150002375,None,314.65749150002375,315.1571464999579,,,,,,,,,,,,,,,,109,2023-04-25_13h46.16.062,FishGame,2022.1.1,60.09077312752007,
,25,넌 진실돼,1,Orange,A,6.625,5.566666666666666,ScrollDown,ScrollUp,Orange.png,3,Positive,Congruent,0,0,0,0,,,,,,,,,,,,,,,,,,,,,0,24,24,24,,,,,,,,,,,,,,,,,,,,,,,,,,,,,,,,,,,,,,,,,,,,,,,,,,,,,,,,,,,,,,,,,,,,,,,,,,,,,1.1450617164373398,0.9312925001140684,315.76699329994153,None,ScrollDown,정답입니다,315.76699329994153,None,315.76699329994153,None,315.76699329994153,None,315.76699329994153,None,316.605097200023,None,316.605097200023,317.10714830004144,,,,,,,,,,,,,,,,109,2023-04-25_13h46.16.062,FishGame,2022.1.1,60.09077312752007,
,26,넌 천진난만해,3,Green,B,4.958333333333334,4.833333333333333,ScrollUp,ScrollDown,Green.png,3,Neutral,Neutral,0,0,0,0,,,,,,,,,,,,,,,,,,,,,0,25,25,25,,,,,,,,,,,,,,,,,,,,,,,,,,,,,,,,,,,,,,,,,,,,,,,,,,,,,,,,,,,,,,,,,,,,,,,,,,,,,1.9212963084379833,0.9995096999919042,317.7162570999935,None,ScrollUp,정답입니다,317.7162570999935,None,317.7162570999935,None,317.7162570999935,None,317.7162570999935,None,318.62374609999824,None,318.62374609999824,319.12366669997573,,,,,,,,,,,,,,,,109,2023-04-25_13h46.16.062,FishGame,2022.1.1,60.09077312752007,
,27,넌 교양없어,5,Orange,A,2.416666666666667,2.2,ScrollDown,ScrollUp,Orange.png,3,Negative,Incongruent,0,0,0,0,,,,,,,,,,,,,,,,,,,,,0,26,26,26,,,,,,,,,,,,,,,,,,,,,,,,,,,,,,,,,,,,,,,,,,,,,,,,,,,,,,,,,,,,,,,,,,,,,,,,,,,,,1.140432099501292,0.8498354000039399,319.73336169996765,None,ScrollDown,정답입니다,319.73336169996765,None,319.73336169996765,None,319.73336169996765,None,319.73336169996765,None,320.4904578999849,None,320.4904578999849,320.99095549993217,,,,,,,,,,,,,,,,109,2023-04-25_13h46.16.062,FishGame,2022.1.1,60.09077312752007,
,28,나를 보내줘,6,Orange,A,0,0,ScrollUp,ScrollDown,Orange.png,3,NonTarget,NonTarget,0,0,0,0,,,,,,,,,,,,,,,,,,,,,0,27,27,27,,,,,,,,,,,,,,,,,,,,,,,,,,,,,,,,,,,,,,,,,,,,,,,,,,,,,,,,,,,,,,,,,,,,,,,,,,,,,1.9027777661879857,1.0459115999983624,321.5973703999771,None,ScrollUp,정답입니다,321.5973703999771,None,321.5973703999771,None,321.5973703999771,None,321.5973703999771,None,322.5570411999943,None,322.5570411999943,323.05695310002193,,,,,,,,,,,,,,,,109,2023-04-25_13h46.16.062,FishGame,2022.1.1,60.09077312752007,
,29,넌 엉뚱스러워,3,Orange,A,4.166666666666667,4.133333333333334,ScrollDown,ScrollUp,Orange.png,3,Neutral,Neutral,0,0,0,0,,,,,,,,,,,,,,,,,,,,,0,28,28,28,,,,,,,,,,,,,,,,,,,,,,,,,,,,,,,,,,,,,,,,,,,,,,,,,,,,,,,,,,,,,,,,,,,,,,,,,,,,,1.1358024577299755,0.9665353000164032,323.67009429994505,None,ScrollDown,정답입니다,323.67009429994505,None,323.67009429994505,None,323.67009429994505,None,323.67009429994505,None,324.5381787000224,None,324.5381787000224,325.04022770002484,,,,,,,,,,,,,,,,109,2023-04-25_13h46.16.062,FishGame,2022.1.1,60.09077312752007,
,30,넌 무지해,4,Green,B,2.541666666666667,3.066666666666667,ScrollUp,ScrollDown,Green.png,3,Negative,Congruent,0,0,0,0,,,,,,,,,,,,,,,,,,,,,0,29,29,29,,,,,,,,,,,,,,,,,,,,,,,,,,,,,,,,,,,,,,,,,,,,,,,,,,,,,,,,,,,,,,,,,,,,,,,,,,,,,1.873456800977389,0.9835873999400064,325.64442679996137,None,ScrollUp,정답입니다,325.64442679996137,None,325.64442679996137,None,325.64442679996137,None,325.64442679996137,None,326.54035369993653,None,326.54035369993653,327.04028429999016,,,,,,,,,,,,,,,,109,2023-04-25_13h46.16.062,FishGame,2022.1.1,60.09077312752007,
,31,넌 음울해,5,Green,B,2.25,2.233333333333333,ScrollUp,ScrollDown,Green.png,3,Negative,Congruent,0,0,0,0,,,,,,,,,,,,,,,,,,,,,0,30,30,30,,,,,,,,,,,,,,,,,,,,,,,,,,,,,,,,,,,,,,,,,,,,,,,,,,,,,,,,,,,,,,,,,,,,,,,,,,,,,1.6805555572112403,1.145801000064239,327.64854940003715,None,ScrollUp,정답입니다,327.64854940003715,None,327.64854940003715,None,327.64854940003715,None,327.64854940003715,None,328.70453390001785,None,328.70453390001785,329.2050711000338,,,,,,,,,,,,,,,,109,2023-04-25_13h46.16.062,FishGame,2022.1.1,60.09077312752007,
,32,넌 냉소적이야,5,Orange,A,2.916666666666667,2.4,ScrollDown,ScrollUp,Orange.png,3,Negative,Incongruent,0,0,0,0,,,,,,,,,,,,,,,,,,,,,0,31,31,31,,,,,,,,,,,,,,,,,,,,,,,,,,,,,,,,,,,,,,,,,,,,,,,,,,,,,,,,,,,,,,,,,,,,,,,,,,,,,1.0648148159186046,1.2998856999911368,329.81534690002445,None,ScrollDown,정답입니다,329.81534690002445,None,329.81534690002445,None,329.81534690002445,None,329.81534690002445,None,331.0237566999858,None,331.0237566999858,331.52365190000273,,,,,,,,,,,,,,,,109,2023-04-25_13h46.16.062,FishGame,2022.1.1,60.09077312752007,
,33,나를 데려가줘,6,Green,B,0,0,ScrollDown,ScrollUp,Green.png,3,NonTarget,NonTarget,0,0,0,0,,,,,,,,,,,,,,,,,,,,,0,32,32,32,,,,,,,,,,,,,,,,,,,,,,,,,,,,,,,,,,,,,,,,,,,,,,,,,,,,,,,,,,,,,,,,,,,,,,,,,,,,,1.2407407313585281,1.0545322999823838,332.12986450002063,None,ScrollDown,정답입니다,332.12986450002063,None,332.12986450002063,None,332.12986450002063,None,332.12986450002063,None,333.0922912999522,None,333.0922912999522,333.6067750999937,,,,,,,,,,,,,,,,109,2023-04-25_13h46.16.062,FishGame,2022.1.1,60.09077312752007,
,34,넌 쾌활해,1,Orange,A,5.541666666666666,5.733333333333333,ScrollDown,ScrollUp,Orange.png,3,Positive,Congruent,0,0,0,0,,,,,,,,,,,,,,,,,,,,,0,33,33,33,,,,,,,,,,,,,,,,,,,,,,,,,,,,,,,,,,,,,,,,,,,,,,,,,,,,,,,,,,,,,,,,,,,,,,,,,,,,,1.2469135870536168,0.9631469999440014,334.2181157999439,None,ScrollDown,정답입니다,334.2181157999439,None,334.2181157999439,None,334.2181157999439,None,334.2181157999439,None,335.09010179992765,None,335.09010179992765,335.59005160001107,,,,,,,,,,,,,,,,109,2023-04-25_13h46.16.062,FishGame,2022.1.1,60.09077312752007,
,35,나를 보내줘,6,Orange,A,0,0,ScrollUp,ScrollDown,Orange.png,3,NonTarget,NonTarget,0,0,0,0,,,,,,,,,,,,,,,,,,,,,0,34,34,34,,,,,,,,,,,,,,,,,,,,,,,,,,,,,,,,,,,,,,,,,,,,,,,,,,,,,,,,,,,,,,,,,,,,,,,,,,,,,2,1.0644583000103012,336.19661809992976,None,ScrollUp,정답입니다,336.19661809992976,None,336.19661809992976,None,336.19661809992976,None,336.19661809992976,None,337.1710215000203,None,337.1710215000203,337.6710064000217,,,,,,,,,,,,,,,,109,2023-04-25_13h46.16.062,FishGame,2022.1.1,60.09077312752007,
,36,넌 명랑해,1,Green,B,5.739130434782609,5.666666666666667,ScrollUp,ScrollDown,Green.png,3,Positive,Incongruent,0,0,0,0,,,,,,,,,,,,,,,,,,,,,0,35,35,35,,,,,,,,,,,,,,,,,,,,,,,,,,,,,,,,,,,,,,,,,,,,,,,,,,,,,,,,,,,,,,,,,,,,,,,,,,,,,1.679012343287468,1.0524203999666497,338.27589579997584,None,ScrollUp,정답입니다,338.27589579997584,None,338.27589579997584,None,338.27589579997584,None,338.27589579997584,None,339.2401712000137,None,339.2401712000137,339.7401144999312,,,,,,,,,,,,,,,,109,2023-04-25_13h46.16.062,FishGame,2022.1.1,60.09077312752007,
,37,넌 멍해,4,Orange,A,2.833333333333333,3.4,ScrollDown,ScrollUp,Orange.png,3,Negative,Incongruent,0,0,0,0,,,,,,,,,,,,,,,,,,,,,0,36,36,36,,,,,,,,,,,,,,,,,,,,,,,,,,,,,,,,,,,,,,,,,,,,,,,,,,,,,,,,,,,,,,,,,,,,,,,,,,,,,1.1373456716537476,1.0487061999738216,340.3530923000071,None,ScrollDown,정답입니다,340.3530923000071,None,340.3530923000071,None,340.3530923000071,None,340.3530923000071,None,341.3068592000054,None,341.3068592000054,341.80662699998356,,,,,,,,,,,,,,,,109,2023-04-25_13h46.16.062,FishGame,2022.1.1,60.09077312752007,
,38,나를 데려가줘,6,Green,B,0,0,ScrollDown,ScrollUp,Green.png,3,NonTarget,NonTarget,0,0,0,0,,,,,,,,,,,,,,,,,,,,,0,37,37,37,,,,,,,,,,,,,,,,,,,,,,,,,,,,,,,,,,,,,,,,,,,,,,,,,,,,,,,,,,,,,,,,,,,,,,,,,,,,,1.3194444427887597,0.8999945999821648,342.41169089998584,None,ScrollDown,정답입니다,342.41169089998584,None,342.41169089998584,None,342.41169089998584,None,342.41169089998584,None,343.22335979994386,None,343.22335979994386,343.72329600004014,,,,,,,,,,,,,,,,109,2023-04-25_13h46.16.062,FishGame,2022.1.1,60.09077312752007,
,39,넌 현명해,2,Orange,A,6.541666666666666,4.533333333333333,ScrollDown,ScrollUp,Orange.png,3,Positive,Congruent,0,0,0,0,,,,,,,,,,,,,,,,,,,,,0,38,38,38,,,,,,,,,,,,,,,,,,,,,,,,,,,,,,,,,,,,,,,,,,,,,,,,,,,,,,,,,,,,,,,,,,,,,,,,,,,,,1.2608024626970291,0.9497433000942692,344.3299169000238,None,ScrollDown,정답입니다,344.3299169000238,None,344.3299169000238,None,344.3299169000238,None,344.3299169000238,None,345.1898094000062,None,345.1898094000062,345.68979610002134,,,,,,,,,,,,,,,,109,2023-04-25_13h46.16.062,FishGame,2022.1.1,60.09077312752007,
,40,넌 수줍어,3,Green,B,3.541666666666666,4.366666666666666,ScrollUp,ScrollDown,Green.png,3,Neutral,Neutral,0,0,0,0,,,,,,,,,,,,,,,,,,,,,0,39,39,39,,,,,,,,,,,,,,,,,,,,,,,,,,,,,,,,,,,,,,,,,,,,,,,,,,,,,,,,,,,,,,,,,,,,,,,,,,,,,1.589506171643734,0.812874999945052,346.29672039998695,None,ScrollUp,정답입니다,346.29672039998695,None,346.29672039998695,None,346.29672039998695,None,346.29672039998695,None,347.0232504999731,None,347.0232504999731,347.52312719996553,,,,,,,,,,,,,,,,109,2023-04-25_13h46.16.062,FishGame,2022.1.1,60.09077312752007,
,41,나를 데려가줘,6,Green,B,0,0,ScrollDown,ScrollUp,Green.png,3,NonTarget,NonTarget,0,0,0,0,,,,,,,,,,,,,,,,,,,,,0,40,40,40,,,,,,,,,,,,,,,,,,,,,,,,,,,,,,,,,,,,,,,,,,,,,,,,,,,,,,,,,,,,,,,,,,,,,,,,,,,,,1.2916666666666665,1.0976899000816047,348.12854049995076,None,ScrollDown,정답입니다,348.12854049995076,None,348.12854049995076,None,348.12854049995076,None,348.12854049995076,None,349.137442599982,None,349.137442599982,349.6374929000158,,,,,,,,,,,,,,,,109,2023-04-25_13h46.16.062,FishGame,2022.1.1,60.09077312752007,
,42,넌 성숙해,2,Green,B,5.833333333333333,4.533333333333333,ScrollUp,ScrollDown,Green.png,3,Positive,Incongruent,0,0,0,0,,,,,,,,,,,,,,,,,,,,,0,41,41,41,,,,,,,,,,,,,,,,,,,,,,,,,,,,,,,,,,,,,,,,,,,,,,,,,,,,,,,,,,,,,,,,,,,,,,,,,,,,,1.5709876542290053,0.9620378999970853,350.2453943999717,None,ScrollUp,정답입니다,350.2453943999717,None,350.2453943999717,None,350.2453943999717,None,350.2453943999717,None,351.1208065999672,None,351.1208065999672,351.6232313000364,,,,,,,,,,,,,,,,109,2023-04-25_13h46.16.062,FishGame,2022.1.1,60.09077312752007,
,1,넌 매력적이야,2,Green,B,6.125,4.666666666666667,ScrollUp,ScrollDown,Green.png,4,Positive,Incongruent,0,0,0,0,,,,,,,,,,,,,,,,,,,,,,,,,0,0,0,0,,,,,,,,,,,,,,,,,,,,,,,,,,,,,,,,384.6057086000219,386.1058497999329,386.13920420000795,387.0924206000054,387.1258452000329,388.08919209998567,388.08919209998567,None,,,,,,,,,,,,,,,,,,,,,,,,,,,,,,,,,,1.699074074625969,1.0758608999894932,389.17086429998744,None,ScrollUp,정답입니다,389.17086429998744,None,389.17086429998744,None,389.17086429998744,None,389.17086429998744,None,390.15559500001837,None,390.15559500001837,390.6555820000358,352.12403850001283,None,352.12403850001283,None,0.10277778,0.025,1,0,0,0.01640240999404341,None,382.13895449996926,None,,,109,2023-04-25_13h46.16.062,FishGame,2022.1.1,60.09077312752007,
,2,나를 보내줘,6,Orange,A,0,0,ScrollUp,ScrollDown,Orange.png,4,NonTarget,NonTarget,0,0,0,0,,,,,,,,,,,,,,,,,,,,,,,,,0,1,1,1,,,,,,,,,,,,,,,,,,,,,,,,,,,,,,,,,,,,,,,,,,,,,,,,,,,,,,,,,,,,,,,,,,,,,,,,,1.6712962985038757,1.0165511999512091,391.2625119999284,None,ScrollUp,정답입니다,391.2625119999284,None,391.2625119999284,None,391.2625119999284,None,391.2625119999284,None,392.18902369996067,None,392.18902369996067,392.6921372000361,,,,,,,,,,,,,,,,109,2023-04-25_13h46.16.062,FishGame,2022.1.1,60.09077312752007,
,3,넌 조심스러워,3,Orange,A,4.791666666666666,4.666666666666667,ScrollDown,ScrollUp,Orange.png,4,Neutral,Neutral,0,0,0,0,,,,,,,,,,,,,,,,,,,,,,,,,0,2,2,2,,,,,,,,,,,,,,,,,,,,,,,,,,,,,,,,,,,,,,,,,,,,,,,,,,,,,,,,,,,,,,,,,,,,,,,,,1.8287036965290706,0.998960500000976,393.29656409996096,None,ScrollUp,오답입니다,393.29656409996096,None,393.29656409996096,None,393.29656409996096,None,393.29656409996096,None,394.2034742999822,None,394.2034742999822,394.705987000023,,,,,,,,,,,,,,,,109,2023-04-25_13h46.16.062,FishGame,2022.1.1,60.09077312752007,
,4,넌 철학적이야,3,Green,B,4.5,4.266666666666667,ScrollUp,ScrollDown,Green.png,4,Neutral,Neutral,0,0,0,0,,,,,,,,,,,,,,,,,,,,,,,,,0,3,3,3,,,,,,,,,,,,,,,,,,,,,,,,,,,,,,,,,,,,,,,,,,,,,,,,,,,,,,,,,,,,,,,,,,,,,,,,,1.68364197264115,0.9145966999931261,395.3151096999645,None,ScrollUp,정답입니다,395.3151096999645,None,395.3151096999645,None,395.3151096999645,None,395.3151096999645,None,396.13892219995614,None,396.13892219995614,396.6557381999446,,,,,,,,,,,,,,,,109,2023-04-25_13h46.16.062,FishGame,2022.1.1,60.09077312752007,
,5,넌 쩨쩨해,5,Orange,A,2.375,2.133333333333333,ScrollDown,ScrollUp,Orange.png,4,Negative,Incongruent,0,0,0,0,,,,,,,,,,,,,,,,,,,,,,,,,0,4,4,4,,,,,,,,,,,,,,,,,,,,,,,,,,,,,,,,,,,,,,,,,,,,,,,,,,,,,,,,,,,,,,,,,,,,,,,,,1.1913580348094304,0.9813780999975279,397.24754350003786,None,ScrollDown,정답입니다,397.24754350003786,None,397.24754350003786,None,397.24754350003786,None,397.24754350003786,None,398.13871680002194,None,398.13871680002194,398.638702700031,,,,,,,,,,,,,,,,109,2023-04-25_13h46.16.062,FishGame,2022.1.1,60.09077312752007,
,6,나를 데려가줘,6,Green,B,0,0,ScrollDown,ScrollUp,Green.png,4,NonTarget,NonTarget,0,0,0,0,,,,,,,,,,,,,,,,,,,,,,,,,0,5,5,5,,,,,,,,,,,,,,,,,,,,,,,,,,,,,,,,,,,,,,,,,,,,,,,,,,,,,,,,,,,,,,,,,,,,,,,,,1.0138889054457347,1.3315123999491334,399.24333199998364,None,ScrollDown,정답입니다,399.24333199998364,None,399.24333199998364,None,399.24333199998364,None,399.24333199998364,None,400.4888845999958,None,400.4888845999958,400.98877609998453,,,,,,,,,,,,,,,,109,2023-04-25_13h46.16.062,FishGame,2022.1.1,60.09077312752007,
,7,넌 고집불통이야,5,Green,B,2.875,2,ScrollUp,ScrollDown,Green.png,4,Negative,Congruent,0,0,0,0,,,,,,,,,,,,,,,,,,,,,,,,,0,6,6,6,,,,,,,,,,,,,,,,,,,,,,,,,,,,,,,,,,,,,,,,,,,,,,,,,,,,,,,,,,,,,,,,,,,,,,,,,1.7283950646718345,1.048244799952954,401.5974129999522,None,ScrollUp,정답입니다,401.5974129999522,None,401.5974129999522,None,401.5974129999522,None,401.5974129999522,None,402.5554528000066,None,402.5554528000066,403.0553480000235,,,,,,,,,,,,,,,,109,2023-04-25_13h46.16.062,FishGame,2022.1.1,60.09077312752007,
,8,넌 무심해,4,Orange,A,2.875,3.2,ScrollDown,ScrollUp,Orange.png,4,Negative,Incongruent,0,0,0,0,,,,,,,,,,,,,,,,,,,,,,,,,0,7,7,7,,,,,,,,,,,,,,,,,,,,,,,,,,,,,,,,,,,,,,,,,,,,,,,,,,,,,,,,,,,,,,,,,,,,,,,,,1.1126543233791988,1.0814135000109673,403.66166959994007,None,ScrollDown,정답입니다,403.66166959994007,None,403.66166959994007,None,403.66166959994007,None,403.66166959994007,None,404.65523409994785,None,404.65523409994785,405.1552691999823,,,,,,,,,,,,,,,,109,2023-04-25_13h46.16.062,FishGame,2022.1.1,60.09077312752007,
,9,넌 정겨워,1,Orange,A,5.791666666666667,5.666666666666667,ScrollDown,ScrollUp,Orange.png,4,Positive,Congruent,0,0,0,0,,,,,,,,,,,,,,,,,,,,,,,,,0,8,8,8,,,,,,,,,,,,,,,,,,,,,,,,,,,,,,,,,,,,,,,,,,,,,,,,,,,,,,,,,,,,,,,,,,,,,,,,,1.1589506169160206,0.7478999000741169,405.76531779998913,None,ScrollDown,정답입니다,405.76531779998913,None,405.76531779998913,None,405.76531779998913,None,405.76531779998913,None,406.4219534000149,None,406.4219534000149,406.9219544000225,,,,,,,,,,,,,,,,109,2023-04-25_13h46.16.062,FishGame,2022.1.1,60.09077312752007,
,10,나를 데려가줘,6,Green,B,0,0,ScrollDown,ScrollUp,Green.png,4,NonTarget,NonTarget,0,0,0,0,,,,,,,,,,,,,,,,,,,,,,,,,0,9,9,9,,,,,,,,,,,,,,,,,,,,,,,,,,,,,,,,,,,,,,,,,,,,,,,,,,,,,,,,,,,,,,,,,,,,,,,,,1.1296296268701553,0.895141499931924,407.52821679995395,None,ScrollDown,정답입니다,407.52821679995395,None,407.52821679995395,None,407.52821679995395,None,407.52821679995395,None,408.33622769999783,None,408.33622769999783,408.83622950001154,,,,,,,,,,,,,,,,109,2023-04-25_13h46.16.062,FishGame,2022.1.1,60.09077312752007,
,11,넌 체제순응적이야,4,Green,B,3,3.6,ScrollUp,ScrollDown,Green.png,4,Negative,Congruent,0,0,0,0,,,,,,,,,,,,,,,,,,,,,,,,,0,10,10,10,,,,,,,,,,,,,,,,,,,,,,,,,,,,,,,,,,,,,,,,,,,,,,,,,,,,,,,,,,,,,,,,,,,,,,,,,1.5216049375012517,0.8666699999012053,409.4457038999535,None,NoResponse,무응답입니다,409.4457038999535,None,409.4457038999535,None,409.4457038999535,None,409.4457038999535,None,410.22201889997814,None,410.22201889997814,410.7219936000183,,,,,,,,,,,,,,,,109,2023-04-25_13h46.16.062,FishGame,2022.1.1,60.09077312752007,
,12,나를 보내줘,6,Orange,A,0,0,ScrollUp,ScrollDown,Orange.png,4,NonTarget,NonTarget,0,0,0,0,,,,,,,,,,,,,,,,,,,,,,,,,0,11,11,11,,,,,,,,,,,,,,,,,,,,,,,,,,,,,,,,,,,,,,,,,,,,,,,,,,,,,,,,,,,,,,,,,,,,,,,,,1.9089506218830745,1.8331274999072775,411.32947050000075,None,ScrollUp,정답입니다,411.32947050000075,None,411.32947050000075,None,411.32947050000075,None,411.32947050000075,None,413.0697981000412,None,413.0697981000412,413.57178809994366,,,,,,,,,,,,,,,,109,2023-04-25_13h46.16.062,FishGame,2022.1.1,60.09077312752007,
,13,넌 박식해,2,Orange,A,5.625,3.933333333333333,ScrollDown,ScrollUp,Orange.png,4,Positive,Congruent,0,0,0,0,,,,,,,,,,,,,,,,,,,,,,,,,0,12,12,12,,,,,,,,,,,,,,,,,,,,,,,,,,,,,,,,,,,,,,,,,,,,,,,,,,,,,,,,,,,,,,,,,,,,,,,,,1.2114197413126628,1.1646115999901667,414.18256849993486,None,ScrollDown,정답입니다,414.18256849993486,None,414.18256849993486,None,414.18256849993486,None,414.18256849993486,None,415.25512580003124,None,415.25512580003124,415.7551186999772,,,,,,,,,,,,,,,,109,2023-04-25_13h46.16.062,FishGame,2022.1.1,60.09077312752007,
,14,나를 보내줘,6,Orange,A,0,0,ScrollUp,ScrollDown,Orange.png,4,NonTarget,NonTarget,0,0,0,0,,,,,,,,,,,,,,,,,,,,,,,,,0,13,13,13,,,,,,,,,,,,,,,,,,,,,,,,,,,,,,,,,,,,,,,,,,,,,,,,,,,,,,,,,,,,,,,,,,,,,,,,,1.6157407462596893,0.8981074000475928,416.3676526999334,None,ScrollUp,정답입니다,416.3676526999334,None,416.3676526999334,None,416.3676526999334,None,416.3676526999334,None,417.1717452999437,None,417.1717452999437,417.6716949000256,,,,,,,,,,,,,,,,109,2023-04-25_13h46.16.062,FishGame,2022.1.1,60.09077312752007,
,15,넌 침착해,1,Green,B,5.458333333333333,5.566666666666666,ScrollUp,ScrollDown,Green.png,4,Positive,Incongruent,0,0,0,0,,,,,,,,,,,,,,,,,,,,,,,,,0,14,14,14,,,,,,,,,,,,,,,,,,,,,,,,,,,,,,,,,,,,,,,,,,,,,,,,,,,,,,,,,,,,,,,,,,,,,,,,,1.7407407512267432,1.048071299912408,418.2818692999426,None,ScrollUp,정답입니다,418.2818692999426,None,418.2818692999426,None,418.2818692999426,None,418.2818692999426,None,419.2383425999433,None,419.2383425999433,419.7383627999807,,,,,,,,,,,,,,,,109,2023-04-25_13h46.16.062,FishGame,2022.1.1,60.09077312752007,
,16,나를 데려가줘,6,Green,B,0,0,ScrollDown,ScrollUp,Green.png,4,NonTarget,NonTarget,0,0,0,0,,,,,,,,,,,,,,,,,,,,,,,,,0,15,15,15,,,,,,,,,,,,,,,,,,,,,,,,,,,,,,,,,,,,,,,,,,,,,,,,,,,,,,,,,,,,,,,,,,,,,,,,,1.1836419651905696,0.966756800073199,420.34852669993415,None,ScrollDown,정답입니다,420.34852669993415,None,420.34852669993415,None,420.34852669993415,None,420.34852669993415,None,421.21958659996744,None,421.21958659996744,421.7215925999917,,,,,,,,,,,,,,,,109,2023-04-25_13h46.16.062,FishGame,2022.1.1,60.09077312752007,
,17,넌 행복해,1,Orange,A,6.416666666666666,6.166666666666667,ScrollDown,ScrollUp,Orange.png,4,Positive,Congruent,0,0,0,0,,,,,,,,,,,,,,,,,,,,,,,,,0,16,16,16,,,,,,,,,,,,,,,,,,,,,,,,,,,,,,,,,,,,,,,,,,,,,,,,,,,,,,,,,,,,,,,,,,,,,,,,,1.1975308656692505,1.5665818999987096,422.3329059999669,None,ScrollDown,정답입니다,422.3329059999669,None,422.3329059999669,None,422.3329059999669,None,422.3329059999669,None,423.8048885000171,None,423.8048885000171,424.30495260003954,,,,,,,,,,,,,,,,109,2023-04-25_13h46.16.062,FishGame,2022.1.1,60.09077312752007,
,18,넌 겸손해,2,Green,B,5.791666666666667,4.766666666666667,ScrollUp,ScrollDown,Green.png,4,Positive,Incongruent,0,0,0,0,,,,,,,,,,,,,,,,,,,,,,,,,0,17,17,17,,,,,,,,,,,,,,,,,,,,,,,,,,,,,,,,,,,,,,,,,,,,,,,,,,,,,,,,,,,,,,,,,,,,,,,,,1.594135800997416,0.7792294999817386,424.9137781999307,None,ScrollUp,정답입니다,424.9137781999307,None,424.9137781999307,None,424.9137781999307,None,424.9137781999307,None,425.6027963999659,None,425.6027963999659,426.10525769996457,,,,,,,,,,,,,,,,109,2023-04-25_13h46.16.062,FishGame,2022.1.1,60.09077312752007,
,19,나를 보내줘,6,Orange,A,0,0,ScrollUp,ScrollDown,Orange.png,4,NonTarget,NonTarget,0,0,0,0,,,,,,,,,,,,,,,,,,,,,,,,,0,18,18,18,,,,,,,,,,,,,,,,,,,,,,,,,,,,,,,,,,,,,,,,,,,,,,,,,,,,,,,,,,,,,,,,,,,,,,,,,1.7253086368242898,0.9833290000678971,426.71362289995886,None,ScrollUp,정답입니다,426.71362289995886,None,426.71362289995886,None,426.71362289995886,None,426.71362289995886,None,427.6027836999856,None,427.6027836999856,428.10529810003936,,,,,,,,,,,,,,,,109,2023-04-25_13h46.16.062,FishGame,2022.1.1,60.09077312752007,
,20,넌 의심없어,3,Orange,A,4.166666666666667,4.6,ScrollDown,ScrollUp,Orange.png,4,Neutral,Neutral,0,0,0,0,,,,,,,,,,,,,,,,,,,,,,,,,0,19,19,19,,,,,,,,,,,,,,,,,,,,,,,,,,,,,,,,,,,,,,,,,,,,,,,,,,,,,,,,,,,,,,,,,,,,,,,,,1.2361111144224803,0.9116741999750957,428.71900389995426,None,ScrollDown,정답입니다,428.71900389995426,None,428.71900389995426,None,428.71900389995426,None,428.71900389995426,None,429.5361146000214,None,429.5361146000214,430.0381714999676,,,,,,,,,,,,,,,,109,2023-04-25_13h46.16.062,FishGame,2022.1.1,60.09077312752007,
,21,넌 시시해,4,Orange,A,2.666666666666667,2.966666666666667,ScrollDown,ScrollUp,Orange.png,4,Negative,Incongruent,0,0,0,0,,,,,,,,,,,,,,,,,,,,,,,,,0,20,20,20,,,,,,,,,,,,,,,,,,,,,,,,,,,,,,,,,,,,,,,,,,,,,,,,,,,,,,,,,,,,,,,,,,,,,,,,,1.1867283930381138,0.9783607000717893,430.64778999995906,None,ScrollDown,정답입니다,430.64778999995906,None,430.64778999995906,None,430.64778999995906,None,430.64778999995906,None,431.53605600004084,None,431.53605600004084,432.03858059993945,,,,,,,,,,,,,,,,109,2023-04-25_13h46.16.062,FishGame,2022.1.1,60.09077312752007,
,22,나를 데려가줘,6,Green,B,0,0,ScrollDown,ScrollUp,Green.png,4,NonTarget,NonTarget,0,0,0,0,,,,,,,,,,,,,,,,,,,,,,,,,0,21,21,21,,,,,,,,,,,,,,,,,,,,,,,,,,,,,,,,,,,,,,,,,,,,,,,,,,,,,,,,,,,,,,,,,,,,,,,,,1.4953703702582668,1.2280795000260696,432.6429538000375,None,NoResponse,무응답입니다,432.6429538000375,None,432.6429538000375,None,432.6429538000375,None,432.6429538000375,None,433.7812313999748,None,433.7812313999748,434.2862854000414,,,,,,,,,,,,,,,,109,2023-04-25_13h46.16.062,FishGame,2022.1.1,60.09077312752007,
,23,넌 무정해,5,Orange,A,2.5,2.2,ScrollDown,ScrollUp,Orange.png,4,Negative,Incongruent,0,0,0,0,,,,,,,,,,,,,,,,,,,,,,,,,0,22,22,22,,,,,,,,,,,,,,,,,,,,,,,,,,,,,,,,,,,,,,,,,,,,,,,,,,,,,,,,,,,,,,,,,,,,,,,,,1.2237654278675716,1.3124043999705464,434.89423019997776,None,ScrollDown,정답입니다,434.89423019997776,None,434.89423019997776,None,434.89423019997776,None,434.89423019997776,None,436.1190671999939,None,436.1190671999939,436.62147499993443,,,,,,,,,,,,,,,,109,2023-04-25_13h46.16.062,FishGame,2022.1.1,60.09077312752007,
,24,넌 긍정적이야,1,Green,B,6.041666666666667,6.066666666666666,ScrollUp,ScrollDown,Green.png,4,Positive,Incongruent,0,0,0,0,,,,,,,,,,,,,,,,,,,,,,,,,0,23,23,23,,,,,,,,,,,,,,,,,,,,,,,,,,,,,,,,,,,,,,,,,,,,,,,,,,,,,,,,,,,,,,,,,,,,,,,,,1.67746914178133,0.8983108000829816,437.2293927000137,None,ScrollUp,정답입니다,437.2293927000137,None,437.2293927000137,None,437.2293927000137,None,437.2293927000137,None,438.0381664999295,None,438.0381664999295,438.5380560000194,,,,,,,,,,,,,,,,109,2023-04-25_13h46.16.062,FishGame,2022.1.1,60.09077312752007,
,25,나를 보내줘,6,Orange,A,0,0,ScrollUp,ScrollDown,Orange.png,4,NonTarget,NonTarget,0,0,0,0,,,,,,,,,,,,,,,,,,,,,,,,,0,24,24,24,,,,,,,,,,,,,,,,,,,,,,,,,,,,,,,,,,,,,,,,,,,,,,,,,,,,,,,,,,,,,,,,,,,,,,,,,1.7145061641931534,1.0812045999336988,439.14473389997147,None,ScrollUp,정답입니다,439.14473389997147,None,439.14473389997147,None,439.14473389997147,None,439.14473389997147,None,440.13790929992683,None,440.13790929992683,440.6379526000237,,,,,,,,,,,,,,,,109,2023-04-25_13h46.16.062,FishGame,2022.1.1,60.09077312752007,
,26,넌 시기심이 많아,5,Green,B,2.458333333333333,2.233333333333333,ScrollUp,ScrollDown,Green.png,4,Negative,Congruent,0,0,0,0,,,,,,,,,,,,,,,,,,,,,,,,,0,25,25,25,,,,,,,,,,,,,,,,,,,,,,,,,,,,,,,,,,,,,,,,,,,,,,,,,,,,,,,,,,,,,,,,,,,,,,,,,1.6882716019948325,1.0808859000680968,441.2505674000131,None,ScrollUp,정답입니다,441.2505674000131,None,441.2505674000131,None,441.2505674000131,None,441.2505674000131,None,442.2355245000217,None,442.2355245000217,442.73553760000505,,,,,,,,,,,,,,,,109,2023-04-25_13h46.16.062,FishGame,2022.1.1,60.09077312752007,
,27,넌 탁월해,2,Orange,A,5.708333333333334,4.5,ScrollDown,ScrollUp,Orange.png,4,Positive,Congruent,0,0,0,0,,,,,,,,,,,,,,,,,,,,,,,,,0,26,26,26,,,,,,,,,,,,,,,,,,,,,,,,,,,,,,,,,,,,,,,,,,,,,,,,,,,,,,,,,,,,,,,,,,,,,,,,,1.3070987686514854,0.7839032999472693,443.34959160001017,None,ScrollDown,정답입니다,443.34959160001017,None,443.34959160001017,None,443.34959160001017,None,443.34959160001017,None,444.03796819993295,None,444.03796819993295,444.5379624000052,,,,,,,,,,,,,,,,109,2023-04-25_13h46.16.062,FishGame,2022.1.1,60.09077312752007,
,28,나를 데려가줘,6,Green,B,0,0,ScrollDown,ScrollUp,Green.png,4,NonTarget,NonTarget,0,0,0,0,,,,,,,,,,,,,,,,,,,,,,,,,0,27,27,27,,,,,,,,,,,,,,,,,,,,,,,,,,,,,,,,,,,,,,,,,,,,,,,,,,,,,,,,,,,,,,,,,,,,,,,,,1.2299382835626602,1.231519499910064,445.14353839994874,None,ScrollDown,정답입니다,445.14353839994874,None,445.14353839994874,None,445.14353839994874,None,445.14353839994874,None,446.28801609994844,None,446.28801609994844,446.78833639994264,,,,,,,,,,,,,,,,109,2023-04-25_13h46.16.062,FishGame,2022.1.1,60.09077312752007,
,29,넌 조용해,3,Green,B,4.333333333333333,4.166666666666667,ScrollUp,ScrollDown,Green.png,4,Neutral,Neutral,0,0,0,0,,,,,,,,,,,,,,,,,,,,,,,,,0,28,28,28,,,,,,,,,,,,,,,,,,,,,,,,,,,,,,,,,,,,,,,,,,,,,,,,,,,,,,,,,,,,,,,,,,,,,,,,,1.5679012325902781,0.812699000001885,447.39514020003844,None,ScrollUp,정답입니다,447.39514020003844,None,447.39514020003844,None,447.39514020003844,None,447.39514020003844,None,448.1190840000054,None,448.1190840000054,448.62112459994387,,,,,,,,,,,,,,,,109,2023-04-25_13h46.16.062,FishGame,2022.1.1,60.09077312752007,
,30,넌 다정해,1,Orange,A,5.833333333333334,5.7,ScrollDown,ScrollUp,Orange.png,4,Positive,Congruent,0,0,0,0,,,,,,,,,,,,,,,,,,,,,,,,,0,29,29,29,,,,,,,,,,,,,,,,,,,,,,,,,,,,,,,,,,,,,,,,,,,,,,,,,,,,,,,,,,,,,,,,,,,,,,,,,1.28086419403553,0.7593131000176072,449.23387530003674,None,ScrollDown,정답입니다,449.23387530003674,None,449.23387530003674,None,449.23387530003674,None,449.23387530003674,None,449.9044638000196,None,449.9044638000196,450.40437460003886,,,,,,,,,,,,,,,,109,2023-04-25_13h46.16.062,FishGame,2022.1.1,60.09077312752007,
,31,넌 능력있어,2,Green,B,6.166666666666666,4.6,ScrollUp,ScrollDown,Green.png,4,Positive,Incongruent,0,0,0,0,,,,,,,,,,,,,,,,,,,,,,,,,0,30,30,30,,,,,,,,,,,,,,,,,,,,,,,,,,,,,,,,,,,,,,,,,,,,,,,,,,,,,,,,,,,,,,,,,,,,,,,,,1.5802469129363694,0.7959958999417722,451.00935199996457,None,ScrollUp,정답입니다,451.00935199996457,None,451.00935199996457,None,451.00935199996457,None,451.00935199996457,None,451.72107119997963,None,451.72107119997963,452.22105039993767,,,,,,,,,,,,,,,,109,2023-04-25_13h46.16.062,FishGame,2022.1.1,60.09077312752007,
,32,넌 불쾌해,5,Orange,A,2.125,1.933333333333333,ScrollDown,ScrollUp,Orange.png,4,Negative,Incongruent,0,0,0,0,,,,,,,,,,,,,,,,,,,,,,,,,0,31,31,31,,,,,,,,,,,,,,,,,,,,,,,,,,,,,,,,,,,,,,,,,,,,,,,,,,,,,,,,,,,,,,,,,,,,,,,,,1.28703702489535,0.7842373000457883,452.8280208000215,None,ScrollDown,정답입니다,452.8280208000215,None,452.8280208000215,None,452.8280208000215,None,452.8280208000215,None,453.52900260000024,None,453.52900260000024,454.03781549993437,,,,,,,,,,,,,,,,109,2023-04-25_13h46.16.062,FishGame,2022.1.1,60.09077312752007,
,33,나를 데려가줘,6,Green,B,0,0,ScrollDown,ScrollUp,Green.png,4,NonTarget,NonTarget,0,0,0,0,,,,,,,,,,,,,,,,,,,,,,,,,0,32,32,32,,,,,,,,,,,,,,,,,,,,,,,,,,,,,,,,,,,,,,,,,,,,,,,,,,,,,,,,,,,,,,,,,,,,,,,,,1.2438271592060726,0.9815301999915391,454.6420516000362,None,ScrollDown,정답입니다,454.6420516000362,None,454.6420516000362,None,454.6420516000362,None,454.6420516000362,None,455.5376376999775,None,455.5376376999775,456.03757289994974,,,,,,,,,,,,,,,,109,2023-04-25_13h46.16.062,FishGame,2022.1.1,60.09077312752007,
,34,넌 유순해,3,Orange,A,4.458333333333333,5,ScrollDown,ScrollUp,Orange.png,4,Neutral,Neutral,0,0,0,0,,,,,,,,,,,,,,,,,,,,,,,,,0,33,33,33,,,,,,,,,,,,,,,,,,,,,,,,,,,,,,,,,,,,,,,,,,,,,,,,,,,,,,,,,,,,,,,,,,,,,,,,,1.28086419403553,0.7667639000574127,456.64433399995323,None,ScrollDown,정답입니다,456.64433399995323,None,456.64433399995323,None,456.64433399995323,None,456.64433399995323,None,457.3189229000127,None,457.3189229000127,457.8209356999723,,,,,,,,,,,,,,,,109,2023-04-25_13h46.16.062,FishGame,2022.1.1,60.09077312752007,
,35,넌 근심스러워,4,Green,B,2.708333333333333,3.133333333333333,ScrollUp,ScrollDown,Green.png,4,Negative,Congruent,0,0,0,0,,,,,,,,,,,,,,,,,,,,,,,,,0,34,34,34,,,,,,,,,,,,,,,,,,,,,,,,,,,,,,,,,,,,,,,,,,,,,,,,,,,,,,,,,,,,,,,,,,,,,,,,,1.532407408580184,0.8314733000006527,458.4335444000317,None,NoResponse,무응답입니다,458.4335444000317,None,458.4335444000317,None,458.4335444000317,None,458.4335444000317,None,459.16909069998655,None,459.16909069998655,459.67080319998786,,,,,,,,,,,,,,,,109,2023-04-25_13h46.16.062,FishGame,2022.1.1,60.09077312752007,
,36,넌 세련되었어,2,Orange,A,5.5,4.6,ScrollDown,ScrollUp,Orange.png,4,Positive,Congruent,0,0,0,0,,,,,,,,,,,,,,,,,,,,,,,,,0,35,35,35,,,,,,,,,,,,,,,,,,,,,,,,,,,,,,,,,,,,,,,,,,,,,,,,,,,,,,,,,,,,,,,,,,,,,,,,,1.2577160596847534,0.7961349999532104,460.2841499999631,None,ScrollDown,정답입니다,460.2841499999631,None,460.2841499999631,None,460.2841499999631,None,460.2841499999631,None,460.9877503999742,None,460.9877503999742,461.4874993999256,,,,,,,,,,,,,,,,109,2023-04-25_13h46.16.062,FishGame,2022.1.1,60.09077312752007,
,37,나를 보내줘,6,Orange,A,0,0,ScrollUp,ScrollDown,Orange.png,4,NonTarget,NonTarget,0,0,0,0,,,,,,,,,,,,,,,,,,,,,,,,,0,36,36,36,,,,,,,,,,,,,,,,,,,,,,,,,,,,,,,,,,,,,,,,,,,,,,,,,,,,,,,,,,,,,,,,,,,,,,,,,1.8626543283462524,1.1145830999594182,462.0939992000349,None,ScrollUp,정답입니다,462.0939992000349,None,462.0939992000349,None,462.0939992000349,None,462.0939992000349,None,463.11849010002334,None,463.11849010002334,463.6184653999517,,,,,,,,,,,,,,,,109,2023-04-25_13h46.16.062,FishGame,2022.1.1,60.09077312752007,
,38,넌 확고해,3,Green,B,4.708333333333334,4.566666666666666,ScrollUp,ScrollDown,Green.png,4,Neutral,Neutral,0,0,0,0,,,,,,,,,,,,,,,,,,,,,,,,,0,37,37,37,,,,,,,,,,,,,,,,,,,,,,,,,,,,,,,,,,,,,,,,,,,,,,,,,,,,,,,,,,,,,,,,,,,,,,,,,2,1.0359753998927772,464.225335599971,None,ScrollUp,정답입니다,464.225335599971,None,464.225335599971,None,464.225335599971,None,464.225335599971,None,465.17084309994243,None,465.17084309994243,465.67086760001257,,,,,,,,,,,,,,,,109,2023-04-25_13h46.16.062,FishGame,2022.1.1,60.09077312752007,
,39,넌 이해심이 많아,1,Green,B,6.041666666666668,5.533333333333333,ScrollUp,ScrollDown,Green.png,4,Positive,Incongruent,0,0,0,0,,,,,,,,,,,,,,,,,,,,,,,,,0,38,38,38,,,,,,,,,,,,,,,,,,,,,,,,,,,,,,,,,,,,,,,,,,,,,,,,,,,,,,,,,,,,,,,,,,,,,,,,,1.8966049353281658,1.028391300002113,466.27651550003793,None,ScrollUp,정답입니다,466.27651550003793,None,466.27651550003793,None,466.27651550003793,None,466.27651550003793,None,467.2139461999759,None,467.2139461999759,467.72066809993703,,,,,,,,,,,,,,,,109,2023-04-25_13h46.16.062,FishGame,2022.1.1,60.09077312752007,
,40,나를 보내줘,6,Orange,A,0,0,ScrollUp,ScrollDown,Orange.png,4,NonTarget,NonTarget,0,0,0,0,,,,,,,,,,,,,,,,,,,,,,,,,0,39,39,39,,,,,,,,,,,,,,,,,,,,,,,,,,,,,,,,,,,,,,,,,,,,,,,,,,,,,,,,,,,,,,,,,,,,,,,,,2,1.2482237999793142,468.32699480000883,None,ScrollUp,정답입니다,468.32699480000883,None,468.32699480000883,None,468.32699480000883,None,468.32699480000883,None,469.48733229993377,None,469.48733229993377,469.9873279000167,,,,,,,,,,,,,,,,109,2023-04-25_13h46.16.062,FishGame,2022.1.1,60.09077312752007,
,41,넌 거칠어,4,Orange,A,2.625,3.033333333333333,ScrollDown,ScrollUp,Orange.png,4,Negative,Incongruent,0,0,0,0,,,,,,,,,,,,,,,,,,,,,,,,,0,40,40,40,,,,,,,,,,,,,,,,,,,,,,,,,,,,,,,,,,,,,,,,,,,,,,,,,,,,,,,,,,,,,,,,,,,,,,,,,1.121913582086563,0.9092816000338644,470.60638270003255,None,ScrollDown,정답입니다,470.60638270003255,None,470.60638270003255,None,470.60638270003255,None,470.60638270003255,None,471.4182647999842,None,471.4182647999842,471.9184941999847,,,,,,,,,,,,,,,,109,2023-04-25_13h46.16.062,FishGame,2022.1.1,60.09077312752007,
,42,넌 변덕맞아,5,Green,B,2.75,2.166666666666667,ScrollUp,ScrollDown,Green.png,4,Negative,Congruent,0,0,0,0,,,,,,,,,,,,,,,,,,,,,,,,,0,41,41,41,,,,,,,,,,,,,,,,,,,,,,,,,,,,,,,,,,,,,,,,,,,,,,,,,,,,,,,,,,,,,,,,,,,,,,,,,1.8271604826052983,1.3523539999732748,472.5252881000051,None,ScrollUp,정답입니다,472.5252881000051,None,472.5252881000051,None,472.5252881000051,None,472.5252881000051,None,473.787432000041,None,473.787432000041,474.28737339994404,,,,,,,,,,,,,,,,109,2023-04-25_13h46.16.062,FishGame,2022.1.1,60.09077312752007,
,43,나를 데려가줘,6,Green,B,0,0,ScrollDown,ScrollUp,Green.png,4,NonTarget,NonTarget,0,0,0,0,,,,,,,,,,,,,,,,,,,,,,,,,0,42,42,42,,,,,,,,,,,,,,,,,,,,,,,,,,,,,,,,,,,,,,,,,,,,,,,,,,,,,,,,,,,,,,,,,,,,,,,,,1.0910493781169255,1.464845999958925,474.8923090000171,None,ScrollDown,정답입니다,474.8923090000171,None,474.8923090000171,None,474.8923090000171,None,474.8923090000171,None,476.27064589993097,None,476.27064589993097,476.7738738999469,,,,,,,,,,,,,,,,109,2023-04-25_13h46.16.062,FishGame,2022.1.1,60.09077312752007,
,44,넌 외로워,4,Green,B,2.833333333333333,3.3,ScrollUp,ScrollDown,Green.png,4,Negative,Congruent,0,0,0,0,,,,,,,,,,,,,,,,,,,,,,,,,0,43,43,43,,,,,,,,,,,,,,,,,,,,,,,,,,,,,,,,,,,,,,,,,,,,,,,,,,,,,,,,,,,,,,,,,,,,,,,,,2,1.1167645999230444,477.3780918000266,None,ScrollUp,정답입니다,477.3780918000266,None,477.3780918000266,None,477.3780918000266,None,477.3780918000266,None,478.4037932000356,None,478.4037932000356,478.9069373999955,,,,,,,,,,,,,,,,109,2023-04-25_13h46.16.062,FishGame,2022.1.1,60.09077312752007,
,1,넌 불평스러워,5,Orange,A,2.25,2.066666666666667,ScrollDown,ScrollUp,Orange.png,5,Negative,Incongruent,0,0,0,0,,,,,,,,,,,,,,,,,,,,,,,,,,,,,0,0,0,0,,,,,,,,,,,,,,,,,,,,,,,,,,,,511.1697787999874,512.669982100022,512.7032932000002,513.6532764999429,513.7032680999255,514.6532774999505,514.6532774999505,None,,,,,,,,,,,,,,,,,,,,,,,,,,,,,,,,,,1.2422839452823002,1.5717987000243738,515.7378162000095,None,ScrollDown,정답입니다,515.7378162000095,None,515.7378162000095,None,515.7378162000095,None,515.7378162000095,None,517.2174862000393,None,517.2174862000393,517.7196233000141,479.4037516999524,None,479.4037516999524,None,0.24259259,-0.15462963,1,0,0,0.016259009949862957,None,509.40301519993227,None,,,109,2023-04-25_13h46.16.062,FishGame,2022.1.1,60.09077312752007,
,2,나를 보내줘,6,Orange,A,0,0,ScrollUp,ScrollDown,Orange.png,5,NonTarget,NonTarget,0,0,0,0,,,,,,,,,,,,,,,,,,,,,,,,,,,,,0,1,1,1,,,,,,,,,,,,,,,,,,,,,,,,,,,,,,,,,,,,,,,,,,,,,,,,,,,,,,,,,,,,,,,,,,,,,1.8024691343307495,0.9810568999964744,518.3263665999984,None,ScrollUp,정답입니다,518.3263665999984,None,518.3263665999984,None,518.3263665999984,None,518.3263665999984,None,519.2176165999845,None,519.2176165999845,519.7196268000407,,,,,,,,,,,,,,,,109,2023-04-25_13h46.16.062,FishGame,2022.1.1,60.09077312752007,
,3,넌 다재다능해,2,Green,B,6.208333333333333,4.5,ScrollUp,ScrollDown,Green.png,5,Positive,Incongruent,0,0,0,0,,,,,,,,,,,,,,,,,,,,,,,,,,,,,0,2,2,2,,,,,,,,,,,,,,,,,,,,,,,,,,,,,,,,,,,,,,,,,,,,,,,,,,,,,,,,,,,,,,,,,,,,,1.6574074104428291,0.9815711999544874,520.3246182999574,None,ScrollUp,정답입니다,520.3246182999574,None,520.3246182999574,None,520.3246182999574,None,520.3246182999574,None,521.2197130999994,None,521.2197130999994,521.7196625999641,,,,,,,,,,,,,,,,109,2023-04-25_13h46.16.062,FishGame,2022.1.1,60.09077312752007,
,4,넌 과감해,3,Orange,A,4.833333333333334,4.6,ScrollDown,ScrollUp,Orange.png,5,Neutral,Neutral,0,0,0,0,,,,,,,,,,,,,,,,,,,,,,,,,,,,,0,3,3,3,,,,,,,,,,,,,,,,,,,,,,,,,,,,,,,,,,,,,,,,,,,,,,,,,,,,,,,,,,,,,,,,,,,,,1.276234577099482,0.7295930999098346,522.3321771000046,None,ScrollDown,정답입니다,522.3321771000046,None,522.3321771000046,None,522.3321771000046,None,522.3321771000046,None,522.969610500033,None,522.969610500033,523.4695688999491,,,,,,,,,,,,,,,,109,2023-04-25_13h46.16.062,FishGame,2022.1.1,60.09077312752007,
,5,넌 고분고분해,3,Green,B,3.75,4.033333333333333,ScrollUp,ScrollDown,Green.png,5,Neutral,Neutral,0,0,0,0,,,,,,,,,,,,,,,,,,,,,,,,,,,,,0,4,4,4,,,,,,,,,,,,,,,,,,,,,,,,,,,,,,,,,,,,,,,,,,,,,,,,,,,,,,,,,,,,,,,,,,,,,1.6157407462596893,0.7266640999587253,524.0785057999892,None,ScrollUp,정답입니다,524.0785057999892,None,524.0785057999892,None,524.0785057999892,None,524.0785057999892,None,524.7126992000267,None,524.7126992000267,525.2171746999957,,,,,,,,,,,,,,,,109,2023-04-25_13h46.16.062,FishGame,2022.1.1,60.09077312752007,
,6,나를 보내줘,6,Orange,A,0,0,ScrollUp,ScrollDown,Orange.png,5,NonTarget,NonTarget,0,0,0,0,,,,,,,,,,,,,,,,,,,,,,,,,,,,,0,5,5,5,,,,,,,,,,,,,,,,,,,,,,,,,,,,,,,,,,,,,,,,,,,,,,,,,,,,,,,,,,,,,,,,,,,,,2,0.916784800007008,525.8217964000069,None,ScrollUp,정답입니다,525.8217964000069,None,525.8217964000069,None,525.8217964000069,None,525.8217964000069,None,526.650690899929,None,526.650690899929,527.1505470999982,,,,,,,,,,,,,,,,109,2023-04-25_13h46.16.062,FishGame,2022.1.1,60.09077312752007,
,7,넌 잘 잊어,4,Orange,A,3,3.7,ScrollDown,ScrollUp,Orange.png,5,Negative,Incongruent,0,0,0,0,,,,,,,,,,,,,,,,,,,,,,,,,,,,,0,6,6,6,,,,,,,,,,,,,,,,,,,,,,,,,,,,,,,,,,,,,,,,,,,,,,,,,,,,,,,,,,,,,,,,,,,,,1.1790123482545216,0.7812176999868825,527.7644922999898,None,ScrollDown,정답입니다,527.7644922999898,None,527.7644922999898,None,527.7644922999898,None,527.7644922999898,None,528.4508631000062,None,528.4508631000062,528.9530546999304,,,,,,,,,,,,,,,,109,2023-04-25_13h46.16.062,FishGame,2022.1.1,60.09077312752007,
,8,넌 탐구심이없어,4,Green,B,2.833333333333333,3.066666666666667,ScrollUp,ScrollDown,Green.png,5,Negative,Congruent,0,0,0,0,,,,,,,,,,,,,,,,,,,,,,,,,,,,,0,7,7,7,,,,,,,,,,,,,,,,,,,,,,,,,,,,,,,,,,,,,,,,,,,,,,,,,,,,,,,,,,,,,,,,,,,,,1.5833333345750966,0.6604289999231696,529.5645937999943,None,ScrollUp,정답입니다,529.5645937999943,None,529.5645937999943,None,529.5645937999943,None,529.5645937999943,None,530.1341478000395,None,530.1341478000395,530.636067399988,,,,,,,,,,,,,,,,109,2023-04-25_13h46.16.062,FishGame,2022.1.1,60.09077312752007,
,9,나를 데려가줘,6,Green,B,0,0,ScrollDown,ScrollUp,Green.png,5,NonTarget,NonTarget,0,0,0,0,,,,,,,,,,,,,,,,,,,,,,,,,,,,,0,8,8,8,,,,,,,,,,,,,,,,,,,,,,,,,,,,,,,,,,,,,,,,,,,,,,,,,,,,,,,,,,,,,,,,,,,,,1.1111111094554265,1.131447400082834,531.2408419999992,None,ScrollDown,정답입니다,531.2408419999992,None,531.2408419999992,None,531.2408419999992,None,531.2408419999992,None,532.2862956000026,None,532.2862956000026,532.7859823999461,,,,,,,,,,,,,,,,109,2023-04-25_13h46.16.062,FishGame,2022.1.1,60.09077312752007,
,10,넌 참되어,2,Orange,A,6.041666666666664,4.733333333333333,ScrollDown,ScrollUp,Orange.png,5,Positive,Congruent,0,0,0,0,,,,,,,,,,,,,,,,,,,,,,,,,,,,,0,9,9,9,,,,,,,,,,,,,,,,,,,,,,,,,,,,,,,,,,,,,,,,,,,,,,,,,,,,,,,,,,,,,,,,,,,,,1.1527777860562007,1.0499130999669433,533.3957409999566,None,ScrollDown,정답입니다,533.3957409999566,None,533.3957409999566,None,533.3957409999566,None,533.3957409999566,None,534.3526662000222,None,534.3526662000222,534.8526756999781,,,,,,,,,,,,,,,,109,2023-04-25_13h46.16.062,FishGame,2022.1.1,60.09077312752007,
,11,넌 생기있어,1,Green,B,5.875,5.633333333333334,ScrollUp,ScrollDown,Green.png,5,Positive,Incongruent,0,0,0,0,,,,,,,,,,,,,,,,,,,,,,,,,,,,,0,10,10,10,,,,,,,,,,,,,,,,,,,,,,,,,,,,,,,,,,,,,,,,,,,,,,,,,,,,,,,,,,,,,,,,,,,,,1.6620370397965112,0.7476385999470949,535.4623202999355,None,ScrollUp,정답입니다,535.4623202999355,None,535.4623202999355,None,535.4623202999355,None,535.4623202999355,None,536.1169694999699,None,536.1169694999699,536.617037900025,,,,,,,,,,,,,,,,109,2023-04-25_13h46.16.062,FishGame,2022.1.1,60.09077312752007,
,12,넌 비사교적이야,4,Green,B,2.875,2.9,ScrollUp,ScrollDown,Green.png,5,Negative,Congruent,0,0,0,0,,,,,,,,,,,,,,,,,,,,,,,,,,,,,0,11,11,11,,,,,,,,,,,,,,,,,,,,,,,,,,,,,,,,,,,,,,,,,,,,,,,,,,,,,,,,,,,,,,,,,,,,,2,1.3171059000305831,537.2201638999395,None,ScrollUp,정답입니다,537.2201638999395,None,537.2201638999395,None,537.2201638999395,None,537.2201638999395,None,538.4527371999575,None,538.4527371999575,538.95271089999,,,,,,,,,,,,,,,,109,2023-04-25_13h46.16.062,FishGame,2022.1.1,60.09077312752007,
,13,나를 데려가줘,6,Green,B,0,0,ScrollDown,ScrollUp,Green.png,5,NonTarget,NonTarget,0,0,0,0,,,,,,,,,,,,,,,,,,,,,,,,,,,,,0,12,12,12,,,,,,,,,,,,,,,,,,,,,,,,,,,,,,,,,,,,,,,,,,,,,,,,,,,,,,,,,,,,,,,,,,,,,1.248456800977389,0.9336708000628278,539.5583466000389,None,ScrollDown,정답입니다,539.5583466000389,None,539.5583466000389,None,539.5583466000389,None,539.5583466000389,None,540.4027249999344,None,540.4027249999344,540.9058028999716,,,,,,,,,,,,,,,,109,2023-04-25_13h46.16.062,FishGame,2022.1.1,60.09077312752007,
,14,넌 고독해,4,Orange,A,2.916666666666667,3.233333333333333,ScrollDown,ScrollUp,Orange.png,5,Negative,Incongruent,0,0,0,0,,,,,,,,,,,,,,,,,,,,,,,,,,,,,0,13,13,13,,,,,,,,,,,,,,,,,,,,,,,,,,,,,,,,,,,,,,,,,,,,,,,,,,,,,,,,,,,,,,,,,,,,,1.1882716069618862,0.8317093000514433,541.5095309999306,None,ScrollDown,정답입니다,541.5095309999306,None,541.5095309999306,None,541.5095309999306,None,541.5095309999306,None,542.2526748999953,None,542.2526748999953,542.7503062000033,,,,,,,,,,,,,,,,109,2023-04-25_13h46.16.062,FishGame,2022.1.1,60.09077312752007,
,15,넌 신경질적이야,5,Green,B,2.375,2.233333333333333,ScrollUp,ScrollDown,Green.png,5,Negative,Congruent,0,0,0,0,,,,,,,,,,,,,,,,,,,,,,,,,,,,,0,14,14,14,,,,,,,,,,,,,,,,,,,,,,,,,,,,,,,,,,,,,,,,,,,,,,,,,,,,,,,,,,,,,,,,,,,,,1.9891975224018097,0.842834800016135,543.3766133999452,None,ScrollUp,정답입니다,543.3766133999452,None,543.3766133999452,None,543.3766133999452,None,543.3766133999452,None,544.1167950000381,None,544.1167950000381,544.6168367000064,,,,,,,,,,,,,,,,109,2023-04-25_13h46.16.062,FishGame,2022.1.1,60.09077312752007,
,16,넌 똑똑해,2,Green,B,5.666666666666667,3.966666666666667,ScrollUp,ScrollDown,Green.png,5,Positive,Incongruent,0,0,0,0,,,,,,,,,,,,,,,,,,,,,,,,,,,,,0,15,15,15,,,,,,,,,,,,,,,,,,,,,,,,,,,,,,,,,,,,,,,,,,,,,,,,,,,,,,,,,,,,,,,,,,,,,1.9475308458010356,0.8981635000091046,545.2221763000125,None,ScrollUp,정답입니다,545.2221763000125,None,545.2221763000125,None,545.2221763000125,None,545.2221763000125,None,546.0335040999344,None,546.0335040999344,546.535929900012,,,,,,,,,,,,,,,,109,2023-04-25_13h46.16.062,FishGame,2022.1.1,60.09077312752007,
,17,나를 보내줘,6,Orange,A,0,0,ScrollUp,ScrollDown,Orange.png,5,NonTarget,NonTarget,0,0,0,0,,,,,,,,,,,,,,,,,,,,,,,,,,,,,0,16,16,16,,,,,,,,,,,,,,,,,,,,,,,,,,,,,,,,,,,,,,,,,,,,,,,,,,,,,,,,,,,,,,,,,,,,,1.8919753183921177,1.3315106999361888,547.1427431999473,None,ScrollUp,정답입니다,547.1427431999473,None,547.1427431999473,None,547.1427431999473,None,547.1427431999473,None,548.3859483000124,None,548.3859483000124,548.8856623999309,,,,,,,,,,,,,,,,109,2023-04-25_13h46.16.062,FishGame,2022.1.1,60.09077312752007,
,18,넌 협조적이야,1,Orange,A,5.625,5.666666666666667,ScrollDown,ScrollUp,Orange.png,5,Positive,Congruent,0,0,0,0,,,,,,,,,,,,,,,,,,,,,,,,,,,,,0,17,17,17,,,,,,,,,,,,,,,,,,,,,,,,,,,,,,,,,,,,,,,,,,,,,,,,,,,,,,,,,,,,,,,,,,,,,1.1388888855775197,0.8665800000308082,549.4957453999668,None,ScrollDown,정답입니다,549.4957453999668,None,549.4957453999668,None,549.4957453999668,None,549.4957453999668,None,550.2690134999575,None,550.2690134999575,550.7690322999842,,,,,,,,,,,,,,,,109,2023-04-25_13h46.16.062,FishGame,2022.1.1,60.09077312752007,
,19,나를 데려가줘,6,Green,B,0,0,ScrollDown,ScrollUp,Green.png,5,NonTarget,NonTarget,0,0,0,0,,,,,,,,,,,,,,,,,,,,,,,,,,,,,0,18,18,18,,,,,,,,,,,,,,,,,,,,,,,,,,,,,,,,,,,,,,,,,,,,,,,,,,,,,,,,,,,,,,,,,,,,,1.1311728407939274,1.1667906999355182,551.3842654000036,None,ScrollDown,정답입니다,551.3842654000036,None,551.3842654000036,None,551.3842654000036,None,551.3842654000036,None,552.4502280999441,None,552.4502280999441,552.9522411000216,,,,,,,,,,,,,,,,109,2023-04-25_13h46.16.062,FishGame,2022.1.1,60.09077312752007,
,20,넌 몰인정해,5,Green,B,2.541666666666667,2.066666666666667,ScrollUp,ScrollDown,Green.png,5,Negative,Congruent,0,0,0,0,,,,,,,,,,,,,,,,,,,,,,,,,,,,,0,19,19,19,,,,,,,,,,,,,,,,,,,,,,,,,,,,,,,,,,,,,,,,,,,,,,,,,,,,,,,,,,,,,,,,,,,,,1.9089506218830745,0.9978077000705525,553.5658057000255,None,ScrollUp,정답입니다,553.5658057000255,None,553.5658057000255,None,553.5658057000255,None,553.5658057000255,None,554.4689870999428,None,554.4689870999428,554.968943899963,,,,,,,,,,,,,,,,109,2023-04-25_13h46.16.062,FishGame,2022.1.1,60.09077312752007,
,21,나를 데려가줘,6,Green,B,0,0,ScrollDown,ScrollUp,Green.png,5,NonTarget,NonTarget,0,0,0,0,,,,,,,,,,,,,,,,,,,,,,,,,,,,,0,20,20,20,,,,,,,,,,,,,,,,,,,,,,,,,,,,,,,,,,,,,,,,,,,,,,,,,,,,,,,,,,,,,,,,,,,,,1.1311728407939274,0.9332960000028834,555.5743121999549,None,ScrollDown,정답입니다,555.5743121999549,None,555.5743121999549,None,555.5743121999549,None,555.5743121999549,None,556.4188550999388,None,556.4188550999388,556.9188382999273,,,,,,,,,,,,,,,,109,2023-04-25_13h46.16.062,FishGame,2022.1.1,60.09077312752007,
