name,TrialNum,Word,WordCategory,FishType,WordList,WordValence,WordReputation,CorrectResp,IncorrectResp,FishTypeFile,Round,WordType,Condition,LoopforOrange.thisRepN,LoopforOrange.thisTrialN,LoopforOrange.thisN,LoopforOrange.thisIndex,LoopForGreen.thisRepN,LoopForGreen.thisTrialN,LoopForGreen.thisN,LoopForGreen.thisIndex,GreenInstLoop.thisRepN,GreenInstLoop.thisTrialN,GreenInstLoop.thisN,GreenInstLoop.thisIndex,GreenPrac.thisRepN,GreenPrac.thisTrialN,GreenPrac.thisN,GreenPrac.thisIndex,trials_2.thisRepN,trials_2.thisTrialN,trials_2.thisN,trials_2.thisIndex,GreenRound1.thisRepN,GreenRound1.thisTrialN,GreenRound1.thisN,GreenRound1.thisIndex,GreenRound2.thisRepN,GreenRound2.thisTrialN,GreenRound2.thisN,GreenRound2.thisIndex,GreenRound3.thisRepN,GreenRound3.thisTrialN,GreenRound3.thisN,GreenRound3.thisIndex,GreenRound4.thisRepN,GreenRound4.thisTrialN,GreenRound4.thisN,GreenRound4.thisIndex,GreenRound5.thisRepN,GreenRound5.thisTrialN,GreenRound5.thisN,GreenRound5.thisIndex,text_2.started,text_2.stopped,text_3.started,text_3.stopped,key_resp.keys,key_resp.rt,key_resp.started,key_resp.stopped,PassI.started,PassI.stopped,PassInst.keys,PassInst.rt,PassInst.started,PassInst.stopped,mouse_2.x,mouse_2.y,mouse_2.leftButton,mouse_2.midButton,mouse_2.rightButton,mouse_2.started,mouse_2.stopped,image.started,image.stopped,text_5.started,text_5.stopped,text_6.started,text_6.stopped,text_7.started,text_7.stopped,text_8.started,text_8.stopped,slider_3.response,slider_3.rt,slider_3.started,slider_3.stopped,Response_3,Feedback_3,BackGround_3.started,BackGround_3.stopped,Fish_3.started,Fish_3.stopped,WordBox_3.started,WordBox_3.stopped,Words_3.started,Words_3.stopped,BackGround_Feedback_3.started,BackGround_Feedback_3.stopped,Feedbacks_3.started,Feedbacks_3.stopped,Continue_or_not_2.keys,Continue_or_not_2.rt,Continue_or_not_2.started,Continue_or_not_2.stopped,image_4.started,image_4.stopped,mouse_3.x,mouse_3.y,mouse_3.leftButton,mouse_3.midButton,mouse_3.rightButton,mouse_3.started,mouse_3.stopped,startmain.started,startmain.stopped,slider_4.response,slider_4.rt,slider_4.started,slider_4.stopped,Response_4,Feedback_4,BackGround_4.started,BackGround_4.stopped,Fish_4.started,Fish_4.stopped,WordBox_4.started,WordBox_4.stopped,Words_4.started,Words_4.stopped,BackGround_Feedback_4.started,BackGround_Feedback_4.stopped,Feedbacks_4.started,Feedbacks_4.stopped,text.started,text.stopped,break_interval.started,break_interval.stopped,mouse.x,mouse.y,mouse.leftButton,mouse.midButton,mouse.rightButton,mouse.started,mouse.stopped,stratnextround.started,stratnextround.stopped,endgame.started,endgame.stopped,participant,date,expName,psychopyVersion,frameRate,
,,,,,,,,,,,,,,,,,,,,,,,,,,,,,,,,,,,,,,,,,,,,,,,,,,,,,,17.670030000001134,None,17.670030000001134,None,space,1.2987155000009807,18.15530320000107,None,,,,,,,,,,,,,,,,,,,,,,,,,,,,,,,,,,,,,,,,,,,,,,,,,,,,,,,,,,,,,,,,,,,,,,,,,,,,,,,,,,,,,,,,,,110,2023-04-17_10h45.03.365,FishGame,2022.1.1,59.8529652061533,
물고기과제_instruction(참가자용)GreenVersion.mp4,,,,,,,,,,,,,,,,,,0,0,0,0,0,0,0,0,,,,,,,,,,,,,,,,,,,,,,,,,,,,,,,,,,,,,89.06725880000158,None,n,2.7226226999991923,89.06725880000158,None,,,,,,,,,,,,,,,,,,,,,,,,,,,,,,,,,,,,,,,,,,,,,,,,,,,,,,,,,,,,,,,,,,,,,,,,,,,,,,,,,,,,110,2023-04-17_10h45.03.365,FishGame,2022.1.1,59.8529652061533,
,1,넌 교활해,5,Orange,B,2.333333333333333,2.133333333333333,ScrollUp,ScrollDown,Orange.png,practice,,,,,,,0,0,0,0,,,,,0,0,0,0,0,0,0,0,,,,,,,,,,,,,,,,,,,,,,,,,,,,,,,,,,,-0.0009259259,-0.25185186,1,0,0,0.5141397999977926,None,91.81491980000283,None,98.6815332000042,100.1836672999998,100.21699400000216,101.17021989999921,101.22015180000017,102.18365710000216,102.16709970000375,None,1.2407407313585281,1.3710042000020621,103.44753140000103,None,ScrollDown,오답입니다,103.44753140000103,None,103.44753140000103,None,103.44753140000103,None,103.44753140000103,None,104.53111910000007,None,104.53111910000007,105.03107120000641,,,,,,,,,,,,,,,,,,,,,,,,,,,,,,,,,,,,,,,,,,,,,,,,,110,2023-04-17_10h45.03.365,FishGame,2022.1.1,59.8529652061533,
,2,넌 슬기로워,2,Green,A,6.166666666666667,4.1,ScrollDown,ScrollUp,Green.png,practice,,,,,,,0,0,0,0,,,,,0,0,0,0,0,1,1,1,,,,,,,,,,,,,,,,,,,,,,,,,,,,,,,,,,,,,,,,,,,,,,,,,,,,1.2916666666666665,1.4005232000054093,105.64299680000113,None,ScrollDown,정답입니다,105.64299680000113,None,105.64299680000113,None,105.64299680000113,None,105.64299680000113,None,106.95028920000186,None,106.95028920000186,107.45013300000574,,,,,,,,,,,,,,,,,,,,,,,,,,,,,,,,,,,,,,,,,,,,,,,,,110,2023-04-17_10h45.03.365,FishGame,2022.1.1,59.8529652061533,
,3,나를 보내줘,6,Green,A,0,0,ScrollUp,ScrollDown,Green.png,practice,,,,,,,0,0,0,0,,,,,0,0,0,0,0,2,2,2,,,,,,,,,,,,,,,,,,,,,,,,,,,,,,,,,,,,,,,,,,,,,,,,,,,,1.6728395000100136,1.3316192000056617,108.05538860000524,None,ScrollUp,정답입니다,108.05538860000524,None,108.05538860000524,None,108.05538860000524,None,108.05538860000524,None,109.30002700000477,None,109.30002700000477,109.79998220000562,,,,,,,,,,,,,,,,,,,,,,,,,,,,,,,,,,,,,,,,,,,,,,,,,110,2023-04-17_10h45.03.365,FishGame,2022.1.1,59.8529652061533,
,4,나를 데려가줘,6,Orange,B,0,0,ScrollDown,ScrollUp,Orange.png,practice,,,,,,,0,0,0,0,,,,,0,0,0,0,0,3,3,3,,,,,,,,,,,,,,,,,,,,,,,,,,,,,,,,,,,,,,,,,,,,,,,,,,,,1.2453703731298447,1.2258567999961087,110.41384169999947,None,ScrollDown,정답입니다,110.41384169999947,None,110.41384169999947,None,110.41384169999947,None,110.41384169999947,None,111.5476262000011,None,111.5476262000011,112.04767980000179,,,,,,,,,,,,,,,,,,,,,,,,,,,,,,,,,,,,,,,,,,,,,,,,,110,2023-04-17_10h45.03.365,FishGame,2022.1.1,59.8529652061533,
,1,넌 교활해,5,Orange,B,2.333333333333333,2.133333333333333,ScrollUp,ScrollDown,Orange.png,practice,,,,,,,0,0,0,0,,,,,0,0,0,0,,,,,,,,,,,,,,,,,,,,,,,,,,,,,,,,,,,,,,,,,,,,,,,,,,,,,,,,,,,,,,,,,,,,,,,,,,n,3.9864434999981313,112.54764799999975,None,112.54764799999975,None,,,,,,,,,,,,,,,,,,,,,,,,,,,,,,,,,,,,,,,,,,,110,2023-04-17_10h45.03.365,FishGame,2022.1.1,59.8529652061533,
,1,넌 따뜻해,1,Orange,B,6.083333333333333,5.6,ScrollUp,ScrollDown,Orange.png,1,Positive,Incongruent,,,,,0,0,0,0,,,,,,,,,,,,,0,0,0,0,,,,,,,,,,,,,,,,,,,,,,,,,,,,,,,,,,,,,,,,134.76404330000514,136.26631970000017,136.29966910000076,137.24959660000604,137.299571800002,138.24957550000545,138.24957550000545,None,,,,,,,,,,,,,,,,,,,,,,,,,0.098148145,-0.11111111,1,0,0,0.3149316999988514,None,116.56653229999938,None,1.2438271592060726,1.275943600005121,139.52547030000278,None,ScrollDown,오답입니다,139.52547030000278,None,139.52547030000278,None,139.52547030000278,None,139.52547030000278,None,140.5139879000053,None,140.5139879000053,141.01605000000563,,,,,,,,,,,,,,,,110,2023-04-17_10h45.03.365,FishGame,2022.1.1,59.8529652061533,
,2,넌 기품있어,2,Orange,B,5.791666666666668,4.5,ScrollUp,ScrollDown,Orange.png,1,Positive,Incongruent,,,,,0,0,0,0,,,,,,,,,,,,,0,1,1,1,,,,,,,,,,,,,,,,,,,,,,,,,,,,,,,,,,,,,,,,,,,,,,,,,,,,,,,,,,,,,,,,,,,,,,,,,,,,,,,,,1.6882716019948325,0.7627449999999953,141.63055780000286,None,ScrollUp,정답입니다,141.63055780000286,None,141.63055780000286,None,141.63055780000286,None,141.63055780000286,None,142.29725480000343,None,142.29725480000343,142.79928030000156,,,,,,,,,,,,,,,,110,2023-04-17_10h45.03.365,FishGame,2022.1.1,59.8529652061533,
,3,나를 보내줘,6,Green,A,0,0,ScrollUp,ScrollDown,Green.png,1,NonTarget,NonTarget,,,,,0,0,0,0,,,,,,,,,,,,,0,2,2,2,,,,,,,,,,,,,,,,,,,,,,,,,,,,,,,,,,,,,,,,,,,,,,,,,,,,,,,,,,,,,,,,,,,,,,,,,,,,,,,,,1.8009259204069774,1.136362299999746,143.41032620000624,None,ScrollUp,정답입니다,143.41032620000624,None,143.41032620000624,None,143.41032620000624,None,143.41032620000624,None,144.44930010000098,None,144.44930010000098,144.94926970000233,,,,,,,,,,,,,,,,110,2023-04-17_10h45.03.365,FishGame,2022.1.1,59.8529652061533,
,4,넌 수동적이야,4,Green,A,2.833333333333333,2.933333333333333,ScrollDown,ScrollUp,Green.png,1,Negative,Incongruent,,,,,0,0,0,0,,,,,,,,,,,,,0,3,3,3,,,,,,,,,,,,,,,,,,,,,,,,,,,,,,,,,,,,,,,,,,,,,,,,,,,,,,,,,,,,,,,,,,,,,,,,,,,,,,,,,1.2777777661879859,0.9128573999987566,145.5622590999992,None,ScrollDown,정답입니다,145.5622590999992,None,145.5622590999992,None,145.5622590999992,None,145.5622590999992,None,146.38249270000233,None,146.38249270000233,146.8991954000012,,,,,,,,,,,,,,,,110,2023-04-17_10h45.03.365,FishGame,2022.1.1,59.8529652061533,
,5,넌 사심이 없어,3,Orange,B,4.916666666666666,4.333333333333333,ScrollUp,ScrollDown,Orange.png,1,Neutral,Neutral,,,,,0,0,0,0,,,,,,,,,,,,,0,4,4,4,,,,,,,,,,,,,,,,,,,,,,,,,,,,,,,,,,,,,,,,,,,,,,,,,,,,,,,,,,,,,,,,,,,,,,,,,,,,,,,,,1.6450617238879204,1.0983582999979262,147.49442160000035,None,ScrollUp,정답입니다,147.49442160000035,None,147.49442160000035,None,147.49442160000035,None,147.49442160000035,None,148.49919200000295,None,148.49919200000295,148.9992809000032,,,,,,,,,,,,,,,,110,2023-04-17_10h45.03.365,FishGame,2022.1.1,59.8529652061533,
,6,넌 헤퍼,5,Green,A,2.458333333333334,2.233333333333333,ScrollDown,ScrollUp,Green.png,1,Negative,Incongruent,,,,,0,0,0,0,,,,,,,,,,,,,0,5,5,5,,,,,,,,,,,,,,,,,,,,,,,,,,,,,,,,,,,,,,,,,,,,,,,,,,,,,,,,,,,,,,,,,,,,,,,,,,,,,,,,,1.2253086417913437,0.964776200002234,149.60690969999996,None,ScrollDown,정답입니다,149.60690969999996,None,149.60690969999996,None,149.60690969999996,None,149.60690969999996,None,150.48569800000405,None,150.48569800000405,150.99910520000412,,,,,,,,,,,,,,,,110,2023-04-17_10h45.03.365,FishGame,2022.1.1,59.8529652061533,
,7,넌 말쑥해,3,Green,A,4.833333333333334,4.333333333333333,ScrollDown,ScrollUp,Green.png,1,Neutral,Neutral,,,,,0,0,0,0,,,,,,,,,,,,,0,6,6,6,,,,,,,,,,,,,,,,,,,,,,,,,,,,,,,,,,,,,,,,,,,,,,,,,,,,,,,,,,,,,,,,,,,,,,,,,,,,,,,,,1.1712963034709294,1.0131983000028413,151.60843240000395,None,ScrollDown,정답입니다,151.60843240000395,None,151.60843240000395,None,151.60843240000395,None,151.60843240000395,None,152.53242210000462,None,152.53242210000462,153.0490601000056,,,,,,,,,,,,,,,,110,2023-04-17_10h45.03.365,FishGame,2022.1.1,59.8529652061533,
,8,넌 투덜거려,5,Orange,B,2.541666666666667,2.266666666666667,ScrollUp,ScrollDown,Orange.png,1,Negative,Congruent,,,,,0,0,0,0,,,,,,,,,,,,,0,7,7,7,,,,,,,,,,,,,,,,,,,,,,,,,,,,,,,,,,,,,,,,,,,,,,,,,,,,,,,,,,,,,,,,,,,,,,,,,,,,,,,,,1.71296297510465,1.1630881000019144,153.6455444000021,None,ScrollUp,정답입니다,153.6455444000021,None,153.6455444000021,None,153.6455444000021,None,153.6455444000021,None,154.713725600006,None,154.713725600006,155.2157329000038,,,,,,,,,,,,,,,,110,2023-04-17_10h45.03.365,FishGame,2022.1.1,59.8529652061533,
,9,넌 적극적이야,1,Green,A,5.708333333333333,5.533333333333333,ScrollDown,ScrollUp,Green.png,1,Positive,Congruent,,,,,0,0,0,0,,,,,,,,,,,,,0,8,8,8,,,,,,,,,,,,,,,,,,,,,,,,,,,,,,,,,,,,,,,,,,,,,,,,,,,,,,,,,,,,,,,,,,,,,,,,,,,,,,,,,1.1728395173947017,0.9127157999973861,155.82264869999926,None,ScrollDown,정답입니다,155.82264869999926,None,155.82264869999926,None,155.82264869999926,None,155.82264869999926,None,156.64672860000428,None,156.64672860000428,157.14669090000098,,,,,,,,,,,,,,,,110,2023-04-17_10h45.03.365,FishGame,2022.1.1,59.8529652061533,
,10,넌 재미없어,4,Orange,B,2.625,2.966666666666667,ScrollUp,ScrollDown,Orange.png,1,Negative,Congruent,,,,,0,0,0,0,,,,,,,,,,,,,0,9,9,9,,,,,,,,,,,,,,,,,,,,,,,,,,,,,,,,,,,,,,,,,,,,,,,,,,,,,,,,,,,,,,,,,,,,,,,,,,,,,,,,,1.6651234552264214,1.167266100004781,157.75503080000635,None,ScrollUp,정답입니다,157.75503080000635,None,157.75503080000635,None,157.75503080000635,None,157.75503080000635,None,158.83252860000357,None,158.83252860000357,159.33250470000348,,,,,,,,,,,,,,,,110,2023-04-17_10h45.03.365,FishGame,2022.1.1,59.8529652061533,
,11,넌 명석해,2,Green,A,5.875,4.033333333333333,ScrollDown,ScrollUp,Green.png,1,Positive,Congruent,,,,,0,0,0,0,,,,,,,,,,,,,0,10,10,10,,,,,,,,,,,,,,,,,,,,,,,,,,,,,,,,,,,,,,,,,,,,,,,,,,,,,,,,,,,,,,,,,,,,,,,,,,,,,,,,,1.2422839452823002,0.8628795999975409,159.94127270000172,None,ScrollDown,정답입니다,159.94127270000172,None,159.94127270000172,None,159.94127270000172,None,159.94127270000172,None,160.71577990000515,None,160.71577990000515,161.21569770000497,,,,,,,,,,,,,,,,110,2023-04-17_10h45.03.365,FishGame,2022.1.1,59.8529652061533,
,12,나를 데려가줘,6,Orange,B,0,0,ScrollDown,ScrollUp,Orange.png,1,NonTarget,NonTarget,,,,,0,0,0,0,,,,,,,,,,,,,0,11,11,11,,,,,,,,,,,,,,,,,,,,,,,,,,,,,,,,,,,,,,,,,,,,,,,,,,,,,,,,,,,,,,,,,,,,,,,,,,,,,,,,,1.2638888905445733,1.3982053999934578,161.8267360000027,None,ScrollDown,정답입니다,161.8267360000027,None,161.8267360000027,None,161.8267360000027,None,161.8267360000027,None,163.13016700000298,None,163.13016700000298,163.63223049999942,,,,,,,,,,,,,,,,110,2023-04-17_10h45.03.365,FishGame,2022.1.1,59.8529652061533,
,13,넌 소심해,4,Green,A,3,3.1,ScrollDown,ScrollUp,Green.png,1,Negative,Incongruent,,,,,0,0,0,0,,,,,,,,,,,,,0,12,12,12,,,,,,,,,,,,,,,,,,,,,,,,,,,,,,,,,,,,,,,,,,,,,,,,,,,,,,,,,,,,,,,,,,,,,,,,,,,,,,,,,1.3024691392978034,1.4318178999965312,164.24385160000384,None,ScrollDown,정답입니다,164.24385160000384,None,164.24385160000384,None,164.24385160000384,None,164.24385160000384,None,165.58011300000362,None,165.58011300000362,166.08214480000606,,,,,,,,,,,,,,,,110,2023-04-17_10h45.03.365,FishGame,2022.1.1,59.8529652061533,
,14,넌 합리적이야,2,Green,A,5.583333333333333,4.733333333333333,ScrollDown,ScrollUp,Green.png,1,Positive,Congruent,,,,,0,0,0,0,,,,,,,,,,,,,0,13,13,13,,,,,,,,,,,,,,,,,,,,,,,,,,,,,,,,,,,,,,,,,,,,,,,,,,,,,,,,,,,,,,,,,,,,,,,,,,,,,,,,,1.2083333383003871,0.912395799998194,166.691321600003,None,ScrollDown,정답입니다,166.691321600003,None,166.691321600003,None,166.691321600003,None,166.691321600003,None,167.51315500000055,None,167.51315500000055,168.01321850000386,,,,,,,,,,,,,,,,110,2023-04-17_10h45.03.365,FishGame,2022.1.1,59.8529652061533,
,15,넌 무자비해,5,Orange,B,2.333333333333333,2.1,ScrollUp,ScrollDown,Orange.png,1,Negative,Congruent,,,,,0,0,0,0,,,,,,,,,,,,,0,14,14,14,,,,,,,,,,,,,,,,,,,,,,,,,,,,,,,,,,,,,,,,,,,,,,,,,,,,,,,,,,,,,,,,,,,,,,,,,,,,,,,,,1.7422839403152466,0.8484817999997176,168.6227457000059,None,ScrollUp,정답입니다,168.6227457000059,None,168.6227457000059,None,168.6227457000059,None,168.6227457000059,None,169.37982580000244,None,169.37982580000244,169.88227750000078,,,,,,,,,,,,,,,,110,2023-04-17_10h45.03.365,FishGame,2022.1.1,59.8529652061533,
,16,나를 보내줘,6,Green,A,0,0,ScrollUp,ScrollDown,Green.png,1,NonTarget,NonTarget,,,,,0,0,0,0,,,,,,,,,,,,,0,15,15,15,,,,,,,,,,,,,,,,,,,,,,,,,,,,,,,,,,,,,,,,,,,,,,,,,,,,,,,,,,,,,,,,,,,,,,,,,,,,,,,,,1.7793209999799728,1.3272953999985475,170.48722270000144,None,ScrollUp,정답입니다,170.48722270000144,None,170.48722270000144,None,170.48722270000144,None,170.48722270000144,None,171.72523229999933,None,171.72523229999933,172.2297927000036,,,,,,,,,,,,,,,,110,2023-04-17_10h45.03.365,FishGame,2022.1.1,59.8529652061533,
,17,넌 현실적이야,3,Orange,B,4.608695652173913,4.766666666666667,ScrollUp,ScrollDown,Orange.png,1,Neutral,Neutral,,,,,0,0,0,0,,,,,,,,,,,,,0,16,16,16,,,,,,,,,,,,,,,,,,,,,,,,,,,,,,,,,,,,,,,,,,,,,,,,,,,,,,,,,,,,,,,,,,,,,,,,,,,,,,,,,1,1.081493199999386,172.84081960000185,None,ScrollDown,오답입니다,172.84081960000185,None,172.84081960000185,None,172.84081960000185,None,172.84081960000185,None,173.8298539000025,None,173.8298539000025,174.32971920000273,,,,,,,,,,,,,,,,110,2023-04-17_10h45.03.365,FishGame,2022.1.1,59.8529652061533,
,18,넌 의리있어,1,Orange,B,5.833333333333334,5.633333333333334,ScrollUp,ScrollDown,Orange.png,1,Positive,Incongruent,,,,,0,0,0,0,,,,,,,,,,,,,0,17,17,17,,,,,,,,,,,,,,,,,,,,,,,,,,,,,,,,,,,,,,,,,,,,,,,,,,,,,,,,,,,,,,,,,,,,,,,,,,,,,,,,,1.7824074029922485,0.998377600000822,174.94203910000215,None,ScrollUp,정답입니다,174.94203910000215,None,174.94203910000215,None,174.94203910000215,None,174.94203910000215,None,175.84895590000087,None,175.84895590000087,176.3487408000001,,,,,,,,,,,,,,,,110,2023-04-17_10h45.03.365,FishGame,2022.1.1,59.8529652061533,
,19,넌 신경과민이야,5,Green,A,2.541666666666667,2.166666666666667,ScrollDown,ScrollUp,Green.png,1,Negative,Incongruent,,,,,0,0,0,0,,,,,,,,,,,,,0,18,18,18,,,,,,,,,,,,,,,,,,,,,,,,,,,,,,,,,,,,,,,,,,,,,,,,,,,,,,,,,,,,,,,,,,,,,,,,,,,,,,,,,1.2654321044683456,0.8481401000026381,176.960230100005,None,ScrollDown,정답입니다,176.960230100005,None,176.960230100005,None,176.960230100005,None,176.960230100005,None,177.71321349999926,None,177.71321349999926,178.21528100000432,,,,,,,,,,,,,,,,110,2023-04-17_10h45.03.365,FishGame,2022.1.1,59.8529652061533,
,20,넌 편안해,1,Green,A,5.916666666666666,5.866666666666666,ScrollDown,ScrollUp,Green.png,1,Positive,Congruent,,,,,0,0,0,0,,,,,,,,,,,,,0,19,19,19,,,,,,,,,,,,,,,,,,,,,,,,,,,,,,,,,,,,,,,,,,,,,,,,,,,,,,,,,,,,,,,,,,,,,,,,,,,,,,,,,1.162037044763565,1.081357000002754,178.82285180000326,None,ScrollDown,정답입니다,178.82285180000326,None,178.82285180000326,None,178.82285180000326,None,178.82285180000326,None,179.81314000000566,None,179.81314000000566,180.31516870000632,,,,,,,,,,,,,,,,110,2023-04-17_10h45.03.365,FishGame,2022.1.1,59.8529652061533,
,21,넌 품위있어,2,Orange,B,5.291666666666666,4.466666666666667,ScrollUp,ScrollDown,Orange.png,1,Positive,Incongruent,,,,,0,0,0,0,,,,,,,,,,,,,0,20,20,20,,,,,,,,,,,,,,,,,,,,,,,,,,,,,,,,,,,,,,,,,,,,,,,,,,,,,,,,,,,,,,,,,,,,,,,,,,,,,,,,,1.6512345671653748,0.7964254999969853,180.9240895000039,None,ScrollUp,정답입니다,180.9240895000039,None,180.9240895000039,None,180.9240895000039,None,180.9240895000039,None,181.63185530000192,None,181.63185530000192,182.1318046000015,,,,,,,,,,,,,,,,110,2023-04-17_10h45.03.365,FishGame,2022.1.1,59.8529652061533,
,22,넌 빈틈없어,3,Green,A,4.833333333333333,3.966666666666667,ScrollDown,ScrollUp,Green.png,1,Neutral,Neutral,,,,,0,0,0,0,,,,,,,,,,,,,0,21,21,21,,,,,,,,,,,,,,,,,,,,,,,,,,,,,,,,,,,,,,,,,,,,,,,,,,,,,,,,,,,,,,,,,,,,,,,,,,,,,,,,,1.194444437821706,0.8815589000005275,182.74056660000497,None,ScrollDown,정답입니다,182.74056660000497,None,182.74056660000497,None,182.74056660000497,None,182.74056660000497,None,183.53193490000558,None,183.53193490000558,184.0484343000062,,,,,,,,,,,,,,,,110,2023-04-17_10h45.03.365,FishGame,2022.1.1,59.8529652061533,
,23,넌 상상력없어,4,Orange,B,2.833333333333333,3.133333333333333,ScrollUp,ScrollDown,Orange.png,1,Negative,Congruent,,,,,0,0,0,0,,,,,,,,,,,,,0,22,22,22,,,,,,,,,,,,,,,,,,,,,,,,,,,,,,,,,,,,,,,,,,,,,,,,,,,,,,,,,,,,,,,,,,,,,,,,,,,,,,,,,1.7052469179034233,0.8130676000000676,184.64220470000146,None,ScrollUp,정답입니다,184.64220470000146,None,184.64220470000146,None,184.64220470000146,None,184.64220470000146,None,185.3651028000022,None,185.3651028000022,185.86506940000254,,,,,,,,,,,,,,,,110,2023-04-17_10h45.03.365,FishGame,2022.1.1,59.8529652061533,
,24,넌 지혜로워,2,Orange,B,6.333333333333334,4.633333333333334,ScrollUp,ScrollDown,Orange.png,1,Positive,Incongruent,,,,,0,0,0,0,,,,,,,,,,,,,0,23,23,23,,,,,,,,,,,,,,,,,,,,,,,,,,,,,,,,,,,,,,,,,,,,,,,,,,,,,,,,,,,,,,,,,,,,,,,,,,,,,,,,,1.8132716069618862,1.1314775999999256,186.47732380000525,None,ScrollUp,정답입니다,186.47732380000525,None,186.47732380000525,None,186.47732380000525,None,186.47732380000525,None,187.515126600003,None,187.515126600003,188.01507920000586,,,,,,,,,,,,,,,,110,2023-04-17_10h45.03.365,FishGame,2022.1.1,59.8529652061533,
,25,넌 시끄러워,4,Green,A,2.833333333333333,3.033333333333333,ScrollDown,ScrollUp,Green.png,1,Negative,Incongruent,,,,,0,0,0,0,,,,,,,,,,,,,0,24,24,24,,,,,,,,,,,,,,,,,,,,,,,,,,,,,,,,,,,,,,,,,,,,,,,,,,,,,,,,,,,,,,,,,,,,,,,,,,,,,,,,,1.2283950696388881,0.845977099997981,188.62433710000187,None,ScrollDown,정답입니다,188.62433710000187,None,188.62433710000187,None,188.62433710000187,None,188.62433710000187,None,189.38167070000054,None,189.38167070000054,189.88163020000502,,,,,,,,,,,,,,,,110,2023-04-17_10h45.03.365,FishGame,2022.1.1,59.8529652061533,
,26,넌 만사태평이야,3,Orange,B,4,4.333333333333333,ScrollUp,ScrollDown,Orange.png,1,Neutral,Neutral,,,,,0,0,0,0,,,,,,,,,,,,,0,25,25,25,,,,,,,,,,,,,,,,,,,,,,,,,,,,,,,,,,,,,,,,,,,,,,,,,,,,,,,,,,,,,,,,,,,,,,,,,,,,,,,,,1.674382713933786,0.8484564000027603,190.49388929999986,None,ScrollUp,정답입니다,190.49388929999986,None,190.49388929999986,None,190.49388929999986,None,190.49388929999986,None,191.2483671000009,None,191.2483671000009,191.74831180000183,,,,,,,,,,,,,,,,110,2023-04-17_10h45.03.365,FishGame,2022.1.1,59.8529652061533,
,27,넌 붙임성있어,1,Green,A,5.708333333333333,5.633333333333334,ScrollDown,ScrollUp,Green.png,1,Positive,Congruent,,,,,0,0,0,0,,,,,,,,,,,,,0,26,26,26,,,,,,,,,,,,,,,,,,,,,,,,,,,,,,,,,,,,,,,,,,,,,,,,,,,,,,,,,,,,,,,,,,,,,,,,,,,,,,,,,1.253086417913437,0.848449700002675,192.3581759000008,None,ScrollDown,정답입니다,192.3581759000008,None,192.3581759000008,None,192.3581759000008,None,192.3581759000008,None,193.11494340000354,None,193.11494340000354,193.61501750000025,,,,,,,,,,,,,,,,110,2023-04-17_10h45.03.365,FishGame,2022.1.1,59.8529652061533,
,28,넌 영리해,2,Green,A,6,4.033333333333333,ScrollDown,ScrollUp,Green.png,1,Positive,Congruent,,,,,0,0,0,0,,,,,,,,,,,,,0,27,27,27,,,,,,,,,,,,,,,,,,,,,,,,,,,,,,,,,,,,,,,,,,,,,,,,,,,,,,,,,,,,,,,,,,,,,,,,,,,,,,,,,1.433641975124677,1.4962904999993043,194.225955300004,None,ScrollDown,정답입니다,194.225955300004,None,194.225955300004,None,194.225955300004,None,194.225955300004,None,195.62950140000612,None,195.62950140000612,196.13152310000442,,,,,,,,,,,,,,,,110,2023-04-17_10h45.03.365,FishGame,2022.1.1,59.8529652061533,
,29,넌 열심이야,1,Orange,B,6.041666666666667,5.833333333333333,ScrollUp,ScrollDown,Orange.png,1,Positive,Incongruent,,,,,0,0,0,0,,,,,,,,,,,,,0,28,28,28,,,,,,,,,,,,,,,,,,,,,,,,,,,,,,,,,,,,,,,,,,,,,,,,,,,,,,,,,,,,,,,,,,,,,,,,,,,,,,,,,1.7006172885497413,0.9964798000000883,196.74136640000506,None,ScrollUp,정답입니다,196.74136640000506,None,196.74136640000506,None,196.74136640000506,None,196.74136640000506,None,197.64819980000175,None,197.64819980000175,198.14822400000412,,,,,,,,,,,,,,,,110,2023-04-17_10h45.03.365,FishGame,2022.1.1,59.8529652061533,
,30,넌 인기없어,4,Orange,B,3,3.3,ScrollUp,ScrollDown,Orange.png,1,Negative,Congruent,,,,,0,0,0,0,,,,,,,,,,,,,0,29,29,29,,,,,,,,,,,,,,,,,,,,,,,,,,,,,,,,,,,,,,,,,,,,,,,,,,,,,,,,,,,,,,,,,,,,,,,,,,,,,,,,,1.7422839403152466,0.9787195000026259,198.76132040000084,None,ScrollUp,정답입니다,198.76132040000084,None,198.76132040000084,None,198.76132040000084,None,198.76132040000084,None,199.64623640000354,None,199.64623640000354,200.1480842000019,,,,,,,,,,,,,,,,110,2023-04-17_10h45.03.365,FishGame,2022.1.1,59.8529652061533,
,31,넌 익살스러워,3,Green,A,4.708333333333334,4.833333333333333,ScrollDown,ScrollUp,Green.png,1,Neutral,Neutral,,,,,0,0,0,0,,,,,,,,,,,,,0,30,30,30,,,,,,,,,,,,,,,,,,,,,,,,,,,,,,,,,,,,,,,,,,,,,,,,,,,,,,,,,,,,,,,,,,,,,,,,,,,,,,,,,1.2592592487732568,0.9482677000050899,200.75771190000523,None,ScrollDown,정답입니다,200.75771190000523,None,200.75771190000523,None,200.75771190000523,None,200.75771190000523,None,201.61485630000243,None,201.61485630000243,202.11477279999963,,,,,,,,,,,,,,,,110,2023-04-17_10h45.03.365,FishGame,2022.1.1,59.8529652061533,
,32,넌 이기적이야,5,Orange,B,2.291666666666667,2.333333333333333,ScrollUp,ScrollDown,Orange.png,1,Negative,Congruent,,,,,0,0,0,0,,,,,,,,,,,,,0,31,31,31,,,,,,,,,,,,,,,,,,,,,,,,,,,,,,,,,,,,,,,,,,,,,,,,,,,,,,,,,,,,,,,,,,,,,,,,,,,,,,,,,1.6975308607021966,0.9459507999999914,202.72132020000572,None,ScrollUp,정답입니다,202.72132020000572,None,202.72132020000572,None,202.72132020000572,None,202.72132020000572,None,203.58136930000182,None,203.58136930000182,204.08135320000292,,,,,,,,,,,,,,,,110,2023-04-17_10h45.03.365,FishGame,2022.1.1,59.8529652061533,
,33,나를 데려가줘,6,Orange,B,0,0,ScrollDown,ScrollUp,Orange.png,1,NonTarget,NonTarget,,,,,0,0,0,0,,,,,,,,,,,,,0,32,32,32,,,,,,,,,,,,,,,,,,,,,,,,,,,,,,,,,,,,,,,,,,,,,,,,,,,,,,,,,,,,,,,,,,,,,,,,,,,,,,,,,1.2253086417913437,0.9962188000063179,204.68737280000641,None,ScrollDown,정답입니다,204.68737280000641,None,204.68737280000641,None,204.68737280000641,None,204.68737280000641,None,205.59804660000373,None,205.59804660000373,206.0979948000022,,,,,,,,,,,,,,,,110,2023-04-17_10h45.03.365,FishGame,2022.1.1,59.8529652061533,
,34,넌 기회주의자야,5,Green,A,2.875,2.133333333333333,ScrollDown,ScrollUp,Green.png,1,Negative,Incongruent,,,,,0,0,0,0,,,,,,,,,,,,,0,33,33,33,,,,,,,,,,,,,,,,,,,,,,,,,,,,,,,,,,,,,,,,,,,,,,,,,,,,,,,,,,,,,,,,,,,,,,,,,,,,,,,,,1.2638888905445733,0.81490340000164,206.70664560000296,None,ScrollDown,정답입니다,206.70664560000296,None,206.70664560000296,None,206.70664560000296,None,206.70664560000296,None,207.431445000002,None,207.431445000002,207.93453350000345,,,,,,,,,,,,,,,,110,2023-04-17_10h45.03.365,FishGame,2022.1.1,59.8529652061533,
,1,넌 미성숙해,4,Green,A,3,3.2,ScrollDown,ScrollUp,Green.png,2,Negative,Incongruent,,,,,0,0,0,0,,,,,,,,,,,,,,,,,0,0,0,0,,,,,,,,,,,,,,,,,,,,,,,,,,,,,,,,,,,,240.49531740000384,241.99748200000613,242.03084610000224,242.98079520000465,243.03082089999953,243.9808395,243.9808395,None,,,,,,,,,,,,,,,,,,,,,,,,,,,,,,,,,,1.2824074079593024,1.129914999997709,245.06728619999922,None,ScrollDown,정답입니다,245.06728619999922,None,245.06728619999922,None,245.06728619999922,None,245.06728619999922,None,246.1071871000022,None,246.1071871000022,246.61154300000635,208.43136130000494,None,208.43136130000494,None,0.23888889,-0.121296294,1,0,0,0.01602590000402415,None,238.43057860000408,None,,,110,2023-04-17_10h45.03.365,FishGame,2022.1.1,59.8529652061533,
,2,넌 반사회적이야,5,Orange,B,2.416666666666667,2.033333333333333,ScrollUp,ScrollDown,Orange.png,2,Negative,Congruent,,,,,0,0,0,0,,,,,,,,,,,,,,,,,0,1,1,1,,,,,,,,,,,,,,,,,,,,,,,,,,,,,,,,,,,,,,,,,,,,,,,,,,,,,,,,,,,,,,,,,,,,,,,,,,,,,1.7839506169160206,0.979546599999594,247.22751660000358,None,ScrollUp,정답입니다,247.22751660000358,None,247.22751660000358,None,247.22751660000358,None,247.22751660000358,None,248.11161859999993,None,248.11161859999993,248.61157580000145,,,,,,,,,,,,,,,,110,2023-04-17_10h45.03.365,FishGame,2022.1.1,59.8529652061533,
,3,넌 유능해,2,Green,A,6.208333333333333,4.433333333333334,ScrollDown,ScrollUp,Green.png,2,Positive,Congruent,,,,,0,0,0,0,,,,,,,,,,,,,,,,,0,2,2,2,,,,,,,,,,,,,,,,,,,,,,,,,,,,,,,,,,,,,,,,,,,,,,,,,,,,,,,,,,,,,,,,,,,,,,,,,,,,,1.3395061741272607,0.8292532999985269,249.22290250000515,None,ScrollDown,정답입니다,249.22290250000515,None,249.22290250000515,None,249.22290250000515,None,249.22290250000515,None,249.96407829999953,None,249.96407829999953,250.46399920000113,,,,,,,,,,,,,,,,110,2023-04-17_10h45.03.365,FishGame,2022.1.1,59.8529652061533,
,4,넌 능숙해,2,Orange,B,5.666666666666667,4.733333333333333,ScrollUp,ScrollDown,Orange.png,2,Positive,Incongruent,,,,,0,0,0,0,,,,,,,,,,,,,,,,,0,3,3,3,,,,,,,,,,,,,,,,,,,,,,,,,,,,,,,,,,,,,,,,,,,,,,,,,,,,,,,,,,,,,,,,,,,,,,,,,,,,,1.6882716019948325,0.7429125999988173,251.0732793999996,None,ScrollUp,정답입니다,251.0732793999996,None,251.0732793999996,None,251.0732793999996,None,251.0732793999996,None,251.73056370000268,None,251.73056370000268,252.2304798000041,,,,,,,,,,,,,,,,110,2023-04-17_10h45.03.365,FishGame,2022.1.1,59.8529652061533,
,5,넌 진부해,4,Orange,B,2.458333333333333,3.166666666666667,ScrollUp,ScrollDown,Orange.png,2,Negative,Congruent,,,,,0,0,0,0,,,,,,,,,,,,,,,,,0,4,4,4,,,,,,,,,,,,,,,,,,,,,,,,,,,,,,,,,,,,,,,,,,,,,,,,,,,,,,,,,,,,,,,,,,,,,,,,,,,,,1.8132716069618862,0.7984186000030604,252.84446890000254,None,ScrollUp,정답입니다,252.84446890000254,None,252.84446890000254,None,252.84446890000254,None,252.84446890000254,None,253.54706870000518,None,253.54706870000518,254.04698750000534,,,,,,,,,,,,,,,,110,2023-04-17_10h45.03.365,FishGame,2022.1.1,59.8529652061533,
,6,나를 보내줘,6,Green,A,0,0,ScrollUp,ScrollDown,Green.png,2,NonTarget,NonTarget,,,,,0,0,0,0,,,,,,,,,,,,,,,,,0,5,5,5,,,,,,,,,,,,,,,,,,,,,,,,,,,,,,,,,,,,,,,,,,,,,,,,,,,,,,,,,,,,,,,,,,,,,,,,,,,,,1.3132715995113053,1.0297740000023623,254.6503972999999,None,ScrollDown,오답입니다,254.6503972999999,None,254.6503972999999,None,254.6503972999999,None,254.6503972999999,None,255.59700650000013,None,255.59700650000013,256.09707640000124,,,,,,,,,,,,,,,,110,2023-04-17_10h45.03.365,FishGame,2022.1.1,59.8529652061533,
,7,넌 엄격해,3,Green,A,4.166666666666666,4.1,ScrollDown,ScrollUp,Green.png,2,Neutral,Neutral,,,,,0,0,0,0,,,,,,,,,,,,,,,,,0,6,6,6,,,,,,,,,,,,,,,,,,,,,,,,,,,,,,,,,,,,,,,,,,,,,,,,,,,,,,,,,,,,,,,,,,,,,,,,,,,,,1.3302469154198966,0.659827999996196,256.7080988000016,None,ScrollDown,정답입니다,256.7080988000016,None,256.7080988000016,None,256.7080988000016,None,256.7080988000016,None,257.27829130000464,None,257.27829130000464,257.78024970000115,,,,,,,,,,,,,,,,110,2023-04-17_10h45.03.365,FishGame,2022.1.1,59.8529652061533,
,8,나를 보내줘,6,Green,A,0,0,ScrollUp,ScrollDown,Green.png,2,NonTarget,NonTarget,,,,,0,0,0,0,,,,,,,,,,,,,,,,,0,7,7,7,,,,,,,,,,,,,,,,,,,,,,,,,,,,,,,,,,,,,,,,,,,,,,,,,,,,,,,,,,,,,,,,,,,,,,,,,,,,,1.5540123445292315,0.9317518000025302,258.3814596000011,None,ScrollUp,정답입니다,258.3814596000011,None,258.3814596000011,None,258.3814596000011,None,258.3814596000011,None,259.23031400000036,None,259.23031400000036,259.7303028000024,,,,,,,,,,,,,,,,110,2023-04-17_10h45.03.365,FishGame,2022.1.1,59.8529652061533,
,9,넌 대담해,3,Orange,B,4.875,4.866666666666666,ScrollUp,ScrollDown,Orange.png,2,Neutral,Neutral,,,,,0,0,0,0,,,,,,,,,,,,,,,,,0,8,8,8,,,,,,,,,,,,,,,,,,,,,,,,,,,,,,,,,,,,,,,,,,,,,,,,,,,,,,,,,,,,,,,,,,,,,,,,,,,,,1.6203703756133714,0.8600070000029518,260.34326560000045,None,ScrollUp,정답입니다,260.34326560000045,None,260.34326560000045,None,260.34326560000045,None,260.34326560000045,None,261.11356060000253,None,261.11356060000253,261.61356940000405,,,,,,,,,,,,,,,,110,2023-04-17_10h45.03.365,FishGame,2022.1.1,59.8529652061533,
,10,넌 꾸준해,1,Green,A,5.916666666666668,5.8,ScrollDown,ScrollUp,Green.png,2,Positive,Congruent,,,,,0,0,0,0,,,,,,,,,,,,,,,,,0,9,9,9,,,,,,,,,,,,,,,,,,,,,,,,,,,,,,,,,,,,,,,,,,,,,,,,,,,,,,,,,,,,,,,,,,,,,,,,,,,,,1.4027777773638566,0.746360299999651,262.22146670000075,None,ScrollDown,정답입니다,262.22146670000075,None,262.22146670000075,None,262.22146670000075,None,262.22146670000075,None,262.8782111000037,None,262.8782111000037,263.3802596000023,,,,,,,,,,,,,,,,110,2023-04-17_10h45.03.365,FishGame,2022.1.1,59.8529652061533,
,11,나를 데려가줘,6,Orange,B,0,0,ScrollDown,ScrollUp,Orange.png,2,NonTarget,NonTarget,,,,,0,0,0,0,,,,,,,,,,,,,,,,,0,10,10,10,,,,,,,,,,,,,,,,,,,,,,,,,,,,,,,,,,,,,,,,,,,,,,,,,,,,,,,,,,,,,,,,,,,,,,,,,,,,,1.2623456766208014,2.1127573999983724,263.99208690000523,None,ScrollDown,정답입니다,263.99208690000523,None,263.99208690000523,None,263.99208690000523,None,263.99208690000523,None,266.0111943000011,None,266.0111943000011,266.51121350000176,,,,,,,,,,,,,,,,110,2023-04-17_10h45.03.365,FishGame,2022.1.1,59.8529652061533,
,12,넌 독선적이야,5,Green,A,2.458333333333333,1.933333333333333,ScrollDown,ScrollUp,Green.png,2,Negative,Incongruent,,,,,0,0,0,0,,,,,,,,,,,,,,,,,0,11,11,11,,,,,,,,,,,,,,,,,,,,,,,,,,,,,,,,,,,,,,,,,,,,,,,,,,,,,,,,,,,,,,,,,,,,,,,,,,,,,1.387345681587855,1.3147958000045037,267.12235870000586,None,ScrollDown,정답입니다,267.12235870000586,None,267.12235870000586,None,267.12235870000586,None,267.12235870000586,None,268.34693510000216,None,268.34693510000216,268.84690980000596,,,,,,,,,,,,,,,,110,2023-04-17_10h45.03.365,FishGame,2022.1.1,59.8529652061533,
,13,나를 보내줘,6,Green,A,0,0,ScrollUp,ScrollDown,Green.png,2,NonTarget,NonTarget,,,,,0,0,0,0,,,,,,,,,,,,,,,,,0,12,12,12,,,,,,,,,,,,,,,,,,,,,,,,,,,,,,,,,,,,,,,,,,,,,,,,,,,,,,,,,,,,,,,,,,,,,,,,,,,,,1.589506171643734,1.098139200003061,269.45423650000157,None,ScrollUp,정답입니다,269.45423650000157,None,269.45423650000157,None,269.45423650000157,None,269.45423650000157,None,270.46344710000267,None,270.46344710000267,270.9634251000025,,,,,,,,,,,,,,,,110,2023-04-17_10h45.03.365,FishGame,2022.1.1,59.8529652061533,
,14,넌 책임감있어,1,Orange,B,6.347826086956522,6,ScrollUp,ScrollDown,Orange.png,2,Positive,Incongruent,,,,,0,0,0,0,,,,,,,,,,,,,,,,,0,13,13,13,,,,,,,,,,,,,,,,,,,,,,,,,,,,,,,,,,,,,,,,,,,,,,,,,,,,,,,,,,,,,,,,,,,,,,,,,,,,,1.5462962966412306,0.9128014000016265,271.57777709999937,None,NoResponse,무응답입니다,271.57777709999937,None,271.57777709999937,None,271.57777709999937,None,271.57777709999937,None,272.39463510000496,None,272.39463510000496,272.89461990000564,,,,,,,,,,,,,,,,110,2023-04-17_10h45.03.365,FishGame,2022.1.1,59.8529652061533,
,15,넌 문학적이야,3,Green,A,4.708333333333334,4.333333333333333,ScrollDown,ScrollUp,Green.png,2,Neutral,Neutral,,,,,0,0,0,0,,,,,,,,,,,,,,,,,0,14,14,14,,,,,,,,,,,,,,,,,,,,,,,,,,,,,,,,,,,,,,,,,,,,,,,,,,,,,,,,,,,,,,,,,,,,,,,,,,,,,1.1126543233791988,1.2462185000040336,273.50426130000415,None,ScrollDown,정답입니다,273.50426130000415,None,273.50426130000415,None,273.50426130000415,None,273.50426130000415,None,274.66337880000356,None,274.66337880000356,275.18007450000005,,,,,,,,,,,,,,,,110,2023-04-17_10h45.03.365,FishGame,2022.1.1,59.8529652061533,
,16,넌 재미있어,1,Orange,B,5.875,5.7,ScrollUp,ScrollDown,Orange.png,2,Positive,Incongruent,,,,,0,0,0,0,,,,,,,,,,,,,,,,,0,15,15,15,,,,,,,,,,,,,,,,,,,,,,,,,,,,,,,,,,,,,,,,,,,,,,,,,,,,,,,,,,,,,,,,,,,,,,,,,,,,,1.604938273628553,0.8932099999947241,275.7791101000039,None,ScrollUp,정답입니다,275.7791101000039,None,275.7791101000039,None,275.7791101000039,None,275.7791101000039,None,276.5776025000014,None,276.5776025000014,277.0776751000012,,,,,,,,,,,,,,,,110,2023-04-17_10h45.03.365,FishGame,2022.1.1,59.8529652061533,
,17,나를 데려가줘,6,Orange,B,0,0,ScrollDown,ScrollUp,Orange.png,2,NonTarget,NonTarget,,,,,0,0,0,0,,,,,,,,,,,,,,,,,0,16,16,16,,,,,,,,,,,,,,,,,,,,,,,,,,,,,,,,,,,,,,,,,,,,,,,,,,,,,,,,,,,,,,,,,,,,,,,,,,,,,1.1388888855775197,1.0341544999973848,277.6846560000049,None,ScrollDown,정답입니다,277.6846560000049,None,277.6846560000049,None,277.6846560000049,None,277.6846560000049,None,278.63004940000246,None,278.63004940000246,279.1300074000028,,,,,,,,,,,,,,,,110,2023-04-17_10h45.03.365,FishGame,2022.1.1,59.8529652061533,
,18,넌 협력적이야,1,Green,A,5.625,5.633333333333334,ScrollDown,ScrollUp,Green.png,2,Positive,Congruent,,,,,0,0,0,0,,,,,,,,,,,,,,,,,0,17,17,17,,,,,,,,,,,,,,,,,,,,,,,,,,,,,,,,,,,,,,,,,,,,,,,,,,,,,,,,,,,,,,,,,,,,,,,,,,,,,1.2067901243766148,0.8817905999967479,279.7351309000005,None,ScrollDown,정답입니다,279.7351309000005,None,279.7351309000005,None,279.7351309000005,None,279.7351309000005,None,280.5300153999997,None,280.5300153999997,281.0332544000048,,,,,,,,,,,,,,,,110,2023-04-17_10h45.03.365,FishGame,2022.1.1,59.8529652061533,
,19,넌 평범해,3,Orange,B,4.333333333333332,4.233333333333333,ScrollUp,ScrollDown,Orange.png,2,Neutral,Neutral,,,,,0,0,0,0,,,,,,,,,,,,,,,,,0,18,18,18,,,,,,,,,,,,,,,,,,,,,,,,,,,,,,,,,,,,,,,,,,,,,,,,,,,,,,,,,,,,,,,,,,,,,,,,,,,,,1.5879629639287791,0.7481111000015517,281.63960059999954,None,ScrollUp,정답입니다,281.63960059999954,None,281.63960059999954,None,281.63960059999954,None,281.63960059999954,None,282.2965053000007,None,282.2965053000007,282.79645220000384,,,,,,,,,,,,,,,,110,2023-04-17_10h45.03.365,FishGame,2022.1.1,59.8529652061533,
,20,넌 오만해,5,Green,A,2.333333333333333,2,ScrollDown,ScrollUp,Green.png,2,Negative,Incongruent,,,,,0,0,0,0,,,,,,,,,,,,,,,,,0,19,19,19,,,,,,,,,,,,,,,,,,,,,,,,,,,,,,,,,,,,,,,,,,,,,,,,,,,,,,,,,,,,,,,,,,,,,,,,,,,,,1.2391975422700245,0.846016099996632,283.40656040000613,None,ScrollDown,정답입니다,283.40656040000613,None,283.40656040000613,None,283.40656040000613,None,283.40656040000613,None,284.1608219000045,None,284.1608219000045,284.6607912000036,,,,,,,,,,,,,,,,110,2023-04-17_10h45.03.365,FishGame,2022.1.1,59.8529652061533,
,21,넌 운이없어,4,Orange,B,3,3.466666666666667,ScrollUp,ScrollDown,Orange.png,2,Negative,Congruent,,,,,0,0,0,0,,,,,,,,,,,,,,,,,0,20,20,20,,,,,,,,,,,,,,,,,,,,,,,,,,,,,,,,,,,,,,,,,,,,,,,,,,,,,,,,,,,,,,,,,,,,,,,,,,,,,1.5030864196984717,1.0150815999950282,285.26680290000513,None,NoResponse,무응답입니다,285.26680290000513,None,285.26680290000513,None,285.26680290000513,None,285.26680290000513,None,286.19416730000376,None,286.19416730000376,286.69660690000455,,,,,,,,,,,,,,,,110,2023-04-17_10h45.03.365,FishGame,2022.1.1,59.8529652061533,
,22,넌 창조적이야,2,Orange,B,6.125,4.633333333333334,ScrollUp,ScrollDown,Orange.png,2,Positive,Incongruent,,,,,0,0,0,0,,,,,,,,,,,,,,,,,0,21,21,21,,,,,,,,,,,,,,,,,,,,,,,,,,,,,,,,,,,,,,,,,,,,,,,,,,,,,,,,,,,,,,,,,,,,,,,,,,,,,1.5617283955216408,0.898276400002942,287.3050519000026,None,ScrollUp,정답입니다,287.3050519000026,None,287.3050519000026,None,287.3050519000026,None,287.3050519000026,None,288.1132069000014,None,288.1132069000014,288.6130279000063,,,,,,,,,,,,,,,,110,2023-04-17_10h45.03.365,FishGame,2022.1.1,59.8529652061533,
,23,나를 보내줘,6,Green,A,0,0,ScrollUp,ScrollDown,Green.png,2,NonTarget,NonTarget,,,,,0,0,0,0,,,,,,,,,,,,,,,,,0,22,22,22,,,,,,,,,,,,,,,,,,,,,,,,,,,,,,,,,,,,,,,,,,,,,,,,,,,,,,,,,,,,,,,,,,,,,,,,,,,,,1.4722222207734983,1.215121099994576,289.2167721000005,None,NoResponse,무응답입니다,289.2167721000005,None,289.2167721000005,None,289.2167721000005,None,289.2167721000005,None,290.3443114000038,None,290.3443114000038,290.8463933000021,,,,,,,,,,,,,,,,110,2023-04-17_10h45.03.365,FishGame,2022.1.1,59.8529652061533,
,24,넌 통찰력있어,2,Green,A,6.5,4.8,ScrollDown,ScrollUp,Green.png,2,Positive,Congruent,,,,,0,0,0,0,,,,,,,,,,,,,,,,,0,23,23,23,,,,,,,,,,,,,,,,,,,,,,,,,,,,,,,,,,,,,,,,,,,,,,,,,,,,,,,,,,,,,,,,,,,,,,,,,,,,,1.2546296318372092,1.0797661000033258,291.45453070000076,None,ScrollDown,정답입니다,291.45453070000076,None,291.45453070000076,None,291.45453070000076,None,291.45453070000076,None,292.44421140000486,None,292.44421140000486,292.9462646000029,,,,,,,,,,,,,,,,110,2023-04-17_10h45.03.365,FishGame,2022.1.1,59.8529652061533,
,25,넌 경솔해,5,Orange,B,2.458333333333333,2.266666666666667,ScrollUp,ScrollDown,Orange.png,2,Negative,Congruent,,,,,0,0,0,0,,,,,,,,,,,,,,,,,0,24,24,24,,,,,,,,,,,,,,,,,,,,,,,,,,,,,,,,,,,,,,,,,,,,,,,,,,,,,,,,,,,,,,,,,,,,,,,,,,,,,1.5108024687506258,0.9628898999944795,293.55447170000116,None,NoResponse,무응답입니다,293.55447170000116,None,293.55447170000116,None,293.55447170000116,None,293.55447170000116,None,294.42975170000136,None,294.42975170000136,294.929624700002,,,,,,,,,,,,,,,,110,2023-04-17_10h45.03.365,FishGame,2022.1.1,59.8529652061533,
,26,넌 초조해,4,Green,A,2.916666666666667,3.133333333333333,ScrollDown,ScrollUp,Green.png,2,Negative,Incongruent,,,,,0,0,0,0,,,,,,,,,,,,,,,,,0,25,25,25,,,,,,,,,,,,,,,,,,,,,,,,,,,,,,,,,,,,,,,,,,,,,,,,,,,,,,,,,,,,,,,,,,,,,,,,,,,,,1.0972222338120143,1.2127607000002172,295.53526540000166,None,ScrollDown,정답입니다,295.53526540000166,None,295.53526540000166,None,295.53526540000166,None,295.53526540000166,None,296.6605675000028,None,296.6605675000028,297.1605372000049,,,,,,,,,,,,,,,,110,2023-04-17_10h45.03.365,FishGame,2022.1.1,59.8529652061533,
,27,넌 무관심해,4,Orange,B,2.833333333333333,2.9,ScrollUp,ScrollDown,Orange.png,2,Negative,Congruent,,,,,0,0,0,0,,,,,,,,,,,,,,,,,0,26,26,26,,,,,,,,,,,,,,,,,,,,,,,,,,,,,,,,,,,,,,,,,,,,,,,,,,,,,,,,,,,,,,,,,,,,,,,,,,,,,1.9675925771395366,1.045950300002005,297.77733940000326,None,ScrollUp,정답입니다,297.77733940000326,None,297.77733940000326,None,297.77733940000326,None,297.77733940000326,None,298.7297185999996,None,298.7297185999996,299.2296817000024,,,,,,,,,,,,,,,,110,2023-04-17_10h45.03.365,FishGame,2022.1.1,59.8529652061533,
,28,넌 감성적이야,3,Orange,B,4.125,4.166666666666667,ScrollUp,ScrollDown,Orange.png,2,Neutral,Neutral,,,,,0,0,0,0,,,,,,,,,,,,,,,,,0,27,27,27,,,,,,,,,,,,,,,,,,,,,,,,,,,,,,,,,,,,,,,,,,,,,,,,,,,,,,,,,,,,,,,,,,,,,,,,,,,,,1.9459876318772633,1.0487283000038587,299.83618150000257,None,ScrollUp,정답입니다,299.83618150000257,None,299.83618150000257,None,299.83618150000257,None,299.83618150000257,None,300.79625650000526,None,300.79625650000526,301.2961439999999,,,,,,,,,,,,,,,,110,2023-04-17_10h45.03.365,FishGame,2022.1.1,59.8529652061533,
,29,넌 배려심있어,1,Green,A,6.083333333333333,5.5,ScrollDown,ScrollUp,Green.png,2,Positive,Congruent,,,,,0,0,0,0,,,,,,,,,,,,,,,,,0,28,28,28,,,,,,,,,,,,,,,,,,,,,,,,,,,,,,,,,,,,,,,,,,,,,,,,,,,,,,,,,,,,,,,,,,,,,,,,,,,,,1.2314814726511638,0.846342700002424,301.89994590000424,None,ScrollDown,정답입니다,301.89994590000424,None,301.89994590000424,None,301.89994590000424,None,301.89994590000424,None,302.66272060000483,None,302.66272060000483,303.16275690000475,,,,,,,,,,,,,,,,110,2023-04-17_10h45.03.365,FishGame,2022.1.1,59.8529652061533,
,30,넌 숨김없어,3,Green,A,4.5,4.933333333333334,ScrollDown,ScrollUp,Green.png,2,Neutral,Neutral,,,,,0,0,0,0,,,,,,,,,,,,,,,,,0,29,29,29,,,,,,,,,,,,,,,,,,,,,,,,,,,,,,,,,,,,,,,,,,,,,,,,,,,,,,,,,,,,,,,,,,,,,,,,,,,,,1.194444437821706,0.8795184000045992,303.77041630000167,None,ScrollDown,정답입니다,303.77041630000167,None,303.77041630000167,None,303.77041630000167,None,303.77041630000167,None,304.5626833999995,None,304.5626833999995,305.0626632000058,,,,,,,,,,,,,,,,110,2023-04-17_10h45.03.365,FishGame,2022.1.1,59.8529652061533,
,31,넌 훌륭해,2,Orange,B,5.916666666666667,4.033333333333333,ScrollUp,ScrollDown,Orange.png,2,Positive,Incongruent,,,,,0,0,0,0,,,,,,,,,,,,,,,,,0,30,30,30,,,,,,,,,,,,,,,,,,,,,,,,,,,,,,,,,,,,,,,,,,,,,,,,,,,,,,,,,,,,,,,,,,,,,,,,,,,,,2,1.1648690000001807,305.6727699000039,None,ScrollUp,정답입니다,305.6727699000039,None,305.6727699000039,None,305.6727699000039,None,305.6727699000039,None,306.74607939999987,None,306.74607939999987,307.2460257999992,,,,,,,,,,,,,,,,110,2023-04-17_10h45.03.365,FishGame,2022.1.1,59.8529652061533,
,32,넌 슬기로워,2,Green,A,6.166666666666667,4.1,ScrollDown,ScrollUp,Green.png,2,Positive,Congruent,,,,,0,0,0,0,,,,,,,,,,,,,,,,,0,31,31,31,,,,,,,,,,,,,,,,,,,,,,,,,,,,,,,,,,,,,,,,,,,,,,,,,,,,,,,,,,,,,,,,,,,,,,,,,,,,,1.2021604826052983,1.0315725999971619,307.85738150000543,None,ScrollDown,정답입니다,307.85738150000543,None,307.85738150000543,None,307.85738150000543,None,307.85738150000543,None,308.79591849999997,None,308.79591849999997,309.2959258000046,,,,,,,,,,,,,,,,110,2023-04-17_10h45.03.365,FishGame,2022.1.1,59.8529652061533,
,33,넌 냉혹해,5,Green,A,2.583333333333333,2.1,ScrollDown,ScrollUp,Green.png,2,Negative,Incongruent,,,,,0,0,0,0,,,,,,,,,,,,,,,,,0,32,32,32,,,,,,,,,,,,,,,,,,,,,,,,,,,,,,,,,,,,,,,,,,,,,,,,,,,,,,,,,,,,,,,,,,,,,,,,,,,,,1.336419758697351,1.5622089999960735,309.90665390000504,None,ScrollDown,정답입니다,309.90665390000504,None,309.90665390000504,None,309.90665390000504,None,309.90665390000504,None,311.3769261000052,None,311.3769261000052,311.8769386999993,,,,,,,,,,,,,,,,110,2023-04-17_10h45.03.365,FishGame,2022.1.1,59.8529652061533,
,34,나를 데려가줘,6,Orange,B,0,0,ScrollDown,ScrollUp,Orange.png,2,NonTarget,NonTarget,,,,,0,0,0,0,,,,,,,,,,,,,,,,,0,33,33,33,,,,,,,,,,,,,,,,,,,,,,,,,,,,,,,,,,,,,,,,,,,,,,,,,,,,,,,,,,,,,,,,,,,,,,,,,,,,,1.2160493830839794,1.1321119000058388,312.4877001000059,None,ScrollDown,정답입니다,312.4877001000059,None,312.4877001000059,None,312.4877001000059,None,312.4877001000059,None,313.52936279999994,None,313.52936279999994,314.0292875000014,,,,,,,,,,,,,,,,110,2023-04-17_10h45.03.365,FishGame,2022.1.1,59.8529652061533,
,35,넌 편파적이야,5,Orange,B,2.125,2,ScrollUp,ScrollDown,Orange.png,2,Negative,Congruent,,,,,0,0,0,0,,,,,,,,,,,,,,,,,0,34,34,34,,,,,,,,,,,,,,,,,,,,,,,,,,,,,,,,,,,,,,,,,,,,,,,,,,,,,,,,,,,,,,,,,,,,,,,,,,,,,1.7160493781169257,1.1032878999976674,314.6383150000038,None,ScrollUp,정답입니다,314.6383150000038,None,314.6383150000038,None,314.6383150000038,None,314.6383150000038,None,315.64579790000425,None,315.64579790000425,316.14576430000307,,,,,,,,,,,,,,,,110,2023-04-17_10h45.03.365,FishGame,2022.1.1,59.8529652061533,
,36,넌 슬퍼,4,Green,A,2.583333333333333,3.066666666666667,ScrollDown,ScrollUp,Green.png,2,Negative,Incongruent,,,,,0,0,0,0,,,,,,,,,,,,,,,,,0,35,35,35,,,,,,,,,,,,,,,,,,,,,,,,,,,,,,,,,,,,,,,,,,,,,,,,,,,,,,,,,,,,,,,,,,,,,,,,,,,,,1.2067901243766148,0.9649094999986119,316.7474128000031,None,ScrollDown,정답입니다,316.7474128000031,None,316.7474128000031,None,316.7474128000031,None,316.7474128000031,None,317.62924770000245,None,317.62924770000245,318.1291547000001,,,,,,,,,,,,,,,,110,2023-04-17_10h45.03.365,FishGame,2022.1.1,59.8529652061533,
,37,나를 데려가줘,6,Orange,B,0,0,ScrollDown,ScrollUp,Orange.png,2,NonTarget,NonTarget,,,,,0,0,0,0,,,,,,,,,,,,,,,,,0,36,36,36,,,,,,,,,,,,,,,,,,,,,,,,,,,,,,,,,,,,,,,,,,,,,,,,,,,,,,,,,,,,,,,,,,,,,,,,,,,,,1.71296297510465,1.1797474999984843,318.7358901000043,None,ScrollUp,오답입니다,318.7358901000043,None,318.7358901000043,None,318.7358901000043,None,318.7358901000043,None,319.8289994000006,None,319.8289994000006,320.3290285000039,,,,,,,,,,,,,,,,110,2023-04-17_10h45.03.365,FishGame,2022.1.1,59.8529652061533,
,38,넌 친절해,1,Orange,B,6.041666666666667,5.533333333333333,ScrollUp,ScrollDown,Orange.png,2,Positive,Incongruent,,,,,0,0,0,0,,,,,,,,,,,,,,,,,0,37,37,37,,,,,,,,,,,,,,,,,,,,,,,,,,,,,,,,,,,,,,,,,,,,,,,,,,,,,,,,,,,,,,,,,,,,,,,,,,,,,1.7484567960103354,0.9816088999941712,320.9398160000055,None,ScrollUp,정답입니다,320.9398160000055,None,320.9398160000055,None,320.9398160000055,None,320.9398160000055,None,321.82917360000283,None,321.82917360000283,322.32902810000087,,,,,,,,,,,,,,,,110,2023-04-17_10h45.03.365,FishGame,2022.1.1,59.8529652061533,
,1,넌 엉성해,4,Green,A,3,3.3,ScrollDown,ScrollUp,Green.png,3,Negative,Incongruent,,,,,0,0,0,0,,,,,,,,,,,,,,,,,,,,,0,0,0,0,,,,,,,,,,,,,,,,,,,,,,,,,,,,,,,,354.3596322000012,355.85961379999935,355.89516100000037,356.84520650000195,356.8785014000023,357.8284991000037,357.8284991000037,None,,,,,,,,,,,,,,,,,,,,,,,,,,,,,,,,,,1,1.1679308000020683,358.91575460000604,None,ScrollDown,정답입니다,358.91575460000604,None,358.91575460000604,None,358.91575460000604,None,358.91575460000604,None,359.9950115000029,None,359.9950115000029,360.4949959000005,322.8290927000053,None,322.8290927000053,None,0.24166666,-0.08888889,1,0,0,0.01611399999819696,None,352.828328100004,None,,,110,2023-04-17_10h45.03.365,FishGame,2022.1.1,59.8529652061533,
,2,나를 보내줘,6,Green,A,0,0,ScrollUp,ScrollDown,Green.png,3,NonTarget,NonTarget,,,,,0,0,0,0,,,,,,,,,,,,,,,,,,,,,0,1,1,1,,,,,,,,,,,,,,,,,,,,,,,,,,,,,,,,,,,,,,,,,,,,,,,,,,,,,,,,,,,,,,,,,,,,,,,,,1.6929012313485146,0.962978600000497,361.0985623000015,None,ScrollUp,정답입니다,361.0985623000015,None,361.0985623000015,None,361.0985623000015,None,361.0985623000015,None,361.97820019999926,None,361.97820019999926,362.47615940000105,,,,,,,,,,,,,,,,110,2023-04-17_10h45.03.365,FishGame,2022.1.1,59.8529652061533,
,3,넌 활발해,1,Orange,B,5.666666666666667,5.6,ScrollUp,ScrollDown,Orange.png,3,Positive,Incongruent,,,,,0,0,0,0,,,,,,,,,,,,,,,,,,,,,0,2,2,2,,,,,,,,,,,,,,,,,,,,,,,,,,,,,,,,,,,,,,,,,,,,,,,,,,,,,,,,,,,,,,,,,,,,,,,,,1.7901234477758408,0.8463092000019969,363.0876411000063,None,ScrollUp,정답입니다,363.0876411000063,None,363.0876411000063,None,363.0876411000063,None,363.0876411000063,None,363.8448730000018,None,363.8448730000018,364.3448650000064,,,,,,,,,,,,,,,,110,2023-04-17_10h45.03.365,FishGame,2022.1.1,59.8529652061533,
,4,넌 논리적이야,2,Green,A,5.666666666666666,4.633333333333334,ScrollDown,ScrollUp,Green.png,3,Positive,Congruent,,,,,0,0,0,0,,,,,,,,,,,,,,,,,,,,,0,3,3,3,,,,,,,,,,,,,,,,,,,,,,,,,,,,,,,,,,,,,,,,,,,,,,,,,,,,,,,,,,,,,,,,,,,,,,,,,1.2191358109315236,0.7957403999971575,364.94968840000365,None,ScrollDown,정답입니다,364.94968840000365,None,364.94968840000365,None,364.94968840000365,None,364.94968840000365,None,365.6592404000039,None,365.6592404000039,366.15925450000213,,,,,,,,,,,,,,,,110,2023-04-17_10h45.03.365,FishGame,2022.1.1,59.8529652061533,
,5,넌 과묵해,3,Green,A,3.875,4.4,ScrollDown,ScrollUp,Green.png,3,Neutral,Neutral,,,,,0,0,0,0,,,,,,,,,,,,,,,,,,,,,0,4,4,4,,,,,,,,,,,,,,,,,,,,,,,,,,,,,,,,,,,,,,,,,,,,,,,,,,,,,,,,,,,,,,,,,,,,,,,,,1.0787036915620167,0.7816714000000502,366.7639557000002,None,ScrollDown,정답입니다,366.7639557000002,None,366.7639557000002,None,366.7639557000002,None,366.7639557000002,None,367.4591744999998,None,367.4591744999998,367.95918040000106,,,,,,,,,,,,,,,,110,2023-04-17_10h45.03.365,FishGame,2022.1.1,59.8529652061533,
,6,나를 데려가줘,6,Orange,B,0,0,ScrollDown,ScrollUp,Orange.png,3,NonTarget,NonTarget,,,,,0,0,0,0,,,,,,,,,,,,,,,,,,,,,0,5,5,5,,,,,,,,,,,,,,,,,,,,,,,,,,,,,,,,,,,,,,,,,,,,,,,,,,,,,,,,,,,,,,,,,,,,,,,,,1.0756172637144725,1.031838599999901,368.56827370000246,None,ScrollDown,정답입니다,368.56827370000246,None,368.56827370000246,None,368.56827370000246,None,368.56827370000246,None,369.5116016000029,None,369.5116016000029,370.0148677000034,,,,,,,,,,,,,,,,110,2023-04-17_10h45.03.365,FishGame,2022.1.1,59.8529652061533,
,7,넌 미숙해,4,Orange,B,3,3,ScrollUp,ScrollDown,Orange.png,3,Negative,Congruent,,,,,0,0,0,0,,,,,,,,,,,,,,,,,,,,,0,6,6,6,,,,,,,,,,,,,,,,,,,,,,,,,,,,,,,,,,,,,,,,,,,,,,,,,,,,,,,,,,,,,,,,,,,,,,,,,1.884259248773257,1.0315564999982598,370.61628240000573,None,ScrollUp,정답입니다,370.61628240000573,None,370.61628240000573,None,370.61628240000573,None,370.61628240000573,None,371.5614151000045,None,371.5614151000045,372.0614315999992,,,,,,,,,,,,,,,,110,2023-04-17_10h45.03.365,FishGame,2022.1.1,59.8529652061533,
,8,나를 보내줘,6,Green,A,0,0,ScrollUp,ScrollDown,Green.png,3,NonTarget,NonTarget,,,,,0,0,0,0,,,,,,,,,,,,,,,,,,,,,0,7,7,7,,,,,,,,,,,,,,,,,,,,,,,,,,,,,,,,,,,,,,,,,,,,,,,,,,,,,,,,,,,,,,,,,,,,,,,,,1.9104938358068466,1.0960231999997632,372.669212300003,None,ScrollUp,정답입니다,372.669212300003,None,372.669212300003,None,372.669212300003,None,372.669212300003,None,373.67803920000006,None,373.67803920000006,374.19461350000347,,,,,,,,,,,,,,,,110,2023-04-17_10h45.03.365,FishGame,2022.1.1,59.8529652061533,
,9,넌 자신만만해,3,Orange,B,4.833333333333334,4.333333333333333,ScrollUp,ScrollDown,Orange.png,3,Neutral,Neutral,,,,,0,0,0,0,,,,,,,,,,,,,,,,,,,,,0,8,8,8,,,,,,,,,,,,,,,,,,,,,,,,,,,,,,,,,,,,,,,,,,,,,,,,,,,,,,,,,,,,,,,,,,,,,,,,,1.9290123283863068,1.2959233000001404,374.7845773000008,None,ScrollUp,정답입니다,374.7845773000008,None,374.7845773000008,None,374.7845773000008,None,374.7845773000008,None,375.994591900002,None,375.994591900002,376.4946137000006,,,,,,,,,,,,,,,,110,2023-04-17_10h45.03.365,FishGame,2022.1.1,59.8529652061533,
,10,넌 탐욕스러워,5,Green,A,2.25,2.1,ScrollDown,ScrollUp,Green.png,3,Negative,Incongruent,,,,,0,0,0,0,,,,,,,,,,,,,,,,,,,,,0,9,9,9,,,,,,,,,,,,,,,,,,,,,,,,,,,,,,,,,,,,,,,,,,,,,,,,,,,,,,,,,,,,,,,,,,,,,,,,,1.09413580596447,0.8982813999973587,377.1037901000018,None,ScrollDown,정답입니다,377.1037901000018,None,377.1037901000018,None,377.1037901000018,None,377.1037901000018,None,377.9113257000063,None,377.9113257000063,378.4112177000061,,,,,,,,,,,,,,,,110,2023-04-17_10h45.03.365,FishGame,2022.1.1,59.8529652061533,
,11,넌 인기있어,2,Green,A,5.458333333333333,4.5,ScrollDown,ScrollUp,Green.png,3,Positive,Congruent,,,,,0,0,0,0,,,,,,,,,,,,,,,,,,,,,0,10,10,10,,,,,,,,,,,,,,,,,,,,,,,,,,,,,,,,,,,,,,,,,,,,,,,,,,,,,,,,,,,,,,,,,,,,,,,,,1,1.0794826999990619,379.018768300004,None,ScrollDown,정답입니다,379.018768300004,None,379.018768300004,None,379.018768300004,None,379.018768300004,None,380.01116270000057,None,380.01116270000057,380.51119330000074,,,,,,,,,,,,,,,,110,2023-04-17_10h45.03.365,FishGame,2022.1.1,59.8529652061533,
,12,나를 데려가줘,6,Orange,B,0,0,ScrollDown,ScrollUp,Orange.png,3,NonTarget,NonTarget,,,,,0,0,0,0,,,,,,,,,,,,,,,,,,,,,0,11,11,11,,,,,,,,,,,,,,,,,,,,,,,,,,,,,,,,,,,,,,,,,,,,,,,,,,,,,,,,,,,,,,,,,,,,,,,,,1.0138889054457347,1.09843230000115,381.1153911000001,None,ScrollDown,정답입니다,381.1153911000001,None,381.1153911000001,None,381.1153911000001,None,381.1153911000001,None,382.1258206000057,None,382.1258206000057,382.627845300005,,,,,,,,,,,,,,,,110,2023-04-17_10h45.03.365,FishGame,2022.1.1,59.8529652061533,
,13,넌 뛰어나,2,Orange,B,6.166666666666667,4,ScrollUp,ScrollDown,Orange.png,3,Positive,Incongruent,,,,,0,0,0,0,,,,,,,,,,,,,,,,,,,,,0,12,12,12,,,,,,,,,,,,,,,,,,,,,,,,,,,,,,,,,,,,,,,,,,,,,,,,,,,,,,,,,,,,,,,,,,,,,,,,,2,1.1428890000024694,383.2454605000021,None,ScrollUp,정답입니다,383.2454605000021,None,383.2454605000021,None,383.2454605000021,None,383.2454605000021,None,384.29216460000316,None,384.29216460000316,384.79211270000087,,,,,,,,,,,,,,,,110,2023-04-17_10h45.03.365,FishGame,2022.1.1,59.8529652061533,
,14,넌 낙관적이야,1,Green,A,5.75,5.8,ScrollDown,ScrollUp,Green.png,3,Positive,Congruent,,,,,0,0,0,0,,,,,,,,,,,,,,,,,,,,,0,13,13,13,,,,,,,,,,,,,,,,,,,,,,,,,,,,,,,,,,,,,,,,,,,,,,,,,,,,,,,,,,,,,,,,,,,,,,,,,1,0.9502786000011838,385.3991188,None,ScrollDown,정답입니다,385.3991188,None,385.3991188,None,385.3991188,None,385.3991188,None,386.26128510000126,None,386.26128510000126,386.7611857000011,,,,,,,,,,,,,,,,110,2023-04-17_10h45.03.365,FishGame,2022.1.1,59.8529652061533,
,15,넌 산만해,4,Orange,B,2.695652173913043,3.033333333333333,ScrollUp,ScrollDown,Orange.png,3,Negative,Congruent,,,,,0,0,0,0,,,,,,,,,,,,,,,,,,,,,0,14,14,14,,,,,,,,,,,,,,,,,,,,,,,,,,,,,,,,,,,,,,,,,,,,,,,,,,,,,,,,,,,,,,,,,,,,,,,,,2,0.9983150999978534,387.37035870000545,None,ScrollUp,정답입니다,387.37035870000545,None,387.37035870000545,None,387.37035870000545,None,387.37035870000545,None,388.278069400003,None,388.278069400003,388.7776866999993,,,,,,,,,,,,,,,,110,2023-04-17_10h45.03.365,FishGame,2022.1.1,59.8529652061533,
,16,나를 보내줘,6,Green,A,0,0,ScrollUp,ScrollDown,Green.png,3,NonTarget,NonTarget,,,,,0,0,0,0,,,,,,,,,,,,,,,,,,,,,0,15,15,15,,,,,,,,,,,,,,,,,,,,,,,,,,,,,,,,,,,,,,,,,,,,,,,,,,,,,,,,,,,,,,,,,,,,,,,,,2,1.2463190000053146,389.3811557000008,None,ScrollUp,정답입니다,389.3811557000008,None,389.3811557000008,None,389.3811557000008,None,389.3811557000008,None,390.54434530000435,None,390.54434530000435,391.0442649000033,,,,,,,,,,,,,,,,110,2023-04-17_10h45.03.365,FishGame,2022.1.1,59.8529652061533,
,17,넌 교활해,5,Orange,B,2.333333333333333,2.133333333333333,ScrollUp,ScrollDown,Orange.png,3,Negative,Congruent,,,,,0,0,0,0,,,,,,,,,,,,,,,,,,,,,0,16,16,16,,,,,,,,,,,,,,,,,,,,,,,,,,,,,,,,,,,,,,,,,,,,,,,,,,,,,,,,,,,,,,,,,,,,,,,,,1.8271604826052983,1.3816940000033355,391.65282120000484,None,ScrollUp,정답입니다,391.65282120000484,None,391.65282120000484,None,391.65282120000484,None,391.65282120000484,None,392.9422271000003,None,392.9422271000003,393.44426840000233,,,,,,,,,,,,,,,,110,2023-04-17_10h45.03.365,FishGame,2022.1.1,59.8529652061533,
,18,나를 보내줘,6,Green,A,0,0,ScrollUp,ScrollDown,Green.png,3,NonTarget,NonTarget,,,,,0,0,0,0,,,,,,,,,,,,,,,,,,,,,0,17,17,17,,,,,,,,,,,,,,,,,,,,,,,,,,,,,,,,,,,,,,,,,,,,,,,,,,,,,,,,,,,,,,,,,,,,,,,,,1.884259248773257,1.0651215000034426,394.04670970000006,None,ScrollUp,정답입니다,394.04670970000006,None,394.04670970000006,None,394.04670970000006,None,394.04670970000006,None,395.0275804000048,None,395.0275804000048,395.52762670000084,,,,,,,,,,,,,,,,110,2023-04-17_10h45.03.365,FishGame,2022.1.1,59.8529652061533,
,19,넌 불친절해,5,Orange,B,2.208333333333333,2.033333333333333,ScrollUp,ScrollDown,Orange.png,3,Negative,Congruent,,,,,0,0,0,0,,,,,,,,,,,,,,,,,,,,,0,18,18,18,,,,,,,,,,,,,,,,,,,,,,,,,,,,,,,,,,,,,,,,,,,,,,,,,,,,,,,,,,,,,,,,,,,,,,,,,1.8086419651905696,1.4763290000046254,396.14196220000304,None,ScrollUp,정답입니다,396.14196220000304,None,396.14196220000304,None,396.14196220000304,None,396.14196220000304,None,397.525203600002,None,397.525203600002,398.0251969000019,,,,,,,,,,,,,,,,110,2023-04-17_10h45.03.365,FishGame,2022.1.1,59.8529652061533,
,20,넌 지적이야,2,Orange,B,5.75,4.366666666666666,ScrollUp,ScrollDown,Orange.png,3,Positive,Incongruent,,,,,0,0,0,0,,,,,,,,,,,,,,,,,,,,,0,19,19,19,,,,,,,,,,,,,,,,,,,,,,,,,,,,,,,,,,,,,,,,,,,,,,,,,,,,,,,,,,,,,,,,,,,,,,,,,1.9861110945542653,1.481914299998607,398.638967400002,None,ScrollUp,정답입니다,398.638967400002,None,398.638967400002,None,398.638967400002,None,398.638967400002,None,400.027688400005,None,400.027688400005,400.5276892000038,,,,,,,,,,,,,,,,110,2023-04-17_10h45.03.365,FishGame,2022.1.1,59.8529652061533,
,21,넌 우유부단해,4,Green,A,2.666666666666667,3.166666666666667,ScrollDown,ScrollUp,Green.png,3,Negative,Incongruent,,,,,0,0,0,0,,,,,,,,,,,,,,,,,,,,,0,20,20,20,,,,,,,,,,,,,,,,,,,,,,,,,,,,,,,,,,,,,,,,,,,,,,,,,,,,,,,,,,,,,,,,,,,,,,,,,1,0.9628961000053096,401.13614170000073,None,ScrollDown,정답입니다,401.13614170000073,None,401.13614170000073,None,401.13614170000073,None,401.13614170000073,None,402.0107747000002,None,402.0107747000002,402.51073400000314,,,,,,,,,,,,,,,,110,2023-04-17_10h45.03.365,FishGame,2022.1.1,59.8529652061533,
,22,나를 데려가줘,6,Orange,B,0,0,ScrollDown,ScrollUp,Orange.png,3,NonTarget,NonTarget,,,,,0,0,0,0,,,,,,,,,,,,,,,,,,,,,0,21,21,21,,,,,,,,,,,,,,,,,,,,,,,,,,,,,,,,,,,,,,,,,,,,,,,,,,,,,,,,,,,,,,,,,,,,,,,,,1.0895061641931534,1.281528100000287,403.1170695000037,None,ScrollDown,정답입니다,403.1170695000037,None,403.1170695000037,None,403.1170695000037,None,403.1170695000037,None,404.310868200002,None,404.310868200002,404.81073290000495,,,,,,,,,,,,,,,,110,2023-04-17_10h45.03.365,FishGame,2022.1.1,59.8529652061533,
,23,넌 성실해,1,Orange,B,6.041666666666666,5.7,ScrollUp,ScrollDown,Orange.png,3,Positive,Incongruent,,,,,0,0,0,0,,,,,,,,,,,,,,,,,,,,,0,22,22,22,,,,,,,,,,,,,,,,,,,,,,,,,,,,,,,,,,,,,,,,,,,,,,,,,,,,,,,,,,,,,,,,,,,,,,,,,1.0370370149612427,1.1151441000038176,405.4158150000003,None,ScrollDown,오답입니다,405.4158150000003,None,405.4158150000003,None,405.4158150000003,None,405.4158150000003,None,406.4419302000024,None,406.4419302000024,406.9419519000003,,,,,,,,,,,,,,,,110,2023-04-17_10h45.03.365,FishGame,2022.1.1,59.8529652061533,
,24,넌 현실주의적이야,3,Green,A,4.625,4.4,ScrollDown,ScrollUp,Green.png,3,Neutral,Neutral,,,,,0,0,0,0,,,,,,,,,,,,,,,,,,,,,0,23,23,23,,,,,,,,,,,,,,,,,,,,,,,,,,,,,,,,,,,,,,,,,,,,,,,,,,,,,,,,,,,,,,,,,,,,,,,,,2,1.0317645999966771,407.5492321000056,None,ScrollUp,오답입니다,407.5492321000056,None,407.5492321000056,None,407.5492321000056,None,407.5492321000056,None,408.49410050000006,None,408.49410050000006,408.99399970000377,,,,,,,,,,,,,,,,110,2023-04-17_10h45.03.365,FishGame,2022.1.1,59.8529652061533,
,25,넌 진실돼,1,Green,A,6.625,5.566666666666666,ScrollDown,ScrollUp,Green.png,3,Positive,Congruent,,,,,0,0,0,0,,,,,,,,,,,,,,,,,,,,,0,24,24,24,,,,,,,,,,,,,,,,,,,,,,,,,,,,,,,,,,,,,,,,,,,,,,,,,,,,,,,,,,,,,,,,,,,,,,,,,1.233024686574936,1.5457863999981782,409.5998718000046,None,ScrollDown,정답입니다,409.5998718000046,None,409.5998718000046,None,409.5998718000046,None,409.5998718000046,None,411.05826830000296,None,411.05826830000296,411.5582652000012,,,,,,,,,,,,,,,,110,2023-04-17_10h45.03.365,FishGame,2022.1.1,59.8529652061533,
,26,넌 천진난만해,3,Orange,B,4.958333333333334,4.833333333333333,ScrollUp,ScrollDown,Orange.png,3,Neutral,Neutral,,,,,0,0,0,0,,,,,,,,,,,,,,,,,,,,,0,25,25,25,,,,,,,,,,,,,,,,,,,,,,,,,,,,,,,,,,,,,,,,,,,,,,,,,,,,,,,,,,,,,,,,,,,,,,,,,2,1.083578600002511,412.1676637000055,None,ScrollUp,정답입니다,412.1676637000055,None,412.1676637000055,None,412.1676637000055,None,412.1676637000055,None,413.16083210000215,None,413.16083210000215,413.66064700000425,,,,,,,,,,,,,,,,110,2023-04-17_10h45.03.365,FishGame,2022.1.1,59.8529652061533,
,27,넌 교양없어,5,Green,A,2.416666666666667,2.2,ScrollDown,ScrollUp,Green.png,3,Negative,Incongruent,,,,,0,0,0,0,,,,,,,,,,,,,,,,,,,,,0,26,26,26,,,,,,,,,,,,,,,,,,,,,,,,,,,,,,,,,,,,,,,,,,,,,,,,,,,,,,,,,,,,,,,,,,,,,,,,,1.1141975373029709,1.2628205999935744,414.26777720000246,None,ScrollDown,정답입니다,414.26777720000246,None,414.26777720000246,None,414.26777720000246,None,414.26777720000246,None,415.4437653000059,None,415.4437653000059,415.94387010000355,,,,,,,,,,,,,,,,110,2023-04-17_10h45.03.365,FishGame,2022.1.1,59.8529652061533,
,28,나를 보내줘,6,Green,A,0,0,ScrollUp,ScrollDown,Green.png,3,NonTarget,NonTarget,,,,,0,0,0,0,,,,,,,,,,,,,,,,,,,,,0,27,27,27,,,,,,,,,,,,,,,,,,,,,,,,,,,,,,,,,,,,,,,,,,,,,,,,,,,,,,,,,,,,,,,,,,,,,,,,,2,1.5817200000019511,416.54772590000357,None,ScrollUp,정답입니다,416.54772590000357,None,416.54772590000357,None,416.54772590000357,None,416.54772590000357,None,418.0438155000011,None,418.0438155000011,418.5416139000008,,,,,,,,,,,,,,,,110,2023-04-17_10h45.03.365,FishGame,2022.1.1,59.8529652061533,
,29,넌 엉뚱스러워,3,Green,A,4.166666666666667,4.133333333333334,ScrollDown,ScrollUp,Green.png,3,Neutral,Neutral,,,,,0,0,0,0,,,,,,,,,,,,,,,,,,,,,0,28,28,28,,,,,,,,,,,,,,,,,,,,,,,,,,,,,,,,,,,,,,,,,,,,,,,,,,,,,,,,,,,,,,,,,,,,,,,,,1.0864197611808777,1.2817630999998073,419.150913700003,None,ScrollDown,정답입니다,419.150913700003,None,419.150913700003,None,419.150913700003,None,419.150913700003,None,420.34166489999916,None,420.34166489999916,420.84368650000397,,,,,,,,,,,,,,,,110,2023-04-17_10h45.03.365,FishGame,2022.1.1,59.8529652061533,
,30,넌 무지해,4,Orange,B,2.541666666666667,3.066666666666667,ScrollUp,ScrollDown,Orange.png,3,Negative,Congruent,,,,,0,0,0,0,,,,,,,,,,,,,,,,,,,,,0,29,29,29,,,,,,,,,,,,,,,,,,,,,,,,,,,,,,,,,,,,,,,,,,,,,,,,,,,,,,,,,,,,,,,,,,,,,,,,,2,1.2318900999962352,421.4497351000027,None,ScrollUp,정답입니다,421.4497351000027,None,421.4497351000027,None,421.4497351000027,None,421.4497351000027,None,422.59384140000475,None,422.59384140000475,423.0937086000049,,,,,,,,,,,,,,,,110,2023-04-17_10h45.03.365,FishGame,2022.1.1,59.8529652061533,
,31,넌 음울해,5,Orange,B,2.25,2.233333333333333,ScrollUp,ScrollDown,Orange.png,3,Negative,Congruent,,,,,0,0,0,0,,,,,,,,,,,,,,,,,,,,,0,30,30,30,,,,,,,,,,,,,,,,,,,,,,,,,,,,,,,,,,,,,,,,,,,,,,,,,,,,,,,,,,,,,,,,,,,,,,,,,2,0.9793229999995674,423.7044227000006,None,ScrollUp,정답입니다,423.7044227000006,None,423.7044227000006,None,423.7044227000006,None,423.7044227000006,None,424.59368550000363,None,424.59368550000363,425.0935957000038,,,,,,,,,,,,,,,,110,2023-04-17_10h45.03.365,FishGame,2022.1.1,59.8529652061533,
,32,넌 냉소적이야,5,Green,A,2.916666666666667,2.4,ScrollDown,ScrollUp,Green.png,3,Negative,Incongruent,,,,,0,0,0,0,,,,,,,,,,,,,,,,,,,,,0,31,31,31,,,,,,,,,,,,,,,,,,,,,,,,,,,,,,,,,,,,,,,,,,,,,,,,,,,,,,,,,,,,,,,,,,,,,,,,,1,1.181581600001664,425.6970371000061,None,ScrollDown,정답입니다,425.6970371000061,None,425.6970371000061,None,425.6970371000061,None,425.6970371000061,None,426.7915901000015,None,426.7915901000015,427.29361630000494,,,,,,,,,,,,,,,,110,2023-04-17_10h45.03.365,FishGame,2022.1.1,59.8529652061533,
,33,나를 데려가줘,6,Orange,B,0,0,ScrollDown,ScrollUp,Orange.png,3,NonTarget,NonTarget,,,,,0,0,0,0,,,,,,,,,,,,,,,,,,,,,0,32,32,32,,,,,,,,,,,,,,,,,,,,,,,,,,,,,,,,,,,,,,,,,,,,,,,,,,,,,,,,,,,,,,,,,,,,,,,,,1.121913582086563,1.2129572000048938,427.89800280000054,None,ScrollDown,정답입니다,427.89800280000054,None,427.89800280000054,None,427.89800280000054,None,427.89800280000054,None,429.02687100000185,None,429.02687100000185,429.54351470000256,,,,,,,,,,,,,,,,110,2023-04-17_10h45.03.365,FishGame,2022.1.1,59.8529652061533,
,34,넌 쾌활해,1,Green,A,5.541666666666666,5.733333333333333,ScrollDown,ScrollUp,Green.png,3,Positive,Congruent,,,,,0,0,0,0,,,,,,,,,,,,,,,,,,,,,0,33,33,33,,,,,,,,,,,,,,,,,,,,,,,,,,,,,,,,,,,,,,,,,,,,,,,,,,,,,,,,,,,,,,,,,,,,,,,,,1.182098776102066,1.5318270999996457,430.13312180000503,None,ScrollDown,정답입니다,430.13312180000503,None,430.13312180000503,None,430.13312180000503,None,430.13312180000503,None,431.57690520000324,None,431.57690520000324,432.07687300000543,,,,,,,,,,,,,,,,110,2023-04-17_10h45.03.365,FishGame,2022.1.1,59.8529652061533,
,35,나를 보내줘,6,Green,A,0,0,ScrollUp,ScrollDown,Green.png,3,NonTarget,NonTarget,,,,,0,0,0,0,,,,,,,,,,,,,,,,,,,,,0,34,34,34,,,,,,,,,,,,,,,,,,,,,,,,,,,,,,,,,,,,,,,,,,,,,,,,,,,,,,,,,,,,,,,,,,,,,,,,,1.9012345770994823,1.0961611999955494,432.68601290000515,None,ScrollUp,정답입니다,432.68601290000515,None,432.68601290000515,None,432.68601290000515,None,432.68601290000515,None,433.6911875000005,None,433.6911875000005,434.1911429000029,,,,,,,,,,,,,,,,110,2023-04-17_10h45.03.365,FishGame,2022.1.1,59.8529652061533,
,36,넌 명랑해,1,Orange,B,5.739130434782609,5.666666666666667,ScrollUp,ScrollDown,Orange.png,3,Positive,Incongruent,,,,,0,0,0,0,,,,,,,,,,,,,,,,,,,,,0,35,35,35,,,,,,,,,,,,,,,,,,,,,,,,,,,,,,,,,,,,,,,,,,,,,,,,,,,,,,,,,,,,,,,,,,,,,,,,,1.9706790049870808,1.6817789999986417,434.8002138000011,None,ScrollUp,정답입니다,434.8002138000011,None,434.8002138000011,None,434.8002138000011,None,434.8002138000011,None,436.3937198000058,None,436.3937198000058,436.8935446000032,,,,,,,,,,,,,,,,110,2023-04-17_10h45.03.365,FishGame,2022.1.1,59.8529652061533,
,37,넌 멍해,4,Green,A,2.833333333333333,3.4,ScrollDown,ScrollUp,Green.png,3,Negative,Incongruent,,,,,0,0,0,0,,,,,,,,,,,,,,,,,,,,,0,36,36,36,,,,,,,,,,,,,,,,,,,,,,,,,,,,,,,,,,,,,,,,,,,,,,,,,,,,,,,,,,,,,,,,,,,,,,,,,1.0185184975465138,1.1459751000002143,437.5056085000033,None,ScrollDown,정답입니다,437.5056085000033,None,437.5056085000033,None,437.5056085000033,None,437.5056085000033,None,438.55775050000375,None,438.55775050000375,439.0576940000028,,,,,,,,,,,,,,,,110,2023-04-17_10h45.03.365,FishGame,2022.1.1,59.8529652061533,
,38,나를 데려가줘,6,Orange,B,0,0,ScrollDown,ScrollUp,Orange.png,3,NonTarget,NonTarget,,,,,0,0,0,0,,,,,,,,,,,,,,,,,,,,,0,37,37,37,,,,,,,,,,,,,,,,,,,,,,,,,,,,,,,,,,,,,,,,,,,,,,,,,,,,,,,,,,,,,,,,,,,,,,,,,1.8935185074806213,1.1505647999947541,439.6638744000011,None,ScrollUp,오답입니다,439.6638744000011,None,439.6638744000011,None,439.6638744000011,None,439.6638744000011,None,440.7269601000007,None,440.7269601000007,441.2267673000024,,,,,,,,,,,,,,,,110,2023-04-17_10h45.03.365,FishGame,2022.1.1,59.8529652061533,
,39,넌 현명해,2,Green,A,6.541666666666666,4.533333333333333,ScrollDown,ScrollUp,Green.png,3,Positive,Congruent,,,,,0,0,0,0,,,,,,,,,,,,,,,,,,,,,0,38,38,38,,,,,,,,,,,,,,,,,,,,,,,,,,,,,,,,,,,,,,,,,,,,,,,,,,,,,,,,,,,,,,,,,,,,,,,,,1,1.098031000001356,441.8307225000026,None,ScrollDown,정답입니다,441.8307225000026,None,441.8307225000026,None,441.8307225000026,None,441.8307225000026,None,442.8412527000037,None,442.8412527000037,443.34328169999935,,,,,,,,,,,,,,,,110,2023-04-17_10h45.03.365,FishGame,2022.1.1,59.8529652061533,
,40,넌 수줍어,3,Orange,B,3.541666666666666,4.366666666666666,ScrollUp,ScrollDown,Orange.png,3,Neutral,Neutral,,,,,0,0,0,0,,,,,,,,,,,,,,,,,,,,,0,39,39,39,,,,,,,,,,,,,,,,,,,,,,,,,,,,,,,,,,,,,,,,,,,,,,,,,,,,,,,,,,,,,,,,,,,,,,,,,2,1.581860999998753,443.9528685000041,None,ScrollUp,정답입니다,443.9528685000041,None,443.9528685000041,None,443.9528685000041,None,443.9528685000041,None,445.4434506000034,None,445.4434506000034,445.9432172000015,,,,,,,,,,,,,,,,110,2023-04-17_10h45.03.365,FishGame,2022.1.1,59.8529652061533,
,41,나를 데려가줘,6,Orange,B,0,0,ScrollDown,ScrollUp,Orange.png,3,NonTarget,NonTarget,,,,,0,0,0,0,,,,,,,,,,,,,,,,,,,,,0,40,40,40,,,,,,,,,,,,,,,,,,,,,,,,,,,,,,,,,,,,,,,,,,,,,,,,,,,,,,,,,,,,,,,,,,,,,,,,,1.1172839403152466,1.8815549999999348,446.55013200000394,None,ScrollDown,정답입니다,446.55013200000394,None,446.55013200000394,None,446.55013200000394,None,446.55013200000394,None,448.3409619000013,None,448.3409619000013,448.84317900000315,,,,,,,,,,,,,,,,110,2023-04-17_10h45.03.365,FishGame,2022.1.1,59.8529652061533,
,42,넌 성숙해,2,Orange,B,5.833333333333333,4.533333333333333,ScrollUp,ScrollDown,Orange.png,3,Positive,Incongruent,,,,,0,0,0,0,,,,,,,,,,,,,,,,,,,,,0,41,41,41,,,,,,,,,,,,,,,,,,,,,,,,,,,,,,,,,,,,,,,,,,,,,,,,,,,,,,,,,,,,,,,,,,,,,,,,,1.9413580397764842,0.998042200000782,449.4488328000007,None,ScrollUp,정답입니다,449.4488328000007,None,449.4488328000007,None,449.4488328000007,None,449.4488328000007,None,450.35764650000056,None,450.35764650000056,450.8598493000027,,,,,,,,,,,,,,,,110,2023-04-17_10h45.03.365,FishGame,2022.1.1,59.8529652061533,
,1,넌 매력적이야,2,Orange,B,6.125,4.666666666666667,ScrollUp,ScrollDown,Orange.png,4,Positive,Incongruent,,,,,0,0,0,0,,,,,,,,,,,,,,,,,,,,,,,,,0,0,0,0,,,,,,,,,,,,,,,,,,,,,,,,,,,,485.3423605000062,486.8425564999998,486.8758703000058,487.8259021000049,487.8759805000009,488.8259509000054,488.8259509000054,None,,,,,,,,,,,,,,,,,,,,,,,,,,,,,,,,,,1.983024666706721,1.279180900004576,489.92564739999943,None,ScrollUp,정답입니다,489.92564739999943,None,489.92564739999943,None,489.92564739999943,None,489.92564739999943,None,491.1089468000064,None,491.1089468000064,491.6089443000019,451.3632362999997,None,451.3632362999997,None,0.23055555,-0.096296296,1,0,0,0.016336799999407958,None,481.37375299999985,None,,,110,2023-04-17_10h45.03.365,FishGame,2022.1.1,59.8529652061533,
,2,나를 보내줘,6,Green,A,0,0,ScrollUp,ScrollDown,Green.png,4,NonTarget,NonTarget,,,,,0,0,0,0,,,,,,,,,,,,,,,,,,,,,,,,,0,1,1,1,,,,,,,,,,,,,,,,,,,,,,,,,,,,,,,,,,,,,,,,,,,,,,,,,,,,,,,,,,,,,,,,,,,,,1.8472222139437993,1.2146512999970582,492.21081640000193,None,ScrollUp,정답입니다,492.21081640000193,None,492.21081640000193,None,492.21081640000193,None,492.21081640000193,None,493.3402600000045,None,493.3402600000045,493.84233640000457,,,,,,,,,,,,,,,,110,2023-04-17_10h45.03.365,FishGame,2022.1.1,59.8529652061533,
,3,넌 조심스러워,3,Green,A,4.791666666666666,4.666666666666667,ScrollDown,ScrollUp,Green.png,4,Neutral,Neutral,,,,,0,0,0,0,,,,,,,,,,,,,,,,,,,,,,,,,0,2,2,2,,,,,,,,,,,,,,,,,,,,,,,,,,,,,,,,,,,,,,,,,,,,,,,,,,,,,,,,,,,,,,,,,,,,,1.341049388051033,1.2818669999978738,494.44631140000274,None,ScrollDown,정답입니다,494.44631140000274,None,494.44631140000274,None,494.44631140000274,None,494.44631140000274,None,495.64225580000493,None,495.64225580000493,496.1422586000044,,,,,,,,,,,,,,,,110,2023-04-17_10h45.03.365,FishGame,2022.1.1,59.8529652061533,
,4,넌 철학적이야,3,Orange,B,4.5,4.266666666666667,ScrollUp,ScrollDown,Orange.png,4,Neutral,Neutral,,,,,0,0,0,0,,,,,,,,,,,,,,,,,,,,,,,,,0,3,3,3,,,,,,,,,,,,,,,,,,,,,,,,,,,,,,,,,,,,,,,,,,,,,,,,,,,,,,,,,,,,,,,,,,,,,1.825617293516795,0.9318415000016103,496.75222040000517,None,ScrollUp,정답입니다,496.75222040000517,None,496.75222040000517,None,496.75222040000517,None,496.75222040000517,None,497.59222800000134,None,497.59222800000134,498.09222020000016,,,,,,,,,,,,,,,,110,2023-04-17_10h45.03.365,FishGame,2022.1.1,59.8529652061533,
,5,넌 쩨쩨해,5,Green,A,2.375,2.133333333333333,ScrollDown,ScrollUp,Green.png,4,Negative,Incongruent,,,,,0,0,0,0,,,,,,,,,,,,,,,,,,,,,,,,,0,4,4,4,,,,,,,,,,,,,,,,,,,,,,,,,,,,,,,,,,,,,,,,,,,,,,,,,,,,,,,,,,,,,,,,,,,,,1.2638888905445733,1.0148794999986421,498.69808410000405,None,ScrollDown,정답입니다,498.69808410000405,None,498.69808410000405,None,498.69808410000405,None,498.69808410000405,None,499.62548190000234,None,499.62548190000234,500.12545220000175,,,,,,,,,,,,,,,,110,2023-04-17_10h45.03.365,FishGame,2022.1.1,59.8529652061533,
,6,나를 데려가줘,6,Orange,B,0,0,ScrollDown,ScrollUp,Orange.png,4,NonTarget,NonTarget,,,,,0,0,0,0,,,,,,,,,,,,,,,,,,,,,,,,,0,5,5,5,,,,,,,,,,,,,,,,,,,,,,,,,,,,,,,,,,,,,,,,,,,,,,,,,,,,,,,,,,,,,,,,,,,,,1.939814825852712,1.2982988000003388,500.7283183000036,None,ScrollUp,오답입니다,500.7283183000036,None,500.7283183000036,None,500.7283183000036,None,500.7283183000036,None,501.94005710000056,None,501.94005710000056,502.44211980000546,,,,,,,,,,,,,,,,110,2023-04-17_10h45.03.365,FishGame,2022.1.1,59.8529652061533,
,7,넌 고집불통이야,5,Orange,B,2.875,2,ScrollUp,ScrollDown,Orange.png,4,Negative,Congruent,,,,,0,0,0,0,,,,,,,,,,,,,,,,,,,,,,,,,0,6,6,6,,,,,,,,,,,,,,,,,,,,,,,,,,,,,,,,,,,,,,,,,,,,,,,,,,,,,,,,,,,,,,,,,,,,,1.194444437821706,0.931671100006497,503.05259320000187,None,ScrollDown,오답입니다,503.05259320000187,None,503.05259320000187,None,503.05259320000187,None,503.05259320000187,None,503.8921498000054,None,503.8921498000054,504.39205930000026,,,,,,,,,,,,,,,,110,2023-04-17_10h45.03.365,FishGame,2022.1.1,59.8529652061533,
,8,넌 무심해,4,Green,A,2.875,3.2,ScrollDown,ScrollUp,Green.png,4,Negative,Incongruent,,,,,0,0,0,0,,,,,,,,,,,,,,,,,,,,,,,,,0,7,7,7,,,,,,,,,,,,,,,,,,,,,,,,,,,,,,,,,,,,,,,,,,,,,,,,,,,,,,,,,,,,,,,,,,,,,1.1728395173947017,0.9315686999980244,504.9958687000035,None,ScrollDown,정답입니다,504.9958687000035,None,504.9958687000035,None,504.9958687000035,None,504.9958687000035,None,505.83997510000336,None,505.83997510000336,506.3420011000053,,,,,,,,,,,,,,,,110,2023-04-17_10h45.03.365,FishGame,2022.1.1,59.8529652061533,
,9,넌 정겨워,1,Green,A,5.791666666666667,5.666666666666667,ScrollDown,ScrollUp,Green.png,4,Positive,Congruent,,,,,0,0,0,0,,,,,,,,,,,,,,,,,,,,,,,,,0,8,8,8,,,,,,,,,,,,,,,,,,,,,,,,,,,,,,,,,,,,,,,,,,,,,,,,,,,,,,,,,,,,,,,,,,,,,1.080246905485789,1.0317764000064926,506.94958820000465,None,ScrollDown,정답입니다,506.94958820000465,None,506.94958820000465,None,506.94958820000465,None,506.94958820000465,None,507.88993880000635,None,507.88993880000635,508.39199190000363,,,,,,,,,,,,,,,,110,2023-04-17_10h45.03.365,FishGame,2022.1.1,59.8529652061533,
,10,나를 데려가줘,6,Orange,B,0,0,ScrollDown,ScrollUp,Orange.png,4,NonTarget,NonTarget,,,,,0,0,0,0,,,,,,,,,,,,,,,,,,,,,,,,,0,9,9,9,,,,,,,,,,,,,,,,,,,,,,,,,,,,,,,,,,,,,,,,,,,,,,,,,,,,,,,,,,,,,,,,,,,,,1.2438271592060726,0.19851489999564365,508.9992581000042,None,ScrollDown,정답입니다,508.9992581000042,None,508.9992581000042,None,508.9992581000042,None,508.9992581000042,None,509.10868910000136,None,509.10868910000136,509.60857670000405,,,,,,,,,,,,,,,,110,2023-04-17_10h45.03.365,FishGame,2022.1.1,59.8529652061533,
,11,넌 체제순응적이야,4,Orange,B,3,3.6,ScrollUp,ScrollDown,Orange.png,4,Negative,Congruent,,,,,0,0,0,0,,,,,,,,,,,,,,,,,,,,,,,,,0,10,10,10,,,,,,,,,,,,,,,,,,,,,,,,,,,,,,,,,,,,,,,,,,,,,,,,,,,,,,,,,,,,,,,,,,,,,2,1.131704899999022,510.2218772000051,None,ScrollUp,정답입니다,510.2218772000051,None,510.2218772000051,None,510.2218772000051,None,510.2218772000051,None,511.2586150000061,None,511.2586150000061,511.7585612000039,,,,,,,,,,,,,,,,110,2023-04-17_10h45.03.365,FishGame,2022.1.1,59.8529652061533,
,12,나를 보내줘,6,Green,A,0,0,ScrollUp,ScrollDown,Green.png,4,NonTarget,NonTarget,,,,,0,0,0,0,,,,,,,,,,,,,,,,,,,,,,,,,0,11,11,11,,,,,,,,,,,,,,,,,,,,,,,,,,,,,,,,,,,,,,,,,,,,,,,,,,,,,,,,,,,,,,,,,,,,,1.8333333383003871,1.3485622000007425,512.3609944000054,None,ScrollUp,정답입니다,512.3609944000054,None,512.3609944000054,None,512.3609944000054,None,512.3609944000054,None,513.6253560000041,None,513.6253560000041,514.1252707000021,,,,,,,,,,,,,,,,110,2023-04-17_10h45.03.365,FishGame,2022.1.1,59.8529652061533,
,13,넌 박식해,2,Green,A,5.625,3.933333333333333,ScrollDown,ScrollUp,Green.png,4,Positive,Congruent,,,,,0,0,0,0,,,,,,,,,,,,,,,,,,,,,,,,,0,12,12,12,,,,,,,,,,,,,,,,,,,,,,,,,,,,,,,,,,,,,,,,,,,,,,,,,,,,,,,,,,,,,,,,,,,,,1.1774691343307495,0.8950285999962944,514.7333104000063,None,ScrollDown,정답입니다,514.7333104000063,None,514.7333104000063,None,514.7333104000063,None,514.7333104000063,None,515.5418673000022,None,515.5418673000022,516.0419285000025,,,,,,,,,,,,,,,,110,2023-04-17_10h45.03.365,FishGame,2022.1.1,59.8529652061533,
,14,나를 보내줘,6,Green,A,0,0,ScrollUp,ScrollDown,Green.png,4,NonTarget,NonTarget,,,,,0,0,0,0,,,,,,,,,,,,,,,,,,,,,,,,,0,13,13,13,,,,,,,,,,,,,,,,,,,,,,,,,,,,,,,,,,,,,,,,,,,,,,,,,,,,,,,,,,,,,,,,,,,,,1.8132716069618862,0.9484104999937699,516.645305900005,None,ScrollUp,정답입니다,516.645305900005,None,516.645305900005,None,516.645305900005,None,516.645305900005,None,517.5085994000037,None,517.5085994000037,518.0084438000049,,,,,,,,,,,,,,,,110,2023-04-17_10h45.03.365,FishGame,2022.1.1,59.8529652061533,
,15,넌 침착해,1,Orange,B,5.458333333333333,5.566666666666666,ScrollUp,ScrollDown,Orange.png,4,Positive,Incongruent,,,,,0,0,0,0,,,,,,,,,,,,,,,,,,,,,,,,,0,14,14,14,,,,,,,,,,,,,,,,,,,,,,,,,,,,,,,,,,,,,,,,,,,,,,,,,,,,,,,,,,,,,,,,,,,,,1.8101851791143417,1.1154655999998795,518.621312700001,None,ScrollUp,정답입니다,518.621312700001,None,518.621312700001,None,518.621312700001,None,518.621312700001,None,519.6396681000042,None,519.6396681000042,520.1417247999998,,,,,,,,,,,,,,,,110,2023-04-17_10h45.03.365,FishGame,2022.1.1,59.8529652061533,
,16,나를 데려가줘,6,Orange,B,0,0,ScrollDown,ScrollUp,Orange.png,4,NonTarget,NonTarget,,,,,0,0,0,0,,,,,,,,,,,,,,,,,,,,,,,,,0,15,15,15,,,,,,,,,,,,,,,,,,,,,,,,,,,,,,,,,,,,,,,,,,,,,,,,,,,,,,,,,,,,,,,,,,,,,1,1.4652109000016935,520.7472230999992,None,ScrollDown,정답입니다,520.7472230999992,None,520.7472230999992,None,520.7472230999992,None,520.7472230999992,None,522.1250437000053,None,522.1250437000053,522.6250782000061,,,,,,,,,,,,,,,,110,2023-04-17_10h45.03.365,FishGame,2022.1.1,59.8529652061533,
,17,넌 행복해,1,Green,A,6.416666666666666,6.166666666666667,ScrollDown,ScrollUp,Green.png,4,Positive,Congruent,,,,,0,0,0,0,,,,,,,,,,,,,,,,,,,,,,,,,0,16,16,16,,,,,,,,,,,,,,,,,,,,,,,,,,,,,,,,,,,,,,,,,,,,,,,,,,,,,,,,,,,,,,,,,,,,,1.8456790000200272,0.9960127000013017,523.2436385000037,None,ScrollUp,오답입니다,523.2436385000037,None,523.2436385000037,None,523.2436385000037,None,523.2436385000037,None,524.1393536000032,None,524.1393536000032,524.6393502999999,,,,,,,,,,,,,,,,110,2023-04-17_10h45.03.365,FishGame,2022.1.1,59.8529652061533,
,18,넌 겸손해,2,Orange,B,5.791666666666667,4.766666666666667,ScrollUp,ScrollDown,Orange.png,4,Positive,Incongruent,,,,,0,0,0,0,,,,,,,,,,,,,,,,,,,,,,,,,0,17,17,17,,,,,,,,,,,,,,,,,,,,,,,,,,,,,,,,,,,,,,,,,,,,,,,,,,,,,,,,,,,,,,,,,,,,,1.1358024577299755,1.3152674999946612,525.2475266000038,None,ScrollDown,오답입니다,525.2475266000038,None,525.2475266000038,None,525.2475266000038,None,525.2475266000038,None,526.4751555000039,None,526.4751555000039,526.975081800003,,,,,,,,,,,,,,,,110,2023-04-17_10h45.03.365,FishGame,2022.1.1,59.8529652061533,
,19,나를 보내줘,6,Green,A,0,0,ScrollUp,ScrollDown,Green.png,4,NonTarget,NonTarget,,,,,0,0,0,0,,,,,,,,,,,,,,,,,,,,,,,,,0,18,18,18,,,,,,,,,,,,,,,,,,,,,,,,,,,,,,,,,,,,,,,,,,,,,,,,,,,,,,,,,,,,,,,,,,,,,1.7608024577299755,1.0458744000061415,527.5809765000013,None,ScrollUp,정답입니다,527.5809765000013,None,527.5809765000013,None,527.5809765000013,None,527.5809765000013,None,528.5392721000026,None,528.5392721000026,529.0392645000029,,,,,,,,,,,,,,,,110,2023-04-17_10h45.03.365,FishGame,2022.1.1,59.8529652061533,
,20,넌 의심없어,3,Green,A,4.166666666666667,4.6,ScrollDown,ScrollUp,Green.png,4,Neutral,Neutral,,,,,0,0,0,0,,,,,,,,,,,,,,,,,,,,,,,,,0,19,19,19,,,,,,,,,,,,,,,,,,,,,,,,,,,,,,,,,,,,,,,,,,,,,,,,,,,,,,,,,,,,,,,,,,,,,1.2083333383003871,0.9983854000020074,529.637850900006,None,ScrollDown,정답입니다,529.637850900006,None,529.637850900006,None,529.637850900006,None,529.637850900006,None,530.555952900002,None,530.555952900002,531.0559286000062,,,,,,,,,,,,,,,,110,2023-04-17_10h45.03.365,FishGame,2022.1.1,59.8529652061533,
,21,넌 시시해,4,Green,A,2.666666666666667,2.966666666666667,ScrollDown,ScrollUp,Green.png,4,Negative,Incongruent,,,,,0,0,0,0,,,,,,,,,,,,,,,,,,,,,,,,,0,20,20,20,,,,,,,,,,,,,,,,,,,,,,,,,,,,,,,,,,,,,,,,,,,,,,,,,,,,,,,,,,,,,,,,,,,,,1.1481481442848842,1.0628900000010617,531.6624080000038,None,ScrollDown,정답입니다,531.6624080000038,None,531.6624080000038,None,531.6624080000038,None,531.6624080000038,None,532.6416537000041,None,532.6416537000041,533.1448357000045,,,,,,,,,,,,,,,,110,2023-04-17_10h45.03.365,FishGame,2022.1.1,59.8529652061533,
,22,나를 데려가줘,6,Orange,B,0,0,ScrollDown,ScrollUp,Orange.png,4,NonTarget,NonTarget,,,,,0,0,0,0,,,,,,,,,,,,,,,,,,,,,,,,,0,21,21,21,,,,,,,,,,,,,,,,,,,,,,,,,,,,,,,,,,,,,,,,,,,,,,,,,,,,,,,,,,,,,,,,,,,,,1,1.5649095000044326,533.7477016000048,None,ScrollDown,정답입니다,533.7477016000048,None,533.7477016000048,None,533.7477016000048,None,533.7477016000048,None,535.224878400004,None,535.224878400004,535.7248284000016,,,,,,,,,,,,,,,,110,2023-04-17_10h45.03.365,FishGame,2022.1.1,59.8529652061533,
,23,넌 무정해,5,Green,A,2.5,2.2,ScrollDown,ScrollUp,Green.png,4,Negative,Incongruent,,,,,0,0,0,0,,,,,,,,,,,,,,,,,,,,,,,,,0,22,22,22,,,,,,,,,,,,,,,,,,,,,,,,,,,,,,,,,,,,,,,,,,,,,,,,,,,,,,,,,,,,,,,,,,,,,1,1.2294209000028786,536.3272531000039,None,ScrollDown,정답입니다,536.3272531000039,None,536.3272531000039,None,536.3272531000039,None,536.3272531000039,None,537.4747779000027,None,537.4747779000027,537.9747494000039,,,,,,,,,,,,,,,,110,2023-04-17_10h45.03.365,FishGame,2022.1.1,59.8529652061533,
,24,넌 긍정적이야,1,Orange,B,6.041666666666667,6.066666666666666,ScrollUp,ScrollDown,Orange.png,4,Positive,Incongruent,,,,,0,0,0,0,,,,,,,,,,,,,,,,,,,,,,,,,0,23,23,23,,,,,,,,,,,,,,,,,,,,,,,,,,,,,,,,,,,,,,,,,,,,,,,,,,,,,,,,,,,,,,,,,,,,,1.8441358109315236,1.2984544999999343,538.5815038000001,None,ScrollUp,정답입니다,538.5815038000001,None,538.5815038000001,None,538.5815038000001,None,538.5815038000001,None,539.7914357000045,None,539.7914357000045,540.2914061000047,,,,,,,,,,,,,,,,110,2023-04-17_10h45.03.365,FishGame,2022.1.1,59.8529652061533,
,25,나를 보내줘,6,Green,A,0,0,ScrollUp,ScrollDown,Green.png,4,NonTarget,NonTarget,,,,,0,0,0,0,,,,,,,,,,,,,,,,,,,,,,,,,0,24,24,24,,,,,,,,,,,,,,,,,,,,,,,,,,,,,,,,,,,,,,,,,,,,,,,,,,,,,,,,,,,,,,,,,,,,,1.8132716069618862,1.6151143000024604,540.9008472999994,None,ScrollUp,정답입니다,540.9008472999994,None,540.9008472999994,None,540.9008472999994,None,540.9008472999994,None,542.422575800003,None,542.422575800003,542.9246428000042,,,,,,,,,,,,,,,,110,2023-04-17_10h45.03.365,FishGame,2022.1.1,59.8529652061533,
,26,넌 시기심이 많아,5,Orange,B,2.458333333333333,2.233333333333333,ScrollUp,ScrollDown,Orange.png,4,Negative,Congruent,,,,,0,0,0,0,,,,,,,,,,,,,,,,,,,,,,,,,0,25,25,25,,,,,,,,,,,,,,,,,,,,,,,,,,,,,,,,,,,,,,,,,,,,,,,,,,,,,,,,,,,,,,,,,,,,,1.6898148159186044,1.2983860000022105,543.5352650999994,None,ScrollUp,정답입니다,543.5352650999994,None,543.5352650999994,None,543.5352650999994,None,543.5352650999994,None,544.7412776000056,None,544.7412776000056,545.2445246000061,,,,,,,,,,,,,,,,110,2023-04-17_10h45.03.365,FishGame,2022.1.1,59.8529652061533,
,27,넌 탁월해,2,Green,A,5.708333333333334,4.5,ScrollDown,ScrollUp,Green.png,4,Positive,Congruent,,,,,0,0,0,0,,,,,,,,,,,,,,,,,,,,,,,,,0,26,26,26,,,,,,,,,,,,,,,,,,,,,,,,,,,,,,,,,,,,,,,,,,,,,,,,,,,,,,,,,,,,,,,,,,,,,1.060185174147288,1.081833699994604,545.8460949,None,ScrollDown,정답입니다,545.8460949,None,545.8460949,None,545.8460949,None,545.8460949,None,546.8391604999997,None,546.8391604999997,547.3411902000007,,,,,,,,,,,,,,,,110,2023-04-17_10h45.03.365,FishGame,2022.1.1,59.8529652061533,
,28,나를 데려가줘,6,Orange,B,0,0,ScrollDown,ScrollUp,Orange.png,4,NonTarget,NonTarget,,,,,0,0,0,0,,,,,,,,,,,,,,,,,,,,,,,,,0,27,27,27,,,,,,,,,,,,,,,,,,,,,,,,,,,,,,,,,,,,,,,,,,,,,,,,,,,,,,,,,,,,,,,,,,,,,1.1280864129463832,1.3983513000057428,547.9475340000063,None,ScrollDown,정답입니다,547.9475340000063,None,547.9475340000063,None,547.9475340000063,None,547.9475340000063,None,549.2578538000016,None,549.2578538000016,549.7745379000044,,,,,,,,,,,,,,,,110,2023-04-17_10h45.03.365,FishGame,2022.1.1,59.8529652061533,
,29,넌 조용해,3,Orange,B,4.333333333333333,4.166666666666667,ScrollUp,ScrollDown,Orange.png,4,Neutral,Neutral,,,,,0,0,0,0,,,,,,,,,,,,,,,,,,,,,,,,,0,28,28,28,,,,,,,,,,,,,,,,,,,,,,,,,,,,,,,,,,,,,,,,,,,,,,,,,,,,,,,,,,,,,,,,,,,,,1.67746914178133,2.0120660999964457,550.3701961000043,None,ScrollUp,정답입니다,550.3701961000043,None,550.3701961000043,None,550.3701961000043,None,550.3701961000043,None,552.2911333000011,None,552.2911333000011,552.7911454000059,,,,,,,,,,,,,,,,110,2023-04-17_10h45.03.365,FishGame,2022.1.1,59.8529652061533,
,30,넌 다정해,1,Green,A,5.833333333333334,5.7,ScrollDown,ScrollUp,Green.png,4,Positive,Congruent,,,,,0,0,0,0,,,,,,,,,,,,,,,,,,,,,,,,,0,29,29,29,,,,,,,,,,,,,,,,,,,,,,,,,,,,,,,,,,,,,,,,,,,,,,,,,,,,,,,,,,,,,,,,,,,,,1.1574074029922485,0.9285262999983388,553.4025658000028,None,ScrollDown,정답입니다,553.4025658000028,None,553.4025658000028,None,553.4025658000028,None,553.4025658000028,None,554.2390324000007,None,554.2390324000007,554.7410617999994,,,,,,,,,,,,,,,,110,2023-04-17_10h45.03.365,FishGame,2022.1.1,59.8529652061533,
,31,넌 능력있어,2,Orange,B,6.166666666666666,4.6,ScrollUp,ScrollDown,Orange.png,4,Positive,Incongruent,,,,,0,0,0,0,,,,,,,,,,,,,,,,,,,,,,,,,0,30,30,30,,,,,,,,,,,,,,,,,,,,,,,,,,,,,,,,,,,,,,,,,,,,,,,,,,,,,,,,,,,,,,,,,,,,,1.9367283980051677,0.9746315000011236,555.3473575000025,None,ScrollUp,정답입니다,555.3473575000025,None,555.3473575000025,None,555.3473575000025,None,555.3473575000025,None,556.2343637000013,None,556.2343637000013,556.7389543000027,,,,,,,,,,,,,,,,110,2023-04-17_10h45.03.365,FishGame,2022.1.1,59.8529652061533,
,32,넌 불쾌해,5,Green,A,2.125,1.933333333333333,ScrollDown,ScrollUp,Green.png,4,Negative,Incongruent,,,,,0,0,0,0,,,,,,,,,,,,,,,,,,,,,,,,,0,31,31,31,,,,,,,,,,,,,,,,,,,,,,,,,,,,,,,,,,,,,,,,,,,,,,,,,,,,,,,,,,,,,,,,,,,,,1.1975308656692505,0.8963109000033,557.3439252000026,None,ScrollDown,정답입니다,557.3439252000026,None,557.3439252000026,None,557.3439252000026,None,557.3439252000026,None,558.1576054000034,None,558.1576054000034,558.6576421999998,,,,,,,,,,,,,,,,110,2023-04-17_10h45.03.365,FishGame,2022.1.1,59.8529652061533,
,33,나를 데려가줘,6,Orange,B,0,0,ScrollDown,ScrollUp,Orange.png,4,NonTarget,NonTarget,,,,,0,0,0,0,,,,,,,,,,,,,,,,,,,,,,,,,0,32,32,32,,,,,,,,,,,,,,,,,,,,,,,,,,,,,,,,,,,,,,,,,,,,,,,,,,,,,,,,,,,,,,,,,,,,,1.8672839452823002,2.113106800003152,559.263675000002,None,ScrollUp,오답입니다,559.263675000002,None,559.263675000002,None,559.263675000002,None,559.263675000002,None,561.2909975000002,None,561.2909975000002,561.7909861000007,,,,,,,,,,,,,,,,110,2023-04-17_10h45.03.365,FishGame,2022.1.1,59.8529652061533,
,34,넌 유순해,3,Green,A,4.458333333333333,5,ScrollDown,ScrollUp,Green.png,4,Neutral,Neutral,,,,,0,0,0,0,,,,,,,,,,,,,,,,,,,,,,,,,0,33,33,33,,,,,,,,,,,,,,,,,,,,,,,,,,,,,,,,,,,,,,,,,,,,,,,,,,,,,,,,,,,,,,,,,,,,,1.1898148208856583,0.8962096000032034,562.3920008000059,None,ScrollDown,정답입니다,562.3920008000059,None,562.3920008000059,None,562.3920008000059,None,562.3920008000059,None,563.205480800003,None,563.205480800003,563.7075149000011,,,,,,,,,,,,,,,,110,2023-04-17_10h45.03.365,FishGame,2022.1.1,59.8529652061533,
,35,넌 근심스러워,4,Orange,B,2.708333333333333,3.133333333333333,ScrollUp,ScrollDown,Orange.png,4,Negative,Congruent,,,,,0,0,0,0,,,,,,,,,,,,,,,,,,,,,,,,,0,34,34,34,,,,,,,,,,,,,,,,,,,,,,,,,,,,,,,,,,,,,,,,,,,,,,,,,,,,,,,,,,,,,,,,,,,,,1.1558641890684764,1.0321398000014597,564.3167679000035,None,ScrollDown,오답입니다,564.3167679000035,None,564.3167679000035,None,564.3167679000035,None,564.3167679000035,None,565.255499400002,None,565.255499400002,565.7575071000028,,,,,,,,,,,,,,,,110,2023-04-17_10h45.03.365,FishGame,2022.1.1,59.8529652061533,
,36,넌 세련되었어,2,Green,A,5.5,4.6,ScrollDown,ScrollUp,Green.png,4,Positive,Congruent,,,,,0,0,0,0,,,,,,,,,,,,,,,,,,,,,,,,,0,35,35,35,,,,,,,,,,,,,,,,,,,,,,,,,,,,,,,,,,,,,,,,,,,,,,,,,,,,,,,,,,,,,,,,,,,,,1.2222222139437993,1.0131750000000466,566.3683652000036,None,ScrollDown,정답입니다,566.3683652000036,None,566.3683652000036,None,566.3683652000036,None,566.3683652000036,None,567.2907496000043,None,567.2907496000043,567.7907790000027,,,,,,,,,,,,,,,,110,2023-04-17_10h45.03.365,FishGame,2022.1.1,59.8529652061533,
,37,나를 보내줘,6,Green,A,0,0,ScrollUp,ScrollDown,Green.png,4,NonTarget,NonTarget,,,,,0,0,0,0,,,,,,,,,,,,,,,,,,,,,,,,,0,36,36,36,,,,,,,,,,,,,,,,,,,,,,,,,,,,,,,,,,,,,,,,,,,,,,,,,,,,,,,,,,,,,,,,,,,,,1.234567900498708,1.2651723999952083,568.4079767000003,None,ScrollDown,오답입니다,568.4079767000003,None,568.4079767000003,None,568.4079767000003,None,568.4079767000003,None,569.588746100002,None,569.588746100002,570.0907518000022,,,,,,,,,,,,,,,,110,2023-04-17_10h45.03.365,FishGame,2022.1.1,59.8529652061533,
,38,넌 확고해,3,Orange,B,4.708333333333334,4.566666666666666,ScrollUp,ScrollDown,Orange.png,4,Neutral,Neutral,,,,,0,0,0,0,,,,,,,,,,,,,,,,,,,,,,,,,0,37,37,37,,,,,,,,,,,,,,,,,,,,,,,,,,,,,,,,,,,,,,,,,,,,,,,,,,,,,,,,,,,,,,,,,,,,,1.9753086467583973,1.1183316000024206,570.699918600003,None,ScrollUp,정답입니다,570.699918600003,None,570.699918600003,None,570.699918600003,None,570.699918600003,None,571.7278134000007,None,571.7278134000007,572.240672400003,,,,,,,,,,,,,,,,110,2023-04-17_10h45.03.365,FishGame,2022.1.1,59.8529652061533,
,39,넌 이해심이 많아,1,Orange,B,6.041666666666668,5.533333333333333,ScrollUp,ScrollDown,Orange.png,4,Positive,Incongruent,,,,,0,0,0,0,,,,,,,,,,,,,,,,,,,,,,,,,0,38,38,38,,,,,,,,,,,,,,,,,,,,,,,,,,,,,,,,,,,,,,,,,,,,,,,,,,,,,,,,,,,,,,,,,,,,,1.9614197711149852,1.148683899999014,572.8487617999999,None,ScrollUp,정답입니다,572.8487617999999,None,572.8487617999999,None,572.8487617999999,None,572.8487617999999,None,573.9074753000023,None,573.9074753000023,574.4073473000026,,,,,,,,,,,,,,,,110,2023-04-17_10h45.03.365,FishGame,2022.1.1,59.8529652061533,
,40,나를 보내줘,6,Green,A,0,0,ScrollUp,ScrollDown,Green.png,4,NonTarget,NonTarget,,,,,0,0,0,0,,,,,,,,,,,,,,,,,,,,,,,,,0,39,39,39,,,,,,,,,,,,,,,,,,,,,,,,,,,,,,,,,,,,,,,,,,,,,,,,,,,,,,,,,,,,,,,,,,,,,1.2469135870536168,1.2485727000021143,575.0095138000033,None,ScrollDown,오답입니다,575.0095138000033,None,575.0095138000033,None,575.0095138000033,None,575.0095138000033,None,576.1741509000058,None,576.1741509000058,576.6740063000034,,,,,,,,,,,,,,,,110,2023-04-17_10h45.03.365,FishGame,2022.1.1,59.8529652061533,
,41,넌 거칠어,4,Green,A,2.625,3.033333333333333,ScrollDown,ScrollUp,Green.png,4,Negative,Incongruent,,,,,0,0,0,0,,,,,,,,,,,,,,,,,,,,,,,,,0,40,40,40,,,,,,,,,,,,,,,,,,,,,,,,,,,,,,,,,,,,,,,,,,,,,,,,,,,,,,,,,,,,,,,,,,,,,1.3271604999899864,1.1292486999955145,577.2778636000003,None,ScrollDown,정답입니다,577.2778636000003,None,577.2778636000003,None,577.2778636000003,None,577.2778636000003,None,578.3239538000053,None,578.3239538000053,578.8238668000049,,,,,,,,,,,,,,,,110,2023-04-17_10h45.03.365,FishGame,2022.1.1,59.8529652061533,
,42,넌 변덕맞아,5,Orange,B,2.75,2.166666666666667,ScrollUp,ScrollDown,Orange.png,4,Negative,Congruent,,,,,0,0,0,0,,,,,,,,,,,,,,,,,,,,,,,,,0,41,41,41,,,,,,,,,,,,,,,,,,,,,,,,,,,,,,,,,,,,,,,,,,,,,,,,,,,,,,,,,,,,,,,,,,,,,1.8966049353281658,0.9798236999995424,579.4360407999993,None,ScrollUp,정답입니다,579.4360407999993,None,579.4360407999993,None,579.4360407999993,None,579.4360407999993,None,580.3238648000042,None,580.3238648000042,580.8239133000025,,,,,,,,,,,,,,,,110,2023-04-17_10h45.03.365,FishGame,2022.1.1,59.8529652061533,
,43,나를 데려가줘,6,Orange,B,0,0,ScrollDown,ScrollUp,Orange.png,4,NonTarget,NonTarget,,,,,0,0,0,0,,,,,,,,,,,,,,,,,,,,,,,,,0,42,42,42,,,,,,,,,,,,,,,,,,,,,,,,,,,,,,,,,,,,,,,,,,,,,,,,,,,,,,,,,,,,,,,,,,,,,1.182098776102066,1.1293548999965424,581.4296338000058,None,ScrollDown,정답입니다,581.4296338000058,None,581.4296338000058,None,581.4296338000058,None,581.4296338000058,None,582.4738532000047,None,582.4738532000047,582.9738075999994,,,,,,,,,,,,,,,,110,2023-04-17_10h45.03.365,FishGame,2022.1.1,59.8529652061533,
,44,넌 외로워,4,Orange,B,2.833333333333333,3.3,ScrollUp,ScrollDown,Orange.png,4,Negative,Congruent,,,,,0,0,0,0,,,,,,,,,,,,,,,,,,,,,,,,,0,43,43,43,,,,,,,,,,,,,,,,,,,,,,,,,,,,,,,,,,,,,,,,,,,,,,,,,,,,,,,,,,,,,,,,,,,,,1.1250000099341075,1.1318220999964979,583.5794679000028,None,ScrollDown,오답입니다,583.5794679000028,None,583.5794679000028,None,583.5794679000028,None,583.5794679000028,None,584.6239212,None,584.6239212,585.1237994000039,,,,,,,,,,,,,,,,110,2023-04-17_10h45.03.365,FishGame,2022.1.1,59.8529652061533,
,1,넌 불평스러워,5,Green,A,2.25,2.066666666666667,ScrollDown,ScrollUp,Green.png,5,Negative,Incongruent,,,,,0,0,0,0,,,,,,,,,,,,,,,,,,,,,,,,,,,,,0,0,0,0,,,,,,,,,,,,,,,,,,,,,,,,617.5710688000036,619.073446500006,619.106692500005,620.0566075000024,620.1066191000064,621.0565812000059,621.0565812000059,None,,,,,,,,,,,,,,,,,,,,,,,,,,,,,,,,,,1.1141975373029709,1.2137042000031215,622.1431196000049,None,ScrollDown,정답입니다,622.1431196000049,None,622.1431196000049,None,622.1431196000049,None,622.1431196000049,None,623.2710117000024,None,623.2710117000024,623.776268600006,585.6238782,None,585.6238782,None,0.2685185,-0.11388889,1,0,0,0.01618400000006659,None,615.6231079000063,None,,,110,2023-04-17_10h45.03.365,FishGame,2022.1.1,59.8529652061533,
,2,나를 보내줘,6,Green,A,0,0,ScrollUp,ScrollDown,Green.png,5,NonTarget,NonTarget,,,,,0,0,0,0,,,,,,,,,,,,,,,,,,,,,,,,,,,,,0,1,1,1,,,,,,,,,,,,,,,,,,,,,,,,,,,,,,,,,,,,,,,,,,,,,,,,,,,,,,,,,,,,,,,,,1.9845678806304932,1.0961766000036732,624.3768490000002,None,ScrollUp,정답입니다,624.3768490000002,None,624.3768490000002,None,624.3768490000002,None,624.3768490000002,None,625.3875837000014,None,625.3875837000014,625.8896301999994,,,,,,,,,,,,,,,,110,2023-04-17_10h45.03.365,FishGame,2022.1.1,59.8529652061533,
,3,넌 다재다능해,2,Orange,B,6.208333333333333,4.5,ScrollUp,ScrollDown,Orange.png,5,Positive,Incongruent,,,,,0,0,0,0,,,,,,,,,,,,,,,,,,,,,,,,,,,,,0,2,2,2,,,,,,,,,,,,,,,,,,,,,,,,,,,,,,,,,,,,,,,,,,,,,,,,,,,,,,,,,,,,,,,,,1.9104938358068466,0.9319178000005195,626.4954892000023,None,ScrollUp,정답입니다,626.4954892000023,None,626.4954892000023,None,626.4954892000023,None,626.4954892000023,None,627.3397688000041,None,627.3397688000041,627.8396238999994,,,,,,,,,,,,,,,,110,2023-04-17_10h45.03.365,FishGame,2022.1.1,59.8529652061533,
,4,넌 과감해,3,Green,A,4.833333333333334,4.6,ScrollDown,ScrollUp,Green.png,5,Neutral,Neutral,,,,,0,0,0,0,,,,,,,,,,,,,,,,,,,,,,,,,,,,,0,3,3,3,,,,,,,,,,,,,,,,,,,,,,,,,,,,,,,,,,,,,,,,,,,,,,,,,,,,,,,,,,,,,,,,,1.1358024577299755,0.8792118999990635,628.4433187000031,None,ScrollDown,정답입니다,628.4433187000031,None,628.4433187000031,None,628.4433187000031,None,628.4433187000031,None,629.2372778000063,None,629.2372778000063,629.7372596000059,,,,,,,,,,,,,,,,110,2023-04-17_10h45.03.365,FishGame,2022.1.1,59.8529652061533,
,5,넌 고분고분해,3,Orange,B,3.75,4.033333333333333,ScrollUp,ScrollDown,Orange.png,5,Neutral,Neutral,,,,,0,0,0,0,,,,,,,,,,,,,,,,,,,,,,,,,,,,,0,4,4,4,,,,,,,,,,,,,,,,,,,,,,,,,,,,,,,,,,,,,,,,,,,,,,,,,,,,,,,,,,,,,,,,,1.9320987562338512,1.1485242999988259,630.3437999000016,None,ScrollUp,정답입니다,630.3437999000016,None,630.3437999000016,None,630.3437999000016,None,630.3437999000016,None,631.4040202000033,None,631.4040202000033,631.9039426000018,,,,,,,,,,,,,,,,110,2023-04-17_10h45.03.365,FishGame,2022.1.1,59.8529652061533,
,6,나를 보내줘,6,Green,A,0,0,ScrollUp,ScrollDown,Green.png,5,NonTarget,NonTarget,,,,,0,0,0,0,,,,,,,,,,,,,,,,,,,,,,,,,,,,,0,5,5,5,,,,,,,,,,,,,,,,,,,,,,,,,,,,,,,,,,,,,,,,,,,,,,,,,,,,,,,,,,,,,,,,,1.9367283980051677,1.0008434999981546,632.5060414000036,None,ScrollUp,정답입니다,632.5060414000036,None,632.5060414000036,None,632.5060414000036,None,632.5060414000036,None,633.4230244999999,None,633.4230244999999,633.9229422000062,,,,,,,,,,,,,,,,110,2023-04-17_10h45.03.365,FishGame,2022.1.1,59.8529652061533,
,7,넌 잘 잊어,4,Green,A,3,3.7,ScrollDown,ScrollUp,Green.png,5,Negative,Incongruent,,,,,0,0,0,0,,,,,,,,,,,,,,,,,,,,,,,,,,,,,0,6,6,6,,,,,,,,,,,,,,,,,,,,,,,,,,,,,,,,,,,,,,,,,,,,,,,,,,,,,,,,,,,,,,,,,1,1.498133200002485,634.5322433000038,None,ScrollDown,정답입니다,634.5322433000038,None,634.5322433000038,None,634.5322433000038,None,634.5322433000038,None,635.939509200005,None,635.939509200005,636.4394165000049,,,,,,,,,,,,,,,,110,2023-04-17_10h45.03.365,FishGame,2022.1.1,59.8529652061533,
,8,넌 탐구심이없어,4,Orange,B,2.833333333333333,3.066666666666667,ScrollUp,ScrollDown,Orange.png,5,Negative,Congruent,,,,,0,0,0,0,,,,,,,,,,,,,,,,,,,,,,,,,,,,,0,7,7,7,,,,,,,,,,,,,,,,,,,,,,,,,,,,,,,,,,,,,,,,,,,,,,,,,,,,,,,,,,,,,,,,,1.8009259204069774,0.9797395999994478,637.0494085000028,None,ScrollUp,정답입니다,637.0494085000028,None,637.0494085000028,None,637.0494085000028,None,637.0494085000028,None,637.9393800000034,None,637.9393800000034,638.4393864000012,,,,,,,,,,,,,,,,110,2023-04-17_10h45.03.365,FishGame,2022.1.1,59.8529652061533,
,9,나를 데려가줘,6,Orange,B,0,0,ScrollDown,ScrollUp,Orange.png,5,NonTarget,NonTarget,,,,,0,0,0,0,,,,,,,,,,,,,,,,,,,,,,,,,,,,,0,8,8,8,,,,,,,,,,,,,,,,,,,,,,,,,,,,,,,,,,,,,,,,,,,,,,,,,,,,,,,,,,,,,,,,,1.182098776102066,1.1797000000005937,639.0444029000064,None,ScrollDown,정답입니다,639.0444029000064,None,639.0444029000064,None,639.0444029000064,None,639.0444029000064,None,640.1393752000004,None,640.1393752000004,640.6393745000023,,,,,,,,,,,,,,,,110,2023-04-17_10h45.03.365,FishGame,2022.1.1,59.8529652061533,
,10,넌 참되어,2,Green,A,6.041666666666664,4.733333333333333,ScrollDown,ScrollUp,Green.png,5,Positive,Congruent,,,,,0,0,0,0,,,,,,,,,,,,,,,,,,,,,,,,,,,,,0,9,9,9,,,,,,,,,,,,,,,,,,,,,,,,,,,,,,,,,,,,,,,,,,,,,,,,,,,,,,,,,,,,,,,,,1.2175925970077515,1.1461581000039587,641.2429992000034,None,ScrollDown,정답입니다,641.2429992000034,None,641.2429992000034,None,641.2429992000034,None,641.2429992000034,None,642.3036839000051,None,642.3036839000051,642.803665600004,,,,,,,,,,,,,,,,110,2023-04-17_10h45.03.365,FishGame,2022.1.1,59.8529652061533,
,11,넌 생기있어,1,Orange,B,5.875,5.633333333333334,ScrollUp,ScrollDown,Orange.png,5,Positive,Incongruent,,,,,0,0,0,0,,,,,,,,,,,,,,,,,,,,,,,,,,,,,0,10,10,10,,,,,,,,,,,,,,,,,,,,,,,,,,,,,,,,,,,,,,,,,,,,,,,,,,,,,,,,,,,,,,,,,2,0.8506362999978592,643.4182378000041,None,ScrollUp,정답입니다,643.4182378000041,None,643.4182378000041,None,643.4182378000041,None,643.4182378000041,None,644.1727633000046,None,644.1727633000046,644.672756800006,,,,,,,,,,,,,,,,110,2023-04-17_10h45.03.365,FishGame,2022.1.1,59.8529652061533,
,12,넌 비사교적이야,4,Orange,B,2.875,2.9,ScrollUp,ScrollDown,Orange.png,5,Negative,Congruent,,,,,0,0,0,0,,,,,,,,,,,,,,,,,,,,,,,,,,,,,0,11,11,11,,,,,,,,,,,,,,,,,,,,,,,,,,,,,,,,,,,,,,,,,,,,,,,,,,,,,,,,,,,,,,,,,2,0.8981007999973372,645.2797974000059,None,ScrollUp,정답입니다,645.2797974000059,None,645.2797974000059,None,645.2797974000059,None,645.2797974000059,None,646.0894045000023,None,646.0894045000023,646.5894034000012,,,,,,,,,,,,,,,,110,2023-04-17_10h45.03.365,FishGame,2022.1.1,59.8529652061533,
,13,나를 데려가줘,6,Orange,B,0,0,ScrollDown,ScrollUp,Orange.png,5,NonTarget,NonTarget,,,,,0,0,0,0,,,,,,,,,,,,,,,,,,,,,,,,,,,,,0,12,12,12,,,,,,,,,,,,,,,,,,,,,,,,,,,,,,,,,,,,,,,,,,,,,,,,,,,,,,,,,,,,,,,,,1.0493827263514202,0.9652332000041497,647.1965022000004,None,ScrollDown,정답입니다,647.1965022000004,None,647.1965022000004,None,647.1965022000004,None,647.1965022000004,None,648.0725958000039,None,648.0725958000039,648.5725244000059,,,,,,,,,,,,,,,,110,2023-04-17_10h45.03.365,FishGame,2022.1.1,59.8529652061533,
,14,넌 고독해,4,Green,A,2.916666666666667,3.233333333333333,ScrollDown,ScrollUp,Green.png,5,Negative,Incongruent,,,,,0,0,0,0,,,,,,,,,,,,,,,,,,,,,,,,,,,,,0,13,13,13,,,,,,,,,,,,,,,,,,,,,,,,,,,,,,,,,,,,,,,,,,,,,,,,,,,,,,,,,,,,,,,,,1.1543209999799728,1.1815484000035212,649.1779940000051,None,ScrollDown,정답입니다,649.1779940000051,None,649.1779940000051,None,649.1779940000051,None,649.1779940000051,None,650.2724302999995,None,650.2724302999995,650.7724267000012,,,,,,,,,,,,,,,,110,2023-04-17_10h45.03.365,FishGame,2022.1.1,59.8529652061533,
,15,넌 신경질적이야,5,Orange,B,2.375,2.233333333333333,ScrollUp,ScrollDown,Orange.png,5,Negative,Congruent,,,,,0,0,0,0,,,,,,,,,,,,,,,,,,,,,,,,,,,,,0,14,14,14,,,,,,,,,,,,,,,,,,,,,,,,,,,,,,,,,,,,,,,,,,,,,,,,,,,,,,,,,,,,,,,,,1.9212963084379833,1.0151364999983343,651.3942559999996,None,ScrollUp,정답입니다,651.3942559999996,None,651.3942559999996,None,651.3942559999996,None,651.3942559999996,None,652.3059083000044,None,652.3059083000044,652.8059365000008,,,,,,,,,,,,,,,,110,2023-04-17_10h45.03.365,FishGame,2022.1.1,59.8529652061533,
,16,넌 똑똑해,2,Orange,B,5.666666666666667,3.966666666666667,ScrollUp,ScrollDown,Orange.png,5,Positive,Incongruent,,,,,0,0,0,0,,,,,,,,,,,,,,,,,,,,,,,,,,,,,0,15,15,15,,,,,,,,,,,,,,,,,,,,,,,,,,,,,,,,,,,,,,,,,,,,,,,,,,,,,,,,,,,,,,,,,1.7731481442848842,0.8150227000005543,653.4132614000046,None,ScrollUp,정답입니다,653.4132614000046,None,653.4132614000046,None,653.4132614000046,None,653.4132614000046,None,654.1390727000035,None,654.1390727000035,654.6390388,,,,,,,,,,,,,,,,110,2023-04-17_10h45.03.365,FishGame,2022.1.1,59.8529652061533,
,17,나를 보내줘,6,Green,A,0,0,ScrollUp,ScrollDown,Green.png,5,NonTarget,NonTarget,,,,,0,0,0,0,,,,,,,,,,,,,,,,,,,,,,,,,,,,,0,16,16,16,,,,,,,,,,,,,,,,,,,,,,,,,,,,,,,,,,,,,,,,,,,,,,,,,,,,,,,,,,,,,,,,,1.0231481393178303,1.1145295999958762,655.2414319000018,None,ScrollDown,오답입니다,655.2414319000018,None,655.2414319000018,None,655.2414319000018,None,655.2414319000018,None,656.2703199000025,None,656.2703199000025,656.7723649000036,,,,,,,,,,,,,,,,110,2023-04-17_10h45.03.365,FishGame,2022.1.1,59.8529652061533,
,18,넌 협조적이야,1,Green,A,5.625,5.666666666666667,ScrollDown,ScrollUp,Green.png,5,Positive,Congruent,,,,,0,0,0,0,,,,,,,,,,,,,,,,,,,,,,,,,,,,,0,17,17,17,,,,,,,,,,,,,,,,,,,,,,,,,,,,,,,,,,,,,,,,,,,,,,,,,,,,,,,,,,,,,,,,,1.0987654229005177,1.0797615999981645,657.3763791000019,None,ScrollDown,정답입니다,657.3763791000019,None,657.3763791000019,None,657.3763791000019,None,657.3763791000019,None,658.3703328000047,None,658.3703328000047,658.8723630000022,,,,,,,,,,,,,,,,110,2023-04-17_10h45.03.365,FishGame,2022.1.1,59.8529652061533,
,19,나를 데려가줘,6,Orange,B,0,0,ScrollDown,ScrollUp,Orange.png,5,NonTarget,NonTarget,,,,,0,0,0,0,,,,,,,,,,,,,,,,,,,,,,,,,,,,,0,18,18,18,,,,,,,,,,,,,,,,,,,,,,,,,,,,,,,,,,,,,,,,,,,,,,,,,,,,,,,,,,,,,,,,,1.0216049253940582,1.2956345999991754,659.4830092000047,None,ScrollDown,정답입니다,659.4830092000047,None,659.4830092000047,None,659.4830092000047,None,659.4830092000047,None,660.6868988999995,None,660.6868988999995,661.1889532000059,,,,,,,,,,,,,,,,110,2023-04-17_10h45.03.365,FishGame,2022.1.1,59.8529652061533,
,20,넌 몰인정해,5,Orange,B,2.541666666666667,2.066666666666667,ScrollUp,ScrollDown,Orange.png,5,Negative,Congruent,,,,,0,0,0,0,,,,,,,,,,,,,,,,,,,,,,,,,,,,,0,19,19,19,,,,,,,,,,,,,,,,,,,,,,,,,,,,,,,,,,,,,,,,,,,,,,,,,,,,,,,,,,,,,,,,,1.6959876591960588,1.2986195999983465,661.7969931000043,None,ScrollUp,정답입니다,661.7969931000043,None,661.7969931000043,None,661.7969931000043,None,661.7969931000043,None,663.0055891000011,None,663.0055891000011,663.5056037000031,,,,,,,,,,,,,,,,110,2023-04-17_10h45.03.365,FishGame,2022.1.1,59.8529652061533,
,21,나를 데려가줘,6,Orange,B,0,0,ScrollDown,ScrollUp,Orange.png,5,NonTarget,NonTarget,,,,,0,0,0,0,,,,,,,,,,,,,,,,,,,,,,,,,,,,,0,20,20,20,,,,,,,,,,,,,,,,,,,,,,,,,,,,,,,,,,,,,,,,,,,,,,,,,,,,,,,,,,,,,,,,,1,1.2927428999973927,664.1184458000062,None,ScrollDown,정답입니다,664.1184458000062,None,664.1184458000062,None,664.1184458000062,None,664.1184458000062,None,665.3198969000005,None,665.3198969000005,665.8198626000012,,,,,,,,,,,,,,,,110,2023-04-17_10h45.03.365,FishGame,2022.1.1,59.8529652061533,
,22,넌 순진해,3,Orange,B,4.125,4.166666666666667,ScrollUp,ScrollDown,Orange.png,5,Neutral,Neutral,,,,,0,0,0,0,,,,,,,,,,,,,,,,,,,,,,,,,,,,,0,21,21,21,,,,,,,,,,,,,,,,,,,,,,,,,,,,,,,,,,,,,,,,,,,,,,,,,,,,,,,,,,,,,,,,,1.1589506169160206,0.9341917999990983,666.4257199999993,None,ScrollDown,오답입니다,666.4257199999993,None,666.4257199999993,None,666.4257199999993,None,666.4257199999993,None,667.2723566999994,None,667.2723566999994,667.7722816000023,,,,,,,,,,,,,,,,110,2023-04-17_10h45.03.365,FishGame,2022.1.1,59.8529652061533,
