name,TrialNum,Word,WordCategory,FishType,WordList,WordValence,WordReputation,CorrectResp,IncorrectResp,FishTypeFile,Round,WordType,Condition,LoopforOrange.thisRepN,LoopforOrange.thisTrialN,LoopforOrange.thisN,LoopforOrange.thisIndex,OrangeInstLoop.thisRepN,OrangeInstLoop.thisTrialN,OrangeInstLoop.thisN,OrangeInstLoop.thisIndex,OrangePrac.thisRepN,OrangePrac.thisTrialN,OrangePrac.thisN,OrangePrac.thisIndex,temp1.thisRepN,temp1.thisTrialN,temp1.thisN,temp1.thisIndex,OrangeRound1.thisRepN,OrangeRound1.thisTrialN,OrangeRound1.thisN,OrangeRound1.thisIndex,OrangeRound2.thisRepN,OrangeRound2.thisTrialN,OrangeRound2.thisN,OrangeRound2.thisIndex,OrangeRound3.thisRepN,OrangeRound3.thisTrialN,OrangeRound3.thisN,OrangeRound3.thisIndex,OrangeRound4.thisRepN,OrangeRound4.thisTrialN,OrangeRound4.thisN,OrangeRound4.thisIndex,OrangeRound5.thisRepN,OrangeRound5.thisTrialN,OrangeRound5.thisN,OrangeRound5.thisIndex,LoopForGreen.thisRepN,LoopForGreen.thisTrialN,LoopForGreen.thisN,LoopForGreen.thisIndex,text_2.started,text_2.stopped,text_3.started,text_3.stopped,key_resp.keys,key_resp.rt,key_resp.started,key_resp.stopped,PassI_2.started,PassI_2.stopped,PassInst_2.keys,PassInst_2.rt,PassInst_2.started,PassInst_2.stopped,mouse_2.x,mouse_2.y,mouse_2.leftButton,mouse_2.midButton,mouse_2.rightButton,mouse_2.started,mouse_2.stopped,image.started,image.stopped,text_5.started,text_5.stopped,text_6.started,text_6.stopped,text_7.started,text_7.stopped,text_8.started,text_8.stopped,slider_2.response,slider_2.rt,slider_2.started,slider_2.stopped,Response_2,Feedback_2,BackGround_2.started,BackGround_2.stopped,Fish_2.started,Fish_2.stopped,WordBox_2.started,WordBox_2.stopped,Words_2.started,Words_2.stopped,BackGround_Feedback_2.started,BackGround_Feedback_2.stopped,Feedbacks_2.started,Feedbacks_2.stopped,Continue_or_not.keys,Continue_or_not.rt,Continue_or_not.started,Continue_or_not.stopped,image_3.started,image_3.stopped,mouse_3.x,mouse_3.y,mouse_3.leftButton,mouse_3.midButton,mouse_3.rightButton,mouse_3.started,mouse_3.stopped,startmain.started,startmain.stopped,slider.response,slider.rt,slider.started,slider.stopped,Response,Feedback,BackGround.started,BackGround.stopped,Fish.started,Fish.stopped,WordBox.started,WordBox.stopped,Words.started,Words.stopped,BackGround_Feedback.started,BackGround_Feedback.stopped,Feedbacks.started,Feedbacks.stopped,text.started,text.stopped,break_interval.started,break_interval.stopped,mouse.x,mouse.y,mouse.leftButton,mouse.midButton,mouse.rightButton,mouse.started,mouse.stopped,stratnextround.started,stratnextround.stopped,endgame.started,endgame.stopped,participant,date,expName,psychopyVersion,frameRate,
,,,,,,,,,,,,,,,,,,,,,,,,,,,,,,,,,,,,,,,,,,,,,,,,,,,,,,123.55391689995304,None,123.55391689995304,None,space,1.0216452999738976,124.05337300000247,None,,,,,,,,,,,,,,,,,,,,,,,,,,,,,,,,,,,,,,,,,,,,,,,,,,,,,,,,,,,,,,,,,,,,,,,,,,,,,,,,,,,,,,,,,,111,2023-04-24_17h41.05.577,FishGame,2022.1.1,60.96497802483956,
물고기과제_instruction(참가자용)OrangeVersion.mp4,,,,,,,,,,,,,,0,0,0,0,0,0,0,0,,,,,,,,,,,,,,,,,,,,,,,,,,,,,,,,,,,,,,,,,131.5830513999099,None,n,2.6840861999662593,131.5830513999099,None,,,,,,,,,,,,,,,,,,,,,,,,,,,,,,,,,,,,,,,,,,,,,,,,,,,,,,,,,,,,,,,,,,,,,,,,,,,,,,,,,,,,111,2023-04-24_17h41.05.577,FishGame,2022.1.1,60.96497802483956,
,1,넌 교활해,5,Green,B,2.333333333333333,2.133333333333333,ScrollUp,ScrollDown,Green.png,practice,,,0,0,0,0,,,,,0,0,0,0,0,0,0,0,,,,,,,,,,,,,,,,,,,,,,,,,,,,,,,,,,,,,,,0.041666668,-0.23055555,1,0,0,0.5140768500277773,None,134.29777830000967,None,137.66435009997804,139.16654879995622,139.19985599990468,140.1498461998999,140.19985009997617,141.149817999918,141.149817999918,None,1.67746914178133,1.2812720000511035,142.41827749996446,None,ScrollUp,정답입니다,142.41827749996446,None,142.41827749996446,None,142.41827749996446,None,142.41827749996446,None,143.4142906999914,None,143.4142906999914,143.91621319996193,,,,,,,,,,,,,,,,,,,,,,,,,,,,,,,,,,,,,,,,,,,,,,,,,111,2023-04-24_17h41.05.577,FishGame,2022.1.1,60.96497802483956,
,2,넌 슬기로워,2,Orange,A,6.166666666666667,4.1,ScrollDown,ScrollUp,Orange.png,practice,,,0,0,0,0,,,,,0,0,0,0,0,1,1,1,,,,,,,,,,,,,,,,,,,,,,,,,,,,,,,,,,,,,,,,,,,,,,,,,,,,,,,,1.0385802288850148,0.7815471000503749,144.52256760001183,None,ScrollDown,정답입니다,144.52256760001183,None,144.52256760001183,None,144.52256760001183,None,144.52256760001183,None,145.21416430000681,None,145.21416430000681,145.71621919993777,,,,,,,,,,,,,,,,,,,,,,,,,,,,,,,,,,,,,,,,,,,,,,,,,111,2023-04-24_17h41.05.577,FishGame,2022.1.1,60.96497802483956,
,3,나를 보내줘,6,Orange,A,0,0,ScrollUp,ScrollDown,Orange.png,practice,,,0,0,0,0,,,,,0,0,0,0,0,2,2,2,,,,,,,,,,,,,,,,,,,,,,,,,,,,,,,,,,,,,,,,,,,,,,,,,,,,,,,,1.5555555584530034,0.9149065000237897,146.32322139991447,None,ScrollUp,정답입니다,146.32322139991447,None,146.32322139991447,None,146.32322139991447,None,146.32322139991447,None,147.14954499993473,None,147.14954499993473,147.64952529990114,,,,,,,,,,,,,,,,,,,,,,,,,,,,,,,,,,,,,,,,,,,,,,,,,111,2023-04-24_17h41.05.577,FishGame,2022.1.1,60.96497802483956,
,4,나를 데려가줘,6,Green,B,0,0,ScrollDown,ScrollUp,Green.png,practice,,,0,0,0,0,,,,,0,0,0,0,0,3,3,3,,,,,,,,,,,,,,,,,,,,,,,,,,,,,,,,,,,,,,,,,,,,,,,,,,,,,,,,1.296296296020349,0.9099331999896094,148.26381269993726,None,ScrollDown,정답입니다,148.26381269993726,None,148.26381269993726,None,148.26381269993726,None,148.26381269993726,None,149.08290379995015,None,149.08290379995015,149.58285100001376,,,,,,,,,,,,,,,,,,,,,,,,,,,,,,,,,,,,,,,,,,,,,,,,,111,2023-04-24_17h41.05.577,FishGame,2022.1.1,60.96497802483956,
,1,넌 교활해,5,Green,B,2.333333333333333,2.133333333333333,ScrollUp,ScrollDown,Green.png,practice,,,0,0,0,0,,,,,0,0,0,0,,,,,,,,,,,,,,,,,,,,,,,,,,,,,,,,,,,,,,,,,,,,,,,,,,,,,,,,,,,,,,,,,,,,,,,,,,,,,,n,3.128283099969849,150.0827743000118,None,150.0827743000118,None,,,,,,,,,,,,,,,,,,,,,,,,,,,,,,,,,,,,,,,,,,,111,2023-04-24_17h41.05.577,FishGame,2022.1.1,60.96497802483956,
,1,넌 따뜻해,1,Green,B,6.083333333333333,5.6,ScrollUp,ScrollDown,Green.png,1,Positive,Incongruent,0,0,0,0,,,,,,,,,,,,,0,0,0,0,,,,,,,,,,,,,,,,,,,,,,,,,,,,,,,,,,,,,,,,,,,,156.56614089990035,158.0661272999132,158.09950010001194,159.05274409998674,159.10283429990523,160.06611679994967,160.0494607000146,None,,,,,,,,,,,,,,,,,,,,,,,,,0.087037034,-0.12037037,1,0,0,0.3148316501174122,None,153.2326189999003,None,1.8024691343307495,1.1877347000408918,161.33883619995322,None,ScrollUp,정답입니다,161.33883619995322,None,161.33883619995322,None,161.33883619995322,None,161.33883619995322,None,162.23025859997142,None,162.23025859997142,162.7302107999567,,,,,,,,,,,,,,,,111,2023-04-24_17h41.05.577,FishGame,2022.1.1,60.96497802483956,
,2,넌 기품있어,2,Green,B,5.791666666666668,4.5,ScrollUp,ScrollDown,Green.png,1,Positive,Incongruent,0,0,0,0,,,,,,,,,,,,,0,1,1,1,,,,,,,,,,,,,,,,,,,,,,,,,,,,,,,,,,,,,,,,,,,,,,,,,,,,,,,,,,,,,,,,,,,,,,,,,,,,,,,,,,,,,1.817901223897934,0.7981868999777362,163.33808719995432,None,ScrollUp,정답입니다,163.33808719995432,None,163.33808719995432,None,163.33808719995432,None,163.33808719995432,None,164.04691959999036,None,164.04691959999036,164.54928699997254,,,,,,,,,,,,,,,,111,2023-04-24_17h41.05.577,FishGame,2022.1.1,60.96497802483956,
,3,나를 보내줘,6,Orange,A,0,0,ScrollUp,ScrollDown,Orange.png,1,NonTarget,NonTarget,0,0,0,0,,,,,,,,,,,,,0,2,2,2,,,,,,,,,,,,,,,,,,,,,,,,,,,,,,,,,,,,,,,,,,,,,,,,,,,,,,,,,,,,,,,,,,,,,,,,,,,,,,,,,,,,,1.7283950646718345,0.9820891000563279,165.1680589999305,None,ScrollUp,정답입니다,165.1680589999305,None,165.1680589999305,None,165.1680589999305,None,165.1680589999305,None,166.04937439993955,None,166.04937439993955,166.55260789999738,,,,,,,,,,,,,,,,111,2023-04-24_17h41.05.577,FishGame,2022.1.1,60.96497802483956,
,4,넌 수동적이야,4,Orange,A,2.833333333333333,2.933333333333333,ScrollDown,ScrollUp,Orange.png,1,Negative,Incongruent,0,0,0,0,,,,,,,,,,,,,0,3,3,3,,,,,,,,,,,,,,,,,,,,,,,,,,,,,,,,,,,,,,,,,,,,,,,,,,,,,,,,,,,,,,,,,,,,,,,,,,,,,,,,,,,,,1.1311728407939274,0.7596771999960765,167.1686700999271,None,ScrollDown,정답입니다,167.1686700999271,None,167.1686700999271,None,167.1686700999271,None,167.1686700999271,None,167.83249639999121,None,167.83249639999121,168.33243439998478,,,,,,,,,,,,,,,,111,2023-04-24_17h41.05.577,FishGame,2022.1.1,60.96497802483956,
,5,넌 사심이 없어,3,Green,B,4.916666666666666,4.333333333333333,ScrollUp,ScrollDown,Green.png,1,Neutral,Neutral,0,0,0,0,,,,,,,,,,,,,0,4,4,4,,,,,,,,,,,,,,,,,,,,,,,,,,,,,,,,,,,,,,,,,,,,,,,,,,,,,,,,,,,,,,,,,,,,,,,,,,,,,,,,,,,,,1.9413580397764842,0.7598429000936449,168.94699869991746,None,ScrollUp,정답입니다,168.94699869991746,None,168.94699869991746,None,168.94699869991746,None,168.94699869991746,None,169.6156860999763,None,169.6156860999763,170.11568049993366,,,,,,,,,,,,,,,,111,2023-04-24_17h41.05.577,FishGame,2022.1.1,60.96497802483956,
,6,넌 헤퍼,5,Orange,A,2.458333333333334,2.233333333333333,ScrollDown,ScrollUp,Orange.png,1,Negative,Incongruent,0,0,0,0,,,,,,,,,,,,,0,5,5,5,,,,,,,,,,,,,,,,,,,,,,,,,,,,,,,,,,,,,,,,,,,,,,,,,,,,,,,,,,,,,,,,,,,,,,,,,,,,,,,,,,,,,1.0555555323759716,0.812859799945727,170.72497270000167,None,ScrollDown,정답입니다,170.72497270000167,None,170.72497270000167,None,170.72497270000167,None,170.72497270000167,None,171.44911049993243,None,171.44911049993243,171.94913429999724,,,,,,,,,,,,,,,,111,2023-04-24_17h41.05.577,FishGame,2022.1.1,60.96497802483956,
,7,넌 말쑥해,3,Orange,A,4.833333333333334,4.333333333333333,ScrollDown,ScrollUp,Orange.png,1,Neutral,Neutral,0,0,0,0,,,,,,,,,,,,,0,6,6,6,,,,,,,,,,,,,,,,,,,,,,,,,,,,,,,,,,,,,,,,,,,,,,,,,,,,,,,,,,,,,,,,,,,,,,,,,,,,,,,,,,,,,1,0.7963232999900356,172.55912729992997,None,ScrollDown,정답입니다,172.55912729992997,None,172.55912729992997,None,172.55912729992997,None,172.55912729992997,None,173.2687490999233,None,173.2687490999233,173.78228129993659,,,,,,,,,,,,,,,,111,2023-04-24_17h41.05.577,FishGame,2022.1.1,60.96497802483956,
,8,넌 투덜거려,5,Green,B,2.541666666666667,2.266666666666667,ScrollUp,ScrollDown,Green.png,1,Negative,Congruent,0,0,0,0,,,,,,,,,,,,,0,7,7,7,,,,,,,,,,,,,,,,,,,,,,,,,,,,,,,,,,,,,,,,,,,,,,,,,,,,,,,,,,,,,,,,,,,,,,,,,,,,,,,,,,,,,1.6311728358268738,0.6966652000555769,174.39165979996324,None,ScrollUp,정답입니다,174.39165979996324,None,174.39165979996324,None,174.39165979996324,None,174.39165979996324,None,174.9968781999778,None,174.9968781999778,175.49891709990334,,,,,,,,,,,,,,,,111,2023-04-24_17h41.05.577,FishGame,2022.1.1,60.96497802483956,
,9,넌 적극적이야,1,Orange,A,5.708333333333333,5.533333333333333,ScrollDown,ScrollUp,Orange.png,1,Positive,Congruent,0,0,0,0,,,,,,,,,,,,,0,8,8,8,,,,,,,,,,,,,,,,,,,,,,,,,,,,,,,,,,,,,,,,,,,,,,,,,,,,,,,,,,,,,,,,,,,,,,,,,,,,,,,,,,,,,1.0740740497907002,0.7627592999488115,176.10761439998168,None,ScrollDown,정답입니다,176.10761439998168,None,176.10761439998168,None,176.10761439998168,None,176.10761439998168,None,176.78023469995242,None,176.78023469995242,177.28227239998523,,,,,,,,,,,,,,,,111,2023-04-24_17h41.05.577,FishGame,2022.1.1,60.96497802483956,
,10,넌 재미없어,4,Green,B,2.625,2.966666666666667,ScrollUp,ScrollDown,Green.png,1,Negative,Congruent,0,0,0,0,,,,,,,,,,,,,0,9,9,9,,,,,,,,,,,,,,,,,,,,,,,,,,,,,,,,,,,,,,,,,,,,,,,,,,,,,,,,,,,,,,,,,,,,,,,,,,,,,,,,,,,,,1.837962955236435,0.7961697999853641,177.88977539993357,None,ScrollUp,정답입니다,177.88977539993357,None,177.88977539993357,None,177.88977539993357,None,177.88977539993357,None,178.59659869992174,None,178.59659869992174,179.09654119994957,,,,,,,,,,,,,,,,111,2023-04-24_17h41.05.577,FishGame,2022.1.1,60.96497802483956,
,11,넌 명석해,2,Orange,A,5.875,4.033333333333333,ScrollDown,ScrollUp,Orange.png,1,Positive,Congruent,0,0,0,0,,,,,,,,,,,,,0,10,10,10,,,,,,,,,,,,,,,,,,,,,,,,,,,,,,,,,,,,,,,,,,,,,,,,,,,,,,,,,,,,,,,,,,,,,,,,,,,,,,,,,,,,,1.2283950696388881,0.7143752999836579,179.70420529996045,None,ScrollDown,정답입니다,179.70420529996045,None,179.70420529996045,None,179.70420529996045,None,179.70420529996045,None,180.32993869995698,None,180.32993869995698,180.8322500999784,,,,,,,,,,,,,,,,111,2023-04-24_17h41.05.577,FishGame,2022.1.1,60.96497802483956,
,12,나를 데려가줘,6,Green,B,0,0,ScrollDown,ScrollUp,Green.png,1,NonTarget,NonTarget,0,0,0,0,,,,,,,,,,,,,0,11,11,11,,,,,,,,,,,,,,,,,,,,,,,,,,,,,,,,,,,,,,,,,,,,,,,,,,,,,,,,,,,,,,,,,,,,,,,,,,,,,,,,,,,,,1.0354938507080078,1.2151409999933094,181.4429730999982,None,ScrollDown,정답입니다,181.4429730999982,None,181.4429730999982,None,181.4429730999982,None,181.4429730999982,None,182.56566819990985,None,182.56566819990985,183.06543359998614,,,,,,,,,,,,,,,,111,2023-04-24_17h41.05.577,FishGame,2022.1.1,60.96497802483956,
,13,넌 소심해,4,Orange,A,3,3.1,ScrollDown,ScrollUp,Orange.png,1,Negative,Incongruent,0,0,0,0,,,,,,,,,,,,,0,12,12,12,,,,,,,,,,,,,,,,,,,,,,,,,,,,,,,,,,,,,,,,,,,,,,,,,,,,,,,,,,,,,,,,,,,,,,,,,,,,,,,,,,,,,1.32253085821867,0.946049099904485,183.6742960999254,None,ScrollDown,정답입니다,183.6742960999254,None,183.6742960999254,None,183.6742960999254,None,183.6742960999254,None,184.5320897999918,None,184.5320897999918,185.0320951999165,,,,,,,,,,,,,,,,111,2023-04-24_17h41.05.577,FishGame,2022.1.1,60.96497802483956,
,14,넌 합리적이야,2,Orange,A,5.583333333333333,4.733333333333333,ScrollDown,ScrollUp,Orange.png,1,Positive,Congruent,0,0,0,0,,,,,,,,,,,,,0,13,13,13,,,,,,,,,,,,,,,,,,,,,,,,,,,,,,,,,,,,,,,,,,,,,,,,,,,,,,,,,,,,,,,,,,,,,,,,,,,,,,,,,,,,,1,1.3496050999965519,185.64308399998117,None,ScrollDown,정답입니다,185.64308399998117,None,185.64308399998117,None,185.64308399998117,None,185.64308399998117,None,186.88408469990827,None,186.88408469990827,187.3986680000089,,,,,,,,,,,,,,,,111,2023-04-24_17h41.05.577,FishGame,2022.1.1,60.96497802483956,
,15,넌 무자비해,5,Green,B,2.333333333333333,2.1,ScrollUp,ScrollDown,Green.png,1,Negative,Congruent,0,0,0,0,,,,,,,,,,,,,0,14,14,14,,,,,,,,,,,,,,,,,,,,,,,,,,,,,,,,,,,,,,,,,,,,,,,,,,,,,,,,,,,,,,,,,,,,,,,,,,,,,,,,,,,,,1.5925925932824612,0.812852600007318,188.00761979992967,None,ScrollUp,정답입니다,188.00761979992967,None,188.00761979992967,None,188.00761979992967,None,188.00761979992967,None,188.73212920001242,None,188.73212920001242,189.23200009996071,,,,,,,,,,,,,,,,111,2023-04-24_17h41.05.577,FishGame,2022.1.1,60.96497802483956,
,16,나를 보내줘,6,Orange,A,0,0,ScrollUp,ScrollDown,Orange.png,1,NonTarget,NonTarget,0,0,0,0,,,,,,,,,,,,,0,15,15,15,,,,,,,,,,,,,,,,,,,,,,,,,,,,,,,,,,,,,,,,,,,,,,,,,,,,,,,,,,,,,,,,,,,,,,,,,,,,,,,,,,,,,1.6250000049670539,0.8487777999835089,189.83868809998967,None,ScrollUp,정답입니다,189.83868809998967,None,189.83868809998967,None,189.83868809998967,None,189.83868809998967,None,190.5966634999495,None,190.5966634999495,191.09856959991157,,,,,,,,,,,,,,,,111,2023-04-24_17h41.05.577,FishGame,2022.1.1,60.96497802483956,
,17,넌 현실적이야,3,Green,B,4.608695652173913,4.766666666666667,ScrollUp,ScrollDown,Green.png,1,Neutral,Neutral,0,0,0,0,,,,,,,,,,,,,0,16,16,16,,,,,,,,,,,,,,,,,,,,,,,,,,,,,,,,,,,,,,,,,,,,,,,,,,,,,,,,,,,,,,,,,,,,,,,,,,,,,,,,,,,,,1.6959876591960588,0.7573296000482515,191.7064239999745,None,ScrollUp,정답입니다,191.7064239999745,None,191.7064239999745,None,191.7064239999745,None,191.7064239999745,None,192.36320949997753,None,192.36320949997753,192.86526729993057,,,,,,,,,,,,,,,,111,2023-04-24_17h41.05.577,FishGame,2022.1.1,60.96497802483956,
,18,넌 의리있어,1,Green,B,5.833333333333334,5.633333333333334,ScrollUp,ScrollDown,Green.png,1,Positive,Incongruent,0,0,0,0,,,,,,,,,,,,,0,17,17,17,,,,,,,,,,,,,,,,,,,,,,,,,,,,,,,,,,,,,,,,,,,,,,,,,,,,,,,,,,,,,,,,,,,,,,,,,,,,,,,,,,,,,1.584876542290052,0.7461352000245824,193.4718823999865,None,ScrollUp,정답입니다,193.4718823999865,None,193.4718823999865,None,193.4718823999865,None,193.4718823999865,None,194.13197149999905,None,194.13197149999905,194.6319348999532,,,,,,,,,,,,,,,,111,2023-04-24_17h41.05.577,FishGame,2022.1.1,60.96497802483956,
,19,넌 신경과민이야,5,Orange,A,2.541666666666667,2.166666666666667,ScrollDown,ScrollUp,Orange.png,1,Negative,Incongruent,0,0,0,0,,,,,,,,,,,,,0,18,18,18,,,,,,,,,,,,,,,,,,,,,,,,,,,,,,,,,,,,,,,,,,,,,,,,,,,,,,,,,,,,,,,,,,,,,,,,,,,,,,,,,,,,,1.2839506218830743,0.7627923999680206,195.2503492999822,None,ScrollDown,정답입니다,195.2503492999822,None,195.2503492999822,None,195.2503492999822,None,195.2503492999822,None,195.91314630000852,None,195.91314630000852,196.4151550999377,,,,,,,,,,,,,,,,111,2023-04-24_17h41.05.577,FishGame,2022.1.1,60.96497802483956,
,20,넌 편안해,1,Orange,A,5.916666666666666,5.866666666666666,ScrollDown,ScrollUp,Orange.png,1,Positive,Congruent,0,0,0,0,,,,,,,,,,,,,0,19,19,19,,,,,,,,,,,,,,,,,,,,,,,,,,,,,,,,,,,,,,,,,,,,,,,,,,,,,,,,,,,,,,,,,,,,,,,,,,,,,,,,,,,,,1.2376543283462524,0.7130461999913678,197.0264919999754,None,ScrollDown,정답입니다,197.0264919999754,None,197.0264919999754,None,197.0264919999754,None,197.0264919999754,None,197.6464796999935,None,197.6464796999935,198.14848699991126,,,,,,,,,,,,,,,,111,2023-04-24_17h41.05.577,FishGame,2022.1.1,60.96497802483956,
,21,넌 품위있어,2,Green,B,5.291666666666666,4.466666666666667,ScrollUp,ScrollDown,Green.png,1,Positive,Incongruent,0,0,0,0,,,,,,,,,,,,,0,20,20,20,,,,,,,,,,,,,,,,,,,,,,,,,,,,,,,,,,,,,,,,,,,,,,,,,,,,,,,,,,,,,,,,,,,,,,,,,,,,,,,,,,,,,1.540123456468185,0.6982158999890089,198.75660299998708,None,NoResponse,무응답입니다,198.75660299998708,None,198.75660299998708,None,198.75660299998708,None,198.75660299998708,None,199.3631101999199,None,199.3631101999199,199.865146099939,,,,,,,,,,,,,,,,111,2023-04-24_17h41.05.577,FishGame,2022.1.1,60.96497802483956,
,22,넌 빈틈없어,3,Orange,A,4.833333333333333,3.966666666666667,ScrollDown,ScrollUp,Orange.png,1,Neutral,Neutral,0,0,0,0,,,,,,,,,,,,,0,21,21,21,,,,,,,,,,,,,,,,,,,,,,,,,,,,,,,,,,,,,,,,,,,,,,,,,,,,,,,,,,,,,,,,,,,,,,,,,,,,,,,,,,,,,1.115740751226743,0.8462079999735579,200.4753112999024,None,ScrollDown,정답입니다,200.4753112999024,None,200.4753112999024,None,200.4753112999024,None,200.4753112999024,None,201.22977350000292,None,201.22977350000292,201.7316831999924,,,,,,,,,,,,,,,,111,2023-04-24_17h41.05.577,FishGame,2022.1.1,60.96497802483956,
,23,넌 상상력없어,4,Green,B,2.833333333333333,3.133333333333333,ScrollUp,ScrollDown,Green.png,1,Negative,Congruent,0,0,0,0,,,,,,,,,,,,,0,22,22,22,,,,,,,,,,,,,,,,,,,,,,,,,,,,,,,,,,,,,,,,,,,,,,,,,,,,,,,,,,,,,,,,,,,,,,,,,,,,,,,,,,,,,1.825617293516795,0.7796904001152143,202.33859089994803,None,ScrollUp,정답입니다,202.33859089994803,None,202.33859089994803,None,202.33859089994803,None,202.33859089994803,None,203.03172179998364,None,203.03172179998364,203.53169689991046,,,,,,,,,,,,,,,,111,2023-04-24_17h41.05.577,FishGame,2022.1.1,60.96497802483956,
,24,넌 지혜로워,2,Green,B,6.333333333333334,4.633333333333334,ScrollUp,ScrollDown,Green.png,1,Positive,Incongruent,0,0,0,0,,,,,,,,,,,,,0,23,23,23,,,,,,,,,,,,,,,,,,,,,,,,,,,,,,,,,,,,,,,,,,,,,,,,,,,,,,,,,,,,,,,,,,,,,,,,,,,,,,,,,,,,,1.8827160596847534,0.7799304999643937,204.14088969992008,None,ScrollUp,정답입니다,204.14088969992008,None,204.14088969992008,None,204.14088969992008,None,204.14088969992008,None,204.8297078999458,None,204.8297078999458,205.33184789994266,,,,,,,,,,,,,,,,111,2023-04-24_17h41.05.577,FishGame,2022.1.1,60.96497802483956,
,25,넌 시끄러워,4,Orange,A,2.833333333333333,3.033333333333333,ScrollDown,ScrollUp,Orange.png,1,Negative,Incongruent,0,0,0,0,,,,,,,,,,,,,0,24,24,24,,,,,,,,,,,,,,,,,,,,,,,,,,,,,,,,,,,,,,,,,,,,,,,,,,,,,,,,,,,,,,,,,,,,,,,,,,,,,,,,,,,,,1.0293209950129192,0.7464425000362098,205.9481043999549,None,ScrollDown,정답입니다,205.9481043999549,None,205.9481043999549,None,205.9481043999549,None,205.9481043999549,None,206.59625299996696,None,206.59625299996696,207.0982843999518,,,,,,,,,,,,,,,,111,2023-04-24_17h41.05.577,FishGame,2022.1.1,60.96497802483956,
,26,넌 만사태평이야,3,Green,B,4,4.333333333333333,ScrollUp,ScrollDown,Green.png,1,Neutral,Neutral,0,0,0,0,,,,,,,,,,,,,0,25,25,25,,,,,,,,,,,,,,,,,,,,,,,,,,,,,,,,,,,,,,,,,,,,,,,,,,,,,,,,,,,,,,,,,,,,,,,,,,,,,,,,,,,,,1.839506169160207,0.8297900999896228,207.7072240000125,None,ScrollUp,정답입니다,207.7072240000125,None,207.7072240000125,None,207.7072240000125,None,207.7072240000125,None,208.4482932999963,None,208.4482932999963,208.94826979993377,,,,,,,,,,,,,,,,111,2023-04-24_17h41.05.577,FishGame,2022.1.1,60.96497802483956,
,27,넌 붙임성있어,1,Orange,A,5.708333333333333,5.633333333333334,ScrollDown,ScrollUp,Orange.png,1,Positive,Congruent,0,0,0,0,,,,,,,,,,,,,0,26,26,26,,,,,,,,,,,,,,,,,,,,,,,,,,,,,,,,,,,,,,,,,,,,,,,,,,,,,,,,,,,,,,,,,,,,,,,,,,,,,,,,,,,,,1.0277777810891469,0.8127339000348002,209.55966109992005,None,ScrollDown,정답입니다,209.55966109992005,None,209.55966109992005,None,209.55966109992005,None,209.55966109992005,None,210.28166629991028,None,210.28166629991028,210.78163509990554,,,,,,,,,,,,,,,,111,2023-04-24_17h41.05.577,FishGame,2022.1.1,60.96497802483956,
,28,넌 영리해,2,Orange,A,6,4.033333333333333,ScrollDown,ScrollUp,Orange.png,1,Positive,Congruent,0,0,0,0,,,,,,,,,,,,,0,27,27,27,,,,,,,,,,,,,,,,,,,,,,,,,,,,,,,,,,,,,,,,,,,,,,,,,,,,,,,,,,,,,,,,,,,,,,,,,,,,,,,,,,,,,1,0.8765754000050947,211.39369509997778,None,ScrollDown,정답입니다,211.39369509997778,None,211.39369509997778,None,211.39369509997778,None,211.39369509997778,None,212.18155149999075,None,212.18155149999075,212.68153229996096,,,,,,,,,,,,,,,,111,2023-04-24_17h41.05.577,FishGame,2022.1.1,60.96497802483956,
,29,넌 열심이야,1,Green,B,6.041666666666667,5.833333333333333,ScrollUp,ScrollDown,Green.png,1,Positive,Incongruent,0,0,0,0,,,,,,,,,,,,,0,28,28,28,,,,,,,,,,,,,,,,,,,,,,,,,,,,,,,,,,,,,,,,,,,,,,,,,,,,,,,,,,,,,,,,,,,,,,,,,,,,,,,,,,,,,1.8472222139437993,0.7463137999875471,213.28860410000198,None,ScrollUp,정답입니다,213.28860410000198,None,213.28860410000198,None,213.28860410000198,None,213.28860410000198,None,213.94828509993386,None,213.94828509993386,214.44812600000296,,,,,,,,,,,,,,,,111,2023-04-24_17h41.05.577,FishGame,2022.1.1,60.96497802483956,
,30,넌 인기없어,4,Green,B,3,3.3,ScrollUp,ScrollDown,Green.png,1,Negative,Congruent,0,0,0,0,,,,,,,,,,,,,0,29,29,29,,,,,,,,,,,,,,,,,,,,,,,,,,,,,,,,,,,,,,,,,,,,,,,,,,,,,,,,,,,,,,,,,,,,,,,,,,,,,,,,,,,,,1.9228395223617554,0.7961575000081211,215.05440119991545,None,ScrollUp,정답입니다,215.05440119991545,None,215.05440119991545,None,215.05440119991545,None,215.05440119991545,None,215.76478679990396,None,215.76478679990396,216.26475959992968,,,,,,,,,,,,,,,,111,2023-04-24_17h41.05.577,FishGame,2022.1.1,60.96497802483956,
,31,넌 익살스러워,3,Orange,A,4.708333333333334,4.833333333333333,ScrollDown,ScrollUp,Orange.png,1,Neutral,Neutral,0,0,0,0,,,,,,,,,,,,,0,30,30,30,,,,,,,,,,,,,,,,,,,,,,,,,,,,,,,,,,,,,,,,,,,,,,,,,,,,,,,,,,,,,,,,,,,,,,,,,,,,,,,,,,,,,1,0.7317866999655962,216.87581949995365,None,ScrollDown,정답입니다,216.87581949995365,None,216.87581949995365,None,216.87581949995365,None,216.87581949995365,None,217.51483000000007,None,217.51483000000007,218.01479479996487,,,,,,,,,,,,,,,,111,2023-04-24_17h41.05.577,FishGame,2022.1.1,60.96497802483956,
,32,넌 이기적이야,5,Green,B,2.291666666666667,2.333333333333333,ScrollUp,ScrollDown,Green.png,1,Negative,Congruent,0,0,0,0,,,,,,,,,,,,,0,31,31,31,,,,,,,,,,,,,,,,,,,,,,,,,,,,,,,,,,,,,,,,,,,,,,,,,,,,,,,,,,,,,,,,,,,,,,,,,,,,,,,,,,,,,1.8626543283462524,0.7629565999377519,218.62462159991264,None,ScrollUp,정답입니다,218.62462159991264,None,218.62462159991264,None,218.62462159991264,None,218.62462159991264,None,219.29805819992907,None,219.29805819992907,219.79805609991308,,,,,,,,,,,,,,,,111,2023-04-24_17h41.05.577,FishGame,2022.1.1,60.96497802483956,
,33,나를 데려가줘,6,Green,B,0,0,ScrollDown,ScrollUp,Green.png,1,NonTarget,NonTarget,0,0,0,0,,,,,,,,,,,,,0,32,32,32,,,,,,,,,,,,,,,,,,,,,,,,,,,,,,,,,,,,,,,,,,,,,,,,,,,,,,,,,,,,,,,,,,,,,,,,,,,,,,,,,,,,,1.9521604875723522,0.7298933001002297,220.40212350001093,None,ScrollUp,오답입니다,220.40212350001093,None,220.40212350001093,None,220.40212350001093,None,220.40212350001093,None,221.04601429996546,None,221.04601429996546,221.54799519991502,,,,,,,,,,,,,,,,111,2023-04-24_17h41.05.577,FishGame,2022.1.1,60.96497802483956,
,34,넌 기회주의자야,5,Orange,A,2.875,2.133333333333333,ScrollDown,ScrollUp,Orange.png,1,Negative,Incongruent,0,0,0,0,,,,,,,,,,,,,0,33,33,33,,,,,,,,,,,,,,,,,,,,,,,,,,,,,,,,,,,,,,,,,,,,,,,,,,,,,,,,,,,,,,,,,,,,,,,,,,,,,,,,,,,,,1.0077160497506459,0.8296043999725953,222.15780579997227,None,ScrollDown,정답입니다,222.15780579997227,None,222.15780579997227,None,222.15780579997227,None,222.15780579997227,None,222.89596220001113,None,222.89596220001113,223.39802189997863,,,,,,,,,,,,,,,,111,2023-04-24_17h41.05.577,FishGame,2022.1.1,60.96497802483956,
,1,넌 미성숙해,4,Orange,A,3,3.2,ScrollDown,ScrollUp,Orange.png,2,Negative,Incongruent,0,0,0,0,,,,,,,,,,,,,,,,,0,0,0,0,,,,,,,,,,,,,,,,,,,,,,,,,,,,,,,,,,,,,,,,255.7952599999262,257.297490799916,257.3309241000097,258.2808398999041,258.33081509999465,259.2840998999309,259.2674368999433,None,,,,,,,,,,,,,,,,,,,,,,,,,,,,,,,,,,1.1141975373029709,0.873999199946411,260.3640715999063,None,ScrollDown,정답입니다,260.3640715999063,None,260.3640715999063,None,260.3640715999063,None,260.3640715999063,None,261.1474589999998,None,261.1474589999998,261.6505393999396,223.89807120000478,None,223.89807120000478,None,0.24444444,-0.117592596,1,0,0,0.016278550145216286,None,253.90040569996927,None,,,111,2023-04-24_17h41.05.577,FishGame,2022.1.1,60.96497802483956,
,2,넌 반사회적이야,5,Green,B,2.416666666666667,2.033333333333333,ScrollUp,ScrollDown,Green.png,2,Negative,Congruent,0,0,0,0,,,,,,,,,,,,,,,,,0,1,1,1,,,,,,,,,,,,,,,,,,,,,,,,,,,,,,,,,,,,,,,,,,,,,,,,,,,,,,,,,,,,,,,,,,,,,,,,,,,,,,,,,1.89969136317571,0.7625868000322953,262.25441479997244,None,ScrollUp,정답입니다,262.25441479997244,None,262.25441479997244,None,262.25441479997244,None,262.25441479997244,None,262.93052249995526,None,262.93052249995526,263.43048889993224,,,,,,,,,,,,,,,,111,2023-04-24_17h41.05.577,FishGame,2022.1.1,60.96497802483956,
,3,넌 유능해,2,Orange,A,6.208333333333333,4.433333333333334,ScrollDown,ScrollUp,Orange.png,2,Positive,Congruent,0,0,0,0,,,,,,,,,,,,,,,,,0,2,2,2,,,,,,,,,,,,,,,,,,,,,,,,,,,,,,,,,,,,,,,,,,,,,,,,,,,,,,,,,,,,,,,,,,,,,,,,,,,,,,,,,1.0015431940555573,0.7984528999077156,264.0403436999768,None,ScrollDown,정답입니다,264.0403436999768,None,264.0403436999768,None,264.0403436999768,None,264.0403436999768,None,264.74513189995196,None,264.74513189995196,265.2471746999072,,,,,,,,,,,,,,,,111,2023-04-24_17h41.05.577,FishGame,2022.1.1,60.96497802483956,
,4,넌 능숙해,2,Green,B,5.666666666666667,4.733333333333333,ScrollUp,ScrollDown,Green.png,2,Positive,Incongruent,0,0,0,0,,,,,,,,,,,,,,,,,0,3,3,3,,,,,,,,,,,,,,,,,,,,,,,,,,,,,,,,,,,,,,,,,,,,,,,,,,,,,,,,,,,,,,,,,,,,,,,,,,,,,,,,,1.8364197413126628,0.8151671999366954,265.851118999999,None,ScrollUp,정답입니다,265.851118999999,None,265.851118999999,None,265.851118999999,None,265.851118999999,None,266.57837010000367,None,266.57837010000367,267.08042389992625,,,,,,,,,,,,,,,,111,2023-04-24_17h41.05.577,FishGame,2022.1.1,60.96497802483956,
,5,넌 진부해,4,Green,B,2.458333333333333,3.166666666666667,ScrollUp,ScrollDown,Green.png,2,Negative,Congruent,0,0,0,0,,,,,,,,,,,,,,,,,0,4,4,4,,,,,,,,,,,,,,,,,,,,,,,,,,,,,,,,,,,,,,,,,,,,,,,,,,,,,,,,,,,,,,,,,,,,,,,,,,,,,,,,,1.9089506218830745,0.6965881999349222,267.68764679995365,None,ScrollUp,정답입니다,267.68764679995365,None,267.68764679995365,None,267.68764679995365,None,267.68764679995365,None,268.29703989997506,None,268.29703989997506,268.79707019997295,,,,,,,,,,,,,,,,111,2023-04-24_17h41.05.577,FishGame,2022.1.1,60.96497802483956,
,6,나를 보내줘,6,Orange,A,0,0,ScrollUp,ScrollDown,Orange.png,2,NonTarget,NonTarget,0,0,0,0,,,,,,,,,,,,,,,,,0,5,5,5,,,,,,,,,,,,,,,,,,,,,,,,,,,,,,,,,,,,,,,,,,,,,,,,,,,,,,,,,,,,,,,,,,,,,,,,,,,,,,,,,1.9799382885297139,0.8649785000598058,269.40407679998316,None,ScrollUp,정답입니다,269.40407679998316,None,269.40407679998316,None,269.40407679998316,None,269.40407679998316,None,270.18048009998165,None,270.18048009998165,270.68042320001405,,,,,,,,,,,,,,,,111,2023-04-24_17h41.05.577,FishGame,2022.1.1,60.96497802483956,
,7,넌 엄격해,3,Orange,A,4.166666666666666,4.1,ScrollDown,ScrollUp,Orange.png,2,Neutral,Neutral,0,0,0,0,,,,,,,,,,,,,,,,,0,6,6,6,,,,,,,,,,,,,,,,,,,,,,,,,,,,,,,,,,,,,,,,,,,,,,,,,,,,,,,,,,,,,,,,,,,,,,,,,,,,,,,,,1,0.8151934999041259,271.29565419990104,None,ScrollDown,정답입니다,271.29565419990104,None,271.29565419990104,None,271.29565419990104,None,271.29565419990104,None,272.0137287999969,None,272.0137287999969,272.5136979999952,,,,,,,,,,,,,,,,111,2023-04-24_17h41.05.577,FishGame,2022.1.1,60.96497802483956,
,8,나를 보내줘,6,Orange,A,0,0,ScrollUp,ScrollDown,Orange.png,2,NonTarget,NonTarget,0,0,0,0,,,,,,,,,,,,,,,,,0,7,7,7,,,,,,,,,,,,,,,,,,,,,,,,,,,,,,,,,,,,,,,,,,,,,,,,,,,,,,,,,,,,,,,,,,,,,,,,,,,,,,,,,1.9444444676240284,0.9150878000073135,273.1200085999444,None,ScrollUp,정답입니다,273.1200085999444,None,273.1200085999444,None,273.1200085999444,None,273.1200085999444,None,273.94717099994887,None,273.94717099994887,274.44693149998784,,,,,,,,,,,,,,,,111,2023-04-24_17h41.05.577,FishGame,2022.1.1,60.96497802483956,
,9,넌 대담해,3,Green,B,4.875,4.866666666666666,ScrollUp,ScrollDown,Green.png,2,Neutral,Neutral,0,0,0,0,,,,,,,,,,,,,,,,,0,8,8,8,,,,,,,,,,,,,,,,,,,,,,,,,,,,,,,,,,,,,,,,,,,,,,,,,,,,,,,,,,,,,,,,,,,,,,,,,,,,,,,,,1.9212963084379833,0.7464140999363735,275.0538587999763,None,ScrollUp,정답입니다,275.0538587999763,None,275.0538587999763,None,275.0538587999763,None,275.0538587999763,None,275.7135966999922,None,275.7135966999922,276.21356239996385,,,,,,,,,,,,,,,,111,2023-04-24_17h41.05.577,FishGame,2022.1.1,60.96497802483956,
,10,넌 꾸준해,1,Orange,A,5.916666666666668,5.8,ScrollDown,ScrollUp,Orange.png,2,Positive,Congruent,0,0,0,0,,,,,,,,,,,,,,,,,0,9,9,9,,,,,,,,,,,,,,,,,,,,,,,,,,,,,,,,,,,,,,,,,,,,,,,,,,,,,,,,,,,,,,,,,,,,,,,,,,,,,,,,,1,0.8127788999117911,276.8230298999697,None,ScrollDown,정답입니다,276.8230298999697,None,276.8230298999697,None,276.8230298999697,None,276.8230298999697,None,277.5448542999802,None,277.5448542999802,278.04694889998063,,,,,,,,,,,,,,,,111,2023-04-24_17h41.05.577,FishGame,2022.1.1,60.96497802483956,
,11,나를 데려가줘,6,Green,B,0,0,ScrollDown,ScrollUp,Green.png,2,NonTarget,NonTarget,0,0,0,0,,,,,,,,,,,,,,,,,0,10,10,10,,,,,,,,,,,,,,,,,,,,,,,,,,,,,,,,,,,,,,,,,,,,,,,,,,,,,,,,,,,,,,,,,,,,,,,,,,,,,,,,,1,0.8959055000450462,278.65591949992813,None,ScrollDown,정답입니다,278.65591949992813,None,278.65591949992813,None,278.65591949992813,None,278.65591949992813,None,279.46120179991703,None,279.46120179991703,279.9612036999315,,,,,,,,,,,,,,,,111,2023-04-24_17h41.05.577,FishGame,2022.1.1,60.96497802483956,
,12,넌 독선적이야,5,Orange,A,2.458333333333333,1.933333333333333,ScrollDown,ScrollUp,Orange.png,2,Negative,Incongruent,0,0,0,0,,,,,,,,,,,,,,,,,0,11,11,11,,,,,,,,,,,,,,,,,,,,,,,,,,,,,,,,,,,,,,,,,,,,,,,,,,,,,,,,,,,,,,,,,,,,,,,,,,,,,,,,,1.0262345671653748,0.848156499909237,280.5694022999378,None,ScrollDown,정답입니다,280.5694022999378,None,280.5694022999378,None,280.5694022999378,None,280.5694022999378,None,281.32792919990607,None,281.32792919990607,281.8303031999385,,,,,,,,,,,,,,,,111,2023-04-24_17h41.05.577,FishGame,2022.1.1,60.96497802483956,
,13,나를 보내줘,6,Orange,A,0,0,ScrollUp,ScrollDown,Orange.png,2,NonTarget,NonTarget,0,0,0,0,,,,,,,,,,,,,,,,,0,12,12,12,,,,,,,,,,,,,,,,,,,,,,,,,,,,,,,,,,,,,,,,,,,,,,,,,,,,,,,,,,,,,,,,,,,,,,,,,,,,,,,,,1.8117283930381138,0.9484881000826135,282.44010090001393,None,ScrollUp,정답입니다,282.44010090001393,None,282.44010090001393,None,282.44010090001393,None,282.44010090001393,None,283.29706629994325,None,283.29706629994325,283.8002829999896,,,,,,,,,,,,,,,,111,2023-04-24_17h41.05.577,FishGame,2022.1.1,60.96497802483956,
,14,넌 책임감있어,1,Green,B,6.347826086956522,6,ScrollUp,ScrollDown,Green.png,2,Positive,Incongruent,0,0,0,0,,,,,,,,,,,,,,,,,0,13,13,13,,,,,,,,,,,,,,,,,,,,,,,,,,,,,,,,,,,,,,,,,,,,,,,,,,,,,,,,,,,,,,,,,,,,,,,,,,,,,,,,,1.9737654328346252,0.8148711000103503,284.40461319999304,None,ScrollUp,정답입니다,284.40461319999304,None,284.40461319999304,None,284.40461319999304,None,284.40461319999304,None,285.1280500999419,None,285.1280500999419,285.63009130000137,,,,,,,,,,,,,,,,111,2023-04-24_17h41.05.577,FishGame,2022.1.1,60.96497802483956,
,15,넌 문학적이야,3,Orange,A,4.708333333333334,4.333333333333333,ScrollDown,ScrollUp,Orange.png,2,Neutral,Neutral,0,0,0,0,,,,,,,,,,,,,,,,,0,14,14,14,,,,,,,,,,,,,,,,,,,,,,,,,,,,,,,,,,,,,,,,,,,,,,,,,,,,,,,,,,,,,,,,,,,,,,,,,,,,,,,,,1,0.8128741999389604,286.2394048999995,None,ScrollDown,정답입니다,286.2394048999995,None,286.2394048999995,None,286.2394048999995,None,286.2394048999995,None,286.96131019992754,None,286.96131019992754,287.4632952999091,,,,,,,,,,,,,,,,111,2023-04-24_17h41.05.577,FishGame,2022.1.1,60.96497802483956,
,16,넌 재미있어,1,Green,B,5.875,5.7,ScrollUp,ScrollDown,Green.png,2,Positive,Incongruent,0,0,0,0,,,,,,,,,,,,,,,,,0,15,15,15,,,,,,,,,,,,,,,,,,,,,,,,,,,,,,,,,,,,,,,,,,,,,,,,,,,,,,,,,,,,,,,,,,,,,,,,,,,,,,,,,1.8225308656692505,0.7963831999804825,288.06669050001074,None,ScrollUp,정답입니다,288.06669050001074,None,288.06669050001074,None,288.06669050001074,None,288.06669050001074,None,288.7799975000089,None,288.7799975000089,289.28002069995273,,,,,,,,,,,,,,,,111,2023-04-24_17h41.05.577,FishGame,2022.1.1,60.96497802483956,
,17,나를 데려가줘,6,Green,B,0,0,ScrollDown,ScrollUp,Green.png,2,NonTarget,NonTarget,0,0,0,0,,,,,,,,,,,,,,,,,0,16,16,16,,,,,,,,,,,,,,,,,,,,,,,,,,,,,,,,,,,,,,,,,,,,,,,,,,,,,,,,,,,,,,,,,,,,,,,,,,,,,,,,,1.0354938507080078,0.8960800999775529,289.8840384999057,None,ScrollDown,정답입니다,289.8840384999057,None,289.8840384999057,None,289.8840384999057,None,289.8840384999057,None,290.69432249991223,None,290.69432249991223,291.1943142999662,,,,,,,,,,,,,,,,111,2023-04-24_17h41.05.577,FishGame,2022.1.1,60.96497802483956,
,18,넌 협력적이야,1,Orange,A,5.625,5.633333333333334,ScrollDown,ScrollUp,Orange.png,2,Positive,Congruent,0,0,0,0,,,,,,,,,,,,,,,,,0,17,17,17,,,,,,,,,,,,,,,,,,,,,,,,,,,,,,,,,,,,,,,,,,,,,,,,,,,,,,,,,,,,,,,,,,,,,,,,,,,,,,,,,1,0.7650395999662578,291.8020426000003,None,ScrollDown,정답입니다,291.8020426000003,None,291.8020426000003,None,291.8020426000003,None,291.8020426000003,None,292.4777068999829,None,292.4777068999829,292.97764950001147,,,,,,,,,,,,,,,,111,2023-04-24_17h41.05.577,FishGame,2022.1.1,60.96497802483956,
,19,넌 평범해,3,Green,B,4.333333333333332,4.233333333333333,ScrollUp,ScrollDown,Green.png,2,Neutral,Neutral,0,0,0,0,,,,,,,,,,,,,,,,,0,18,18,18,,,,,,,,,,,,,,,,,,,,,,,,,,,,,,,,,,,,,,,,,,,,,,,,,,,,,,,,,,,,,,,,,,,,,,,,,,,,,,,,,1.7623456716537476,0.8486937000416219,293.5866352999583,None,ScrollUp,정답입니다,293.5866352999583,None,293.5866352999583,None,293.5866352999583,None,293.5866352999583,None,294.3468497999711,None,294.3468497999711,294.8467331000138,,,,,,,,,,,,,,,,111,2023-04-24_17h41.05.577,FishGame,2022.1.1,60.96497802483956,
,20,넌 오만해,5,Orange,A,2.333333333333333,2,ScrollDown,ScrollUp,Orange.png,2,Negative,Incongruent,0,0,0,0,,,,,,,,,,,,,,,,,0,19,19,19,,,,,,,,,,,,,,,,,,,,,,,,,,,,,,,,,,,,,,,,,,,,,,,,,,,,,,,,,,,,,,,,,,,,,,,,,,,,,,,,,1,1.061996000004001,295.4638957999414,None,ScrollDown,정답입니다,295.4638957999414,None,295.4638957999414,None,295.4638957999414,None,295.4638957999414,None,296.4299378999276,None,296.4299378999276,296.9299270999618,,,,,,,,,,,,,,,,111,2023-04-24_17h41.05.577,FishGame,2022.1.1,60.96497802483956,
,21,넌 운이없어,4,Green,B,3,3.466666666666667,ScrollUp,ScrollDown,Green.png,2,Negative,Congruent,0,0,0,0,,,,,,,,,,,,,,,,,0,20,20,20,,,,,,,,,,,,,,,,,,,,,,,,,,,,,,,,,,,,,,,,,,,,,,,,,,,,,,,,,,,,,,,,,,,,,,,,,,,,,,,,,1.746913582086563,0.7626796999247745,297.53763209993485,None,ScrollUp,정답입니다,297.53763209993485,None,297.53763209993485,None,297.53763209993485,None,297.53763209993485,None,298.21310990001075,None,298.21310990001075,298.7131103000138,,,,,,,,,,,,,,,,111,2023-04-24_17h41.05.577,FishGame,2022.1.1,60.96497802483956,
,22,넌 창조적이야,2,Green,B,6.125,4.633333333333334,ScrollUp,ScrollDown,Green.png,2,Positive,Incongruent,0,0,0,0,,,,,,,,,,,,,,,,,0,21,21,21,,,,,,,,,,,,,,,,,,,,,,,,,,,,,,,,,,,,,,,,,,,,,,,,,,,,,,,,,,,,,,,,,,,,,,,,,,,,,,,,,1.4645061728854973,0.8128397000255063,299.32102669996675,None,NoResponse,무응답입니다,299.32102669996675,None,299.32102669996675,None,299.32102669996675,None,299.32102669996675,None,300.044461100013,None,300.044461100013,300.5464518999215,,,,,,,,,,,,,,,,111,2023-04-24_17h41.05.577,FishGame,2022.1.1,60.96497802483956,
,23,나를 보내줘,6,Orange,A,0,0,ScrollUp,ScrollDown,Orange.png,2,NonTarget,NonTarget,0,0,0,0,,,,,,,,,,,,,,,,,0,22,22,22,,,,,,,,,,,,,,,,,,,,,,,,,,,,,,,,,,,,,,,,,,,,,,,,,,,,,,,,,,,,,,,,,,,,,,,,,,,,,,,,,1.703703703979651,0.9148673000745475,301.15265249996446,None,ScrollUp,정답입니다,301.15265249996446,None,301.15265249996446,None,301.15265249996446,None,301.15265249996446,None,301.97987249994185,None,301.97987249994185,302.47968489991035,,,,,,,,,,,,,,,,111,2023-04-24_17h41.05.577,FishGame,2022.1.1,60.96497802483956,
,24,넌 통찰력있어,2,Orange,A,6.5,4.8,ScrollDown,ScrollUp,Orange.png,2,Positive,Congruent,0,0,0,0,,,,,,,,,,,,,,,,,0,23,23,23,,,,,,,,,,,,,,,,,,,,,,,,,,,,,,,,,,,,,,,,,,,,,,,,,,,,,,,,,,,,,,,,,,,,,,,,,,,,,,,,,1,0.9464294000063092,303.0890272000106,None,ScrollDown,정답입니다,303.0890272000106,None,303.0890272000106,None,303.0890272000106,None,303.0890272000106,None,303.9463401999092,None,303.9463401999092,304.44630740000866,,,,,,,,,,,,,,,,111,2023-04-24_17h41.05.577,FishGame,2022.1.1,60.96497802483956,
,25,넌 경솔해,5,Green,B,2.458333333333333,2.266666666666667,ScrollUp,ScrollDown,Green.png,2,Negative,Congruent,0,0,0,0,,,,,,,,,,,,,,,,,0,24,24,24,,,,,,,,,,,,,,,,,,,,,,,,,,,,,,,,,,,,,,,,,,,,,,,,,,,,,,,,,,,,,,,,,,,,,,,,,,,,,,,,,1.819444437821706,0.8148532999912277,305.05228279996663,None,ScrollUp,정답입니다,305.05228279996663,None,305.05228279996663,None,305.05228279996663,None,305.05228279996663,None,305.7796848999569,None,305.7796848999569,306.27966439991724,,,,,,,,,,,,,,,,111,2023-04-24_17h41.05.577,FishGame,2022.1.1,60.96497802483956,
,26,넌 초조해,4,Orange,A,2.916666666666667,3.133333333333333,ScrollDown,ScrollUp,Orange.png,2,Negative,Incongruent,0,0,0,0,,,,,,,,,,,,,,,,,0,25,25,25,,,,,,,,,,,,,,,,,,,,,,,,,,,,,,,,,,,,,,,,,,,,,,,,,,,,,,,,,,,,,,,,,,,,,,,,,,,,,,,,,1.0277777810891469,0.7625999000156298,306.8877984000137,None,ScrollDown,정답입니다,306.8877984000137,None,306.8877984000137,None,306.8877984000137,None,306.8877984000137,None,307.5608728999505,None,307.5608728999505,308.0608582999557,,,,,,,,,,,,,,,,111,2023-04-24_17h41.05.577,FishGame,2022.1.1,60.96497802483956,
,27,넌 무관심해,4,Green,B,2.833333333333333,2.9,ScrollUp,ScrollDown,Green.png,2,Negative,Congruent,0,0,0,0,,,,,,,,,,,,,,,,,0,26,26,26,,,,,,,,,,,,,,,,,,,,,,,,,,,,,,,,,,,,,,,,,,,,,,,,,,,,,,,,,,,,,,,,,,,,,,,,,,,,,,,,,1.9799382885297139,0.7650969000533223,308.66879109991714,None,ScrollUp,정답입니다,308.66879109991714,None,308.66879109991714,None,308.66879109991714,None,308.66879109991714,None,309.34421559993643,None,309.34421559993643,309.8462231999729,,,,,,,,,,,,,,,,111,2023-04-24_17h41.05.577,FishGame,2022.1.1,60.96497802483956,
,28,넌 감성적이야,3,Green,B,4.125,4.166666666666667,ScrollUp,ScrollDown,Green.png,2,Neutral,Neutral,0,0,0,0,,,,,,,,,,,,,,,,,0,27,27,27,,,,,,,,,,,,,,,,,,,,,,,,,,,,,,,,,,,,,,,,,,,,,,,,,,,,,,,,,,,,,,,,,,,,,,,,,,,,,,,,,1.7500000099341075,0.7459878000663593,310.4505653999513,None,ScrollUp,정답입니다,310.4505653999513,None,310.4505653999513,None,310.4505653999513,None,310.4505653999513,None,311.11293439997826,None,311.11293439997826,311.6130103999749,,,,,,,,,,,,,,,,111,2023-04-24_17h41.05.577,FishGame,2022.1.1,60.96497802483956,
,29,넌 배려심있어,1,Orange,A,6.083333333333333,5.5,ScrollDown,ScrollUp,Orange.png,2,Positive,Congruent,0,0,0,0,,,,,,,,,,,,,,,,,0,28,28,28,,,,,,,,,,,,,,,,,,,,,,,,,,,,,,,,,,,,,,,,,,,,,,,,,,,,,,,,,,,,,,,,,,,,,,,,,,,,,,,,,1,0.7960767999757081,312.22188999992795,None,ScrollDown,정답입니다,312.22188999992795,None,312.22188999992795,None,312.22188999992795,None,312.22188999992795,None,312.9272256999975,None,312.9272256999975,313.4271938999882,,,,,,,,,,,,,,,,111,2023-04-24_17h41.05.577,FishGame,2022.1.1,60.96497802483956,
,30,넌 숨김없어,3,Orange,A,4.5,4.933333333333334,ScrollDown,ScrollUp,Orange.png,2,Neutral,Neutral,0,0,0,0,,,,,,,,,,,,,,,,,0,29,29,29,,,,,,,,,,,,,,,,,,,,,,,,,,,,,,,,,,,,,,,,,,,,,,,,,,,,,,,,,,,,,,,,,,,,,,,,,,,,,,,,,1,0.7649014999624342,314.03566269995645,None,ScrollDown,정답입니다,314.03566269995645,None,314.03566269995645,None,314.03566269995645,None,314.03566269995645,None,314.71055600000545,None,314.71055600000545,315.21055129996967,,,,,,,,,,,,,,,,111,2023-04-24_17h41.05.577,FishGame,2022.1.1,60.96497802483956,
,31,넌 훌륭해,2,Green,B,5.916666666666667,4.033333333333333,ScrollUp,ScrollDown,Green.png,2,Positive,Incongruent,0,0,0,0,,,,,,,,,,,,,,,,,0,30,30,30,,,,,,,,,,,,,,,,,,,,,,,,,,,,,,,,,,,,,,,,,,,,,,,,,,,,,,,,,,,,,,,,,,,,,,,,,,,,,,,,,1.919753094514211,0.8648922999855131,315.82104720000643,None,ScrollUp,정답입니다,315.82104720000643,None,315.82104720000643,None,315.82104720000643,None,315.82104720000643,None,316.59636019996833,None,316.59636019996833,317.0962000999134,,,,,,,,,,,,,,,,111,2023-04-24_17h41.05.577,FishGame,2022.1.1,60.96497802483956,
,32,넌 슬기로워,2,Orange,A,6.166666666666667,4.1,ScrollDown,ScrollUp,Orange.png,2,Positive,Congruent,0,0,0,0,,,,,,,,,,,,,,,,,0,31,31,31,,,,,,,,,,,,,,,,,,,,,,,,,,,,,,,,,,,,,,,,,,,,,,,,,,,,,,,,,,,,,,,,,,,,,,,,,,,,,,,,,1,0.7626053000567481,317.7052520000143,None,ScrollDown,정답입니다,317.7052520000143,None,317.7052520000143,None,317.7052520000143,None,317.7052520000143,None,318.3793972999556,None,318.3793972999556,318.8793667999562,,,,,,,,,,,,,,,,111,2023-04-24_17h41.05.577,FishGame,2022.1.1,60.96497802483956,
,33,넌 냉혹해,5,Orange,A,2.583333333333333,2.1,ScrollDown,ScrollUp,Orange.png,2,Negative,Incongruent,0,0,0,0,,,,,,,,,,,,,,,,,0,32,32,32,,,,,,,,,,,,,,,,,,,,,,,,,,,,,,,,,,,,,,,,,,,,,,,,,,,,,,,,,,,,,,,,,,,,,,,,,,,,,,,,,1,0.7963447000365704,319.4881559999194,None,ScrollDown,정답입니다,319.4881559999194,None,319.4881559999194,None,319.4881559999194,None,319.4881559999194,None,320.19612989993766,None,320.19612989993766,320.6960523999296,,,,,,,,,,,,,,,,111,2023-04-24_17h41.05.577,FishGame,2022.1.1,60.96497802483956,
,34,나를 데려가줘,6,Green,B,0,0,ScrollDown,ScrollUp,Green.png,2,NonTarget,NonTarget,0,0,0,0,,,,,,,,,,,,,,,,,0,33,33,33,,,,,,,,,,,,,,,,,,,,,,,,,,,,,,,,,,,,,,,,,,,,,,,,,,,,,,,,,,,,,,,,,,,,,,,,,,,,,,,,,1,1.2463552000699565,321.2978159999475,None,ScrollDown,정답입니다,321.2978159999475,None,321.2978159999475,None,321.2978159999475,None,321.2978159999475,None,322.46266869991086,None,322.46266869991086,322.9626401999267,,,,,,,,,,,,,,,,111,2023-04-24_17h41.05.577,FishGame,2022.1.1,60.96497802483956,
,35,넌 편파적이야,5,Green,B,2.125,2,ScrollUp,ScrollDown,Green.png,2,Negative,Congruent,0,0,0,0,,,,,,,,,,,,,,,,,0,34,34,34,,,,,,,,,,,,,,,,,,,,,,,,,,,,,,,,,,,,,,,,,,,,,,,,,,,,,,,,,,,,,,,,,,,,,,,,,,,,,,,,,1.4753086424122255,0.7965084000024945,323.5783161999425,None,NoResponse,무응답입니다,323.5783161999425,None,323.5783161999425,None,323.5783161999425,None,323.5783161999425,None,324.27940929995384,None,324.27940929995384,324.77928529994097,,,,,,,,,,,,,,,,111,2023-04-24_17h41.05.577,FishGame,2022.1.1,60.96497802483956,
,36,넌 슬퍼,4,Orange,A,2.583333333333333,3.066666666666667,ScrollDown,ScrollUp,Orange.png,2,Negative,Incongruent,0,0,0,0,,,,,,,,,,,,,,,,,0,35,35,35,,,,,,,,,,,,,,,,,,,,,,,,,,,,,,,,,,,,,,,,,,,,,,,,,,,,,,,,,,,,,,,,,,,,,,,,,,,,,,,,,1.0771604776382446,0.7817703000037,325.38561749993823,None,ScrollDown,정답입니다,325.38561749993823,None,325.38561749993823,None,325.38561749993823,None,325.38561749993823,None,326.07725909992587,None,326.07725909992587,326.5792253999971,,,,,,,,,,,,,,,,111,2023-04-24_17h41.05.577,FishGame,2022.1.1,60.96497802483956,
,37,나를 데려가줘,6,Green,B,0,0,ScrollDown,ScrollUp,Green.png,2,NonTarget,NonTarget,0,0,0,0,,,,,,,,,,,,,,,,,0,36,36,36,,,,,,,,,,,,,,,,,,,,,,,,,,,,,,,,,,,,,,,,,,,,,,,,,,,,,,,,,,,,,,,,,,,,,,,,,,,,,,,,,1,1.2464026999659836,327.1837668999797,None,ScrollDown,정답입니다,327.1837668999797,None,327.1837668999797,None,327.1837668999797,None,327.1837668999797,None,328.34588229993824,None,328.34588229993824,328.8458727999823,,,,,,,,,,,,,,,,111,2023-04-24_17h41.05.577,FishGame,2022.1.1,60.96497802483956,
,38,넌 친절해,1,Green,B,6.041666666666667,5.533333333333333,ScrollUp,ScrollDown,Green.png,2,Positive,Incongruent,0,0,0,0,,,,,,,,,,,,,,,,,0,37,37,37,,,,,,,,,,,,,,,,,,,,,,,,,,,,,,,,,,,,,,,,,,,,,,,,,,,,,,,,,,,,,,,,,,,,,,,,,,,,,,,,,1.6882716019948325,0.7464841000037268,329.45402159995865,None,ScrollUp,정답입니다,329.45402159995865,None,329.45402159995865,None,329.45402159995865,None,329.45402159995865,None,330.11249460000545,None,330.11249460000545,330.61254140001256,,,,,,,,,,,,,,,,111,2023-04-24_17h41.05.577,FishGame,2022.1.1,60.96497802483956,
,1,넌 엉성해,4,Orange,A,3,3.3,ScrollDown,ScrollUp,Orange.png,3,Negative,Incongruent,0,0,0,0,,,,,,,,,,,,,,,,,,,,,0,0,0,0,,,,,,,,,,,,,,,,,,,,,,,,,,,,,,,,,,,,364.7785411999794,366.27863570000045,366.3119741999544,367.2619473999366,367.31220719998237,368.26194389990997,368.26194389990997,None,,,,,,,,,,,,,,,,,,,,,,,,,,,,,,,,,,1,1.0213744000066072,369.34529500000644,None,ScrollDown,정답입니다,369.34529500000644,None,369.34529500000644,None,369.34529500000644,None,369.34529500000644,None,370.2784832000034,None,370.2784832000034,370.77830859995447,331.11257549992297,None,331.11257549992297,None,0.25277779,-0.10277778,1,0,0,0.016230650013312697,None,361.11185659992043,None,,,111,2023-04-24_17h41.05.577,FishGame,2022.1.1,60.96497802483956,
,2,나를 보내줘,6,Orange,A,0,0,ScrollUp,ScrollDown,Orange.png,3,NonTarget,NonTarget,0,0,0,0,,,,,,,,,,,,,,,,,,,,,0,1,1,1,,,,,,,,,,,,,,,,,,,,,,,,,,,,,,,,,,,,,,,,,,,,,,,,,,,,,,,,,,,,,,,,,,,,,,,,,,,,,1.9876543084780376,0.9627959000645205,371.38223230000585,None,ScrollUp,정답입니다,371.38223230000585,None,371.38223230000585,None,371.38223230000585,None,371.38223230000585,None,372.259605399915,None,372.259605399915,372.761637999909,,,,,,,,,,,,,,,,111,2023-04-24_17h41.05.577,FishGame,2022.1.1,60.96497802483956,
,3,넌 활발해,1,Green,B,5.666666666666667,5.6,ScrollUp,ScrollDown,Green.png,3,Positive,Incongruent,0,0,0,0,,,,,,,,,,,,,,,,,,,,,0,2,2,2,,,,,,,,,,,,,,,,,,,,,,,,,,,,,,,,,,,,,,,,,,,,,,,,,,,,,,,,,,,,,,,,,,,,,,,,,,,,,2,0.8814910999499261,373.3691608000081,None,ScrollUp,정답입니다,373.3691608000081,None,373.3691608000081,None,373.3691608000081,None,373.3691608000081,None,374.1617005999433,None,374.1617005999433,374.6616381999338,,,,,,,,,,,,,,,,111,2023-04-24_17h41.05.577,FishGame,2022.1.1,60.96497802483956,
,4,넌 논리적이야,2,Orange,A,5.666666666666666,4.633333333333334,ScrollDown,ScrollUp,Orange.png,3,Positive,Congruent,0,0,0,0,,,,,,,,,,,,,,,,,,,,,0,3,3,3,,,,,,,,,,,,,,,,,,,,,,,,,,,,,,,,,,,,,,,,,,,,,,,,,,,,,,,,,,,,,,,,,,,,,,,,,,,,,1,0.8461797999916598,375.2798127999995,None,ScrollDown,정답입니다,375.2798127999995,None,375.2798127999995,None,375.2798127999995,None,375.2798127999995,None,376.02823179995175,None,376.02823179995175,376.52820979990065,,,,,,,,,,,,,,,,111,2023-04-24_17h41.05.577,FishGame,2022.1.1,60.96497802483956,
,5,넌 과묵해,3,Orange,A,3.875,4.4,ScrollDown,ScrollUp,Orange.png,3,Neutral,Neutral,0,0,0,0,,,,,,,,,,,,,,,,,,,,,0,4,4,4,,,,,,,,,,,,,,,,,,,,,,,,,,,,,,,,,,,,,,,,,,,,,,,,,,,,,,,,,,,,,,,,,,,,,,,,,,,,,1,0.8484002000186592,377.13526000001,None,ScrollDown,정답입니다,377.13526000001,None,377.13526000001,None,377.13526000001,None,377.13526000001,None,377.8948708999669,None,377.8948708999669,378.3948522999417,,,,,,,,,,,,,,,,111,2023-04-24_17h41.05.577,FishGame,2022.1.1,60.96497802483956,
,6,나를 데려가줘,6,Green,B,0,0,ScrollDown,ScrollUp,Green.png,3,NonTarget,NonTarget,0,0,0,0,,,,,,,,,,,,,,,,,,,,,0,5,5,5,,,,,,,,,,,,,,,,,,,,,,,,,,,,,,,,,,,,,,,,,,,,,,,,,,,,,,,,,,,,,,,,,,,,,,,,,,,,,1,1.1294997000368312,378.9964279999258,None,ScrollDown,정답입니다,378.9964279999258,None,378.9964279999258,None,378.9964279999258,None,378.9964279999258,None,380.04483869997784,None,380.04483869997784,380.5449040000094,,,,,,,,,,,,,,,,111,2023-04-24_17h41.05.577,FishGame,2022.1.1,60.96497802483956,
,7,넌 미숙해,4,Green,B,3,3,ScrollUp,ScrollDown,Green.png,3,Negative,Congruent,0,0,0,0,,,,,,,,,,,,,,,,,,,,,0,6,6,6,,,,,,,,,,,,,,,,,,,,,,,,,,,,,,,,,,,,,,,,,,,,,,,,,,,,,,,,,,,,,,,,,,,,,,,,,,,,,2,0.8294443999184296,381.1566356999101,None,ScrollUp,정답입니다,381.1566356999101,None,381.1566356999101,None,381.1566356999101,None,381.1566356999101,None,381.89271769998595,None,381.89271769998595,382.3947546000127,,,,,,,,,,,,,,,,111,2023-04-24_17h41.05.577,FishGame,2022.1.1,60.96497802483956,
,8,나를 보내줘,6,Orange,A,0,0,ScrollUp,ScrollDown,Orange.png,3,NonTarget,NonTarget,0,0,0,0,,,,,,,,,,,,,,,,,,,,,0,7,7,7,,,,,,,,,,,,,,,,,,,,,,,,,,,,,,,,,,,,,,,,,,,,,,,,,,,,,,,,,,,,,,,,,,,,,,,,,,,,,2,0.9464990999549627,383.0011740999762,None,ScrollUp,정답입니다,383.0011740999762,None,383.0011740999762,None,383.0011740999762,None,383.0011740999762,None,383.8613983999239,None,383.8613983999239,384.3614402000094,,,,,,,,,,,,,,,,111,2023-04-24_17h41.05.577,FishGame,2022.1.1,60.96497802483956,
,9,넌 자신만만해,3,Green,B,4.833333333333334,4.333333333333333,ScrollUp,ScrollDown,Green.png,3,Neutral,Neutral,0,0,0,0,,,,,,,,,,,,,,,,,,,,,0,8,8,8,,,,,,,,,,,,,,,,,,,,,,,,,,,,,,,,,,,,,,,,,,,,,,,,,,,,,,,,,,,,,,,,,,,,,,,,,,,,,1.9907407363255818,0.8462772999191657,384.9650915999664,None,ScrollUp,정답입니다,384.9650915999664,None,384.9650915999664,None,384.9650915999664,None,384.9650915999664,None,385.7259880999336,None,385.7259880999336,386.22801819990855,,,,,,,,,,,,,,,,111,2023-04-24_17h41.05.577,FishGame,2022.1.1,60.96497802483956,
,10,넌 탐욕스러워,5,Orange,A,2.25,2.1,ScrollDown,ScrollUp,Orange.png,3,Negative,Incongruent,0,0,0,0,,,,,,,,,,,,,,,,,,,,,0,9,9,9,,,,,,,,,,,,,,,,,,,,,,,,,,,,,,,,,,,,,,,,,,,,,,,,,,,,,,,,,,,,,,,,,,,,,,,,,,,,,1,0.9963266000850126,386.83758930000477,None,ScrollDown,정답입니다,386.83758930000477,None,386.83758930000477,None,386.83758930000477,None,386.83758930000477,None,387.7446973999031,None,387.7446973999031,388.2446608999744,,,,,,,,,,,,,,,,111,2023-04-24_17h41.05.577,FishGame,2022.1.1,60.96497802483956,
,11,넌 인기있어,2,Orange,A,5.458333333333333,4.5,ScrollDown,ScrollUp,Orange.png,3,Positive,Congruent,0,0,0,0,,,,,,,,,,,,,,,,,,,,,0,10,10,10,,,,,,,,,,,,,,,,,,,,,,,,,,,,,,,,,,,,,,,,,,,,,,,,,,,,,,,,,,,,,,,,,,,,,,,,,,,,,1,0.9127690999303013,388.85259729996324,None,ScrollDown,정답입니다,388.85259729996324,None,388.85259729996324,None,388.85259729996324,None,388.85259729996324,None,389.6759372999659,None,389.6759372999659,390.1779964999296,,,,,,,,,,,,,,,,111,2023-04-24_17h41.05.577,FishGame,2022.1.1,60.96497802483956,
,12,나를 데려가줘,6,Green,B,0,0,ScrollDown,ScrollUp,Green.png,3,NonTarget,NonTarget,0,0,0,0,,,,,,,,,,,,,,,,,,,,,0,11,11,11,,,,,,,,,,,,,,,,,,,,,,,,,,,,,,,,,,,,,,,,,,,,,,,,,,,,,,,,,,,,,,,,,,,,,,,,,,,,,1.9675925771395366,1.129204099997878,390.7880301999394,None,ScrollUp,오답입니다,390.7880301999394,None,390.7880301999394,None,390.7880301999394,None,390.7880301999394,None,391.8256382999243,None,391.8256382999243,392.32560099998955,,,,,,,,,,,,,,,,111,2023-04-24_17h41.05.577,FishGame,2022.1.1,60.96497802483956,
,13,넌 뛰어나,2,Green,B,6.166666666666667,4,ScrollUp,ScrollDown,Green.png,3,Positive,Incongruent,0,0,0,0,,,,,,,,,,,,,,,,,,,,,0,12,12,12,,,,,,,,,,,,,,,,,,,,,,,,,,,,,,,,,,,,,,,,,,,,,,,,,,,,,,,,,,,,,,,,,,,,,,,,,,,,,1.89969136317571,1.3818838000297546,392.9351714999648,None,ScrollUp,정답입니다,392.9351714999648,None,392.9351714999648,None,392.9351714999648,None,392.9351714999648,None,394.2280337999109,None,394.2280337999109,394.7280990999425,,,,,,,,,,,,,,,,111,2023-04-24_17h41.05.577,FishGame,2022.1.1,60.96497802483956,
,14,넌 낙관적이야,1,Orange,A,5.75,5.8,ScrollDown,ScrollUp,Orange.png,3,Positive,Congruent,0,0,0,0,,,,,,,,,,,,,,,,,,,,,0,13,13,13,,,,,,,,,,,,,,,,,,,,,,,,,,,,,,,,,,,,,,,,,,,,,,,,,,,,,,,,,,,,,,,,,,,,,,,,,,,,,1,0.9818006999557838,395.33501159993466,None,ScrollDown,정답입니다,395.33501159993466,None,395.33501159993466,None,395.33501159993466,None,395.33501159993466,None,396.22806679992937,None,396.22806679992937,396.73105129995383,,,,,,,,,,,,,,,,111,2023-04-24_17h41.05.577,FishGame,2022.1.1,60.96497802483956,
,15,넌 산만해,4,Green,B,2.695652173913043,3.033333333333333,ScrollUp,ScrollDown,Green.png,3,Negative,Congruent,0,0,0,0,,,,,,,,,,,,,,,,,,,,,0,14,14,14,,,,,,,,,,,,,,,,,,,,,,,,,,,,,,,,,,,,,,,,,,,,,,,,,,,,,,,,,,,,,,,,,,,,,,,,,,,,,2,0.9627670999616385,397.3349174999166,None,ScrollUp,정답입니다,397.3349174999166,None,397.3349174999166,None,397.3349174999166,None,397.3349174999166,None,398.2112310999073,None,398.2112310999073,398.71117279992905,,,,,,,,,,,,,,,,111,2023-04-24_17h41.05.577,FishGame,2022.1.1,60.96497802483956,
,16,나를 보내줘,6,Orange,A,0,0,ScrollUp,ScrollDown,Orange.png,3,NonTarget,NonTarget,0,0,0,0,,,,,,,,,,,,,,,,,,,,,0,15,15,15,,,,,,,,,,,,,,,,,,,,,,,,,,,,,,,,,,,,,,,,,,,,,,,,,,,,,,,,,,,,,,,,,,,,,,,,,,,,,2,1.096375299966894,399.31677739997394,None,ScrollUp,정답입니다,399.31677739997394,None,399.31677739997394,None,399.31677739997394,None,399.31677739997394,None,400.3278071999084,None,400.3278071999084,400.8277450999012,,,,,,,,,,,,,,,,111,2023-04-24_17h41.05.577,FishGame,2022.1.1,60.96497802483956,
,17,넌 교활해,5,Green,B,2.333333333333333,2.133333333333333,ScrollUp,ScrollDown,Green.png,3,Negative,Congruent,0,0,0,0,,,,,,,,,,,,,,,,,,,,,0,16,16,16,,,,,,,,,,,,,,,,,,,,,,,,,,,,,,,,,,,,,,,,,,,,,,,,,,,,,,,,,,,,,,,,,,,,,,,,,,,,,2,0.9815488000167534,401.4340267999796,None,ScrollUp,정답입니다,401.4340267999796,None,401.4340267999796,None,401.4340267999796,None,401.4340267999796,None,402.32776779995766,None,402.32776779995766,402.827780899941,,,,,,,,,,,,,,,,111,2023-04-24_17h41.05.577,FishGame,2022.1.1,60.96497802483956,
,18,나를 보내줘,6,Orange,A,0,0,ScrollUp,ScrollDown,Orange.png,3,NonTarget,NonTarget,0,0,0,0,,,,,,,,,,,,,,,,,,,,,0,17,17,17,,,,,,,,,,,,,,,,,,,,,,,,,,,,,,,,,,,,,,,,,,,,,,,,,,,,,,,,,,,,,,,,,,,,,,,,,,,,,2,0.9309064999688417,403.4349114999641,None,ScrollUp,정답입니다,403.4349114999641,None,403.4349114999641,None,403.4349114999641,None,403.4349114999641,None,404.27538369991817,None,404.27538369991817,404.77535739995074,,,,,,,,,,,,,,,,111,2023-04-24_17h41.05.577,FishGame,2022.1.1,60.96497802483956,
,19,넌 불친절해,5,Green,B,2.208333333333333,2.033333333333333,ScrollUp,ScrollDown,Green.png,3,Negative,Congruent,0,0,0,0,,,,,,,,,,,,,,,,,,,,,0,18,18,18,,,,,,,,,,,,,,,,,,,,,,,,,,,,,,,,,,,,,,,,,,,,,,,,,,,,,,,,,,,,,,,,,,,,,,,,,,,,,1.8148148208856583,1.30062180000823,405.37975699990056,None,ScrollUp,정답입니다,405.37975699990056,None,405.37975699990056,None,405.37975699990056,None,405.37975699990056,None,406.5945943999104,None,406.5945943999104,407.09445340000093,,,,,,,,,,,,,,,,111,2023-04-24_17h41.05.577,FishGame,2022.1.1,60.96497802483956,
,20,넌 지적이야,2,Green,B,5.75,4.366666666666666,ScrollUp,ScrollDown,Green.png,3,Positive,Incongruent,0,0,0,0,,,,,,,,,,,,,,,,,,,,,0,19,19,19,,,,,,,,,,,,,,,,,,,,,,,,,,,,,,,,,,,,,,,,,,,,,,,,,,,,,,,,,,,,,,,,,,,,,,,,,,,,,2,0.8981937000062317,407.70209979999345,None,ScrollUp,정답입니다,407.70209979999345,None,407.70209979999345,None,407.70209979999345,None,407.70209979999345,None,408.510954999947,None,408.510954999947,409.0109433999751,,,,,,,,,,,,,,,,111,2023-04-24_17h41.05.577,FishGame,2022.1.1,60.96497802483956,
,21,넌 우유부단해,4,Orange,A,2.666666666666667,3.166666666666667,ScrollDown,ScrollUp,Orange.png,3,Negative,Incongruent,0,0,0,0,,,,,,,,,,,,,,,,,,,,,0,20,20,20,,,,,,,,,,,,,,,,,,,,,,,,,,,,,,,,,,,,,,,,,,,,,,,,,,,,,,,,,,,,,,,,,,,,,,,,,,,,,1,0.8814523000037298,409.6181711999234,None,ScrollDown,정답입니다,409.6181711999234,None,409.6181711999234,None,409.6181711999234,None,409.6181711999234,None,410.4110128999455,None,410.4110128999455,410.91408669995144,,,,,,,,,,,,,,,,111,2023-04-24_17h41.05.577,FishGame,2022.1.1,60.96497802483956,
,22,나를 데려가줘,6,Green,B,0,0,ScrollDown,ScrollUp,Green.png,3,NonTarget,NonTarget,0,0,0,0,,,,,,,,,,,,,,,,,,,,,0,21,21,21,,,,,,,,,,,,,,,,,,,,,,,,,,,,,,,,,,,,,,,,,,,,,,,,,,,,,,,,,,,,,,,,,,,,,,,,,,,,,1,1.113156900042668,411.51456359995063,None,ScrollDown,정답입니다,411.51456359995063,None,411.51456359995063,None,411.51456359995063,None,411.51456359995063,None,412.5441948999651,None,412.5441948999651,413.0441861000145,,,,,,,,,,,,,,,,111,2023-04-24_17h41.05.577,FishGame,2022.1.1,60.96497802483956,
,23,넌 성실해,1,Green,B,6.041666666666666,5.7,ScrollUp,ScrollDown,Green.png,3,Positive,Incongruent,0,0,0,0,,,,,,,,,,,,,,,,,,,,,0,22,22,22,,,,,,,,,,,,,,,,,,,,,,,,,,,,,,,,,,,,,,,,,,,,,,,,,,,,,,,,,,,,,,,,,,,,,,,,,,,,,2,0.996403600089252,413.6483522999333,None,ScrollUp,정답입니다,413.6483522999333,None,413.6483522999333,None,413.6483522999333,None,413.6483522999333,None,414.5608886999544,None,414.5608886999544,415.0608569999458,,,,,,,,,,,,,,,,111,2023-04-24_17h41.05.577,FishGame,2022.1.1,60.96497802483956,
,24,넌 현실주의적이야,3,Orange,A,4.625,4.4,ScrollDown,ScrollUp,Orange.png,3,Neutral,Neutral,0,0,0,0,,,,,,,,,,,,,,,,,,,,,0,23,23,23,,,,,,,,,,,,,,,,,,,,,,,,,,,,,,,,,,,,,,,,,,,,,,,,,,,,,,,,,,,,,,,,,,,,,,,,,,,,,1,1.0460544000379741,415.6723505000118,None,ScrollDown,정답입니다,415.6723505000118,None,415.6723505000118,None,415.6723505000118,None,415.6723505000118,None,416.6253755999496,None,416.6253755999496,417.12738119997084,,,,,,,,,,,,,,,,111,2023-04-24_17h41.05.577,FishGame,2022.1.1,60.96497802483956,
,25,넌 진실돼,1,Orange,A,6.625,5.566666666666666,ScrollDown,ScrollUp,Orange.png,3,Positive,Congruent,0,0,0,0,,,,,,,,,,,,,,,,,,,,,0,24,24,24,,,,,,,,,,,,,,,,,,,,,,,,,,,,,,,,,,,,,,,,,,,,,,,,,,,,,,,,,,,,,,,,,,,,,,,,,,,,,1,0.8796793000074103,417.7327897999203,None,ScrollDown,정답입니다,417.7327897999203,None,417.7327897999203,None,417.7327897999203,None,417.7327897999203,None,418.52744119998533,None,418.52744119998533,419.0274028999265,,,,,,,,,,,,,,,,111,2023-04-24_17h41.05.577,FishGame,2022.1.1,60.96497802483956,
,26,넌 천진난만해,3,Green,B,4.958333333333334,4.833333333333333,ScrollUp,ScrollDown,Green.png,3,Neutral,Neutral,0,0,0,0,,,,,,,,,,,,,,,,,,,,,0,25,25,25,,,,,,,,,,,,,,,,,,,,,,,,,,,,,,,,,,,,,,,,,,,,,,,,,,,,,,,,,,,,,,,,,,,,,,,,,,,,,2,0.9984131000237539,419.63500449992716,None,ScrollUp,정답입니다,419.63500449992716,None,419.63500449992716,None,419.63500449992716,None,419.63500449992716,None,420.54423150001094,None,420.54423150001094,421.04401339998003,,,,,,,,,,,,,,,,111,2023-04-24_17h41.05.577,FishGame,2022.1.1,60.96497802483956,
,27,넌 교양없어,5,Orange,A,2.416666666666667,2.2,ScrollDown,ScrollUp,Orange.png,3,Negative,Incongruent,0,0,0,0,,,,,,,,,,,,,,,,,,,,,0,26,26,26,,,,,,,,,,,,,,,,,,,,,,,,,,,,,,,,,,,,,,,,,,,,,,,,,,,,,,,,,,,,,,,,,,,,,,,,,,,,,1,1.0651412999723107,421.66709929995704,None,ScrollDown,정답입니다,421.66709929995704,None,421.66709929995704,None,421.66709929995704,None,421.66709929995704,None,422.64399040001445,None,422.64399040001445,423.14395279996097,,,,,,,,,,,,,,,,111,2023-04-24_17h41.05.577,FishGame,2022.1.1,60.96497802483956,
,28,나를 보내줘,6,Orange,A,0,0,ScrollUp,ScrollDown,Orange.png,3,NonTarget,NonTarget,0,0,0,0,,,,,,,,,,,,,,,,,,,,,0,27,27,27,,,,,,,,,,,,,,,,,,,,,,,,,,,,,,,,,,,,,,,,,,,,,,,,,,,,,,,,,,,,,,,,,,,,,,,,,,,,,1.837962955236435,0.9986018999479711,423.7496320999926,None,ScrollUp,정답입니다,423.7496320999926,None,423.7496320999926,None,423.7496320999926,None,423.7496320999926,None,424.6606280999258,None,424.6606280999258,425.1606591999298,,,,,,,,,,,,,,,,111,2023-04-24_17h41.05.577,FishGame,2022.1.1,60.96497802483956,
,29,넌 엉뚱스러워,3,Orange,A,4.166666666666667,4.133333333333334,ScrollDown,ScrollUp,Orange.png,3,Neutral,Neutral,0,0,0,0,,,,,,,,,,,,,,,,,,,,,0,28,28,28,,,,,,,,,,,,,,,,,,,,,,,,,,,,,,,,,,,,,,,,,,,,,,,,,,,,,,,,,,,,,,,,,,,,,,,,,,,,,1,0.9482712000608444,425.77092149993405,None,ScrollDown,정답입니다,425.77092149993405,None,425.77092149993405,None,425.77092149993405,None,425.77092149993405,None,426.62519259995315,None,426.62519259995315,427.12719309993554,,,,,,,,,,,,,,,,111,2023-04-24_17h41.05.577,FishGame,2022.1.1,60.96497802483956,
,30,넌 무지해,4,Green,B,2.541666666666667,3.066666666666667,ScrollUp,ScrollDown,Green.png,3,Negative,Congruent,0,0,0,0,,,,,,,,,,,,,,,,,,,,,0,29,29,29,,,,,,,,,,,,,,,,,,,,,,,,,,,,,,,,,,,,,,,,,,,,,,,,,,,,,,,,,,,,,,,,,,,,,,,,,,,,,1.8425925970077515,0.8630910000065342,427.7300191000104,None,ScrollUp,정답입니다,427.7300191000104,None,427.7300191000104,None,427.7300191000104,None,427.7300191000104,None,428.50852049991954,None,428.50852049991954,429.0105600999668,,,,,,,,,,,,,,,,111,2023-04-24_17h41.05.577,FishGame,2022.1.1,60.96497802483956,
,31,넌 음울해,5,Green,B,2.25,2.233333333333333,ScrollUp,ScrollDown,Green.png,3,Negative,Congruent,0,0,0,0,,,,,,,,,,,,,,,,,,,,,0,30,30,30,,,,,,,,,,,,,,,,,,,,,,,,,,,,,,,,,,,,,,,,,,,,,,,,,,,,,,,,,,,,,,,,,,,,,,,,,,,,,1.7808641890684764,0.9150872000027448,429.6172006999841,None,ScrollUp,정답입니다,429.6172006999841,None,429.6172006999841,None,429.6172006999841,None,429.6172006999841,None,430.4438219999429,None,430.4438219999429,430.94377449993044,,,,,,,,,,,,,,,,111,2023-04-24_17h41.05.577,FishGame,2022.1.1,60.96497802483956,
,32,넌 냉소적이야,5,Orange,A,2.916666666666667,2.4,ScrollDown,ScrollUp,Orange.png,3,Negative,Incongruent,0,0,0,0,,,,,,,,,,,,,,,,,,,,,0,31,31,31,,,,,,,,,,,,,,,,,,,,,,,,,,,,,,,,,,,,,,,,,,,,,,,,,,,,,,,,,,,,,,,,,,,,,,,,,,,,,1,0.8484973000595346,431.5491613999475,None,ScrollDown,정답입니다,431.5491613999475,None,431.5491613999475,None,431.5491613999475,None,431.5491613999475,None,432.3104254999198,None,432.3104254999198,432.8104290999472,,,,,,,,,,,,,,,,111,2023-04-24_17h41.05.577,FishGame,2022.1.1,60.96497802483956,
,33,나를 데려가줘,6,Green,B,0,0,ScrollDown,ScrollUp,Green.png,3,NonTarget,NonTarget,0,0,0,0,,,,,,,,,,,,,,,,,,,,,0,32,32,32,,,,,,,,,,,,,,,,,,,,,,,,,,,,,,,,,,,,,,,,,,,,,,,,,,,,,,,,,,,,,,,,,,,,,,,,,,,,,1,1.0458963999990374,433.4116470000008,None,ScrollDown,정답입니다,433.4116470000008,None,433.4116470000008,None,433.4116470000008,None,433.4116470000008,None,434.3749184999615,None,434.3749184999615,434.87711309990846,,,,,,,,,,,,,,,,111,2023-04-24_17h41.05.577,FishGame,2022.1.1,60.96497802483956,
,34,넌 쾌활해,1,Orange,A,5.541666666666666,5.733333333333333,ScrollDown,ScrollUp,Orange.png,3,Positive,Congruent,0,0,0,0,,,,,,,,,,,,,,,,,,,,,0,33,33,33,,,,,,,,,,,,,,,,,,,,,,,,,,,,,,,,,,,,,,,,,,,,,,,,,,,,,,,,,,,,,,,,,,,,,,,,,,,,,1,0.9957218000199646,435.485511799925,None,ScrollDown,정답입니다,435.485511799925,None,435.485511799925,None,435.485511799925,None,435.485511799925,None,436.39141859998927,None,436.39141859998927,436.89144739997573,,,,,,,,,,,,,,,,111,2023-04-24_17h41.05.577,FishGame,2022.1.1,60.96497802483956,
,35,나를 보내줘,6,Orange,A,0,0,ScrollUp,ScrollDown,Orange.png,3,NonTarget,NonTarget,0,0,0,0,,,,,,,,,,,,,,,,,,,,,0,34,34,34,,,,,,,,,,,,,,,,,,,,,,,,,,,,,,,,,,,,,,,,,,,,,,,,,,,,,,,,,,,,,,,,,,,,,,,,,,,,,1.8086419651905696,1.033250299980864,437.4957071999088,None,ScrollUp,정답입니다,437.4957071999088,None,437.4957071999088,None,437.4957071999088,None,437.4957071999088,None,438.4440139000071,None,438.4440139000071,438.94377839996014,,,,,,,,,,,,,,,,111,2023-04-24_17h41.05.577,FishGame,2022.1.1,60.96497802483956,
,36,넌 명랑해,1,Green,B,5.739130434782609,5.666666666666667,ScrollUp,ScrollDown,Green.png,3,Positive,Incongruent,0,0,0,0,,,,,,,,,,,,,,,,,,,,,0,35,35,35,,,,,,,,,,,,,,,,,,,,,,,,,,,,,,,,,,,,,,,,,,,,,,,,,,,,,,,,,,,,,,,,,,,,,,,,,,,,,1.9104938358068466,0.8485052000032738,439.54941089998465,None,ScrollUp,정답입니다,439.54941089998465,None,439.54941089998465,None,439.54941089998465,None,439.54941089998465,None,440.31063610001,None,440.31063610001,440.8104264999274,,,,,,,,,,,,,,,,111,2023-04-24_17h41.05.577,FishGame,2022.1.1,60.96497802483956,
,37,넌 멍해,4,Orange,A,2.833333333333333,3.4,ScrollDown,ScrollUp,Orange.png,3,Negative,Incongruent,0,0,0,0,,,,,,,,,,,,,,,,,,,,,0,36,36,36,,,,,,,,,,,,,,,,,,,,,,,,,,,,,,,,,,,,,,,,,,,,,,,,,,,,,,,,,,,,,,,,,,,,,,,,,,,,,1,0.8485391000285745,441.41637849994004,None,ScrollDown,정답입니다,441.41637849994004,None,441.41637849994004,None,441.41637849994004,None,441.41637849994004,None,442.17696059995797,None,442.17696059995797,442.6769239999121,,,,,,,,,,,,,,,,111,2023-04-24_17h41.05.577,FishGame,2022.1.1,60.96497802483956,
,38,나를 데려가줘,6,Green,B,0,0,ScrollDown,ScrollUp,Green.png,3,NonTarget,NonTarget,0,0,0,0,,,,,,,,,,,,,,,,,,,,,0,37,37,37,,,,,,,,,,,,,,,,,,,,,,,,,,,,,,,,,,,,,,,,,,,,,,,,,,,,,,,,,,,,,,,,,,,,,,,,,,,,,1,1.0930502999108285,443.28417909995187,None,ScrollDown,정답입니다,443.28417909995187,None,443.28417909995187,None,443.28417909995187,None,443.28417909995187,None,444.2935904999031,None,444.2935904999031,444.79356109991204,,,,,,,,,,,,,,,,111,2023-04-24_17h41.05.577,FishGame,2022.1.1,60.96497802483956,
,39,넌 현명해,2,Orange,A,6.541666666666666,4.533333333333333,ScrollDown,ScrollUp,Orange.png,3,Positive,Congruent,0,0,0,0,,,,,,,,,,,,,,,,,,,,,0,38,38,38,,,,,,,,,,,,,,,,,,,,,,,,,,,,,,,,,,,,,,,,,,,,,,,,,,,,,,,,,,,,,,,,,,,,,,,,,,,,,1,0.9933967998949811,445.40396529994905,None,ScrollDown,정답입니다,445.40396529994905,None,445.40396529994905,None,445.40396529994905,None,445.40396529994905,None,446.3101577999769,None,446.3101577999769,446.8102009999566,,,,,,,,,,,,,,,,111,2023-04-24_17h41.05.577,FishGame,2022.1.1,60.96497802483956,
,40,넌 수줍어,3,Green,B,3.541666666666666,4.366666666666666,ScrollUp,ScrollDown,Green.png,3,Neutral,Neutral,0,0,0,0,,,,,,,,,,,,,,,,,,,,,0,39,39,39,,,,,,,,,,,,,,,,,,,,,,,,,,,,,,,,,,,,,,,,,,,,,,,,,,,,,,,,,,,,,,,,,,,,,,,,,,,,,1.8317901243766148,0.8819276000140235,447.41485429997556,None,ScrollUp,정답입니다,447.41485429997556,None,447.41485429997556,None,447.41485429997556,None,447.41485429997556,None,448.21014079998713,None,448.21014079998713,448.7101568999933,,,,,,,,,,,,,,,,111,2023-04-24_17h41.05.577,FishGame,2022.1.1,60.96497802483956,
,41,나를 데려가줘,6,Green,B,0,0,ScrollDown,ScrollUp,Green.png,3,NonTarget,NonTarget,0,0,0,0,,,,,,,,,,,,,,,,,,,,,0,40,40,40,,,,,,,,,,,,,,,,,,,,,,,,,,,,,,,,,,,,,,,,,,,,,,,,,,,,,,,,,,,,,,,,,,,,,,,,,,,,,1,1.0625115999719128,449.31840679992456,None,ScrollDown,정답입니다,449.31840679992456,None,449.31840679992456,None,449.31840679992456,None,449.31840679992456,None,450.2911193999462,None,450.2911193999462,450.79110269993544,,,,,,,,,,,,,,,,111,2023-04-24_17h41.05.577,FishGame,2022.1.1,60.96497802483956,
,42,넌 성숙해,2,Green,B,5.833333333333333,4.533333333333333,ScrollUp,ScrollDown,Green.png,3,Positive,Incongruent,0,0,0,0,,,,,,,,,,,,,,,,,,,,,0,41,41,41,,,,,,,,,,,,,,,,,,,,,,,,,,,,,,,,,,,,,,,,,,,,,,,,,,,,,,,,,,,,,,,,,,,,,,,,,,,,,1.807098776102066,0.9648025000933558,451.39478360000066,None,ScrollUp,정답입니다,451.39478360000066,None,451.39478360000066,None,451.39478360000066,None,451.39478360000066,None,452.2768644999014,None,452.2768644999014,452.7768573999638,,,,,,,,,,,,,,,,111,2023-04-24_17h41.05.577,FishGame,2022.1.1,60.96497802483956,
,1,넌 매력적이야,2,Green,B,6.125,4.666666666666667,ScrollUp,ScrollDown,Green.png,4,Positive,Incongruent,0,0,0,0,,,,,,,,,,,,,,,,,,,,,,,,,0,0,0,0,,,,,,,,,,,,,,,,,,,,,,,,,,,,,,,,485.07400959997904,486.57621699990705,486.6095602000132,487.5595466999803,487.60960249998607,488.5628061000025,488.5460815000115,None,,,,,,,,,,,,,,,,,,,,,,,,,,,,,,,,,,2,0.953338099992834,489.6382130999118,None,ScrollUp,정답입니다,489.6382130999118,None,489.6382130999118,None,489.6382130999118,None,489.6382130999118,None,490.5023732999107,None,490.5023732999107,491.009267599904,453.276881699916,None,453.276881699916,None,0.2685185,-0.098148145,1,0,0,0.016389750060625374,None,483.29264309990685,None,,,111,2023-04-24_17h41.05.577,FishGame,2022.1.1,60.96497802483956,
,2,나를 보내줘,6,Orange,A,0,0,ScrollUp,ScrollDown,Orange.png,4,NonTarget,NonTarget,0,0,0,0,,,,,,,,,,,,,,,,,,,,,,,,,0,1,1,1,,,,,,,,,,,,,,,,,,,,,,,,,,,,,,,,,,,,,,,,,,,,,,,,,,,,,,,,,,,,,,,,,,,,,,,,,2,1.1150683999294415,491.6144387999084,None,ScrollUp,정답입니다,491.6144387999084,None,491.6144387999084,None,491.6144387999084,None,491.6144387999084,None,492.6405110999476,None,492.6405110999476,493.1425620999653,,,,,,,,,,,,,,,,111,2023-04-24_17h41.05.577,FishGame,2022.1.1,60.96497802483956,
,3,넌 조심스러워,3,Orange,A,4.791666666666666,4.666666666666667,ScrollDown,ScrollUp,Orange.png,4,Neutral,Neutral,0,0,0,0,,,,,,,,,,,,,,,,,,,,,,,,,0,2,2,2,,,,,,,,,,,,,,,,,,,,,,,,,,,,,,,,,,,,,,,,,,,,,,,,,,,,,,,,,,,,,,,,,,,,,,,,,1,1.013012700015679,493.74934709991794,None,ScrollDown,정답입니다,493.74934709991794,None,493.74934709991794,None,493.74934709991794,None,493.74934709991794,None,494.6738502999069,None,494.6738502999069,495.1758587999502,,,,,,,,,,,,,,,,111,2023-04-24_17h41.05.577,FishGame,2022.1.1,60.96497802483956,
,4,넌 철학적이야,3,Green,B,4.5,4.266666666666667,ScrollUp,ScrollDown,Green.png,4,Neutral,Neutral,0,0,0,0,,,,,,,,,,,,,,,,,,,,,,,,,0,3,3,3,,,,,,,,,,,,,,,,,,,,,,,,,,,,,,,,,,,,,,,,,,,,,,,,,,,,,,,,,,,,,,,,,,,,,,,,,2,0.8961913000093773,495.7811200999422,None,ScrollUp,정답입니다,495.7811200999422,None,495.7811200999422,None,495.7811200999422,None,495.7811200999422,None,496.5924775999738,None,496.5924775999738,497.0924576999387,,,,,,,,,,,,,,,,111,2023-04-24_17h41.05.577,FishGame,2022.1.1,60.96497802483956,
,5,넌 쩨쩨해,5,Orange,A,2.375,2.133333333333333,ScrollDown,ScrollUp,Orange.png,4,Negative,Incongruent,0,0,0,0,,,,,,,,,,,,,,,,,,,,,,,,,0,4,4,4,,,,,,,,,,,,,,,,,,,,,,,,,,,,,,,,,,,,,,,,,,,,,,,,,,,,,,,,,,,,,,,,,,,,,,,,,1,0.8818952000001445,497.69709079992026,None,ScrollDown,정답입니다,497.69709079992026,None,497.69709079992026,None,497.69709079992026,None,497.69709079992026,None,498.4904164999025,None,498.4904164999025,498.9924376999261,,,,,,,,,,,,,,,,111,2023-04-24_17h41.05.577,FishGame,2022.1.1,60.96497802483956,
,6,나를 데려가줘,6,Green,B,0,0,ScrollDown,ScrollUp,Green.png,4,NonTarget,NonTarget,0,0,0,0,,,,,,,,,,,,,,,,,,,,,,,,,0,5,5,5,,,,,,,,,,,,,,,,,,,,,,,,,,,,,,,,,,,,,,,,,,,,,,,,,,,,,,,,,,,,,,,,,,,,,,,,,1,0.9818640999728814,499.59613640001044,None,ScrollDown,정답입니다,499.59613640001044,None,499.59613640001044,None,499.59613640001044,None,499.59613640001044,None,500.49257929995656,None,500.49257929995656,500.9924551999429,,,,,,,,,,,,,,,,111,2023-04-24_17h41.05.577,FishGame,2022.1.1,60.96497802483956,
,7,넌 고집불통이야,5,Green,B,2.875,2,ScrollUp,ScrollDown,Green.png,4,Negative,Congruent,0,0,0,0,,,,,,,,,,,,,,,,,,,,,,,,,0,6,6,6,,,,,,,,,,,,,,,,,,,,,,,,,,,,,,,,,,,,,,,,,,,,,,,,,,,,,,,,,,,,,,,,,,,,,,,,,2,1.0796055999817327,501.600166899967,None,ScrollUp,정답입니다,501.600166899967,None,501.600166899967,None,501.600166899967,None,501.600166899967,None,502.5903099999996,None,502.5903099999996,503.0923432999989,,,,,,,,,,,,,,,,111,2023-04-24_17h41.05.577,FishGame,2022.1.1,60.96497802483956,
,8,넌 무심해,4,Orange,A,2.875,3.2,ScrollDown,ScrollUp,Orange.png,4,Negative,Incongruent,0,0,0,0,,,,,,,,,,,,,,,,,,,,,,,,,0,7,7,7,,,,,,,,,,,,,,,,,,,,,,,,,,,,,,,,,,,,,,,,,,,,,,,,,,,,,,,,,,,,,,,,,,,,,,,,,1,0.830046399962157,503.69727759994566,None,ScrollDown,정답입니다,503.69727759994566,None,503.69727759994566,None,503.69727759994566,None,503.69727759994566,None,504.4423083999427,None,504.4423083999427,504.94234820001293,,,,,,,,,,,,,,,,111,2023-04-24_17h41.05.577,FishGame,2022.1.1,60.96497802483956,
,9,넌 정겨워,1,Orange,A,5.791666666666667,5.666666666666667,ScrollDown,ScrollUp,Orange.png,4,Positive,Congruent,0,0,0,0,,,,,,,,,,,,,,,,,,,,,,,,,0,8,8,8,,,,,,,,,,,,,,,,,,,,,,,,,,,,,,,,,,,,,,,,,,,,,,,,,,,,,,,,,,,,,,,,,,,,,,,,,1,0.9297313999850303,505.5532372999005,None,ScrollDown,정답입니다,505.5532372999005,None,505.5532372999005,None,505.5532372999005,None,505.5532372999005,None,506.3902490999317,None,506.3902490999317,506.89223829994444,,,,,,,,,,,,,,,,111,2023-04-24_17h41.05.577,FishGame,2022.1.1,60.96497802483956,
,10,나를 데려가줘,6,Green,B,0,0,ScrollDown,ScrollUp,Green.png,4,NonTarget,NonTarget,0,0,0,0,,,,,,,,,,,,,,,,,,,,,,,,,0,9,9,9,,,,,,,,,,,,,,,,,,,,,,,,,,,,,,,,,,,,,,,,,,,,,,,,,,,,,,,,,,,,,,,,,,,,,,,,,1,0.9985853999387473,507.4961964999093,None,ScrollDown,정답입니다,507.4961964999093,None,507.4961964999093,None,507.4961964999093,None,507.4961964999093,None,508.4090125999646,None,508.4090125999646,508.9089297999162,,,,,,,,,,,,,,,,111,2023-04-24_17h41.05.577,FishGame,2022.1.1,60.96497802483956,
,11,넌 체제순응적이야,4,Green,B,3,3.6,ScrollUp,ScrollDown,Green.png,4,Negative,Congruent,0,0,0,0,,,,,,,,,,,,,,,,,,,,,,,,,0,10,10,10,,,,,,,,,,,,,,,,,,,,,,,,,,,,,,,,,,,,,,,,,,,,,,,,,,,,,,,,,,,,,,,,,,,,,,,,,1.9753086467583973,0.8648062000283971,509.5193369999761,None,ScrollUp,정답입니다,509.5193369999761,None,509.5193369999761,None,509.5193369999761,None,509.5193369999761,None,510.29238359990995,None,510.29238359990995,510.79548059997614,,,,,,,,,,,,,,,,111,2023-04-24_17h41.05.577,FishGame,2022.1.1,60.96497802483956,
,12,나를 보내줘,6,Orange,A,0,0,ScrollUp,ScrollDown,Orange.png,4,NonTarget,NonTarget,0,0,0,0,,,,,,,,,,,,,,,,,,,,,,,,,0,11,11,11,,,,,,,,,,,,,,,,,,,,,,,,,,,,,,,,,,,,,,,,,,,,,,,,,,,,,,,,,,,,,,,,,,,,,,,,,1.9691357910633087,0.9800254999427125,511.3967116000131,None,ScrollUp,정답입니다,511.3967116000131,None,511.3967116000131,None,511.3967116000131,None,511.3967116000131,None,512.2921674000099,None,512.2921674000099,512.7921583999414,,,,,,,,,,,,,,,,111,2023-04-24_17h41.05.577,FishGame,2022.1.1,60.96497802483956,
,13,넌 박식해,2,Orange,A,5.625,3.933333333333333,ScrollDown,ScrollUp,Orange.png,4,Positive,Congruent,0,0,0,0,,,,,,,,,,,,,,,,,,,,,,,,,0,12,12,12,,,,,,,,,,,,,,,,,,,,,,,,,,,,,,,,,,,,,,,,,,,,,,,,,,,,,,,,,,,,,,,,,,,,,,,,,1,0.8318435000255704,513.3984533000039,None,ScrollDown,정답입니다,513.3984533000039,None,513.3984533000039,None,513.3984533000039,None,513.3984533000039,None,514.1422892999835,None,514.1422892999835,514.642153599998,,,,,,,,,,,,,,,,111,2023-04-24_17h41.05.577,FishGame,2022.1.1,60.96497802483956,
,14,나를 보내줘,6,Orange,A,0,0,ScrollUp,ScrollDown,Orange.png,4,NonTarget,NonTarget,0,0,0,0,,,,,,,,,,,,,,,,,,,,,,,,,0,13,13,13,,,,,,,,,,,,,,,,,,,,,,,,,,,,,,,,,,,,,,,,,,,,,,,,,,,,,,,,,,,,,,,,,,,,,,,,,1.8749999900658925,1.2484430000185966,515.2536377999932,None,ScrollUp,정답입니다,515.2536377999932,None,515.2536377999932,None,515.2536377999932,None,515.2536377999932,None,516.406722899992,None,516.406722899992,516.9087149999104,,,,,,,,,,,,,,,,111,2023-04-24_17h41.05.577,FishGame,2022.1.1,60.96497802483956,
,15,넌 침착해,1,Green,B,5.458333333333333,5.566666666666666,ScrollUp,ScrollDown,Green.png,4,Positive,Incongruent,0,0,0,0,,,,,,,,,,,,,,,,,,,,,,,,,0,14,14,14,,,,,,,,,,,,,,,,,,,,,,,,,,,,,,,,,,,,,,,,,,,,,,,,,,,,,,,,,,,,,,,,,,,,,,,,,1.9737654328346252,0.8317753999726847,517.5161100999685,None,ScrollUp,정답입니다,517.5161100999685,None,517.5161100999685,None,517.5161100999685,None,517.5161100999685,None,518.2587665999308,None,518.2587665999308,518.7587649999186,,,,,,,,,,,,,,,,111,2023-04-24_17h41.05.577,FishGame,2022.1.1,60.96497802483956,
,16,나를 데려가줘,6,Green,B,0,0,ScrollDown,ScrollUp,Green.png,4,NonTarget,NonTarget,0,0,0,0,,,,,,,,,,,,,,,,,,,,,,,,,0,15,15,15,,,,,,,,,,,,,,,,,,,,,,,,,,,,,,,,,,,,,,,,,,,,,,,,,,,,,,,,,,,,,,,,,,,,,,,,,1,0.8265903999563307,519.3711256999522,None,ScrollDown,정답입니다,519.3711256999522,None,519.3711256999522,None,519.3711256999522,None,519.3711256999522,None,520.1063578999601,None,520.1063578999601,520.6064244000008,,,,,,,,,,,,,,,,111,2023-04-24_17h41.05.577,FishGame,2022.1.1,60.96497802483956,
,17,넌 행복해,1,Orange,A,6.416666666666666,6.166666666666667,ScrollDown,ScrollUp,Orange.png,4,Positive,Congruent,0,0,0,0,,,,,,,,,,,,,,,,,,,,,,,,,0,16,16,16,,,,,,,,,,,,,,,,,,,,,,,,,,,,,,,,,,,,,,,,,,,,,,,,,,,,,,,,,,,,,,,,,,,,,,,,,1.0138889054457347,1.233734600013122,521.2141971999081,None,ScrollDown,정답입니다,521.2141971999081,None,521.2141971999081,None,521.2141971999081,None,521.2141971999081,None,522.3591491999105,None,522.3591491999105,522.8587509999052,,,,,,,,,,,,,,,,111,2023-04-24_17h41.05.577,FishGame,2022.1.1,60.96497802483956,
,18,넌 겸손해,2,Green,B,5.791666666666667,4.766666666666667,ScrollUp,ScrollDown,Green.png,4,Positive,Incongruent,0,0,0,0,,,,,,,,,,,,,,,,,,,,,,,,,0,17,17,17,,,,,,,,,,,,,,,,,,,,,,,,,,,,,,,,,,,,,,,,,,,,,,,,,,,,,,,,,,,,,,,,,,,,,,,,,2,0.8815374999539927,523.4685886999359,None,ScrollUp,정답입니다,523.4685886999359,None,523.4685886999359,None,523.4685886999359,None,523.4685886999359,None,524.2618655000115,None,524.2618655000115,524.7752460999181,,,,,,,,,,,,,,,,111,2023-04-24_17h41.05.577,FishGame,2022.1.1,60.96497802483956,
,19,나를 보내줘,6,Orange,A,0,0,ScrollUp,ScrollDown,Orange.png,4,NonTarget,NonTarget,0,0,0,0,,,,,,,,,,,,,,,,,,,,,,,,,0,18,18,18,,,,,,,,,,,,,,,,,,,,,,,,,,,,,,,,,,,,,,,,,,,,,,,,,,,,,,,,,,,,,,,,,,,,,,,,,1.7978395173947017,1.0302081000991166,525.3797709000064,None,ScrollUp,정답입니다,525.3797709000064,None,525.3797709000064,None,525.3797709000064,None,525.3797709000064,None,526.3257555000018,None,526.3257555000018,526.8252593999496,,,,,,,,,,,,,,,,111,2023-04-24_17h41.05.577,FishGame,2022.1.1,60.96497802483956,
,20,넌 의심없어,3,Orange,A,4.166666666666667,4.6,ScrollDown,ScrollUp,Orange.png,4,Neutral,Neutral,0,0,0,0,,,,,,,,,,,,,,,,,,,,,,,,,0,19,19,19,,,,,,,,,,,,,,,,,,,,,,,,,,,,,,,,,,,,,,,,,,,,,,,,,,,,,,,,,,,,,,,,,,,,,,,,,1,0.8759043000172824,527.437058600015,None,ScrollDown,정답입니다,527.437058600015,None,527.437058600015,None,527.437058600015,None,527.437058600015,None,528.222861199989,None,528.222861199989,528.7228939000051,,,,,,,,,,,,,,,,111,2023-04-24_17h41.05.577,FishGame,2022.1.1,60.96497802483956,
,21,넌 시시해,4,Orange,A,2.666666666666667,2.966666666666667,ScrollDown,ScrollUp,Orange.png,4,Negative,Incongruent,0,0,0,0,,,,,,,,,,,,,,,,,,,,,,,,,0,20,20,20,,,,,,,,,,,,,,,,,,,,,,,,,,,,,,,,,,,,,,,,,,,,,,,,,,,,,,,,,,,,,,,,,,,,,,,,,1,0.8149365000426769,529.3260820999276,None,ScrollDown,정답입니다,529.3260820999276,None,529.3260820999276,None,529.3260820999276,None,529.3260820999276,None,530.0562038999051,None,530.0562038999051,530.558582299971,,,,,,,,,,,,,,,,111,2023-04-24_17h41.05.577,FishGame,2022.1.1,60.96497802483956,
,22,나를 데려가줘,6,Green,B,0,0,ScrollDown,ScrollUp,Green.png,4,NonTarget,NonTarget,0,0,0,0,,,,,,,,,,,,,,,,,,,,,,,,,0,21,21,21,,,,,,,,,,,,,,,,,,,,,,,,,,,,,,,,,,,,,,,,,,,,,,,,,,,,,,,,,,,,,,,,,,,,,,,,,1.5308641977608204,1.3315329999895766,531.1627730999608,None,NoResponse,무응답입니다,531.1627730999608,None,531.1627730999608,None,531.1627730999608,None,531.1627730999608,None,532.4087107999949,None,532.4087107999949,532.9063034999417,,,,,,,,,,,,,,,,111,2023-04-24_17h41.05.577,FishGame,2022.1.1,60.96497802483956,
,23,넌 무정해,5,Orange,A,2.5,2.2,ScrollDown,ScrollUp,Orange.png,4,Negative,Incongruent,0,0,0,0,,,,,,,,,,,,,,,,,,,,,,,,,0,22,22,22,,,,,,,,,,,,,,,,,,,,,,,,,,,,,,,,,,,,,,,,,,,,,,,,,,,,,,,,,,,,,,,,,,,,,,,,,1,0.9484334000153467,533.5138677000068,None,ScrollDown,정답입니다,533.5138677000068,None,533.5138677000068,None,533.5138677000068,None,533.5138677000068,None,534.3751482999651,None,534.3751482999651,534.8751276999246,,,,,,,,,,,,,,,,111,2023-04-24_17h41.05.577,FishGame,2022.1.1,60.96497802483956,
,24,넌 긍정적이야,1,Green,B,6.041666666666667,6.066666666666666,ScrollUp,ScrollDown,Green.png,4,Positive,Incongruent,0,0,0,0,,,,,,,,,,,,,,,,,,,,,,,,,0,23,23,23,,,,,,,,,,,,,,,,,,,,,,,,,,,,,,,,,,,,,,,,,,,,,,,,,,,,,,,,,,,,,,,,,,,,,,,,,1.8935185074806213,1.081791799981147,535.4797226999654,None,ScrollUp,정답입니다,535.4797226999654,None,535.4797226999654,None,535.4797226999654,None,535.4797226999654,None,536.4729683999904,None,536.4729683999904,536.974976599915,,,,,,,,,,,,,,,,111,2023-04-24_17h41.05.577,FishGame,2022.1.1,60.96497802483956,
,25,나를 보내줘,6,Orange,A,0,0,ScrollUp,ScrollDown,Orange.png,4,NonTarget,NonTarget,0,0,0,0,,,,,,,,,,,,,,,,,,,,,,,,,0,24,24,24,,,,,,,,,,,,,,,,,,,,,,,,,,,,,,,,,,,,,,,,,,,,,,,,,,,,,,,,,,,,,,,,,,,,,,,,,2,0.9297593000810593,537.5812870999798,None,ScrollUp,정답입니다,537.5812870999798,None,537.5812870999798,None,537.5812870999798,None,537.5812870999798,None,538.4250391999958,None,538.4250391999958,538.9249990999233,,,,,,,,,,,,,,,,111,2023-04-24_17h41.05.577,FishGame,2022.1.1,60.96497802483956,
,26,넌 시기심이 많아,5,Green,B,2.458333333333333,2.233333333333333,ScrollUp,ScrollDown,Green.png,4,Negative,Congruent,0,0,0,0,,,,,,,,,,,,,,,,,,,,,,,,,0,25,25,25,,,,,,,,,,,,,,,,,,,,,,,,,,,,,,,,,,,,,,,,,,,,,,,,,,,,,,,,,,,,,,,,,,,,,,,,,2,0.8963421999942511,539.5330798999639,None,ScrollUp,정답입니다,539.5330798999639,None,539.5330798999639,None,539.5330798999639,None,539.5330798999639,None,540.3416410000063,None,540.3416410000063,540.8415515999077,,,,,,,,,,,,,,,,111,2023-04-24_17h41.05.577,FishGame,2022.1.1,60.96497802483956,
,27,넌 탁월해,2,Orange,A,5.708333333333334,4.5,ScrollDown,ScrollUp,Orange.png,4,Positive,Congruent,0,0,0,0,,,,,,,,,,,,,,,,,,,,,,,,,0,26,26,26,,,,,,,,,,,,,,,,,,,,,,,,,,,,,,,,,,,,,,,,,,,,,,,,,,,,,,,,,,,,,,,,,,,,,,,,,1,0.763074699905701,541.449927699985,None,ScrollDown,정답입니다,541.449927699985,None,541.449927699985,None,541.449927699985,None,541.449927699985,None,542.1228128999937,None,542.1228128999937,542.6249003999401,,,,,,,,,,,,,,,,111,2023-04-24_17h41.05.577,FishGame,2022.1.1,60.96497802483956,
,28,나를 데려가줘,6,Green,B,0,0,ScrollDown,ScrollUp,Green.png,4,NonTarget,NonTarget,0,0,0,0,,,,,,,,,,,,,,,,,,,,,,,,,0,27,27,27,,,,,,,,,,,,,,,,,,,,,,,,,,,,,,,,,,,,,,,,,,,,,,,,,,,,,,,,,,,,,,,,,,,,,,,,,1,1.0653662000549957,543.2255679999944,None,ScrollDown,정답입니다,543.2255679999944,None,543.2255679999944,None,543.2255679999944,None,543.2255679999944,None,544.208333699964,None,544.208333699964,544.7082179000136,,,,,,,,,,,,,,,,111,2023-04-24_17h41.05.577,FishGame,2022.1.1,60.96497802483956,
,29,넌 조용해,3,Green,B,4.333333333333333,4.166666666666667,ScrollUp,ScrollDown,Green.png,4,Neutral,Neutral,0,0,0,0,,,,,,,,,,,,,,,,,,,,,,,,,0,28,28,28,,,,,,,,,,,,,,,,,,,,,,,,,,,,,,,,,,,,,,,,,,,,,,,,,,,,,,,,,,,,,,,,,,,,,,,,,1.9320987562338512,0.9298148999223486,545.3307060999796,None,ScrollUp,정답입니다,545.3307060999796,None,545.3307060999796,None,545.3307060999796,None,545.3307060999796,None,546.1727470000042,None,546.1727470000042,546.6747735999525,,,,,,,,,,,,,,,,111,2023-04-24_17h41.05.577,FishGame,2022.1.1,60.96497802483956,
,30,넌 다정해,1,Orange,A,5.833333333333334,5.7,ScrollDown,ScrollUp,Orange.png,4,Positive,Congruent,0,0,0,0,,,,,,,,,,,,,,,,,,,,,,,,,0,29,29,29,,,,,,,,,,,,,,,,,,,,,,,,,,,,,,,,,,,,,,,,,,,,,,,,,,,,,,,,,,,,,,,,,,,,,,,,,1,0.7962069000350311,547.2823824000079,None,ScrollDown,정답입니다,547.2823824000079,None,547.2823824000079,None,547.2823824000079,None,547.2823824000079,None,547.9915397999575,None,547.9915397999575,548.4914789999602,,,,,,,,,,,,,,,,111,2023-04-24_17h41.05.577,FishGame,2022.1.1,60.96497802483956,
,31,넌 능력있어,2,Green,B,6.166666666666666,4.6,ScrollUp,ScrollDown,Green.png,4,Positive,Incongruent,0,0,0,0,,,,,,,,,,,,,,,,,,,,,,,,,0,30,30,30,,,,,,,,,,,,,,,,,,,,,,,,,,,,,,,,,,,,,,,,,,,,,,,,,,,,,,,,,,,,,,,,,,,,,,,,,2,0.8977413999382406,549.0940235999878,None,ScrollUp,정답입니다,549.0940235999878,None,549.0940235999878,None,549.0940235999878,None,549.0940235999878,None,549.9057419999735,None,549.9057419999735,550.4057660999242,,,,,,,,,,,,,,,,111,2023-04-24_17h41.05.577,FishGame,2022.1.1,60.96497802483956,
,32,넌 불쾌해,5,Orange,A,2.125,1.933333333333333,ScrollDown,ScrollUp,Orange.png,4,Negative,Incongruent,0,0,0,0,,,,,,,,,,,,,,,,,,,,,,,,,0,31,31,31,,,,,,,,,,,,,,,,,,,,,,,,,,,,,,,,,,,,,,,,,,,,,,,,,,,,,,,,,,,,,,,,,,,,,,,,,1.0478395124276478,0.7984406999312341,551.0068428999512,None,ScrollDown,정답입니다,551.0068428999512,None,551.0068428999512,None,551.0068428999512,None,551.0068428999512,None,551.7224541999167,None,551.7224541999167,552.2224406999303,,,,,,,,,,,,,,,,111,2023-04-24_17h41.05.577,FishGame,2022.1.1,60.96497802483956,
,33,나를 데려가줘,6,Green,B,0,0,ScrollDown,ScrollUp,Green.png,4,NonTarget,NonTarget,0,0,0,0,,,,,,,,,,,,,,,,,,,,,,,,,0,32,32,32,,,,,,,,,,,,,,,,,,,,,,,,,,,,,,,,,,,,,,,,,,,,,,,,,,,,,,,,,,,,,,,,,,,,,,,,,1,0.9818685000063851,552.8289951999905,None,ScrollDown,정답입니다,552.8289951999905,None,552.8289951999905,None,552.8289951999905,None,552.8289951999905,None,553.7248823000118,None,553.7248823000118,554.2247946999269,,,,,,,,,,,,,,,,111,2023-04-24_17h41.05.577,FishGame,2022.1.1,60.96497802483956,
,34,넌 유순해,3,Orange,A,4.458333333333333,5,ScrollDown,ScrollUp,Orange.png,4,Neutral,Neutral,0,0,0,0,,,,,,,,,,,,,,,,,,,,,,,,,0,33,33,33,,,,,,,,,,,,,,,,,,,,,,,,,,,,,,,,,,,,,,,,,,,,,,,,,,,,,,,,,,,,,,,,,,,,,,,,,1,0.899875900009647,554.8301289000083,None,ScrollDown,정답입니다,554.8301289000083,None,554.8301289000083,None,554.8301289000083,None,554.8301289000083,None,555.6414022999816,None,555.6414022999816,556.1413236999651,,,,,,,,,,,,,,,,111,2023-04-24_17h41.05.577,FishGame,2022.1.1,60.96497802483956,
,35,넌 근심스러워,4,Green,B,2.708333333333333,3.133333333333333,ScrollUp,ScrollDown,Green.png,4,Negative,Congruent,0,0,0,0,,,,,,,,,,,,,,,,,,,,,,,,,0,34,34,34,,,,,,,,,,,,,,,,,,,,,,,,,,,,,,,,,,,,,,,,,,,,,,,,,,,,,,,,,,,,,,,,,,,,,,,,,2,0.8950649000471458,556.7498993999325,None,ScrollUp,정답입니다,556.7498993999325,None,556.7498993999325,None,556.7498993999325,None,556.7498993999325,None,557.5558833999094,None,557.5558833999094,558.0579789999174,,,,,,,,,,,,,,,,111,2023-04-24_17h41.05.577,FishGame,2022.1.1,60.96497802483956,
,36,넌 세련되었어,2,Orange,A,5.5,4.6,ScrollDown,ScrollUp,Orange.png,4,Positive,Congruent,0,0,0,0,,,,,,,,,,,,,,,,,,,,,,,,,0,35,35,35,,,,,,,,,,,,,,,,,,,,,,,,,,,,,,,,,,,,,,,,,,,,,,,,,,,,,,,,,,,,,,,,,,,,,,,,,1,0.8150978999910876,558.6679208999267,None,ScrollDown,정답입니다,558.6679208999267,None,558.6679208999267,None,558.6679208999267,None,558.6679208999267,None,559.3913534999592,None,559.3913534999592,559.8911762000062,,,,,,,,,,,,,,,,111,2023-04-24_17h41.05.577,FishGame,2022.1.1,60.96497802483956,
,37,나를 보내줘,6,Orange,A,0,0,ScrollUp,ScrollDown,Orange.png,4,NonTarget,NonTarget,0,0,0,0,,,,,,,,,,,,,,,,,,,,,,,,,0,36,36,36,,,,,,,,,,,,,,,,,,,,,,,,,,,,,,,,,,,,,,,,,,,,,,,,,,,,,,,,,,,,,,,,,,,,,,,,,1,1.3315884000621736,560.4966722999234,None,ScrollDown,오답입니다,560.4966722999234,None,560.4966722999234,None,560.4966722999234,None,560.4966722999234,None,561.7412309999345,None,561.7412309999345,562.241127199959,,,,,,,,,,,,,,,,111,2023-04-24_17h41.05.577,FishGame,2022.1.1,60.96497802483956,
,38,넌 확고해,3,Green,B,4.708333333333334,4.566666666666666,ScrollUp,ScrollDown,Green.png,4,Neutral,Neutral,0,0,0,0,,,,,,,,,,,,,,,,,,,,,,,,,0,37,37,37,,,,,,,,,,,,,,,,,,,,,,,,,,,,,,,,,,,,,,,,,,,,,,,,,,,,,,,,,,,,,,,,,,,,,,,,,1.9459876318772633,0.948149099946022,562.8471649999265,None,ScrollUp,정답입니다,562.8471649999265,None,562.8471649999265,None,562.8471649999265,None,562.8471649999265,None,563.7057847999968,None,563.7057847999968,564.2077935999259,,,,,,,,,,,,,,,,111,2023-04-24_17h41.05.577,FishGame,2022.1.1,60.96497802483956,
,39,넌 이해심이 많아,1,Green,B,6.041666666666668,5.533333333333333,ScrollUp,ScrollDown,Green.png,4,Positive,Incongruent,0,0,0,0,,,,,,,,,,,,,,,,,,,,,,,,,0,38,38,38,,,,,,,,,,,,,,,,,,,,,,,,,,,,,,,,,,,,,,,,,,,,,,,,,,,,,,,,,,,,,,,,,,,,,,,,,2,0.9650930999778211,564.8109143999172,None,ScrollUp,정답입니다,564.8109143999172,None,564.8109143999172,None,564.8109143999172,None,564.8109143999172,None,565.6910614999942,None,565.6910614999942,566.191078200005,,,,,,,,,,,,,,,,111,2023-04-24_17h41.05.577,FishGame,2022.1.1,60.96497802483956,
,40,나를 보내줘,6,Orange,A,0,0,ScrollUp,ScrollDown,Orange.png,4,NonTarget,NonTarget,0,0,0,0,,,,,,,,,,,,,,,,,,,,,,,,,0,39,39,39,,,,,,,,,,,,,,,,,,,,,,,,,,,,,,,,,,,,,,,,,,,,,,,,,,,,,,,,,,,,,,,,,,,,,,,,,1.8348765522241592,0.9637090000323951,566.7934034999926,None,ScrollUp,정답입니다,566.7934034999926,None,566.7934034999926,None,566.7934034999926,None,566.7934034999926,None,567.6744682999561,None,567.6744682999561,568.1744179999223,,,,,,,,,,,,,,,,111,2023-04-24_17h41.05.577,FishGame,2022.1.1,60.96497802483956,
,41,넌 거칠어,4,Orange,A,2.625,3.033333333333333,ScrollDown,ScrollUp,Orange.png,4,Negative,Incongruent,0,0,0,0,,,,,,,,,,,,,,,,,,,,,,,,,0,40,40,40,,,,,,,,,,,,,,,,,,,,,,,,,,,,,,,,,,,,,,,,,,,,,,,,,,,,,,,,,,,,,,,,,,,,,,,,,1,0.938033499987796,568.7834022999741,None,ScrollDown,정답입니다,568.7834022999741,None,568.7834022999741,None,568.7834022999741,None,568.7834022999741,None,569.6330030999379,None,569.6330030999379,570.1409723999677,,,,,,,,,,,,,,,,111,2023-04-24_17h41.05.577,FishGame,2022.1.1,60.96497802483956,
,42,넌 변덕맞아,5,Green,B,2.75,2.166666666666667,ScrollUp,ScrollDown,Green.png,4,Negative,Congruent,0,0,0,0,,,,,,,,,,,,,,,,,,,,,,,,,0,41,41,41,,,,,,,,,,,,,,,,,,,,,,,,,,,,,,,,,,,,,,,,,,,,,,,,,,,,,,,,,,,,,,,,,,,,,,,,,1.9675925771395366,0.9652866000542417,570.7577743999427,None,ScrollUp,정답입니다,570.7577743999427,None,570.7577743999427,None,570.7577743999427,None,570.7577743999427,None,571.6222860999405,None,571.6222860999405,572.1223189999582,,,,,,,,,,,,,,,,111,2023-04-24_17h41.05.577,FishGame,2022.1.1,60.96497802483956,
,43,나를 데려가줘,6,Green,B,0,0,ScrollDown,ScrollUp,Green.png,4,NonTarget,NonTarget,0,0,0,0,,,,,,,,,,,,,,,,,,,,,,,,,0,42,42,42,,,,,,,,,,,,,,,,,,,,,,,,,,,,,,,,,,,,,,,,,,,,,,,,,,,,,,,,,,,,,,,,,,,,,,,,,1,1.2294584000483155,572.732562399935,None,ScrollDown,정답입니다,572.732562399935,None,572.732562399935,None,572.732562399935,None,572.732562399935,None,573.8742384999059,None,573.8742384999059,574.3742889999412,,,,,,,,,,,,,,,,111,2023-04-24_17h41.05.577,FishGame,2022.1.1,60.96497802483956,
,44,넌 외로워,4,Green,B,2.833333333333333,3.3,ScrollUp,ScrollDown,Green.png,4,Negative,Congruent,0,0,0,0,,,,,,,,,,,,,,,,,,,,,,,,,0,43,43,43,,,,,,,,,,,,,,,,,,,,,,,,,,,,,,,,,,,,,,,,,,,,,,,,,,,,,,,,,,,,,,,,,,,,,,,,,1.8163580348094304,0.9293424000497907,574.9808147000149,None,ScrollUp,정답입니다,574.9808147000149,None,574.9808147000149,None,574.9808147000149,None,574.9808147000149,None,575.8241706999252,None,575.8241706999252,576.3241895999527,,,,,,,,,,,,,,,,111,2023-04-24_17h41.05.577,FishGame,2022.1.1,60.96497802483956,
,1,넌 불평스러워,5,Orange,A,2.25,2.066666666666667,ScrollDown,ScrollUp,Orange.png,5,Negative,Incongruent,0,0,0,0,,,,,,,,,,,,,,,,,,,,,,,,,,,,,0,0,0,0,,,,,,,,,,,,,,,,,,,,,,,,,,,,609.4569194999058,610.9570201999741,610.9904051999329,611.9403708999744,611.9903469999554,612.9403601000085,612.9403601000085,None,,,,,,,,,,,,,,,,,,,,,,,,,,,,,,,,,,1,0.985479100025259,614.0318560999585,None,ScrollDown,정답입니다,614.0318560999585,None,614.0318560999585,None,614.0318560999585,None,614.0318560999585,None,614.9211179999402,None,614.9211179999402,615.421122699976,576.824213399901,None,576.824213399901,None,0.28055555,-0.07037037,1,0,0,0.016238450072705746,None,606.8234862999525,None,,,111,2023-04-24_17h41.05.577,FishGame,2022.1.1,60.96497802483956,
,2,나를 보내줘,6,Orange,A,0,0,ScrollUp,ScrollDown,Orange.png,5,NonTarget,NonTarget,0,0,0,0,,,,,,,,,,,,,,,,,,,,,,,,,,,,,0,1,1,1,,,,,,,,,,,,,,,,,,,,,,,,,,,,,,,,,,,,,,,,,,,,,,,,,,,,,,,,,,,,,,,,,,,,,1.9475308458010356,1.012405699933879,616.0291995999869,None,ScrollUp,정답입니다,616.0291995999869,None,616.0291995999869,None,616.0291995999869,None,616.0291995999869,None,616.9545077999355,None,616.9545077999355,617.4568556000013,,,,,,,,,,,,,,,,111,2023-04-24_17h41.05.577,FishGame,2022.1.1,60.96497802483956,
,3,넌 다재다능해,2,Green,B,6.208333333333333,4.5,ScrollUp,ScrollDown,Green.png,5,Positive,Incongruent,0,0,0,0,,,,,,,,,,,,,,,,,,,,,,,,,,,,,0,2,2,2,,,,,,,,,,,,,,,,,,,,,,,,,,,,,,,,,,,,,,,,,,,,,,,,,,,,,,,,,,,,,,,,,,,,,1.9336419701576233,1.03224119998049,618.0633812999586,None,ScrollUp,정답입니다,618.0633812999586,None,618.0633812999586,None,618.0633812999586,None,618.0633812999586,None,619.0069565000013,None,619.0069565000013,619.506691299961,,,,,,,,,,,,,,,,111,2023-04-24_17h41.05.577,FishGame,2022.1.1,60.96497802483956,
,4,넌 과감해,3,Orange,A,4.833333333333334,4.6,ScrollDown,ScrollUp,Orange.png,5,Neutral,Neutral,0,0,0,0,,,,,,,,,,,,,,,,,,,,,,,,,,,,,0,3,3,3,,,,,,,,,,,,,,,,,,,,,,,,,,,,,,,,,,,,,,,,,,,,,,,,,,,,,,,,,,,,,,,,,,,,,1,0.8963892000028864,620.1127336999634,None,ScrollDown,정답입니다,620.1127336999634,None,620.1127336999634,None,620.1127336999634,None,620.1127336999634,None,620.9233905000146,None,620.9233905000146,621.423951099976,,,,,,,,,,,,,,,,111,2023-04-24_17h41.05.577,FishGame,2022.1.1,60.96497802483956,
,5,넌 고분고분해,3,Green,B,3.75,4.033333333333333,ScrollUp,ScrollDown,Green.png,5,Neutral,Neutral,0,0,0,0,,,,,,,,,,,,,,,,,,,,,,,,,,,,,0,4,4,4,,,,,,,,,,,,,,,,,,,,,,,,,,,,,,,,,,,,,,,,,,,,,,,,,,,,,,,,,,,,,,,,,,,,,2,0.8264863999793306,622.0327006999869,None,ScrollUp,정답입니다,622.0327006999869,None,622.0327006999869,None,622.0327006999869,None,622.0327006999869,None,622.771243599942,None,622.771243599942,623.273247599951,,,,,,,,,,,,,,,,111,2023-04-24_17h41.05.577,FishGame,2022.1.1,60.96497802483956,
,6,나를 보내줘,6,Orange,A,0,0,ScrollUp,ScrollDown,Orange.png,5,NonTarget,NonTarget,0,0,0,0,,,,,,,,,,,,,,,,,,,,,,,,,,,,,0,5,5,5,,,,,,,,,,,,,,,,,,,,,,,,,,,,,,,,,,,,,,,,,,,,,,,,,,,,,,,,,,,,,,,,,,,,,2,0.9651014000410214,623.8757275999524,None,ScrollUp,정답입니다,623.8757275999524,None,623.8757275999524,None,623.8757275999524,None,623.8757275999524,None,624.7567945999326,None,624.7567945999326,625.2565358999418,,,,,,,,,,,,,,,,111,2023-04-24_17h41.05.577,FishGame,2022.1.1,60.96497802483956,
,7,넌 잘 잊어,4,Orange,A,3,3.7,ScrollDown,ScrollUp,Orange.png,5,Negative,Incongruent,0,0,0,0,,,,,,,,,,,,,,,,,,,,,,,,,,,,,0,6,6,6,,,,,,,,,,,,,,,,,,,,,,,,,,,,,,,,,,,,,,,,,,,,,,,,,,,,,,,,,,,,,,,,,,,,,1,0.9128048999700695,625.8657005999703,None,ScrollDown,정답입니다,625.8657005999703,None,625.8657005999703,None,625.8657005999703,None,625.8657005999703,None,626.6878193999873,None,626.6878193999873,627.1898398000048,,,,,,,,,,,,,,,,111,2023-04-24_17h41.05.577,FishGame,2022.1.1,60.96497802483956,
,8,넌 탐구심이없어,4,Green,B,2.833333333333333,3.066666666666667,ScrollUp,ScrollDown,Green.png,5,Negative,Congruent,0,0,0,0,,,,,,,,,,,,,,,,,,,,,,,,,,,,,0,7,7,7,,,,,,,,,,,,,,,,,,,,,,,,,,,,,,,,,,,,,,,,,,,,,,,,,,,,,,,,,,,,,,,,,,,,,1.9799382885297139,0.863078200025484,627.7965387000004,None,ScrollUp,정답입니다,627.7965387000004,None,627.7965387000004,None,627.7965387000004,None,627.7965387000004,None,628.5732098999433,None,628.5732098999433,629.0732119999593,,,,,,,,,,,,,,,,111,2023-04-24_17h41.05.577,FishGame,2022.1.1,60.96497802483956,
,9,나를 데려가줘,6,Green,B,0,0,ScrollDown,ScrollUp,Green.png,5,NonTarget,NonTarget,0,0,0,0,,,,,,,,,,,,,,,,,,,,,,,,,,,,,0,8,8,8,,,,,,,,,,,,,,,,,,,,,,,,,,,,,,,,,,,,,,,,,,,,,,,,,,,,,,,,,,,,,,,,,,,,,1,0.7599001999478787,629.6789451999357,None,ScrollDown,정답입니다,629.6789451999357,None,629.6789451999357,None,629.6789451999357,None,629.6789451999357,None,630.356435899972,None,630.356435899972,630.8564538999926,,,,,,,,,,,,,,,,111,2023-04-24_17h41.05.577,FishGame,2022.1.1,60.96497802483956,
,10,넌 참되어,2,Orange,A,6.041666666666664,4.733333333333333,ScrollDown,ScrollUp,Orange.png,5,Positive,Congruent,0,0,0,0,,,,,,,,,,,,,,,,,,,,,,,,,,,,,0,9,9,9,,,,,,,,,,,,,,,,,,,,,,,,,,,,,,,,,,,,,,,,,,,,,,,,,,,,,,,,,,,,,,,,,,,,,1,0.7464474000735208,631.4666637999471,None,ScrollDown,정답입니다,631.4666637999471,None,631.4666637999471,None,631.4666637999471,None,631.4666637999471,None,632.1210870000068,None,632.1210870000068,632.6230535999639,,,,,,,,,,,,,,,,111,2023-04-24_17h41.05.577,FishGame,2022.1.1,60.96497802483956,
,11,넌 생기있어,1,Green,B,5.875,5.633333333333334,ScrollUp,ScrollDown,Green.png,5,Positive,Incongruent,0,0,0,0,,,,,,,,,,,,,,,,,,,,,,,,,,,,,0,10,10,10,,,,,,,,,,,,,,,,,,,,,,,,,,,,,,,,,,,,,,,,,,,,,,,,,,,,,,,,,,,,,,,,,,,,,1.9506172736485798,0.865513400058262,633.2288526999764,None,ScrollUp,정답입니다,633.2288526999764,None,633.2288526999764,None,633.2288526999764,None,633.2288526999764,None,634.0043493999401,None,634.0043493999401,634.5063493999187,,,,,,,,,,,,,,,,111,2023-04-24_17h41.05.577,FishGame,2022.1.1,60.96497802483956,
,12,넌 비사교적이야,4,Green,B,2.875,2.9,ScrollUp,ScrollDown,Green.png,5,Negative,Congruent,0,0,0,0,,,,,,,,,,,,,,,,,,,,,,,,,,,,,0,11,11,11,,,,,,,,,,,,,,,,,,,,,,,,,,,,,,,,,,,,,,,,,,,,,,,,,,,,,,,,,,,,,,,,,,,,,2,0.8151516000507399,635.1135924999835,None,ScrollUp,정답입니다,635.1135924999835,None,635.1135924999835,None,635.1135924999835,None,635.1135924999835,None,635.8397911000066,None,635.8397911000066,636.3397205999354,,,,,,,,,,,,,,,,111,2023-04-24_17h41.05.577,FishGame,2022.1.1,60.96497802483956,
,13,나를 데려가줘,6,Green,B,0,0,ScrollDown,ScrollUp,Green.png,5,NonTarget,NonTarget,0,0,0,0,,,,,,,,,,,,,,,,,,,,,,,,,,,,,0,12,12,12,,,,,,,,,,,,,,,,,,,,,,,,,,,,,,,,,,,,,,,,,,,,,,,,,,,,,,,,,,,,,,,,,,,,,1,0.8961003000149503,636.9485060999868,None,ScrollDown,정답입니다,636.9485060999868,None,636.9485060999868,None,636.9485060999868,None,636.9485060999868,None,637.7563108999748,None,637.7563108999748,638.2562669999897,,,,,,,,,,,,,,,,111,2023-04-24_17h41.05.577,FishGame,2022.1.1,60.96497802483956,
,14,넌 고독해,4,Orange,A,2.916666666666667,3.233333333333333,ScrollDown,ScrollUp,Orange.png,5,Negative,Incongruent,0,0,0,0,,,,,,,,,,,,,,,,,,,,,,,,,,,,,0,13,13,13,,,,,,,,,,,,,,,,,,,,,,,,,,,,,,,,,,,,,,,,,,,,,,,,,,,,,,,,,,,,,,,,,,,,,1,0.7986106000607833,638.8593756000046,None,ScrollDown,정답입니다,638.8593756000046,None,638.8593756000046,None,638.8593756000046,None,638.8593756000046,None,639.5731460999232,None,639.5731460999232,640.0729830999626,,,,,,,,,,,,,,,,111,2023-04-24_17h41.05.577,FishGame,2022.1.1,60.96497802483956,
,15,넌 신경질적이야,5,Green,B,2.375,2.233333333333333,ScrollUp,ScrollDown,Green.png,5,Negative,Congruent,0,0,0,0,,,,,,,,,,,,,,,,,,,,,,,,,,,,,0,14,14,14,,,,,,,,,,,,,,,,,,,,,,,,,,,,,,,,,,,,,,,,,,,,,,,,,,,,,,,,,,,,,,,,,,,,,1.9768518606821697,0.7297442000126466,640.6852746999357,None,ScrollUp,정답입니다,640.6852746999357,None,640.6852746999357,None,640.6852746999357,None,640.6852746999357,None,641.3228414999321,None,641.3228414999321,641.8228304999648,,,,,,,,,,,,,,,,111,2023-04-24_17h41.05.577,FishGame,2022.1.1,60.96497802483956,
,16,넌 똑똑해,2,Green,B,5.666666666666667,3.966666666666667,ScrollUp,ScrollDown,Green.png,5,Positive,Incongruent,0,0,0,0,,,,,,,,,,,,,,,,,,,,,,,,,,,,,0,15,15,15,,,,,,,,,,,,,,,,,,,,,,,,,,,,,,,,,,,,,,,,,,,,,,,,,,,,,,,,,,,,,,,,,,,,,1.9891975224018097,0.8130115999374539,642.4290024999063,None,ScrollUp,정답입니다,642.4290024999063,None,642.4290024999063,None,642.4290024999063,None,642.4290024999063,None,643.1562796999933,None,643.1562796999933,643.6562217999017,,,,,,,,,,,,,,,,111,2023-04-24_17h41.05.577,FishGame,2022.1.1,60.96497802483956,
,17,나를 보내줘,6,Orange,A,0,0,ScrollUp,ScrollDown,Orange.png,5,NonTarget,NonTarget,0,0,0,0,,,,,,,,,,,,,,,,,,,,,,,,,,,,,0,16,16,16,,,,,,,,,,,,,,,,,,,,,,,,,,,,,,,,,,,,,,,,,,,,,,,,,,,,,,,,,,,,,,,,,,,,,2,0.9629094999982044,644.2614763999591,None,ScrollUp,정답입니다,644.2614763999591,None,644.2614763999591,None,644.2614763999591,None,644.2614763999591,None,645.1372216999298,None,645.1372216999298,645.6372814999195,,,,,,,,,,,,,,,,111,2023-04-24_17h41.05.577,FishGame,2022.1.1,60.96497802483956,
,18,넌 협조적이야,1,Orange,A,5.625,5.666666666666667,ScrollDown,ScrollUp,Orange.png,5,Positive,Congruent,0,0,0,0,,,,,,,,,,,,,,,,,,,,,,,,,,,,,0,17,17,17,,,,,,,,,,,,,,,,,,,,,,,,,,,,,,,,,,,,,,,,,,,,,,,,,,,,,,,,,,,,,,,,,,,,,1,0.9480192000046372,646.2383933999809,None,ScrollDown,정답입니다,646.2383933999809,None,646.2383933999809,None,646.2383933999809,None,646.2383933999809,None,647.1038340999512,None,647.1038340999512,647.6038596999133,,,,,,,,,,,,,,,,111,2023-04-24_17h41.05.577,FishGame,2022.1.1,60.96497802483956,
,19,나를 데려가줘,6,Green,B,0,0,ScrollDown,ScrollUp,Green.png,5,NonTarget,NonTarget,0,0,0,0,,,,,,,,,,,,,,,,,,,,,,,,,,,,,0,18,18,18,,,,,,,,,,,,,,,,,,,,,,,,,,,,,,,,,,,,,,,,,,,,,,,,,,,,,,,,,,,,,,,,,,,,,1.162037044763565,1.7652381000807509,648.2123624999076,None,ScrollDown,정답입니다,648.2123624999076,None,648.2123624999076,None,648.2123624999076,None,648.2123624999076,None,649.8895882999059,None,649.8895882999059,650.3895328999497,,,,,,,,,,,,,,,,111,2023-04-24_17h41.05.577,FishGame,2022.1.1,60.96497802483956,
,20,넌 몰인정해,5,Green,B,2.541666666666667,2.066666666666667,ScrollUp,ScrollDown,Green.png,5,Negative,Congruent,0,0,0,0,,,,,,,,,,,,,,,,,,,,,,,,,,,,,0,19,19,19,,,,,,,,,,,,,,,,,,,,,,,,,,,,,,,,,,,,,,,,,,,,,,,,,,,,,,,,,,,,,,,,,,,,,1.8163580348094304,0.8985196000430733,650.995492399903,None,ScrollUp,정답입니다,650.995492399903,None,650.995492399903,None,650.995492399903,None,650.995492399903,None,651.8060502998997,None,651.8060502998997,652.3061436999124,,,,,,,,,,,,,,,,111,2023-04-24_17h41.05.577,FishGame,2022.1.1,60.96497802483956,
,21,나를 데려가줘,6,Green,B,0,0,ScrollDown,ScrollUp,Green.png,5,NonTarget,NonTarget,0,0,0,0,,,,,,,,,,,,,,,,,,,,,,,,,,,,,0,20,20,20,,,,,,,,,,,,,,,,,,,,,,,,,,,,,,,,,,,,,,,,,,,,,,,,,,,,,,,,,,,,,,,,,,,,,1,1.0309959999285638,652.9095293999417,None,ScrollDown,정답입니다,652.9095293999417,None,652.9095293999417,None,652.9095293999417,None,652.9095293999417,None,653.8559676998993,None,653.8559676998993,654.3559462999692,,,,,,,,,,,,,,,,111,2023-04-24_17h41.05.577,FishGame,2022.1.1,60.96497802483956,
,22,넌 순진해,3,Green,B,4.125,4.166666666666667,ScrollUp,ScrollDown,Green.png,5,Neutral,Neutral,0,0,0,0,,,,,,,,,,,,,,,,,,,,,,,,,,,,,0,21,21,21,,,,,,,,,,,,,,,,,,,,,,,,,,,,,,,,,,,,,,,,,,,,,,,,,,,,,,,,,,,,,,,,,,,,,1.9984568059444427,0.9152443000348285,654.9560856999597,None,ScrollUp,정답입니다,654.9560856999597,None,654.9560856999597,None,654.9560856999597,None,654.9560856999597,None,655.7893608999439,None,655.7893608999439,656.305978099932,,,,,,,,,,,,,,,,111,2023-04-24_17h41.05.577,FishGame,2022.1.1,60.96497802483956,
,23,넌 신뢰할만해,1,Orange,A,6.625,5.533333333333333,ScrollDown,ScrollUp,Orange.png,5,Positive,Congruent,0,0,0,0,,,,,,,,,,,,,,,,,,,,,,,,,,,,,0,22,22,22,,,,,,,,,,,,,,,,,,,,,,,,,,,,,,,,,,,,,,,,,,,,,,,,,,,,,,,,,,,,,,,,,,,,,1,0.9151680000359192,656.9002577000065,None,ScrollDown,정답입니다,656.9002577000065,None,656.9002577000065,None,656.9002577000065,None,656.9002577000065,None,657.7227892999072,None,657.7227892999072,658.222522099968,,,,,,,,,,,,,,,,111,2023-04-24_17h41.05.577,FishGame,2022.1.1,60.96497802483956,
,24,나를 보내줘,6,Orange,A,0,0,ScrollUp,ScrollDown,Orange.png,5,NonTarget,NonTarget,0,0,0,0,,,,,,,,,,,,,,,,,,,,,,,,,,,,,0,23,23,23,,,,,,,,,,,,,,,,,,,,,,,,,,,,,,,,,,,,,,,,,,,,,,,,,,,,,,,,,,,,,,,,,,,,,1.858024686574936,0.9628035000059754,658.8278684999095,None,ScrollUp,정답입니다,658.8278684999095,None,658.8278684999095,None,658.8278684999095,None,658.8278684999095,None,659.7058393999469,None,659.7058393999469,660.2058343999088,,,,,,,,,,,,,,,,111,2023-04-24_17h41.05.577,FishGame,2022.1.1,60.96497802483956,
