name,TrialNum,Word,WordCategory,FishType,WordList,WordValence,WordReputation,CorrectResp,IncorrectResp,FishTypeFile,Round,WordType,Condition,LoopforOrange.thisRepN,LoopforOrange.thisTrialN,LoopforOrange.thisN,LoopforOrange.thisIndex,LoopForGreen.thisRepN,LoopForGreen.thisTrialN,LoopForGreen.thisN,LoopForGreen.thisIndex,GreenInstLoop.thisRepN,GreenInstLoop.thisTrialN,GreenInstLoop.thisN,GreenInstLoop.thisIndex,GreenPrac.thisRepN,GreenPrac.thisTrialN,GreenPrac.thisN,GreenPrac.thisIndex,trials_2.thisRepN,trials_2.thisTrialN,trials_2.thisN,trials_2.thisIndex,GreenRound1.thisRepN,GreenRound1.thisTrialN,GreenRound1.thisN,GreenRound1.thisIndex,GreenRound2.thisRepN,GreenRound2.thisTrialN,GreenRound2.thisN,GreenRound2.thisIndex,GreenRound3.thisRepN,GreenRound3.thisTrialN,GreenRound3.thisN,GreenRound3.thisIndex,GreenRound4.thisRepN,GreenRound4.thisTrialN,GreenRound4.thisN,GreenRound4.thisIndex,GreenRound5.thisRepN,GreenRound5.thisTrialN,GreenRound5.thisN,GreenRound5.thisIndex,text_2.started,text_2.stopped,text_3.started,text_3.stopped,key_resp.keys,key_resp.rt,key_resp.started,key_resp.stopped,PassI.started,PassI.stopped,PassInst.keys,PassInst.rt,PassInst.started,PassInst.stopped,mouse_2.x,mouse_2.y,mouse_2.leftButton,mouse_2.midButton,mouse_2.rightButton,mouse_2.started,mouse_2.stopped,image.started,image.stopped,text_5.started,text_5.stopped,text_6.started,text_6.stopped,text_7.started,text_7.stopped,text_8.started,text_8.stopped,slider_3.response,slider_3.rt,slider_3.started,slider_3.stopped,Response_3,Feedback_3,BackGround_3.started,BackGround_3.stopped,Fish_3.started,Fish_3.stopped,WordBox_3.started,WordBox_3.stopped,Words_3.started,Words_3.stopped,BackGround_Feedback_3.started,BackGround_Feedback_3.stopped,Feedbacks_3.started,Feedbacks_3.stopped,Continue_or_not_2.keys,Continue_or_not_2.rt,Continue_or_not_2.started,Continue_or_not_2.stopped,image_4.started,image_4.stopped,mouse_3.x,mouse_3.y,mouse_3.leftButton,mouse_3.midButton,mouse_3.rightButton,mouse_3.started,mouse_3.stopped,startmain.started,startmain.stopped,slider_4.response,slider_4.rt,slider_4.started,slider_4.stopped,Response_4,Feedback_4,BackGround_4.started,BackGround_4.stopped,Fish_4.started,Fish_4.stopped,WordBox_4.started,WordBox_4.stopped,Words_4.started,Words_4.stopped,BackGround_Feedback_4.started,BackGround_Feedback_4.stopped,Feedbacks_4.started,Feedbacks_4.stopped,text.started,text.stopped,break_interval.started,break_interval.stopped,mouse.x,mouse.y,mouse.leftButton,mouse.midButton,mouse.rightButton,mouse.started,mouse.stopped,stratnextround.started,stratnextround.stopped,endgame.started,endgame.stopped,participant,date,expName,psychopyVersion,frameRate,
,,,,,,,,,,,,,,,,,,,,,,,,,,,,,,,,,,,,,,,,,,,,,,,,,,,,,,29.176682299992535,None,29.176682299992535,None,space,3.7214368999702856,29.660122699977364,None,,,,,,,,,,,,,,,,,,,,,,,,,,,,,,,,,,,,,,,,,,,,,,,,,,,,,,,,,,,,,,,,,,,,,,,,,,,,,,,,,,,,,,,,,,112,2023-04-20_13h50.49.789,FishGame,2022.1.1,60.07326535282698,
물고기과제_instruction(참가자용)GreenVersion.mp4,,,,,,,,,,,,,,,,,,0,0,0,0,0,0,0,0,,,,,,,,,,,,,,,,,,,,,,,,,,,,,,,,,,,,,114.55526609998196,None,n,3.186509900027886,114.55526609998196,None,,,,,,,,,,,,,,,,,,,,,,,,,,,,,,,,,,,,,,,,,,,,,,,,,,,,,,,,,,,,,,,,,,,,,,,,,,,,,,,,,,,,112,2023-04-20_13h50.49.789,FishGame,2022.1.1,60.07326535282698,
,1,넌 교활해,5,Orange,B,2.333333333333333,2.133333333333333,ScrollUp,ScrollDown,Orange.png,practice,,,,,,,0,0,0,0,,,,,0,0,0,0,0,0,0,0,,,,,,,,,,,,,,,,,,,,,,,,,,,,,,,,,,,0.021296296,-0.21574074,1,0,0,0.5153352199704386,None,117.76934449997498,None,121.13820169999963,122.63839129998814,122.67169809999177,123.62170289998176,123.67172609997215,124.6216957999859,124.6216957999859,None,1.9768518606821697,1.2332810999942012,125.89020769996569,None,ScrollUp,정답입니다,125.89020769996569,None,125.89020769996569,None,125.89020769996569,None,125.89020769996569,None,126.83612390002236,None,126.83612390002236,127.338016099995,,,,,,,,,,,,,,,,,,,,,,,,,,,,,,,,,,,,,,,,,,,,,,,,,112,2023-04-20_13h50.49.789,FishGame,2022.1.1,60.07326535282698,
,2,넌 슬기로워,2,Green,A,6.166666666666667,4.1,ScrollDown,ScrollUp,Green.png,practice,,,,,,,0,0,0,0,,,,,0,0,0,0,0,1,1,1,,,,,,,,,,,,,,,,,,,,,,,,,,,,,,,,,,,,,,,,,,,,,,,,,,,,1.2469135870536168,0.7127796999993734,127.9424910999951,None,ScrollDown,정답입니다,127.9424910999951,None,127.9424910999951,None,127.9424910999951,None,127.9424910999951,None,128.56930600001942,None,128.56930600001942,129.0693321999861,,,,,,,,,,,,,,,,,,,,,,,,,,,,,,,,,,,,,,,,,,,,,,,,,112,2023-04-20_13h50.49.789,FishGame,2022.1.1,60.07326535282698,
,3,나를 보내줘,6,Green,A,0,0,ScrollUp,ScrollDown,Green.png,practice,,,,,,,0,0,0,0,,,,,0,0,0,0,0,2,2,2,,,,,,,,,,,,,,,,,,,,,,,,,,,,,,,,,,,,,,,,,,,,,,,,,,,,1.7731481442848842,0.9298217000323348,129.67616809997708,None,ScrollUp,정답입니다,129.67616809997708,None,129.67616809997708,None,129.67616809997708,None,129.67616809997708,None,130.52138290001312,None,130.52138290001312,131.02139120001812,,,,,,,,,,,,,,,,,,,,,,,,,,,,,,,,,,,,,,,,,,,,,,,,,112,2023-04-20_13h50.49.789,FishGame,2022.1.1,60.07326535282698,
,4,나를 데려가줘,6,Orange,B,0,0,ScrollDown,ScrollUp,Orange.png,practice,,,,,,,0,0,0,0,,,,,0,0,0,0,0,3,3,3,,,,,,,,,,,,,,,,,,,,,,,,,,,,,,,,,,,,,,,,,,,,,,,,,,,,1.1913580348094304,1.2125461000250652,131.6276896999916,None,ScrollDown,정답입니다,131.6276896999916,None,131.6276896999916,None,131.6276896999916,None,131.6276896999916,None,132.75232769997092,None,132.75232769997092,133.25230960000772,,,,,,,,,,,,,,,,,,,,,,,,,,,,,,,,,,,,,,,,,,,,,,,,,112,2023-04-20_13h50.49.789,FishGame,2022.1.1,60.07326535282698,
,1,넌 교활해,5,Orange,B,2.333333333333333,2.133333333333333,ScrollUp,ScrollDown,Orange.png,practice,,,,,,,0,0,0,0,,,,,0,0,0,0,,,,,,,,,,,,,,,,,,,,,,,,,,,,,,,,,,,,,,,,,,,,,,,,,,,,,,,,,,,,,,,,,,,,,,,,,,n,4.613512999960221,133.7523504999699,None,133.7523504999699,None,,,,,,,,,,,,,,,,,,,,,,,,,,,,,,,,,,,,,,,,,,,112,2023-04-20_13h50.49.789,FishGame,2022.1.1,60.07326535282698,
,1,넌 따뜻해,1,Orange,B,6.083333333333333,5.6,ScrollUp,ScrollDown,Orange.png,1,Positive,Incongruent,,,,,0,0,0,0,,,,,,,,,,,,,0,0,0,0,,,,,,,,,,,,,,,,,,,,,,,,,,,,,,,,,,,,,,,,140.60469319997355,142.1046372000128,142.13792989996728,143.08795469999313,143.1379256999935,144.08802530000685,144.08802530000685,None,,,,,,,,,,,,,,,,,,,,,,,,,-0.011111111,-0.13425925,1,0,0,0.30117742001311854,None,138.38794519996736,None,1.9876543084780376,1.2447814000188373,145.36185139999725,None,ScrollUp,정답입니다,145.36185139999725,None,145.36185139999725,None,145.36185139999725,None,145.36185139999725,None,146.31884720001835,None,146.31884720001835,146.82097319996683,,,,,,,,,,,,,,,,112,2023-04-20_13h50.49.789,FishGame,2022.1.1,60.07326535282698,
,2,넌 기품있어,2,Orange,B,5.791666666666668,4.5,ScrollUp,ScrollDown,Orange.png,1,Positive,Incongruent,,,,,0,0,0,0,,,,,,,,,,,,,0,1,1,1,,,,,,,,,,,,,,,,,,,,,,,,,,,,,,,,,,,,,,,,,,,,,,,,,,,,,,,,,,,,,,,,,,,,,,,,,,,,,,,,,1.8672839452823002,0.7960505000082776,147.43379989999812,None,ScrollUp,정답입니다,147.43379989999812,None,147.43379989999812,None,147.43379989999812,None,147.43379989999812,None,148.13562369998544,None,148.13562369998544,148.63814210001146,,,,,,,,,,,,,,,,112,2023-04-20_13h50.49.789,FishGame,2022.1.1,60.07326535282698,
,3,나를 보내줘,6,Green,A,0,0,ScrollUp,ScrollDown,Green.png,1,NonTarget,NonTarget,,,,,0,0,0,0,,,,,,,,,,,,,0,2,2,2,,,,,,,,,,,,,,,,,,,,,,,,,,,,,,,,,,,,,,,,,,,,,,,,,,,,,,,,,,,,,,,,,,,,,,,,,,,,,,,,,1.8765432039896648,0.8670770000317134,149.24644800001988,None,ScrollUp,정답입니다,149.24644800001988,None,149.24644800001988,None,149.24644800001988,None,149.24644800001988,None,150.01890989998356,None,150.01890989998356,150.52097800001502,,,,,,,,,,,,,,,,112,2023-04-20_13h50.49.789,FishGame,2022.1.1,60.07326535282698,
,4,넌 수동적이야,4,Green,A,2.833333333333333,2.933333333333333,ScrollDown,ScrollUp,Green.png,1,Negative,Incongruent,,,,,0,0,0,0,,,,,,,,,,,,,0,3,3,3,,,,,,,,,,,,,,,,,,,,,,,,,,,,,,,,,,,,,,,,,,,,,,,,,,,,,,,,,,,,,,,,,,,,,,,,,,,,,,,,,1.7824074029922485,0.8136525999871083,151.13582959998166,None,ScrollUp,오답입니다,151.13582959998166,None,151.13582959998166,None,151.13582959998166,None,151.13582959998166,None,151.8519159000134,None,151.8519159000134,152.3519071000046,,,,,,,,,,,,,,,,112,2023-04-20_13h50.49.789,FishGame,2022.1.1,60.07326535282698,
,5,넌 사심이 없어,3,Orange,B,4.916666666666666,4.333333333333333,ScrollUp,ScrollDown,Orange.png,1,Neutral,Neutral,,,,,0,0,0,0,,,,,,,,,,,,,0,4,4,4,,,,,,,,,,,,,,,,,,,,,,,,,,,,,,,,,,,,,,,,,,,,,,,,,,,,,,,,,,,,,,,,,,,,,,,,,,,,,,,,,1.817901223897934,0.8652038999716751,152.96166239999002,None,ScrollUp,정답입니다,152.96166239999002,None,152.96166239999002,None,152.96166239999002,None,152.96166239999002,None,153.73530419997405,None,153.73530419997405,154.2376372999861,,,,,,,,,,,,,,,,112,2023-04-20_13h50.49.789,FishGame,2022.1.1,60.07326535282698,
,6,넌 헤퍼,5,Green,A,2.458333333333334,2.233333333333333,ScrollDown,ScrollUp,Green.png,1,Negative,Incongruent,,,,,0,0,0,0,,,,,,,,,,,,,0,5,5,5,,,,,,,,,,,,,,,,,,,,,,,,,,,,,,,,,,,,,,,,,,,,,,,,,,,,,,,,,,,,,,,,,,,,,,,,,,,,,,,,,1,1.0483816000050865,154.8473775999737,None,ScrollDown,정답입니다,154.8473775999737,None,154.8473775999737,None,154.8473775999737,None,154.8473775999737,None,155.80450159998145,None,155.80450159998145,156.30426699999953,,,,,,,,,,,,,,,,112,2023-04-20_13h50.49.789,FishGame,2022.1.1,60.07326535282698,
,7,넌 말쑥해,3,Green,A,4.833333333333334,4.333333333333333,ScrollDown,ScrollUp,Green.png,1,Neutral,Neutral,,,,,0,0,0,0,,,,,,,,,,,,,0,6,6,6,,,,,,,,,,,,,,,,,,,,,,,,,,,,,,,,,,,,,,,,,,,,,,,,,,,,,,,,,,,,,,,,,,,,,,,,,,,,,,,,,1.1064814925193787,0.764948199968785,156.9121424999903,None,ScrollDown,정답입니다,156.9121424999903,None,156.9121424999903,None,156.9121424999903,None,156.9121424999903,None,157.5854756999761,None,157.5854756999761,158.08742070000153,,,,,,,,,,,,,,,,112,2023-04-20_13h50.49.789,FishGame,2022.1.1,60.07326535282698,
,8,넌 투덜거려,5,Orange,B,2.541666666666667,2.266666666666667,ScrollUp,ScrollDown,Orange.png,1,Negative,Congruent,,,,,0,0,0,0,,,,,,,,,,,,,0,7,7,7,,,,,,,,,,,,,,,,,,,,,,,,,,,,,,,,,,,,,,,,,,,,,,,,,,,,,,,,,,,,,,,,,,,,,,,,,,,,,,,,,1.939814825852712,0.8429348000208847,158.70334200002253,None,ScrollUp,정답입니다,158.70334200002253,None,158.70334200002253,None,158.70334200002253,None,158.70334200002253,None,159.4520046999678,None,159.4520046999678,159.95404109999072,,,,,,,,,,,,,,,,112,2023-04-20_13h50.49.789,FishGame,2022.1.1,60.07326535282698,
,9,넌 적극적이야,1,Green,A,5.708333333333333,5.533333333333333,ScrollDown,ScrollUp,Green.png,1,Positive,Congruent,,,,,0,0,0,0,,,,,,,,,,,,,0,8,8,8,,,,,,,,,,,,,,,,,,,,,,,,,,,,,,,,,,,,,,,,,,,,,,,,,,,,,,,,,,,,,,,,,,,,,,,,,,,,,,,,,1.1141975373029709,0.7463270000298508,160.564263999986,None,ScrollDown,정답입니다,160.564263999986,None,160.564263999986,None,160.564263999986,None,160.564263999986,None,161.22074289998272,None,161.22074289998272,161.72077720001107,,,,,,,,,,,,,,,,112,2023-04-20_13h50.49.789,FishGame,2022.1.1,60.07326535282698,
,10,넌 재미없어,4,Orange,B,2.625,2.966666666666667,ScrollUp,ScrollDown,Orange.png,1,Negative,Congruent,,,,,0,0,0,0,,,,,,,,,,,,,0,9,9,9,,,,,,,,,,,,,,,,,,,,,,,,,,,,,,,,,,,,,,,,,,,,,,,,,,,,,,,,,,,,,,,,,,,,,,,,,,,,,,,,,1.8935185074806213,1.09847730002366,162.33693889999995,None,ScrollUp,정답입니다,162.33693889999995,None,162.33693889999995,None,162.33693889999995,None,162.33693889999995,None,163.3353347000084,None,163.3353347000084,163.83734119997825,,,,,,,,,,,,,,,,112,2023-04-20_13h50.49.789,FishGame,2022.1.1,60.07326535282698,
,11,넌 명석해,2,Green,A,5.875,4.033333333333333,ScrollDown,ScrollUp,Green.png,1,Positive,Congruent,,,,,0,0,0,0,,,,,,,,,,,,,0,10,10,10,,,,,,,,,,,,,,,,,,,,,,,,,,,,,,,,,,,,,,,,,,,,,,,,,,,,,,,,,,,,,,,,,,,,,,,,,,,,,,,,,1,0.9095791999716312,164.4545622000005,None,ScrollDown,정답입니다,164.4545622000005,None,164.4545622000005,None,164.4545622000005,None,164.4545622000005,None,165.2682898999774,None,165.2682898999774,165.7683816999779,,,,,,,,,,,,,,,,112,2023-04-20_13h50.49.789,FishGame,2022.1.1,60.07326535282698,
,12,나를 데려가줘,6,Orange,B,0,0,ScrollDown,ScrollUp,Orange.png,1,NonTarget,NonTarget,,,,,0,0,0,0,,,,,,,,,,,,,0,11,11,11,,,,,,,,,,,,,,,,,,,,,,,,,,,,,,,,,,,,,,,,,,,,,,,,,,,,,,,,,,,,,,,,,,,,,,,,,,,,,,,,,1,0.9644171000109054,166.37662029999774,None,ScrollDown,정답입니다,166.37662029999774,None,166.37662029999774,None,166.37662029999774,None,166.37662029999774,None,167.2516790999798,None,167.2516790999798,167.75403700000606,,,,,,,,,,,,,,,,112,2023-04-20_13h50.49.789,FishGame,2022.1.1,60.07326535282698,
,13,넌 소심해,4,Green,A,3,3.1,ScrollDown,ScrollUp,Green.png,1,Negative,Incongruent,,,,,0,0,0,0,,,,,,,,,,,,,0,12,12,12,,,,,,,,,,,,,,,,,,,,,,,,,,,,,,,,,,,,,,,,,,,,,,,,,,,,,,,,,,,,,,,,,,,,,,,,,,,,,,,,,1.7098765472571054,0.8817980000167154,168.36127160000615,None,ScrollUp,오답입니다,168.36127160000615,None,168.36127160000615,None,168.36127160000615,None,168.36127160000615,None,169.15419630001998,None,169.15419630001998,169.65402849996462,,,,,,,,,,,,,,,,112,2023-04-20_13h50.49.789,FishGame,2022.1.1,60.07326535282698,
,14,넌 합리적이야,2,Green,A,5.583333333333333,4.733333333333333,ScrollDown,ScrollUp,Green.png,1,Positive,Congruent,,,,,0,0,0,0,,,,,,,,,,,,,0,13,13,13,,,,,,,,,,,,,,,,,,,,,,,,,,,,,,,,,,,,,,,,,,,,,,,,,,,,,,,,,,,,,,,,,,,,,,,,,,,,,,,,,1.1496913582086563,0.7960437000147067,170.26347800000804,None,ScrollDown,정답입니다,170.26347800000804,None,170.26347800000804,None,170.26347800000804,None,170.26347800000804,None,170.9705391000025,None,170.9705391000025,171.48719010001514,,,,,,,,,,,,,,,,112,2023-04-20_13h50.49.789,FishGame,2022.1.1,60.07326535282698,
,15,넌 무자비해,5,Orange,B,2.333333333333333,2.1,ScrollUp,ScrollDown,Orange.png,1,Negative,Congruent,,,,,0,0,0,0,,,,,,,,,,,,,0,14,14,14,,,,,,,,,,,,,,,,,,,,,,,,,,,,,,,,,,,,,,,,,,,,,,,,,,,,,,,,,,,,,,,,,,,,,,,,,,,,,,,,,1.8749999900658925,0.865172200021334,172.0814855999779,None,ScrollUp,정답입니다,172.0814855999779,None,172.0814855999779,None,172.0814855999779,None,172.0814855999779,None,172.85381569998572,None,172.85381569998572,173.35383470001398,,,,,,,,,,,,,,,,112,2023-04-20_13h50.49.789,FishGame,2022.1.1,60.07326535282698,
,16,나를 보내줘,6,Green,A,0,0,ScrollUp,ScrollDown,Green.png,1,NonTarget,NonTarget,,,,,0,0,0,0,,,,,,,,,,,,,0,15,15,15,,,,,,,,,,,,,,,,,,,,,,,,,,,,,,,,,,,,,,,,,,,,,,,,,,,,,,,,,,,,,,,,,,,,,,,,,,,,,,,,,1.8749999900658925,0.9299648000160232,173.9577160999761,None,ScrollUp,정답입니다,173.9577160999761,None,173.9577160999761,None,173.9577160999761,None,173.9577160999761,None,174.8037663999712,None,174.8037663999712,175.30372199998237,,,,,,,,,,,,,,,,112,2023-04-20_13h50.49.789,FishGame,2022.1.1,60.07326535282698,
,17,넌 현실적이야,3,Orange,B,4.608695652173913,4.766666666666667,ScrollUp,ScrollDown,Orange.png,1,Neutral,Neutral,,,,,0,0,0,0,,,,,,,,,,,,,0,16,16,16,,,,,,,,,,,,,,,,,,,,,,,,,,,,,,,,,,,,,,,,,,,,,,,,,,,,,,,,,,,,,,,,,,,,,,,,,,,,,,,,,1.4799382717659075,1.2463651999714784,175.9175957000116,None,NoResponse,무응답입니다,175.9175957000116,None,175.9175957000116,None,175.9175957000116,None,175.9175957000116,None,177.06838780001272,None,177.06838780001272,177.57039810001152,,,,,,,,,,,,,,,,112,2023-04-20_13h50.49.789,FishGame,2022.1.1,60.07326535282698,
,18,넌 의리있어,1,Orange,B,5.833333333333334,5.633333333333334,ScrollUp,ScrollDown,Orange.png,1,Positive,Incongruent,,,,,0,0,0,0,,,,,,,,,,,,,0,17,17,17,,,,,,,,,,,,,,,,,,,,,,,,,,,,,,,,,,,,,,,,,,,,,,,,,,,,,,,,,,,,,,,,,,,,,,,,,,,,,,,,,1.9475308458010356,0.9961419000173919,178.18438890000107,None,ScrollUp,정답입니다,178.18438890000107,None,178.18438890000107,None,178.18438890000107,None,178.18438890000107,None,179.08494670002256,None,179.08494670002256,179.58698740002,,,,,,,,,,,,,,,,112,2023-04-20_13h50.49.789,FishGame,2022.1.1,60.07326535282698,
,19,넌 신경과민이야,5,Green,A,2.541666666666667,2.166666666666667,ScrollDown,ScrollUp,Green.png,1,Negative,Incongruent,,,,,0,0,0,0,,,,,,,,,,,,,0,18,18,18,,,,,,,,,,,,,,,,,,,,,,,,,,,,,,,,,,,,,,,,,,,,,,,,,,,,,,,,,,,,,,,,,,,,,,,,,,,,,,,,,1,0.8335844000102952,180.1973302999977,None,ScrollDown,정답입니다,180.1973302999977,None,180.1973302999977,None,180.1973302999977,None,180.1973302999977,None,180.93495059997076,None,180.93495059997076,181.43699189997278,,,,,,,,,,,,,,,,112,2023-04-20_13h50.49.789,FishGame,2022.1.1,60.07326535282698,
,20,넌 편안해,1,Green,A,5.916666666666666,5.866666666666666,ScrollDown,ScrollUp,Green.png,1,Positive,Congruent,,,,,0,0,0,0,,,,,,,,,,,,,0,19,19,19,,,,,,,,,,,,,,,,,,,,,,,,,,,,,,,,,,,,,,,,,,,,,,,,,,,,,,,,,,,,,,,,,,,,,,,,,,,,,,,,,1,1.0647526000393555,182.0447637999896,None,ScrollDown,정답입니다,182.0447637999896,None,182.0447637999896,None,182.0447637999896,None,182.0447637999896,None,183.0204056999646,None,183.0204056999646,183.5235556999687,,,,,,,,,,,,,,,,112,2023-04-20_13h50.49.789,FishGame,2022.1.1,60.07326535282698,
,21,넌 품위있어,2,Orange,B,5.291666666666666,4.466666666666667,ScrollUp,ScrollDown,Orange.png,1,Positive,Incongruent,,,,,0,0,0,0,,,,,,,,,,,,,0,20,20,20,,,,,,,,,,,,,,,,,,,,,,,,,,,,,,,,,,,,,,,,,,,,,,,,,,,,,,,,,,,,,,,,,,,,,,,,,,,,,,,,,2,0.996104700025171,184.12846939999145,None,ScrollUp,정답입니다,184.12846939999145,None,184.12846939999145,None,184.12846939999145,None,184.12846939999145,None,185.0348185999901,None,185.0348185999901,185.53687219996937,,,,,,,,,,,,,,,,112,2023-04-20_13h50.49.789,FishGame,2022.1.1,60.07326535282698,
,22,넌 빈틈없어,3,Green,A,4.833333333333333,3.966666666666667,ScrollDown,ScrollUp,Green.png,1,Neutral,Neutral,,,,,0,0,0,0,,,,,,,,,,,,,0,21,21,21,,,,,,,,,,,,,,,,,,,,,,,,,,,,,,,,,,,,,,,,,,,,,,,,,,,,,,,,,,,,,,,,,,,,,,,,,,,,,,,,,1.0555555323759716,0.8315847999765538,186.14475109998602,None,ScrollDown,정답입니다,186.14475109998602,None,186.14475109998602,None,186.14475109998602,None,186.14475109998602,None,186.88485550001496,None,186.88485550001496,187.38695000001462,,,,,,,,,,,,,,,,112,2023-04-20_13h50.49.789,FishGame,2022.1.1,60.07326535282698,
,23,넌 상상력없어,4,Orange,B,2.833333333333333,3.133333333333333,ScrollUp,ScrollDown,Orange.png,1,Negative,Congruent,,,,,0,0,0,0,,,,,,,,,,,,,0,22,22,22,,,,,,,,,,,,,,,,,,,,,,,,,,,,,,,,,,,,,,,,,,,,,,,,,,,,,,,,,,,,,,,,,,,,,,,,,,,,,,,,,1.9259259502092998,0.8483817999949679,187.99706329999026,None,ScrollUp,정답입니다,187.99706329999026,None,187.99706329999026,None,187.99706329999026,None,187.99706329999026,None,188.75352690002182,None,188.75352690002182,189.2534456999856,,,,,,,,,,,,,,,,112,2023-04-20_13h50.49.789,FishGame,2022.1.1,60.07326535282698,
,24,넌 지혜로워,2,Orange,B,6.333333333333334,4.633333333333334,ScrollUp,ScrollDown,Orange.png,1,Positive,Incongruent,,,,,0,0,0,0,,,,,,,,,,,,,0,23,23,23,,,,,,,,,,,,,,,,,,,,,,,,,,,,,,,,,,,,,,,,,,,,,,,,,,,,,,,,,,,,,,,,,,,,,,,,,,,,,,,,,1.9012345770994823,0.9150482999975793,189.86520599998767,None,ScrollUp,정답입니다,189.86520599998767,None,189.86520599998767,None,189.86520599998767,None,189.86520599998767,None,190.68677470000694,None,190.68677470000694,191.18675890000304,,,,,,,,,,,,,,,,112,2023-04-20_13h50.49.789,FishGame,2022.1.1,60.07326535282698,
,25,넌 시끄러워,4,Green,A,2.833333333333333,3.033333333333333,ScrollDown,ScrollUp,Green.png,1,Negative,Incongruent,,,,,0,0,0,0,,,,,,,,,,,,,0,24,24,24,,,,,,,,,,,,,,,,,,,,,,,,,,,,,,,,,,,,,,,,,,,,,,,,,,,,,,,,,,,,,,,,,,,,,,,,,,,,,,,,,1.0046296219031017,0.8818766999756917,191.796135600016,None,ScrollDown,정답입니다,191.796135600016,None,191.796135600016,None,191.796135600016,None,191.796135600016,None,192.58682789996965,None,192.58682789996965,193.08677100000205,,,,,,,,,,,,,,,,112,2023-04-20_13h50.49.789,FishGame,2022.1.1,60.07326535282698,
,26,넌 만사태평이야,3,Orange,B,4,4.333333333333333,ScrollUp,ScrollDown,Orange.png,1,Neutral,Neutral,,,,,0,0,0,0,,,,,,,,,,,,,0,25,25,25,,,,,,,,,,,,,,,,,,,,,,,,,,,,,,,,,,,,,,,,,,,,,,,,,,,,,,,,,,,,,,,,,,,,,,,,,,,,,,,,,2,0.8764204999897629,193.70229129999643,None,ScrollUp,정답입니다,193.70229129999643,None,193.70229129999643,None,193.70229129999643,None,193.70229129999643,None,194.48681550001493,None,194.48681550001493,194.9867482999689,,,,,,,,,,,,,,,,112,2023-04-20_13h50.49.789,FishGame,2022.1.1,60.07326535282698,
,27,넌 붙임성있어,1,Green,A,5.708333333333333,5.633333333333334,ScrollDown,ScrollUp,Green.png,1,Positive,Congruent,,,,,0,0,0,0,,,,,,,,,,,,,0,26,26,26,,,,,,,,,,,,,,,,,,,,,,,,,,,,,,,,,,,,,,,,,,,,,,,,,,,,,,,,,,,,,,,,,,,,,,,,,,,,,,,,,1,0.7931894999928772,195.60507589997724,None,ScrollDown,정답입니다,195.60507589997724,None,195.60507589997724,None,195.60507589997724,None,195.60507589997724,None,196.30102479999186,None,196.30102479999186,196.80100989999482,,,,,,,,,,,,,,,,112,2023-04-20_13h50.49.789,FishGame,2022.1.1,60.07326535282698,
,28,넌 영리해,2,Green,A,6,4.033333333333333,ScrollDown,ScrollUp,Green.png,1,Positive,Congruent,,,,,0,0,0,0,,,,,,,,,,,,,0,27,27,27,,,,,,,,,,,,,,,,,,,,,,,,,,,,,,,,,,,,,,,,,,,,,,,,,,,,,,,,,,,,,,,,,,,,,,,,,,,,,,,,,1.1172839403152466,0.6951152000110596,197.4103815999697,None,ScrollDown,정답입니다,197.4103815999697,None,197.4103815999697,None,197.4103815999697,None,197.4103815999697,None,198.01766229997156,None,198.01766229997156,198.51769499998773,,,,,,,,,,,,,,,,112,2023-04-20_13h50.49.789,FishGame,2022.1.1,60.07326535282698,
,29,넌 열심이야,1,Orange,B,6.041666666666667,5.833333333333333,ScrollUp,ScrollDown,Orange.png,1,Positive,Incongruent,,,,,0,0,0,0,,,,,,,,,,,,,0,28,28,28,,,,,,,,,,,,,,,,,,,,,,,,,,,,,,,,,,,,,,,,,,,,,,,,,,,,,,,,,,,,,,,,,,,,,,,,,,,,,,,,,1.9799382885297139,0.8648788999998942,199.12971339997603,None,ScrollUp,정답입니다,199.12971339997603,None,199.12971339997603,None,199.12971339997603,None,199.12971339997603,None,199.9035598000046,None,199.9035598000046,200.40337830001954,,,,,,,,,,,,,,,,112,2023-04-20_13h50.49.789,FishGame,2022.1.1,60.07326535282698,
,30,넌 인기없어,4,Orange,B,3,3.3,ScrollUp,ScrollDown,Orange.png,1,Negative,Congruent,,,,,0,0,0,0,,,,,,,,,,,,,0,29,29,29,,,,,,,,,,,,,,,,,,,,,,,,,,,,,,,,,,,,,,,,,,,,,,,,,,,,,,,,,,,,,,,,,,,,,,,,,,,,,,,,,2,0.781705699977465,201.0139481999795,None,ScrollUp,정답입니다,201.0139481999795,None,201.0139481999795,None,201.0139481999795,None,201.0139481999795,None,201.70341849996476,None,201.70341849996476,202.2032134999754,,,,,,,,,,,,,,,,112,2023-04-20_13h50.49.789,FishGame,2022.1.1,60.07326535282698,
,31,넌 익살스러워,3,Green,A,4.708333333333334,4.833333333333333,ScrollDown,ScrollUp,Green.png,1,Neutral,Neutral,,,,,0,0,0,0,,,,,,,,,,,,,0,30,30,30,,,,,,,,,,,,,,,,,,,,,,,,,,,,,,,,,,,,,,,,,,,,,,,,,,,,,,,,,,,,,,,,,,,,,,,,,,,,,,,,,1.10030863682429,0.6796906000236049,202.81164379999973,None,ScrollDown,정답입니다,202.81164379999973,None,202.81164379999973,None,202.81164379999973,None,202.81164379999973,None,203.40321030002087,None,203.40321030002087,203.9032264999696,,,,,,,,,,,,,,,,112,2023-04-20_13h50.49.789,FishGame,2022.1.1,60.07326535282698,
,32,넌 이기적이야,5,Orange,B,2.291666666666667,2.333333333333333,ScrollUp,ScrollDown,Orange.png,1,Negative,Congruent,,,,,0,0,0,0,,,,,,,,,,,,,0,31,31,31,,,,,,,,,,,,,,,,,,,,,,,,,,,,,,,,,,,,,,,,,,,,,,,,,,,,,,,,,,,,,,,,,,,,,,,,,,,,,,,,,1.9861110945542653,0.7648392000119202,204.50659659999656,None,ScrollUp,정답입니다,204.50659659999656,None,204.50659659999656,None,204.50659659999656,None,204.50659659999656,None,205.1844249999849,None,205.1844249999849,205.68643449997762,,,,,,,,,,,,,,,,112,2023-04-20_13h50.49.789,FishGame,2022.1.1,60.07326535282698,
,33,나를 데려가줘,6,Orange,B,0,0,ScrollDown,ScrollUp,Orange.png,1,NonTarget,NonTarget,,,,,0,0,0,0,,,,,,,,,,,,,0,32,32,32,,,,,,,,,,,,,,,,,,,,,,,,,,,,,,,,,,,,,,,,,,,,,,,,,,,,,,,,,,,,,,,,,,,,,,,,,,,,,,,,,1,0.9129615999991074,206.29333479999332,None,ScrollDown,정답입니다,206.29333479999332,None,206.29333479999332,None,206.29333479999332,None,206.29333479999332,None,207.11989009997342,None,207.11989009997342,207.6198573000147,,,,,,,,,,,,,,,,112,2023-04-20_13h50.49.789,FishGame,2022.1.1,60.07326535282698,
,34,넌 기회주의자야,5,Green,A,2.875,2.133333333333333,ScrollDown,ScrollUp,Green.png,1,Negative,Incongruent,,,,,0,0,0,0,,,,,,,,,,,,,0,33,33,33,,,,,,,,,,,,,,,,,,,,,,,,,,,,,,,,,,,,,,,,,,,,,,,,,,,,,,,,,,,,,,,,,,,,,,,,,,,,,,,,,1,0.9816813999786973,208.2286357000121,None,ScrollDown,정답입니다,208.2286357000121,None,208.2286357000121,None,208.2286357000121,None,208.2286357000121,None,209.11967460002052,None,209.11967460002052,209.6196986999712,,,,,,,,,,,,,,,,112,2023-04-20_13h50.49.789,FishGame,2022.1.1,60.07326535282698,
,1,넌 미성숙해,4,Green,A,3,3.2,ScrollDown,ScrollUp,Green.png,2,Negative,Incongruent,,,,,0,0,0,0,,,,,,,,,,,,,,,,,0,0,0,0,,,,,,,,,,,,,,,,,,,,,,,,,,,,,,,,,,,,241.9523998000077,243.4525297000073,243.48587939998833,244.43889340001624,244.47237909998512,245.43593919998966,245.43593919998966,None,,,,,,,,,,,,,,,,,,,,,,,,,,,,,,,,,,1.1172839403152466,1.258925799978897,246.52044230001047,None,ScrollDown,정답입니다,246.52044230001047,None,246.52044230001047,None,246.52044230001047,None,246.52044230001047,None,247.68570299999556,None,247.68570299999556,248.18563000002177,210.1196956000058,None,210.1196956000058,None,0.094444446,-0.10092592,1,0,0,0.016138919978402555,None,240.1189809999778,None,,,112,2023-04-20_13h50.49.789,FishGame,2022.1.1,60.07326535282698,
,2,넌 반사회적이야,5,Orange,B,2.416666666666667,2.033333333333333,ScrollUp,ScrollDown,Orange.png,2,Negative,Congruent,,,,,0,0,0,0,,,,,,,,,,,,,,,,,0,1,1,1,,,,,,,,,,,,,,,,,,,,,,,,,,,,,,,,,,,,,,,,,,,,,,,,,,,,,,,,,,,,,,,,,,,,,,,,,,,,,2,0.8129011999699287,248.81043730000965,None,ScrollUp,정답입니다,248.81043730000965,None,248.81043730000965,None,248.81043730000965,None,248.81043730000965,None,249.5355292999884,None,249.5355292999884,250.03554810001515,,,,,,,,,,,,,,,,112,2023-04-20_13h50.49.789,FishGame,2022.1.1,60.07326535282698,
,3,넌 유능해,2,Green,A,6.208333333333333,4.433333333333334,ScrollDown,ScrollUp,Green.png,2,Positive,Congruent,,,,,0,0,0,0,,,,,,,,,,,,,,,,,0,2,2,2,,,,,,,,,,,,,,,,,,,,,,,,,,,,,,,,,,,,,,,,,,,,,,,,,,,,,,,,,,,,,,,,,,,,,,,,,,,,,1.0030864079793294,0.7297648999956436,250.63861449999968,None,ScrollDown,정답입니다,250.63861449999968,None,250.63861449999968,None,250.63861449999968,None,250.63861449999968,None,251.28552580001997,None,251.28552580001997,251.78561949997675,,,,,,,,,,,,,,,,112,2023-04-20_13h50.49.789,FishGame,2022.1.1,60.07326535282698,
,4,넌 능숙해,2,Orange,B,5.666666666666667,4.733333333333333,ScrollUp,ScrollDown,Orange.png,2,Positive,Incongruent,,,,,0,0,0,0,,,,,,,,,,,,,,,,,0,3,3,3,,,,,,,,,,,,,,,,,,,,,,,,,,,,,,,,,,,,,,,,,,,,,,,,,,,,,,,,,,,,,,,,,,,,,,,,,,,,,2,0.833832300035283,252.38851419999264,None,ScrollUp,정답입니다,252.38851419999264,None,252.38851419999264,None,252.38851419999264,None,252.38851419999264,None,253.1331822000211,None,253.1331822000211,253.63316989998566,,,,,,,,,,,,,,,,112,2023-04-20_13h50.49.789,FishGame,2022.1.1,60.07326535282698,
,5,넌 진부해,4,Orange,B,2.458333333333333,3.166666666666667,ScrollUp,ScrollDown,Orange.png,2,Negative,Congruent,,,,,0,0,0,0,,,,,,,,,,,,,,,,,0,4,4,4,,,,,,,,,,,,,,,,,,,,,,,,,,,,,,,,,,,,,,,,,,,,,,,,,,,,,,,,,,,,,,,,,,,,,,,,,,,,,2,0.8122947000083514,254.24558719998458,None,ScrollUp,정답입니다,254.24558719998458,None,254.24558719998458,None,254.24558719998458,None,254.24558719998458,None,254.96655010001268,None,254.96655010001268,255.46657729998697,,,,,,,,,,,,,,,,112,2023-04-20_13h50.49.789,FishGame,2022.1.1,60.07326535282698,
,6,나를 보내줘,6,Green,A,0,0,ScrollUp,ScrollDown,Green.png,2,NonTarget,NonTarget,,,,,0,0,0,0,,,,,,,,,,,,,,,,,0,5,5,5,,,,,,,,,,,,,,,,,,,,,,,,,,,,,,,,,,,,,,,,,,,,,,,,,,,,,,,,,,,,,,,,,,,,,,,,,,,,,1.7731481442848842,1.0316810999647714,256.07010000001173,None,ScrollUp,정답입니다,256.07010000001173,None,256.07010000001173,None,256.07010000001173,None,256.07010000001173,None,257.01898699998856,None,257.01898699998856,257.5188696999685,,,,,,,,,,,,,,,,112,2023-04-20_13h50.49.789,FishGame,2022.1.1,60.07326535282698,
,7,넌 엄격해,3,Green,A,4.166666666666666,4.1,ScrollDown,ScrollUp,Green.png,2,Neutral,Neutral,,,,,0,0,0,0,,,,,,,,,,,,,,,,,0,6,6,6,,,,,,,,,,,,,,,,,,,,,,,,,,,,,,,,,,,,,,,,,,,,,,,,,,,,,,,,,,,,,,,,,,,,,,,,,,,,,2,0.8593887000461109,258.13301879999926,None,ScrollUp,오답입니다,258.13301879999926,None,258.13301879999926,None,258.13301879999926,None,258.13301879999926,None,258.8997344999807,None,258.8997344999807,259.39972119999584,,,,,,,,,,,,,,,,112,2023-04-20_13h50.49.789,FishGame,2022.1.1,60.07326535282698,
,8,나를 보내줘,6,Green,A,0,0,ScrollUp,ScrollDown,Green.png,2,NonTarget,NonTarget,,,,,0,0,0,0,,,,,,,,,,,,,,,,,0,7,7,7,,,,,,,,,,,,,,,,,,,,,,,,,,,,,,,,,,,,,,,,,,,,,,,,,,,,,,,,,,,,,,,,,,,,,,,,,,,,,1.8024691343307495,1.0146856000064872,259.99720869999146,None,ScrollUp,정답입니다,259.99720869999146,None,259.99720869999146,None,259.99720869999146,None,259.99720869999146,None,260.9330648999894,None,260.9330648999894,261.43545260000974,,,,,,,,,,,,,,,,112,2023-04-20_13h50.49.789,FishGame,2022.1.1,60.07326535282698,
,9,넌 대담해,3,Orange,B,4.875,4.866666666666666,ScrollUp,ScrollDown,Orange.png,2,Neutral,Neutral,,,,,0,0,0,0,,,,,,,,,,,,,,,,,0,8,8,8,,,,,,,,,,,,,,,,,,,,,,,,,,,,,,,,,,,,,,,,,,,,,,,,,,,,,,,,,,,,,,,,,,,,,,,,,,,,,2,1.431951400008984,262.04234639997594,None,ScrollUp,정답입니다,262.04234639997594,None,262.04234639997594,None,262.04234639997594,None,262.04234639997594,None,263.3834576999652,None,263.3834576999652,263.8854165999801,,,,,,,,,,,,,,,,112,2023-04-20_13h50.49.789,FishGame,2022.1.1,60.07326535282698,
,10,넌 꾸준해,1,Green,A,5.916666666666668,5.8,ScrollDown,ScrollUp,Green.png,2,Positive,Congruent,,,,,0,0,0,0,,,,,,,,,,,,,,,,,0,9,9,9,,,,,,,,,,,,,,,,,,,,,,,,,,,,,,,,,,,,,,,,,,,,,,,,,,,,,,,,,,,,,,,,,,,,,,,,,,,,,1.0185184975465138,0.8960529000032693,264.49174929998117,None,ScrollDown,정답입니다,264.49174929998117,None,264.49174929998117,None,264.49174929998117,None,264.49174929998117,None,265.3019172999775,None,265.3019172999775,265.8019162999699,,,,,,,,,,,,,,,,112,2023-04-20_13h50.49.789,FishGame,2022.1.1,60.07326535282698,
,11,나를 데려가줘,6,Orange,B,0,0,ScrollDown,ScrollUp,Orange.png,2,NonTarget,NonTarget,,,,,0,0,0,0,,,,,,,,,,,,,,,,,0,10,10,10,,,,,,,,,,,,,,,,,,,,,,,,,,,,,,,,,,,,,,,,,,,,,,,,,,,,,,,,,,,,,,,,,,,,,,,,,,,,,1.0756172637144725,1.2650246000266634,266.40420310001355,None,ScrollDown,정답입니다,266.40420310001355,None,266.40420310001355,None,266.40420310001355,None,266.40420310001355,None,267.5852722999989,None,267.5852722999989,268.0851820000098,,,,,,,,,,,,,,,,112,2023-04-20_13h50.49.789,FishGame,2022.1.1,60.07326535282698,
,12,넌 독선적이야,5,Green,A,2.458333333333333,1.933333333333333,ScrollDown,ScrollUp,Green.png,2,Negative,Incongruent,,,,,0,0,0,0,,,,,,,,,,,,,,,,,0,11,11,11,,,,,,,,,,,,,,,,,,,,,,,,,,,,,,,,,,,,,,,,,,,,,,,,,,,,,,,,,,,,,,,,,,,,,,,,,,,,,2,0.9125383000355214,268.69080689997645,None,ScrollUp,오답입니다,268.69080689997645,None,268.69080689997645,None,268.69080689997645,None,268.69080689997645,None,269.5164952999912,None,269.5164952999912,270.0185500999796,,,,,,,,,,,,,,,,112,2023-04-20_13h50.49.789,FishGame,2022.1.1,60.07326535282698,
,13,나를 보내줘,6,Green,A,0,0,ScrollUp,ScrollDown,Green.png,2,NonTarget,NonTarget,,,,,0,0,0,0,,,,,,,,,,,,,,,,,0,12,12,12,,,,,,,,,,,,,,,,,,,,,,,,,,,,,,,,,,,,,,,,,,,,,,,,,,,,,,,,,,,,,,,,,,,,,,,,,,,,,2,1.012515300011728,270.62682569999015,None,ScrollUp,정답입니다,270.62682569999015,None,270.62682569999015,None,270.62682569999015,None,270.62682569999015,None,271.5494707999751,None,271.5494707999751,272.04946339997696,,,,,,,,,,,,,,,,112,2023-04-20_13h50.49.789,FishGame,2022.1.1,60.07326535282698,
,14,넌 책임감있어,1,Orange,B,6.347826086956522,6,ScrollUp,ScrollDown,Orange.png,2,Positive,Incongruent,,,,,0,0,0,0,,,,,,,,,,,,,,,,,0,13,13,13,,,,,,,,,,,,,,,,,,,,,,,,,,,,,,,,,,,,,,,,,,,,,,,,,,,,,,,,,,,,,,,,,,,,,,,,,,,,,1.9891975224018097,0.9170861000311561,272.6554054999724,None,ScrollUp,정답입니다,272.6554054999724,None,272.6554054999724,None,272.6554054999724,None,272.6554054999724,None,273.4852772000013,None,273.4852772000013,273.98520689998986,,,,,,,,,,,,,,,,112,2023-04-20_13h50.49.789,FishGame,2022.1.1,60.07326535282698,
,15,넌 문학적이야,3,Green,A,4.708333333333334,4.333333333333333,ScrollDown,ScrollUp,Green.png,2,Neutral,Neutral,,,,,0,0,0,0,,,,,,,,,,,,,,,,,0,14,14,14,,,,,,,,,,,,,,,,,,,,,,,,,,,,,,,,,,,,,,,,,,,,,,,,,,,,,,,,,,,,,,,,,,,,,,,,,,,,,1,0.8483024999732152,274.59114789997693,None,ScrollDown,정답입니다,274.59114789997693,None,274.59114789997693,None,274.59114789997693,None,274.59114789997693,None,275.3518677999964,None,275.3518677999964,275.85171189997345,,,,,,,,,,,,,,,,112,2023-04-20_13h50.49.789,FishGame,2022.1.1,60.07326535282698,
,16,넌 재미있어,1,Orange,B,5.875,5.7,ScrollUp,ScrollDown,Orange.png,2,Positive,Incongruent,,,,,0,0,0,0,,,,,,,,,,,,,,,,,0,15,15,15,,,,,,,,,,,,,,,,,,,,,,,,,,,,,,,,,,,,,,,,,,,,,,,,,,,,,,,,,,,,,,,,,,,,,,,,,,,,,2,0.8965503000072204,276.4734976000036,None,ScrollUp,정답입니다,276.4734976000036,None,276.4734976000036,None,276.4734976000036,None,276.4734976000036,None,277.285142800014,None,277.285142800014,277.78506349999225,,,,,,,,,,,,,,,,112,2023-04-20_13h50.49.789,FishGame,2022.1.1,60.07326535282698,
,17,나를 데려가줘,6,Orange,B,0,0,ScrollDown,ScrollUp,Orange.png,2,NonTarget,NonTarget,,,,,0,0,0,0,,,,,,,,,,,,,,,,,0,16,16,16,,,,,,,,,,,,,,,,,,,,,,,,,,,,,,,,,,,,,,,,,,,,,,,,,,,,,,,,,,,,,,,,,,,,,,,,,,,,,1,0.9625026999856345,278.40498960000696,None,ScrollDown,정답입니다,278.40498960000696,None,278.40498960000696,None,278.40498960000696,None,278.40498960000696,None,279.28298229997745,None,279.28298229997745,279.784930099966,,,,,,,,,,,,,,,,112,2023-04-20_13h50.49.789,FishGame,2022.1.1,60.07326535282698,
,18,넌 협력적이야,1,Green,A,5.625,5.633333333333334,ScrollDown,ScrollUp,Green.png,2,Positive,Congruent,,,,,0,0,0,0,,,,,,,,,,,,,,,,,0,17,17,17,,,,,,,,,,,,,,,,,,,,,,,,,,,,,,,,,,,,,,,,,,,,,,,,,,,,,,,,,,,,,,,,,,,,,,,,,,,,,1,0.9149061999632977,280.39109420002205,None,ScrollDown,정답입니다,280.39109420002205,None,280.39109420002205,None,280.39109420002205,None,280.39109420002205,None,281.2183442999958,None,281.2183442999958,281.71829889999935,,,,,,,,,,,,,,,,112,2023-04-20_13h50.49.789,FishGame,2022.1.1,60.07326535282698,
,19,넌 평범해,3,Orange,B,4.333333333333332,4.233333333333333,ScrollUp,ScrollDown,Orange.png,2,Neutral,Neutral,,,,,0,0,0,0,,,,,,,,,,,,,,,,,0,18,18,18,,,,,,,,,,,,,,,,,,,,,,,,,,,,,,,,,,,,,,,,,,,,,,,,,,,,,,,,,,,,,,,,,,,,,,,,,,,,,2,0.9481934999930672,282.3282529999851,None,ScrollUp,정답입니다,282.3282529999851,None,282.3282529999851,None,282.3282529999851,None,282.3282529999851,None,283.1828166000196,None,283.1828166000196,283.6848063999787,,,,,,,,,,,,,,,,112,2023-04-20_13h50.49.789,FishGame,2022.1.1,60.07326535282698,
,20,넌 오만해,5,Green,A,2.333333333333333,2,ScrollDown,ScrollUp,Green.png,2,Negative,Incongruent,,,,,0,0,0,0,,,,,,,,,,,,,,,,,0,19,19,19,,,,,,,,,,,,,,,,,,,,,,,,,,,,,,,,,,,,,,,,,,,,,,,,,,,,,,,,,,,,,,,,,,,,,,,,,,,,,1,0.8963428999995813,284.2906825999962,None,ScrollDown,정답입니다,284.2906825999962,None,284.2906825999962,None,284.2906825999962,None,284.2906825999962,None,285.10169819998555,None,285.10169819998555,285.60151349997614,,,,,,,,,,,,,,,,112,2023-04-20_13h50.49.789,FishGame,2022.1.1,60.07326535282698,
,21,넌 운이없어,4,Orange,B,3,3.466666666666667,ScrollUp,ScrollDown,Orange.png,2,Negative,Congruent,,,,,0,0,0,0,,,,,,,,,,,,,,,,,0,20,20,20,,,,,,,,,,,,,,,,,,,,,,,,,,,,,,,,,,,,,,,,,,,,,,,,,,,,,,,,,,,,,,,,,,,,,,,,,,,,,2,1.2151121000060812,286.2094552000053,None,ScrollUp,정답입니다,286.2094552000053,None,286.2094552000053,None,286.2094552000053,None,286.2094552000053,None,287.3349313000217,None,287.3349313000217,287.83476200001314,,,,,,,,,,,,,,,,112,2023-04-20_13h50.49.789,FishGame,2022.1.1,60.07326535282698,
,22,넌 창조적이야,2,Orange,B,6.125,4.633333333333334,ScrollUp,ScrollDown,Orange.png,2,Positive,Incongruent,,,,,0,0,0,0,,,,,,,,,,,,,,,,,0,21,21,21,,,,,,,,,,,,,,,,,,,,,,,,,,,,,,,,,,,,,,,,,,,,,,,,,,,,,,,,,,,,,,,,,,,,,,,,,,,,,2,0.8795314999879338,288.440605700016,None,ScrollUp,정답입니다,288.440605700016,None,288.440605700016,None,288.440605700016,None,288.440605700016,None,289.23268229997484,None,289.23268229997484,289.73472539999057,,,,,,,,,,,,,,,,112,2023-04-20_13h50.49.789,FishGame,2022.1.1,60.07326535282698,
,23,나를 보내줘,6,Green,A,0,0,ScrollUp,ScrollDown,Green.png,2,NonTarget,NonTarget,,,,,0,0,0,0,,,,,,,,,,,,,,,,,0,22,22,22,,,,,,,,,,,,,,,,,,,,,,,,,,,,,,,,,,,,,,,,,,,,,,,,,,,,,,,,,,,,,,,,,,,,,,,,,,,,,1.9907407363255818,1.015136200003326,290.33730060001835,None,ScrollUp,정답입니다,290.33730060001835,None,290.33730060001835,None,290.33730060001835,None,290.33730060001835,None,291.266033199965,None,291.266033199965,291.76809049997246,,,,,,,,,,,,,,,,112,2023-04-20_13h50.49.789,FishGame,2022.1.1,60.07326535282698,
,24,넌 통찰력있어,2,Green,A,6.5,4.8,ScrollDown,ScrollUp,Green.png,2,Positive,Congruent,,,,,0,0,0,0,,,,,,,,,,,,,,,,,0,23,23,23,,,,,,,,,,,,,,,,,,,,,,,,,,,,,,,,,,,,,,,,,,,,,,,,,,,,,,,,,,,,,,,,,,,,,,,,,,,,,1,0.9625376999611035,292.3797557000071,None,ScrollDown,정답입니다,292.3797557000071,None,292.3797557000071,None,292.3797557000071,None,292.3797557000071,None,293.2490533000091,None,293.2490533000091,293.74900690000504,,,,,,,,,,,,,,,,112,2023-04-20_13h50.49.789,FishGame,2022.1.1,60.07326535282698,
,25,넌 경솔해,5,Orange,B,2.458333333333333,2.266666666666667,ScrollUp,ScrollDown,Orange.png,2,Negative,Congruent,,,,,0,0,0,0,,,,,,,,,,,,,,,,,0,24,24,24,,,,,,,,,,,,,,,,,,,,,,,,,,,,,,,,,,,,,,,,,,,,,,,,,,,,,,,,,,,,,,,,,,,,,,,,,,,,,2,0.9306167000322603,294.3528157999972,None,ScrollUp,정답입니다,294.3528157999972,None,294.3528157999972,None,294.3528157999972,None,294.3528157999972,None,295.19903339998564,None,295.19903339998564,295.7014197999961,,,,,,,,,,,,,,,,112,2023-04-20_13h50.49.789,FishGame,2022.1.1,60.07326535282698,
,26,넌 초조해,4,Green,A,2.916666666666667,3.133333333333333,ScrollDown,ScrollUp,Green.png,2,Negative,Incongruent,,,,,0,0,0,0,,,,,,,,,,,,,,,,,0,25,25,25,,,,,,,,,,,,,,,,,,,,,,,,,,,,,,,,,,,,,,,,,,,,,,,,,,,,,,,,,,,,,,,,,,,,,,,,,,,,,1.080246905485789,0.7650457000127062,296.3053647999768,None,ScrollDown,정답입니다,296.3053647999768,None,296.3053647999768,None,296.3053647999768,None,296.3053647999768,None,296.9847876999993,None,296.9847876999993,297.48476580000715,,,,,,,,,,,,,,,,112,2023-04-20_13h50.49.789,FishGame,2022.1.1,60.07326535282698,
,27,넌 무관심해,4,Orange,B,2.833333333333333,2.9,ScrollUp,ScrollDown,Orange.png,2,Negative,Congruent,,,,,0,0,0,0,,,,,,,,,,,,,,,,,0,26,26,26,,,,,,,,,,,,,,,,,,,,,,,,,,,,,,,,,,,,,,,,,,,,,,,,,,,,,,,,,,,,,,,,,,,,,,,,,,,,,2,0.8631927000242285,298.0929993999889,None,ScrollUp,정답입니다,298.0929993999889,None,298.0929993999889,None,298.0929993999889,None,298.0929993999889,None,298.86792859999696,None,298.86792859999696,299.36787640000694,,,,,,,,,,,,,,,,112,2023-04-20_13h50.49.789,FishGame,2022.1.1,60.07326535282698,
,28,넌 감성적이야,3,Orange,B,4.125,4.166666666666667,ScrollUp,ScrollDown,Orange.png,2,Neutral,Neutral,,,,,0,0,0,0,,,,,,,,,,,,,,,,,0,27,27,27,,,,,,,,,,,,,,,,,,,,,,,,,,,,,,,,,,,,,,,,,,,,,,,,,,,,,,,,,,,,,,,,,,,,,,,,,,,,,1.7283950646718345,0.7147025999729522,299.9718164000078,None,ScrollUp,정답입니다,299.9718164000078,None,299.9718164000078,None,299.9718164000078,None,299.9718164000078,None,300.60127859999193,None,300.60127859999193,301.1012310999795,,,,,,,,,,,,,,,,112,2023-04-20_13h50.49.789,FishGame,2022.1.1,60.07326535282698,
,29,넌 배려심있어,1,Green,A,6.083333333333333,5.5,ScrollDown,ScrollUp,Green.png,2,Positive,Congruent,,,,,0,0,0,0,,,,,,,,,,,,,,,,,0,28,28,28,,,,,,,,,,,,,,,,,,,,,,,,,,,,,,,,,,,,,,,,,,,,,,,,,,,,,,,,,,,,,,,,,,,,,,,,,,,,,1.0138889054457347,0.7764935999875888,301.7100302000181,None,ScrollDown,정답입니다,301.7100302000181,None,301.7100302000181,None,301.7100302000181,None,301.7100302000181,None,302.3992007999914,None,302.3992007999914,302.8990909999702,,,,,,,,,,,,,,,,112,2023-04-20_13h50.49.789,FishGame,2022.1.1,60.07326535282698,
,30,넌 숨김없어,3,Green,A,4.5,4.933333333333334,ScrollDown,ScrollUp,Green.png,2,Neutral,Neutral,,,,,0,0,0,0,,,,,,,,,,,,,,,,,0,29,29,29,,,,,,,,,,,,,,,,,,,,,,,,,,,,,,,,,,,,,,,,,,,,,,,,,,,,,,,,,,,,,,,,,,,,,,,,,,,,,1,1.1460934999631718,303.504732100002,None,ScrollDown,정답입니다,303.504732100002,None,303.504732100002,None,303.504732100002,None,303.504732100002,None,304.5678450000123,None,304.5678450000123,305.07101459999103,,,,,,,,,,,,,,,,112,2023-04-20_13h50.49.789,FishGame,2022.1.1,60.07326535282698,
,31,넌 훌륭해,2,Orange,B,5.916666666666667,4.033333333333333,ScrollUp,ScrollDown,Orange.png,2,Positive,Incongruent,,,,,0,0,0,0,,,,,,,,,,,,,,,,,0,30,30,30,,,,,,,,,,,,,,,,,,,,,,,,,,,,,,,,,,,,,,,,,,,,,,,,,,,,,,,,,,,,,,,,,,,,,,,,,,,,,2,0.8462989000254311,305.67444610001985,None,ScrollUp,정답입니다,305.67444610001985,None,305.67444610001985,None,305.67444610001985,None,305.67444610001985,None,306.4323285999708,None,306.4323285999708,306.93437239999184,,,,,,,,,,,,,,,,112,2023-04-20_13h50.49.789,FishGame,2022.1.1,60.07326535282698,
,32,넌 슬기로워,2,Green,A,6.166666666666667,4.1,ScrollDown,ScrollUp,Green.png,2,Positive,Congruent,,,,,0,0,0,0,,,,,,,,,,,,,,,,,0,31,31,31,,,,,,,,,,,,,,,,,,,,,,,,,,,,,,,,,,,,,,,,,,,,,,,,,,,,,,,,,,,,,,,,,,,,,,,,,,,,,1,0.8631439000018872,307.53949369996553,None,ScrollDown,정답입니다,307.53949369996553,None,307.53949369996553,None,307.53949369996553,None,307.53949369996553,None,308.31772479997016,None,308.31772479997016,308.81770830001915,,,,,,,,,,,,,,,,112,2023-04-20_13h50.49.789,FishGame,2022.1.1,60.07326535282698,
,33,넌 냉혹해,5,Green,A,2.583333333333333,2.1,ScrollDown,ScrollUp,Green.png,2,Negative,Incongruent,,,,,0,0,0,0,,,,,,,,,,,,,,,,,0,32,32,32,,,,,,,,,,,,,,,,,,,,,,,,,,,,,,,,,,,,,,,,,,,,,,,,,,,,,,,,,,,,,,,,,,,,,,,,,,,,,1.1049382785956066,0.9627589000156149,309.4254244000185,None,ScrollDown,정답입니다,309.4254244000185,None,309.4254244000185,None,309.4254244000185,None,309.4254244000185,None,310.29891409998527,None,310.29891409998527,310.80091769999126,,,,,,,,,,,,,,,,112,2023-04-20_13h50.49.789,FishGame,2022.1.1,60.07326535282698,
,34,나를 데려가줘,6,Orange,B,0,0,ScrollDown,ScrollUp,Orange.png,2,NonTarget,NonTarget,,,,,0,0,0,0,,,,,,,,,,,,,,,,,0,33,33,33,,,,,,,,,,,,,,,,,,,,,,,,,,,,,,,,,,,,,,,,,,,,,,,,,,,,,,,,,,,,,,,,,,,,,,,,,,,,,1,0.8484314000234008,311.4043826999841,None,ScrollDown,정답입니다,311.4043826999841,None,311.4043826999841,None,311.4043826999841,None,311.4043826999841,None,312.167695000011,None,312.167695000011,312.6676458999864,,,,,,,,,,,,,,,,112,2023-04-20_13h50.49.789,FishGame,2022.1.1,60.07326535282698,
,35,넌 편파적이야,5,Orange,B,2.125,2,ScrollUp,ScrollDown,Orange.png,2,Negative,Congruent,,,,,0,0,0,0,,,,,,,,,,,,,,,,,0,34,34,34,,,,,,,,,,,,,,,,,,,,,,,,,,,,,,,,,,,,,,,,,,,,,,,,,,,,,,,,,,,,,,,,,,,,,,,,,,,,,1.859567900498708,1.0987626999849454,313.27846830000635,None,ScrollUp,정답입니다,313.27846830000635,None,313.27846830000635,None,313.27846830000635,None,313.27846830000635,None,314.28437299997313,None,314.28437299997313,314.78419390000636,,,,,,,,,,,,,,,,112,2023-04-20_13h50.49.789,FishGame,2022.1.1,60.07326535282698,
,36,넌 슬퍼,4,Green,A,2.583333333333333,3.066666666666667,ScrollDown,ScrollUp,Green.png,2,Negative,Incongruent,,,,,0,0,0,0,,,,,,,,,,,,,,,,,0,35,35,35,,,,,,,,,,,,,,,,,,,,,,,,,,,,,,,,,,,,,,,,,,,,,,,,,,,,,,,,,,,,,,,,,,,,,,,,,,,,,1.1172839403152466,0.8463039000052959,315.38535589998355,None,ScrollDown,정답입니다,315.38535589998355,None,315.38535589998355,None,315.38535589998355,None,315.38535589998355,None,316.1487958999933,None,316.1487958999933,316.6508585999836,,,,,,,,,,,,,,,,112,2023-04-20_13h50.49.789,FishGame,2022.1.1,60.07326535282698,
,37,나를 데려가줘,6,Orange,B,0,0,ScrollDown,ScrollUp,Orange.png,2,NonTarget,NonTarget,,,,,0,0,0,0,,,,,,,,,,,,,,,,,0,36,36,36,,,,,,,,,,,,,,,,,,,,,,,,,,,,,,,,,,,,,,,,,,,,,,,,,,,,,,,,,,,,,,,,,,,,,,,,,,,,,1,0.912982199981343,317.25749699998414,None,ScrollDown,정답입니다,317.25749699998414,None,317.25749699998414,None,317.25749699998414,None,317.25749699998414,None,318.0841685999767,None,318.0841685999767,318.58419039996807,,,,,,,,,,,,,,,,112,2023-04-20_13h50.49.789,FishGame,2022.1.1,60.07326535282698,
,38,넌 친절해,1,Orange,B,6.041666666666667,5.533333333333333,ScrollUp,ScrollDown,Orange.png,2,Positive,Incongruent,,,,,0,0,0,0,,,,,,,,,,,,,,,,,0,37,37,37,,,,,,,,,,,,,,,,,,,,,,,,,,,,,,,,,,,,,,,,,,,,,,,,,,,,,,,,,,,,,,,,,,,,,,,,,,,,,1.8148148208856583,0.9317601000075229,319.1979658000055,None,ScrollUp,정답입니다,319.1979658000055,None,319.1979658000055,None,319.1979658000055,None,319.1979658000055,None,320.034132700006,None,320.034132700006,320.53407180000795,,,,,,,,,,,,,,,,112,2023-04-20_13h50.49.789,FishGame,2022.1.1,60.07326535282698,
,1,넌 엉성해,4,Green,A,3,3.3,ScrollDown,ScrollUp,Green.png,3,Negative,Incongruent,,,,,0,0,0,0,,,,,,,,,,,,,,,,,,,,,0,0,0,0,,,,,,,,,,,,,,,,,,,,,,,,,,,,,,,,353.70023720001336,355.2002499999944,355.23360029998,356.18661560001783,356.2365916999988,357.2002443000092,357.1835880000144,None,,,,,,,,,,,,,,,,,,,,,,,,,,,,,,,,,,1.0046296219031017,1.136501299974043,358.2684863000177,None,ScrollDown,정답입니다,358.2684863000177,None,358.2684863000177,None,358.2684863000177,None,358.2684863000177,None,359.3143625999801,None,359.3143625999801,359.8143166999798,321.0340931999963,None,321.0340931999963,None,0.018518519,-0.07962963,1,0,0,0.01619301998289302,None,351.0333857999649,None,,,112,2023-04-20_13h50.49.789,FishGame,2022.1.1,60.07326535282698,
,2,나를 보내줘,6,Green,A,0,0,ScrollUp,ScrollDown,Green.png,3,NonTarget,NonTarget,,,,,0,0,0,0,,,,,,,,,,,,,,,,,,,,,0,1,1,1,,,,,,,,,,,,,,,,,,,,,,,,,,,,,,,,,,,,,,,,,,,,,,,,,,,,,,,,,,,,,,,,,,,,,,,,,1.89969136317571,0.8335194999817759,360.41586700000335,None,ScrollUp,정답입니다,360.41586700000335,None,360.41586700000335,None,360.41586700000335,None,360.41586700000335,None,361.1668103999691,None,361.1668103999691,361.66672420001123,,,,,,,,,,,,,,,,112,2023-04-20_13h50.49.789,FishGame,2022.1.1,60.07326535282698,
,3,넌 활발해,1,Orange,B,5.666666666666667,5.6,ScrollUp,ScrollDown,Orange.png,3,Positive,Incongruent,,,,,0,0,0,0,,,,,,,,,,,,,,,,,,,,,0,2,2,2,,,,,,,,,,,,,,,,,,,,,,,,,,,,,,,,,,,,,,,,,,,,,,,,,,,,,,,,,,,,,,,,,,,,,,,,,2,0.9729055000352673,362.27531930000987,None,ScrollUp,정답입니다,362.27531930000987,None,362.27531930000987,None,362.27531930000987,None,362.27531930000987,None,363.15974889998324,None,363.15974889998324,363.66657120001037,,,,,,,,,,,,,,,,112,2023-04-20_13h50.49.789,FishGame,2022.1.1,60.07326535282698,
,4,넌 논리적이야,2,Green,A,5.666666666666666,4.633333333333334,ScrollDown,ScrollUp,Green.png,3,Positive,Congruent,,,,,0,0,0,0,,,,,,,,,,,,,,,,,,,,,0,3,3,3,,,,,,,,,,,,,,,,,,,,,,,,,,,,,,,,,,,,,,,,,,,,,,,,,,,,,,,,,,,,,,,,,,,,,,,,,1,0.7820112999761477,364.2736509999959,None,ScrollDown,정답입니다,364.2736509999959,None,364.2736509999959,None,364.2736509999959,None,364.2736509999959,None,364.9644895999809,None,364.9644895999809,365.46657009999035,,,,,,,,,,,,,,,,112,2023-04-20_13h50.49.789,FishGame,2022.1.1,60.07326535282698,
,5,넌 과묵해,3,Green,A,3.875,4.4,ScrollDown,ScrollUp,Green.png,3,Neutral,Neutral,,,,,0,0,0,0,,,,,,,,,,,,,,,,,,,,,0,4,4,4,,,,,,,,,,,,,,,,,,,,,,,,,,,,,,,,,,,,,,,,,,,,,,,,,,,,,,,,,,,,,,,,,,,,,,,,,1.0262345671653748,1.079408699995838,366.0717628999846,None,ScrollDown,정답입니다,366.0717628999846,None,366.0717628999846,None,366.0717628999846,None,366.0717628999846,None,367.06419940001797,None,367.06419940001797,367.5641695999657,,,,,,,,,,,,,,,,112,2023-04-20_13h50.49.789,FishGame,2022.1.1,60.07326535282698,
,6,나를 데려가줘,6,Orange,B,0,0,ScrollDown,ScrollUp,Orange.png,3,NonTarget,NonTarget,,,,,0,0,0,0,,,,,,,,,,,,,,,,,,,,,0,5,5,5,,,,,,,,,,,,,,,,,,,,,,,,,,,,,,,,,,,,,,,,,,,,,,,,,,,,,,,,,,,,,,,,,,,,,,,,,1,0.8655107999802567,368.17078019998735,None,ScrollDown,정답입니다,368.17078019998735,None,368.17078019998735,None,368.17078019998735,None,368.17078019998735,None,368.9500287999981,None,368.9500287999981,369.4499751999974,,,,,,,,,,,,,,,,112,2023-04-20_13h50.49.789,FishGame,2022.1.1,60.07326535282698,
,7,넌 미숙해,4,Orange,B,3,3,ScrollUp,ScrollDown,Orange.png,3,Negative,Congruent,,,,,0,0,0,0,,,,,,,,,,,,,,,,,,,,,0,6,6,6,,,,,,,,,,,,,,,,,,,,,,,,,,,,,,,,,,,,,,,,,,,,,,,,,,,,,,,,,,,,,,,,,,,,,,,,,1.9629629850387573,0.9131383000058122,370.05284289998235,None,ScrollUp,정답입니다,370.05284289998235,None,370.05284289998235,None,370.05284289998235,None,370.05284289998235,None,370.88343430001987,None,370.88343430001987,371.3832101000007,,,,,,,,,,,,,,,,112,2023-04-20_13h50.49.789,FishGame,2022.1.1,60.07326535282698,
,8,나를 보내줘,6,Green,A,0,0,ScrollUp,ScrollDown,Green.png,3,NonTarget,NonTarget,,,,,0,0,0,0,,,,,,,,,,,,,,,,,,,,,0,7,7,7,,,,,,,,,,,,,,,,,,,,,,,,,,,,,,,,,,,,,,,,,,,,,,,,,,,,,,,,,,,,,,,,,,,,,,,,,1.9691357910633087,0.9140893999719992,371.9858146000188,None,ScrollUp,정답입니다,371.9858146000188,None,371.9858146000188,None,371.9858146000188,None,371.9858146000188,None,372.81637660000706,None,372.81637660000706,373.3163789999671,,,,,,,,,,,,,,,,112,2023-04-20_13h50.49.789,FishGame,2022.1.1,60.07326535282698,
,9,넌 자신만만해,3,Orange,B,4.833333333333334,4.333333333333333,ScrollUp,ScrollDown,Orange.png,3,Neutral,Neutral,,,,,0,0,0,0,,,,,,,,,,,,,,,,,,,,,0,8,8,8,,,,,,,,,,,,,,,,,,,,,,,,,,,,,,,,,,,,,,,,,,,,,,,,,,,,,,,,,,,,,,,,,,,,,,,,,2,1.079586100007873,373.9212007999886,None,ScrollUp,정답입니다,373.9212007999886,None,373.9212007999886,None,373.9212007999886,None,373.9212007999886,None,374.9163237999892,None,374.9163237999892,375.4162862999947,,,,,,,,,,,,,,,,112,2023-04-20_13h50.49.789,FishGame,2022.1.1,60.07326535282698,
,10,넌 탐욕스러워,5,Green,A,2.25,2.1,ScrollDown,ScrollUp,Green.png,3,Negative,Incongruent,,,,,0,0,0,0,,,,,,,,,,,,,,,,,,,,,0,9,9,9,,,,,,,,,,,,,,,,,,,,,,,,,,,,,,,,,,,,,,,,,,,,,,,,,,,,,,,,,,,,,,,,,,,,,,,,,1.0185184975465138,0.8295784999500029,376.021513100015,None,ScrollDown,정답입니다,376.021513100015,None,376.021513100015,None,376.021513100015,None,376.021513100015,None,376.76634259999264,None,376.76634259999264,377.26681419997476,,,,,,,,,,,,,,,,112,2023-04-20_13h50.49.789,FishGame,2022.1.1,60.07326535282698,
,11,넌 인기있어,2,Green,A,5.458333333333333,4.5,ScrollDown,ScrollUp,Green.png,3,Positive,Congruent,,,,,0,0,0,0,,,,,,,,,,,,,,,,,,,,,0,10,10,10,,,,,,,,,,,,,,,,,,,,,,,,,,,,,,,,,,,,,,,,,,,,,,,,,,,,,,,,,,,,,,,,,,,,,,,,,1,0.9149929000413977,377.86969490000047,None,ScrollDown,정답입니다,377.86969490000047,None,377.86969490000047,None,377.86969490000047,None,377.86969490000047,None,378.6998368999921,None,378.6998368999921,379.19955159997335,,,,,,,,,,,,,,,,112,2023-04-20_13h50.49.789,FishGame,2022.1.1,60.07326535282698,
,12,나를 데려가줘,6,Orange,B,0,0,ScrollDown,ScrollUp,Orange.png,3,NonTarget,NonTarget,,,,,0,0,0,0,,,,,,,,,,,,,,,,,,,,,0,11,11,11,,,,,,,,,,,,,,,,,,,,,,,,,,,,,,,,,,,,,,,,,,,,,,,,,,,,,,,,,,,,,,,,,,,,,,,,,1,0.9462898999918252,379.8011615999858,None,ScrollDown,정답입니다,379.8011615999858,None,379.8011615999858,None,379.8011615999858,None,379.8011615999858,None,380.66415029997006,None,380.66415029997006,381.1661552999867,,,,,,,,,,,,,,,,112,2023-04-20_13h50.49.789,FishGame,2022.1.1,60.07326535282698,
,13,넌 뛰어나,2,Orange,B,6.166666666666667,4,ScrollUp,ScrollDown,Orange.png,3,Positive,Incongruent,,,,,0,0,0,0,,,,,,,,,,,,,,,,,,,,,0,12,12,12,,,,,,,,,,,,,,,,,,,,,,,,,,,,,,,,,,,,,,,,,,,,,,,,,,,,,,,,,,,,,,,,,,,,,,,,,2,1.1149054000270553,381.7709956999752,None,ScrollUp,정답입니다,381.7709956999752,None,381.7709956999752,None,381.7709956999752,None,381.7709956999752,None,382.7974949000054,None,382.7974949000054,383.29956539999694,,,,,,,,,,,,,,,,112,2023-04-20_13h50.49.789,FishGame,2022.1.1,60.07326535282698,
,14,넌 낙관적이야,1,Green,A,5.75,5.8,ScrollDown,ScrollUp,Green.png,3,Positive,Congruent,,,,,0,0,0,0,,,,,,,,,,,,,,,,,,,,,0,13,13,13,,,,,,,,,,,,,,,,,,,,,,,,,,,,,,,,,,,,,,,,,,,,,,,,,,,,,,,,,,,,,,,,,,,,,,,,,1,0.913065499975346,383.91002130002016,None,ScrollDown,정답입니다,383.91002130002016,None,383.91002130002016,None,383.91002130002016,None,383.91002130002016,None,384.7328445999883,None,384.7328445999883,385.23279149999144,,,,,,,,,,,,,,,,112,2023-04-20_13h50.49.789,FishGame,2022.1.1,60.07326535282698,
,15,넌 산만해,4,Orange,B,2.695652173913043,3.033333333333333,ScrollUp,ScrollDown,Orange.png,3,Negative,Congruent,,,,,0,0,0,0,,,,,,,,,,,,,,,,,,,,,0,14,14,14,,,,,,,,,,,,,,,,,,,,,,,,,,,,,,,,,,,,,,,,,,,,,,,,,,,,,,,,,,,,,,,,,,,,,,,,,2,0.8652852000086568,385.83760510000866,None,ScrollUp,정답입니다,385.83760510000866,None,385.83760510000866,None,385.83760510000866,None,385.83760510000866,None,386.61615189997246,None,386.61615189997246,387.1160076999804,,,,,,,,,,,,,,,,112,2023-04-20_13h50.49.789,FishGame,2022.1.1,60.07326535282698,
,16,나를 보내줘,6,Green,A,0,0,ScrollUp,ScrollDown,Green.png,3,NonTarget,NonTarget,,,,,0,0,0,0,,,,,,,,,,,,,,,,,,,,,0,15,15,15,,,,,,,,,,,,,,,,,,,,,,,,,,,,,,,,,,,,,,,,,,,,,,,,,,,,,,,,,,,,,,,,,,,,,,,,,2,1.1960752000450157,387.7185496999882,None,ScrollUp,정답입니다,387.7185496999882,None,387.7185496999882,None,387.7185496999882,None,387.7185496999882,None,388.83267480001086,None,388.83267480001086,389.3326745000086,,,,,,,,,,,,,,,,112,2023-04-20_13h50.49.789,FishGame,2022.1.1,60.07326535282698,
,17,넌 교활해,5,Orange,B,2.333333333333333,2.133333333333333,ScrollUp,ScrollDown,Orange.png,3,Negative,Congruent,,,,,0,0,0,0,,,,,,,,,,,,,,,,,,,,,0,16,16,16,,,,,,,,,,,,,,,,,,,,,,,,,,,,,,,,,,,,,,,,,,,,,,,,,,,,,,,,,,,,,,,,,,,,,,,,,2,1.1650495000067167,389.93608770001447,None,ScrollUp,정답입니다,389.93608770001447,None,389.93608770001447,None,389.93608770001447,None,389.93608770001447,None,391.016093800019,None,391.016093800019,391.5160234000068,,,,,,,,,,,,,,,,112,2023-04-20_13h50.49.789,FishGame,2022.1.1,60.07326535282698,
,18,나를 보내줘,6,Green,A,0,0,ScrollUp,ScrollDown,Green.png,3,NonTarget,NonTarget,,,,,0,0,0,0,,,,,,,,,,,,,,,,,,,,,0,17,17,17,,,,,,,,,,,,,,,,,,,,,,,,,,,,,,,,,,,,,,,,,,,,,,,,,,,,,,,,,,,,,,,,,,,,,,,,,2,0.9313841999974102,392.12432329996955,None,ScrollUp,정답입니다,392.12432329996955,None,392.12432329996955,None,392.12432329996955,None,392.12432329996955,None,392.9659365999978,None,392.9659365999978,393.46591420000186,,,,,,,,,,,,,,,,112,2023-04-20_13h50.49.789,FishGame,2022.1.1,60.07326535282698,
,19,넌 불친절해,5,Orange,B,2.208333333333333,2.033333333333333,ScrollUp,ScrollDown,Orange.png,3,Negative,Congruent,,,,,0,0,0,0,,,,,,,,,,,,,,,,,,,,,0,18,18,18,,,,,,,,,,,,,,,,,,,,,,,,,,,,,,,,,,,,,,,,,,,,,,,,,,,,,,,,,,,,,,,,,,,,,,,,,2,1.1818052999442443,394.07346569997026,None,ScrollUp,정답입니다,394.07346569997026,None,394.07346569997026,None,394.07346569997026,None,394.07346569997026,None,395.1638956000097,None,395.1638956000097,395.6659525000141,,,,,,,,,,,,,,,,112,2023-04-20_13h50.49.789,FishGame,2022.1.1,60.07326535282698,
,20,넌 지적이야,2,Orange,B,5.75,4.366666666666666,ScrollUp,ScrollDown,Orange.png,3,Positive,Incongruent,,,,,0,0,0,0,,,,,,,,,,,,,,,,,,,,,0,19,19,19,,,,,,,,,,,,,,,,,,,,,,,,,,,,,,,,,,,,,,,,,,,,,,,,,,,,,,,,,,,,,,,,,,,,,,,,,1.9537037014961243,0.9877395000075921,396.26820360001875,None,ScrollUp,정답입니다,396.26820360001875,None,396.26820360001875,None,396.26820360001875,None,396.26820360001875,None,397.16356249997625,None,397.16356249997625,397.6635483999853,,,,,,,,,,,,,,,,112,2023-04-20_13h50.49.789,FishGame,2022.1.1,60.07326535282698,
,21,넌 우유부단해,4,Green,A,2.666666666666667,3.166666666666667,ScrollDown,ScrollUp,Green.png,3,Negative,Incongruent,,,,,0,0,0,0,,,,,,,,,,,,,,,,,,,,,0,20,20,20,,,,,,,,,,,,,,,,,,,,,,,,,,,,,,,,,,,,,,,,,,,,,,,,,,,,,,,,,,,,,,,,,,,,,,,,,1,0.8295732000260614,398.26991899998393,None,ScrollDown,정답입니다,398.26991899998393,None,398.26991899998393,None,398.26991899998393,None,398.26991899998393,None,399.01360810000915,None,399.01360810000915,399.51357840001583,,,,,,,,,,,,,,,,112,2023-04-20_13h50.49.789,FishGame,2022.1.1,60.07326535282698,
,22,나를 데려가줘,6,Orange,B,0,0,ScrollDown,ScrollUp,Orange.png,3,NonTarget,NonTarget,,,,,0,0,0,0,,,,,,,,,,,,,,,,,,,,,0,21,21,21,,,,,,,,,,,,,,,,,,,,,,,,,,,,,,,,,,,,,,,,,,,,,,,,,,,,,,,,,,,,,,,,,,,,,,,,,1.0447530845801036,0.9317536000162363,400.12382269999944,None,ScrollDown,정답입니다,400.12382269999944,None,400.12382269999944,None,400.12382269999944,None,400.12382269999944,None,400.9660118999891,None,400.9660118999891,401.46593750000466,,,,,,,,,,,,,,,,112,2023-04-20_13h50.49.789,FishGame,2022.1.1,60.07326535282698,
,23,넌 성실해,1,Orange,B,6.041666666666666,5.7,ScrollUp,ScrollDown,Orange.png,3,Positive,Incongruent,,,,,0,0,0,0,,,,,,,,,,,,,,,,,,,,,0,22,22,22,,,,,,,,,,,,,,,,,,,,,,,,,,,,,,,,,,,,,,,,,,,,,,,,,,,,,,,,,,,,,,,,,,,,,,,,,1.9737654328346252,0.933950700040441,402.0693629999878,None,ScrollUp,정답입니다,402.0693629999878,None,402.0693629999878,None,402.0693629999878,None,402.0693629999878,None,402.9158532000147,None,402.9158532000147,403.4157766000135,,,,,,,,,,,,,,,,112,2023-04-20_13h50.49.789,FishGame,2022.1.1,60.07326535282698,
,24,넌 현실주의적이야,3,Green,A,4.625,4.4,ScrollDown,ScrollUp,Green.png,3,Neutral,Neutral,,,,,0,0,0,0,,,,,,,,,,,,,,,,,,,,,0,23,23,23,,,,,,,,,,,,,,,,,,,,,,,,,,,,,,,,,,,,,,,,,,,,,,,,,,,,,,,,,,,,,,,,,,,,,,,,,1,0.8962637000367977,404.02115360001335,None,ScrollDown,정답입니다,404.02115360001335,None,404.02115360001335,None,404.02115360001335,None,404.02115360001335,None,404.83246369997505,None,404.83246369997505,405.3356499999645,,,,,,,,,,,,,,,,112,2023-04-20_13h50.49.789,FishGame,2022.1.1,60.07326535282698,
,25,넌 진실돼,1,Green,A,6.625,5.566666666666666,ScrollDown,ScrollUp,Green.png,3,Positive,Congruent,,,,,0,0,0,0,,,,,,,,,,,,,,,,,,,,,0,24,24,24,,,,,,,,,,,,,,,,,,,,,,,,,,,,,,,,,,,,,,,,,,,,,,,,,,,,,,,,,,,,,,,,,,,,,,,,,1.121913582086563,1.1299347000312991,405.9376392000122,None,ScrollDown,정답입니다,405.9376392000122,None,405.9376392000122,None,405.9376392000122,None,405.9376392000122,None,406.9823280000128,None,406.9823280000128,407.48236219998216,,,,,,,,,,,,,,,,112,2023-04-20_13h50.49.789,FishGame,2022.1.1,60.07326535282698,
,26,넌 천진난만해,3,Orange,B,4.958333333333334,4.833333333333333,ScrollUp,ScrollDown,Orange.png,3,Neutral,Neutral,,,,,0,0,0,0,,,,,,,,,,,,,,,,,,,,,0,25,25,25,,,,,,,,,,,,,,,,,,,,,,,,,,,,,,,,,,,,,,,,,,,,,,,,,,,,,,,,,,,,,,,,,,,,,,,,,1.7067901194095612,0.8820871000061743,408.0934870999772,None,ScrollUp,정답입니다,408.0934870999772,None,408.0934870999772,None,408.0934870999772,None,408.0934870999772,None,408.88030660001095,None,408.88030660001095,409.3823031000211,,,,,,,,,,,,,,,,112,2023-04-20_13h50.49.789,FishGame,2022.1.1,60.07326535282698,
,27,넌 교양없어,5,Green,A,2.416666666666667,2.2,ScrollDown,ScrollUp,Green.png,3,Negative,Incongruent,,,,,0,0,0,0,,,,,,,,,,,,,,,,,,,,,0,26,26,26,,,,,,,,,,,,,,,,,,,,,,,,,,,,,,,,,,,,,,,,,,,,,,,,,,,,,,,,,,,,,,,,,,,,,,,,,1,1.0096188000170514,409.9970005999785,None,ScrollDown,정답입니다,409.9970005999785,None,409.9970005999785,None,409.9970005999785,None,409.9970005999785,None,410.9133062000037,None,410.9133062000037,411.41327479999745,,,,,,,,,,,,,,,,112,2023-04-20_13h50.49.789,FishGame,2022.1.1,60.07326535282698,
,28,나를 보내줘,6,Green,A,0,0,ScrollUp,ScrollDown,Green.png,3,NonTarget,NonTarget,,,,,0,0,0,0,,,,,,,,,,,,,,,,,,,,,0,27,27,27,,,,,,,,,,,,,,,,,,,,,,,,,,,,,,,,,,,,,,,,,,,,,,,,,,,,,,,,,,,,,,,,,,,,,,,,,1.9660493632157643,1.4819207999971695,412.01657310000155,None,ScrollUp,정답입니다,412.01657310000155,None,412.01657310000155,None,412.01657310000155,None,412.01657310000155,None,413.41571329999715,None,413.41571329999715,413.9156942999689,,,,,,,,,,,,,,,,112,2023-04-20_13h50.49.789,FishGame,2022.1.1,60.07326535282698,
,29,넌 엉뚱스러워,3,Green,A,4.166666666666667,4.133333333333334,ScrollDown,ScrollUp,Green.png,3,Neutral,Neutral,,,,,0,0,0,0,,,,,,,,,,,,,,,,,,,,,0,28,28,28,,,,,,,,,,,,,,,,,,,,,,,,,,,,,,,,,,,,,,,,,,,,,,,,,,,,,,,,,,,,,,,,,,,,,,,,,1.0277777810891469,1.0150396999670193,414.51931709999917,None,ScrollDown,정답입니다,414.51931709999917,None,414.51931709999917,None,414.51931709999917,None,414.51931709999917,None,415.44879509997554,None,415.44879509997554,415.94883930002106,,,,,,,,,,,,,,,,112,2023-04-20_13h50.49.789,FishGame,2022.1.1,60.07326535282698,
,30,넌 무지해,4,Orange,B,2.541666666666667,3.066666666666667,ScrollUp,ScrollDown,Orange.png,3,Negative,Congruent,,,,,0,0,0,0,,,,,,,,,,,,,,,,,,,,,0,29,29,29,,,,,,,,,,,,,,,,,,,,,,,,,,,,,,,,,,,,,,,,,,,,,,,,,,,,,,,,,,,,,,,,,,,,,,,,,1.8348765522241592,0.964779100031592,416.55375670001376,None,ScrollUp,정답입니다,416.55375670001376,None,416.55375670001376,None,416.55375670001376,None,416.55375670001376,None,417.43230539996875,None,417.43230539996875,417.93218509998405,,,,,,,,,,,,,,,,112,2023-04-20_13h50.49.789,FishGame,2022.1.1,60.07326535282698,
,31,넌 음울해,5,Orange,B,2.25,2.233333333333333,ScrollUp,ScrollDown,Orange.png,3,Negative,Congruent,,,,,0,0,0,0,,,,,,,,,,,,,,,,,,,,,0,30,30,30,,,,,,,,,,,,,,,,,,,,,,,,,,,,,,,,,,,,,,,,,,,,,,,,,,,,,,,,,,,,,,,,,,,,,,,,,1.7978395173947017,0.8619803000474349,418.53984839998884,None,ScrollUp,정답입니다,418.53984839998884,None,418.53984839998884,None,418.53984839998884,None,418.53984839998884,None,419.3133654000121,None,419.3133654000121,419.81539760000305,,,,,,,,,,,,,,,,112,2023-04-20_13h50.49.789,FishGame,2022.1.1,60.07326535282698,
,32,넌 냉소적이야,5,Green,A,2.916666666666667,2.4,ScrollDown,ScrollUp,Green.png,3,Negative,Incongruent,,,,,0,0,0,0,,,,,,,,,,,,,,,,,,,,,0,31,31,31,,,,,,,,,,,,,,,,,,,,,,,,,,,,,,,,,,,,,,,,,,,,,,,,,,,,,,,,,,,,,,,,,,,,,,,,,1,0.7316868999623694,420.41659380000783,None,ScrollDown,정답입니다,420.41659380000783,None,420.41659380000783,None,420.41659380000783,None,420.41659380000783,None,421.06550470000366,None,421.06550470000366,421.5653471999685,,,,,,,,,,,,,,,,112,2023-04-20_13h50.49.789,FishGame,2022.1.1,60.07326535282698,
,33,나를 데려가줘,6,Orange,B,0,0,ScrollDown,ScrollUp,Orange.png,3,NonTarget,NonTarget,,,,,0,0,0,0,,,,,,,,,,,,,,,,,,,,,0,32,32,32,,,,,,,,,,,,,,,,,,,,,,,,,,,,,,,,,,,,,,,,,,,,,,,,,,,,,,,,,,,,,,,,,,,,,,,,,1,0.9464923000195995,422.170409000013,None,ScrollDown,정답입니다,422.170409000013,None,422.170409000013,None,422.170409000013,None,422.170409000013,None,423.0319775000098,None,423.0319775000098,423.53197090001777,,,,,,,,,,,,,,,,112,2023-04-20_13h50.49.789,FishGame,2022.1.1,60.07326535282698,
,34,넌 쾌활해,1,Green,A,5.541666666666666,5.733333333333333,ScrollDown,ScrollUp,Green.png,3,Positive,Congruent,,,,,0,0,0,0,,,,,,,,,,,,,,,,,,,,,0,33,33,33,,,,,,,,,,,,,,,,,,,,,,,,,,,,,,,,,,,,,,,,,,,,,,,,,,,,,,,,,,,,,,,,,,,,,,,,,1.9845678806304932,0.981621399987489,424.1347991999937,None,ScrollUp,오답입니다,424.1347991999937,None,424.1347991999937,None,424.1347991999937,None,424.1347991999937,None,425.0299715999863,None,425.0299715999863,425.5319792999653,,,,,,,,,,,,,,,,112,2023-04-20_13h50.49.789,FishGame,2022.1.1,60.07326535282698,
,35,나를 보내줘,6,Green,A,0,0,ScrollUp,ScrollDown,Green.png,3,NonTarget,NonTarget,,,,,0,0,0,0,,,,,,,,,,,,,,,,,,,,,0,34,34,34,,,,,,,,,,,,,,,,,,,,,,,,,,,,,,,,,,,,,,,,,,,,,,,,,,,,,,,,,,,,,,,,,,,,,,,,,2,1.0312997000291944,426.1393383999821,None,ScrollUp,정답입니다,426.1393383999821,None,426.1393383999821,None,426.1393383999821,None,426.1393383999821,None,427.0796233000001,None,427.0796233000001,427.5796048999764,,,,,,,,,,,,,,,,112,2023-04-20_13h50.49.789,FishGame,2022.1.1,60.07326535282698,
,36,넌 명랑해,1,Orange,B,5.739130434782609,5.666666666666667,ScrollUp,ScrollDown,Orange.png,3,Positive,Incongruent,,,,,0,0,0,0,,,,,,,,,,,,,,,,,,,,,0,35,35,35,,,,,,,,,,,,,,,,,,,,,,,,,,,,,,,,,,,,,,,,,,,,,,,,,,,,,,,,,,,,,,,,,,,,,,,,,1.9768518606821697,0.9672767999581993,428.18341539998073,None,ScrollUp,정답입니다,428.18341539998073,None,428.18341539998073,None,428.18341539998073,None,428.18341539998073,None,429.06549670000095,None,429.06549670000095,429.56539990002057,,,,,,,,,,,,,,,,112,2023-04-20_13h50.49.789,FishGame,2022.1.1,60.07326535282698,
,37,넌 멍해,4,Green,A,2.833333333333333,3.4,ScrollDown,ScrollUp,Green.png,3,Negative,Incongruent,,,,,0,0,0,0,,,,,,,,,,,,,,,,,,,,,0,36,36,36,,,,,,,,,,,,,,,,,,,,,,,,,,,,,,,,,,,,,,,,,,,,,,,,,,,,,,,,,,,,,,,,,,,,,,,,,1,0.8819064000272192,430.16861459997017,None,ScrollDown,정답입니다,430.16861459997017,None,430.16861459997017,None,430.16861459997017,None,430.16861459997017,None,430.96534429996973,None,430.96534429996973,431.4686855999753,,,,,,,,,,,,,,,,112,2023-04-20_13h50.49.789,FishGame,2022.1.1,60.07326535282698,
,38,나를 데려가줘,6,Orange,B,0,0,ScrollDown,ScrollUp,Orange.png,3,NonTarget,NonTarget,,,,,0,0,0,0,,,,,,,,,,,,,,,,,,,,,0,37,37,37,,,,,,,,,,,,,,,,,,,,,,,,,,,,,,,,,,,,,,,,,,,,,,,,,,,,,,,,,,,,,,,,,,,,,,,,,1,0.8964965000050142,432.0705731000053,None,ScrollDown,정답입니다,432.0705731000053,None,432.0705731000053,None,432.0705731000053,None,432.0705731000053,None,432.88184599997476,None,432.88184599997476,433.3818621999817,,,,,,,,,,,,,,,,112,2023-04-20_13h50.49.789,FishGame,2022.1.1,60.07326535282698,
,39,넌 현명해,2,Green,A,6.541666666666666,4.533333333333333,ScrollDown,ScrollUp,Green.png,3,Positive,Congruent,,,,,0,0,0,0,,,,,,,,,,,,,,,,,,,,,0,38,38,38,,,,,,,,,,,,,,,,,,,,,,,,,,,,,,,,,,,,,,,,,,,,,,,,,,,,,,,,,,,,,,,,,,,,,,,,,1,0.9798844000324607,433.98082310002064,None,ScrollDown,정답입니다,433.98082310002064,None,433.98082310002064,None,433.98082310002064,None,433.98082310002064,None,434.88168559997575,None,434.88168559997575,435.3817265999969,,,,,,,,,,,,,,,,112,2023-04-20_13h50.49.789,FishGame,2022.1.1,60.07326535282698,
,40,넌 수줍어,3,Orange,B,3.541666666666666,4.366666666666666,ScrollUp,ScrollDown,Orange.png,3,Neutral,Neutral,,,,,0,0,0,0,,,,,,,,,,,,,,,,,,,,,0,39,39,39,,,,,,,,,,,,,,,,,,,,,,,,,,,,,,,,,,,,,,,,,,,,,,,,,,,,,,,,,,,,,,,,,,,,,,,,,2,1.265153999964241,435.98681879998185,None,ScrollUp,정답입니다,435.98681879998185,None,435.98681879998185,None,435.98681879998185,None,435.98681879998185,None,437.16523959999904,None,437.16523959999904,437.6650777999894,,,,,,,,,,,,,,,,112,2023-04-20_13h50.49.789,FishGame,2022.1.1,60.07326535282698,
,41,나를 데려가줘,6,Orange,B,0,0,ScrollDown,ScrollUp,Orange.png,3,NonTarget,NonTarget,,,,,0,0,0,0,,,,,,,,,,,,,,,,,,,,,0,40,40,40,,,,,,,,,,,,,,,,,,,,,,,,,,,,,,,,,,,,,,,,,,,,,,,,,,,,,,,,,,,,,,,,,,,,,,,,,1,0.9296747000189498,438.2709698000108,None,ScrollDown,정답입니다,438.2709698000108,None,438.2709698000108,None,438.2709698000108,None,438.2709698000108,None,439.11293569998816,None,439.11293569998816,439.6149878000142,,,,,,,,,,,,,,,,112,2023-04-20_13h50.49.789,FishGame,2022.1.1,60.07326535282698,
,42,넌 성숙해,2,Orange,B,5.833333333333333,4.533333333333333,ScrollUp,ScrollDown,Orange.png,3,Positive,Incongruent,,,,,0,0,0,0,,,,,,,,,,,,,,,,,,,,,0,41,41,41,,,,,,,,,,,,,,,,,,,,,,,,,,,,,,,,,,,,,,,,,,,,,,,,,,,,,,,,,,,,,,,,,,,,,,,,,2,1.279428200039547,440.2186144000152,None,ScrollUp,정답입니다,440.2186144000152,None,440.2186144000152,None,440.2186144000152,None,440.2186144000152,None,441.41504160000477,None,441.41504160000477,441.9149532999727,,,,,,,,,,,,,,,,112,2023-04-20_13h50.49.789,FishGame,2022.1.1,60.07326535282698,
,1,넌 매력적이야,2,Orange,B,6.125,4.666666666666667,ScrollUp,ScrollDown,Orange.png,4,Positive,Incongruent,,,,,0,0,0,0,,,,,,,,,,,,,,,,,,,,,,,,,0,0,0,0,,,,,,,,,,,,,,,,,,,,,,,,,,,,475.79552949999925,477.29779390001204,477.3311628999654,478.28109669999685,478.33113200002117,479.28107959998306,479.28107959998306,None,,,,,,,,,,,,,,,,,,,,,,,,,,,,,,,,,,1.9567901293436687,1.174405800004024,480.3650428999681,None,ScrollUp,정답입니다,480.3650428999681,None,480.3650428999681,None,480.3650428999681,None,480.3650428999681,None,481.44759489997523,None,481.44759489997523,481.95063199999277,442.41500520001864,None,442.41500520001864,None,-0.025925925,-0.083333336,1,0,0,0.016233620001003146,None,472.4122643999872,None,,,112,2023-04-20_13h50.49.789,FishGame,2022.1.1,60.07326535282698,
,2,나를 보내줘,6,Green,A,0,0,ScrollUp,ScrollDown,Green.png,4,NonTarget,NonTarget,,,,,0,0,0,0,,,,,,,,,,,,,,,,,,,,,,,,,0,1,1,1,,,,,,,,,,,,,,,,,,,,,,,,,,,,,,,,,,,,,,,,,,,,,,,,,,,,,,,,,,,,,,,,,,,,,2,1.115177900006529,482.5501441999804,None,ScrollUp,정답입니다,482.5501441999804,None,482.5501441999804,None,482.5501441999804,None,482.5501441999804,None,483.58072789997095,None,483.58072789997095,484.08075530000497,,,,,,,,,,,,,,,,112,2023-04-20_13h50.49.789,FishGame,2022.1.1,60.07326535282698,
,3,넌 조심스러워,3,Green,A,4.791666666666666,4.666666666666667,ScrollDown,ScrollUp,Green.png,4,Neutral,Neutral,,,,,0,0,0,0,,,,,,,,,,,,,,,,,,,,,,,,,0,2,2,2,,,,,,,,,,,,,,,,,,,,,,,,,,,,,,,,,,,,,,,,,,,,,,,,,,,,,,,,,,,,,,,,,,,,,1,0.8629177000257187,484.68029589997604,None,ScrollDown,정답입니다,484.68029589997604,None,484.68029589997604,None,484.68029589997604,None,484.68029589997604,None,485.4641303999815,None,485.4641303999815,485.9641091999947,,,,,,,,,,,,,,,,112,2023-04-20_13h50.49.789,FishGame,2022.1.1,60.07326535282698,
,4,넌 철학적이야,3,Orange,B,4.5,4.266666666666667,ScrollUp,ScrollDown,Orange.png,4,Neutral,Neutral,,,,,0,0,0,0,,,,,,,,,,,,,,,,,,,,,,,,,0,3,3,3,,,,,,,,,,,,,,,,,,,,,,,,,,,,,,,,,,,,,,,,,,,,,,,,,,,,,,,,,,,,,,,,,,,,,2,0.9980921999667771,486.5701735999901,None,ScrollUp,정답입니다,486.5701735999901,None,486.5701735999901,None,486.5701735999901,None,486.5701735999901,None,487.48064269998576,None,487.48064269998576,487.9806661999901,,,,,,,,,,,,,,,,112,2023-04-20_13h50.49.789,FishGame,2022.1.1,60.07326535282698,
,5,넌 쩨쩨해,5,Green,A,2.375,2.133333333333333,ScrollDown,ScrollUp,Green.png,4,Negative,Incongruent,,,,,0,0,0,0,,,,,,,,,,,,,,,,,,,,,,,,,0,4,4,4,,,,,,,,,,,,,,,,,,,,,,,,,,,,,,,,,,,,,,,,,,,,,,,,,,,,,,,,,,,,,,,,,,,,,1,0.9633006000076421,488.60233209998114,None,ScrollDown,정답입니다,488.60233209998114,None,488.60233209998114,None,488.60233209998114,None,488.60233209998114,None,489.48066270002164,None,489.48066270002164,489.98069549998036,,,,,,,,,,,,,,,,112,2023-04-20_13h50.49.789,FishGame,2022.1.1,60.07326535282698,
,6,나를 데려가줘,6,Orange,B,0,0,ScrollDown,ScrollUp,Orange.png,4,NonTarget,NonTarget,,,,,0,0,0,0,,,,,,,,,,,,,,,,,,,,,,,,,0,5,5,5,,,,,,,,,,,,,,,,,,,,,,,,,,,,,,,,,,,,,,,,,,,,,,,,,,,,,,,,,,,,,,,,,,,,,1,0.9817956000333652,490.58202829997754,None,ScrollDown,정답입니다,490.58202829997754,None,490.58202829997754,None,490.58202829997754,None,490.58202829997754,None,491.48066010000184,None,491.48066010000184,491.98057830001926,,,,,,,,,,,,,,,,112,2023-04-20_13h50.49.789,FishGame,2022.1.1,60.07326535282698,
,7,넌 고집불통이야,5,Orange,B,2.875,2,ScrollUp,ScrollDown,Orange.png,4,Negative,Congruent,,,,,0,0,0,0,,,,,,,,,,,,,,,,,,,,,,,,,0,6,6,6,,,,,,,,,,,,,,,,,,,,,,,,,,,,,,,,,,,,,,,,,,,,,,,,,,,,,,,,,,,,,,,,,,,,,2,0.9628373999730684,492.5866337000043,None,ScrollUp,정답입니다,492.5866337000043,None,492.5866337000043,None,492.5866337000043,None,492.5866337000043,None,493.46182819997193,None,493.46182819997193,493.96388890000526,,,,,,,,,,,,,,,,112,2023-04-20_13h50.49.789,FishGame,2022.1.1,60.07326535282698,
,8,넌 무심해,4,Green,A,2.875,3.2,ScrollDown,ScrollUp,Green.png,4,Negative,Incongruent,,,,,0,0,0,0,,,,,,,,,,,,,,,,,,,,,,,,,0,7,7,7,,,,,,,,,,,,,,,,,,,,,,,,,,,,,,,,,,,,,,,,,,,,,,,,,,,,,,,,,,,,,,,,,,,,,1,1.0128506000037305,494.56651400000555,None,ScrollDown,정답입니다,494.56651400000555,None,494.56651400000555,None,494.56651400000555,None,494.56651400000555,None,495.4972948000068,None,495.4972948000068,495.9972462999867,,,,,,,,,,,,,,,,112,2023-04-20_13h50.49.789,FishGame,2022.1.1,60.07326535282698,
,9,넌 정겨워,1,Green,A,5.791666666666667,5.666666666666667,ScrollDown,ScrollUp,Green.png,4,Positive,Congruent,,,,,0,0,0,0,,,,,,,,,,,,,,,,,,,,,,,,,0,8,8,8,,,,,,,,,,,,,,,,,,,,,,,,,,,,,,,,,,,,,,,,,,,,,,,,,,,,,,,,,,,,,,,,,,,,,1,0.929738900042139,496.60032309999224,None,ScrollDown,정답입니다,496.60032309999224,None,496.60032309999224,None,496.60032309999224,None,496.60032309999224,None,497.44716410001274,None,497.44716410001274,497.9471310999943,,,,,,,,,,,,,,,,112,2023-04-20_13h50.49.789,FishGame,2022.1.1,60.07326535282698,
,10,나를 데려가줘,6,Orange,B,0,0,ScrollDown,ScrollUp,Orange.png,4,NonTarget,NonTarget,,,,,0,0,0,0,,,,,,,,,,,,,,,,,,,,,,,,,0,9,9,9,,,,,,,,,,,,,,,,,,,,,,,,,,,,,,,,,,,,,,,,,,,,,,,,,,,,,,,,,,,,,,,,,,,,,1,0.8962311000213958,498.5533570999978,None,ScrollDown,정답입니다,498.5533570999978,None,498.5533570999978,None,498.5533570999978,None,498.5533570999978,None,499.3637856999994,None,499.3637856999994,499.86380350001855,,,,,,,,,,,,,,,,112,2023-04-20_13h50.49.789,FishGame,2022.1.1,60.07326535282698,
,11,넌 체제순응적이야,4,Orange,B,3,3.6,ScrollUp,ScrollDown,Orange.png,4,Negative,Congruent,,,,,0,0,0,0,,,,,,,,,,,,,,,,,,,,,,,,,0,10,10,10,,,,,,,,,,,,,,,,,,,,,,,,,,,,,,,,,,,,,,,,,,,,,,,,,,,,,,,,,,,,,,,,,,,,,2,1.1151458999956958,500.4754241000046,None,ScrollUp,정답입니다,500.4754241000046,None,500.4754241000046,None,500.4754241000046,None,500.4754241000046,None,501.49726899998495,None,501.49726899998495,502.0136929000146,,,,,,,,,,,,,,,,112,2023-04-20_13h50.49.789,FishGame,2022.1.1,60.07326535282698,
,12,나를 보내줘,6,Green,A,0,0,ScrollUp,ScrollDown,Green.png,4,NonTarget,NonTarget,,,,,0,0,0,0,,,,,,,,,,,,,,,,,,,,,,,,,0,11,11,11,,,,,,,,,,,,,,,,,,,,,,,,,,,,,,,,,,,,,,,,,,,,,,,,,,,,,,,,,,,,,,,,,,,,,2,0.929757600009907,502.59771609999007,None,ScrollUp,정답입니다,502.59771609999007,None,502.59771609999007,None,502.59771609999007,None,502.59771609999007,None,503.4449887999799,None,503.4449887999799,503.9470331000048,,,,,,,,,,,,,,,,112,2023-04-20_13h50.49.789,FishGame,2022.1.1,60.07326535282698,
,13,넌 박식해,2,Green,A,5.625,3.933333333333333,ScrollDown,ScrollUp,Green.png,4,Positive,Congruent,,,,,0,0,0,0,,,,,,,,,,,,,,,,,,,,,,,,,0,12,12,12,,,,,,,,,,,,,,,,,,,,,,,,,,,,,,,,,,,,,,,,,,,,,,,,,,,,,,,,,,,,,,,,,,,,,1,0.9632574999704957,504.5537379999878,None,ScrollDown,정답입니다,504.5537379999878,None,504.5537379999878,None,504.5537379999878,None,504.5537379999878,None,505.4304913000087,None,505.4304913000087,505.93036549998214,,,,,,,,,,,,,,,,112,2023-04-20_13h50.49.789,FishGame,2022.1.1,60.07326535282698,
,14,나를 보내줘,6,Green,A,0,0,ScrollUp,ScrollDown,Green.png,4,NonTarget,NonTarget,,,,,0,0,0,0,,,,,,,,,,,,,,,,,,,,,,,,,0,13,13,13,,,,,,,,,,,,,,,,,,,,,,,,,,,,,,,,,,,,,,,,,,,,,,,,,,,,,,,,,,,,,,,,,,,,,2,1.0964232999831438,506.52929719997337,None,ScrollUp,정답입니다,506.52929719997337,None,506.52929719997337,None,506.52929719997337,None,506.52929719997337,None,507.5446579999989,None,507.5446579999989,508.044640099979,,,,,,,,,,,,,,,,112,2023-04-20_13h50.49.789,FishGame,2022.1.1,60.07326535282698,
,15,넌 침착해,1,Orange,B,5.458333333333333,5.566666666666666,ScrollUp,ScrollDown,Orange.png,4,Positive,Incongruent,,,,,0,0,0,0,,,,,,,,,,,,,,,,,,,,,,,,,0,14,14,14,,,,,,,,,,,,,,,,,,,,,,,,,,,,,,,,,,,,,,,,,,,,,,,,,,,,,,,,,,,,,,,,,,,,,2,1.0675716999685392,508.65084899996873,None,ScrollUp,정답입니다,508.65084899996873,None,508.65084899996873,None,508.65084899996873,None,508.65084899996873,None,509.6303905000095,None,509.6303905000095,510.13038420001976,,,,,,,,,,,,,,,,112,2023-04-20_13h50.49.789,FishGame,2022.1.1,60.07326535282698,
,16,나를 데려가줘,6,Orange,B,0,0,ScrollDown,ScrollUp,Orange.png,4,NonTarget,NonTarget,,,,,0,0,0,0,,,,,,,,,,,,,,,,,,,,,,,,,0,15,15,15,,,,,,,,,,,,,,,,,,,,,,,,,,,,,,,,,,,,,,,,,,,,,,,,,,,,,,,,,,,,,,,,,,,,,1,1.1960075000533834,510.73555849998957,None,ScrollDown,정답입니다,510.73555849998957,None,510.73555849998957,None,510.73555849998957,None,510.73555849998957,None,511.84457810001913,None,511.84457810001913,512.3446192999836,,,,,,,,,,,,,,,,112,2023-04-20_13h50.49.789,FishGame,2022.1.1,60.07326535282698,
,17,넌 행복해,1,Green,A,6.416666666666666,6.166666666666667,ScrollDown,ScrollUp,Green.png,4,Positive,Congruent,,,,,0,0,0,0,,,,,,,,,,,,,,,,,,,,,,,,,0,16,16,16,,,,,,,,,,,,,,,,,,,,,,,,,,,,,,,,,,,,,,,,,,,,,,,,,,,,,,,,,,,,,,,,,,,,,2,0.9642697999952361,512.94566019997,None,ScrollUp,오답입니다,512.94566019997,None,512.94566019997,None,512.94566019997,None,512.94566019997,None,513.827847699984,None,513.827847699984,514.3302792999893,,,,,,,,,,,,,,,,112,2023-04-20_13h50.49.789,FishGame,2022.1.1,60.07326535282698,
,18,넌 겸손해,2,Orange,B,5.791666666666667,4.766666666666667,ScrollUp,ScrollDown,Orange.png,4,Positive,Incongruent,,,,,0,0,0,0,,,,,,,,,,,,,,,,,,,,,,,,,0,17,17,17,,,,,,,,,,,,,,,,,,,,,,,,,,,,,,,,,,,,,,,,,,,,,,,,,,,,,,,,,,,,,,,,,,,,,2,1.1464134000125341,514.9386583999731,None,ScrollUp,정답입니다,514.9386583999731,None,514.9386583999731,None,514.9386583999731,None,514.9386583999731,None,515.996994199988,None,515.996994199988,516.4969231999712,,,,,,,,,,,,,,,,112,2023-04-20_13h50.49.789,FishGame,2022.1.1,60.07326535282698,
,19,나를 보내줘,6,Green,A,0,0,ScrollUp,ScrollDown,Green.png,4,NonTarget,NonTarget,,,,,0,0,0,0,,,,,,,,,,,,,,,,,,,,,,,,,0,18,18,18,,,,,,,,,,,,,,,,,,,,,,,,,,,,,,,,,,,,,,,,,,,,,,,,,,,,,,,,,,,,,,,,,,,,,1,0.9962281999760307,517.0997838000185,None,ScrollDown,오답입니다,517.0997838000185,None,517.0997838000185,None,517.0997838000185,None,517.0997838000185,None,518.013425800018,None,518.013425800018,518.5133906999836,,,,,,,,,,,,,,,,112,2023-04-20_13h50.49.789,FishGame,2022.1.1,60.07326535282698,
,20,넌 의심없어,3,Green,A,4.166666666666667,4.6,ScrollDown,ScrollUp,Green.png,4,Neutral,Neutral,,,,,0,0,0,0,,,,,,,,,,,,,,,,,,,,,,,,,0,19,19,19,,,,,,,,,,,,,,,,,,,,,,,,,,,,,,,,,,,,,,,,,,,,,,,,,,,,,,,,,,,,,,,,,,,,,1.0324074228604634,0.7787557999836281,519.1217750000069,None,ScrollDown,정답입니다,519.1217750000069,None,519.1217750000069,None,519.1217750000069,None,519.1217750000069,None,519.8113853000104,None,519.8113853000104,520.3134454999818,,,,,,,,,,,,,,,,112,2023-04-20_13h50.49.789,FishGame,2022.1.1,60.07326535282698,
,21,넌 시시해,4,Green,A,2.666666666666667,2.966666666666667,ScrollDown,ScrollUp,Green.png,4,Negative,Incongruent,,,,,0,0,0,0,,,,,,,,,,,,,,,,,,,,,,,,,0,20,20,20,,,,,,,,,,,,,,,,,,,,,,,,,,,,,,,,,,,,,,,,,,,,,,,,,,,,,,,,,,,,,,,,,,,,,1.0555555323759716,0.8981614000513218,520.9136040000012,None,ScrollDown,정답입니다,520.9136040000012,None,520.9136040000012,None,520.9136040000012,None,520.9136040000012,None,521.7279187999666,None,521.7279187999666,522.2300276000169,,,,,,,,,,,,,,,,112,2023-04-20_13h50.49.789,FishGame,2022.1.1,60.07326535282698,
,22,나를 데려가줘,6,Orange,B,0,0,ScrollDown,ScrollUp,Orange.png,4,NonTarget,NonTarget,,,,,0,0,0,0,,,,,,,,,,,,,,,,,,,,,,,,,0,21,21,21,,,,,,,,,,,,,,,,,,,,,,,,,,,,,,,,,,,,,,,,,,,,,,,,,,,,,,,,,,,,,,,,,,,,,1.0524691541989644,0.9321150000323541,522.8355538999895,None,ScrollDown,정답입니다,522.8355538999895,None,522.8355538999895,None,522.8355538999895,None,522.8355538999895,None,523.6798805000144,None,523.6798805000144,524.17991419998,,,,,,,,,,,,,,,,112,2023-04-20_13h50.49.789,FishGame,2022.1.1,60.07326535282698,
,23,넌 무정해,5,Green,A,2.5,2.2,ScrollDown,ScrollUp,Green.png,4,Negative,Incongruent,,,,,0,0,0,0,,,,,,,,,,,,,,,,,,,,,,,,,0,22,22,22,,,,,,,,,,,,,,,,,,,,,,,,,,,,,,,,,,,,,,,,,,,,,,,,,,,,,,,,,,,,,,,,,,,,,1,1.115258099976927,524.7800572999986,None,ScrollDown,정답입니다,524.7800572999986,None,524.7800572999986,None,524.7800572999986,None,524.7800572999986,None,525.8134066999773,None,525.8134066999773,526.31353699998,,,,,,,,,,,,,,,,112,2023-04-20_13h50.49.789,FishGame,2022.1.1,60.07326535282698,
,24,넌 긍정적이야,1,Orange,B,6.041666666666667,6.066666666666666,ScrollUp,ScrollDown,Orange.png,4,Positive,Incongruent,,,,,0,0,0,0,,,,,,,,,,,,,,,,,,,,,,,,,0,23,23,23,,,,,,,,,,,,,,,,,,,,,,,,,,,,,,,,,,,,,,,,,,,,,,,,,,,,,,,,,,,,,,,,,,,,,2,0.9984110000077635,526.9269360000035,None,ScrollUp,정답입니다,526.9269360000035,None,526.9269360000035,None,526.9269360000035,None,526.9269360000035,None,527.8298817999894,None,527.8298817999894,528.3298589999904,,,,,,,,,,,,,,,,112,2023-04-20_13h50.49.789,FishGame,2022.1.1,60.07326535282698,
,25,나를 보내줘,6,Green,A,0,0,ScrollUp,ScrollDown,Green.png,4,NonTarget,NonTarget,,,,,0,0,0,0,,,,,,,,,,,,,,,,,,,,,,,,,0,24,24,24,,,,,,,,,,,,,,,,,,,,,,,,,,,,,,,,,,,,,,,,,,,,,,,,,,,,,,,,,,,,,,,,,,,,,2,1.1485811999882571,528.928760299983,None,ScrollUp,정답입니다,528.928760299983,None,528.928760299983,None,528.928760299983,None,528.928760299983,None,529.9945131000131,None,529.9945131000131,530.4965393000166,,,,,,,,,,,,,,,,112,2023-04-20_13h50.49.789,FishGame,2022.1.1,60.07326535282698,
,26,넌 시기심이 많아,5,Orange,B,2.458333333333333,2.233333333333333,ScrollUp,ScrollDown,Orange.png,4,Negative,Congruent,,,,,0,0,0,0,,,,,,,,,,,,,,,,,,,,,,,,,0,25,25,25,,,,,,,,,,,,,,,,,,,,,,,,,,,,,,,,,,,,,,,,,,,,,,,,,,,,,,,,,,,,,,,,,,,,,1.1111111094554265,0.9130884999758564,531.1040982999839,None,ScrollDown,오답입니다,531.1040982999839,None,531.1040982999839,None,531.1040982999839,None,531.1040982999839,None,531.9277210999862,None,531.9277210999862,532.4277323000133,,,,,,,,,,,,,,,,112,2023-04-20_13h50.49.789,FishGame,2022.1.1,60.07326535282698,
,27,넌 탁월해,2,Green,A,5.708333333333334,4.5,ScrollDown,ScrollUp,Green.png,4,Positive,Congruent,,,,,0,0,0,0,,,,,,,,,,,,,,,,,,,,,,,,,0,26,26,26,,,,,,,,,,,,,,,,,,,,,,,,,,,,,,,,,,,,,,,,,,,,,,,,,,,,,,,,,,,,,,,,,,,,,1.2916666666666665,1.0628428000491112,533.0967864000122,None,ScrollDown,정답입니다,533.0967864000122,None,533.0967864000122,None,533.0967864000122,None,533.0967864000122,None,534.0110929000075,None,534.0110929000075,534.5131226999802,,,,,,,,,,,,,,,,112,2023-04-20_13h50.49.789,FishGame,2022.1.1,60.07326535282698,
,28,나를 데려가줘,6,Orange,B,0,0,ScrollDown,ScrollUp,Orange.png,4,NonTarget,NonTarget,,,,,0,0,0,0,,,,,,,,,,,,,,,,,,,,,,,,,0,27,27,27,,,,,,,,,,,,,,,,,,,,,,,,,,,,,,,,,,,,,,,,,,,,,,,,,,,,,,,,,,,,,,,,,,,,,1.1435185273488362,1.2797169999685138,535.1146264999988,None,ScrollDown,정답입니다,535.1146264999988,None,535.1146264999988,None,535.1146264999988,None,535.1146264999988,None,536.3130801999941,None,536.3130801999941,536.8129971000017,,,,,,,,,,,,,,,,112,2023-04-20_13h50.49.789,FishGame,2022.1.1,60.07326535282698,
,29,넌 조용해,3,Orange,B,4.333333333333333,4.166666666666667,ScrollUp,ScrollDown,Orange.png,4,Neutral,Neutral,,,,,0,0,0,0,,,,,,,,,,,,,,,,,,,,,,,,,0,28,28,28,,,,,,,,,,,,,,,,,,,,,,,,,,,,,,,,,,,,,,,,,,,,,,,,,,,,,,,,,,,,,,,,,,,,,2,0.9152839000453241,537.4187289999682,None,ScrollUp,정답입니다,537.4187289999682,None,537.4187289999682,None,537.4187289999682,None,537.4187289999682,None,538.2443206000025,None,538.2443206000025,538.7463418999687,,,,,,,,,,,,,,,,112,2023-04-20_13h50.49.789,FishGame,2022.1.1,60.07326535282698,
,30,넌 다정해,1,Green,A,5.833333333333334,5.7,ScrollDown,ScrollUp,Green.png,4,Positive,Congruent,,,,,0,0,0,0,,,,,,,,,,,,,,,,,,,,,,,,,0,29,29,29,,,,,,,,,,,,,,,,,,,,,,,,,,,,,,,,,,,,,,,,,,,,,,,,,,,,,,,,,,,,,,,,,,,,,1.1728395173947017,0.8960944000282325,539.3509512000019,None,ScrollDown,정답입니다,539.3509512000019,None,539.3509512000019,None,539.3509512000019,None,539.3509512000019,None,540.1606325000175,None,540.1606325000175,540.6606326000183,,,,,,,,,,,,,,,,112,2023-04-20_13h50.49.789,FishGame,2022.1.1,60.07326535282698,
,31,넌 능력있어,2,Orange,B,6.166666666666666,4.6,ScrollUp,ScrollDown,Orange.png,4,Positive,Incongruent,,,,,0,0,0,0,,,,,,,,,,,,,,,,,,,,,,,,,0,30,30,30,,,,,,,,,,,,,,,,,,,,,,,,,,,,,,,,,,,,,,,,,,,,,,,,,,,,,,,,,,,,,,,,,,,,,1.8811728457609813,1.1815697000129148,541.2607147999806,None,ScrollUp,정답입니다,541.2607147999806,None,541.2607147999806,None,541.2607147999806,None,541.2607147999806,None,542.360646999965,None,542.360646999965,542.863013299997,,,,,,,,,,,,,,,,112,2023-04-20_13h50.49.789,FishGame,2022.1.1,60.07326535282698,
,32,넌 불쾌해,5,Green,A,2.125,1.933333333333333,ScrollDown,ScrollUp,Green.png,4,Negative,Incongruent,,,,,0,0,0,0,,,,,,,,,,,,,,,,,,,,,,,,,0,31,31,31,,,,,,,,,,,,,,,,,,,,,,,,,,,,,,,,,,,,,,,,,,,,,,,,,,,,,,,,,,,,,,,,,,,,,1.0725308855374653,0.9985761999851093,543.4674540999695,None,ScrollDown,정답입니다,543.4674540999695,None,543.4674540999695,None,543.4674540999695,None,543.4674540999695,None,544.3774676999892,None,544.3774676999892,544.879565500014,,,,,,,,,,,,,,,,112,2023-04-20_13h50.49.789,FishGame,2022.1.1,60.07326535282698,
,33,나를 데려가줘,6,Orange,B,0,0,ScrollDown,ScrollUp,Orange.png,4,NonTarget,NonTarget,,,,,0,0,0,0,,,,,,,,,,,,,,,,,,,,,,,,,0,32,32,32,,,,,,,,,,,,,,,,,,,,,,,,,,,,,,,,,,,,,,,,,,,,,,,,,,,,,,,,,,,,,,,,,,,,,1.0540123681227367,0.8819401999935508,545.4847545999801,None,ScrollDown,정답입니다,545.4847545999801,None,545.4847545999801,None,545.4847545999801,None,545.4847545999801,None,546.2795869999682,None,546.2795869999682,546.7795236000093,,,,,,,,,,,,,,,,112,2023-04-20_13h50.49.789,FishGame,2022.1.1,60.07326535282698,
,34,넌 유순해,3,Green,A,4.458333333333333,5,ScrollDown,ScrollUp,Green.png,4,Neutral,Neutral,,,,,0,0,0,0,,,,,,,,,,,,,,,,,,,,,,,,,0,33,33,33,,,,,,,,,,,,,,,,,,,,,,,,,,,,,,,,,,,,,,,,,,,,,,,,,,,,,,,,,,,,,,,,,,,,,1,1.0460194000042975,547.3801489999751,None,ScrollDown,정답입니다,547.3801489999751,None,547.3801489999751,None,547.3801489999751,None,547.3801489999751,None,548.3440362999681,None,548.3440362999681,548.8461125000031,,,,,,,,,,,,,,,,112,2023-04-20_13h50.49.789,FishGame,2022.1.1,60.07326535282698,
,35,넌 근심스러워,4,Orange,B,2.708333333333333,3.133333333333333,ScrollUp,ScrollDown,Orange.png,4,Negative,Congruent,,,,,0,0,0,0,,,,,,,,,,,,,,,,,,,,,,,,,0,34,34,34,,,,,,,,,,,,,,,,,,,,,,,,,,,,,,,,,,,,,,,,,,,,,,,,,,,,,,,,,,,,,,,,,,,,,1.9074074079593022,0.9797844999702647,549.4544580999645,None,ScrollUp,정답입니다,549.4544580999645,None,549.4544580999645,None,549.4544580999645,None,549.4544580999645,None,550.3462016999838,None,550.3462016999838,550.8460828000098,,,,,,,,,,,,,,,,112,2023-04-20_13h50.49.789,FishGame,2022.1.1,60.07326535282698,
,36,넌 세련되었어,2,Green,A,5.5,4.6,ScrollDown,ScrollUp,Green.png,4,Positive,Congruent,,,,,0,0,0,0,,,,,,,,,,,,,,,,,,,,,,,,,0,35,35,35,,,,,,,,,,,,,,,,,,,,,,,,,,,,,,,,,,,,,,,,,,,,,,,,,,,,,,,,,,,,,,,,,,,,,1.126543199022611,0.8293547999928705,551.4561313000158,None,ScrollDown,정답입니다,551.4561313000158,None,551.4561313000158,None,551.4561313000158,None,551.4561313000158,None,552.1937627000152,None,552.1937627000152,552.6938515999936,,,,,,,,,,,,,,,,112,2023-04-20_13h50.49.789,FishGame,2022.1.1,60.07326535282698,
,37,나를 보내줘,6,Green,A,0,0,ScrollUp,ScrollDown,Green.png,4,NonTarget,NonTarget,,,,,0,0,0,0,,,,,,,,,,,,,,,,,,,,,,,,,0,36,36,36,,,,,,,,,,,,,,,,,,,,,,,,,,,,,,,,,,,,,,,,,,,,,,,,,,,,,,,,,,,,,,,,,,,,,2,0.9808119999943301,553.2920131999999,None,ScrollUp,정답입니다,553.2920131999999,None,553.2920131999999,None,553.2920131999999,None,553.2920131999999,None,554.1937497999752,None,554.1937497999752,554.6961105999653,,,,,,,,,,,,,,,,112,2023-04-20_13h50.49.789,FishGame,2022.1.1,60.07326535282698,
,38,넌 확고해,3,Orange,B,4.708333333333334,4.566666666666666,ScrollUp,ScrollDown,Orange.png,4,Neutral,Neutral,,,,,0,0,0,0,,,,,,,,,,,,,,,,,,,,,,,,,0,37,37,37,,,,,,,,,,,,,,,,,,,,,,,,,,,,,,,,,,,,,,,,,,,,,,,,,,,,,,,,,,,,,,,,,,,,,1.6666666691501937,1.048776799987536,555.3043730999925,None,ScrollUp,정답입니다,555.3043730999925,None,555.3043730999925,None,555.3043730999925,None,555.3043730999925,None,556.2627808999969,None,556.2627808999969,556.7626241999678,,,,,,,,,,,,,,,,112,2023-04-20_13h50.49.789,FishGame,2022.1.1,60.07326535282698,
,39,넌 이해심이 많아,1,Orange,B,6.041666666666668,5.533333333333333,ScrollUp,ScrollDown,Orange.png,4,Positive,Incongruent,,,,,0,0,0,0,,,,,,,,,,,,,,,,,,,,,,,,,0,38,38,38,,,,,,,,,,,,,,,,,,,,,,,,,,,,,,,,,,,,,,,,,,,,,,,,,,,,,,,,,,,,,,,,,,,,,2,1.046187900006771,557.3646577000036,None,ScrollUp,정답입니다,557.3646577000036,None,557.3646577000036,None,557.3646577000036,None,557.3646577000036,None,558.3293610999826,None,558.3293610999826,558.8292941999971,,,,,,,,,,,,,,,,112,2023-04-20_13h50.49.789,FishGame,2022.1.1,60.07326535282698,
,40,나를 보내줘,6,Green,A,0,0,ScrollUp,ScrollDown,Green.png,4,NonTarget,NonTarget,,,,,0,0,0,0,,,,,,,,,,,,,,,,,,,,,,,,,0,39,39,39,,,,,,,,,,,,,,,,,,,,,,,,,,,,,,,,,,,,,,,,,,,,,,,,,,,,,,,,,,,,,,,,,,,,,2,1.1130639999755658,559.4295987000223,None,ScrollUp,정답입니다,559.4295987000223,None,559.4295987000223,None,559.4295987000223,None,559.4295987000223,None,560.4625375000178,None,560.4625375000178,560.9625415999908,,,,,,,,,,,,,,,,112,2023-04-20_13h50.49.789,FishGame,2022.1.1,60.07326535282698,
,41,넌 거칠어,4,Green,A,2.625,3.033333333333333,ScrollDown,ScrollUp,Green.png,4,Negative,Incongruent,,,,,0,0,0,0,,,,,,,,,,,,,,,,,,,,,,,,,0,40,40,40,,,,,,,,,,,,,,,,,,,,,,,,,,,,,,,,,,,,,,,,,,,,,,,,,,,,,,,,,,,,,,,,,,,,,1.1574074029922485,0.9131335999700241,561.5674057999859,None,ScrollDown,정답입니다,561.5674057999859,None,561.5674057999859,None,561.5674057999859,None,561.5674057999859,None,562.3958822999848,None,562.3958822999848,562.8958822999848,,,,,,,,,,,,,,,,112,2023-04-20_13h50.49.789,FishGame,2022.1.1,60.07326535282698,
,42,넌 변덕맞아,5,Orange,B,2.75,2.166666666666667,ScrollUp,ScrollDown,Orange.png,4,Negative,Congruent,,,,,0,0,0,0,,,,,,,,,,,,,,,,,,,,,,,,,0,41,41,41,,,,,,,,,,,,,,,,,,,,,,,,,,,,,,,,,,,,,,,,,,,,,,,,,,,,,,,,,,,,,,,,,,,,,1.90586419403553,0.9457608999800868,563.5035386999953,None,ScrollUp,정답입니다,563.5035386999953,None,563.5035386999953,None,563.5035386999953,None,563.5035386999953,None,564.3601377999876,None,564.3601377999876,564.8601314999978,,,,,,,,,,,,,,,,112,2023-04-20_13h50.49.789,FishGame,2022.1.1,60.07326535282698,
,43,나를 데려가줘,6,Orange,B,0,0,ScrollDown,ScrollUp,Orange.png,4,NonTarget,NonTarget,,,,,0,0,0,0,,,,,,,,,,,,,,,,,,,,,,,,,0,42,42,42,,,,,,,,,,,,,,,,,,,,,,,,,,,,,,,,,,,,,,,,,,,,,,,,,,,,,,,,,,,,,,,,,,,,,1,0.8985982000012882,565.4645711000194,None,ScrollDown,정답입니다,565.4645711000194,None,565.4645711000194,None,565.4645711000194,None,565.4645711000194,None,566.279342099966,None,566.279342099966,566.7792237999965,,,,,,,,,,,,,,,,112,2023-04-20_13h50.49.789,FishGame,2022.1.1,60.07326535282698,
,44,넌 외로워,4,Orange,B,2.833333333333333,3.3,ScrollUp,ScrollDown,Orange.png,4,Negative,Congruent,,,,,0,0,0,0,,,,,,,,,,,,,,,,,,,,,,,,,0,43,43,43,,,,,,,,,,,,,,,,,,,,,,,,,,,,,,,,,,,,,,,,,,,,,,,,,,,,,,,,,,,,,,,,,,,,,1.817901223897934,0.9822022000444122,567.3868730000104,None,ScrollUp,정답입니다,567.3868730000104,None,567.3868730000104,None,567.3868730000104,None,567.3868730000104,None,568.2792275999673,None,568.2792275999673,568.7790592999663,,,,,,,,,,,,,,,,112,2023-04-20_13h50.49.789,FishGame,2022.1.1,60.07326535282698,
,1,넌 불평스러워,5,Green,A,2.25,2.066666666666667,ScrollDown,ScrollUp,Green.png,5,Negative,Incongruent,,,,,0,0,0,0,,,,,,,,,,,,,,,,,,,,,,,,,,,,,0,0,0,0,,,,,,,,,,,,,,,,,,,,,,,,600.695066299988,602.1952241999679,602.2285662000068,603.1815141999978,603.209581299976,604.1618414999684,604.1785171999945,None,,,,,,,,,,,,,,,,,,,,,,,,,,,,,,,,,,1.0416666567325592,1.0857483000145294,605.2637600000016,None,ScrollDown,정답입니다,605.2637600000016,None,605.2637600000016,None,605.2637600000016,None,605.2637600000016,None,606.2616945999907,None,606.2616945999907,606.7615979000111,569.27916679997,None,569.27916679997,None,-0.033333335,-0.075925924,1,0,0,0.016241019999142736,None,599.2783261999721,None,,,112,2023-04-20_13h50.49.789,FishGame,2022.1.1,60.07326535282698,
,2,나를 보내줘,6,Green,A,0,0,ScrollUp,ScrollDown,Green.png,5,NonTarget,NonTarget,,,,,0,0,0,0,,,,,,,,,,,,,,,,,,,,,,,,,,,,,0,1,1,1,,,,,,,,,,,,,,,,,,,,,,,,,,,,,,,,,,,,,,,,,,,,,,,,,,,,,,,,,,,,,,,,,2,0.9461399000138044,607.3624923999887,None,ScrollUp,정답입니다,607.3624923999887,None,607.3624923999887,None,607.3624923999887,None,607.3624923999887,None,608.2282302000094,None,608.2282302000094,608.7281890999875,,,,,,,,,,,,,,,,112,2023-04-20_13h50.49.789,FishGame,2022.1.1,60.07326535282698,
,3,넌 다재다능해,2,Orange,B,6.208333333333333,4.5,ScrollUp,ScrollDown,Orange.png,5,Positive,Incongruent,,,,,0,0,0,0,,,,,,,,,,,,,,,,,,,,,,,,,,,,,0,2,2,2,,,,,,,,,,,,,,,,,,,,,,,,,,,,,,,,,,,,,,,,,,,,,,,,,,,,,,,,,,,,,,,,,1.9243827362855275,0.9296813000109978,609.3338648999925,None,ScrollUp,정답입니다,609.3338648999925,None,609.3338648999925,None,609.3338648999925,None,609.3338648999925,None,610.1781908000121,None,610.1781908000121,610.6782354000024,,,,,,,,,,,,,,,,112,2023-04-20_13h50.49.789,FishGame,2022.1.1,60.07326535282698,
,4,넌 과감해,3,Green,A,4.833333333333334,4.6,ScrollDown,ScrollUp,Green.png,5,Neutral,Neutral,,,,,0,0,0,0,,,,,,,,,,,,,,,,,,,,,,,,,,,,,0,3,3,3,,,,,,,,,,,,,,,,,,,,,,,,,,,,,,,,,,,,,,,,,,,,,,,,,,,,,,,,,,,,,,,,,1.0200617114702861,0.7317388999508694,611.2783847000101,None,ScrollDown,정답입니다,611.2783847000101,None,611.2783847000101,None,611.2783847000101,None,611.2783847000101,None,611.9283557999879,None,611.9283557999879,612.428123599966,,,,,,,,,,,,,,,,112,2023-04-20_13h50.49.789,FishGame,2022.1.1,60.07326535282698,
,5,넌 고분고분해,3,Orange,B,3.75,4.033333333333333,ScrollUp,ScrollDown,Orange.png,5,Neutral,Neutral,,,,,0,0,0,0,,,,,,,,,,,,,,,,,,,,,,,,,,,,,0,4,4,4,,,,,,,,,,,,,,,,,,,,,,,,,,,,,,,,,,,,,,,,,,,,,,,,,,,,,,,,,,,,,,,,,1.9984568059444427,0.9296741000143811,613.0365584999672,None,ScrollUp,정답입니다,613.0365584999672,None,613.0365584999672,None,613.0365584999672,None,613.0365584999672,None,613.8780852999771,None,613.8780852999771,614.3781028999947,,,,,,,,,,,,,,,,112,2023-04-20_13h50.49.789,FishGame,2022.1.1,60.07326535282698,
,6,나를 보내줘,6,Green,A,0,0,ScrollUp,ScrollDown,Green.png,5,NonTarget,NonTarget,,,,,0,0,0,0,,,,,,,,,,,,,,,,,,,,,,,,,,,,,0,5,5,5,,,,,,,,,,,,,,,,,,,,,,,,,,,,,,,,,,,,,,,,,,,,,,,,,,,,,,,,,,,,,,,,,1.9274691144625347,0.9151039000134915,614.9776220999775,None,ScrollUp,정답입니다,614.9776220999775,None,614.9776220999775,None,614.9776220999775,None,614.9776220999775,None,615.8114591999911,None,615.8114591999911,616.3281050999649,,,,,,,,,,,,,,,,112,2023-04-20_13h50.49.789,FishGame,2022.1.1,60.07326535282698,
,7,넌 잘 잊어,4,Green,A,3,3.7,ScrollDown,ScrollUp,Green.png,5,Negative,Incongruent,,,,,0,0,0,0,,,,,,,,,,,,,,,,,,,,,,,,,,,,,0,6,6,6,,,,,,,,,,,,,,,,,,,,,,,,,,,,,,,,,,,,,,,,,,,,,,,,,,,,,,,,,,,,,,,,,1.1990740795930226,0.8480128000373952,616.9200012999936,None,ScrollDown,정답입니다,616.9200012999936,None,616.9200012999936,None,616.9200012999936,None,616.9200012999936,None,617.6757230999647,None,617.6757230999647,618.175724199973,,,,,,,,,,,,,,,,112,2023-04-20_13h50.49.789,FishGame,2022.1.1,60.07326535282698,
,8,넌 탐구심이없어,4,Orange,B,2.833333333333333,3.066666666666667,ScrollUp,ScrollDown,Orange.png,5,Negative,Congruent,,,,,0,0,0,0,,,,,,,,,,,,,,,,,,,,,,,,,,,,,0,7,7,7,,,,,,,,,,,,,,,,,,,,,,,,,,,,,,,,,,,,,,,,,,,,,,,,,,,,,,,,,,,,,,,,,1.8904321044683456,1.050394200021401,618.7817365999799,None,ScrollUp,정답입니다,618.7817365999799,None,618.7817365999799,None,618.7817365999799,None,618.7817365999799,None,619.7448244999978,None,619.7448244999978,620.2448059999733,,,,,,,,,,,,,,,,112,2023-04-20_13h50.49.789,FishGame,2022.1.1,60.07326535282698,
,9,나를 데려가줘,6,Orange,B,0,0,ScrollDown,ScrollUp,Orange.png,5,NonTarget,NonTarget,,,,,0,0,0,0,,,,,,,,,,,,,,,,,,,,,,,,,,,,,0,8,8,8,,,,,,,,,,,,,,,,,,,,,,,,,,,,,,,,,,,,,,,,,,,,,,,,,,,,,,,,,,,,,,,,,1.1064814925193787,0.8819034000043757,620.8464218999725,None,ScrollDown,정답입니다,620.8464218999725,None,620.8464218999725,None,620.8464218999725,None,620.8464218999725,None,621.6449230000144,None,621.6449230000144,622.1446454999968,,,,,,,,,,,,,,,,112,2023-04-20_13h50.49.789,FishGame,2022.1.1,60.07326535282698,
,10,넌 참되어,2,Green,A,6.041666666666664,4.733333333333333,ScrollDown,ScrollUp,Green.png,5,Positive,Congruent,,,,,0,0,0,0,,,,,,,,,,,,,,,,,,,,,,,,,,,,,0,9,9,9,,,,,,,,,,,,,,,,,,,,,,,,,,,,,,,,,,,,,,,,,,,,,,,,,,,,,,,,,,,,,,,,,1.095679019888242,0.896276300016325,622.7475555000128,None,ScrollDown,정답입니다,622.7475555000128,None,622.7475555000128,None,622.7475555000128,None,622.7475555000128,None,623.5613478000159,None,623.5613478000159,624.0612746999832,,,,,,,,,,,,,,,,112,2023-04-20_13h50.49.789,FishGame,2022.1.1,60.07326535282698,
,11,넌 생기있어,1,Orange,B,5.875,5.633333333333334,ScrollUp,ScrollDown,Orange.png,5,Positive,Incongruent,,,,,0,0,0,0,,,,,,,,,,,,,,,,,,,,,,,,,,,,,0,10,10,10,,,,,,,,,,,,,,,,,,,,,,,,,,,,,,,,,,,,,,,,,,,,,,,,,,,,,,,,,,,,,,,,,2,1.009797599981539,624.6949583999813,None,ScrollUp,정답입니다,624.6949583999813,None,624.6949583999813,None,624.6949583999813,None,624.6949583999813,None,625.6089223999879,None,625.6089223999879,626.1088961000205,,,,,,,,,,,,,,,,112,2023-04-20_13h50.49.789,FishGame,2022.1.1,60.07326535282698,
,12,넌 비사교적이야,4,Orange,B,2.875,2.9,ScrollUp,ScrollDown,Orange.png,5,Negative,Congruent,,,,,0,0,0,0,,,,,,,,,,,,,,,,,,,,,,,,,,,,,0,11,11,11,,,,,,,,,,,,,,,,,,,,,,,,,,,,,,,,,,,,,,,,,,,,,,,,,,,,,,,,,,,,,,,,,1.7777777860562007,0.9818102999706753,626.7093523999793,None,ScrollUp,정답입니다,626.7093523999793,None,626.7093523999793,None,626.7093523999793,None,626.7093523999793,None,627.6089035000186,None,627.6089035000186,628.1113215999794,,,,,,,,,,,,,,,,112,2023-04-20_13h50.49.789,FishGame,2022.1.1,60.07326535282698,
,13,나를 데려가줘,6,Orange,B,0,0,ScrollDown,ScrollUp,Orange.png,5,NonTarget,NonTarget,,,,,0,0,0,0,,,,,,,,,,,,,,,,,,,,,,,,,,,,,0,12,12,12,,,,,,,,,,,,,,,,,,,,,,,,,,,,,,,,,,,,,,,,,,,,,,,,,,,,,,,,,,,,,,,,,1.1790123482545216,0.9154093000106514,628.7166308999876,None,ScrollDown,정답입니다,628.7166308999876,None,628.7166308999876,None,628.7166308999876,None,628.7166308999876,None,629.5448431000113,None,629.5448431000113,630.0445731999935,,,,,,,,,,,,,,,,112,2023-04-20_13h50.49.789,FishGame,2022.1.1,60.07326535282698,
,14,넌 고독해,4,Green,A,2.916666666666667,3.233333333333333,ScrollDown,ScrollUp,Green.png,5,Negative,Incongruent,,,,,0,0,0,0,,,,,,,,,,,,,,,,,,,,,,,,,,,,,0,13,13,13,,,,,,,,,,,,,,,,,,,,,,,,,,,,,,,,,,,,,,,,,,,,,,,,,,,,,,,,,,,,,,,,,1.2499999900658925,0.8463059000205249,630.6439538999693,None,ScrollDown,정답입니다,630.6439538999693,None,630.6439538999693,None,630.6439538999693,None,630.6439538999693,None,631.4090652000159,None,631.4090652000159,631.9110801999923,,,,,,,,,,,,,,,,112,2023-04-20_13h50.49.789,FishGame,2022.1.1,60.07326535282698,
,15,넌 신경질적이야,5,Orange,B,2.375,2.233333333333333,ScrollUp,ScrollDown,Orange.png,5,Negative,Congruent,,,,,0,0,0,0,,,,,,,,,,,,,,,,,,,,,,,,,,,,,0,14,14,14,,,,,,,,,,,,,,,,,,,,,,,,,,,,,,,,,,,,,,,,,,,,,,,,,,,,,,,,,,,,,,,,,1.9861110945542653,0.9154629000113346,632.5251685999683,None,ScrollUp,정답입니다,632.5251685999683,None,632.5251685999683,None,632.5251685999683,None,632.5251685999683,None,633.344611699984,None,633.344611699984,633.8444304000004,,,,,,,,,,,,,,,,112,2023-04-20_13h50.49.789,FishGame,2022.1.1,60.07326535282698,
,16,넌 똑똑해,2,Orange,B,5.666666666666667,3.966666666666667,ScrollUp,ScrollDown,Orange.png,5,Positive,Incongruent,,,,,0,0,0,0,,,,,,,,,,,,,,,,,,,,,,,,,,,,,0,15,15,15,,,,,,,,,,,,,,,,,,,,,,,,,,,,,,,,,,,,,,,,,,,,,,,,,,,,,,,,,,,,,,,,,1.253086417913437,0.8463413999998011,634.4516480999882,None,ScrollDown,오답입니다,634.4516480999882,None,634.4516480999882,None,634.4516480999882,None,634.4516480999882,None,635.2110551000223,None,635.2110551000223,635.7109826999949,,,,,,,,,,,,,,,,112,2023-04-20_13h50.49.789,FishGame,2022.1.1,60.07326535282698,
,17,나를 보내줘,6,Green,A,0,0,ScrollUp,ScrollDown,Green.png,5,NonTarget,NonTarget,,,,,0,0,0,0,,,,,,,,,,,,,,,,,,,,,,,,,,,,,0,16,16,16,,,,,,,,,,,,,,,,,,,,,,,,,,,,,,,,,,,,,,,,,,,,,,,,,,,,,,,,,,,,,,,,,1.8765432039896648,1.081808999995701,636.3097669999697,None,ScrollUp,정답입니다,636.3097669999697,None,636.3097669999697,None,636.3097669999697,None,636.3097669999697,None,637.3089828999946,None,637.3089828999946,637.8110037000151,,,,,,,,,,,,,,,,112,2023-04-20_13h50.49.789,FishGame,2022.1.1,60.07326535282698,
,18,넌 협조적이야,1,Green,A,5.625,5.666666666666667,ScrollDown,ScrollUp,Green.png,5,Positive,Congruent,,,,,0,0,0,0,,,,,,,,,,,,,,,,,,,,,,,,,,,,,0,17,17,17,,,,,,,,,,,,,,,,,,,,,,,,,,,,,,,,,,,,,,,,,,,,,,,,,,,,,,,,,,,,,,,,,1.2932098805904388,0.846370899991598,638.4117814999772,None,ScrollDown,정답입니다,638.4117814999772,None,638.4117814999772,None,638.4117814999772,None,638.4117814999772,None,639.1755604000064,None,639.1755604000064,639.6775904999813,,,,,,,,,,,,,,,,112,2023-04-20_13h50.49.789,FishGame,2022.1.1,60.07326535282698,
,19,나를 데려가줘,6,Orange,B,0,0,ScrollDown,ScrollUp,Orange.png,5,NonTarget,NonTarget,,,,,0,0,0,0,,,,,,,,,,,,,,,,,,,,,,,,,,,,,0,18,18,18,,,,,,,,,,,,,,,,,,,,,,,,,,,,,,,,,,,,,,,,,,,,,,,,,,,,,,,,,,,,,,,,,1.2114197413126628,0.9130069999955595,640.2825582000078,None,ScrollDown,정답입니다,640.2825582000078,None,640.2825582000078,None,640.2825582000078,None,640.2825582000078,None,641.1088556000032,None,641.1088556000032,641.6109231999726,,,,,,,,,,,,,,,,112,2023-04-20_13h50.49.789,FishGame,2022.1.1,60.07326535282698,
,20,넌 몰인정해,5,Orange,B,2.541666666666667,2.066666666666667,ScrollUp,ScrollDown,Orange.png,5,Negative,Congruent,,,,,0,0,0,0,,,,,,,,,,,,,,,,,,,,,,,,,,,,,0,19,19,19,,,,,,,,,,,,,,,,,,,,,,,,,,,,,,,,,,,,,,,,,,,,,,,,,,,,,,,,,,,,,,,,,2,1.0150084999622777,642.2163097999874,None,ScrollUp,정답입니다,642.2163097999874,None,642.2163097999874,None,642.2163097999874,None,642.2163097999874,None,643.1422194999759,None,643.1422194999759,643.6442436000216,,,,,,,,,,,,,,,,112,2023-04-20_13h50.49.789,FishGame,2022.1.1,60.07326535282698,
,21,나를 데려가줘,6,Orange,B,0,0,ScrollDown,ScrollUp,Orange.png,5,NonTarget,NonTarget,,,,,0,0,0,0,,,,,,,,,,,,,,,,,,,,,,,,,,,,,0,20,20,20,,,,,,,,,,,,,,,,,,,,,,,,,,,,,,,,,,,,,,,,,,,,,,,,,,,,,,,,,,,,,,,,,1.0493827263514202,0.879695100011304,644.2498337000143,None,ScrollDown,정답입니다,644.2498337000143,None,644.2498337000143,None,644.2498337000143,None,644.2498337000143,None,645.0441668999847,None,645.0441668999847,645.5440820999793,,,,,,,,,,,,,,,,112,2023-04-20_13h50.49.789,FishGame,2022.1.1,60.07326535282698,
,22,넌 순진해,3,Orange,B,4.125,4.166666666666667,ScrollUp,ScrollDown,Orange.png,5,Neutral,Neutral,,,,,0,0,0,0,,,,,,,,,,,,,,,,,,,,,,,,,,,,,0,21,21,21,,,,,,,,,,,,,,,,,,,,,,,,,,,,,,,,,,,,,,,,,,,,,,,,,,,,,,,,,,,,,,,,,1.9953703780968983,1.1155894999974407,646.1448468000162,None,ScrollUp,정답입니다,646.1448468000162,None,646.1448468000162,None,646.1448468000162,None,646.1448468000162,None,647.1754358999897,None,647.1754358999897,647.6774580000201,,,,,,,,,,,,,,,,112,2023-04-20_13h50.49.789,FishGame,2022.1.1,60.07326535282698,
,23,넌 신뢰할만해,1,Green,A,6.625,5.533333333333333,ScrollDown,ScrollUp,Green.png,5,Positive,Congruent,,,,,0,0,0,0,,,,,,,,,,,,,,,,,,,,,,,,,,,,,0,22,22,22,,,,,,,,,,,,,,,,,,,,,,,,,,,,,,,,,,,,,,,,,,,,,,,,,,,,,,,,,,,,,,,,,1.3040123408039412,0.9461558000184596,648.2841264000162,None,ScrollDown,정답입니다,648.2841264000162,None,648.2841264000162,None,648.2841264000162,None,648.2841264000162,None,649.1440632999875,None,649.1440632999875,649.6440504000057,,,,,,,,,,,,,,,,112,2023-04-20_13h50.49.789,FishGame,2022.1.1,60.07326535282698,
,24,나를 보내줘,6,Green,A,0,0,ScrollUp,ScrollDown,Green.png,5,NonTarget,NonTarget,,,,,0,0,0,0,,,,,,,,,,,,,,,,,,,,,,,,,,,,,0,23,23,23,,,,,,,,,,,,,,,,,,,,,,,,,,,,,,,,,,,,,,,,,,,,,,,,,,,,,,,,,,,,,,,,,2,1.014945800008718,650.2462253000122,None,ScrollUp,정답입니다,650.2462253000122,None,650.2462253000122,None,650.2462253000122,None,650.2462253000122,None,651.1773273000144,None,651.1773273000144,651.6773478999967,,,,,,,,,,,,,,,,112,2023-04-20_13h50.49.789,FishGame,2022.1.1,60.07326535282698,
