name,TrialNum,Word,WordCategory,FishType,WordList,WordValence,WordReputation,CorrectResp,IncorrectResp,FishTypeFile,Round,WordType,Condition,LoopforOrange.thisRepN,LoopforOrange.thisTrialN,LoopforOrange.thisN,LoopforOrange.thisIndex,OrangeInstLoop.thisRepN,OrangeInstLoop.thisTrialN,OrangeInstLoop.thisN,OrangeInstLoop.thisIndex,OrangePrac.thisRepN,OrangePrac.thisTrialN,OrangePrac.thisN,OrangePrac.thisIndex,temp1.thisRepN,temp1.thisTrialN,temp1.thisN,temp1.thisIndex,OrangeRound1.thisRepN,OrangeRound1.thisTrialN,OrangeRound1.thisN,OrangeRound1.thisIndex,OrangeRound2.thisRepN,OrangeRound2.thisTrialN,OrangeRound2.thisN,OrangeRound2.thisIndex,OrangeRound3.thisRepN,OrangeRound3.thisTrialN,OrangeRound3.thisN,OrangeRound3.thisIndex,OrangeRound4.thisRepN,OrangeRound4.thisTrialN,OrangeRound4.thisN,OrangeRound4.thisIndex,OrangeRound5.thisRepN,OrangeRound5.thisTrialN,OrangeRound5.thisN,OrangeRound5.thisIndex,LoopForGreen.thisRepN,LoopForGreen.thisTrialN,LoopForGreen.thisN,LoopForGreen.thisIndex,text_2.started,text_2.stopped,text_3.started,text_3.stopped,key_resp.keys,key_resp.rt,key_resp.started,key_resp.stopped,PassI_2.started,PassI_2.stopped,PassInst_2.keys,PassInst_2.rt,PassInst_2.started,PassInst_2.stopped,mouse_2.x,mouse_2.y,mouse_2.leftButton,mouse_2.midButton,mouse_2.rightButton,mouse_2.started,mouse_2.stopped,image.started,image.stopped,text_5.started,text_5.stopped,text_6.started,text_6.stopped,text_7.started,text_7.stopped,text_8.started,text_8.stopped,slider_2.response,slider_2.rt,slider_2.started,slider_2.stopped,Response_2,Feedback_2,BackGround_2.started,BackGround_2.stopped,Fish_2.started,Fish_2.stopped,WordBox_2.started,WordBox_2.stopped,Words_2.started,Words_2.stopped,BackGround_Feedback_2.started,BackGround_Feedback_2.stopped,Feedbacks_2.started,Feedbacks_2.stopped,Continue_or_not.keys,Continue_or_not.rt,Continue_or_not.started,Continue_or_not.stopped,image_3.started,image_3.stopped,mouse_3.x,mouse_3.y,mouse_3.leftButton,mouse_3.midButton,mouse_3.rightButton,mouse_3.started,mouse_3.stopped,startmain.started,startmain.stopped,slider.response,slider.rt,slider.started,slider.stopped,Response,Feedback,BackGround.started,BackGround.stopped,Fish.started,Fish.stopped,WordBox.started,WordBox.stopped,Words.started,Words.stopped,BackGround_Feedback.started,BackGround_Feedback.stopped,Feedbacks.started,Feedbacks.stopped,text.started,text.stopped,break_interval.started,break_interval.stopped,mouse.x,mouse.y,mouse.leftButton,mouse.midButton,mouse.rightButton,mouse.started,mouse.stopped,stratnextround.started,stratnextround.stopped,endgame.started,endgame.stopped,participant,date,expName,psychopyVersion,frameRate,
,,,,,,,,,,,,,,,,,,,,,,,,,,,,,,,,,,,,,,,,,,,,,,,,,,,,,,17.51428759994451,None,17.51428759994451,None,space,0.9431104999966919,17.990690400009044,None,,,,,,,,,,,,,,,,,,,,,,,,,,,,,,,,,,,,,,,,,,,,,,,,,,,,,,,,,,,,,,,,,,,,,,,,,,,,,,,,,,,,,,,,,,201,2023-04-24_10h48.23.181,FishGame,2022.1.1,59.16127067059829,
물고기과제_instruction(참가자용)OrangeVersion.mp4,,,,,,,,,,,,,,0,0,0,0,0,0,0,0,,,,,,,,,,,,,,,,,,,,,,,,,,,,,,,,,,,,,,,,,66.5694129000185,None,n,2.540034400066361,66.5694129000185,None,,,,,,,,,,,,,,,,,,,,,,,,,,,,,,,,,,,,,,,,,,,,,,,,,,,,,,,,,,,,,,,,,,,,,,,,,,,,,,,,,,,,201,2023-04-24_10h48.23.181,FishGame,2022.1.1,59.16127067059829,
,1,넌 교활해,5,Green,B,2.333333333333333,2.133333333333333,ScrollUp,ScrollDown,Green.png,practice,,,0,0,0,0,,,,,0,0,0,0,0,0,0,0,,,,,,,,,,,,,,,,,,,,,,,,,,,,,,,,,,,,,,,0.098148145,-0.23425926,1,0,0,0.5141820899443701,None,69.13393610005733,None,73.66965960001107,75.16964580002241,75.20297770004254,76.1529607999837,76.2029641000554,77.15294940001331,77.15294940001331,None,1.6234567910432816,1.0637460000580177,78.42598619998898,None,ScrollUp,정답입니다,78.42598619998898,None,78.42598619998898,None,78.42598619998898,None,78.42598619998898,None,79.2006803000113,None,79.2006803000113,79.70267849997617,,,,,,,,,,,,,,,,,,,,,,,,,,,,,,,,,,,,,,,,,,,,,,,,,201,2023-04-24_10h48.23.181,FishGame,2022.1.1,59.16127067059829,
,2,넌 슬기로워,2,Orange,A,6.166666666666667,4.1,ScrollDown,ScrollUp,Orange.png,practice,,,0,0,0,0,,,,,0,0,0,0,0,1,1,1,,,,,,,,,,,,,,,,,,,,,,,,,,,,,,,,,,,,,,,,,,,,,,,,,,,,,,,,1.1172839403152466,0.8296233000000939,80.31034990004264,None,ScrollDown,정답입니다,80.31034990004264,None,80.31034990004264,None,80.31034990004264,None,80.31034990004264,None,81.05269469995983,None,81.05269469995983,81.55277479998767,,,,,,,,,,,,,,,,,,,,,,,,,,,,,,,,,,,,,,,,,,,,,,,,,201,2023-04-24_10h48.23.181,FishGame,2022.1.1,59.16127067059829,
,3,나를 보내줘,6,Orange,A,0,0,ScrollUp,ScrollDown,Orange.png,practice,,,0,0,0,0,,,,,0,0,0,0,0,2,2,2,,,,,,,,,,,,,,,,,,,,,,,,,,,,,,,,,,,,,,,,,,,,,,,,,,,,,,,,1.8719135870536168,1.012574000051245,82.16545199998654,None,ScrollUp,정답입니다,82.16545199998654,None,82.16545199998654,None,82.16545199998654,None,82.16545199998654,None,83.08366160001606,None,83.08366160001606,83.58471610001288,,,,,,,,,,,,,,,,,,,,,,,,,,,,,,,,,,,,,,,,,,,,,,,,,201,2023-04-24_10h48.23.181,FishGame,2022.1.1,59.16127067059829,
,4,나를 데려가줘,6,Green,B,0,0,ScrollDown,ScrollUp,Green.png,practice,,,0,0,0,0,,,,,0,0,0,0,0,3,3,3,,,,,,,,,,,,,,,,,,,,,,,,,,,,,,,,,,,,,,,,,,,,,,,,,,,,,,,,1.1064814925193787,0.9811386000365019,84.19349640002474,None,ScrollDown,정답입니다,84.19349640002474,None,84.19349640002474,None,84.19349640002474,None,84.19349640002474,None,85.08367099997122,None,85.08367099997122,85.58606520004105,,,,,,,,,,,,,,,,,,,,,,,,,,,,,,,,,,,,,,,,,,,,,,,,,201,2023-04-24_10h48.23.181,FishGame,2022.1.1,59.16127067059829,
,1,넌 교활해,5,Green,B,2.333333333333333,2.133333333333333,ScrollUp,ScrollDown,Green.png,practice,,,0,0,0,0,,,,,0,0,0,0,,,,,,,,,,,,,,,,,,,,,,,,,,,,,,,,,,,,,,,,,,,,,,,,,,,,,,,,,,,,,,,,,,,,,,,,,,,,,,n,3.439799400046468,86.08608309994452,None,86.08608309994452,None,,,,,,,,,,,,,,,,,,,,,,,,,,,,,,,,,,,,,,,,,,,201,2023-04-24_10h48.23.181,FishGame,2022.1.1,59.16127067059829,
,1,넌 따뜻해,1,Green,B,6.083333333333333,5.6,ScrollUp,ScrollDown,Green.png,1,Positive,Incongruent,0,0,0,0,,,,,,,,,,,,,0,0,0,0,,,,,,,,,,,,,,,,,,,,,,,,,,,,,,,,,,,,,,,,,,,,92.98369440005627,94.48594689997844,94.51928560005035,95.46924859995488,95.51921209995635,96.46974209998734,96.46974209998734,None,,,,,,,,,,,,,,,,,,,,,,,,,-0.014814815,-0.117592596,1,0,0,0.31491469009779394,None,89.55238180002198,None,1.819444437821706,1.2910456999670714,97.75437420001253,None,ScrollUp,정답입니다,97.75437420001253,None,97.75437420001253,None,97.75437420001253,None,97.75437420001253,None,98.75041590002365,None,98.75041590002365,99.2522949000122,,,,,,,,,,,,,,,,201,2023-04-24_10h48.23.181,FishGame,2022.1.1,59.16127067059829,
,2,넌 기품있어,2,Green,B,5.791666666666668,4.5,ScrollUp,ScrollDown,Green.png,1,Positive,Incongruent,0,0,0,0,,,,,,,,,,,,,0,1,1,1,,,,,,,,,,,,,,,,,,,,,,,,,,,,,,,,,,,,,,,,,,,,,,,,,,,,,,,,,,,,,,,,,,,,,,,,,,,,,,,,,,,,,1.6265432064731917,0.7628078999696299,99.86302529997192,None,ScrollUp,정답입니다,99.86302529997192,None,99.86302529997192,None,99.86302529997192,None,99.86302529997192,None,100.533292899956,None,100.533292899956,101.03329559997655,,,,,,,,,,,,,,,,201,2023-04-24_10h48.23.181,FishGame,2022.1.1,59.16127067059829,
,3,나를 보내줘,6,Orange,A,0,0,ScrollUp,ScrollDown,Orange.png,1,NonTarget,NonTarget,0,0,0,0,,,,,,,,,,,,,0,2,2,2,,,,,,,,,,,,,,,,,,,,,,,,,,,,,,,,,,,,,,,,,,,,,,,,,,,,,,,,,,,,,,,,,,,,,,,,,,,,,,,,,,,,,1.7314814925193787,0.7808134999359027,101.64637800003402,None,ScrollUp,정답입니다,101.64637800003402,None,101.64637800003402,None,101.64637800003402,None,101.64637800003402,None,102.33331719995476,None,102.33331719995476,102.83572139998432,,,,,,,,,,,,,,,,201,2023-04-24_10h48.23.181,FishGame,2022.1.1,59.16127067059829,
,4,넌 수동적이야,4,Orange,A,2.833333333333333,2.933333333333333,ScrollDown,ScrollUp,Orange.png,1,Negative,Incongruent,0,0,0,0,,,,,,,,,,,,,0,3,3,3,,,,,,,,,,,,,,,,,,,,,,,,,,,,,,,,,,,,,,,,,,,,,,,,,,,,,,,,,,,,,,,,,,,,,,,,,,,,,,,,,,,,,1.3179012288649878,0.8148407000117004,103.45459790003952,None,ScrollDown,정답입니다,103.45459790003952,None,103.45459790003952,None,103.45459790003952,None,103.45459790003952,None,104.16896589996759,None,104.16896589996759,104.66904810001142,,,,,,,,,,,,,,,,201,2023-04-24_10h48.23.181,FishGame,2022.1.1,59.16127067059829,
,5,넌 사심이 없어,3,Green,B,4.916666666666666,4.333333333333333,ScrollUp,ScrollDown,Green.png,1,Neutral,Neutral,0,0,0,0,,,,,,,,,,,,,0,4,4,4,,,,,,,,,,,,,,,,,,,,,,,,,,,,,,,,,,,,,,,,,,,,,,,,,,,,,,,,,,,,,,,,,,,,,,,,,,,,,,,,,,,,,1.4598765435318153,0.6794040999375284,105.27859260002151,None,NoResponse,무응답입니다,105.27859260002151,None,105.27859260002151,None,105.27859260002151,None,105.27859260002151,None,105.8668182999827,None,105.8668182999827,106.36890140001196,,,,,,,,,,,,,,,,201,2023-04-24_10h48.23.181,FishGame,2022.1.1,59.16127067059829,
,6,넌 헤퍼,5,Orange,A,2.458333333333334,2.233333333333333,ScrollDown,ScrollUp,Orange.png,1,Negative,Incongruent,0,0,0,0,,,,,,,,,,,,,0,5,5,5,,,,,,,,,,,,,,,,,,,,,,,,,,,,,,,,,,,,,,,,,,,,,,,,,,,,,,,,,,,,,,,,,,,,,,,,,,,,,,,,,,,,,1.2993827114502587,0.7794294999912381,106.98598760005552,None,ScrollDown,정답입니다,106.98598760005552,None,106.98598760005552,None,106.98598760005552,None,106.98598760005552,None,107.66673629998695,None,107.66673629998695,108.1687518999679,,,,,,,,,,,,,,,,201,2023-04-24_10h48.23.181,FishGame,2022.1.1,59.16127067059829,
,7,넌 말쑥해,3,Orange,A,4.833333333333334,4.333333333333333,ScrollDown,ScrollUp,Orange.png,1,Neutral,Neutral,0,0,0,0,,,,,,,,,,,,,0,6,6,6,,,,,,,,,,,,,,,,,,,,,,,,,,,,,,,,,,,,,,,,,,,,,,,,,,,,,,,,,,,,,,,,,,,,,,,,,,,,,,,,,,,,,1.2438271592060726,0.8127138999989256,108.78000030003022,None,ScrollDown,정답입니다,108.78000030003022,None,108.78000030003022,None,108.78000030003022,None,108.78000030003022,None,109.50206920003984,None,109.50206920003984,110.002659699996,,,,,,,,,,,,,,,,201,2023-04-24_10h48.23.181,FishGame,2022.1.1,59.16127067059829,
,8,넌 투덜거려,5,Green,B,2.541666666666667,2.266666666666667,ScrollUp,ScrollDown,Green.png,1,Negative,Congruent,0,0,0,0,,,,,,,,,,,,,0,7,7,7,,,,,,,,,,,,,,,,,,,,,,,,,,,,,,,,,,,,,,,,,,,,,,,,,,,,,,,,,,,,,,,,,,,,,,,,,,,,,,,,,,,,,1.7793209999799728,1.3290560999885201,110.61340869998094,None,ScrollUp,정답입니다,110.61340869998094,None,110.61340869998094,None,110.61340869998094,None,110.61340869998094,None,111.84971500001848,None,111.84971500001848,112.34979550004937,,,,,,,,,,,,,,,,201,2023-04-24_10h48.23.181,FishGame,2022.1.1,59.16127067059829,
,9,넌 적극적이야,1,Orange,A,5.708333333333333,5.533333333333333,ScrollDown,ScrollUp,Orange.png,1,Positive,Congruent,0,0,0,0,,,,,,,,,,,,,0,8,8,8,,,,,,,,,,,,,,,,,,,,,,,,,,,,,,,,,,,,,,,,,,,,,,,,,,,,,,,,,,,,,,,,,,,,,,,,,,,,,,,,,,,,,1.0740740497907002,0.7989480000687763,112.96136169997044,None,ScrollDown,정답입니다,112.96136169997044,None,112.96136169997044,None,112.96136169997044,None,112.96136169997044,None,113.65510710002854,None,113.65510710002854,114.16877270000987,,,,,,,,,,,,,,,,201,2023-04-24_10h48.23.181,FishGame,2022.1.1,59.16127067059829,
,10,넌 재미없어,4,Green,B,2.625,2.966666666666667,ScrollUp,ScrollDown,Green.png,1,Negative,Congruent,0,0,0,0,,,,,,,,,,,,,0,9,9,9,,,,,,,,,,,,,,,,,,,,,,,,,,,,,,,,,,,,,,,,,,,,,,,,,,,,,,,,,,,,,,,,,,,,,,,,,,,,,,,,,,,,,1.8487654278675716,0.6798784000566229,114.77767400001176,None,ScrollUp,정답입니다,114.77767400001176,None,114.77767400001176,None,114.77767400001176,None,114.77767400001176,None,115.36877990001813,None,115.36877990001813,115.86871680000331,,,,,,,,,,,,,,,,201,2023-04-24_10h48.23.181,FishGame,2022.1.1,59.16127067059829,
,11,넌 명석해,2,Orange,A,5.875,4.033333333333333,ScrollDown,ScrollUp,Orange.png,1,Positive,Congruent,0,0,0,0,,,,,,,,,,,,,0,10,10,10,,,,,,,,,,,,,,,,,,,,,,,,,,,,,,,,,,,,,,,,,,,,,,,,,,,,,,,,,,,,,,,,,,,,,,,,,,,,,,,,,,,,,1.0817901194095612,0.6946776000550017,116.48482869996224,None,ScrollDown,정답입니다,116.48482869996224,None,116.48482869996224,None,116.48482869996224,None,116.48482869996224,None,117.08530280005652,None,117.08530280005652,117.58528550004121,,,,,,,,,,,,,,,,201,2023-04-24_10h48.23.181,FishGame,2022.1.1,59.16127067059829,
,12,나를 데려가줘,6,Green,B,0,0,ScrollDown,ScrollUp,Green.png,1,NonTarget,NonTarget,0,0,0,0,,,,,,,,,,,,,0,11,11,11,,,,,,,,,,,,,,,,,,,,,,,,,,,,,,,,,,,,,,,,,,,,,,,,,,,,,,,,,,,,,,,,,,,,,,,,,,,,,,,,,,,,,1.1867283930381138,0.8123988000443205,118.19515010004397,None,ScrollDown,정답입니다,118.19515010004397,None,118.19515010004397,None,118.19515010004397,None,118.19515010004397,None,118.91624699998647,None,118.91624699998647,119.4162529000314,,,,,,,,,,,,,,,,201,2023-04-24_10h48.23.181,FishGame,2022.1.1,59.16127067059829,
,13,넌 소심해,4,Orange,A,3,3.1,ScrollDown,ScrollUp,Orange.png,1,Negative,Incongruent,0,0,0,0,,,,,,,,,,,,,0,12,12,12,,,,,,,,,,,,,,,,,,,,,,,,,,,,,,,,,,,,,,,,,,,,,,,,,,,,,,,,,,,,,,,,,,,,,,,,,,,,,,,,,,,,,1.1682098756233852,0.88151450001169,120.02358899998944,None,ScrollDown,정답입니다,120.02358899998944,None,120.02358899998944,None,120.02358899998944,None,120.02358899998944,None,120.81626610003877,None,120.81626610003877,121.31866510002874,,,,,,,,,,,,,,,,201,2023-04-24_10h48.23.181,FishGame,2022.1.1,59.16127067059829,
,14,넌 합리적이야,2,Orange,A,5.583333333333333,4.733333333333333,ScrollDown,ScrollUp,Orange.png,1,Positive,Congruent,0,0,0,0,,,,,,,,,,,,,0,13,13,13,,,,,,,,,,,,,,,,,,,,,,,,,,,,,,,,,,,,,,,,,,,,,,,,,,,,,,,,,,,,,,,,,,,,,,,,,,,,,,,,,,,,,1.1126543233791988,0.7794831999344751,121.93043680000119,None,ScrollDown,정답입니다,121.93043680000119,None,121.93043680000119,None,121.93043680000119,None,121.93043680000119,None,122.6186894000275,None,122.6186894000275,123.11859179998282,,,,,,,,,,,,,,,,201,2023-04-24_10h48.23.181,FishGame,2022.1.1,59.16127067059829,
,15,넌 무자비해,5,Green,B,2.333333333333333,2.1,ScrollUp,ScrollDown,Green.png,1,Negative,Congruent,0,0,0,0,,,,,,,,,,,,,0,14,14,14,,,,,,,,,,,,,,,,,,,,,,,,,,,,,,,,,,,,,,,,,,,,,,,,,,,,,,,,,,,,,,,,,,,,,,,,,,,,,,,,,,,,,1.4799382717659075,0.6762900999747217,123.73158839996904,None,NoResponse,무응답입니다,123.73158839996904,None,123.73158839996904,None,123.73158839996904,None,123.73158839996904,None,124.31642519996967,None,124.31642519996967,124.8185352999717,,,,,,,,,,,,,,,,201,2023-04-24_10h48.23.181,FishGame,2022.1.1,59.16127067059829,
,16,나를 보내줘,6,Orange,A,0,0,ScrollUp,ScrollDown,Orange.png,1,NonTarget,NonTarget,0,0,0,0,,,,,,,,,,,,,0,15,15,15,,,,,,,,,,,,,,,,,,,,,,,,,,,,,,,,,,,,,,,,,,,,,,,,,,,,,,,,,,,,,,,,,,,,,,,,,,,,,,,,,,,,,1.9490740597248077,0.9128450999269262,125.42596220003907,None,ScrollUp,정답입니다,125.42596220003907,None,125.42596220003907,None,125.42596220003907,None,125.42596220003907,None,126.25174940004945,None,126.25174940004945,126.75173190003261,,,,,,,,,,,,,,,,201,2023-04-24_10h48.23.181,FishGame,2022.1.1,59.16127067059829,
,17,넌 현실적이야,3,Green,B,4.608695652173913,4.766666666666667,ScrollUp,ScrollDown,Green.png,1,Neutral,Neutral,0,0,0,0,,,,,,,,,,,,,0,16,16,16,,,,,,,,,,,,,,,,,,,,,,,,,,,,,,,,,,,,,,,,,,,,,,,,,,,,,,,,,,,,,,,,,,,,,,,,,,,,,,,,,,,,,1.5740740758677325,0.6965025999816135,127.36019849998411,None,ScrollUp,정답입니다,127.36019849998411,None,127.36019849998411,None,127.36019849998411,None,127.36019849998411,None,127.96845180005766,None,127.96845180005766,128.46841820003465,,,,,,,,,,,,,,,,201,2023-04-24_10h48.23.181,FishGame,2022.1.1,59.16127067059829,
,18,넌 의리있어,1,Green,B,5.833333333333334,5.633333333333334,ScrollUp,ScrollDown,Green.png,1,Positive,Incongruent,0,0,0,0,,,,,,,,,,,,,0,17,17,17,,,,,,,,,,,,,,,,,,,,,,,,,,,,,,,,,,,,,,,,,,,,,,,,,,,,,,,,,,,,,,,,,,,,,,,,,,,,,,,,,,,,,1.703703703979651,0.7315120999701321,129.08388080005534,None,ScrollUp,정답입니다,129.08388080005534,None,129.08388080005534,None,129.08388080005534,None,129.08388080005534,None,129.71852660004515,None,129.71852660004515,130.22162329999264,,,,,,,,,,,,,,,,201,2023-04-24_10h48.23.181,FishGame,2022.1.1,59.16127067059829,
,19,넌 신경과민이야,5,Orange,A,2.541666666666667,2.166666666666667,ScrollDown,ScrollUp,Orange.png,1,Negative,Incongruent,0,0,0,0,,,,,,,,,,,,,0,18,18,18,,,,,,,,,,,,,,,,,,,,,,,,,,,,,,,,,,,,,,,,,,,,,,,,,,,,,,,,,,,,,,,,,,,,,,,,,,,,,,,,,,,,,1.1666666616996129,0.7964572999626398,130.83334050001577,None,ScrollDown,정답입니다,130.83334050001577,None,130.83334050001577,None,130.83334050001577,None,130.83334050001577,None,131.5349234000314,None,131.5349234000314,132.0349463999737,,,,,,,,,,,,,,,,201,2023-04-24_10h48.23.181,FishGame,2022.1.1,59.16127067059829,
,20,넌 편안해,1,Orange,A,5.916666666666666,5.866666666666666,ScrollDown,ScrollUp,Orange.png,1,Positive,Congruent,0,0,0,0,,,,,,,,,,,,,0,19,19,19,,,,,,,,,,,,,,,,,,,,,,,,,,,,,,,,,,,,,,,,,,,,,,,,,,,,,,,,,,,,,,,,,,,,,,,,,,,,,,,,,,,,,1.2021604826052983,0.7975627999985591,132.64629519998562,None,ScrollDown,정답입니다,132.64629519998562,None,132.64629519998562,None,132.64629519998562,None,132.64629519998562,None,133.35161899996456,None,133.35161899996456,133.85159059998114,,,,,,,,,,,,,,,,201,2023-04-24_10h48.23.181,FishGame,2022.1.1,59.16127067059829,
,21,넌 품위있어,2,Green,B,5.291666666666666,4.466666666666667,ScrollUp,ScrollDown,Green.png,1,Positive,Incongruent,0,0,0,0,,,,,,,,,,,,,0,20,20,20,,,,,,,,,,,,,,,,,,,,,,,,,,,,,,,,,,,,,,,,,,,,,,,,,,,,,,,,,,,,,,,,,,,,,,,,,,,,,,,,,,,,,1.90586419403553,0.7796496000373736,134.4589178999886,None,ScrollUp,정답입니다,134.4589178999886,None,134.4589178999886,None,134.4589178999886,None,134.4589178999886,None,135.15152389998548,None,135.15152389998548,135.65149169997312,,,,,,,,,,,,,,,,201,2023-04-24_10h48.23.181,FishGame,2022.1.1,59.16127067059829,
,22,넌 빈틈없어,3,Orange,A,4.833333333333333,3.966666666666667,ScrollDown,ScrollUp,Orange.png,1,Neutral,Neutral,0,0,0,0,,,,,,,,,,,,,0,21,21,21,,,,,,,,,,,,,,,,,,,,,,,,,,,,,,,,,,,,,,,,,,,,,,,,,,,,,,,,,,,,,,,,,,,,,,,,,,,,,,,,,,,,,1.182098776102066,0.9297415000619367,136.2626962000504,None,ScrollDown,정답입니다,136.2626962000504,None,136.2626962000504,None,136.2626962000504,None,136.2626962000504,None,137.10151469998527,None,137.10151469998527,137.60152819997165,,,,,,,,,,,,,,,,201,2023-04-24_10h48.23.181,FishGame,2022.1.1,59.16127067059829,
,23,넌 상상력없어,4,Green,B,2.833333333333333,3.133333333333333,ScrollUp,ScrollDown,Green.png,1,Negative,Congruent,0,0,0,0,,,,,,,,,,,,,0,22,22,22,,,,,,,,,,,,,,,,,,,,,,,,,,,,,,,,,,,,,,,,,,,,,,,,,,,,,,,,,,,,,,,,,,,,,,,,,,,,,,,,,,,,,1.807098776102066,0.8295664000324905,138.2101642000489,None,ScrollUp,정답입니다,138.2101642000489,None,138.2101642000489,None,138.2101642000489,None,138.2101642000489,None,138.95152410003357,None,138.95152410003357,139.4515306999674,,,,,,,,,,,,,,,,201,2023-04-24_10h48.23.181,FishGame,2022.1.1,59.16127067059829,
,24,넌 지혜로워,2,Green,B,6.333333333333334,4.633333333333334,ScrollUp,ScrollDown,Green.png,1,Positive,Incongruent,0,0,0,0,,,,,,,,,,,,,0,23,23,23,,,,,,,,,,,,,,,,,,,,,,,,,,,,,,,,,,,,,,,,,,,,,,,,,,,,,,,,,,,,,,,,,,,,,,,,,,,,,,,,,,,,,1.825617293516795,0.8617946000304073,140.0649535000557,None,ScrollUp,정답입니다,140.0649535000557,None,140.0649535000557,None,140.0649535000557,None,140.0649535000557,None,140.83475359994918,None,140.83475359994918,141.3330169999972,,,,,,,,,,,,,,,,201,2023-04-24_10h48.23.181,FishGame,2022.1.1,59.16127067059829,
,25,넌 시끄러워,4,Orange,A,2.833333333333333,3.033333333333333,ScrollDown,ScrollUp,Orange.png,1,Negative,Incongruent,0,0,0,0,,,,,,,,,,,,,0,24,24,24,,,,,,,,,,,,,,,,,,,,,,,,,,,,,,,,,,,,,,,,,,,,,,,,,,,,,,,,,,,,,,,,,,,,,,,,,,,,,,,,,,,,,1.192901223897934,0.831536200013943,141.9471737999702,None,ScrollDown,정답입니다,141.9471737999702,None,141.9471737999702,None,141.9471737999702,None,141.9471737999702,None,142.6847558999434,None,142.6847558999434,143.1848086999962,,,,,,,,,,,,,,,,201,2023-04-24_10h48.23.181,FishGame,2022.1.1,59.16127067059829,
,26,넌 만사태평이야,3,Green,B,4,4.333333333333333,ScrollUp,ScrollDown,Green.png,1,Neutral,Neutral,0,0,0,0,,,,,,,,,,,,,0,25,25,25,,,,,,,,,,,,,,,,,,,,,,,,,,,,,,,,,,,,,,,,,,,,,,,,,,,,,,,,,,,,,,,,,,,,,,,,,,,,,,,,,,,,,1.4799382717659075,0.7123604000080377,143.79920350003522,None,NoResponse,무응답입니다,143.79920350003522,None,143.79920350003522,None,143.79920350003522,None,143.79920350003522,None,144.41570290003438,None,144.41570290003438,144.915880799992,,,,,,,,,,,,,,,,201,2023-04-24_10h48.23.181,FishGame,2022.1.1,59.16127067059829,
,27,넌 붙임성있어,1,Orange,A,5.708333333333333,5.633333333333334,ScrollDown,ScrollUp,Orange.png,1,Positive,Congruent,0,0,0,0,,,,,,,,,,,,,0,26,26,26,,,,,,,,,,,,,,,,,,,,,,,,,,,,,,,,,,,,,,,,,,,,,,,,,,,,,,,,,,,,,,,,,,,,,,,,,,,,,,,,,,,,,1.3179012288649878,0.7647266000276431,145.52765299996827,None,ScrollDown,정답입니다,145.52765299996827,None,145.52765299996827,None,145.52765299996827,None,145.52765299996827,None,146.19908869999927,None,146.19908869999927,146.7014285000041,,,,,,,,,,,,,,,,201,2023-04-24_10h48.23.181,FishGame,2022.1.1,59.16127067059829,
,28,넌 영리해,2,Orange,A,6,4.033333333333333,ScrollDown,ScrollUp,Orange.png,1,Positive,Congruent,0,0,0,0,,,,,,,,,,,,,0,27,27,27,,,,,,,,,,,,,,,,,,,,,,,,,,,,,,,,,,,,,,,,,,,,,,,,,,,,,,,,,,,,,,,,,,,,,,,,,,,,,,,,,,,,,1.1080246816078823,0.7647297999355942,147.31140959996264,None,ScrollDown,정답입니다,147.31140959996264,None,147.31140959996264,None,147.31140959996264,None,147.31140959996264,None,147.98479020001832,None,147.98479020001832,148.48484529997222,,,,,,,,,,,,,,,,201,2023-04-24_10h48.23.181,FishGame,2022.1.1,59.16127067059829,
,29,넌 열심이야,1,Green,B,6.041666666666667,5.833333333333333,ScrollUp,ScrollDown,Green.png,1,Positive,Incongruent,0,0,0,0,,,,,,,,,,,,,0,28,28,28,,,,,,,,,,,,,,,,,,,,,,,,,,,,,,,,,,,,,,,,,,,,,,,,,,,,,,,,,,,,,,,,,,,,,,,,,,,,,,,,,,,,,1.7777777860562007,0.623428100021556,149.0985398000339,None,ScrollUp,정답입니다,149.0985398000339,None,149.0985398000339,None,149.0985398000339,None,149.0985398000339,None,149.63465609995183,None,149.63465609995183,150.13516259996686,,,,,,,,,,,,,,,,201,2023-04-24_10h48.23.181,FishGame,2022.1.1,59.16127067059829,
,30,넌 인기없어,4,Green,B,3,3.3,ScrollUp,ScrollDown,Green.png,1,Negative,Congruent,0,0,0,0,,,,,,,,,,,,,0,29,29,29,,,,,,,,,,,,,,,,,,,,,,,,,,,,,,,,,,,,,,,,,,,,,,,,,,,,,,,,,,,,,,,,,,,,,,,,,,,,,,,,,,,,,2,0.7627687000203878,150.74272610002663,None,ScrollUp,정답입니다,150.74272610002663,None,150.74272610002663,None,150.74272610002663,None,150.74272610002663,None,151.4178562000161,None,151.4178562000161,151.9178328999551,,,,,,,,,,,,,,,,201,2023-04-24_10h48.23.181,FishGame,2022.1.1,59.16127067059829,
,31,넌 익살스러워,3,Orange,A,4.708333333333334,4.833333333333333,ScrollDown,ScrollUp,Orange.png,1,Neutral,Neutral,0,0,0,0,,,,,,,,,,,,,0,30,30,30,,,,,,,,,,,,,,,,,,,,,,,,,,,,,,,,,,,,,,,,,,,,,,,,,,,,,,,,,,,,,,,,,,,,,,,,,,,,,,,,,,,,,1.2206790000200272,0.7127196000656113,152.5332064999966,None,ScrollDown,정답입니다,152.5332064999966,None,152.5332064999966,None,152.5332064999966,None,152.5332064999966,None,153.15115519997198,None,153.15115519997198,153.65117129997816,,,,,,,,,,,,,,,,201,2023-04-24_10h48.23.181,FishGame,2022.1.1,59.16127067059829,
,32,넌 이기적이야,5,Green,B,2.291666666666667,2.333333333333333,ScrollUp,ScrollDown,Green.png,1,Negative,Congruent,0,0,0,0,,,,,,,,,,,,,0,31,31,31,,,,,,,,,,,,,,,,,,,,,,,,,,,,,,,,,,,,,,,,,,,,,,,,,,,,,,,,,,,,,,,,,,,,,,,,,,,,,,,,,,,,,2,0.6984065000433475,154.25641140004154,None,ScrollUp,정답입니다,154.25641140004154,None,154.25641140004154,None,154.25641140004154,None,154.25641140004154,None,154.8678275999846,None,154.8678275999846,155.36783290002495,,,,,,,,,,,,,,,,201,2023-04-24_10h48.23.181,FishGame,2022.1.1,59.16127067059829,
,33,나를 데려가줘,6,Green,B,0,0,ScrollDown,ScrollUp,Green.png,1,NonTarget,NonTarget,0,0,0,0,,,,,,,,,,,,,0,32,32,32,,,,,,,,,,,,,,,,,,,,,,,,,,,,,,,,,,,,,,,,,,,,,,,,,,,,,,,,,,,,,,,,,,,,,,,,,,,,,,,,,,,,,1,1.0118532000342384,155.9755845000036,None,ScrollDown,정답입니다,155.9755845000036,None,155.9755845000036,None,155.9755845000036,None,155.9755845000036,None,156.90112639998551,None,156.90112639998551,157.40108109998982,,,,,,,,,,,,,,,,201,2023-04-24_10h48.23.181,FishGame,2022.1.1,59.16127067059829,
,34,넌 기회주의자야,5,Orange,A,2.875,2.133333333333333,ScrollDown,ScrollUp,Orange.png,1,Negative,Incongruent,0,0,0,0,,,,,,,,,,,,,0,33,33,33,,,,,,,,,,,,,,,,,,,,,,,,,,,,,,,,,,,,,,,,,,,,,,,,,,,,,,,,,,,,,,,,,,,,,,,,,,,,,,,,,,,,,1,1.0984171000309289,158.01193459995557,None,ScrollDown,정답입니다,158.01193459995557,None,158.01193459995557,None,158.01193459995557,None,158.01193459995557,None,159.01773469999898,None,159.01773469999898,159.51779630000237,,,,,,,,,,,,,,,,201,2023-04-24_10h48.23.181,FishGame,2022.1.1,59.16127067059829,
,1,넌 미성숙해,4,Orange,A,3,3.2,ScrollDown,ScrollUp,Orange.png,2,Negative,Incongruent,0,0,0,0,,,,,,,,,,,,,,,,,0,0,0,0,,,,,,,,,,,,,,,,,,,,,,,,,,,,,,,,,,,,,,,,191.71708059997763,193.2203832999803,193.23687350004911,194.20051929994952,194.25054699997418,195.20353840000462,195.18713279999793,None,,,,,,,,,,,,,,,,,,,,,,,,,,,,,,,,,,1.3641975348194442,0.7955060000531375,196.28499389998615,None,ScrollDown,정답입니다,196.28499389998615,None,196.28499389998615,None,196.28499389998615,None,196.28499389998615,None,196.98366549995262,None,196.98366549995262,197.48681559995748,160.017770400038,None,160.017770400038,None,0.18148148,-0.10462963,1,0,0,0.016298689995892346,None,190.0199459999567,None,,,201,2023-04-24_10h48.23.181,FishGame,2022.1.1,59.16127067059829,
,2,넌 반사회적이야,5,Green,B,2.416666666666667,2.033333333333333,ScrollUp,ScrollDown,Green.png,2,Negative,Congruent,0,0,0,0,,,,,,,,,,,,,,,,,0,1,1,1,,,,,,,,,,,,,,,,,,,,,,,,,,,,,,,,,,,,,,,,,,,,,,,,,,,,,,,,,,,,,,,,,,,,,,,,,,,,,,,,,1.7052469179034233,0.679472399991937,198.09113760001492,None,ScrollUp,정답입니다,198.09113760001492,None,198.09113760001492,None,198.09113760001492,None,198.09113760001492,None,198.68368639994878,None,198.68368639994878,199.18355720001273,,,,,,,,,,,,,,,,201,2023-04-24_10h48.23.181,FishGame,2022.1.1,59.16127067059829,
,3,넌 유능해,2,Orange,A,6.208333333333333,4.433333333333334,ScrollDown,ScrollUp,Orange.png,2,Positive,Congruent,0,0,0,0,,,,,,,,,,,,,,,,,0,2,2,2,,,,,,,,,,,,,,,,,,,,,,,,,,,,,,,,,,,,,,,,,,,,,,,,,,,,,,,,,,,,,,,,,,,,,,,,,,,,,,,,,1.234567900498708,0.7149356999434531,199.79425669997,None,ScrollDown,정답입니다,199.79425669997,None,199.79425669997,None,199.79425669997,None,199.79425669997,None,200.41689029999543,None,200.41689029999543,200.9168777000159,,,,,,,,,,,,,,,,201,2023-04-24_10h48.23.181,FishGame,2022.1.1,59.16127067059829,
,4,넌 능숙해,2,Green,B,5.666666666666667,4.733333333333333,ScrollUp,ScrollDown,Green.png,2,Positive,Incongruent,0,0,0,0,,,,,,,,,,,,,,,,,0,3,3,3,,,,,,,,,,,,,,,,,,,,,,,,,,,,,,,,,,,,,,,,,,,,,,,,,,,,,,,,,,,,,,,,,,,,,,,,,,,,,,,,,1.6805555572112403,0.7292904999339953,201.52153779997025,None,ScrollUp,정답입니다,201.52153779997025,None,201.52153779997025,None,201.52153779997025,None,201.52153779997025,None,202.16677739995066,None,202.16677739995066,202.68348600005265,,,,,,,,,,,,,,,,201,2023-04-24_10h48.23.181,FishGame,2022.1.1,59.16127067059829,
,5,넌 진부해,4,Green,B,2.458333333333333,3.166666666666667,ScrollUp,ScrollDown,Green.png,2,Negative,Congruent,0,0,0,0,,,,,,,,,,,,,,,,,0,4,4,4,,,,,,,,,,,,,,,,,,,,,,,,,,,,,,,,,,,,,,,,,,,,,,,,,,,,,,,,,,,,,,,,,,,,,,,,,,,,,,,,,1.6435185223817825,0.7130382999312133,203.27458750002552,None,ScrollUp,정답입니다,203.27458750002552,None,203.27458750002552,None,203.27458750002552,None,203.27458750002552,None,203.90031030005775,None,203.90031030005775,204.4001476999838,,,,,,,,,,,,,,,,201,2023-04-24_10h48.23.181,FishGame,2022.1.1,59.16127067059829,
,6,나를 보내줘,6,Orange,A,0,0,ScrollUp,ScrollDown,Orange.png,2,NonTarget,NonTarget,0,0,0,0,,,,,,,,,,,,,,,,,0,5,5,5,,,,,,,,,,,,,,,,,,,,,,,,,,,,,,,,,,,,,,,,,,,,,,,,,,,,,,,,,,,,,,,,,,,,,,,,,,,,,,,,,1.560185187806686,0.8317185000050813,205.00895429996308,None,ScrollUp,정답입니다,205.00895429996308,None,205.00895429996308,None,205.00895429996308,None,205.00895429996308,None,205.7501052999869,None,205.7501052999869,206.25014859996736,,,,,,,,,,,,,,,,201,2023-04-24_10h48.23.181,FishGame,2022.1.1,59.16127067059829,
,7,넌 엄격해,3,Orange,A,4.166666666666666,4.1,ScrollDown,ScrollUp,Orange.png,2,Neutral,Neutral,0,0,0,0,,,,,,,,,,,,,,,,,0,6,6,6,,,,,,,,,,,,,,,,,,,,,,,,,,,,,,,,,,,,,,,,,,,,,,,,,,,,,,,,,,,,,,,,,,,,,,,,,,,,,,,,,1.120370368162791,0.8125649000285193,206.86585629999172,None,ScrollDown,정답입니다,206.86585629999172,None,206.86585629999172,None,206.86585629999172,None,206.86585629999172,None,207.58110900002066,None,207.58110900002066,208.08108599996194,,,,,,,,,,,,,,,,201,2023-04-24_10h48.23.181,FishGame,2022.1.1,59.16127067059829,
,8,나를 보내줘,6,Orange,A,0,0,ScrollUp,ScrollDown,Orange.png,2,NonTarget,NonTarget,0,0,0,0,,,,,,,,,,,,,,,,,0,7,7,7,,,,,,,,,,,,,,,,,,,,,,,,,,,,,,,,,,,,,,,,,,,,,,,,,,,,,,,,,,,,,,,,,,,,,,,,,,,,,,,,,1.537037037933866,0.7978014999534935,208.68702920002397,None,NoResponse,무응답입니다,208.68702920002397,None,208.68702920002397,None,208.68702920002397,None,208.68702920002397,None,209.39782109996304,None,209.39782109996304,209.90012550004758,,,,,,,,,,,,,,,,201,2023-04-24_10h48.23.181,FishGame,2022.1.1,59.16127067059829,
,9,넌 대담해,3,Green,B,4.875,4.866666666666666,ScrollUp,ScrollDown,Green.png,2,Neutral,Neutral,0,0,0,0,,,,,,,,,,,,,,,,,0,8,8,8,,,,,,,,,,,,,,,,,,,,,,,,,,,,,,,,,,,,,,,,,,,,,,,,,,,,,,,,,,,,,,,,,,,,,,,,,,,,,,,,,1.9074074079593022,0.831745499977842,210.50861779996194,None,ScrollUp,정답입니다,210.50861779996194,None,210.50861779996194,None,210.50861779996194,None,210.50861779996194,None,211.25022529996932,None,211.25022529996932,211.75347100000363,,,,,,,,,,,,,,,,201,2023-04-24_10h48.23.181,FishGame,2022.1.1,59.16127067059829,
,10,넌 꾸준해,1,Orange,A,5.916666666666668,5.8,ScrollDown,ScrollUp,Orange.png,2,Positive,Congruent,0,0,0,0,,,,,,,,,,,,,,,,,0,9,9,9,,,,,,,,,,,,,,,,,,,,,,,,,,,,,,,,,,,,,,,,,,,,,,,,,,,,,,,,,,,,,,,,,,,,,,,,,,,,,,,,,1.2700617214043937,0.8485060000093654,212.36043520004023,None,ScrollDown,정답입니다,212.36043520004023,None,212.36043520004023,None,212.36043520004023,None,212.36043520004023,None,213.11670719995163,None,213.11670719995163,213.61663219996262,,,,,,,,,,,,,,,,201,2023-04-24_10h48.23.181,FishGame,2022.1.1,59.16127067059829,
,11,나를 데려가줘,6,Green,B,0,0,ScrollDown,ScrollUp,Green.png,2,NonTarget,NonTarget,0,0,0,0,,,,,,,,,,,,,,,,,0,10,10,10,,,,,,,,,,,,,,,,,,,,,,,,,,,,,,,,,,,,,,,,,,,,,,,,,,,,,,,,,,,,,,,,,,,,,,,,,,,,,,,,,1.1759259204069774,0.7959857999812812,214.22210969997104,None,ScrollDown,정답입니다,214.22210969997104,None,214.22210969997104,None,214.22210969997104,None,214.22210969997104,None,214.93322859995533,None,214.93322859995533,215.43321759998798,,,,,,,,,,,,,,,,201,2023-04-24_10h48.23.181,FishGame,2022.1.1,59.16127067059829,
,12,넌 독선적이야,5,Orange,A,2.458333333333333,1.933333333333333,ScrollDown,ScrollUp,Orange.png,2,Negative,Incongruent,0,0,0,0,,,,,,,,,,,,,,,,,0,11,11,11,,,,,,,,,,,,,,,,,,,,,,,,,,,,,,,,,,,,,,,,,,,,,,,,,,,,,,,,,,,,,,,,,,,,,,,,,,,,,,,,,1.3101851840813956,0.7127514999592677,216.04895069997292,None,ScrollDown,정답입니다,216.04895069997292,None,216.04895069997292,None,216.04895069997292,None,216.04895069997292,None,216.66453609999735,None,216.66453609999735,217.1665297000436,,,,,,,,,,,,,,,,201,2023-04-24_10h48.23.181,FishGame,2022.1.1,59.16127067059829,
,13,나를 보내줘,6,Orange,A,0,0,ScrollUp,ScrollDown,Orange.png,2,NonTarget,NonTarget,0,0,0,0,,,,,,,,,,,,,,,,,0,12,12,12,,,,,,,,,,,,,,,,,,,,,,,,,,,,,,,,,,,,,,,,,,,,,,,,,,,,,,,,,,,,,,,,,,,,,,,,,,,,,,,,,1.7762345721324284,0.8316431998973712,217.77344520005863,None,ScrollUp,정답입니다,217.77344520005863,None,217.77344520005863,None,217.77344520005863,None,217.77344520005863,None,218.51656809996348,None,218.51656809996348,219.0165853999788,,,,,,,,,,,,,,,,201,2023-04-24_10h48.23.181,FishGame,2022.1.1,59.16127067059829,
,14,넌 책임감있어,1,Green,B,6.347826086956522,6,ScrollUp,ScrollDown,Green.png,2,Positive,Incongruent,0,0,0,0,,,,,,,,,,,,,,,,,0,13,13,13,,,,,,,,,,,,,,,,,,,,,,,,,,,,,,,,,,,,,,,,,,,,,,,,,,,,,,,,,,,,,,,,,,,,,,,,,,,,,,,,,1.9151234527428944,0.8095537999179214,219.628344799974,None,ScrollUp,정답입니다,219.628344799974,None,219.628344799974,None,219.628344799974,None,219.628344799974,None,220.3497526999563,None,220.3497526999563,220.84977530001197,,,,,,,,,,,,,,,,201,2023-04-24_10h48.23.181,FishGame,2022.1.1,59.16127067059829,
,15,넌 문학적이야,3,Orange,A,4.708333333333334,4.333333333333333,ScrollDown,ScrollUp,Orange.png,2,Neutral,Neutral,0,0,0,0,,,,,,,,,,,,,,,,,0,14,14,14,,,,,,,,,,,,,,,,,,,,,,,,,,,,,,,,,,,,,,,,,,,,,,,,,,,,,,,,,,,,,,,,,,,,,,,,,,,,,,,,,1.1311728407939274,0.6985138999298215,221.46054789994378,None,ScrollDown,정답입니다,221.46054789994378,None,221.46054789994378,None,221.46054789994378,None,221.46054789994378,None,222.06644550000783,None,222.06644550000783,222.5665219000075,,,,,,,,,,,,,,,,201,2023-04-24_10h48.23.181,FishGame,2022.1.1,59.16127067059829,
,16,넌 재미있어,1,Green,B,5.875,5.7,ScrollUp,ScrollDown,Green.png,2,Positive,Incongruent,0,0,0,0,,,,,,,,,,,,,,,,,0,15,15,15,,,,,,,,,,,,,,,,,,,,,,,,,,,,,,,,,,,,,,,,,,,,,,,,,,,,,,,,,,,,,,,,,,,,,,,,,,,,,,,,,1.8966049353281658,0.7426532000536099,223.17998110002372,None,ScrollUp,정답입니다,223.17998110002372,None,223.17998110002372,None,223.17998110002372,None,223.17998110002372,None,223.83077270002104,None,223.83077270002104,224.33092640002724,,,,,,,,,,,,,,,,201,2023-04-24_10h48.23.181,FishGame,2022.1.1,59.16127067059829,
,17,나를 데려가줘,6,Green,B,0,0,ScrollDown,ScrollUp,Green.png,2,NonTarget,NonTarget,0,0,0,0,,,,,,,,,,,,,,,,,0,16,16,16,,,,,,,,,,,,,,,,,,,,,,,,,,,,,,,,,,,,,,,,,,,,,,,,,,,,,,,,,,,,,,,,,,,,,,,,,,,,,,,,,1,0.8475111000007018,224.9344465000322,None,ScrollDown,정답입니다,224.9344465000322,None,224.9344465000322,None,224.9344465000322,None,224.9344465000322,None,225.6974497999763,None,225.6974497999763,226.19982540002093,,,,,,,,,,,,,,,,201,2023-04-24_10h48.23.181,FishGame,2022.1.1,59.16127067059829,
,18,넌 협력적이야,1,Orange,A,5.625,5.633333333333334,ScrollDown,ScrollUp,Orange.png,2,Positive,Congruent,0,0,0,0,,,,,,,,,,,,,,,,,0,17,17,17,,,,,,,,,,,,,,,,,,,,,,,,,,,,,,,,,,,,,,,,,,,,,,,,,,,,,,,,,,,,,,,,,,,,,,,,,,,,,,,,,1.0308642089366913,0.9482541000470519,226.81011960003525,None,ScrollDown,정답입니다,226.81011960003525,None,226.81011960003525,None,226.81011960003525,None,226.81011960003525,None,227.66650569997728,None,227.66650569997728,228.16646900004707,,,,,,,,,,,,,,,,201,2023-04-24_10h48.23.181,FishGame,2022.1.1,59.16127067059829,
,19,넌 평범해,3,Green,B,4.333333333333332,4.233333333333333,ScrollUp,ScrollDown,Green.png,2,Neutral,Neutral,0,0,0,0,,,,,,,,,,,,,,,,,0,18,18,18,,,,,,,,,,,,,,,,,,,,,,,,,,,,,,,,,,,,,,,,,,,,,,,,,,,,,,,,,,,,,,,,,,,,,,,,,,,,,,,,,2,0.7958756000734866,228.77391780004837,None,ScrollUp,정답입니다,228.77391780004837,None,228.77391780004837,None,228.77391780004837,None,228.77391780004837,None,229.482952499995,None,229.482952499995,229.99962849996518,,,,,,,,,,,,,,,,201,2023-04-24_10h48.23.181,FishGame,2022.1.1,59.16127067059829,
,20,넌 오만해,5,Orange,A,2.333333333333333,2,ScrollDown,ScrollUp,Orange.png,2,Negative,Incongruent,0,0,0,0,,,,,,,,,,,,,,,,,0,19,19,19,,,,,,,,,,,,,,,,,,,,,,,,,,,,,,,,,,,,,,,,,,,,,,,,,,,,,,,,,,,,,,,,,,,,,,,,,,,,,,,,,1.0663580298423767,0.7318036999786273,230.59208520001266,None,ScrollDown,정답입니다,230.59208520001266,None,230.59208520001266,None,230.59208520001266,None,230.59208520001266,None,231.23092530004214,None,231.23092530004214,231.73294200003147,,,,,,,,,,,,,,,,201,2023-04-24_10h48.23.181,FishGame,2022.1.1,59.16127067059829,
,21,넌 운이없어,4,Green,B,3,3.466666666666667,ScrollUp,ScrollDown,Green.png,2,Negative,Congruent,0,0,0,0,,,,,,,,,,,,,,,,,0,20,20,20,,,,,,,,,,,,,,,,,,,,,,,,,,,,,,,,,,,,,,,,,,,,,,,,,,,,,,,,,,,,,,,,,,,,,,,,,,,,,,,,,1.6203703756133714,0.8149687999393791,232.34322110004723,None,ScrollUp,정답입니다,232.34322110004723,None,232.34322110004723,None,232.34322110004723,None,232.34322110004723,None,233.06391689996235,None,233.06391689996235,233.56407560000662,,,,,,,,,,,,,,,,201,2023-04-24_10h48.23.181,FishGame,2022.1.1,59.16127067059829,
,22,넌 창조적이야,2,Green,B,6.125,4.633333333333334,ScrollUp,ScrollDown,Green.png,2,Positive,Incongruent,0,0,0,0,,,,,,,,,,,,,,,,,0,21,21,21,,,,,,,,,,,,,,,,,,,,,,,,,,,,,,,,,,,,,,,,,,,,,,,,,,,,,,,,,,,,,,,,,,,,,,,,,,,,,,,,,1.8132716069618862,0.831435100059025,234.17095429997426,None,ScrollUp,정답입니다,234.17095429997426,None,234.17095429997426,None,234.17095429997426,None,234.17095429997426,None,234.91393789998256,None,234.91393789998256,235.4163024999434,,,,,,,,,,,,,,,,201,2023-04-24_10h48.23.181,FishGame,2022.1.1,59.16127067059829,
,23,나를 보내줘,6,Orange,A,0,0,ScrollUp,ScrollDown,Orange.png,2,NonTarget,NonTarget,0,0,0,0,,,,,,,,,,,,,,,,,0,22,22,22,,,,,,,,,,,,,,,,,,,,,,,,,,,,,,,,,,,,,,,,,,,,,,,,,,,,,,,,,,,,,,,,,,,,,,,,,,,,,,,,,1.6666666691501937,0.7650978999445215,236.02409590000752,None,ScrollUp,정답입니다,236.02409590000752,None,236.02409590000752,None,236.02409590000752,None,236.02409590000752,None,236.6996541999979,None,236.6996541999979,237.20031099999323,,,,,,,,,,,,,,,,201,2023-04-24_10h48.23.181,FishGame,2022.1.1,59.16127067059829,
,24,넌 통찰력있어,2,Orange,A,6.5,4.8,ScrollDown,ScrollUp,Orange.png,2,Positive,Congruent,0,0,0,0,,,,,,,,,,,,,,,,,0,23,23,23,,,,,,,,,,,,,,,,,,,,,,,,,,,,,,,,,,,,,,,,,,,,,,,,,,,,,,,,,,,,,,,,,,,,,,,,,,,,,,,,,1.0725308855374653,0.6926106999162585,237.8200195999816,None,ScrollDown,정답입니다,237.8200195999816,None,237.8200195999816,None,237.8200195999816,None,237.8200195999816,None,238.41380340000615,None,238.41380340000615,238.9137801999459,,,,,,,,,,,,,,,,201,2023-04-24_10h48.23.181,FishGame,2022.1.1,59.16127067059829,
,25,넌 경솔해,5,Green,B,2.458333333333333,2.266666666666667,ScrollUp,ScrollDown,Green.png,2,Negative,Congruent,0,0,0,0,,,,,,,,,,,,,,,,,0,24,24,24,,,,,,,,,,,,,,,,,,,,,,,,,,,,,,,,,,,,,,,,,,,,,,,,,,,,,,,,,,,,,,,,,,,,,,,,,,,,,,,,,1.7222222338120141,0.7483635999960825,239.5185539999511,None,ScrollUp,정답입니다,239.5185539999511,None,239.5185539999511,None,239.5185539999511,None,239.5185539999511,None,240.18048550002277,None,240.18048550002277,240.68047589994967,,,,,,,,,,,,,,,,201,2023-04-24_10h48.23.181,FishGame,2022.1.1,59.16127067059829,
,26,넌 초조해,4,Orange,A,2.916666666666667,3.133333333333333,ScrollDown,ScrollUp,Orange.png,2,Negative,Incongruent,0,0,0,0,,,,,,,,,,,,,,,,,0,25,25,25,,,,,,,,,,,,,,,,,,,,,,,,,,,,,,,,,,,,,,,,,,,,,,,,,,,,,,,,,,,,,,,,,,,,,,,,,,,,,,,,,1.0709876716136932,0.8141895000590011,241.2939321999438,None,ScrollDown,정답입니다,241.2939321999438,None,241.2939321999438,None,241.2939321999438,None,241.2939321999438,None,242.0162716000341,None,242.0162716000341,242.51616090000607,,,,,,,,,,,,,,,,201,2023-04-24_10h48.23.181,FishGame,2022.1.1,59.16127067059829,
,27,넌 무관심해,4,Green,B,2.833333333333333,2.9,ScrollUp,ScrollDown,Green.png,2,Negative,Congruent,0,0,0,0,,,,,,,,,,,,,,,,,0,26,26,26,,,,,,,,,,,,,,,,,,,,,,,,,,,,,,,,,,,,,,,,,,,,,,,,,,,,,,,,,,,,,,,,,,,,,,,,,,,,,,,,,1.6435185223817825,0.7625870000338182,243.12906680000015,None,ScrollUp,정답입니다,243.12906680000015,None,243.12906680000015,None,243.12906680000015,None,243.12906680000015,None,243.7992967000464,None,243.7992967000464,244.29932109999936,,,,,,,,,,,,,,,,201,2023-04-24_10h48.23.181,FishGame,2022.1.1,59.16127067059829,
,28,넌 감성적이야,3,Green,B,4.125,4.166666666666667,ScrollUp,ScrollDown,Green.png,2,Neutral,Neutral,0,0,0,0,,,,,,,,,,,,,,,,,0,27,27,27,,,,,,,,,,,,,,,,,,,,,,,,,,,,,,,,,,,,,,,,,,,,,,,,,,,,,,,,,,,,,,,,,,,,,,,,,,,,,,,,,1.7530864129463832,0.9650391000322998,244.9048070999561,None,ScrollUp,정답입니다,244.9048070999561,None,244.9048070999561,None,244.9048070999561,None,244.9048070999561,None,245.78264570003375,None,245.78264570003375,246.28262049995828,,,,,,,,,,,,,,,,201,2023-04-24_10h48.23.181,FishGame,2022.1.1,59.16127067059829,
,29,넌 배려심있어,1,Orange,A,6.083333333333333,5.5,ScrollDown,ScrollUp,Orange.png,2,Positive,Congruent,0,0,0,0,,,,,,,,,,,,,,,,,0,28,28,28,,,,,,,,,,,,,,,,,,,,,,,,,,,,,,,,,,,,,,,,,,,,,,,,,,,,,,,,,,,,,,,,,,,,,,,,,,,,,,,,,1,0.7628932000370696,246.89245429995935,None,ScrollDown,정답입니다,246.89245429995935,None,246.89245429995935,None,246.89245429995935,None,246.89245429995935,None,247.56588040001225,None,247.56588040001225,248.06630750000477,,,,,,,,,,,,,,,,201,2023-04-24_10h48.23.181,FishGame,2022.1.1,59.16127067059829,
,30,넌 숨김없어,3,Orange,A,4.5,4.933333333333334,ScrollDown,ScrollUp,Orange.png,2,Neutral,Neutral,0,0,0,0,,,,,,,,,,,,,,,,,0,29,29,29,,,,,,,,,,,,,,,,,,,,,,,,,,,,,,,,,,,,,,,,,,,,,,,,,,,,,,,,,,,,,,,,,,,,,,,,,,,,,,,,,1,0.8978921000380069,248.67774970002938,None,ScrollDown,정답입니다,248.67774970002938,None,248.67774970002938,None,248.67774970002938,None,248.67774970002938,None,249.4825580000179,None,249.4825580000179,249.9825493999524,,,,,,,,,,,,,,,,201,2023-04-24_10h48.23.181,FishGame,2022.1.1,59.16127067059829,
,31,넌 훌륭해,2,Green,B,5.916666666666667,4.033333333333333,ScrollUp,ScrollDown,Green.png,2,Positive,Incongruent,0,0,0,0,,,,,,,,,,,,,,,,,0,30,30,30,,,,,,,,,,,,,,,,,,,,,,,,,,,,,,,,,,,,,,,,,,,,,,,,,,,,,,,,,,,,,,,,,,,,,,,,,,,,,,,,,1.8456790000200272,0.7649991000071168,250.59134779998567,None,ScrollUp,정답입니다,250.59134779998567,None,250.59134779998567,None,250.59134779998567,None,250.59134779998567,None,251.26592339994386,None,251.26592339994386,251.76576820004266,,,,,,,,,,,,,,,,201,2023-04-24_10h48.23.181,FishGame,2022.1.1,59.16127067059829,
,32,넌 슬기로워,2,Orange,A,6.166666666666667,4.1,ScrollDown,ScrollUp,Orange.png,2,Positive,Congruent,0,0,0,0,,,,,,,,,,,,,,,,,0,31,31,31,,,,,,,,,,,,,,,,,,,,,,,,,,,,,,,,,,,,,,,,,,,,,,,,,,,,,,,,,,,,,,,,,,,,,,,,,,,,,,,,,1.0864197611808777,0.7628964999457821,252.375301699969,None,ScrollDown,정답입니다,252.375301699969,None,252.375301699969,None,252.375301699969,None,252.375301699969,None,253.04909530002624,None,253.04909530002624,253.54694499995094,,,,,,,,,,,,,,,,201,2023-04-24_10h48.23.181,FishGame,2022.1.1,59.16127067059829,
,33,넌 냉혹해,5,Orange,A,2.583333333333333,2.1,ScrollDown,ScrollUp,Orange.png,2,Negative,Incongruent,0,0,0,0,,,,,,,,,,,,,,,,,0,32,32,32,,,,,,,,,,,,,,,,,,,,,,,,,,,,,,,,,,,,,,,,,,,,,,,,,,,,,,,,,,,,,,,,,,,,,,,,,,,,,,,,,1.174382706483205,0.6460186999756843,254.16008709999733,None,ScrollDown,정답입니다,254.16008709999733,None,254.16008709999733,None,254.16008709999733,None,254.16008709999733,None,254.71579040004872,None,254.71579040004872,255.21634120005183,,,,,,,,,,,,,,,,201,2023-04-24_10h48.23.181,FishGame,2022.1.1,59.16127067059829,
,34,나를 데려가줘,6,Green,B,0,0,ScrollDown,ScrollUp,Green.png,2,NonTarget,NonTarget,0,0,0,0,,,,,,,,,,,,,,,,,0,33,33,33,,,,,,,,,,,,,,,,,,,,,,,,,,,,,,,,,,,,,,,,,,,,,,,,,,,,,,,,,,,,,,,,,,,,,,,,,,,,,,,,,1.2438271592060726,0.8643832000670955,255.8227202000562,None,ScrollDown,정답입니다,255.8227202000562,None,255.8227202000562,None,255.8227202000562,None,255.8227202000562,None,256.5969754999969,None,256.5969754999969,257.0990393999964,,,,,,,,,,,,,,,,201,2023-04-24_10h48.23.181,FishGame,2022.1.1,59.16127067059829,
,35,넌 편파적이야,5,Green,B,2.125,2,ScrollUp,ScrollDown,Green.png,2,Negative,Congruent,0,0,0,0,,,,,,,,,,,,,,,,,0,34,34,34,,,,,,,,,,,,,,,,,,,,,,,,,,,,,,,,,,,,,,,,,,,,,,,,,,,,,,,,,,,,,,,,,,,,,,,,,,,,,,,,,1.1697530895471573,0.8649814000818878,257.7120430000359,None,ScrollDown,오답입니다,257.7120430000359,None,257.7120430000359,None,257.7120430000359,None,257.7120430000359,None,258.48233659996185,None,258.48233659996185,258.9824367000256,,,,,,,,,,,,,,,,201,2023-04-24_10h48.23.181,FishGame,2022.1.1,59.16127067059829,
,36,넌 슬퍼,4,Orange,A,2.583333333333333,3.066666666666667,ScrollDown,ScrollUp,Orange.png,2,Negative,Incongruent,0,0,0,0,,,,,,,,,,,,,,,,,0,35,35,35,,,,,,,,,,,,,,,,,,,,,,,,,,,,,,,,,,,,,,,,,,,,,,,,,,,,,,,,,,,,,,,,,,,,,,,,,,,,,,,,,1,0.7482057999586686,259.58976140001323,None,ScrollDown,정답입니다,259.58976140001323,None,259.58976140001323,None,259.58976140001323,None,259.58976140001323,None,260.2490596000571,None,260.2490596000571,260.74901439994574,,,,,,,,,,,,,,,,201,2023-04-24_10h48.23.181,FishGame,2022.1.1,59.16127067059829,
,37,나를 데려가줘,6,Green,B,0,0,ScrollDown,ScrollUp,Green.png,2,NonTarget,NonTarget,0,0,0,0,,,,,,,,,,,,,,,,,0,36,36,36,,,,,,,,,,,,,,,,,,,,,,,,,,,,,,,,,,,,,,,,,,,,,,,,,,,,,,,,,,,,,,,,,,,,,,,,,,,,,,,,,1.1234567960103352,0.7629706000443548,261.35549009998795,None,ScrollDown,정답입니다,261.35549009998795,None,261.35549009998795,None,261.35549009998795,None,261.35549009998795,None,262.032250200049,None,262.032250200049,262.53227029996924,,,,,,,,,,,,,,,,201,2023-04-24_10h48.23.181,FishGame,2022.1.1,59.16127067059829,
,38,넌 친절해,1,Green,B,6.041666666666667,5.533333333333333,ScrollUp,ScrollDown,Green.png,2,Positive,Incongruent,0,0,0,0,,,,,,,,,,,,,,,,,0,37,37,37,,,,,,,,,,,,,,,,,,,,,,,,,,,,,,,,,,,,,,,,,,,,,,,,,,,,,,,,,,,,,,,,,,,,,,,,,,,,,,,,,2,0.8500291999662295,263.141085500014,None,ScrollUp,정답입니다,263.141085500014,None,263.141085500014,None,263.141085500014,None,263.141085500014,None,263.8988632999826,None,263.8988632999826,264.39888810005505,,,,,,,,,,,,,,,,201,2023-04-24_10h48.23.181,FishGame,2022.1.1,59.16127067059829,
,1,넌 엉성해,4,Orange,A,3,3.3,ScrollDown,ScrollUp,Orange.png,3,Negative,Incongruent,0,0,0,0,,,,,,,,,,,,,,,,,,,,,0,0,0,0,,,,,,,,,,,,,,,,,,,,,,,,,,,,,,,,,,,,297.2628471000353,298.76561560004484,298.7984385000309,299.74838030000683,299.79834500001743,300.74840769998264,300.74840769998264,None,,,,,,,,,,,,,,,,,,,,,,,,,,,,,,,,,,1,0.8932630000635982,301.82904800004326,None,ScrollDown,정답입니다,301.82904800004326,None,301.82904800004326,None,301.82904800004326,None,301.82904800004326,None,302.6294682000298,None,302.6294682000298,303.1314897000557,264.89894189999904,None,264.89894189999904,None,0.09537037,-0.09537037,1,0,0,0.016218589968048036,None,294.8985620000167,None,,,201,2023-04-24_10h48.23.181,FishGame,2022.1.1,59.16127067059829,
,2,나를 보내줘,6,Orange,A,0,0,ScrollUp,ScrollDown,Orange.png,3,NonTarget,NonTarget,0,0,0,0,,,,,,,,,,,,,,,,,,,,,0,1,1,1,,,,,,,,,,,,,,,,,,,,,,,,,,,,,,,,,,,,,,,,,,,,,,,,,,,,,,,,,,,,,,,,,,,,,,,,,,,,,1.679012343287468,0.7626573999878019,303.7387363000307,None,ScrollUp,정답입니다,303.7387363000307,None,303.7387363000307,None,303.7387363000307,None,303.7387363000307,None,304.41468819999136,None,304.41468819999136,304.9147209000075,,,,,,,,,,,,,,,,201,2023-04-24_10h48.23.181,FishGame,2022.1.1,59.16127067059829,
,3,넌 활발해,1,Green,B,5.666666666666667,5.6,ScrollUp,ScrollDown,Green.png,3,Positive,Incongruent,0,0,0,0,,,,,,,,,,,,,,,,,,,,,0,2,2,2,,,,,,,,,,,,,,,,,,,,,,,,,,,,,,,,,,,,,,,,,,,,,,,,,,,,,,,,,,,,,,,,,,,,,,,,,,,,,1.817901223897934,0.6983552000019699,305.52288129995577,None,ScrollUp,정답입니다,305.52288129995577,None,305.52288129995577,None,305.52288129995577,None,305.52288129995577,None,306.1293495000573,None,306.1293495000573,306.629396299948,,,,,,,,,,,,,,,,201,2023-04-24_10h48.23.181,FishGame,2022.1.1,59.16127067059829,
,4,넌 논리적이야,2,Orange,A,5.666666666666666,4.633333333333334,ScrollDown,ScrollUp,Orange.png,3,Positive,Congruent,0,0,0,0,,,,,,,,,,,,,,,,,,,,,0,3,3,3,,,,,,,,,,,,,,,,,,,,,,,,,,,,,,,,,,,,,,,,,,,,,,,,,,,,,,,,,,,,,,,,,,,,,,,,,,,,,1,0.8097288999706507,307.2412770000519,None,ScrollDown,정답입니다,307.2412770000519,None,307.2412770000519,None,307.2412770000519,None,307.2412770000519,None,307.95786470000166,None,307.95786470000166,308.4623588999966,,,,,,,,,,,,,,,,201,2023-04-24_10h48.23.181,FishGame,2022.1.1,59.16127067059829,
,5,넌 과묵해,3,Orange,A,3.875,4.4,ScrollDown,ScrollUp,Orange.png,3,Neutral,Neutral,0,0,0,0,,,,,,,,,,,,,,,,,,,,,0,4,4,4,,,,,,,,,,,,,,,,,,,,,,,,,,,,,,,,,,,,,,,,,,,,,,,,,,,,,,,,,,,,,,,,,,,,,,,,,,,,,1,0.7981015999102965,309.0705698999809,None,ScrollDown,정답입니다,309.0705698999809,None,309.0705698999809,None,309.0705698999809,None,309.0705698999809,None,309.7790412999457,None,309.7790412999457,310.2790516000241,,,,,,,,,,,,,,,,201,2023-04-24_10h48.23.181,FishGame,2022.1.1,59.16127067059829,
,6,나를 데려가줘,6,Green,B,0,0,ScrollDown,ScrollUp,Green.png,3,NonTarget,NonTarget,0,0,0,0,,,,,,,,,,,,,,,,,,,,,0,5,5,5,,,,,,,,,,,,,,,,,,,,,,,,,,,,,,,,,,,,,,,,,,,,,,,,,,,,,,,,,,,,,,,,,,,,,,,,,,,,,1.192901223897934,1.18410280009266,310.88542940001935,None,ScrollDown,정답입니다,310.88542940001935,None,310.88542940001935,None,310.88542940001935,None,310.88542940001935,None,311.98141430004034,None,311.98141430004034,312.4814612000482,,,,,,,,,,,,,,,,201,2023-04-24_10h48.23.181,FishGame,2022.1.1,59.16127067059829,
,7,넌 미숙해,4,Green,B,3,3,ScrollUp,ScrollDown,Green.png,3,Negative,Congruent,0,0,0,0,,,,,,,,,,,,,,,,,,,,,0,6,6,6,,,,,,,,,,,,,,,,,,,,,,,,,,,,,,,,,,,,,,,,,,,,,,,,,,,,,,,,,,,,,,,,,,,,,,,,,,,,,1.5154320988804102,0.7295308000175282,313.08633690001443,None,NoResponse,무응답입니다,313.08633690001443,None,313.08633690001443,None,313.08633690001443,None,313.08633690001443,None,313.7315474000061,None,313.7315474000061,314.2313265999546,,,,,,,,,,,,,,,,201,2023-04-24_10h48.23.181,FishGame,2022.1.1,59.16127067059829,
,8,나를 보내줘,6,Orange,A,0,0,ScrollUp,ScrollDown,Orange.png,3,NonTarget,NonTarget,0,0,0,0,,,,,,,,,,,,,,,,,,,,,0,7,7,7,,,,,,,,,,,,,,,,,,,,,,,,,,,,,,,,,,,,,,,,,,,,,,,,,,,,,,,,,,,,,,,,,,,,,,,,,,,,,1.6512345671653748,0.7796528999460861,314.83857380005065,None,ScrollUp,정답입니다,314.83857380005065,None,314.83857380005065,None,314.83857380005065,None,314.83857380005065,None,315.5292329000076,None,315.5292329000076,316.03124989999924,,,,,,,,,,,,,,,,201,2023-04-24_10h48.23.181,FishGame,2022.1.1,59.16127067059829,
,9,넌 자신만만해,3,Green,B,4.833333333333334,4.333333333333333,ScrollUp,ScrollDown,Green.png,3,Neutral,Neutral,0,0,0,0,,,,,,,,,,,,,,,,,,,,,0,8,8,8,,,,,,,,,,,,,,,,,,,,,,,,,,,,,,,,,,,,,,,,,,,,,,,,,,,,,,,,,,,,,,,,,,,,,,,,,,,,,1.6558641965190568,0.7294898999389261,316.6359315000009,None,ScrollUp,정답입니다,316.6359315000009,None,316.6359315000009,None,316.6359315000009,None,316.6359315000009,None,317.2790982000297,None,317.2790982000297,317.78113969997503,,,,,,,,,,,,,,,,201,2023-04-24_10h48.23.181,FishGame,2022.1.1,59.16127067059829,
,10,넌 탐욕스러워,5,Orange,A,2.25,2.1,ScrollDown,ScrollUp,Orange.png,3,Negative,Incongruent,0,0,0,0,,,,,,,,,,,,,,,,,,,,,0,9,9,9,,,,,,,,,,,,,,,,,,,,,,,,,,,,,,,,,,,,,,,,,,,,,,,,,,,,,,,,,,,,,,,,,,,,,,,,,,,,,1.0895061641931534,0.715036700014025,318.39185849996284,None,ScrollDown,정답입니다,318.39185849996284,None,318.39185849996284,None,318.39185849996284,None,318.39185849996284,None,319.0144731999608,None,319.0144731999608,319.5144845000468,,,,,,,,,,,,,,,,201,2023-04-24_10h48.23.181,FishGame,2022.1.1,59.16127067059829,
,11,넌 인기있어,2,Orange,A,5.458333333333333,4.5,ScrollDown,ScrollUp,Orange.png,3,Positive,Congruent,0,0,0,0,,,,,,,,,,,,,,,,,,,,,0,10,10,10,,,,,,,,,,,,,,,,,,,,,,,,,,,,,,,,,,,,,,,,,,,,,,,,,,,,,,,,,,,,,,,,,,,,,,,,,,,,,1.0015431940555573,0.8590361999813467,320.12126299995,None,ScrollDown,정답입니다,320.12126299995,None,320.12126299995,None,320.12126299995,None,320.12126299995,None,320.878994800034,None,320.878994800034,321.38105219998397,,,,,,,,,,,,,,,,201,2023-04-24_10h48.23.181,FishGame,2022.1.1,59.16127067059829,
,12,나를 데려가줘,6,Green,B,0,0,ScrollDown,ScrollUp,Green.png,3,NonTarget,NonTarget,0,0,0,0,,,,,,,,,,,,,,,,,,,,,0,11,11,11,,,,,,,,,,,,,,,,,,,,,,,,,,,,,,,,,,,,,,,,,,,,,,,,,,,,,,,,,,,,,,,,,,,,,,,,,,,,,1.0185184975465138,1.196120300097391,321.9859021999873,None,ScrollDown,정답입니다,321.9859021999873,None,321.9859021999873,None,321.9859021999873,None,321.9859021999873,None,323.09768100001384,None,323.09768100001384,323.5977480999427,,,,,,,,,,,,,,,,201,2023-04-24_10h48.23.181,FishGame,2022.1.1,59.16127067059829,
,13,넌 뛰어나,2,Green,B,6.166666666666667,4,ScrollUp,ScrollDown,Green.png,3,Positive,Incongruent,0,0,0,0,,,,,,,,,,,,,,,,,,,,,0,12,12,12,,,,,,,,,,,,,,,,,,,,,,,,,,,,,,,,,,,,,,,,,,,,,,,,,,,,,,,,,,,,,,,,,,,,,,,,,,,,,2,0.7649574000388384,324.2046598000452,None,ScrollUp,정답입니다,324.2046598000452,None,324.2046598000452,None,324.2046598000452,None,324.2046598000452,None,324.88100669998676,None,324.88100669998676,325.381069199997,,,,,,,,,,,,,,,,201,2023-04-24_10h48.23.181,FishGame,2022.1.1,59.16127067059829,
,14,넌 낙관적이야,1,Orange,A,5.75,5.8,ScrollDown,ScrollUp,Orange.png,3,Positive,Congruent,0,0,0,0,,,,,,,,,,,,,,,,,,,,,0,13,13,13,,,,,,,,,,,,,,,,,,,,,,,,,,,,,,,,,,,,,,,,,,,,,,,,,,,,,,,,,,,,,,,,,,,,,,,,,,,,,1.3040123408039412,0.7461083000525832,325.9913084000582,None,ScrollDown,정답입니다,325.9913084000582,None,325.9913084000582,None,325.9913084000582,None,325.9913084000582,None,326.6475499999942,None,326.6475499999942,327.16429890005384,,,,,,,,,,,,,,,,201,2023-04-24_10h48.23.181,FishGame,2022.1.1,59.16127067059829,
,15,넌 산만해,4,Green,B,2.695652173913043,3.033333333333333,ScrollUp,ScrollDown,Green.png,3,Negative,Congruent,0,0,0,0,,,,,,,,,,,,,,,,,,,,,0,14,14,14,,,,,,,,,,,,,,,,,,,,,,,,,,,,,,,,,,,,,,,,,,,,,,,,,,,,,,,,,,,,,,,,,,,,,,,,,,,,,1.6929012313485146,0.779945700080134,327.77080279996153,None,ScrollUp,정답입니다,327.77080279996153,None,327.77080279996153,None,327.77080279996153,None,327.77080279996153,None,328.4642256000079,None,328.4642256000079,328.96425580000505,,,,,,,,,,,,,,,,201,2023-04-24_10h48.23.181,FishGame,2022.1.1,59.16127067059829,
,16,나를 보내줘,6,Orange,A,0,0,ScrollUp,ScrollDown,Orange.png,3,NonTarget,NonTarget,0,0,0,0,,,,,,,,,,,,,,,,,,,,,0,15,15,15,,,,,,,,,,,,,,,,,,,,,,,,,,,,,,,,,,,,,,,,,,,,,,,,,,,,,,,,,,,,,,,,,,,,,,,,,,,,,1.6450617238879204,1.2478903000010177,329.57207949995063,None,ScrollUp,정답입니다,329.57207949995063,None,329.57207949995063,None,329.57207949995063,None,329.57207949995063,None,330.7309104000451,None,330.7309104000451,331.2309114000527,,,,,,,,,,,,,,,,201,2023-04-24_10h48.23.181,FishGame,2022.1.1,59.16127067059829,
,17,넌 교활해,5,Green,B,2.333333333333333,2.133333333333333,ScrollUp,ScrollDown,Green.png,3,Negative,Congruent,0,0,0,0,,,,,,,,,,,,,,,,,,,,,0,16,16,16,,,,,,,,,,,,,,,,,,,,,,,,,,,,,,,,,,,,,,,,,,,,,,,,,,,,,,,,,,,,,,,,,,,,,,,,,,,,,1.7268518507480621,0.7261637999908999,331.8406296999892,None,ScrollUp,정답입니다,331.8406296999892,None,331.8406296999892,None,331.8406296999892,None,331.8406296999892,None,332.4787590999622,None,332.4787590999622,332.98080030002166,,,,,,,,,,,,,,,,201,2023-04-24_10h48.23.181,FishGame,2022.1.1,59.16127067059829,
,18,나를 보내줘,6,Orange,A,0,0,ScrollUp,ScrollDown,Orange.png,3,NonTarget,NonTarget,0,0,0,0,,,,,,,,,,,,,,,,,,,,,0,17,17,17,,,,,,,,,,,,,,,,,,,,,,,,,,,,,,,,,,,,,,,,,,,,,,,,,,,,,,,,,,,,,,,,,,,,,,,,,,,,,1.6558641965190568,1.2985713999951258,333.5880582999671,None,ScrollUp,정답입니다,333.5880582999671,None,333.5880582999671,None,333.5880582999671,None,333.5880582999671,None,334.79544899996836,None,334.79544899996836,335.29807490005624,,,,,,,,,,,,,,,,201,2023-04-24_10h48.23.181,FishGame,2022.1.1,59.16127067059829,
,19,넌 불친절해,5,Green,B,2.208333333333333,2.033333333333333,ScrollUp,ScrollDown,Green.png,3,Negative,Congruent,0,0,0,0,,,,,,,,,,,,,,,,,,,,,0,18,18,18,,,,,,,,,,,,,,,,,,,,,,,,,,,,,,,,,,,,,,,,,,,,,,,,,,,,,,,,,,,,,,,,,,,,,,,,,,,,,1.9012345770994823,0.8628403999609873,335.9043630999513,None,ScrollUp,정답입니다,335.9043630999513,None,335.9043630999513,None,335.9043630999513,None,335.9043630999513,None,336.68072299996857,None,336.68072299996857,337.1807159000309,,,,,,,,,,,,,,,,201,2023-04-24_10h48.23.181,FishGame,2022.1.1,59.16127067059829,
,20,넌 지적이야,2,Green,B,5.75,4.366666666666666,ScrollUp,ScrollDown,Green.png,3,Positive,Incongruent,0,0,0,0,,,,,,,,,,,,,,,,,,,,,0,19,19,19,,,,,,,,,,,,,,,,,,,,,,,,,,,,,,,,,,,,,,,,,,,,,,,,,,,,,,,,,,,,,,,,,,,,,,,,,,,,,2,0.7984491999959573,337.78885669994634,None,ScrollUp,정답입니다,337.78885669994634,None,337.78885669994634,None,337.78885669994634,None,337.78885669994634,None,338.49741910002194,None,338.49741910002194,338.99738469999284,,,,,,,,,,,,,,,,201,2023-04-24_10h48.23.181,FishGame,2022.1.1,59.16127067059829,
,21,넌 우유부단해,4,Orange,A,2.666666666666667,3.166666666666667,ScrollDown,ScrollUp,Orange.png,3,Negative,Incongruent,0,0,0,0,,,,,,,,,,,,,,,,,,,,,0,20,20,20,,,,,,,,,,,,,,,,,,,,,,,,,,,,,,,,,,,,,,,,,,,,,,,,,,,,,,,,,,,,,,,,,,,,,,,,,,,,,1.0277777810891469,0.8438113000011072,339.6089828000404,None,ScrollDown,정답입니다,339.6089828000404,None,339.6089828000404,None,339.6089828000404,None,339.6089828000404,None,340.3572326999856,None,340.3572326999856,340.8616896000458,,,,,,,,,,,,,,,,201,2023-04-24_10h48.23.181,FishGame,2022.1.1,59.16127067059829,
,22,나를 데려가줘,6,Green,B,0,0,ScrollDown,ScrollUp,Green.png,3,NonTarget,NonTarget,0,0,0,0,,,,,,,,,,,,,,,,,,,,,0,21,21,21,,,,,,,,,,,,,,,,,,,,,,,,,,,,,,,,,,,,,,,,,,,,,,,,,,,,,,,,,,,,,,,,,,,,,,,,,,,,,1.0617283880710602,0.9987442999845371,341.4657873000251,None,ScrollDown,정답입니다,341.4657873000251,None,341.4657873000251,None,341.4657873000251,None,341.4657873000251,None,342.3783810000168,None,342.3783810000168,342.87837060005404,,,,,,,,,,,,,,,,201,2023-04-24_10h48.23.181,FishGame,2022.1.1,59.16127067059829,
,23,넌 성실해,1,Green,B,6.041666666666666,5.7,ScrollUp,ScrollDown,Green.png,3,Positive,Incongruent,0,0,0,0,,,,,,,,,,,,,,,,,,,,,0,22,22,22,,,,,,,,,,,,,,,,,,,,,,,,,,,,,,,,,,,,,,,,,,,,,,,,,,,,,,,,,,,,,,,,,,,,,,,,,,,,,2,0.8479441999224946,343.4860415000003,None,ScrollUp,정답입니다,343.4860415000003,None,343.4860415000003,None,343.4860415000003,None,343.4860415000003,None,344.2473923000507,None,344.2473923000507,344.7474943000125,,,,,,,,,,,,,,,,201,2023-04-24_10h48.23.181,FishGame,2022.1.1,59.16127067059829,
,24,넌 현실주의적이야,3,Orange,A,4.625,4.4,ScrollDown,ScrollUp,Orange.png,3,Neutral,Neutral,0,0,0,0,,,,,,,,,,,,,,,,,,,,,0,23,23,23,,,,,,,,,,,,,,,,,,,,,,,,,,,,,,,,,,,,,,,,,,,,,,,,,,,,,,,,,,,,,,,,,,,,,,,,,,,,,1.2098765522241592,0.7596562000690028,345.36403659998905,None,ScrollDown,정답입니다,345.36403659998905,None,345.36403659998905,None,345.36403659998905,None,345.36403659998905,None,346.02824859996326,None,346.02824859996326,346.5283407999668,,,,,,,,,,,,,,,,201,2023-04-24_10h48.23.181,FishGame,2022.1.1,59.16127067059829,
,25,넌 진실돼,1,Orange,A,6.625,5.566666666666666,ScrollDown,ScrollUp,Orange.png,3,Positive,Congruent,0,0,0,0,,,,,,,,,,,,,,,,,,,,,0,24,24,24,,,,,,,,,,,,,,,,,,,,,,,,,,,,,,,,,,,,,,,,,,,,,,,,,,,,,,,,,,,,,,,,,,,,,,,,,,,,,1,0.8813773000147194,347.136101400014,None,ScrollDown,정답입니다,347.136101400014,None,347.136101400014,None,347.136101400014,None,347.136101400014,None,347.92828560003545,None,347.92828560003545,348.43062610004563,,,,,,,,,,,,,,,,201,2023-04-24_10h48.23.181,FishGame,2022.1.1,59.16127067059829,
,26,넌 천진난만해,3,Green,B,4.958333333333334,4.833333333333333,ScrollUp,ScrollDown,Green.png,3,Neutral,Neutral,0,0,0,0,,,,,,,,,,,,,,,,,,,,,0,25,25,25,,,,,,,,,,,,,,,,,,,,,,,,,,,,,,,,,,,,,,,,,,,,,,,,,,,,,,,,,,,,,,,,,,,,,,,,,,,,,2,0.7985147000290453,349.03973139997106,None,ScrollUp,정답입니다,349.03973139997106,None,349.03973139997106,None,349.03973139997106,None,349.03973139997106,None,349.7472639000043,None,349.7472639000043,350.2473553000018,,,,,,,,,,,,,,,,201,2023-04-24_10h48.23.181,FishGame,2022.1.1,59.16127067059829,
,27,넌 교양없어,5,Orange,A,2.416666666666667,2.2,ScrollDown,ScrollUp,Orange.png,3,Negative,Incongruent,0,0,0,0,,,,,,,,,,,,,,,,,,,,,0,26,26,26,,,,,,,,,,,,,,,,,,,,,,,,,,,,,,,,,,,,,,,,,,,,,,,,,,,,,,,,,,,,,,,,,,,,,,,,,,,,,1.10030863682429,0.8930118000134826,350.8658000000287,None,ScrollDown,정답입니다,350.8658000000287,None,350.8658000000287,None,350.8658000000287,None,350.8658000000287,None,351.6614906999748,None,351.6614906999748,352.1614810000174,,,,,,,,,,,,,,,,201,2023-04-24_10h48.23.181,FishGame,2022.1.1,59.16127067059829,
,28,나를 보내줘,6,Orange,A,0,0,ScrollUp,ScrollDown,Orange.png,3,NonTarget,NonTarget,0,0,0,0,,,,,,,,,,,,,,,,,,,,,0,27,27,27,,,,,,,,,,,,,,,,,,,,,,,,,,,,,,,,,,,,,,,,,,,,,,,,,,,,,,,,,,,,,,,,,,,,,,,,,,,,,1.7762345721324284,0.8980608999263495,352.76664319995325,None,ScrollUp,정답입니다,352.76664319995325,None,352.76664319995325,None,352.76664319995325,None,352.76664319995325,None,353.5805762000382,None,353.5805762000382,354.0805223999778,,,,,,,,,,,,,,,,201,2023-04-24_10h48.23.181,FishGame,2022.1.1,59.16127067059829,
,29,넌 엉뚱스러워,3,Orange,A,4.166666666666667,4.133333333333334,ScrollDown,ScrollUp,Orange.png,3,Neutral,Neutral,0,0,0,0,,,,,,,,,,,,,,,,,,,,,0,28,28,28,,,,,,,,,,,,,,,,,,,,,,,,,,,,,,,,,,,,,,,,,,,,,,,,,,,,,,,,,,,,,,,,,,,,,,,,,,,,,1.234567900498708,0.8796653000172228,354.6913003999507,None,ScrollDown,정답입니다,354.6913003999507,None,354.6913003999507,None,354.6913003999507,None,354.6913003999507,None,355.48048260004725,None,355.48048260004725,355.9804899999872,,,,,,,,,,,,,,,,201,2023-04-24_10h48.23.181,FishGame,2022.1.1,59.16127067059829,
,30,넌 무지해,4,Green,B,2.541666666666667,3.066666666666667,ScrollUp,ScrollDown,Green.png,3,Negative,Congruent,0,0,0,0,,,,,,,,,,,,,,,,,,,,,0,29,29,29,,,,,,,,,,,,,,,,,,,,,,,,,,,,,,,,,,,,,,,,,,,,,,,,,,,,,,,,,,,,,,,,,,,,,,,,,,,,,1.7052469179034233,0.7818724999669939,356.58481859997846,None,ScrollUp,정답입니다,356.58481859997846,None,356.58481859997846,None,356.58481859997846,None,356.58481859997846,None,357.2805204000324,None,357.2805204000324,357.7803270999575,,,,,,,,,,,,,,,,201,2023-04-24_10h48.23.181,FishGame,2022.1.1,59.16127067059829,
,31,넌 음울해,5,Green,B,2.25,2.233333333333333,ScrollUp,ScrollDown,Green.png,3,Negative,Congruent,0,0,0,0,,,,,,,,,,,,,,,,,,,,,0,30,30,30,,,,,,,,,,,,,,,,,,,,,,,,,,,,,,,,,,,,,,,,,,,,,,,,,,,,,,,,,,,,,,,,,,,,,,,,,,,,,1.9567901293436687,0.8961839000694454,358.3886377000017,None,ScrollUp,정답입니다,358.3886377000017,None,358.3886377000017,None,358.3886377000017,None,358.3886377000017,None,359.19693099998403,None,359.19693099998403,359.69690039998386,,,,,,,,,,,,,,,,201,2023-04-24_10h48.23.181,FishGame,2022.1.1,59.16127067059829,
,32,넌 냉소적이야,5,Orange,A,2.916666666666667,2.4,ScrollDown,ScrollUp,Orange.png,3,Negative,Incongruent,0,0,0,0,,,,,,,,,,,,,,,,,,,,,0,31,31,31,,,,,,,,,,,,,,,,,,,,,,,,,,,,,,,,,,,,,,,,,,,,,,,,,,,,,,,,,,,,,,,,,,,,,,,,,,,,,1.126543199022611,0.779612300102599,360.3044678999577,None,ScrollDown,정답입니다,360.3044678999577,None,360.3044678999577,None,360.3044678999577,None,360.3044678999577,None,360.99690889997873,None,360.99690889997873,361.49786230002064,,,,,,,,,,,,,,,,201,2023-04-24_10h48.23.181,FishGame,2022.1.1,59.16127067059829,
,33,나를 데려가줘,6,Green,B,0,0,ScrollDown,ScrollUp,Green.png,3,NonTarget,NonTarget,0,0,0,0,,,,,,,,,,,,,,,,,,,,,0,32,32,32,,,,,,,,,,,,,,,,,,,,,,,,,,,,,,,,,,,,,,,,,,,,,,,,,,,,,,,,,,,,,,,,,,,,,,,,,,,,,1.2052469104528427,0.9963942000176758,362.10468470002525,None,ScrollDown,정답입니다,362.10468470002525,None,362.10468470002525,None,362.10468470002525,None,362.10468470002525,None,363.01154580002185,None,363.01154580002185,363.51356949994806,,,,,,,,,,,,,,,,201,2023-04-24_10h48.23.181,FishGame,2022.1.1,59.16127067059829,
,34,넌 쾌활해,1,Orange,A,5.541666666666666,5.733333333333333,ScrollDown,ScrollUp,Orange.png,3,Positive,Congruent,0,0,0,0,,,,,,,,,,,,,,,,,,,,,0,33,33,33,,,,,,,,,,,,,,,,,,,,,,,,,,,,,,,,,,,,,,,,,,,,,,,,,,,,,,,,,,,,,,,,,,,,,,,,,,,,,1.0231481393178303,0.8929771999828517,364.1325114000356,None,ScrollDown,정답입니다,364.1325114000356,None,364.1325114000356,None,364.1325114000356,None,364.1325114000356,None,364.9278741000453,None,364.9278741000453,365.4278562000254,,,,,,,,,,,,,,,,201,2023-04-24_10h48.23.181,FishGame,2022.1.1,59.16127067059829,
,35,나를 보내줘,6,Orange,A,0,0,ScrollUp,ScrollDown,Orange.png,3,NonTarget,NonTarget,0,0,0,0,,,,,,,,,,,,,,,,,,,,,0,34,34,34,,,,,,,,,,,,,,,,,,,,,,,,,,,,,,,,,,,,,,,,,,,,,,,,,,,,,,,,,,,,,,,,,,,,,,,,,,,,,1.9305555423100789,0.9482843999285251,366.0328354999656,None,ScrollUp,정답입니다,366.0328354999656,None,366.0328354999656,None,366.0328354999656,None,366.0328354999656,None,366.8945340999635,None,366.8945340999635,367.3969279000303,,,,,,,,,,,,,,,,201,2023-04-24_10h48.23.181,FishGame,2022.1.1,59.16127067059829,
,36,넌 명랑해,1,Green,B,5.739130434782609,5.666666666666667,ScrollUp,ScrollDown,Green.png,3,Positive,Incongruent,0,0,0,0,,,,,,,,,,,,,,,,,,,,,0,35,35,35,,,,,,,,,,,,,,,,,,,,,,,,,,,,,,,,,,,,,,,,,,,,,,,,,,,,,,,,,,,,,,,,,,,,,,,,,,,,,1.5586419738829136,0.8956688999896869,368.01001750002615,None,ScrollUp,정답입니다,368.01001750002615,None,368.01001750002615,None,368.01001750002615,None,368.01001750002615,None,368.8137480999576,None,368.8137480999576,369.3136030000169,,,,,,,,,,,,,,,,201,2023-04-24_10h48.23.181,FishGame,2022.1.1,59.16127067059829,
,37,넌 멍해,4,Orange,A,2.833333333333333,3.4,ScrollDown,ScrollUp,Orange.png,3,Negative,Incongruent,0,0,0,0,,,,,,,,,,,,,,,,,,,,,0,36,36,36,,,,,,,,,,,,,,,,,,,,,,,,,,,,,,,,,,,,,,,,,,,,,,,,,,,,,,,,,,,,,,,,,,,,,,,,,,,,,1.2283950696388881,0.8650085999397561,369.92241540004034,None,ScrollDown,정답입니다,369.92241540004034,None,369.92241540004034,None,369.92241540004034,None,369.92241540004034,None,370.69470520003233,None,370.69470520003233,371.19676309998613,,,,,,,,,,,,,,,,201,2023-04-24_10h48.23.181,FishGame,2022.1.1,59.16127067059829,
,38,나를 데려가줘,6,Green,B,0,0,ScrollDown,ScrollUp,Green.png,3,NonTarget,NonTarget,0,0,0,0,,,,,,,,,,,,,,,,,,,,,0,37,37,37,,,,,,,,,,,,,,,,,,,,,,,,,,,,,,,,,,,,,,,,,,,,,,,,,,,,,,,,,,,,,,,,,,,,,,,,,,,,,1.2160493830839794,0.9796579999383539,371.80118319997564,None,ScrollDown,정답입니다,371.80118319997564,None,371.80118319997564,None,371.80118319997564,None,371.80118319997564,None,372.6966836999636,None,372.6966836999636,373.19676880002953,,,,,,,,,,,,,,,,201,2023-04-24_10h48.23.181,FishGame,2022.1.1,59.16127067059829,
,39,넌 현명해,2,Orange,A,6.541666666666666,4.533333333333333,ScrollDown,ScrollUp,Orange.png,3,Positive,Congruent,0,0,0,0,,,,,,,,,,,,,,,,,,,,,0,38,38,38,,,,,,,,,,,,,,,,,,,,,,,,,,,,,,,,,,,,,,,,,,,,,,,,,,,,,,,,,,,,,,,,,,,,,,,,,,,,,1.0879629751046498,0.912984799942933,373.8081538999686,None,ScrollDown,정답입니다,373.8081538999686,None,373.8081538999686,None,373.8081538999686,None,373.8081538999686,None,374.627901299973,None,374.627901299973,375.12997260002885,,,,,,,,,,,,,,,,201,2023-04-24_10h48.23.181,FishGame,2022.1.1,59.16127067059829,
,40,넌 수줍어,3,Green,B,3.541666666666666,4.366666666666666,ScrollUp,ScrollDown,Green.png,3,Neutral,Neutral,0,0,0,0,,,,,,,,,,,,,,,,,,,,,0,39,39,39,,,,,,,,,,,,,,,,,,,,,,,,,,,,,,,,,,,,,,,,,,,,,,,,,,,,,,,,,,,,,,,,,,,,,,,,,,,,,1.6682098706563315,0.8149399000685662,375.7366315999534,None,ScrollUp,정답입니다,375.7366315999534,None,375.7366315999534,None,375.7366315999534,None,375.7366315999534,None,376.46126310003456,None,376.46126310003456,376.9638626000378,,,,,,,,,,,,,,,,201,2023-04-24_10h48.23.181,FishGame,2022.1.1,59.16127067059829,
,41,나를 데려가줘,6,Green,B,0,0,ScrollDown,ScrollUp,Green.png,3,NonTarget,NonTarget,0,0,0,0,,,,,,,,,,,,,,,,,,,,,0,40,40,40,,,,,,,,,,,,,,,,,,,,,,,,,,,,,,,,,,,,,,,,,,,,,,,,,,,,,,,,,,,,,,,,,,,,,,,,,,,,,1.1435185273488362,1.196030699997209,377.5687733000377,None,ScrollDown,정답입니다,377.5687733000377,None,377.5687733000377,None,377.5687733000377,None,377.5687733000377,None,378.67758879996836,None,378.67758879996836,379.1775715999538,,,,,,,,,,,,,,,,201,2023-04-24_10h48.23.181,FishGame,2022.1.1,59.16127067059829,
,42,넌 성숙해,2,Green,B,5.833333333333333,4.533333333333333,ScrollUp,ScrollDown,Green.png,3,Positive,Incongruent,0,0,0,0,,,,,,,,,,,,,,,,,,,,,0,41,41,41,,,,,,,,,,,,,,,,,,,,,,,,,,,,,,,,,,,,,,,,,,,,,,,,,,,,,,,,,,,,,,,,,,,,,,,,,,,,,1.5154320988804102,1.4661266999319196,379.78352279996034,None,NoResponse,무응답입니다,379.78352279996034,None,379.78352279996034,None,379.78352279996034,None,379.78352279996034,None,381.16340520000085,None,381.16340520000085,381.663358299993,,,,,,,,,,,,,,,,201,2023-04-24_10h48.23.181,FishGame,2022.1.1,59.16127067059829,
,1,넌 매력적이야,2,Green,B,6.125,4.666666666666667,ScrollUp,ScrollDown,Green.png,4,Positive,Incongruent,0,0,0,0,,,,,,,,,,,,,,,,,,,,,,,,,0,0,0,0,,,,,,,,,,,,,,,,,,,,,,,,,,,,,,,,413.57923819997814,415.0793324999977,415.11266119999345,416.06267060001846,416.11268260004,417.0626296000555,417.0626296000555,None,,,,,,,,,,,,,,,,,,,,,,,,,,,,,,,,,,1.9645061492919922,0.890902700019069,418.1448409999721,None,ScrollUp,정답입니다,418.1448409999721,None,418.1448409999721,None,418.1448409999721,None,418.1448409999721,None,418.9458099999465,None,418.9458099999465,419.44365160004236,382.1639883000171,None,382.1639883000171,None,0.021296296,-0.09537037,1,0,0,0.016408490017056465,None,412.17904940003064,None,,,201,2023-04-24_10h48.23.181,FishGame,2022.1.1,59.16127067059829,
,2,나를 보내줘,6,Orange,A,0,0,ScrollUp,ScrollDown,Orange.png,4,NonTarget,NonTarget,0,0,0,0,,,,,,,,,,,,,,,,,,,,,,,,,0,1,1,1,,,,,,,,,,,,,,,,,,,,,,,,,,,,,,,,,,,,,,,,,,,,,,,,,,,,,,,,,,,,,,,,,,,,,,,,,1.9722222189108531,0.9648012999678031,420.0522912000306,None,ScrollUp,정답입니다,420.0522912000306,None,420.0522912000306,None,420.0522912000306,None,420.0522912000306,None,420.92693710001186,None,420.92693710001186,421.4289953999687,,,,,,,,,,,,,,,,201,2023-04-24_10h48.23.181,FishGame,2022.1.1,59.16127067059829,
,3,넌 조심스러워,3,Orange,A,4.791666666666666,4.666666666666667,ScrollDown,ScrollUp,Orange.png,4,Neutral,Neutral,0,0,0,0,,,,,,,,,,,,,,,,,,,,,,,,,0,2,2,2,,,,,,,,,,,,,,,,,,,,,,,,,,,,,,,,,,,,,,,,,,,,,,,,,,,,,,,,,,,,,,,,,,,,,,,,,1.3533950621883073,0.7648816999280825,422.03608240000904,None,ScrollDown,정답입니다,422.03608240000904,None,422.03608240000904,None,422.03608240000904,None,422.03608240000904,None,422.7123827999458,None,422.7123827999458,423.21231510001235,,,,,,,,,,,,,,,,201,2023-04-24_10h48.23.181,FishGame,2022.1.1,59.16127067059829,
,4,넌 철학적이야,3,Green,B,4.5,4.266666666666667,ScrollUp,ScrollDown,Green.png,4,Neutral,Neutral,0,0,0,0,,,,,,,,,,,,,,,,,,,,,,,,,0,3,3,3,,,,,,,,,,,,,,,,,,,,,,,,,,,,,,,,,,,,,,,,,,,,,,,,,,,,,,,,,,,,,,,,,,,,,,,,,1.6867284004886947,0.696289399988018,423.8248746000463,None,ScrollUp,정답입니다,423.8248746000463,None,423.8248746000463,None,423.8248746000463,None,423.8248746000463,None,424.42889099998865,None,424.42889099998865,424.92887519998476,,,,,,,,,,,,,,,,201,2023-04-24_10h48.23.181,FishGame,2022.1.1,59.16127067059829,
,5,넌 쩨쩨해,5,Orange,A,2.375,2.133333333333333,ScrollDown,ScrollUp,Orange.png,4,Negative,Incongruent,0,0,0,0,,,,,,,,,,,,,,,,,,,,,,,,,0,4,4,4,,,,,,,,,,,,,,,,,,,,,,,,,,,,,,,,,,,,,,,,,,,,,,,,,,,,,,,,,,,,,,,,,,,,,,,,,1.2098765522241592,0.7817478000652045,425.5376676999731,None,ScrollDown,정답입니다,425.5376676999731,None,425.5376676999731,None,425.5376676999731,None,425.5376676999731,None,426.2288871000055,None,426.2288871000055,426.7288722000085,,,,,,,,,,,,,,,,201,2023-04-24_10h48.23.181,FishGame,2022.1.1,59.16127067059829,
,6,나를 데려가줘,6,Green,B,0,0,ScrollDown,ScrollUp,Green.png,4,NonTarget,NonTarget,0,0,0,0,,,,,,,,,,,,,,,,,,,,,,,,,0,5,5,5,,,,,,,,,,,,,,,,,,,,,,,,,,,,,,,,,,,,,,,,,,,,,,,,,,,,,,,,,,,,,,,,,,,,,,,,,1.276234577099482,0.8149234000593424,427.33429340005387,None,ScrollDown,정답입니다,427.33429340005387,None,427.33429340005387,None,427.33429340005387,None,427.33429340005387,None,428.06223539996427,None,428.06223539996427,428.56223649997264,,,,,,,,,,,,,,,,201,2023-04-24_10h48.23.181,FishGame,2022.1.1,59.16127067059829,
,7,넌 고집불통이야,5,Green,B,2.875,2,ScrollUp,ScrollDown,Green.png,4,Negative,Congruent,0,0,0,0,,,,,,,,,,,,,,,,,,,,,,,,,0,6,6,6,,,,,,,,,,,,,,,,,,,,,,,,,,,,,,,,,,,,,,,,,,,,,,,,,,,,,,,,,,,,,,,,,,,,,,,,,1.8626543283462524,0.7767068000975996,429.1792953000404,None,ScrollUp,정답입니다,429.1792953000404,None,429.1792953000404,None,429.1792953000404,None,429.1792953000404,None,429.8598989000311,None,429.8598989000311,430.3598572999472,,,,,,,,,,,,,,,,201,2023-04-24_10h48.23.181,FishGame,2022.1.1,59.16127067059829,
,8,넌 무심해,4,Orange,A,2.875,3.2,ScrollDown,ScrollUp,Orange.png,4,Negative,Incongruent,0,0,0,0,,,,,,,,,,,,,,,,,,,,,,,,,0,7,7,7,,,,,,,,,,,,,,,,,,,,,,,,,,,,,,,,,,,,,,,,,,,,,,,,,,,,,,,,,,,,,,,,,,,,,,,,,1.0848765472571056,0.7650745999999344,430.9644361999817,None,ScrollDown,정답입니다,430.9644361999817,None,430.9644361999817,None,430.9644361999817,None,430.9644361999817,None,431.6432194999652,None,431.6432194999652,432.14557719998993,,,,,,,,,,,,,,,,201,2023-04-24_10h48.23.181,FishGame,2022.1.1,59.16127067059829,
,9,넌 정겨워,1,Orange,A,5.791666666666667,5.666666666666667,ScrollDown,ScrollUp,Orange.png,4,Positive,Congruent,0,0,0,0,,,,,,,,,,,,,,,,,,,,,,,,,0,8,8,8,,,,,,,,,,,,,,,,,,,,,,,,,,,,,,,,,,,,,,,,,,,,,,,,,,,,,,,,,,,,,,,,,,,,,,,,,1.1373456716537476,0.8148919999366626,432.75586310005747,None,ScrollDown,정답입니다,432.75586310005747,None,432.75586310005747,None,432.75586310005747,None,432.75586310005747,None,433.478945299983,None,433.478945299983,433.97888940002304,,,,,,,,,,,,,,,,201,2023-04-24_10h48.23.181,FishGame,2022.1.1,59.16127067059829,
,10,나를 데려가줘,6,Green,B,0,0,ScrollDown,ScrollUp,Green.png,4,NonTarget,NonTarget,0,0,0,0,,,,,,,,,,,,,,,,,,,,,,,,,0,9,9,9,,,,,,,,,,,,,,,,,,,,,,,,,,,,,,,,,,,,,,,,,,,,,,,,,,,,,,,,,,,,,,,,,,,,,,,,,1,0.9462405000813305,434.58341660001315,None,ScrollDown,정답입니다,434.58341660001315,None,434.58341660001315,None,434.58341660001315,None,434.58341660001315,None,435.445457899943,None,435.445457899943,435.9454337999923,,,,,,,,,,,,,,,,201,2023-04-24_10h48.23.181,FishGame,2022.1.1,59.16127067059829,
,11,넌 체제순응적이야,4,Green,B,3,3.6,ScrollUp,ScrollDown,Green.png,4,Negative,Congruent,0,0,0,0,,,,,,,,,,,,,,,,,,,,,,,,,0,10,10,10,,,,,,,,,,,,,,,,,,,,,,,,,,,,,,,,,,,,,,,,,,,,,,,,,,,,,,,,,,,,,,,,,,,,,,,,,1.7577160547176998,0.8310427999822423,436.56312309997156,None,ScrollUp,정답입니다,436.56312309997156,None,436.56312309997156,None,436.56312309997156,None,436.56312309997156,None,437.29334199998993,None,437.29334199998993,437.7953534000553,,,,,,,,,,,,,,,,201,2023-04-24_10h48.23.181,FishGame,2022.1.1,59.16127067059829,
,12,나를 보내줘,6,Orange,A,0,0,ScrollUp,ScrollDown,Orange.png,4,NonTarget,NonTarget,0,0,0,0,,,,,,,,,,,,,,,,,,,,,,,,,0,11,11,11,,,,,,,,,,,,,,,,,,,,,,,,,,,,,,,,,,,,,,,,,,,,,,,,,,,,,,,,,,,,,,,,,,,,,,,,,1.8703703731298447,0.8463161999825388,438.4020623000106,None,ScrollUp,정답입니다,438.4020623000106,None,438.4020623000106,None,438.4020623000106,None,438.4020623000106,None,439.16192870005034,None,439.16192870005034,439.6619457999477,,,,,,,,,,,,,,,,201,2023-04-24_10h48.23.181,FishGame,2022.1.1,59.16127067059829,
,13,넌 박식해,2,Orange,A,5.625,3.933333333333333,ScrollDown,ScrollUp,Orange.png,4,Positive,Congruent,0,0,0,0,,,,,,,,,,,,,,,,,,,,,,,,,0,12,12,12,,,,,,,,,,,,,,,,,,,,,,,,,,,,,,,,,,,,,,,,,,,,,,,,,,,,,,,,,,,,,,,,,,,,,,,,,1.2608024626970291,0.8147670000325888,440.2728114000056,None,ScrollDown,정답입니다,440.2728114000056,None,440.2728114000056,None,440.2728114000056,None,440.2728114000056,None,440.9952192000346,None,440.9952192000346,441.49308749998454,,,,,,,,,,,,,,,,201,2023-04-24_10h48.23.181,FishGame,2022.1.1,59.16127067059829,
,14,나를 보내줘,6,Orange,A,0,0,ScrollUp,ScrollDown,Orange.png,4,NonTarget,NonTarget,0,0,0,0,,,,,,,,,,,,,,,,,,,,,,,,,0,13,13,13,,,,,,,,,,,,,,,,,,,,,,,,,,,,,,,,,,,,,,,,,,,,,,,,,,,,,,,,,,,,,,,,,,,,,,,,,1.6851851865649223,0.7961995999794453,442.1022907999577,None,ScrollUp,정답입니다,442.1022907999577,None,442.1022907999577,None,442.1022907999577,None,442.1022907999577,None,442.80989659996703,None,442.80989659996703,443.3119477999862,,,,,,,,,,,,,,,,201,2023-04-24_10h48.23.181,FishGame,2022.1.1,59.16127067059829,
,15,넌 침착해,1,Green,B,5.458333333333333,5.566666666666666,ScrollUp,ScrollDown,Green.png,4,Positive,Incongruent,0,0,0,0,,,,,,,,,,,,,,,,,,,,,,,,,0,14,14,14,,,,,,,,,,,,,,,,,,,,,,,,,,,,,,,,,,,,,,,,,,,,,,,,,,,,,,,,,,,,,,,,,,,,,,,,,1.7530864129463832,0.7622880999697372,443.9289387000026,None,ScrollUp,정답입니다,443.9289387000026,None,443.9289387000026,None,443.9289387000026,None,443.9289387000026,None,444.59288879996166,None,444.59288879996166,445.0928690000437,,,,,,,,,,,,,,,,201,2023-04-24_10h48.23.181,FishGame,2022.1.1,59.16127067059829,
,16,나를 데려가줘,6,Green,B,0,0,ScrollDown,ScrollUp,Green.png,4,NonTarget,NonTarget,0,0,0,0,,,,,,,,,,,,,,,,,,,,,,,,,0,15,15,15,,,,,,,,,,,,,,,,,,,,,,,,,,,,,,,,,,,,,,,,,,,,,,,,,,,,,,,,,,,,,,,,,,,,,,,,,1.214506169160207,0.8297017998993397,445.70004110003356,None,ScrollDown,정답입니다,445.70004110003356,None,445.70004110003356,None,445.70004110003356,None,445.70004110003356,None,446.44291320000775,None,446.44291320000775,446.9452820000006,,,,,,,,,,,,,,,,201,2023-04-24_10h48.23.181,FishGame,2022.1.1,59.16127067059829,
,17,넌 행복해,1,Orange,A,6.416666666666666,6.166666666666667,ScrollDown,ScrollUp,Orange.png,4,Positive,Congruent,0,0,0,0,,,,,,,,,,,,,,,,,,,,,,,,,0,16,16,16,,,,,,,,,,,,,,,,,,,,,,,,,,,,,,,,,,,,,,,,,,,,,,,,,,,,,,,,,,,,,,,,,,,,,,,,,1,0.9315722000319511,447.56212290003896,None,ScrollDown,정답입니다,447.56212290003896,None,447.56212290003896,None,447.56212290003896,None,447.56212290003896,None,448.3952879999997,None,448.3952879999997,448.895269199973,,,,,,,,,,,,,,,,201,2023-04-24_10h48.23.181,FishGame,2022.1.1,59.16127067059829,
,18,넌 겸손해,2,Green,B,5.791666666666667,4.766666666666667,ScrollUp,ScrollDown,Green.png,4,Positive,Incongruent,0,0,0,0,,,,,,,,,,,,,,,,,,,,,,,,,0,17,17,17,,,,,,,,,,,,,,,,,,,,,,,,,,,,,,,,,,,,,,,,,,,,,,,,,,,,,,,,,,,,,,,,,,,,,,,,,1.9984568059444427,0.8130978000117466,449.50266660004854,None,ScrollUp,정답입니다,449.50266660004854,None,449.50266660004854,None,449.50266660004854,None,449.50266660004854,None,450.2263962000143,None,450.2263962000143,450.72849739994854,,,,,,,,,,,,,,,,201,2023-04-24_10h48.23.181,FishGame,2022.1.1,59.16127067059829,
,19,나를 보내줘,6,Orange,A,0,0,ScrollUp,ScrollDown,Orange.png,4,NonTarget,NonTarget,0,0,0,0,,,,,,,,,,,,,,,,,,,,,,,,,0,18,18,18,,,,,,,,,,,,,,,,,,,,,,,,,,,,,,,,,,,,,,,,,,,,,,,,,,,,,,,,,,,,,,,,,,,,,,,,,1.8611111144224803,0.8460421999916434,451.33513330004644,None,ScrollUp,정답입니다,451.33513330004644,None,451.33513330004644,None,451.33513330004644,None,451.33513330004644,None,452.0927412000019,None,452.0927412000019,452.59335480001755,,,,,,,,,,,,,,,,201,2023-04-24_10h48.23.181,FishGame,2022.1.1,59.16127067059829,
,20,넌 의심없어,3,Orange,A,4.166666666666667,4.6,ScrollDown,ScrollUp,Orange.png,4,Neutral,Neutral,0,0,0,0,,,,,,,,,,,,,,,,,,,,,,,,,0,19,19,19,,,,,,,,,,,,,,,,,,,,,,,,,,,,,,,,,,,,,,,,,,,,,,,,,,,,,,,,,,,,,,,,,,,,,,,,,1.0262345671653748,0.9130932000698522,453.2020436000312,None,ScrollDown,정답입니다,453.2020436000312,None,453.2020436000312,None,453.2020436000312,None,453.2020436000312,None,454.0260940999724,None,454.0260940999724,454.52857019996736,,,,,,,,,,,,,,,,201,2023-04-24_10h48.23.181,FishGame,2022.1.1,59.16127067059829,
,21,넌 시시해,4,Orange,A,2.666666666666667,2.966666666666667,ScrollDown,ScrollUp,Orange.png,4,Negative,Incongruent,0,0,0,0,,,,,,,,,,,,,,,,,,,,,,,,,0,20,20,20,,,,,,,,,,,,,,,,,,,,,,,,,,,,,,,,,,,,,,,,,,,,,,,,,,,,,,,,,,,,,,,,,,,,,,,,,1,0.8315669000148773,455.1342523000203,None,ScrollDown,정답입니다,455.1342523000203,None,455.1342523000203,None,455.1342523000203,None,455.1342523000203,None,455.8784189999569,None,455.8784189999569,456.3784702999983,,,,,,,,,,,,,,,,201,2023-04-24_10h48.23.181,FishGame,2022.1.1,59.16127067059829,
,22,나를 데려가줘,6,Green,B,0,0,ScrollDown,ScrollUp,Green.png,4,NonTarget,NonTarget,0,0,0,0,,,,,,,,,,,,,,,,,,,,,,,,,0,21,21,21,,,,,,,,,,,,,,,,,,,,,,,,,,,,,,,,,,,,,,,,,,,,,,,,,,,,,,,,,,,,,,,,,,,,,,,,,1,0.8816746999509633,457.0402581000235,None,ScrollDown,정답입니다,457.0402581000235,None,457.0402581000235,None,457.0402581000235,None,457.0402581000235,None,457.7782636999618,None,457.7782636999618,458.27829439996276,,,,,,,,,,,,,,,,201,2023-04-24_10h48.23.181,FishGame,2022.1.1,59.16127067059829,
,23,넌 무정해,5,Orange,A,2.5,2.2,ScrollDown,ScrollUp,Orange.png,4,Negative,Incongruent,0,0,0,0,,,,,,,,,,,,,,,,,,,,,,,,,0,22,22,22,,,,,,,,,,,,,,,,,,,,,,,,,,,,,,,,,,,,,,,,,,,,,,,,,,,,,,,,,,,,,,,,,,,,,,,,,1,1.0146843999391422,458.90408849995583,None,ScrollDown,정답입니다,458.90408849995583,None,458.90408849995583,None,458.90408849995583,None,458.90408849995583,None,459.8281912000384,None,459.8281912000384,460.32815309998114,,,,,,,,,,,,,,,,201,2023-04-24_10h48.23.181,FishGame,2022.1.1,59.16127067059829,
,24,넌 긍정적이야,1,Green,B,6.041666666666667,6.066666666666666,ScrollUp,ScrollDown,Green.png,4,Positive,Incongruent,0,0,0,0,,,,,,,,,,,,,,,,,,,,,,,,,0,23,23,23,,,,,,,,,,,,,,,,,,,,,,,,,,,,,,,,,,,,,,,,,,,,,,,,,,,,,,,,,,,,,,,,,,,,,,,,,2,0.715073800063692,460.9378542000195,None,ScrollUp,정답입니다,460.9378542000195,None,460.9378542000195,None,460.9378542000195,None,460.9378542000195,None,461.5615585000487,None,461.5615585000487,462.0615483999718,,,,,,,,,,,,,,,,201,2023-04-24_10h48.23.181,FishGame,2022.1.1,59.16127067059829,
,25,나를 보내줘,6,Orange,A,0,0,ScrollUp,ScrollDown,Orange.png,4,NonTarget,NonTarget,0,0,0,0,,,,,,,,,,,,,,,,,,,,,,,,,0,24,24,24,,,,,,,,,,,,,,,,,,,,,,,,,,,,,,,,,,,,,,,,,,,,,,,,,,,,,,,,,,,,,,,,,,,,,,,,,1.817901223897934,1.0626093000173569,462.6682075000135,None,ScrollUp,정답입니다,462.6682075000135,None,462.6682075000135,None,462.6682075000135,None,462.6682075000135,None,463.6447729000356,None,463.6447729000356,464.1447853000136,,,,,,,,,,,,,,,,201,2023-04-24_10h48.23.181,FishGame,2022.1.1,59.16127067059829,
,26,넌 시기심이 많아,5,Green,B,2.458333333333333,2.233333333333333,ScrollUp,ScrollDown,Green.png,4,Negative,Congruent,0,0,0,0,,,,,,,,,,,,,,,,,,,,,,,,,0,25,25,25,,,,,,,,,,,,,,,,,,,,,,,,,,,,,,,,,,,,,,,,,,,,,,,,,,,,,,,,,,,,,,,,,,,,,,,,,1.765432099501292,0.8482771000126377,464.7543482000474,None,ScrollUp,정답입니다,464.7543482000474,None,464.7543482000474,None,464.7543482000474,None,464.7543482000474,None,465.5114473999711,None,465.5114473999711,466.0114275000524,,,,,,,,,,,,,,,,201,2023-04-24_10h48.23.181,FishGame,2022.1.1,59.16127067059829,
,27,넌 탁월해,2,Orange,A,5.708333333333334,4.5,ScrollDown,ScrollUp,Orange.png,4,Positive,Congruent,0,0,0,0,,,,,,,,,,,,,,,,,,,,,,,,,0,26,26,26,,,,,,,,,,,,,,,,,,,,,,,,,,,,,,,,,,,,,,,,,,,,,,,,,,,,,,,,,,,,,,,,,,,,,,,,,1,0.7645312999375165,466.627517899964,None,ScrollDown,정답입니다,466.627517899964,None,466.627517899964,None,466.627517899964,None,466.627517899964,None,467.29481570003554,None,467.29481570003554,467.7980988000054,,,,,,,,,,,,,,,,201,2023-04-24_10h48.23.181,FishGame,2022.1.1,59.16127067059829,
,28,나를 데려가줘,6,Green,B,0,0,ScrollDown,ScrollUp,Green.png,4,NonTarget,NonTarget,0,0,0,0,,,,,,,,,,,,,,,,,,,,,,,,,0,27,27,27,,,,,,,,,,,,,,,,,,,,,,,,,,,,,,,,,,,,,,,,,,,,,,,,,,,,,,,,,,,,,,,,,,,,,,,,,1.0617283880710602,0.8956644999561831,468.39977110002656,None,ScrollDown,정답입니다,468.39977110002656,None,468.39977110002656,None,468.39977110002656,None,468.39977110002656,None,469.21131100005005,None,469.21131100005005,469.7113217000151,,,,,,,,,,,,,,,,201,2023-04-24_10h48.23.181,FishGame,2022.1.1,59.16127067059829,
,29,넌 조용해,3,Green,B,4.333333333333333,4.166666666666667,ScrollUp,ScrollDown,Green.png,4,Neutral,Neutral,0,0,0,0,,,,,,,,,,,,,,,,,,,,,,,,,0,28,28,28,,,,,,,,,,,,,,,,,,,,,,,,,,,,,,,,,,,,,,,,,,,,,,,,,,,,,,,,,,,,,,,,,,,,,,,,,1.71913580596447,0.8460852999705821,470.3184442999773,None,ScrollUp,정답입니다,470.3184442999773,None,470.3184442999773,None,470.3184442999773,None,470.3184442999773,None,471.0779610000318,None,471.0779610000318,471.5780058000237,,,,,,,,,,,,,,,,201,2023-04-24_10h48.23.181,FishGame,2022.1.1,59.16127067059829,
,30,넌 다정해,1,Orange,A,5.833333333333334,5.7,ScrollDown,ScrollUp,Orange.png,4,Positive,Congruent,0,0,0,0,,,,,,,,,,,,,,,,,,,,,,,,,0,29,29,29,,,,,,,,,,,,,,,,,,,,,,,,,,,,,,,,,,,,,,,,,,,,,,,,,,,,,,,,,,,,,,,,,,,,,,,,,1,0.8795688999816775,472.18738989997655,None,ScrollDown,정답입니다,472.18738989997655,None,472.18738989997655,None,472.18738989997655,None,472.18738989997655,None,472.9759377000155,None,472.9759377000155,473.47832510003354,,,,,,,,,,,,,,,,201,2023-04-24_10h48.23.181,FishGame,2022.1.1,59.16127067059829,
,31,넌 능력있어,2,Green,B,6.166666666666666,4.6,ScrollUp,ScrollDown,Green.png,4,Positive,Incongruent,0,0,0,0,,,,,,,,,,,,,,,,,,,,,,,,,0,30,30,30,,,,,,,,,,,,,,,,,,,,,,,,,,,,,,,,,,,,,,,,,,,,,,,,,,,,,,,,,,,,,,,,,,,,,,,,,1.7561728407939274,0.8131462999153882,474.0822877000319,None,ScrollUp,정답입니다,474.0822877000319,None,474.0822877000319,None,474.0822877000319,None,474.0822877000319,None,474.81124239997007,None,474.81124239997007,475.3113366999896,,,,,,,,,,,,,,,,201,2023-04-24_10h48.23.181,FishGame,2022.1.1,59.16127067059829,
,32,넌 불쾌해,5,Orange,A,2.125,1.933333333333333,ScrollDown,ScrollUp,Orange.png,4,Negative,Incongruent,0,0,0,0,,,,,,,,,,,,,,,,,,,,,,,,,0,31,31,31,,,,,,,,,,,,,,,,,,,,,,,,,,,,,,,,,,,,,,,,,,,,,,,,,,,,,,,,,,,,,,,,,,,,,,,,,1.0154321193695068,0.8651052999775857,475.92029379995074,None,ScrollDown,정답입니다,475.92029379995074,None,475.92029379995074,None,475.92029379995074,None,475.92029379995074,None,476.69466070004273,None,476.69466070004273,477.1945784999989,,,,,,,,,,,,,,,,201,2023-04-24_10h48.23.181,FishGame,2022.1.1,59.16127067059829,
,33,나를 데려가줘,6,Green,B,0,0,ScrollDown,ScrollUp,Green.png,4,NonTarget,NonTarget,0,0,0,0,,,,,,,,,,,,,,,,,,,,,,,,,0,32,32,32,,,,,,,,,,,,,,,,,,,,,,,,,,,,,,,,,,,,,,,,,,,,,,,,,,,,,,,,,,,,,,,,,,,,,,,,,1.060185174147288,0.909892600029707,477.8026263000211,None,ScrollDown,정답입니다,477.8026263000211,None,477.8026263000211,None,477.8026263000211,None,477.8026263000211,None,478.6258183999453,None,478.6258183999453,479.12778300000355,,,,,,,,,,,,,,,,201,2023-04-24_10h48.23.181,FishGame,2022.1.1,59.16127067059829,
,34,넌 유순해,3,Orange,A,4.458333333333333,5,ScrollDown,ScrollUp,Orange.png,4,Neutral,Neutral,0,0,0,0,,,,,,,,,,,,,,,,,,,,,,,,,0,33,33,33,,,,,,,,,,,,,,,,,,,,,,,,,,,,,,,,,,,,,,,,,,,,,,,,,,,,,,,,,,,,,,,,,,,,,,,,,1.121913582086563,0.8462452000239864,479.73362710000947,None,ScrollDown,정답입니다,479.73362710000947,None,479.73362710000947,None,479.73362710000947,None,479.73362710000947,None,480.4944105000468,None,480.4944105000468,480.99440800002776,,,,,,,,,,,,,,,,201,2023-04-24_10h48.23.181,FishGame,2022.1.1,59.16127067059829,
,35,넌 근심스러워,4,Green,B,2.708333333333333,3.133333333333333,ScrollUp,ScrollDown,Green.png,4,Negative,Congruent,0,0,0,0,,,,,,,,,,,,,,,,,,,,,,,,,0,34,34,34,,,,,,,,,,,,,,,,,,,,,,,,,,,,,,,,,,,,,,,,,,,,,,,,,,,,,,,,,,,,,,,,,,,,,,,,,1.7006172885497413,0.8295498000225052,481.5987349000061,None,ScrollUp,정답입니다,481.5987349000061,None,481.5987349000061,None,481.5987349000061,None,481.5987349000061,None,482.34438919997774,None,482.34438919997774,482.8444479999598,,,,,,,,,,,,,,,,201,2023-04-24_10h48.23.181,FishGame,2022.1.1,59.16127067059829,
,36,넌 세련되었어,2,Orange,A,5.5,4.6,ScrollDown,ScrollUp,Orange.png,4,Positive,Congruent,0,0,0,0,,,,,,,,,,,,,,,,,,,,,,,,,0,35,35,35,,,,,,,,,,,,,,,,,,,,,,,,,,,,,,,,,,,,,,,,,,,,,,,,,,,,,,,,,,,,,,,,,,,,,,,,,1,0.8147839999292046,483.463039400056,None,ScrollDown,정답입니다,483.463039400056,None,483.463039400056,None,483.463039400056,None,483.463039400056,None,484.1777820000425,None,484.1777820000425,484.68101569998544,,,,,,,,,,,,,,,,201,2023-04-24_10h48.23.181,FishGame,2022.1.1,59.16127067059829,
,37,나를 보내줘,6,Orange,A,0,0,ScrollUp,ScrollDown,Orange.png,4,NonTarget,NonTarget,0,0,0,0,,,,,,,,,,,,,,,,,,,,,,,,,0,36,36,36,,,,,,,,,,,,,,,,,,,,,,,,,,,,,,,,,,,,,,,,,,,,,,,,,,,,,,,,,,,,,,,,,,,,,,,,,1.6373456791043282,0.9148112999973819,485.2844683000585,None,ScrollUp,정답입니다,485.2844683000585,None,485.2844683000585,None,485.2844683000585,None,485.2844683000585,None,486.11095360002946,None,486.11095360002946,486.6110179000534,,,,,,,,,,,,,,,,201,2023-04-24_10h48.23.181,FishGame,2022.1.1,59.16127067059829,
,38,넌 확고해,3,Green,B,4.708333333333334,4.566666666666666,ScrollUp,ScrollDown,Green.png,4,Neutral,Neutral,0,0,0,0,,,,,,,,,,,,,,,,,,,,,,,,,0,37,37,37,,,,,,,,,,,,,,,,,,,,,,,,,,,,,,,,,,,,,,,,,,,,,,,,,,,,,,,,,,,,,,,,,,,,,,,,,1.7947530895471573,0.8984714000253007,487.2178967000218,None,ScrollUp,정답입니다,487.2178967000218,None,487.2178967000218,None,487.2178967000218,None,487.2178967000218,None,488.0276217999635,None,488.0276217999635,488.5282028999645,,,,,,,,,,,,,,,,201,2023-04-24_10h48.23.181,FishGame,2022.1.1,59.16127067059829,
,39,넌 이해심이 많아,1,Green,B,6.041666666666668,5.533333333333333,ScrollUp,ScrollDown,Green.png,4,Positive,Incongruent,0,0,0,0,,,,,,,,,,,,,,,,,,,,,,,,,0,38,38,38,,,,,,,,,,,,,,,,,,,,,,,,,,,,,,,,,,,,,,,,,,,,,,,,,,,,,,,,,,,,,,,,,,,,,,,,,1.6574074104428291,0.8295184000162408,489.1333457999863,None,ScrollUp,정답입니다,489.1333457999863,None,489.1333457999863,None,489.1333457999863,None,489.1333457999863,None,489.877536999993,None,489.877536999993,490.3775399000151,,,,,,,,,,,,,,,,201,2023-04-24_10h48.23.181,FishGame,2022.1.1,59.16127067059829,
,40,나를 보내줘,6,Orange,A,0,0,ScrollUp,ScrollDown,Orange.png,4,NonTarget,NonTarget,0,0,0,0,,,,,,,,,,,,,,,,,,,,,,,,,0,39,39,39,,,,,,,,,,,,,,,,,,,,,,,,,,,,,,,,,,,,,,,,,,,,,,,,,,,,,,,,,,,,,,,,,,,,,,,,,1.632716049750646,0.8815062999492511,490.98390760004986,None,ScrollUp,정답입니다,490.98390760004986,None,490.98390760004986,None,490.98390760004986,None,490.98390760004986,None,491.7755237000529,None,491.7755237000529,492.27755110000726,,,,,,,,,,,,,,,,201,2023-04-24_10h48.23.181,FishGame,2022.1.1,59.16127067059829,
,41,넌 거칠어,4,Orange,A,2.625,3.033333333333333,ScrollDown,ScrollUp,Orange.png,4,Negative,Incongruent,0,0,0,0,,,,,,,,,,,,,,,,,,,,,,,,,0,40,40,40,,,,,,,,,,,,,,,,,,,,,,,,,,,,,,,,,,,,,,,,,,,,,,,,,,,,,,,,,,,,,,,,,,,,,,,,,1.481481481033067,0.800282199983485,492.89136659994256,None,NoResponse,무응답입니다,492.89136659994256,None,492.89136659994256,None,492.89136659994256,None,492.89136659994256,None,493.59419960004743,None,493.59419960004743,494.1109101000475,,,,,,,,,,,,,,,,201,2023-04-24_10h48.23.181,FishGame,2022.1.1,59.16127067059829,
,42,넌 변덕맞아,5,Green,B,2.75,2.166666666666667,ScrollUp,ScrollDown,Green.png,4,Negative,Congruent,0,0,0,0,,,,,,,,,,,,,,,,,,,,,,,,,0,41,41,41,,,,,,,,,,,,,,,,,,,,,,,,,,,,,,,,,,,,,,,,,,,,,,,,,,,,,,,,,,,,,,,,,,,,,,,,,1.7407407512267432,0.8433734000427648,494.7068816999672,None,ScrollUp,정답입니다,494.7068816999672,None,494.7068816999672,None,494.7068816999672,None,494.7068816999672,None,495.46109340002295,None,495.46109340002295,495.9608312000055,,,,,,,,,,,,,,,,201,2023-04-24_10h48.23.181,FishGame,2022.1.1,59.16127067059829,
,43,나를 데려가줘,6,Green,B,0,0,ScrollDown,ScrollUp,Green.png,4,NonTarget,NonTarget,0,0,0,0,,,,,,,,,,,,,,,,,,,,,,,,,0,42,42,42,,,,,,,,,,,,,,,,,,,,,,,,,,,,,,,,,,,,,,,,,,,,,,,,,,,,,,,,,,,,,,,,,,,,,,,,,1.2993827114502587,1.0454610999440774,496.57197209994774,None,ScrollDown,정답입니다,496.57197209994774,None,496.57197209994774,None,496.57197209994774,None,496.57197209994774,None,497.52745359996334,None,497.52745359996334,498.0274354000576,,,,,,,,,,,,,,,,201,2023-04-24_10h48.23.181,FishGame,2022.1.1,59.16127067059829,
,44,넌 외로워,4,Green,B,2.833333333333333,3.3,ScrollUp,ScrollDown,Green.png,4,Negative,Congruent,0,0,0,0,,,,,,,,,,,,,,,,,,,,,,,,,0,43,43,43,,,,,,,,,,,,,,,,,,,,,,,,,,,,,,,,,,,,,,,,,,,,,,,,,,,,,,,,,,,,,,,,,,,,,,,,,1.9274691144625347,0.762983699911274,498.6341154000256,None,ScrollUp,정답입니다,498.6341154000256,None,498.6341154000256,None,498.6341154000256,None,498.6341154000256,None,499.3106843000278,None,499.3106843000278,499.81070280005224,,,,,,,,,,,,,,,,201,2023-04-24_10h48.23.181,FishGame,2022.1.1,59.16127067059829,
,1,넌 불평스러워,5,Orange,A,2.25,2.066666666666667,ScrollDown,ScrollUp,Orange.png,5,Negative,Incongruent,0,0,0,0,,,,,,,,,,,,,,,,,,,,,,,,,,,,,0,0,0,0,,,,,,,,,,,,,,,,,,,,,,,,,,,,532.5080527999671,534.0101622999646,534.0435338000534,534.9935425999574,535.0435397999827,535.9934961999534,535.9934961999534,None,,,,,,,,,,,,,,,,,,,,,,,,,,,,,,,,,,1.1358024577299755,0.7844861999619752,537.0849859999726,None,ScrollDown,정답입니다,537.0849859999726,None,537.0849859999726,None,537.0849859999726,None,537.0849859999726,None,537.7746179000242,None,537.7746179000242,538.2766803000122,500.30866370000876,None,500.30866370000876,None,-0.017592592,-0.11111111,1,0,0,0.016225689905695617,None,530.310030200053,None,,,201,2023-04-24_10h48.23.181,FishGame,2022.1.1,59.16127067059829,
,2,나를 보내줘,6,Orange,A,0,0,ScrollUp,ScrollDown,Orange.png,5,NonTarget,NonTarget,0,0,0,0,,,,,,,,,,,,,,,,,,,,,,,,,,,,,0,1,1,1,,,,,,,,,,,,,,,,,,,,,,,,,,,,,,,,,,,,,,,,,,,,,,,,,,,,,,,,,,,,,,,,,,,,,1.8271604826052983,0.7983140998985618,538.8835626000073,None,ScrollUp,정답입니다,538.8835626000073,None,538.8835626000073,None,538.8835626000073,None,538.8835626000073,None,539.5933237000136,None,539.5933237000136,540.0938938000472,,,,,,,,,,,,,,,,201,2023-04-24_10h48.23.181,FishGame,2022.1.1,59.16127067059829,
,3,넌 다재다능해,2,Green,B,6.208333333333333,4.5,ScrollUp,ScrollDown,Green.png,5,Positive,Incongruent,0,0,0,0,,,,,,,,,,,,,,,,,,,,,,,,,,,,,0,2,2,2,,,,,,,,,,,,,,,,,,,,,,,,,,,,,,,,,,,,,,,,,,,,,,,,,,,,,,,,,,,,,,,,,,,,,1.6188271616895995,0.630946799996309,540.6989657999948,None,ScrollUp,정답입니다,540.6989657999948,None,540.6989657999948,None,540.6989657999948,None,540.6989657999948,None,541.2431574000511,None,541.2431574000511,541.7431666000048,,,,,,,,,,,,,,,,201,2023-04-24_10h48.23.181,FishGame,2022.1.1,59.16127067059829,
,4,넌 과감해,3,Orange,A,4.833333333333334,4.6,ScrollDown,ScrollUp,Orange.png,5,Neutral,Neutral,0,0,0,0,,,,,,,,,,,,,,,,,,,,,,,,,,,,,0,3,3,3,,,,,,,,,,,,,,,,,,,,,,,,,,,,,,,,,,,,,,,,,,,,,,,,,,,,,,,,,,,,,,,,,,,,,1.3796296243866284,0.6294909999705851,542.3496294999495,None,ScrollDown,정답입니다,542.3496294999495,None,542.3496294999495,None,542.3496294999495,None,542.3496294999495,None,542.893168300041,None,542.893168300041,543.3931716999505,,,,,,,,,,,,,,,,201,2023-04-24_10h48.23.181,FishGame,2022.1.1,59.16127067059829,
,5,넌 고분고분해,3,Green,B,3.75,4.033333333333333,ScrollUp,ScrollDown,Green.png,5,Neutral,Neutral,0,0,0,0,,,,,,,,,,,,,,,,,,,,,,,,,,,,,0,4,4,4,,,,,,,,,,,,,,,,,,,,,,,,,,,,,,,,,,,,,,,,,,,,,,,,,,,,,,,,,,,,,,,,,,,,,1.7839506169160206,0.7291216000448912,544.0020966000156,None,ScrollUp,정답입니다,544.0020966000156,None,544.0020966000156,None,544.0020966000156,None,544.0020966000156,None,544.6408366999822,None,544.6408366999822,545.140829400043,,,,,,,,,,,,,,,,201,2023-04-24_10h48.23.181,FishGame,2022.1.1,59.16127067059829,
,6,나를 보내줘,6,Orange,A,0,0,ScrollUp,ScrollDown,Orange.png,5,NonTarget,NonTarget,0,0,0,0,,,,,,,,,,,,,,,,,,,,,,,,,,,,,0,5,5,5,,,,,,,,,,,,,,,,,,,,,,,,,,,,,,,,,,,,,,,,,,,,,,,,,,,,,,,,,,,,,,,,,,,,,1.5524691368142762,1.2816687000449747,545.7459855000488,None,ScrollUp,정답입니다,545.7459855000488,None,545.7459855000488,None,545.7459855000488,None,545.7459855000488,None,546.9432097000536,None,546.9432097000536,547.4432073000353,,,,,,,,,,,,,,,,201,2023-04-24_10h48.23.181,FishGame,2022.1.1,59.16127067059829,
,7,넌 잘 잊어,4,Orange,A,3,3.7,ScrollDown,ScrollUp,Orange.png,5,Negative,Incongruent,0,0,0,0,,,,,,,,,,,,,,,,,,,,,,,,,,,,,0,6,6,6,,,,,,,,,,,,,,,,,,,,,,,,,,,,,,,,,,,,,,,,,,,,,,,,,,,,,,,,,,,,,,,,,,,,,1.1975308656692505,0.8485580999404192,548.0543367000064,None,ScrollDown,정답입니다,548.0543367000064,None,548.0543367000064,None,548.0543367000064,None,548.0543367000064,None,548.8101287999889,None,548.8101287999889,549.3099912999896,,,,,,,,,,,,,,,,201,2023-04-24_10h48.23.181,FishGame,2022.1.1,59.16127067059829,
,8,넌 탐구심이없어,4,Green,B,2.833333333333333,3.066666666666667,ScrollUp,ScrollDown,Green.png,5,Negative,Congruent,0,0,0,0,,,,,,,,,,,,,,,,,,,,,,,,,,,,,0,7,7,7,,,,,,,,,,,,,,,,,,,,,,,,,,,,,,,,,,,,,,,,,,,,,,,,,,,,,,,,,,,,,,,,,,,,,1.7546296268701553,0.7648463000077754,549.9230071000056,None,ScrollUp,정답입니다,549.9230071000056,None,549.9230071000056,None,549.9230071000056,None,549.9230071000056,None,550.5929992999882,None,550.5929992999882,551.0929838999873,,,,,,,,,,,,,,,,201,2023-04-24_10h48.23.181,FishGame,2022.1.1,59.16127067059829,
,9,나를 데려가줘,6,Green,B,0,0,ScrollDown,ScrollUp,Green.png,5,NonTarget,NonTarget,0,0,0,0,,,,,,,,,,,,,,,,,,,,,,,,,,,,,0,8,8,8,,,,,,,,,,,,,,,,,,,,,,,,,,,,,,,,,,,,,,,,,,,,,,,,,,,,,,,,,,,,,,,,,,,,,1.3070987686514854,0.9126733000157401,551.7040411999915,None,ScrollDown,정답입니다,551.7040411999915,None,551.7040411999915,None,551.7040411999915,None,551.7040411999915,None,552.5241902000271,None,552.5241902000271,553.0241716000019,,,,,,,,,,,,,,,,201,2023-04-24_10h48.23.181,FishGame,2022.1.1,59.16127067059829,
,10,넌 참되어,2,Orange,A,6.041666666666664,4.733333333333333,ScrollDown,ScrollUp,Orange.png,5,Positive,Congruent,0,0,0,0,,,,,,,,,,,,,,,,,,,,,,,,,,,,,0,9,9,9,,,,,,,,,,,,,,,,,,,,,,,,,,,,,,,,,,,,,,,,,,,,,,,,,,,,,,,,,,,,,,,,,,,,,1.0879629751046498,0.8814106999197975,553.6315243999707,None,ScrollDown,정답입니다,553.6315243999707,None,553.6315243999707,None,553.6315243999707,None,553.6315243999707,None,554.424026099965,None,554.424026099965,554.9263971999753,,,,,,,,,,,,,,,,201,2023-04-24_10h48.23.181,FishGame,2022.1.1,59.16127067059829,
,11,넌 생기있어,1,Green,B,5.875,5.633333333333334,ScrollUp,ScrollDown,Green.png,5,Positive,Incongruent,0,0,0,0,,,,,,,,,,,,,,,,,,,,,,,,,,,,,0,10,10,10,,,,,,,,,,,,,,,,,,,,,,,,,,,,,,,,,,,,,,,,,,,,,,,,,,,,,,,,,,,,,,,,,,,,,1.7067901194095612,0.7983222999610007,555.5348568999907,None,ScrollUp,정답입니다,555.5348568999907,None,555.5348568999907,None,555.5348568999907,None,555.5348568999907,None,556.2430206000572,None,556.2430206000572,556.7460820999695,,,,,,,,,,,,,,,,201,2023-04-24_10h48.23.181,FishGame,2022.1.1,59.16127067059829,
,12,넌 비사교적이야,4,Green,B,2.875,2.9,ScrollUp,ScrollDown,Green.png,5,Negative,Congruent,0,0,0,0,,,,,,,,,,,,,,,,,,,,,,,,,,,,,0,11,11,11,,,,,,,,,,,,,,,,,,,,,,,,,,,,,,,,,,,,,,,,,,,,,,,,,,,,,,,,,,,,,,,,,,,,,1.632716049750646,0.7150522000156343,557.348452599952,None,ScrollUp,정답입니다,557.348452599952,None,557.348452599952,None,557.348452599952,None,557.348452599952,None,557.9762739000143,None,557.9762739000143,558.4762137000216,,,,,,,,,,,,,,,,201,2023-04-24_10h48.23.181,FishGame,2022.1.1,59.16127067059829,
,13,나를 데려가줘,6,Green,B,0,0,ScrollDown,ScrollUp,Green.png,5,NonTarget,NonTarget,0,0,0,0,,,,,,,,,,,,,,,,,,,,,,,,,,,,,0,12,12,12,,,,,,,,,,,,,,,,,,,,,,,,,,,,,,,,,,,,,,,,,,,,,,,,,,,,,,,,,,,,,,,,,,,,,1.2700617214043937,0.8626894999761134,559.080424600048,None,ScrollDown,정답입니다,559.080424600048,None,559.080424600048,None,559.080424600048,None,559.080424600048,None,559.8594605999533,None,559.8594605999533,560.3594819999998,,,,,,,,,,,,,,,,201,2023-04-24_10h48.23.181,FishGame,2022.1.1,59.16127067059829,
,14,넌 고독해,4,Orange,A,2.916666666666667,3.233333333333333,ScrollDown,ScrollUp,Orange.png,5,Negative,Incongruent,0,0,0,0,,,,,,,,,,,,,,,,,,,,,,,,,,,,,0,13,13,13,,,,,,,,,,,,,,,,,,,,,,,,,,,,,,,,,,,,,,,,,,,,,,,,,,,,,,,,,,,,,,,,,,,,,1.699074074625969,0.8462482000468299,560.9618895000312,None,ScrollUp,오답입니다,560.9618895000312,None,560.9618895000312,None,560.9618895000312,None,560.9618895000312,None,561.7241459999932,None,561.7241459999932,562.2260967999464,,,,,,,,,,,,,,,,201,2023-04-24_10h48.23.181,FishGame,2022.1.1,59.16127067059829,
,15,넌 신경질적이야,5,Green,B,2.375,2.233333333333333,ScrollUp,ScrollDown,Green.png,5,Negative,Congruent,0,0,0,0,,,,,,,,,,,,,,,,,,,,,,,,,,,,,0,14,14,14,,,,,,,,,,,,,,,,,,,,,,,,,,,,,,,,,,,,,,,,,,,,,,,,,,,,,,,,,,,,,,,,,,,,,2,0.7649549000198022,562.8469667000463,None,ScrollUp,정답입니다,562.8469667000463,None,562.8469667000463,None,562.8469667000463,None,562.8469667000463,None,563.5074076999445,None,563.5074076999445,564.009505999973,,,,,,,,,,,,,,,,201,2023-04-24_10h48.23.181,FishGame,2022.1.1,59.16127067059829,
,16,넌 똑똑해,2,Green,B,5.666666666666667,3.966666666666667,ScrollUp,ScrollDown,Green.png,5,Positive,Incongruent,0,0,0,0,,,,,,,,,,,,,,,,,,,,,,,,,,,,,0,15,15,15,,,,,,,,,,,,,,,,,,,,,,,,,,,,,,,,,,,,,,,,,,,,,,,,,,,,,,,,,,,,,,,,,,,,,2,0.8429755999241024,564.6193263999885,None,ScrollUp,정답입니다,564.6193263999885,None,564.6193263999885,None,564.6193263999885,None,564.6193263999885,None,565.376078799949,None,565.376078799949,565.8760875000153,,,,,,,,,,,,,,,,201,2023-04-24_10h48.23.181,FishGame,2022.1.1,59.16127067059829,
,17,나를 보내줘,6,Orange,A,0,0,ScrollUp,ScrollDown,Orange.png,5,NonTarget,NonTarget,0,0,0,0,,,,,,,,,,,,,,,,,,,,,,,,,,,,,0,16,16,16,,,,,,,,,,,,,,,,,,,,,,,,,,,,,,,,,,,,,,,,,,,,,,,,,,,,,,,,,,,,,,,,,,,,,2,0.8461404000408947,566.5064376000082,None,ScrollUp,정답입니다,566.5064376000082,None,566.5064376000082,None,566.5064376000082,None,566.5064376000082,None,567.2570497000124,None,567.2570497000124,567.7570434999652,,,,,,,,,,,,,,,,201,2023-04-24_10h48.23.181,FishGame,2022.1.1,59.16127067059829,
,18,넌 협조적이야,1,Orange,A,5.625,5.666666666666667,ScrollDown,ScrollUp,Orange.png,5,Positive,Congruent,0,0,0,0,,,,,,,,,,,,,,,,,,,,,,,,,,,,,0,17,17,17,,,,,,,,,,,,,,,,,,,,,,,,,,,,,,,,,,,,,,,,,,,,,,,,,,,,,,,,,,,,,,,,,,,,,1.1651234477758408,0.7317412999691442,568.3585717000533,None,ScrollDown,정답입니다,568.3585717000533,None,568.3585717000533,None,568.3585717000533,None,568.3585717000533,None,569.0070627999958,None,569.0070627999958,569.5070716999471,,,,,,,,,,,,,,,,201,2023-04-24_10h48.23.181,FishGame,2022.1.1,59.16127067059829,
,19,나를 데려가줘,6,Green,B,0,0,ScrollDown,ScrollUp,Green.png,5,NonTarget,NonTarget,0,0,0,0,,,,,,,,,,,,,,,,,,,,,,,,,,,,,0,18,18,18,,,,,,,,,,,,,,,,,,,,,,,,,,,,,,,,,,,,,,,,,,,,,,,,,,,,,,,,,,,,,,,,,,,,,1.0509259402751923,0.8148281000321731,570.1144865000388,None,ScrollDown,정답입니다,570.1144865000388,None,570.1144865000388,None,570.1144865000388,None,570.1144865000388,None,570.8427884000121,None,570.8427884000121,571.3427593000233,,,,,,,,,,,,,,,,201,2023-04-24_10h48.23.181,FishGame,2022.1.1,59.16127067059829,
,20,넌 몰인정해,5,Green,B,2.541666666666667,2.066666666666667,ScrollUp,ScrollDown,Green.png,5,Negative,Congruent,0,0,0,0,,,,,,,,,,,,,,,,,,,,,,,,,,,,,0,19,19,19,,,,,,,,,,,,,,,,,,,,,,,,,,,,,,,,,,,,,,,,,,,,,,,,,,,,,,,,,,,,,,,,,,,,,1.609567902982235,0.8646735999500379,571.9508590999758,None,ScrollUp,정답입니다,571.9508590999758,None,571.9508590999758,None,571.9508590999758,None,571.9508590999758,None,572.725885199965,None,572.725885199965,573.2259139999514,,,,,,,,,,,,,,,,201,2023-04-24_10h48.23.181,FishGame,2022.1.1,59.16127067059829,
,21,나를 데려가줘,6,Green,B,0,0,ScrollDown,ScrollUp,Green.png,5,NonTarget,NonTarget,0,0,0,0,,,,,,,,,,,,,,,,,,,,,,,,,,,,,0,20,20,20,,,,,,,,,,,,,,,,,,,,,,,,,,,,,,,,,,,,,,,,,,,,,,,,,,,,,,,,,,,,,,,,,,,,,1.0061728358268738,0.9148032000521198,573.8290921000298,None,ScrollDown,정답입니다,573.8290921000298,None,573.8290921000298,None,573.8290921000298,None,573.8290921000298,None,574.6591987999855,None,574.6591987999855,575.1592655000277,,,,,,,,,,,,,,,,201,2023-04-24_10h48.23.181,FishGame,2022.1.1,59.16127067059829,
,22,넌 순진해,3,Green,B,4.125,4.166666666666667,ScrollUp,ScrollDown,Green.png,5,Neutral,Neutral,0,0,0,0,,,,,,,,,,,,,,,,,,,,,,,,,,,,,0,21,21,21,,,,,,,,,,,,,,,,,,,,,,,,,,,,,,,,,,,,,,,,,,,,,,,,,,,,,,,,,,,,,,,,,,,,,1.7901234477758408,0.8129087999695912,575.7762986000162,None,ScrollUp,정답입니다,575.7762986000162,None,575.7762986000162,None,575.7762986000162,None,575.7762986000162,None,576.5091270999983,None,576.5091270999983,577.0091027000453,,,,,,,,,,,,,,,,201,2023-04-24_10h48.23.181,FishGame,2022.1.1,59.16127067059829,
