name,TrialNum,Word,WordCategory,FishType,WordList,WordValence,WordReputation,CorrectResp,IncorrectResp,FishTypeFile,Round,WordType,Condition,LoopforOrange.thisRepN,LoopforOrange.thisTrialN,LoopforOrange.thisN,LoopforOrange.thisIndex,OrangeInstLoop.thisRepN,OrangeInstLoop.thisTrialN,OrangeInstLoop.thisN,OrangeInstLoop.thisIndex,OrangePrac.thisRepN,OrangePrac.thisTrialN,OrangePrac.thisN,OrangePrac.thisIndex,temp1.thisRepN,temp1.thisTrialN,temp1.thisN,temp1.thisIndex,OrangeRound1.thisRepN,OrangeRound1.thisTrialN,OrangeRound1.thisN,OrangeRound1.thisIndex,OrangeRound2.thisRepN,OrangeRound2.thisTrialN,OrangeRound2.thisN,OrangeRound2.thisIndex,OrangeRound3.thisRepN,OrangeRound3.thisTrialN,OrangeRound3.thisN,OrangeRound3.thisIndex,OrangeRound4.thisRepN,OrangeRound4.thisTrialN,OrangeRound4.thisN,OrangeRound4.thisIndex,OrangeRound5.thisRepN,OrangeRound5.thisTrialN,OrangeRound5.thisN,OrangeRound5.thisIndex,LoopForGreen.thisRepN,LoopForGreen.thisTrialN,LoopForGreen.thisN,LoopForGreen.thisIndex,text_2.started,text_2.stopped,text_3.started,text_3.stopped,key_resp.keys,key_resp.rt,key_resp.started,key_resp.stopped,PassI_2.started,PassI_2.stopped,PassInst_2.keys,PassInst_2.rt,PassInst_2.started,PassInst_2.stopped,mouse_2.x,mouse_2.y,mouse_2.leftButton,mouse_2.midButton,mouse_2.rightButton,mouse_2.started,mouse_2.stopped,image.started,image.stopped,text_5.started,text_5.stopped,text_6.started,text_6.stopped,text_7.started,text_7.stopped,text_8.started,text_8.stopped,slider_2.response,slider_2.rt,slider_2.started,slider_2.stopped,Response_2,Feedback_2,BackGround_2.started,BackGround_2.stopped,Fish_2.started,Fish_2.stopped,WordBox_2.started,WordBox_2.stopped,Words_2.started,Words_2.stopped,BackGround_Feedback_2.started,BackGround_Feedback_2.stopped,Feedbacks_2.started,Feedbacks_2.stopped,Continue_or_not.keys,Continue_or_not.rt,Continue_or_not.started,Continue_or_not.stopped,image_3.started,image_3.stopped,mouse_3.x,mouse_3.y,mouse_3.leftButton,mouse_3.midButton,mouse_3.rightButton,mouse_3.started,mouse_3.stopped,startmain.started,startmain.stopped,slider.response,slider.rt,slider.started,slider.stopped,Response,Feedback,BackGround.started,BackGround.stopped,Fish.started,Fish.stopped,WordBox.started,WordBox.stopped,Words.started,Words.stopped,BackGround_Feedback.started,BackGround_Feedback.stopped,Feedbacks.started,Feedbacks.stopped,text.started,text.stopped,break_interval.started,break_interval.stopped,mouse.x,mouse.y,mouse.leftButton,mouse.midButton,mouse.rightButton,mouse.started,mouse.stopped,stratnextround.started,stratnextround.stopped,endgame.started,endgame.stopped,participant,date,expName,psychopyVersion,frameRate,
,,,,,,,,,,,,,,,,,,,,,,,,,,,,,,,,,,,,,,,,,,,,,,,,,,,,,,165.2854476000648,None,165.2854476000648,None,space,1.4417471999768168,165.76122700003907,None,,,,,,,,,,,,,,,,,,,,,,,,,,,,,,,,,,,,,,,,,,,,,,,,,,,,,,,,,,,,,,,,,,,,,,,,,,,,,,,,,,,,,,,,,,203,2023-04-26_17h32.42.219,FishGame,2022.1.1,59.97174133768153,
물고기과제_instruction(참가자용)OrangeVersion.mp4,,,,,,,,,,,,,,0,0,0,0,0,0,0,0,,,,,,,,,,,,,,,,,,,,,,,,,,,,,,,,,,,,,,,,,234.19020489999093,None,n,1.9006670999806374,234.19020489999093,None,,,,,,,,,,,,,,,,,,,,,,,,,,,,,,,,,,,,,,,,,,,,,,,,,,,,,,,,,,,,,,,,,,,,,,,,,,,,,,,,,,,,203,2023-04-26_17h32.42.219,FishGame,2022.1.1,59.97174133768153,
,1,넌 교활해,5,Green,B,2.333333333333333,2.133333333333333,ScrollUp,ScrollDown,Green.png,practice,,,0,0,0,0,,,,,0,0,0,0,0,0,0,0,,,,,,,,,,,,,,,,,,,,,,,,,,,,,,,,,,,,,,,0.024074074,-0.23425926,1,0,0,0.5140817899955437,None,236.12098780006636,None,238.63997570006177,240.14016700000502,240.17370120005216,241.12678759999108,241.1600810000673,242.1233764999779,242.1233764999779,None,2,1.3307708000065759,243.3902025000425,None,ScrollUp,정답입니다,243.3902025000425,None,243.3902025000425,None,243.3902025000425,None,243.3902025000425,None,244.43745430000126,None,244.43745430000126,244.93745650001802,,,,,,,,,,,,,,,,,,,,,,,,,,,,,,,,,,,,,,,,,,,,,,,,,203,2023-04-26_17h32.42.219,FishGame,2022.1.1,59.97174133768153,
,2,넌 슬기로워,2,Orange,A,6.166666666666667,4.1,ScrollDown,ScrollUp,Orange.png,practice,,,0,0,0,0,,,,,0,0,0,0,0,1,1,1,,,,,,,,,,,,,,,,,,,,,,,,,,,,,,,,,,,,,,,,,,,,,,,,,,,,,,,,1.080246905485789,1.0320918000070378,245.54420430003665,None,ScrollDown,정답입니다,245.54420430003665,None,245.54420430003665,None,245.54420430003665,None,245.54420430003665,None,246.48992359999102,None,246.48992359999102,246.98987210006453,,,,,,,,,,,,,,,,,,,,,,,,,,,,,,,,,,,,,,,,,,,,,,,,,203,2023-04-26_17h32.42.219,FishGame,2022.1.1,59.97174133768153,
,3,나를 보내줘,6,Orange,A,0,0,ScrollUp,ScrollDown,Orange.png,practice,,,0,0,0,0,,,,,0,0,0,0,0,2,2,2,,,,,,,,,,,,,,,,,,,,,,,,,,,,,,,,,,,,,,,,,,,,,,,,,,,,,,,,1.8009259204069774,1.1149310000473633,247.59703390009236,None,ScrollUp,정답입니다,247.59703390009236,None,247.59703390009236,None,247.59703390009236,None,247.59703390009236,None,248.62324200000148,None,248.62324200000148,249.12308500008658,,,,,,,,,,,,,,,,,,,,,,,,,,,,,,,,,,,,,,,,,,,,,,,,,203,2023-04-26_17h32.42.219,FishGame,2022.1.1,59.97174133768153,
,4,나를 데려가줘,6,Green,B,0,0,ScrollDown,ScrollUp,Green.png,practice,,,0,0,0,0,,,,,0,0,0,0,0,3,3,3,,,,,,,,,,,,,,,,,,,,,,,,,,,,,,,,,,,,,,,,,,,,,,,,,,,,,,,,1,0.9463510999921709,249.72607930004597,None,ScrollDown,정답입니다,249.72607930004597,None,249.72607930004597,None,249.72607930004597,None,249.72607930004597,None,250.58970410004258,None,250.58970410004258,251.0896606000606,,,,,,,,,,,,,,,,,,,,,,,,,,,,,,,,,,,,,,,,,,,,,,,,,203,2023-04-26_17h32.42.219,FishGame,2022.1.1,59.97174133768153,
,1,넌 교활해,5,Green,B,2.333333333333333,2.133333333333333,ScrollUp,ScrollDown,Green.png,practice,,,0,0,0,0,,,,,0,0,0,0,,,,,,,,,,,,,,,,,,,,,,,,,,,,,,,,,,,,,,,,,,,,,,,,,,,,,,,,,,,,,,,,,,,,,,,,,,,,,,n,5.860980600002222,251.58976040000562,None,251.58976040000562,None,,,,,,,,,,,,,,,,,,,,,,,,,,,,,,,,,,,,,,,,,,,203,2023-04-26_17h32.42.219,FishGame,2022.1.1,59.97174133768153,
,1,넌 따뜻해,1,Green,B,6.083333333333333,5.6,ScrollUp,ScrollDown,Green.png,1,Positive,Incongruent,0,0,0,0,,,,,,,,,,,,,0,0,0,0,,,,,,,,,,,,,,,,,,,,,,,,,,,,,,,,,,,,,,,,,,,,259.9041545999935,261.4063137000194,261.43962120008655,262.39284320001025,262.4374343000818,263.3895811000839,263.3895811000839,None,,,,,,,,,,,,,,,,,,,,,,,,,0.009259259,-0.12777779,1,0,0,0.31505849002860487,None,257.47076970001217,None,1.9429012537002563,1.154705599998124,264.67544690007344,None,ScrollUp,정답입니다,264.67544690007344,None,264.67544690007344,None,264.67544690007344,None,264.67544690007344,None,265.5373634999851,None,265.5373634999851,266.03936739999335,,,,,,,,,,,,,,,,203,2023-04-26_17h32.42.219,FishGame,2022.1.1,59.97174133768153,
,2,넌 기품있어,2,Green,B,5.791666666666668,4.5,ScrollUp,ScrollDown,Green.png,1,Positive,Incongruent,0,0,0,0,,,,,,,,,,,,,0,1,1,1,,,,,,,,,,,,,,,,,,,,,,,,,,,,,,,,,,,,,,,,,,,,,,,,,,,,,,,,,,,,,,,,,,,,,,,,,,,,,,,,,,,,,1.787037044763565,0.7984682000242174,266.64909580000676,None,ScrollUp,정답입니다,266.64909580000676,None,266.64909580000676,None,266.64909580000676,None,266.64909580000676,None,267.35607149999123,None,267.35607149999123,267.856023899978,,,,,,,,,,,,,,,,203,2023-04-26_17h32.42.219,FishGame,2022.1.1,59.97174133768153,
,3,나를 보내줘,6,Orange,A,0,0,ScrollUp,ScrollDown,Orange.png,1,NonTarget,NonTarget,0,0,0,0,,,,,,,,,,,,,0,2,2,2,,,,,,,,,,,,,,,,,,,,,,,,,,,,,,,,,,,,,,,,,,,,,,,,,,,,,,,,,,,,,,,,,,,,,,,,,,,,,,,,,,,,,1.8410493830839794,0.9624792999820784,268.47681999998167,None,ScrollUp,정답입니다,268.47681999998167,None,268.47681999998167,None,268.47681999998167,None,268.47681999998167,None,269.3370027000783,None,269.3370027000783,269.8369651000248,,,,,,,,,,,,,,,,203,2023-04-26_17h32.42.219,FishGame,2022.1.1,59.97174133768153,
,4,넌 수동적이야,4,Orange,A,2.833333333333333,2.933333333333333,ScrollDown,ScrollUp,Orange.png,1,Negative,Incongruent,0,0,0,0,,,,,,,,,,,,,0,3,3,3,,,,,,,,,,,,,,,,,,,,,,,,,,,,,,,,,,,,,,,,,,,,,,,,,,,,,,,,,,,,,,,,,,,,,,,,,,,,,,,,,,,,,1,0.8484420999884605,270.44867680000607,None,ScrollDown,정답입니다,270.44867680000607,None,270.44867680000607,None,270.44867680000607,None,270.44867680000607,None,271.20367570000235,None,271.20367570000235,271.70615510002244,,,,,,,,,,,,,,,,203,2023-04-26_17h32.42.219,FishGame,2022.1.1,59.97174133768153,
,5,넌 사심이 없어,3,Green,B,4.916666666666666,4.333333333333333,ScrollUp,ScrollDown,Green.png,1,Neutral,Neutral,0,0,0,0,,,,,,,,,,,,,0,4,4,4,,,,,,,,,,,,,,,,,,,,,,,,,,,,,,,,,,,,,,,,,,,,,,,,,,,,,,,,,,,,,,,,,,,,,,,,,,,,,,,,,,,,,1.8148148208856583,0.7130694999359548,272.3153207000578,None,ScrollUp,정답입니다,272.3153207000578,None,272.3153207000578,None,272.3153207000578,None,272.3153207000578,None,272.93958500004373,None,272.93958500004373,273.4393357000081,,,,,,,,,,,,,,,,203,2023-04-26_17h32.42.219,FishGame,2022.1.1,59.97174133768153,
,6,넌 헤퍼,5,Orange,A,2.458333333333334,2.233333333333333,ScrollDown,ScrollUp,Orange.png,1,Negative,Incongruent,0,0,0,0,,,,,,,,,,,,,0,5,5,5,,,,,,,,,,,,,,,,,,,,,,,,,,,,,,,,,,,,,,,,,,,,,,,,,,,,,,,,,,,,,,,,,,,,,,,,,,,,,,,,,,,,,1,0.8295696000568569,274.0485243999865,None,ScrollDown,정답입니다,274.0485243999865,None,274.0485243999865,None,274.0485243999865,None,274.0485243999865,None,274.78727640002035,None,274.78727640002035,275.2891746000387,,,,,,,,,,,,,,,,203,2023-04-26_17h32.42.219,FishGame,2022.1.1,59.97174133768153,
,7,넌 말쑥해,3,Orange,A,4.833333333333334,4.333333333333333,ScrollDown,ScrollUp,Orange.png,1,Neutral,Neutral,0,0,0,0,,,,,,,,,,,,,0,6,6,6,,,,,,,,,,,,,,,,,,,,,,,,,,,,,,,,,,,,,,,,,,,,,,,,,,,,,,,,,,,,,,,,,,,,,,,,,,,,,,,,,,,,,1,0.8596922000870109,275.9086849000305,None,ScrollDown,정답입니다,275.9086849000305,None,275.9086849000305,None,275.9086849000305,None,275.9086849000305,None,276.67018650006503,None,276.67018650006503,277.1701496000169,,,,,,,,,,,,,,,,203,2023-04-26_17h32.42.219,FishGame,2022.1.1,59.97174133768153,
,8,넌 투덜거려,5,Green,B,2.541666666666667,2.266666666666667,ScrollUp,ScrollDown,Green.png,1,Negative,Congruent,0,0,0,0,,,,,,,,,,,,,0,7,7,7,,,,,,,,,,,,,,,,,,,,,,,,,,,,,,,,,,,,,,,,,,,,,,,,,,,,,,,,,,,,,,,,,,,,,,,,,,,,,,,,,,,,,1.9027777661879857,0.797597499913536,277.77854770002887,None,ScrollUp,정답입니다,277.77854770002887,None,277.77854770002887,None,277.77854770002887,None,277.77854770002887,None,278.48687989998143,None,278.48687989998143,278.9892287000548,,,,,,,,,,,,,,,,203,2023-04-26_17h32.42.219,FishGame,2022.1.1,59.97174133768153,
,9,넌 적극적이야,1,Orange,A,5.708333333333333,5.533333333333333,ScrollDown,ScrollUp,Orange.png,1,Positive,Congruent,0,0,0,0,,,,,,,,,,,,,0,8,8,8,,,,,,,,,,,,,,,,,,,,,,,,,,,,,,,,,,,,,,,,,,,,,,,,,,,,,,,,,,,,,,,,,,,,,,,,,,,,,,,,,,,,,1,0.8136043000267819,279.5987793999957,None,ScrollDown,정답입니다,279.5987793999957,None,279.5987793999957,None,279.5987793999957,None,279.5987793999957,None,280.3227397000883,None,280.3227397000883,280.8225358000491,,,,,,,,,,,,,,,,203,2023-04-26_17h32.42.219,FishGame,2022.1.1,59.97174133768153,
,10,넌 재미없어,4,Green,B,2.625,2.966666666666667,ScrollUp,ScrollDown,Green.png,1,Negative,Congruent,0,0,0,0,,,,,,,,,,,,,0,9,9,9,,,,,,,,,,,,,,,,,,,,,,,,,,,,,,,,,,,,,,,,,,,,,,,,,,,,,,,,,,,,,,,,,,,,,,,,,,,,,,,,,,,,,1.9722222189108531,0.7645808999659494,281.43050760007463,None,ScrollUp,정답입니다,281.43050760007463,None,281.43050760007463,None,281.43050760007463,None,281.43050760007463,None,282.1036871999968,None,282.1036871999968,282.6057167000836,,,,,,,,,,,,,,,,203,2023-04-26_17h32.42.219,FishGame,2022.1.1,59.97174133768153,
,11,넌 명석해,2,Orange,A,5.875,4.033333333333333,ScrollDown,ScrollUp,Orange.png,1,Positive,Congruent,0,0,0,0,,,,,,,,,,,,,0,10,10,10,,,,,,,,,,,,,,,,,,,,,,,,,,,,,,,,,,,,,,,,,,,,,,,,,,,,,,,,,,,,,,,,,,,,,,,,,,,,,,,,,,,,,1,0.8968546000542119,283.21890380000696,None,ScrollDown,정답입니다,283.21890380000696,None,283.21890380000696,None,283.21890380000696,None,283.21890380000696,None,284.0223565000342,None,284.0223565000342,284.5223294000607,,,,,,,,,,,,,,,,203,2023-04-26_17h32.42.219,FishGame,2022.1.1,59.97174133768153,
,12,나를 데려가줘,6,Green,B,0,0,ScrollDown,ScrollUp,Green.png,1,NonTarget,NonTarget,0,0,0,0,,,,,,,,,,,,,0,11,11,11,,,,,,,,,,,,,,,,,,,,,,,,,,,,,,,,,,,,,,,,,,,,,,,,,,,,,,,,,,,,,,,,,,,,,,,,,,,,,,,,,,,,,1,0.9127516000298783,285.13094080006704,None,ScrollDown,정답입니다,285.13094080006704,None,285.13094080006704,None,285.13094080006704,None,285.13094080006704,None,285.95560109999496,None,285.95560109999496,286.45558330009226,,,,,,,,,,,,,,,,203,2023-04-26_17h32.42.219,FishGame,2022.1.1,59.97174133768153,
,13,넌 소심해,4,Orange,A,3,3.1,ScrollDown,ScrollUp,Orange.png,1,Negative,Incongruent,0,0,0,0,,,,,,,,,,,,,0,12,12,12,,,,,,,,,,,,,,,,,,,,,,,,,,,,,,,,,,,,,,,,,,,,,,,,,,,,,,,,,,,,,,,,,,,,,,,,,,,,,,,,,,,,,1,0.8150468999519944,287.08075640001334,None,ScrollDown,정답입니다,287.08075640001334,None,287.08075640001334,None,287.08075640001334,None,287.08075640001334,None,287.80357280001044,None,287.80357280001044,288.3056173999794,,,,,,,,,,,,,,,,203,2023-04-26_17h32.42.219,FishGame,2022.1.1,59.97174133768153,
,14,넌 합리적이야,2,Orange,A,5.583333333333333,4.733333333333333,ScrollDown,ScrollUp,Orange.png,1,Positive,Congruent,0,0,0,0,,,,,,,,,,,,,0,13,13,13,,,,,,,,,,,,,,,,,,,,,,,,,,,,,,,,,,,,,,,,,,,,,,,,,,,,,,,,,,,,,,,,,,,,,,,,,,,,,,,,,,,,,1,0.8580594999948516,288.9161470000399,None,ScrollDown,정답입니다,288.9161470000399,None,288.9161470000399,None,288.9161470000399,None,288.9161470000399,None,289.6820962000638,None,289.6820962000638,290.18656150007155,,,,,,,,,,,,,,,,203,2023-04-26_17h32.42.219,FishGame,2022.1.1,59.97174133768153,
,15,넌 무자비해,5,Green,B,2.333333333333333,2.1,ScrollUp,ScrollDown,Green.png,1,Negative,Congruent,0,0,0,0,,,,,,,,,,,,,0,14,14,14,,,,,,,,,,,,,,,,,,,,,,,,,,,,,,,,,,,,,,,,,,,,,,,,,,,,,,,,,,,,,,,,,,,,,,,,,,,,,,,,,,,,,1.9182098805904388,0.814830300048925,290.79576340003405,None,ScrollUp,정답입니다,290.79576340003405,None,290.79576340003405,None,290.79576340003405,None,290.79576340003405,None,291.51990840001963,None,291.51990840001963,292.0199144000653,,,,,,,,,,,,,,,,203,2023-04-26_17h32.42.219,FishGame,2022.1.1,59.97174133768153,
,16,나를 보내줘,6,Orange,A,0,0,ScrollUp,ScrollDown,Orange.png,1,NonTarget,NonTarget,0,0,0,0,,,,,,,,,,,,,0,15,15,15,,,,,,,,,,,,,,,,,,,,,,,,,,,,,,,,,,,,,,,,,,,,,,,,,,,,,,,,,,,,,,,,,,,,,,,,,,,,,,,,,,,,,2,0.8965614000335336,292.6291558999801,None,ScrollUp,정답입니다,292.6291558999801,None,292.6291558999801,None,292.6291558999801,None,292.6291558999801,None,293.43898320000153,None,293.43898320000153,293.93893579998985,,,,,,,,,,,,,,,,203,2023-04-26_17h32.42.219,FishGame,2022.1.1,59.97174133768153,
,17,넌 현실적이야,3,Green,B,4.608695652173913,4.766666666666667,ScrollUp,ScrollDown,Green.png,1,Neutral,Neutral,0,0,0,0,,,,,,,,,,,,,0,16,16,16,,,,,,,,,,,,,,,,,,,,,,,,,,,,,,,,,,,,,,,,,,,,,,,,,,,,,,,,,,,,,,,,,,,,,,,,,,,,,,,,,,,,,1.8873456766208012,0.8296411999035627,294.54721089999657,None,ScrollUp,정답입니다,294.54721089999657,None,294.54721089999657,None,294.54721089999657,None,294.54721089999657,None,295.28879979997873,None,295.28879979997873,295.78876949998084,,,,,,,,,,,,,,,,203,2023-04-26_17h32.42.219,FishGame,2022.1.1,59.97174133768153,
,18,넌 의리있어,1,Green,B,5.833333333333334,5.633333333333334,ScrollUp,ScrollDown,Green.png,1,Positive,Incongruent,0,0,0,0,,,,,,,,,,,,,0,17,17,17,,,,,,,,,,,,,,,,,,,,,,,,,,,,,,,,,,,,,,,,,,,,,,,,,,,,,,,,,,,,,,,,,,,,,,,,,,,,,,,,,,,,,1.9799382885297139,0.8094843000872061,296.4050272000022,None,ScrollUp,정답입니다,296.4050272000022,None,296.4050272000022,None,296.4050272000022,None,296.4050272000022,None,297.11976040003356,None,297.11976040003356,297.6197416000068,,,,,,,,,,,,,,,,203,2023-04-26_17h32.42.219,FishGame,2022.1.1,59.97174133768153,
,19,넌 신경과민이야,5,Orange,A,2.541666666666667,2.166666666666667,ScrollDown,ScrollUp,Orange.png,1,Negative,Incongruent,0,0,0,0,,,,,,,,,,,,,0,18,18,18,,,,,,,,,,,,,,,,,,,,,,,,,,,,,,,,,,,,,,,,,,,,,,,,,,,,,,,,,,,,,,,,,,,,,,,,,,,,,,,,,,,,,1,0.7621442000381649,298.2367341000354,None,ScrollDown,정답입니다,298.2367341000354,None,298.2367341000354,None,298.2367341000354,None,298.2367341000354,None,298.90312809997704,None,298.90312809997704,299.40548560000025,,,,,,,,,,,,,,,,203,2023-04-26_17h32.42.219,FishGame,2022.1.1,59.97174133768153,
,20,넌 편안해,1,Orange,A,5.916666666666666,5.866666666666666,ScrollDown,ScrollUp,Orange.png,1,Positive,Congruent,0,0,0,0,,,,,,,,,,,,,0,19,19,19,,,,,,,,,,,,,,,,,,,,,,,,,,,,,,,,,,,,,,,,,,,,,,,,,,,,,,,,,,,,,,,,,,,,,,,,,,,,,,,,,,,,,1,0.6986859999597073,300.01620730001014,None,ScrollDown,정답입니다,300.01620730001014,None,300.01620730001014,None,300.01620730001014,None,300.01620730001014,None,300.6223160000518,None,300.6223160000518,301.12221390008926,,,,,,,,,,,,,,,,203,2023-04-26_17h32.42.219,FishGame,2022.1.1,59.97174133768153,
,21,넌 품위있어,2,Green,B,5.291666666666666,4.466666666666667,ScrollUp,ScrollDown,Green.png,1,Positive,Incongruent,0,0,0,0,,,,,,,,,,,,,0,20,20,20,,,,,,,,,,,,,,,,,,,,,,,,,,,,,,,,,,,,,,,,,,,,,,,,,,,,,,,,,,,,,,,,,,,,,,,,,,,,,,,,,,,,,2,0.7788798999972641,301.73799629998393,None,ScrollUp,정답입니다,301.73799629998393,None,301.73799629998393,None,301.73799629998393,None,301.73799629998393,None,302.4219636999769,None,302.4219636999769,302.9219352999935,,,,,,,,,,,,,,,,203,2023-04-26_17h32.42.219,FishGame,2022.1.1,59.97174133768153,
,22,넌 빈틈없어,3,Orange,A,4.833333333333333,3.966666666666667,ScrollDown,ScrollUp,Orange.png,1,Neutral,Neutral,0,0,0,0,,,,,,,,,,,,,0,21,21,21,,,,,,,,,,,,,,,,,,,,,,,,,,,,,,,,,,,,,,,,,,,,,,,,,,,,,,,,,,,,,,,,,,,,,,,,,,,,,,,,,,,,,1,0.7816135999746621,303.5314047000138,None,ScrollDown,정답입니다,303.5314047000138,None,303.5314047000138,None,303.5314047000138,None,303.5314047000138,None,304.22209960001055,None,304.22209960001055,304.72198010003194,,,,,,,,,,,,,,,,203,2023-04-26_17h32.42.219,FishGame,2022.1.1,59.97174133768153,
,23,넌 상상력없어,4,Green,B,2.833333333333333,3.133333333333333,ScrollUp,ScrollDown,Green.png,1,Negative,Congruent,0,0,0,0,,,,,,,,,,,,,0,22,22,22,,,,,,,,,,,,,,,,,,,,,,,,,,,,,,,,,,,,,,,,,,,,,,,,,,,,,,,,,,,,,,,,,,,,,,,,,,,,,,,,,,,,,2,0.7129697999916971,305.33438430004753,None,ScrollUp,정답입니다,305.33438430004753,None,305.33438430004753,None,305.33438430004753,None,305.33438430004753,None,305.9531554999994,None,305.9531554999994,306.45519630005583,,,,,,,,,,,,,,,,203,2023-04-26_17h32.42.219,FishGame,2022.1.1,59.97174133768153,
,24,넌 지혜로워,2,Green,B,6.333333333333334,4.633333333333334,ScrollUp,ScrollDown,Green.png,1,Positive,Incongruent,0,0,0,0,,,,,,,,,,,,,0,23,23,23,,,,,,,,,,,,,,,,,,,,,,,,,,,,,,,,,,,,,,,,,,,,,,,,,,,,,,,,,,,,,,,,,,,,,,,,,,,,,,,,,,,,,2,0.7629408999346197,307.06436299998313,None,ScrollUp,정답입니다,307.06436299998313,None,307.06436299998313,None,307.06436299998313,None,307.06436299998313,None,307.7365242000669,None,307.7365242000669,308.23852870007977,,,,,,,,,,,,,,,,203,2023-04-26_17h32.42.219,FishGame,2022.1.1,59.97174133768153,
,25,넌 시끄러워,4,Orange,A,2.833333333333333,3.033333333333333,ScrollDown,ScrollUp,Orange.png,1,Negative,Incongruent,0,0,0,0,,,,,,,,,,,,,0,24,24,24,,,,,,,,,,,,,,,,,,,,,,,,,,,,,,,,,,,,,,,,,,,,,,,,,,,,,,,,,,,,,,,,,,,,,,,,,,,,,,,,,,,,,1,0.8634898000163957,308.8493245000718,None,ScrollDown,정답입니다,308.8493245000718,None,308.8493245000718,None,308.8493245000718,None,308.8493245000718,None,309.62188009999227,None,309.62188009999227,310.1219036000548,,,,,,,,,,,,,,,,203,2023-04-26_17h32.42.219,FishGame,2022.1.1,59.97174133768153,
,26,넌 만사태평이야,3,Green,B,4,4.333333333333333,ScrollUp,ScrollDown,Green.png,1,Neutral,Neutral,0,0,0,0,,,,,,,,,,,,,0,25,25,25,,,,,,,,,,,,,,,,,,,,,,,,,,,,,,,,,,,,,,,,,,,,,,,,,,,,,,,,,,,,,,,,,,,,,,,,,,,,,,,,,,,,,2,1.043003399972804,310.7396080000326,None,ScrollUp,정답입니다,310.7396080000326,None,310.7396080000326,None,310.7396080000326,None,310.7396080000326,None,311.6861645000754,None,311.6861645000754,312.18613659997936,,,,,,,,,,,,,,,,203,2023-04-26_17h32.42.219,FishGame,2022.1.1,59.97174133768153,
,27,넌 붙임성있어,1,Orange,A,5.708333333333333,5.633333333333334,ScrollDown,ScrollUp,Orange.png,1,Positive,Congruent,0,0,0,0,,,,,,,,,,,,,0,26,26,26,,,,,,,,,,,,,,,,,,,,,,,,,,,,,,,,,,,,,,,,,,,,,,,,,,,,,,,,,,,,,,,,,,,,,,,,,,,,,,,,,,,,,1.0385802288850148,0.8625046000815928,312.8023033000063,None,ScrollDown,정답입니다,312.8023033000063,None,312.8023033000063,None,312.8023033000063,None,312.8023033000063,None,313.56969969999045,None,313.56969969999045,314.0718542999821,,,,,,,,,,,,,,,,203,2023-04-26_17h32.42.219,FishGame,2022.1.1,59.97174133768153,
,28,넌 영리해,2,Orange,A,6,4.033333333333333,ScrollDown,ScrollUp,Orange.png,1,Positive,Congruent,0,0,0,0,,,,,,,,,,,,,0,27,27,27,,,,,,,,,,,,,,,,,,,,,,,,,,,,,,,,,,,,,,,,,,,,,,,,,,,,,,,,,,,,,,,,,,,,,,,,,,,,,,,,,,,,,1,0.8481915999436751,314.6807141000172,None,ScrollDown,정답입니다,314.6807141000172,None,314.6807141000172,None,314.6807141000172,None,314.6807141000172,None,315.4385898000328,None,315.4385898000328,315.93849490000866,,,,,,,,,,,,,,,,203,2023-04-26_17h32.42.219,FishGame,2022.1.1,59.97174133768153,
,29,넌 열심이야,1,Green,B,6.041666666666667,5.833333333333333,ScrollUp,ScrollDown,Green.png,1,Positive,Incongruent,0,0,0,0,,,,,,,,,,,,,0,28,28,28,,,,,,,,,,,,,,,,,,,,,,,,,,,,,,,,,,,,,,,,,,,,,,,,,,,,,,,,,,,,,,,,,,,,,,,,,,,,,,,,,,,,,2,0.7982404000358656,316.54456760000903,None,ScrollUp,정답입니다,316.54456760000903,None,316.54456760000903,None,316.54456760000903,None,316.54456760000903,None,317.2550374000566,None,317.2550374000566,317.7550235000672,,,,,,,,,,,,,,,,203,2023-04-26_17h32.42.219,FishGame,2022.1.1,59.97174133768153,
,30,넌 인기없어,4,Green,B,3,3.3,ScrollUp,ScrollDown,Green.png,1,Negative,Congruent,0,0,0,0,,,,,,,,,,,,,0,29,29,29,,,,,,,,,,,,,,,,,,,,,,,,,,,,,,,,,,,,,,,,,,,,,,,,,,,,,,,,,,,,,,,,,,,,,,,,,,,,,,,,,,,,,1.939814825852712,0.829078699927777,318.361559699988,None,ScrollUp,정답입니다,318.361559699988,None,318.361559699988,None,318.361559699988,None,318.361559699988,None,319.1026807000162,None,319.1026807000162,319.6026567000663,,,,,,,,,,,,,,,,203,2023-04-26_17h32.42.219,FishGame,2022.1.1,59.97174133768153,
,31,넌 익살스러워,3,Orange,A,4.708333333333334,4.833333333333333,ScrollDown,ScrollUp,Orange.png,1,Neutral,Neutral,0,0,0,0,,,,,,,,,,,,,0,30,30,30,,,,,,,,,,,,,,,,,,,,,,,,,,,,,,,,,,,,,,,,,,,,,,,,,,,,,,,,,,,,,,,,,,,,,,,,,,,,,,,,,,,,,1,0.8814352999906987,320.21223770000506,None,ScrollDown,정답입니다,320.21223770000506,None,320.21223770000506,None,320.21223770000506,None,320.21223770000506,None,321.0026952000335,None,321.0026952000335,321.5050943000242,,,,,,,,,,,,,,,,203,2023-04-26_17h32.42.219,FishGame,2022.1.1,59.97174133768153,
,32,넌 이기적이야,5,Green,B,2.291666666666667,2.333333333333333,ScrollUp,ScrollDown,Green.png,1,Negative,Congruent,0,0,0,0,,,,,,,,,,,,,0,31,31,31,,,,,,,,,,,,,,,,,,,,,,,,,,,,,,,,,,,,,,,,,,,,,,,,,,,,,,,,,,,,,,,,,,,,,,,,,,,,,,,,,,,,,1.939814825852712,0.7652397000929341,322.1095201000571,None,ScrollUp,정답입니다,322.1095201000571,None,322.1095201000571,None,322.1095201000571,None,322.1095201000571,None,322.788750500069,None,322.788750500069,323.29170840000734,,,,,,,,,,,,,,,,203,2023-04-26_17h32.42.219,FishGame,2022.1.1,59.97174133768153,
,33,나를 데려가줘,6,Green,B,0,0,ScrollDown,ScrollUp,Green.png,1,NonTarget,NonTarget,0,0,0,0,,,,,,,,,,,,,0,32,32,32,,,,,,,,,,,,,,,,,,,,,,,,,,,,,,,,,,,,,,,,,,,,,,,,,,,,,,,,,,,,,,,,,,,,,,,,,,,,,,,,,,,,,1.0478395124276478,0.998564500012435,323.89259330008645,None,ScrollDown,정답입니다,323.89259330008645,None,323.89259330008645,None,323.89259330008645,None,323.89259330008645,None,324.8049731000792,None,324.8049731000792,325.3049211000325,,,,,,,,,,,,,,,,203,2023-04-26_17h32.42.219,FishGame,2022.1.1,59.97174133768153,
,34,넌 기회주의자야,5,Orange,A,2.875,2.133333333333333,ScrollDown,ScrollUp,Orange.png,1,Negative,Incongruent,0,0,0,0,,,,,,,,,,,,,0,33,33,33,,,,,,,,,,,,,,,,,,,,,,,,,,,,,,,,,,,,,,,,,,,,,,,,,,,,,,,,,,,,,,,,,,,,,,,,,,,,,,,,,,,,,1.0216049253940582,0.8128999000182375,325.91493560001254,None,ScrollDown,정답입니다,325.91493560001254,None,325.91493560001254,None,325.91493560001254,None,325.91493560001254,None,326.63610080000944,None,326.63610080000944,327.1381426000735,,,,,,,,,,,,,,,,203,2023-04-26_17h32.42.219,FishGame,2022.1.1,59.97174133768153,
,1,넌 미성숙해,4,Orange,A,3,3.2,ScrollDown,ScrollUp,Orange.png,2,Negative,Incongruent,0,0,0,0,,,,,,,,,,,,,,,,,0,0,0,0,,,,,,,,,,,,,,,,,,,,,,,,,,,,,,,,,,,,,,,,359.1709340000525,360.6709783000406,360.7043651000131,361.6543186000781,361.7074015000835,362.6709948000498,362.6543295000447,None,,,,,,,,,,,,,,,,,,,,,,,,,,,,,,,,,,1,1.092697500018403,363.73340440005995,None,ScrollDown,정답입니다,363.73340440005995,None,363.73340440005995,None,363.73340440005995,None,363.73340440005995,None,364.7375060999766,None,364.7375060999766,365.23736959998496,327.6381643000059,None,327.6381643000059,None,0.012037037,-0.12222222,1,0,0,0.016136290156282485,None,357.6374518000521,None,,,203,2023-04-26_17h32.42.219,FishGame,2022.1.1,59.97174133768153,
,2,넌 반사회적이야,5,Green,B,2.416666666666667,2.033333333333333,ScrollUp,ScrollDown,Green.png,2,Negative,Congruent,0,0,0,0,,,,,,,,,,,,,,,,,0,1,1,1,,,,,,,,,,,,,,,,,,,,,,,,,,,,,,,,,,,,,,,,,,,,,,,,,,,,,,,,,,,,,,,,,,,,,,,,,,,,,,,,,2,0.8294066999806091,365.84393980004825,None,ScrollUp,정답입니다,365.84393980004825,None,365.84393980004825,None,365.84393980004825,None,365.84393980004825,None,366.5873699000804,None,366.5873699000804,367.08737409999594,,,,,,,,,,,,,,,,203,2023-04-26_17h32.42.219,FishGame,2022.1.1,59.97174133768153,
,3,넌 유능해,2,Orange,A,6.208333333333333,4.433333333333334,ScrollDown,ScrollUp,Orange.png,2,Positive,Congruent,0,0,0,0,,,,,,,,,,,,,,,,,0,2,2,2,,,,,,,,,,,,,,,,,,,,,,,,,,,,,,,,,,,,,,,,,,,,,,,,,,,,,,,,,,,,,,,,,,,,,,,,,,,,,,,,,1,0.8295360000338405,367.69548310001846,None,ScrollDown,정답입니다,367.69548310001846,None,367.69548310001846,None,367.69548310001846,None,367.69548310001846,None,368.4374030000763,None,368.4374030000763,368.9373612999916,,,,,,,,,,,,,,,,203,2023-04-26_17h32.42.219,FishGame,2022.1.1,59.97174133768153,
,4,넌 능숙해,2,Green,B,5.666666666666667,4.733333333333333,ScrollUp,ScrollDown,Green.png,2,Positive,Incongruent,0,0,0,0,,,,,,,,,,,,,,,,,0,3,3,3,,,,,,,,,,,,,,,,,,,,,,,,,,,,,,,,,,,,,,,,,,,,,,,,,,,,,,,,,,,,,,,,,,,,,,,,,,,,,,,,,1.8919753183921177,0.7792920999927446,369.5391963000875,None,ScrollUp,정답입니다,369.5391963000875,None,369.5391963000875,None,369.5391963000875,None,369.5391963000875,None,370.23727719997987,None,370.23727719997987,370.7372753000818,,,,,,,,,,,,,,,,203,2023-04-26_17h32.42.219,FishGame,2022.1.1,59.97174133768153,
,5,넌 진부해,4,Green,B,2.458333333333333,3.166666666666667,ScrollUp,ScrollDown,Green.png,2,Negative,Congruent,0,0,0,0,,,,,,,,,,,,,,,,,0,4,4,4,,,,,,,,,,,,,,,,,,,,,,,,,,,,,,,,,,,,,,,,,,,,,,,,,,,,,,,,,,,,,,,,,,,,,,,,,,,,,,,,,1.9567901293436687,0.7484332000603899,371.349725499982,None,ScrollUp,정답입니다,371.349725499982,None,371.349725499982,None,371.349725499982,None,371.349725499982,None,372.0039731999859,None,372.0039731999859,372.5038732000394,,,,,,,,,,,,,,,,203,2023-04-26_17h32.42.219,FishGame,2022.1.1,59.97174133768153,
,6,나를 보내줘,6,Orange,A,0,0,ScrollUp,ScrollDown,Orange.png,2,NonTarget,NonTarget,0,0,0,0,,,,,,,,,,,,,,,,,0,5,5,5,,,,,,,,,,,,,,,,,,,,,,,,,,,,,,,,,,,,,,,,,,,,,,,,,,,,,,,,,,,,,,,,,,,,,,,,,,,,,,,,,1.8950617214043934,0.8482816000469029,373.11040050000884,None,ScrollUp,정답입니다,373.11040050000884,None,373.11040050000884,None,373.11040050000884,None,373.11040050000884,None,373.8685676000314,None,373.8685676000314,374.3705734000541,,,,,,,,,,,,,,,,203,2023-04-26_17h32.42.219,FishGame,2022.1.1,59.97174133768153,
,7,넌 엄격해,3,Orange,A,4.166666666666666,4.1,ScrollDown,ScrollUp,Orange.png,2,Neutral,Neutral,0,0,0,0,,,,,,,,,,,,,,,,,0,6,6,6,,,,,,,,,,,,,,,,,,,,,,,,,,,,,,,,,,,,,,,,,,,,,,,,,,,,,,,,,,,,,,,,,,,,,,,,,,,,,,,,,1,0.8126984999980778,374.9788678000914,None,ScrollDown,정답입니다,374.9788678000914,None,374.9788678000914,None,374.9788678000914,None,374.9788678000914,None,375.70178240002133,None,375.70178240002133,376.2038238000823,,,,,,,,,,,,,,,,203,2023-04-26_17h32.42.219,FishGame,2022.1.1,59.97174133768153,
,8,나를 보내줘,6,Orange,A,0,0,ScrollUp,ScrollDown,Orange.png,2,NonTarget,NonTarget,0,0,0,0,,,,,,,,,,,,,,,,,0,7,7,7,,,,,,,,,,,,,,,,,,,,,,,,,,,,,,,,,,,,,,,,,,,,,,,,,,,,,,,,,,,,,,,,,,,,,,,,,,,,,,,,,1.7716049303611119,0.7796612000092864,376.8066085000755,None,ScrollUp,정답입니다,376.8066085000755,None,376.8066085000755,None,376.8066085000755,None,376.8066085000755,None,377.5038858000189,None,377.5038858000189,378.0037947000237,,,,,,,,,,,,,,,,203,2023-04-26_17h32.42.219,FishGame,2022.1.1,59.97174133768153,
,9,넌 대담해,3,Green,B,4.875,4.866666666666666,ScrollUp,ScrollDown,Green.png,2,Neutral,Neutral,0,0,0,0,,,,,,,,,,,,,,,,,0,8,8,8,,,,,,,,,,,,,,,,,,,,,,,,,,,,,,,,,,,,,,,,,,,,,,,,,,,,,,,,,,,,,,,,,,,,,,,,,,,,,,,,,1.8966049353281658,0.7628375999629498,378.6118758000666,None,ScrollUp,정답입니다,378.6118758000666,None,378.6118758000666,None,378.6118758000666,None,378.6118758000666,None,379.28813220001757,None,379.28813220001757,379.787181599997,,,,,,,,,,,,,,,,203,2023-04-26_17h32.42.219,FishGame,2022.1.1,59.97174133768153,
,10,넌 꾸준해,1,Orange,A,5.916666666666668,5.8,ScrollDown,ScrollUp,Orange.png,2,Positive,Congruent,0,0,0,0,,,,,,,,,,,,,,,,,0,9,9,9,,,,,,,,,,,,,,,,,,,,,,,,,,,,,,,,,,,,,,,,,,,,,,,,,,,,,,,,,,,,,,,,,,,,,,,,,,,,,,,,,1,0.8462684999685735,380.3991772000445,None,ScrollDown,정답입니다,380.3991772000445,None,380.3991772000445,None,380.3991772000445,None,380.3991772000445,None,381.15170560008846,None,381.15170560008846,381.6537277000025,,,,,,,,,,,,,,,,203,2023-04-26_17h32.42.219,FishGame,2022.1.1,59.97174133768153,
,11,나를 데려가줘,6,Green,B,0,0,ScrollDown,ScrollUp,Green.png,2,NonTarget,NonTarget,0,0,0,0,,,,,,,,,,,,,,,,,0,10,10,10,,,,,,,,,,,,,,,,,,,,,,,,,,,,,,,,,,,,,,,,,,,,,,,,,,,,,,,,,,,,,,,,,,,,,,,,,,,,,,,,,1,0.9629068999784067,382.2563926000148,None,ScrollDown,정답입니다,382.2563926000148,None,382.2563926000148,None,382.2563926000148,None,382.2563926000148,None,383.13701459998265,None,383.13701459998265,383.6370296999812,,,,,,,,,,,,,,,,203,2023-04-26_17h32.42.219,FishGame,2022.1.1,59.97174133768153,
,12,넌 독선적이야,5,Orange,A,2.458333333333333,1.933333333333333,ScrollDown,ScrollUp,Orange.png,2,Negative,Incongruent,0,0,0,0,,,,,,,,,,,,,,,,,0,11,11,11,,,,,,,,,,,,,,,,,,,,,,,,,,,,,,,,,,,,,,,,,,,,,,,,,,,,,,,,,,,,,,,,,,,,,,,,,,,,,,,,,1,0.8651959000853822,384.2438090000069,None,ScrollDown,정답입니다,384.2438090000069,None,384.2438090000069,None,384.2438090000069,None,384.2438090000069,None,385.0203108000569,None,385.0203108000569,385.52033010008745,,,,,,,,,,,,,,,,203,2023-04-26_17h32.42.219,FishGame,2022.1.1,59.97174133768153,
,13,나를 보내줘,6,Orange,A,0,0,ScrollUp,ScrollDown,Orange.png,2,NonTarget,NonTarget,0,0,0,0,,,,,,,,,,,,,,,,,0,12,12,12,,,,,,,,,,,,,,,,,,,,,,,,,,,,,,,,,,,,,,,,,,,,,,,,,,,,,,,,,,,,,,,,,,,,,,,,,,,,,,,,,2,0.8797009000554681,386.1324625000125,None,ScrollUp,정답입니다,386.1324625000125,None,386.1324625000125,None,386.1324625000125,None,386.1324625000125,None,386.918240900035,None,386.918240900035,387.4202761000488,,,,,,,,,,,,,,,,203,2023-04-26_17h32.42.219,FishGame,2022.1.1,59.97174133768153,
,14,넌 책임감있어,1,Green,B,6.347826086956522,6,ScrollUp,ScrollDown,Green.png,2,Positive,Incongruent,0,0,0,0,,,,,,,,,,,,,,,,,0,13,13,13,,,,,,,,,,,,,,,,,,,,,,,,,,,,,,,,,,,,,,,,,,,,,,,,,,,,,,,,,,,,,,,,,,,,,,,,,,,,,,,,,1.8364197413126628,0.7816425999626517,388.02799199998844,None,ScrollUp,정답입니다,388.02799199998844,None,388.02799199998844,None,388.02799199998844,None,388.02799199998844,None,388.72034570004325,None,388.72034570004325,389.22028410003986,,,,,,,,,,,,,,,,203,2023-04-26_17h32.42.219,FishGame,2022.1.1,59.97174133768153,
,15,넌 문학적이야,3,Orange,A,4.708333333333334,4.333333333333333,ScrollDown,ScrollUp,Orange.png,2,Neutral,Neutral,0,0,0,0,,,,,,,,,,,,,,,,,0,14,14,14,,,,,,,,,,,,,,,,,,,,,,,,,,,,,,,,,,,,,,,,,,,,,,,,,,,,,,,,,,,,,,,,,,,,,,,,,,,,,,,,,1,0.7627237000269815,389.8298321000766,None,ScrollDown,정답입니다,389.8298321000766,None,389.8298321000766,None,389.8298321000766,None,389.8298321000766,None,390.5035381000489,None,390.5035381000489,391.02019190008286,,,,,,,,,,,,,,,,203,2023-04-26_17h32.42.219,FishGame,2022.1.1,59.97174133768153,
,16,넌 재미있어,1,Green,B,5.875,5.7,ScrollUp,ScrollDown,Green.png,2,Positive,Incongruent,0,0,0,0,,,,,,,,,,,,,,,,,0,15,15,15,,,,,,,,,,,,,,,,,,,,,,,,,,,,,,,,,,,,,,,,,,,,,,,,,,,,,,,,,,,,,,,,,,,,,,,,,,,,,,,,,1.9475308458010356,0.8150649999734014,391.6046779000899,None,ScrollUp,정답입니다,391.6046779000899,None,391.6046779000899,None,391.6046779000899,None,391.6046779000899,None,392.33691539999563,None,392.33691539999563,392.83683600008953,,,,,,,,,,,,,,,,203,2023-04-26_17h32.42.219,FishGame,2022.1.1,59.97174133768153,
,17,나를 데려가줘,6,Green,B,0,0,ScrollDown,ScrollUp,Green.png,2,NonTarget,NonTarget,0,0,0,0,,,,,,,,,,,,,,,,,0,16,16,16,,,,,,,,,,,,,,,,,,,,,,,,,,,,,,,,,,,,,,,,,,,,,,,,,,,,,,,,,,,,,,,,,,,,,,,,,,,,,,,,,1.0231481393178303,0.8817242999793962,393.44066800002474,None,ScrollDown,정답입니다,393.44066800002474,None,393.44066800002474,None,393.44066800002474,None,393.44066800002474,None,394.23692639998626,None,394.23692639998626,394.7368761000689,,,,,,,,,,,,,,,,203,2023-04-26_17h32.42.219,FishGame,2022.1.1,59.97174133768153,
,18,넌 협력적이야,1,Orange,A,5.625,5.633333333333334,ScrollDown,ScrollUp,Orange.png,2,Positive,Congruent,0,0,0,0,,,,,,,,,,,,,,,,,0,17,17,17,,,,,,,,,,,,,,,,,,,,,,,,,,,,,,,,,,,,,,,,,,,,,,,,,,,,,,,,,,,,,,,,,,,,,,,,,,,,,,,,,1,0.829344299971126,395.3606702000834,None,ScrollDown,정답입니다,395.3606702000834,None,395.3606702000834,None,395.3606702000834,None,395.3606702000834,None,396.0847002000082,None,396.0847002000082,396.58448750001844,,,,,,,,,,,,,,,,203,2023-04-26_17h32.42.219,FishGame,2022.1.1,59.97174133768153,
,19,넌 평범해,3,Green,B,4.333333333333332,4.233333333333333,ScrollUp,ScrollDown,Green.png,2,Neutral,Neutral,0,0,0,0,,,,,,,,,,,,,,,,,0,18,18,18,,,,,,,,,,,,,,,,,,,,,,,,,,,,,,,,,,,,,,,,,,,,,,,,,,,,,,,,,,,,,,,,,,,,,,,,,,,,,,,,,1.7932098756233852,0.8636345999548212,397.1911804000847,None,ScrollUp,정답입니다,397.1911804000847,None,397.1911804000847,None,397.1911804000847,None,397.1911804000847,None,397.9678673000308,None,397.9678673000308,398.4702278000768,,,,,,,,,,,,,,,,203,2023-04-26_17h32.42.219,FishGame,2022.1.1,59.97174133768153,
,20,넌 오만해,5,Orange,A,2.333333333333333,2,ScrollDown,ScrollUp,Orange.png,2,Negative,Incongruent,0,0,0,0,,,,,,,,,,,,,,,,,0,19,19,19,,,,,,,,,,,,,,,,,,,,,,,,,,,,,,,,,,,,,,,,,,,,,,,,,,,,,,,,,,,,,,,,,,,,,,,,,,,,,,,,,1.0385802288850148,0.8313182001002133,399.07767570007127,None,ScrollDown,정답입니다,399.07767570007127,None,399.07767570007127,None,399.07767570007127,None,399.07767570007127,None,399.82019570004195,None,399.82019570004195,400.32023419998586,,,,,,,,,,,,,,,,203,2023-04-26_17h32.42.219,FishGame,2022.1.1,59.97174133768153,
,21,넌 운이없어,4,Green,B,3,3.466666666666667,ScrollUp,ScrollDown,Green.png,2,Negative,Congruent,0,0,0,0,,,,,,,,,,,,,,,,,0,20,20,20,,,,,,,,,,,,,,,,,,,,,,,,,,,,,,,,,,,,,,,,,,,,,,,,,,,,,,,,,,,,,,,,,,,,,,,,,,,,,,,,,1.9614197711149852,0.7818535999394953,400.92734510009177,None,ScrollUp,정답입니다,400.92734510009177,None,400.92734510009177,None,400.92734510009177,None,400.92734510009177,None,401.6200529000489,None,401.6200529000489,402.12000750005245,,,,,,,,,,,,,,,,203,2023-04-26_17h32.42.219,FishGame,2022.1.1,59.97174133768153,
,22,넌 창조적이야,2,Green,B,6.125,4.633333333333334,ScrollUp,ScrollDown,Green.png,2,Positive,Incongruent,0,0,0,0,,,,,,,,,,,,,,,,,0,21,21,21,,,,,,,,,,,,,,,,,,,,,,,,,,,,,,,,,,,,,,,,,,,,,,,,,,,,,,,,,,,,,,,,,,,,,,,,,,,,,,,,,1.8981481492519379,0.7816655000206083,402.7297069000779,None,ScrollUp,정답입니다,402.7297069000779,None,402.7297069000779,None,402.7297069000779,None,402.7297069000779,None,403.4179374000523,None,403.4179374000523,403.9199206000194,,,,,,,,,,,,,,,,203,2023-04-26_17h32.42.219,FishGame,2022.1.1,59.97174133768153,
,23,나를 보내줘,6,Orange,A,0,0,ScrollUp,ScrollDown,Orange.png,2,NonTarget,NonTarget,0,0,0,0,,,,,,,,,,,,,,,,,0,22,22,22,,,,,,,,,,,,,,,,,,,,,,,,,,,,,,,,,,,,,,,,,,,,,,,,,,,,,,,,,,,,,,,,,,,,,,,,,,,,,,,,,1.919753094514211,0.9152041999623179,404.5254251000006,None,ScrollUp,정답입니다,404.5254251000006,None,404.5254251000006,None,404.5254251000006,None,404.5254251000006,None,405.35124750004616,None,405.35124750004616,405.8532813000493,,,,,,,,,,,,,,,,203,2023-04-26_17h32.42.219,FishGame,2022.1.1,59.97174133768153,
,24,넌 통찰력있어,2,Orange,A,6.5,4.8,ScrollDown,ScrollUp,Orange.png,2,Positive,Congruent,0,0,0,0,,,,,,,,,,,,,,,,,0,23,23,23,,,,,,,,,,,,,,,,,,,,,,,,,,,,,,,,,,,,,,,,,,,,,,,,,,,,,,,,,,,,,,,,,,,,,,,,,,,,,,,,,1,0.8296039000852033,406.4613514000084,None,ScrollDown,정답입니다,406.4613514000084,None,406.4613514000084,None,406.4613514000084,None,406.4613514000084,None,407.20331370003987,None,407.20331370003987,407.70330290007405,,,,,,,,,,,,,,,,203,2023-04-26_17h32.42.219,FishGame,2022.1.1,59.97174133768153,
,25,넌 경솔해,5,Green,B,2.458333333333333,2.266666666666667,ScrollUp,ScrollDown,Green.png,2,Negative,Congruent,0,0,0,0,,,,,,,,,,,,,,,,,0,24,24,24,,,,,,,,,,,,,,,,,,,,,,,,,,,,,,,,,,,,,,,,,,,,,,,,,,,,,,,,,,,,,,,,,,,,,,,,,,,,,,,,,1.9490740597248077,0.7798293000087142,408.30883990006987,None,ScrollUp,정답입니다,408.30883990006987,None,408.30883990006987,None,408.30883990006987,None,408.30883990006987,None,409.00321900006384,None,409.00321900006384,409.5037917000009,,,,,,,,,,,,,,,,203,2023-04-26_17h32.42.219,FishGame,2022.1.1,59.97174133768153,
,26,넌 초조해,4,Orange,A,2.916666666666667,3.133333333333333,ScrollDown,ScrollUp,Orange.png,2,Negative,Incongruent,0,0,0,0,,,,,,,,,,,,,,,,,0,25,25,25,,,,,,,,,,,,,,,,,,,,,,,,,,,,,,,,,,,,,,,,,,,,,,,,,,,,,,,,,,,,,,,,,,,,,,,,,,,,,,,,,1.0277777810891469,0.7962103999452665,410.1112735000206,None,ScrollDown,정답입니다,410.1112735000206,None,410.1112735000206,None,410.1112735000206,None,410.1112735000206,None,410.81991449999623,None,410.81991449999623,411.3198792000767,,,,,,,,,,,,,,,,203,2023-04-26_17h32.42.219,FishGame,2022.1.1,59.97174133768153,
,27,넌 무관심해,4,Green,B,2.833333333333333,2.9,ScrollUp,ScrollDown,Green.png,2,Negative,Congruent,0,0,0,0,,,,,,,,,,,,,,,,,0,26,26,26,,,,,,,,,,,,,,,,,,,,,,,,,,,,,,,,,,,,,,,,,,,,,,,,,,,,,,,,,,,,,,,,,,,,,,,,,,,,,,,,,1.8348765522241592,0.7290665999753401,411.92586810002103,None,ScrollUp,정답입니다,411.92586810002103,None,411.92586810002103,None,411.92586810002103,None,411.92586810002103,None,412.56976099999156,None,412.56976099999156,413.06978350004647,,,,,,,,,,,,,,,,203,2023-04-26_17h32.42.219,FishGame,2022.1.1,59.97174133768153,
,28,넌 감성적이야,3,Green,B,4.125,4.166666666666667,ScrollUp,ScrollDown,Green.png,2,Neutral,Neutral,0,0,0,0,,,,,,,,,,,,,,,,,0,27,27,27,,,,,,,,,,,,,,,,,,,,,,,,,,,,,,,,,,,,,,,,,,,,,,,,,,,,,,,,,,,,,,,,,,,,,,,,,,,,,,,,,1.7731481442848842,0.7294977999990806,413.6709625000367,None,ScrollUp,정답입니다,413.6709625000367,None,413.6709625000367,None,413.6709625000367,None,413.6709625000367,None,414.31982000009157,None,414.31982000009157,414.81979209999554,,,,,,,,,,,,,,,,203,2023-04-26_17h32.42.219,FishGame,2022.1.1,59.97174133768153,
,29,넌 배려심있어,1,Orange,A,6.083333333333333,5.5,ScrollDown,ScrollUp,Orange.png,2,Positive,Congruent,0,0,0,0,,,,,,,,,,,,,,,,,0,28,28,28,,,,,,,,,,,,,,,,,,,,,,,,,,,,,,,,,,,,,,,,,,,,,,,,,,,,,,,,,,,,,,,,,,,,,,,,,,,,,,,,,1,0.7630776000441983,415.4306934000924,None,ScrollDown,정답입니다,415.4306934000924,None,415.4306934000924,None,415.4306934000924,None,415.4306934000924,None,416.1031684000045,None,416.1031684000045,416.60308810009155,,,,,,,,,,,,,,,,203,2023-04-26_17h32.42.219,FishGame,2022.1.1,59.97174133768153,
,30,넌 숨김없어,3,Orange,A,4.5,4.933333333333334,ScrollDown,ScrollUp,Orange.png,2,Neutral,Neutral,0,0,0,0,,,,,,,,,,,,,,,,,0,29,29,29,,,,,,,,,,,,,,,,,,,,,,,,,,,,,,,,,,,,,,,,,,,,,,,,,,,,,,,,,,,,,,,,,,,,,,,,,,,,,,,,,1,0.8128426999319345,417.21315930003766,None,ScrollDown,정답입니다,417.21315930003766,None,417.21315930003766,None,417.21315930003766,None,417.21315930003766,None,417.9363538000034,None,417.9363538000034,418.43631960009225,,,,,,,,,,,,,,,,203,2023-04-26_17h32.42.219,FishGame,2022.1.1,59.97174133768153,
,31,넌 훌륭해,2,Green,B,5.916666666666667,4.033333333333333,ScrollUp,ScrollDown,Green.png,2,Positive,Incongruent,0,0,0,0,,,,,,,,,,,,,,,,,0,30,30,30,,,,,,,,,,,,,,,,,,,,,,,,,,,,,,,,,,,,,,,,,,,,,,,,,,,,,,,,,,,,,,,,,,,,,,,,,,,,,,,,,1.8888888905445735,0.76269250002224,419.04238050000276,None,ScrollUp,정답입니다,419.04238050000276,None,419.04238050000276,None,419.04238050000276,None,419.04238050000276,None,419.7196913000662,None,419.7196913000662,420.21962440002244,,,,,,,,,,,,,,,,203,2023-04-26_17h32.42.219,FishGame,2022.1.1,59.97174133768153,
,32,넌 슬기로워,2,Orange,A,6.166666666666667,4.1,ScrollDown,ScrollUp,Orange.png,2,Positive,Congruent,0,0,0,0,,,,,,,,,,,,,,,,,0,31,31,31,,,,,,,,,,,,,,,,,,,,,,,,,,,,,,,,,,,,,,,,,,,,,,,,,,,,,,,,,,,,,,,,,,,,,,,,,,,,,,,,,1.095679019888242,0.7131747000385076,420.8252418000484,None,ScrollDown,정답입니다,420.8252418000484,None,420.8252418000484,None,420.8252418000484,None,420.8252418000484,None,421.45303770003375,None,421.45303770003375,421.95299580006395,,,,,,,,,,,,,,,,203,2023-04-26_17h32.42.219,FishGame,2022.1.1,59.97174133768153,
,33,넌 냉혹해,5,Orange,A,2.583333333333333,2.1,ScrollDown,ScrollUp,Orange.png,2,Negative,Incongruent,0,0,0,0,,,,,,,,,,,,,,,,,0,32,32,32,,,,,,,,,,,,,,,,,,,,,,,,,,,,,,,,,,,,,,,,,,,,,,,,,,,,,,,,,,,,,,,,,,,,,,,,,,,,,,,,,1.0679012437661488,0.7457645999966189,422.5689668999985,None,ScrollDown,정답입니다,422.5689668999985,None,422.5689668999985,None,422.5689668999985,None,422.5689668999985,None,423.2172698000213,None,423.2172698000213,423.7172478000866,,,,,,,,,,,,,,,,203,2023-04-26_17h32.42.219,FishGame,2022.1.1,59.97174133768153,
,34,나를 데려가줘,6,Green,B,0,0,ScrollDown,ScrollUp,Green.png,2,NonTarget,NonTarget,0,0,0,0,,,,,,,,,,,,,,,,,0,33,33,33,,,,,,,,,,,,,,,,,,,,,,,,,,,,,,,,,,,,,,,,,,,,,,,,,,,,,,,,,,,,,,,,,,,,,,,,,,,,,,,,,1,0.9313404000131413,424.32302000001073,None,ScrollDown,정답입니다,424.32302000001073,None,424.32302000001073,None,424.32302000001073,None,424.32302000001073,None,425.16732100001536,None,425.16732100001536,425.6696647000499,,,,,,,,,,,,,,,,203,2023-04-26_17h32.42.219,FishGame,2022.1.1,59.97174133768153,
,35,넌 편파적이야,5,Green,B,2.125,2,ScrollUp,ScrollDown,Green.png,2,Negative,Congruent,0,0,0,0,,,,,,,,,,,,,,,,,0,34,34,34,,,,,,,,,,,,,,,,,,,,,,,,,,,,,,,,,,,,,,,,,,,,,,,,,,,,,,,,,,,,,,,,,,,,,,,,,,,,,,,,,1.9907407363255818,0.8316820999607444,426.275185000035,None,ScrollUp,정답입니다,426.275185000035,None,426.275185000035,None,426.275185000035,None,426.275185000035,None,427.0198004000122,None,427.0198004000122,427.519651300041,,,,,,,,,,,,,,,,203,2023-04-26_17h32.42.219,FishGame,2022.1.1,59.97174133768153,
,36,넌 슬퍼,4,Orange,A,2.583333333333333,3.066666666666667,ScrollDown,ScrollUp,Orange.png,2,Negative,Incongruent,0,0,0,0,,,,,,,,,,,,,,,,,0,35,35,35,,,,,,,,,,,,,,,,,,,,,,,,,,,,,,,,,,,,,,,,,,,,,,,,,,,,,,,,,,,,,,,,,,,,,,,,,,,,,,,,,1,0.8294329000636935,428.12245840008836,None,ScrollDown,정답입니다,428.12245840008836,None,428.12245840008836,None,428.12245840008836,None,428.12245840008836,None,428.8695402999874,None,428.8695402999874,429.3695042000618,,,,,,,,,,,,,,,,203,2023-04-26_17h32.42.219,FishGame,2022.1.1,59.97174133768153,
,37,나를 데려가줘,6,Green,B,0,0,ScrollDown,ScrollUp,Green.png,2,NonTarget,NonTarget,0,0,0,0,,,,,,,,,,,,,,,,,0,36,36,36,,,,,,,,,,,,,,,,,,,,,,,,,,,,,,,,,,,,,,,,,,,,,,,,,,,,,,,,,,,,,,,,,,,,,,,,,,,,,,,,,1.0462962985038757,0.9925661999732256,429.98296839999966,None,ScrollDown,정답입니다,429.98296839999966,None,429.98296839999966,None,429.98296839999966,None,429.98296839999966,None,430.88379990006797,None,430.88379990006797,431.3837863000808,,,,,,,,,,,,,,,,203,2023-04-26_17h32.42.219,FishGame,2022.1.1,59.97174133768153,
,38,넌 친절해,1,Green,B,6.041666666666667,5.533333333333333,ScrollUp,ScrollDown,Green.png,2,Positive,Incongruent,0,0,0,0,,,,,,,,,,,,,,,,,0,37,37,37,,,,,,,,,,,,,,,,,,,,,,,,,,,,,,,,,,,,,,,,,,,,,,,,,,,,,,,,,,,,,,,,,,,,,,,,,,,,,,,,,2,0.8648482999997213,431.99145129998215,None,ScrollUp,정답입니다,431.99145129998215,None,431.99145129998215,None,431.99145129998215,None,431.99145129998215,None,432.76713559997734,None,432.76713559997734,433.26954590005334,,,,,,,,,,,,,,,,203,2023-04-26_17h32.42.219,FishGame,2022.1.1,59.97174133768153,
,1,넌 엉성해,4,Orange,A,3,3.3,ScrollDown,ScrollUp,Orange.png,3,Negative,Incongruent,0,0,0,0,,,,,,,,,,,,,,,,,,,,,0,0,0,0,,,,,,,,,,,,,,,,,,,,,,,,,,,,,,,,,,,,465.6000647000037,467.1022603000747,467.13557330006734,468.08557750005275,468.1355750000803,469.1022032999899,469.0855390999932,None,,,,,,,,,,,,,,,,,,,,,,,,,,,,,,,,,,1,1.0780779999913648,470.1646867999807,None,ScrollDown,정답입니다,470.1646867999807,None,470.1646867999807,None,470.1646867999807,None,470.1646867999807,None,471.1521707000211,None,471.1521707000211,471.65205799997784,433.76956240006257,None,433.76956240006257,None,0.07037037,-0.10277778,1,0,0,0.01631179009564221,None,463.7686772000743,None,,,203,2023-04-26_17h32.42.219,FishGame,2022.1.1,59.97174133768153,
,2,나를 보내줘,6,Orange,A,0,0,ScrollUp,ScrollDown,Orange.png,3,NonTarget,NonTarget,0,0,0,0,,,,,,,,,,,,,,,,,,,,,0,1,1,1,,,,,,,,,,,,,,,,,,,,,,,,,,,,,,,,,,,,,,,,,,,,,,,,,,,,,,,,,,,,,,,,,,,,,,,,,,,,,2,0.91226320003625,472.2585288999835,None,ScrollUp,정답입니다,472.2585288999835,None,472.2585288999835,None,472.2585288999835,None,472.2585288999835,None,473.08318890002556,None,473.08318890002556,473.58523910003714,,,,,,,,,,,,,,,,203,2023-04-26_17h32.42.219,FishGame,2022.1.1,59.97174133768153,
,3,넌 활발해,1,Green,B,5.666666666666667,5.6,ScrollUp,ScrollDown,Green.png,3,Positive,Incongruent,0,0,0,0,,,,,,,,,,,,,,,,,,,,,0,2,2,2,,,,,,,,,,,,,,,,,,,,,,,,,,,,,,,,,,,,,,,,,,,,,,,,,,,,,,,,,,,,,,,,,,,,,,,,,,,,,1.9907407363255818,0.7318883000407368,474.1909131000284,None,ScrollUp,정답입니다,474.1909131000284,None,474.1909131000284,None,474.1909131000284,None,474.1909131000284,None,474.8332111000782,None,474.8332111000782,475.3352676000213,,,,,,,,,,,,,,,,203,2023-04-26_17h32.42.219,FishGame,2022.1.1,59.97174133768153,
,4,넌 논리적이야,2,Orange,A,5.666666666666666,4.633333333333334,ScrollDown,ScrollUp,Orange.png,3,Positive,Congruent,0,0,0,0,,,,,,,,,,,,,,,,,,,,,0,3,3,3,,,,,,,,,,,,,,,,,,,,,,,,,,,,,,,,,,,,,,,,,,,,,,,,,,,,,,,,,,,,,,,,,,,,,,,,,,,,,1,0.8128732999321073,475.9413949000882,None,ScrollDown,정답입니다,475.9413949000882,None,475.9413949000882,None,475.9413949000882,None,475.9413949000882,None,476.6685415999964,None,476.6685415999964,477.16849409998395,,,,,,,,,,,,,,,,203,2023-04-26_17h32.42.219,FishGame,2022.1.1,59.97174133768153,
,5,넌 과묵해,3,Orange,A,3.875,4.4,ScrollDown,ScrollUp,Orange.png,3,Neutral,Neutral,0,0,0,0,,,,,,,,,,,,,,,,,,,,,0,4,4,4,,,,,,,,,,,,,,,,,,,,,,,,,,,,,,,,,,,,,,,,,,,,,,,,,,,,,,,,,,,,,,,,,,,,,,,,,,,,,1,0.7963562000077218,477.7762247000355,None,ScrollDown,정답입니다,477.7762247000355,None,477.7762247000355,None,477.7762247000355,None,477.7762247000355,None,478.4851745000342,None,478.4851745000342,478.98515259998385,,,,,,,,,,,,,,,,203,2023-04-26_17h32.42.219,FishGame,2022.1.1,59.97174133768153,
,6,나를 데려가줘,6,Green,B,0,0,ScrollDown,ScrollUp,Green.png,3,NonTarget,NonTarget,0,0,0,0,,,,,,,,,,,,,,,,,,,,,0,5,5,5,,,,,,,,,,,,,,,,,,,,,,,,,,,,,,,,,,,,,,,,,,,,,,,,,,,,,,,,,,,,,,,,,,,,,,,,,,,,,1,0.8984291000524536,479.58921520004515,None,ScrollDown,정답입니다,479.58921520004515,None,479.58921520004515,None,479.58921520004515,None,479.58921520004515,None,480.40185590006877,None,480.40185590006877,480.90181369998027,,,,,,,,,,,,,,,,203,2023-04-26_17h32.42.219,FishGame,2022.1.1,59.97174133768153,
,7,넌 미숙해,4,Green,B,3,3,ScrollUp,ScrollDown,Green.png,3,Negative,Congruent,0,0,0,0,,,,,,,,,,,,,,,,,,,,,0,6,6,6,,,,,,,,,,,,,,,,,,,,,,,,,,,,,,,,,,,,,,,,,,,,,,,,,,,,,,,,,,,,,,,,,,,,,,,,,,,,,1.859567900498708,0.7292287000454962,481.50851640000474,None,ScrollUp,정답입니다,481.50851640000474,None,481.50851640000474,None,481.50851640000474,None,481.50851640000474,None,482.14944770000875,None,482.14944770000875,482.64944870001636,,,,,,,,,,,,,,,,203,2023-04-26_17h32.42.219,FishGame,2022.1.1,59.97174133768153,
,8,나를 보내줘,6,Orange,A,0,0,ScrollUp,ScrollDown,Orange.png,3,NonTarget,NonTarget,0,0,0,0,,,,,,,,,,,,,,,,,,,,,0,7,7,7,,,,,,,,,,,,,,,,,,,,,,,,,,,,,,,,,,,,,,,,,,,,,,,,,,,,,,,,,,,,,,,,,,,,,,,,,,,,,1.8827160596847534,0.92910569999367,483.2557454999769,None,ScrollUp,정답입니다,483.2557454999769,None,483.2557454999769,None,483.2557454999769,None,483.2557454999769,None,484.0994795000879,None,484.0994795000879,484.60187030001543,,,,,,,,,,,,,,,,203,2023-04-26_17h32.42.219,FishGame,2022.1.1,59.97174133768153,
,9,넌 자신만만해,3,Green,B,4.833333333333334,4.333333333333333,ScrollUp,ScrollDown,Green.png,3,Neutral,Neutral,0,0,0,0,,,,,,,,,,,,,,,,,,,,,0,8,8,8,,,,,,,,,,,,,,,,,,,,,,,,,,,,,,,,,,,,,,,,,,,,,,,,,,,,,,,,,,,,,,,,,,,,,,,,,,,,,1.703703703979651,0.8314587000058964,485.2034466000041,None,ScrollUp,정답입니다,485.2034466000041,None,485.2034466000041,None,485.2034466000041,None,485.2034466000041,None,485.95186180004384,None,485.95186180004384,486.45508159999736,,,,,,,,,,,,,,,,203,2023-04-26_17h32.42.219,FishGame,2022.1.1,59.97174133768153,
,10,넌 탐욕스러워,5,Orange,A,2.25,2.1,ScrollDown,ScrollUp,Orange.png,3,Negative,Incongruent,0,0,0,0,,,,,,,,,,,,,,,,,,,,,0,9,9,9,,,,,,,,,,,,,,,,,,,,,,,,,,,,,,,,,,,,,,,,,,,,,,,,,,,,,,,,,,,,,,,,,,,,,,,,,,,,,1,0.8650213000364602,487.0617411000421,None,ScrollDown,정답입니다,487.0617411000421,None,487.0617411000421,None,487.0617411000421,None,487.0617411000421,None,487.83297910005786,None,487.83297910005786,488.33499380003195,,,,,,,,,,,,,,,,203,2023-04-26_17h32.42.219,FishGame,2022.1.1,59.97174133768153,
,11,넌 인기있어,2,Orange,A,5.458333333333333,4.5,ScrollDown,ScrollUp,Orange.png,3,Positive,Congruent,0,0,0,0,,,,,,,,,,,,,,,,,,,,,0,10,10,10,,,,,,,,,,,,,,,,,,,,,,,,,,,,,,,,,,,,,,,,,,,,,,,,,,,,,,,,,,,,,,,,,,,,,,,,,,,,,1,0.8945509999757633,488.9496612000512,None,ScrollDown,정답입니다,488.9496612000512,None,488.9496612000512,None,488.9496612000512,None,488.9496612000512,None,489.74931430001743,None,489.74931430001743,490.2492846000241,,,,,,,,,,,,,,,,203,2023-04-26_17h32.42.219,FishGame,2022.1.1,59.97174133768153,
,12,나를 데려가줘,6,Green,B,0,0,ScrollDown,ScrollUp,Green.png,3,NonTarget,NonTarget,0,0,0,0,,,,,,,,,,,,,,,,,,,,,0,11,11,11,,,,,,,,,,,,,,,,,,,,,,,,,,,,,,,,,,,,,,,,,,,,,,,,,,,,,,,,,,,,,,,,,,,,,,,,,,,,,1,0.9650281999493018,490.85024290008005,None,ScrollDown,정답입니다,490.85024290008005,None,490.85024290008005,None,490.85024290008005,None,490.85024290008005,None,491.7326561000664,None,491.7326561000664,492.2350334000075,,,,,,,,,,,,,,,,203,2023-04-26_17h32.42.219,FishGame,2022.1.1,59.97174133768153,
,13,넌 뛰어나,2,Green,B,6.166666666666667,4,ScrollUp,ScrollDown,Green.png,3,Positive,Incongruent,0,0,0,0,,,,,,,,,,,,,,,,,,,,,0,12,12,12,,,,,,,,,,,,,,,,,,,,,,,,,,,,,,,,,,,,,,,,,,,,,,,,,,,,,,,,,,,,,,,,,,,,,,,,,,,,,2,0.7798270999919623,492.83815149997827,None,ScrollUp,정답입니다,492.83815149997827,None,492.83815149997827,None,492.83815149997827,None,492.83815149997827,None,493.5351310999831,None,493.5351310999831,494.0349939999869,,,,,,,,,,,,,,,,203,2023-04-26_17h32.42.219,FishGame,2022.1.1,59.97174133768153,
,14,넌 낙관적이야,1,Orange,A,5.75,5.8,ScrollDown,ScrollUp,Orange.png,3,Positive,Congruent,0,0,0,0,,,,,,,,,,,,,,,,,,,,,0,13,13,13,,,,,,,,,,,,,,,,,,,,,,,,,,,,,,,,,,,,,,,,,,,,,,,,,,,,,,,,,,,,,,,,,,,,,,,,,,,,,1,0.896463599987328,494.6434769000625,None,ScrollDown,정답입니다,494.6434769000625,None,494.6434769000625,None,494.6434769000625,None,494.6434769000625,None,495.45158940006513,None,495.45158940006513,495.9515520000132,,,,,,,,,,,,,,,,203,2023-04-26_17h32.42.219,FishGame,2022.1.1,59.97174133768153,
,15,넌 산만해,4,Green,B,2.695652173913043,3.033333333333333,ScrollUp,ScrollDown,Green.png,3,Negative,Congruent,0,0,0,0,,,,,,,,,,,,,,,,,,,,,0,14,14,14,,,,,,,,,,,,,,,,,,,,,,,,,,,,,,,,,,,,,,,,,,,,,,,,,,,,,,,,,,,,,,,,,,,,,,,,,,,,,2,0.8127609000075608,496.5575250000693,None,ScrollUp,정답입니다,496.5575250000693,None,496.5575250000693,None,496.5575250000693,None,496.5575250000693,None,497.282722700038,None,497.282722700038,497.78475360001903,,,,,,,,,,,,,,,,203,2023-04-26_17h32.42.219,FishGame,2022.1.1,59.97174133768153,
,16,나를 보내줘,6,Orange,A,0,0,ScrollUp,ScrollDown,Orange.png,3,NonTarget,NonTarget,0,0,0,0,,,,,,,,,,,,,,,,,,,,,0,15,15,15,,,,,,,,,,,,,,,,,,,,,,,,,,,,,,,,,,,,,,,,,,,,,,,,,,,,,,,,,,,,,,,,,,,,,,,,,,,,,2,0.965164800058119,498.3896633000113,None,ScrollUp,정답입니다,498.3896633000113,None,498.3896633000113,None,498.3896633000113,None,498.3896633000113,None,499.2681023000041,None,499.2681023000041,499.7681028000079,,,,,,,,,,,,,,,,203,2023-04-26_17h32.42.219,FishGame,2022.1.1,59.97174133768153,
,17,넌 교활해,5,Green,B,2.333333333333333,2.133333333333333,ScrollUp,ScrollDown,Green.png,3,Negative,Congruent,0,0,0,0,,,,,,,,,,,,,,,,,,,,,0,16,16,16,,,,,,,,,,,,,,,,,,,,,,,,,,,,,,,,,,,,,,,,,,,,,,,,,,,,,,,,,,,,,,,,,,,,,,,,,,,,,2,0.9152401000028476,500.37073580001015,None,ScrollUp,정답입니다,500.37073580001015,None,500.37073580001015,None,500.37073580001015,None,500.37073580001015,None,501.19937719998416,None,501.19937719998416,501.7014818000607,,,,,,,,,,,,,,,,203,2023-04-26_17h32.42.219,FishGame,2022.1.1,59.97174133768153,
,18,나를 보내줘,6,Orange,A,0,0,ScrollUp,ScrollDown,Orange.png,3,NonTarget,NonTarget,0,0,0,0,,,,,,,,,,,,,,,,,,,,,0,17,17,17,,,,,,,,,,,,,,,,,,,,,,,,,,,,,,,,,,,,,,,,,,,,,,,,,,,,,,,,,,,,,,,,,,,,,,,,,,,,,2,1.3263976000016555,502.31574590003584,None,ScrollUp,정답입니다,502.31574590003584,None,502.31574590003584,None,502.31574590003584,None,502.31574590003584,None,503.5490303999977,None,503.5490303999977,504.0490167000098,,,,,,,,,,,,,,,,203,2023-04-26_17h32.42.219,FishGame,2022.1.1,59.97174133768153,
,19,넌 불친절해,5,Green,B,2.208333333333333,2.033333333333333,ScrollUp,ScrollDown,Green.png,3,Negative,Congruent,0,0,0,0,,,,,,,,,,,,,,,,,,,,,0,18,18,18,,,,,,,,,,,,,,,,,,,,,,,,,,,,,,,,,,,,,,,,,,,,,,,,,,,,,,,,,,,,,,,,,,,,,,,,,,,,,2,0.8811287999851629,504.6614726000698,None,ScrollUp,정답입니다,504.6614726000698,None,504.6614726000698,None,504.6614726000698,None,504.6614726000698,None,505.45148950000294,None,505.45148950000294,505.9514293000102,,,,,,,,,,,,,,,,203,2023-04-26_17h32.42.219,FishGame,2022.1.1,59.97174133768153,
,20,넌 지적이야,2,Green,B,5.75,4.366666666666666,ScrollUp,ScrollDown,Green.png,3,Positive,Incongruent,0,0,0,0,,,,,,,,,,,,,,,,,,,,,0,19,19,19,,,,,,,,,,,,,,,,,,,,,,,,,,,,,,,,,,,,,,,,,,,,,,,,,,,,,,,,,,,,,,,,,,,,,,,,,,,,,2,0.8129219999536872,506.5542309000157,None,ScrollUp,정답입니다,506.5542309000157,None,506.5542309000157,None,506.5542309000157,None,506.5542309000157,None,507.28460350004025,None,507.28460350004025,507.78460770007223,,,,,,,,,,,,,,,,203,2023-04-26_17h32.42.219,FishGame,2022.1.1,59.97174133768153,
,21,넌 우유부단해,4,Orange,A,2.666666666666667,3.166666666666667,ScrollDown,ScrollUp,Orange.png,3,Negative,Incongruent,0,0,0,0,,,,,,,,,,,,,,,,,,,,,0,20,20,20,,,,,,,,,,,,,,,,,,,,,,,,,,,,,,,,,,,,,,,,,,,,,,,,,,,,,,,,,,,,,,,,,,,,,,,,,,,,,1.0324074228604634,0.7632630000589415,508.39128510002047,None,ScrollDown,정답입니다,508.39128510002047,None,508.39128510002047,None,508.39128510002047,None,508.39128510002047,None,509.0658860000549,None,509.0658860000549,509.5679535000818,,,,,,,,,,,,,,,,203,2023-04-26_17h32.42.219,FishGame,2022.1.1,59.97174133768153,
,22,나를 데려가줘,6,Green,B,0,0,ScrollDown,ScrollUp,Green.png,3,NonTarget,NonTarget,0,0,0,0,,,,,,,,,,,,,,,,,,,,,0,21,21,21,,,,,,,,,,,,,,,,,,,,,,,,,,,,,,,,,,,,,,,,,,,,,,,,,,,,,,,,,,,,,,,,,,,,,,,,,,,,,1.0740740497907002,0.8129015000304207,510.17208110005595,None,ScrollDown,정답입니다,510.17208110005595,None,510.17208110005595,None,510.17208110005595,None,510.17208110005595,None,510.9011590000009,None,510.9011590000009,511.4011711999774,,,,,,,,,,,,,,,,203,2023-04-26_17h32.42.219,FishGame,2022.1.1,59.97174133768153,
,23,넌 성실해,1,Green,B,6.041666666666666,5.7,ScrollUp,ScrollDown,Green.png,3,Positive,Incongruent,0,0,0,0,,,,,,,,,,,,,,,,,,,,,0,22,22,22,,,,,,,,,,,,,,,,,,,,,,,,,,,,,,,,,,,,,,,,,,,,,,,,,,,,,,,,,,,,,,,,,,,,,,,,,,,,,2,0.8294800000730902,512.0051584000466,None,ScrollUp,정답입니다,512.0051584000466,None,512.0051584000466,None,512.0051584000466,None,512.0051584000466,None,512.7512185000814,None,512.7512185000814,513.2511623000028,,,,,,,,,,,,,,,,203,2023-04-26_17h32.42.219,FishGame,2022.1.1,59.97174133768153,
,24,넌 현실주의적이야,3,Orange,A,4.625,4.4,ScrollDown,ScrollUp,Orange.png,3,Neutral,Neutral,0,0,0,0,,,,,,,,,,,,,,,,,,,,,0,23,23,23,,,,,,,,,,,,,,,,,,,,,,,,,,,,,,,,,,,,,,,,,,,,,,,,,,,,,,,,,,,,,,,,,,,,,,,,,,,,,1,0.8294028000673279,513.8575110000093,None,ScrollDown,정답입니다,513.8575110000093,None,513.8575110000093,None,513.8575110000093,None,513.8575110000093,None,514.5990759000415,None,514.5990759000415,515.1010808000574,,,,,,,,,,,,,,,,203,2023-04-26_17h32.42.219,FishGame,2022.1.1,59.97174133768153,
,25,넌 진실돼,1,Orange,A,6.625,5.566666666666666,ScrollDown,ScrollUp,Orange.png,3,Positive,Congruent,0,0,0,0,,,,,,,,,,,,,,,,,,,,,0,24,24,24,,,,,,,,,,,,,,,,,,,,,,,,,,,,,,,,,,,,,,,,,,,,,,,,,,,,,,,,,,,,,,,,,,,,,,,,,,,,,1,0.8480386999435723,515.7067970000207,None,ScrollDown,정답입니다,515.7067970000207,None,515.7067970000207,None,515.7067970000207,None,515.7067970000207,None,516.4677203000756,None,516.4677203000756,516.9678205000237,,,,,,,,,,,,,,,,203,2023-04-26_17h32.42.219,FishGame,2022.1.1,59.97174133768153,
,26,넌 천진난만해,3,Green,B,4.958333333333334,4.833333333333333,ScrollUp,ScrollDown,Green.png,3,Neutral,Neutral,0,0,0,0,,,,,,,,,,,,,,,,,,,,,0,25,25,25,,,,,,,,,,,,,,,,,,,,,,,,,,,,,,,,,,,,,,,,,,,,,,,,,,,,,,,,,,,,,,,,,,,,,,,,,,,,,2,0.8796655999030918,517.5750824999996,None,ScrollUp,정답입니다,517.5750824999996,None,517.5750824999996,None,517.5750824999996,None,517.5750824999996,None,518.3677578000352,None,518.3677578000352,518.8677747000474,,,,,,,,,,,,,,,,203,2023-04-26_17h32.42.219,FishGame,2022.1.1,59.97174133768153,
,27,넌 교양없어,5,Orange,A,2.416666666666667,2.2,ScrollDown,ScrollUp,Orange.png,3,Negative,Incongruent,0,0,0,0,,,,,,,,,,,,,,,,,,,,,0,26,26,26,,,,,,,,,,,,,,,,,,,,,,,,,,,,,,,,,,,,,,,,,,,,,,,,,,,,,,,,,,,,,,,,,,,,,,,,,,,,,1.0617283880710602,0.8117940999800339,519.4798458000878,None,ScrollDown,정답입니다,519.4798458000878,None,519.4798458000878,None,519.4798458000878,None,519.4798458000878,None,520.201017400017,None,520.201017400017,520.7010944000212,,,,,,,,,,,,,,,,203,2023-04-26_17h32.42.219,FishGame,2022.1.1,59.97174133768153,
,28,나를 보내줘,6,Orange,A,0,0,ScrollUp,ScrollDown,Orange.png,3,NonTarget,NonTarget,0,0,0,0,,,,,,,,,,,,,,,,,,,,,0,27,27,27,,,,,,,,,,,,,,,,,,,,,,,,,,,,,,,,,,,,,,,,,,,,,,,,,,,,,,,,,,,,,,,,,,,,,,,,,,,,,2,0.8460224000737071,521.3120666000759,None,ScrollUp,정답입니다,521.3120666000759,None,521.3120666000759,None,521.3120666000759,None,521.3120666000759,None,522.0655761000235,None,522.0655761000235,522.5676063999999,,,,,,,,,,,,,,,,203,2023-04-26_17h32.42.219,FishGame,2022.1.1,59.97174133768153,
,29,넌 엉뚱스러워,3,Orange,A,4.166666666666667,4.133333333333334,ScrollDown,ScrollUp,Orange.png,3,Neutral,Neutral,0,0,0,0,,,,,,,,,,,,,,,,,,,,,0,28,28,28,,,,,,,,,,,,,,,,,,,,,,,,,,,,,,,,,,,,,,,,,,,,,,,,,,,,,,,,,,,,,,,,,,,,,,,,,,,,,1,0.8629023999674246,523.1846649000654,None,ScrollDown,정답입니다,523.1846649000654,None,523.1846649000654,None,523.1846649000654,None,523.1846649000654,None,523.9510471000103,None,523.9510471000103,524.4541419000598,,,,,,,,,,,,,,,,203,2023-04-26_17h32.42.219,FishGame,2022.1.1,59.97174133768153,
,30,넌 무지해,4,Green,B,2.541666666666667,3.066666666666667,ScrollUp,ScrollDown,Green.png,3,Negative,Congruent,0,0,0,0,,,,,,,,,,,,,,,,,,,,,0,29,29,29,,,,,,,,,,,,,,,,,,,,,,,,,,,,,,,,,,,,,,,,,,,,,,,,,,,,,,,,,,,,,,,,,,,,,,,,,,,,,2,0.9130693000042811,525.0528141000541,None,ScrollUp,정답입니다,525.0528141000541,None,525.0528141000541,None,525.0528141000541,None,525.0528141000541,None,525.8842032999964,None,525.8842032999964,526.384199900087,,,,,,,,,,,,,,,,203,2023-04-26_17h32.42.219,FishGame,2022.1.1,59.97174133768153,
,31,넌 음울해,5,Green,B,2.25,2.233333333333333,ScrollUp,ScrollDown,Green.png,3,Negative,Congruent,0,0,0,0,,,,,,,,,,,,,,,,,,,,,0,30,30,30,,,,,,,,,,,,,,,,,,,,,,,,,,,,,,,,,,,,,,,,,,,,,,,,,,,,,,,,,,,,,,,,,,,,,,,,,,,,,1.9907407363255818,0.7623963999794796,527.0215226000873,None,ScrollUp,정답입니다,527.0215226000873,None,527.0215226000873,None,527.0215226000873,None,527.0215226000873,None,527.6842891999986,None,527.6842891999986,528.1842084000818,,,,,,,,,,,,,,,,203,2023-04-26_17h32.42.219,FishGame,2022.1.1,59.97174133768153,
,32,넌 냉소적이야,5,Orange,A,2.916666666666667,2.4,ScrollDown,ScrollUp,Orange.png,3,Negative,Incongruent,0,0,0,0,,,,,,,,,,,,,,,,,,,,,0,31,31,31,,,,,,,,,,,,,,,,,,,,,,,,,,,,,,,,,,,,,,,,,,,,,,,,,,,,,,,,,,,,,,,,,,,,,,,,,,,,,1,0.8295999000547454,528.7902549999999,None,ScrollDown,정답입니다,528.7902549999999,None,528.7902549999999,None,528.7902549999999,None,528.7902549999999,None,529.5341466000536,None,529.5341466000536,530.0341180000687,,,,,,,,,,,,,,,,203,2023-04-26_17h32.42.219,FishGame,2022.1.1,59.97174133768153,
,33,나를 데려가줘,6,Green,B,0,0,ScrollDown,ScrollUp,Green.png,3,NonTarget,NonTarget,0,0,0,0,,,,,,,,,,,,,,,,,,,,,0,32,32,32,,,,,,,,,,,,,,,,,,,,,,,,,,,,,,,,,,,,,,,,,,,,,,,,,,,,,,,,,,,,,,,,,,,,,,,,,,,,,1,0.8964214000152424,530.6503990000347,None,ScrollDown,정답입니다,530.6503990000347,None,530.6503990000347,None,530.6503990000347,None,530.6503990000347,None,531.4674482999835,None,531.4674482999835,531.9674245000351,,,,,,,,,,,,,,,,203,2023-04-26_17h32.42.219,FishGame,2022.1.1,59.97174133768153,
,34,넌 쾌활해,1,Orange,A,5.541666666666666,5.733333333333333,ScrollDown,ScrollUp,Orange.png,3,Positive,Congruent,0,0,0,0,,,,,,,,,,,,,,,,,,,,,0,33,33,33,,,,,,,,,,,,,,,,,,,,,,,,,,,,,,,,,,,,,,,,,,,,,,,,,,,,,,,,,,,,,,,,,,,,,,,,,,,,,1.0030864079793294,1.1481692999368533,532.5728488999885,None,ScrollDown,정답입니다,532.5728488999885,None,532.5728488999885,None,532.5728488999885,None,532.5728488999885,None,533.6341956000542,None,533.6341956000542,534.1341278000036,,,,,,,,,,,,,,,,203,2023-04-26_17h32.42.219,FishGame,2022.1.1,59.97174133768153,
,35,나를 보내줘,6,Orange,A,0,0,ScrollUp,ScrollDown,Orange.png,3,NonTarget,NonTarget,0,0,0,0,,,,,,,,,,,,,,,,,,,,,0,34,34,34,,,,,,,,,,,,,,,,,,,,,,,,,,,,,,,,,,,,,,,,,,,,,,,,,,,,,,,,,,,,,,,,,,,,,,,,,,,,,1.959876557191213,0.879752799984999,534.7386442000279,None,ScrollUp,정답입니다,534.7386442000279,None,534.7386442000279,None,534.7386442000279,None,534.7386442000279,None,535.5340385000454,None,535.5340385000454,536.0340331000043,,,,,,,,,,,,,,,,203,2023-04-26_17h32.42.219,FishGame,2022.1.1,59.97174133768153,
,36,넌 명랑해,1,Green,B,5.739130434782609,5.666666666666667,ScrollUp,ScrollDown,Green.png,3,Positive,Incongruent,0,0,0,0,,,,,,,,,,,,,,,,,,,,,0,35,35,35,,,,,,,,,,,,,,,,,,,,,,,,,,,,,,,,,,,,,,,,,,,,,,,,,,,,,,,,,,,,,,,,,,,,,,,,,,,,,1.9537037014961243,0.8149734999751672,536.6371071999893,None,ScrollUp,정답입니다,536.6371071999893,None,536.6371071999893,None,536.6371071999893,None,536.6371071999893,None,537.3674308999907,None,537.3674308999907,537.867355800001,,,,,,,,,,,,,,,,203,2023-04-26_17h32.42.219,FishGame,2022.1.1,59.97174133768153,
,37,넌 멍해,4,Orange,A,2.833333333333333,3.4,ScrollDown,ScrollUp,Orange.png,3,Negative,Incongruent,0,0,0,0,,,,,,,,,,,,,,,,,,,,,0,36,36,36,,,,,,,,,,,,,,,,,,,,,,,,,,,,,,,,,,,,,,,,,,,,,,,,,,,,,,,,,,,,,,,,,,,,,,,,,,,,,1,0.8979966000188142,538.4724548000377,None,ScrollDown,정답입니다,538.4724548000377,None,538.4724548000377,None,538.4724548000377,None,538.4724548000377,None,539.2819014000706,None,539.2819014000706,539.7839260000037,,,,,,,,,,,,,,,,203,2023-04-26_17h32.42.219,FishGame,2022.1.1,59.97174133768153,
,38,나를 데려가줘,6,Green,B,0,0,ScrollDown,ScrollUp,Green.png,3,NonTarget,NonTarget,0,0,0,0,,,,,,,,,,,,,,,,,,,,,0,37,37,37,,,,,,,,,,,,,,,,,,,,,,,,,,,,,,,,,,,,,,,,,,,,,,,,,,,,,,,,,,,,,,,,,,,,,,,,,,,,,1.0154321193695068,0.8630982999457046,540.3866714000469,None,ScrollDown,정답입니다,540.3866714000469,None,540.3866714000469,None,540.3866714000469,None,540.3866714000469,None,541.1672359000659,None,541.1672359000659,541.6672146000201,,,,,,,,,,,,,,,,203,2023-04-26_17h32.42.219,FishGame,2022.1.1,59.97174133768153,
,39,넌 현명해,2,Orange,A,6.541666666666666,4.533333333333333,ScrollDown,ScrollUp,Orange.png,3,Positive,Congruent,0,0,0,0,,,,,,,,,,,,,,,,,,,,,0,38,38,38,,,,,,,,,,,,,,,,,,,,,,,,,,,,,,,,,,,,,,,,,,,,,,,,,,,,,,,,,,,,,,,,,,,,,,,,,,,,,1,0.863054700079374,542.2693414000096,None,ScrollDown,정답입니다,542.2693414000096,None,542.2693414000096,None,542.2693414000096,None,542.2693414000096,None,543.0506169000873,None,543.0506169000873,543.5505802000407,,,,,,,,,,,,,,,,203,2023-04-26_17h32.42.219,FishGame,2022.1.1,59.97174133768153,
,40,넌 수줍어,3,Green,B,3.541666666666666,4.366666666666666,ScrollUp,ScrollDown,Green.png,3,Neutral,Neutral,0,0,0,0,,,,,,,,,,,,,,,,,,,,,0,39,39,39,,,,,,,,,,,,,,,,,,,,,,,,,,,,,,,,,,,,,,,,,,,,,,,,,,,,,,,,,,,,,,,,,,,,,,,,,,,,,2,0.9129087999463081,544.155883600004,None,ScrollUp,정답입니다,544.155883600004,None,544.155883600004,None,544.155883600004,None,544.155883600004,None,544.9838056000881,None,544.9838056000881,545.4838276000228,,,,,,,,,,,,,,,,203,2023-04-26_17h32.42.219,FishGame,2022.1.1,59.97174133768153,
,41,나를 데려가줘,6,Green,B,0,0,ScrollDown,ScrollUp,Green.png,3,NonTarget,NonTarget,0,0,0,0,,,,,,,,,,,,,,,,,,,,,0,40,40,40,,,,,,,,,,,,,,,,,,,,,,,,,,,,,,,,,,,,,,,,,,,,,,,,,,,,,,,,,,,,,,,,,,,,,,,,,,,,,1,0.8984241000143811,546.083737900015,None,ScrollDown,정답입니다,546.083737900015,None,546.083737900015,None,546.083737900015,None,546.083737900015,None,546.9006664999761,None,546.9006664999761,547.4004710000008,,,,,,,,,,,,,,,,203,2023-04-26_17h32.42.219,FishGame,2022.1.1,59.97174133768153,
,42,넌 성숙해,2,Green,B,5.833333333333333,4.533333333333333,ScrollUp,ScrollDown,Green.png,3,Positive,Incongruent,0,0,0,0,,,,,,,,,,,,,,,,,,,,,0,41,41,41,,,,,,,,,,,,,,,,,,,,,,,,,,,,,,,,,,,,,,,,,,,,,,,,,,,,,,,,,,,,,,,,,,,,,,,,,,,,,2,0.8153546000830829,548.001099599991,None,ScrollUp,정답입니다,548.001099599991,None,548.001099599991,None,548.001099599991,None,548.001099599991,None,548.7317769000074,None,548.7317769000074,549.2337344000116,,,,,,,,,,,,,,,,203,2023-04-26_17h32.42.219,FishGame,2022.1.1,59.97174133768153,
,1,넌 매력적이야,2,Green,B,6.125,4.666666666666667,ScrollUp,ScrollDown,Green.png,4,Positive,Incongruent,0,0,0,0,,,,,,,,,,,,,,,,,,,,,,,,,0,0,0,0,,,,,,,,,,,,,,,,,,,,,,,,,,,,,,,,581.4977708000224,582.9999920000555,583.0332766000647,583.9832641000394,584.0332928000716,584.9832930000266,584.9832930000266,None,,,,,,,,,,,,,,,,,,,,,,,,,,,,,,,,,,1.9938271641731262,1.1578980999765918,586.0599540000549,None,ScrollUp,정답입니다,586.0599540000549,None,586.0599540000549,None,586.0599540000549,None,586.0599540000549,None,587.1329973000102,None,587.1329973000102,587.6334545999998,549.733760699979,None,549.733760699979,None,0.05740741,-0.10185185,1,0,0,0.01627159002237022,None,579.7311025999952,None,,,203,2023-04-26_17h32.42.219,FishGame,2022.1.1,59.97174133768153,
,2,나를 보내줘,6,Orange,A,0,0,ScrollUp,ScrollDown,Orange.png,4,NonTarget,NonTarget,0,0,0,0,,,,,,,,,,,,,,,,,,,,,,,,,0,1,1,1,,,,,,,,,,,,,,,,,,,,,,,,,,,,,,,,,,,,,,,,,,,,,,,,,,,,,,,,,,,,,,,,,,,,,,,,,1.9737654328346252,0.8961530000669882,588.2339268000796,None,ScrollUp,정답입니다,588.2339268000796,None,588.2339268000796,None,588.2339268000796,None,588.2339268000796,None,589.049780500005,None,589.049780500005,589.5496547999792,,,,,,,,,,,,,,,,203,2023-04-26_17h32.42.219,FishGame,2022.1.1,59.97174133768153,
,3,넌 조심스러워,3,Orange,A,4.791666666666666,4.666666666666667,ScrollDown,ScrollUp,Orange.png,4,Neutral,Neutral,0,0,0,0,,,,,,,,,,,,,,,,,,,,,,,,,0,2,2,2,,,,,,,,,,,,,,,,,,,,,,,,,,,,,,,,,,,,,,,,,,,,,,,,,,,,,,,,,,,,,,,,,,,,,,,,,1.0447530845801036,0.7794945000205189,590.1525128000649,None,ScrollDown,정답입니다,590.1525128000649,None,590.1525128000649,None,590.1525128000649,None,590.1525128000649,None,590.8497947000433,None,590.8497947000433,591.3496445000637,,,,,,,,,,,,,,,,203,2023-04-26_17h32.42.219,FishGame,2022.1.1,59.97174133768153,
,4,넌 철학적이야,3,Green,B,4.5,4.266666666666667,ScrollUp,ScrollDown,Green.png,4,Neutral,Neutral,0,0,0,0,,,,,,,,,,,,,,,,,,,,,,,,,0,3,3,3,,,,,,,,,,,,,,,,,,,,,,,,,,,,,,,,,,,,,,,,,,,,,,,,,,,,,,,,,,,,,,,,,,,,,,,,,1.8703703731298447,0.7457896000705659,591.956036800053,None,ScrollUp,정답입니다,591.956036800053,None,591.956036800053,None,591.956036800053,None,591.956036800053,None,592.613941400079,None,592.613941400079,593.1139148999937,,,,,,,,,,,,,,,,203,2023-04-26_17h32.42.219,FishGame,2022.1.1,59.97174133768153,
,5,넌 쩨쩨해,5,Orange,A,2.375,2.133333333333333,ScrollDown,ScrollUp,Orange.png,4,Negative,Incongruent,0,0,0,0,,,,,,,,,,,,,,,,,,,,,,,,,0,4,4,4,,,,,,,,,,,,,,,,,,,,,,,,,,,,,,,,,,,,,,,,,,,,,,,,,,,,,,,,,,,,,,,,,,,,,,,,,1.0725308855374653,0.7647273000329733,593.7147597000003,None,ScrollDown,정답입니다,593.7147597000003,None,593.7147597000003,None,593.7147597000003,None,593.7147597000003,None,594.3972563000862,None,594.3972563000862,594.8997365999967,,,,,,,,,,,,,,,,203,2023-04-26_17h32.42.219,FishGame,2022.1.1,59.97174133768153,
,6,나를 데려가줘,6,Green,B,0,0,ScrollDown,ScrollUp,Green.png,4,NonTarget,NonTarget,0,0,0,0,,,,,,,,,,,,,,,,,,,,,,,,,0,5,5,5,,,,,,,,,,,,,,,,,,,,,,,,,,,,,,,,,,,,,,,,,,,,,,,,,,,,,,,,,,,,,,,,,,,,,,,,,1.0216049253940582,1.1154211000539362,595.5004333000397,None,ScrollDown,정답입니다,595.5004333000397,None,595.5004333000397,None,595.5004333000397,None,595.5004333000397,None,596.5330009000609,None,596.5330009000609,597.0363432000158,,,,,,,,,,,,,,,,203,2023-04-26_17h32.42.219,FishGame,2022.1.1,59.97174133768153,
,7,넌 고집불통이야,5,Green,B,2.875,2,ScrollUp,ScrollDown,Green.png,4,Negative,Congruent,0,0,0,0,,,,,,,,,,,,,,,,,,,,,,,,,0,6,6,6,,,,,,,,,,,,,,,,,,,,,,,,,,,,,,,,,,,,,,,,,,,,,,,,,,,,,,,,,,,,,,,,,,,,,,,,,1.9089506218830745,0.8149744999827817,597.6391252999892,None,ScrollUp,정답입니다,597.6391252999892,None,597.6391252999892,None,597.6391252999892,None,597.6391252999892,None,598.3641350000398,None,598.3641350000398,598.8661237000488,,,,,,,,,,,,,,,,203,2023-04-26_17h32.42.219,FishGame,2022.1.1,59.97174133768153,
,8,넌 무심해,4,Orange,A,2.875,3.2,ScrollDown,ScrollUp,Orange.png,4,Negative,Incongruent,0,0,0,0,,,,,,,,,,,,,,,,,,,,,,,,,0,7,7,7,,,,,,,,,,,,,,,,,,,,,,,,,,,,,,,,,,,,,,,,,,,,,,,,,,,,,,,,,,,,,,,,,,,,,,,,,1,0.8451291000237688,599.4713087000418,None,ScrollDown,정답입니다,599.4713087000418,None,599.4713087000418,None,599.4713087000418,None,599.4713087000418,None,600.2328189000254,None,600.2328189000254,600.7327779000625,,,,,,,,,,,,,,,,203,2023-04-26_17h32.42.219,FishGame,2022.1.1,59.97174133768153,
,9,넌 정겨워,1,Orange,A,5.791666666666667,5.666666666666667,ScrollDown,ScrollUp,Orange.png,4,Positive,Congruent,0,0,0,0,,,,,,,,,,,,,,,,,,,,,,,,,0,8,8,8,,,,,,,,,,,,,,,,,,,,,,,,,,,,,,,,,,,,,,,,,,,,,,,,,,,,,,,,,,,,,,,,,,,,,,,,,1,0.8295075000496581,601.3407268000301,None,ScrollDown,정답입니다,601.3407268000301,None,601.3407268000301,None,601.3407268000301,None,601.3407268000301,None,602.0806648000143,None,602.0806648000143,602.5826813000022,,,,,,,,,,,,,,,,203,2023-04-26_17h32.42.219,FishGame,2022.1.1,59.97174133768153,
,10,나를 데려가줘,6,Green,B,0,0,ScrollDown,ScrollUp,Green.png,4,NonTarget,NonTarget,0,0,0,0,,,,,,,,,,,,,,,,,,,,,,,,,0,9,9,9,,,,,,,,,,,,,,,,,,,,,,,,,,,,,,,,,,,,,,,,,,,,,,,,,,,,,,,,,,,,,,,,,,,,,,,,,1,0.9295600999612361,603.1817635000916,None,ScrollDown,정답입니다,603.1817635000916,None,603.1817635000916,None,603.1817635000916,None,603.1817635000916,None,604.0327403000556,None,604.0327403000556,604.5326742000179,,,,,,,,,,,,,,,,203,2023-04-26_17h32.42.219,FishGame,2022.1.1,59.97174133768153,
,11,넌 체제순응적이야,4,Green,B,3,3.6,ScrollUp,ScrollDown,Green.png,4,Negative,Congruent,0,0,0,0,,,,,,,,,,,,,,,,,,,,,,,,,0,10,10,10,,,,,,,,,,,,,,,,,,,,,,,,,,,,,,,,,,,,,,,,,,,,,,,,,,,,,,,,,,,,,,,,,,,,,,,,,1.9413580397764842,0.8483076000120491,605.1401379000163,None,ScrollUp,정답입니다,605.1401379000163,None,605.1401379000163,None,605.1401379000163,None,605.1401379000163,None,605.8993935000617,None,605.8993935000617,606.3993890000274,,,,,,,,,,,,,,,,203,2023-04-26_17h32.42.219,FishGame,2022.1.1,59.97174133768153,
,12,나를 보내줘,6,Orange,A,0,0,ScrollUp,ScrollDown,Orange.png,4,NonTarget,NonTarget,0,0,0,0,,,,,,,,,,,,,,,,,,,,,,,,,0,11,11,11,,,,,,,,,,,,,,,,,,,,,,,,,,,,,,,,,,,,,,,,,,,,,,,,,,,,,,,,,,,,,,,,,,,,,,,,,1.9228395223617554,0.8796771999914199,607.0200386000797,None,ScrollUp,정답입니다,607.0200386000797,None,607.0200386000797,None,607.0200386000797,None,607.0200386000797,None,607.8158857000526,None,607.8158857000526,608.3159119000193,,,,,,,,,,,,,,,,203,2023-04-26_17h32.42.219,FishGame,2022.1.1,59.97174133768153,
,13,넌 박식해,2,Orange,A,5.625,3.933333333333333,ScrollDown,ScrollUp,Orange.png,4,Positive,Congruent,0,0,0,0,,,,,,,,,,,,,,,,,,,,,,,,,0,12,12,12,,,,,,,,,,,,,,,,,,,,,,,,,,,,,,,,,,,,,,,,,,,,,,,,,,,,,,,,,,,,,,,,,,,,,,,,,1,0.881803399999626,608.9203832000494,None,ScrollDown,정답입니다,608.9203832000494,None,608.9203832000494,None,608.9203832000494,None,608.9203832000494,None,609.7159336000914,None,609.7159336000914,610.2159191999817,,,,,,,,,,,,,,,,203,2023-04-26_17h32.42.219,FishGame,2022.1.1,59.97174133768153,
,14,나를 보내줘,6,Orange,A,0,0,ScrollUp,ScrollDown,Orange.png,4,NonTarget,NonTarget,0,0,0,0,,,,,,,,,,,,,,,,,,,,,,,,,0,13,13,13,,,,,,,,,,,,,,,,,,,,,,,,,,,,,,,,,,,,,,,,,,,,,,,,,,,,,,,,,,,,,,,,,,,,,,,,,1.9259259502092998,0.8628962999209762,610.8185700000031,None,ScrollUp,정답입니다,610.8185700000031,None,610.8185700000031,None,610.8185700000031,None,610.8185700000031,None,611.5993817000417,None,611.5993817000417,612.0991828000406,,,,,,,,,,,,,,,,203,2023-04-26_17h32.42.219,FishGame,2022.1.1,59.97174133768153,
,15,넌 침착해,1,Green,B,5.458333333333333,5.566666666666666,ScrollUp,ScrollDown,Green.png,4,Positive,Incongruent,0,0,0,0,,,,,,,,,,,,,,,,,,,,,,,,,0,14,14,14,,,,,,,,,,,,,,,,,,,,,,,,,,,,,,,,,,,,,,,,,,,,,,,,,,,,,,,,,,,,,,,,,,,,,,,,,1.9876543084780376,0.796265900018625,612.7050144000677,None,ScrollUp,정답입니다,612.7050144000677,None,612.7050144000677,None,612.7050144000677,None,612.7050144000677,None,613.4158583000535,None,613.4158583000535,613.9158632000908,,,,,,,,,,,,,,,,203,2023-04-26_17h32.42.219,FishGame,2022.1.1,59.97174133768153,
,16,나를 데려가줘,6,Green,B,0,0,ScrollDown,ScrollUp,Green.png,4,NonTarget,NonTarget,0,0,0,0,,,,,,,,,,,,,,,,,,,,,,,,,0,15,15,15,,,,,,,,,,,,,,,,,,,,,,,,,,,,,,,,,,,,,,,,,,,,,,,,,,,,,,,,,,,,,,,,,,,,,,,,,1,0.8652314000064507,614.5165214000735,None,ScrollDown,정답입니다,614.5165214000735,None,614.5165214000735,None,614.5165214000735,None,614.5165214000735,None,615.2992241000757,None,615.2992241000757,615.7991663999856,,,,,,,,,,,,,,,,203,2023-04-26_17h32.42.219,FishGame,2022.1.1,59.97174133768153,
,17,넌 행복해,1,Orange,A,6.416666666666666,6.166666666666667,ScrollDown,ScrollUp,Orange.png,4,Positive,Congruent,0,0,0,0,,,,,,,,,,,,,,,,,,,,,,,,,0,16,16,16,,,,,,,,,,,,,,,,,,,,,,,,,,,,,,,,,,,,,,,,,,,,,,,,,,,,,,,,,,,,,,,,,,,,,,,,,1,0.8484696999657899,616.4135283000069,None,ScrollDown,정답입니다,616.4135283000069,None,616.4135283000069,None,616.4135283000069,None,616.4135283000069,None,617.1637309000362,None,617.1637309000362,617.6657240000786,,,,,,,,,,,,,,,,203,2023-04-26_17h32.42.219,FishGame,2022.1.1,59.97174133768153,
,18,넌 겸손해,2,Green,B,5.791666666666667,4.766666666666667,ScrollUp,ScrollDown,Green.png,4,Positive,Incongruent,0,0,0,0,,,,,,,,,,,,,,,,,,,,,,,,,0,17,17,17,,,,,,,,,,,,,,,,,,,,,,,,,,,,,,,,,,,,,,,,,,,,,,,,,,,,,,,,,,,,,,,,,,,,,,,,,1.9351851840813954,0.8128941000904888,618.271696300013,None,ScrollUp,정답입니다,618.271696300013,None,618.271696300013,None,618.271696300013,None,618.271696300013,None,618.9991676000645,None,618.9991676000645,619.5026466000127,,,,,,,,,,,,,,,,203,2023-04-26_17h32.42.219,FishGame,2022.1.1,59.97174133768153,
,19,나를 보내줘,6,Orange,A,0,0,ScrollUp,ScrollDown,Orange.png,4,NonTarget,NonTarget,0,0,0,0,,,,,,,,,,,,,,,,,,,,,,,,,0,18,18,18,,,,,,,,,,,,,,,,,,,,,,,,,,,,,,,,,,,,,,,,,,,,,,,,,,,,,,,,,,,,,,,,,,,,,,,,,2,0.89645440003369,620.1015124000842,None,ScrollUp,정답입니다,620.1015124000842,None,620.1015124000842,None,620.1015124000842,None,620.1015124000842,None,620.9156362999929,None,620.9156362999929,621.4156684000045,,,,,,,,,,,,,,,,203,2023-04-26_17h32.42.219,FishGame,2022.1.1,59.97174133768153,
,20,넌 의심없어,3,Orange,A,4.166666666666667,4.6,ScrollDown,ScrollUp,Orange.png,4,Neutral,Neutral,0,0,0,0,,,,,,,,,,,,,,,,,,,,,,,,,0,19,19,19,,,,,,,,,,,,,,,,,,,,,,,,,,,,,,,,,,,,,,,,,,,,,,,,,,,,,,,,,,,,,,,,,,,,,,,,,1,0.8795513999648392,622.020630300045,None,ScrollDown,정답입니다,622.020630300045,None,622.020630300045,None,622.020630300045,None,622.020630300045,None,622.8136462999973,None,622.8136462999973,623.3156672000187,,,,,,,,,,,,,,,,203,2023-04-26_17h32.42.219,FishGame,2022.1.1,59.97174133768153,
,21,넌 시시해,4,Orange,A,2.666666666666667,2.966666666666667,ScrollDown,ScrollUp,Orange.png,4,Negative,Incongruent,0,0,0,0,,,,,,,,,,,,,,,,,,,,,,,,,0,20,20,20,,,,,,,,,,,,,,,,,,,,,,,,,,,,,,,,,,,,,,,,,,,,,,,,,,,,,,,,,,,,,,,,,,,,,,,,,1,0.7461169000016525,623.9168195000384,None,ScrollDown,정답입니다,623.9168195000384,None,623.9168195000384,None,623.9168195000384,None,623.9168195000384,None,624.5822186000878,None,624.5822186000878,625.0822268000338,,,,,,,,,,,,,,,,203,2023-04-26_17h32.42.219,FishGame,2022.1.1,59.97174133768153,
,22,나를 데려가줘,6,Green,B,0,0,ScrollDown,ScrollUp,Green.png,4,NonTarget,NonTarget,0,0,0,0,,,,,,,,,,,,,,,,,,,,,,,,,0,21,21,21,,,,,,,,,,,,,,,,,,,,,,,,,,,,,,,,,,,,,,,,,,,,,,,,,,,,,,,,,,,,,,,,,,,,,,,,,1,0.8631239000242203,625.6855727999937,None,ScrollDown,정답입니다,625.6855727999937,None,625.6855727999937,None,625.6855727999937,None,625.6855727999937,None,626.4655797000742,None,626.4655797000742,626.9635280000512,,,,,,,,,,,,,,,,203,2023-04-26_17h32.42.219,FishGame,2022.1.1,59.97174133768153,
,23,넌 무정해,5,Orange,A,2.5,2.2,ScrollDown,ScrollUp,Orange.png,4,Negative,Incongruent,0,0,0,0,,,,,,,,,,,,,,,,,,,,,,,,,0,22,22,22,,,,,,,,,,,,,,,,,,,,,,,,,,,,,,,,,,,,,,,,,,,,,,,,,,,,,,,,,,,,,,,,,,,,,,,,,1,0.8316241999855265,627.5704591000685,None,ScrollDown,정답입니다,627.5704591000685,None,627.5704591000685,None,627.5704591000685,None,627.5704591000685,None,628.3156467999797,None,628.3156467999797,628.8155701999785,,,,,,,,,,,,,,,,203,2023-04-26_17h32.42.219,FishGame,2022.1.1,59.97174133768153,
,24,넌 긍정적이야,1,Green,B,6.041666666666667,6.066666666666666,ScrollUp,ScrollDown,Green.png,4,Positive,Incongruent,0,0,0,0,,,,,,,,,,,,,,,,,,,,,,,,,0,23,23,23,,,,,,,,,,,,,,,,,,,,,,,,,,,,,,,,,,,,,,,,,,,,,,,,,,,,,,,,,,,,,,,,,,,,,,,,,2,0.9260396000463516,629.4277006000048,None,ScrollUp,정답입니다,629.4277006000048,None,629.4277006000048,None,629.4277006000048,None,629.4277006000048,None,630.2632187000709,None,630.2632187000709,630.7631762999808,,,,,,,,,,,,,,,,203,2023-04-26_17h32.42.219,FishGame,2022.1.1,59.97174133768153,
,25,나를 보내줘,6,Orange,A,0,0,ScrollUp,ScrollDown,Orange.png,4,NonTarget,NonTarget,0,0,0,0,,,,,,,,,,,,,,,,,,,,,,,,,0,24,24,24,,,,,,,,,,,,,,,,,,,,,,,,,,,,,,,,,,,,,,,,,,,,,,,,,,,,,,,,,,,,,,,,,,,,,,,,,1.9212963084379833,0.848242099978961,631.3658011000371,None,ScrollUp,정답입니다,631.3658011000371,None,631.3658011000371,None,631.3658011000371,None,631.3658011000371,None,632.1298841000535,None,632.1298841000535,632.6322525000433,,,,,,,,,,,,,,,,203,2023-04-26_17h32.42.219,FishGame,2022.1.1,59.97174133768153,
,26,넌 시기심이 많아,5,Green,B,2.458333333333333,2.233333333333333,ScrollUp,ScrollDown,Green.png,4,Negative,Congruent,0,0,0,0,,,,,,,,,,,,,,,,,,,,,,,,,0,25,25,25,,,,,,,,,,,,,,,,,,,,,,,,,,,,,,,,,,,,,,,,,,,,,,,,,,,,,,,,,,,,,,,,,,,,,,,,,1.9506172736485798,0.9150927000446245,633.2358578999992,None,ScrollUp,정답입니다,633.2358578999992,None,633.2358578999992,None,633.2358578999992,None,633.2358578999992,None,634.0656499000033,None,634.0656499000033,634.5689529000083,,,,,,,,,,,,,,,,203,2023-04-26_17h32.42.219,FishGame,2022.1.1,59.97174133768153,
,27,넌 탁월해,2,Orange,A,5.708333333333334,4.5,ScrollDown,ScrollUp,Orange.png,4,Positive,Congruent,0,0,0,0,,,,,,,,,,,,,,,,,,,,,,,,,0,26,26,26,,,,,,,,,,,,,,,,,,,,,,,,,,,,,,,,,,,,,,,,,,,,,,,,,,,,,,,,,,,,,,,,,,,,,,,,,1,0.8481349999783561,635.1715127000352,None,ScrollDown,정답입니다,635.1715127000352,None,635.1715127000352,None,635.1715127000352,None,635.1715127000352,None,635.9300321000628,None,635.9300321000628,636.4320446000202,,,,,,,,,,,,,,,,203,2023-04-26_17h32.42.219,FishGame,2022.1.1,59.97174133768153,
,28,나를 데려가줘,6,Green,B,0,0,ScrollDown,ScrollUp,Green.png,4,NonTarget,NonTarget,0,0,0,0,,,,,,,,,,,,,,,,,,,,,,,,,0,27,27,27,,,,,,,,,,,,,,,,,,,,,,,,,,,,,,,,,,,,,,,,,,,,,,,,,,,,,,,,,,,,,,,,,,,,,,,,,1,0.893244200036861,637.0437937000534,None,ScrollDown,정답입니다,637.0437937000534,None,637.0437937000534,None,637.0437937000534,None,637.0437937000534,None,637.8463648000034,None,637.8463648000034,638.3463608000893,,,,,,,,,,,,,,,,203,2023-04-26_17h32.42.219,FishGame,2022.1.1,59.97174133768153,
,29,넌 조용해,3,Green,B,4.333333333333333,4.166666666666667,ScrollUp,ScrollDown,Green.png,4,Neutral,Neutral,0,0,0,0,,,,,,,,,,,,,,,,,,,,,,,,,0,28,28,28,,,,,,,,,,,,,,,,,,,,,,,,,,,,,,,,,,,,,,,,,,,,,,,,,,,,,,,,,,,,,,,,,,,,,,,,,2,0.815030499943532,638.9484447999857,None,ScrollUp,정답입니다,638.9484447999857,None,638.9484447999857,None,638.9484447999857,None,638.9484447999857,None,639.6797410000581,None,639.6797410000581,640.1820008000359,,,,,,,,,,,,,,,,203,2023-04-26_17h32.42.219,FishGame,2022.1.1,59.97174133768153,
,30,넌 다정해,1,Orange,A,5.833333333333334,5.7,ScrollDown,ScrollUp,Orange.png,4,Positive,Congruent,0,0,0,0,,,,,,,,,,,,,,,,,,,,,,,,,0,29,29,29,,,,,,,,,,,,,,,,,,,,,,,,,,,,,,,,,,,,,,,,,,,,,,,,,,,,,,,,,,,,,,,,,,,,,,,,,1,0.7978693000040948,640.7876190000679,None,ScrollDown,정답입니다,640.7876190000679,None,640.7876190000679,None,640.7876190000679,None,640.7876190000679,None,641.498823300004,None,641.498823300004,641.9987358000362,,,,,,,,,,,,,,,,203,2023-04-26_17h32.42.219,FishGame,2022.1.1,59.97174133768153,
,31,넌 능력있어,2,Green,B,6.166666666666666,4.6,ScrollUp,ScrollDown,Green.png,4,Positive,Incongruent,0,0,0,0,,,,,,,,,,,,,,,,,,,,,,,,,0,30,30,30,,,,,,,,,,,,,,,,,,,,,,,,,,,,,,,,,,,,,,,,,,,,,,,,,,,,,,,,,,,,,,,,,,,,,,,,,1.9783950746059418,0.7952019000658765,642.6052769999951,None,ScrollUp,정답입니다,642.6052769999951,None,642.6052769999951,None,642.6052769999951,None,642.6052769999951,None,643.3153814000543,None,643.3153814000543,643.8152822999982,,,,,,,,,,,,,,,,203,2023-04-26_17h32.42.219,FishGame,2022.1.1,59.97174133768153,
,32,넌 불쾌해,5,Orange,A,2.125,1.933333333333333,ScrollDown,ScrollUp,Orange.png,4,Negative,Incongruent,0,0,0,0,,,,,,,,,,,,,,,,,,,,,,,,,0,31,31,31,,,,,,,,,,,,,,,,,,,,,,,,,,,,,,,,,,,,,,,,,,,,,,,,,,,,,,,,,,,,,,,,,,,,,,,,,1,0.830618100007996,644.425453200005,None,ScrollDown,정답입니다,644.425453200005,None,644.425453200005,None,644.425453200005,None,644.425453200005,None,645.1652598000364,None,645.1652598000364,645.6652287000325,,,,,,,,,,,,,,,,203,2023-04-26_17h32.42.219,FishGame,2022.1.1,59.97174133768153,
,33,나를 데려가줘,6,Green,B,0,0,ScrollDown,ScrollUp,Green.png,4,NonTarget,NonTarget,0,0,0,0,,,,,,,,,,,,,,,,,,,,,,,,,0,32,32,32,,,,,,,,,,,,,,,,,,,,,,,,,,,,,,,,,,,,,,,,,,,,,,,,,,,,,,,,,,,,,,,,,,,,,,,,,1,0.9130008000647649,646.2677196000004,None,ScrollDown,정답입니다,646.2677196000004,None,646.2677196000004,None,646.2677196000004,None,646.2677196000004,None,647.0985985000152,None,647.0985985000152,647.5984318000264,,,,,,,,,,,,,,,,203,2023-04-26_17h32.42.219,FishGame,2022.1.1,59.97174133768153,
,34,넌 유순해,3,Orange,A,4.458333333333333,5,ScrollDown,ScrollUp,Orange.png,4,Neutral,Neutral,0,0,0,0,,,,,,,,,,,,,,,,,,,,,,,,,0,33,33,33,,,,,,,,,,,,,,,,,,,,,,,,,,,,,,,,,,,,,,,,,,,,,,,,,,,,,,,,,,,,,,,,,,,,,,,,,1,0.7983807000564411,648.2002256000414,None,ScrollDown,정답입니다,648.2002256000414,None,648.2002256000414,None,648.2002256000414,None,648.2002256000414,None,648.9150919000385,None,648.9150919000385,649.4151103000622,,,,,,,,,,,,,,,,203,2023-04-26_17h32.42.219,FishGame,2022.1.1,59.97174133768153,
,35,넌 근심스러워,4,Green,B,2.708333333333333,3.133333333333333,ScrollUp,ScrollDown,Green.png,4,Negative,Congruent,0,0,0,0,,,,,,,,,,,,,,,,,,,,,,,,,0,34,34,34,,,,,,,,,,,,,,,,,,,,,,,,,,,,,,,,,,,,,,,,,,,,,,,,,,,,,,,,,,,,,,,,,,,,,,,,,1.9660493632157643,1.0485785000491887,650.0184722000267,None,ScrollUp,정답입니다,650.0184722000267,None,650.0184722000267,None,650.0184722000267,None,650.0184722000267,None,650.9818848000141,None,650.9818848000141,651.4818093000213,,,,,,,,,,,,,,,,203,2023-04-26_17h32.42.219,FishGame,2022.1.1,59.97174133768153,
,36,넌 세련되었어,2,Orange,A,5.5,4.6,ScrollDown,ScrollUp,Orange.png,4,Positive,Congruent,0,0,0,0,,,,,,,,,,,,,,,,,,,,,,,,,0,35,35,35,,,,,,,,,,,,,,,,,,,,,,,,,,,,,,,,,,,,,,,,,,,,,,,,,,,,,,,,,,,,,,,,,,,,,,,,,1,0.7797988000093028,652.0933260000311,None,ScrollDown,정답입니다,652.0933260000311,None,652.0933260000311,None,652.0933260000311,None,652.0933260000311,None,652.781748300069,None,652.781748300069,653.2816703000572,,,,,,,,,,,,,,,,203,2023-04-26_17h32.42.219,FishGame,2022.1.1,59.97174133768153,
,37,나를 보내줘,6,Orange,A,0,0,ScrollUp,ScrollDown,Orange.png,4,NonTarget,NonTarget,0,0,0,0,,,,,,,,,,,,,,,,,,,,,,,,,0,36,36,36,,,,,,,,,,,,,,,,,,,,,,,,,,,,,,,,,,,,,,,,,,,,,,,,,,,,,,,,,,,,,,,,,,,,,,,,,1.9845678806304932,0.8463431999552995,653.8829600000754,None,ScrollUp,정답입니다,653.8829600000754,None,653.8829600000754,None,653.8829600000754,None,653.8829600000754,None,654.648439600016,None,654.648439600016,655.1483157000039,,,,,,,,,,,,,,,,203,2023-04-26_17h32.42.219,FishGame,2022.1.1,59.97174133768153,
,38,넌 확고해,3,Green,B,4.708333333333334,4.566666666666666,ScrollUp,ScrollDown,Green.png,4,Neutral,Neutral,0,0,0,0,,,,,,,,,,,,,,,,,,,,,,,,,0,37,37,37,,,,,,,,,,,,,,,,,,,,,,,,,,,,,,,,,,,,,,,,,,,,,,,,,,,,,,,,,,,,,,,,,,,,,,,,,1.9783950746059418,0.8791415999876335,655.7510059000924,None,ScrollUp,정답입니다,655.7510059000924,None,655.7510059000924,None,655.7510059000924,None,655.7510059000924,None,656.5460330999922,None,656.5460330999922,657.0459845000878,,,,,,,,,,,,,,,,203,2023-04-26_17h32.42.219,FishGame,2022.1.1,59.97174133768153,
,39,넌 이해심이 많아,1,Green,B,6.041666666666668,5.533333333333333,ScrollUp,ScrollDown,Green.png,4,Positive,Incongruent,0,0,0,0,,,,,,,,,,,,,,,,,,,,,,,,,0,38,38,38,,,,,,,,,,,,,,,,,,,,,,,,,,,,,,,,,,,,,,,,,,,,,,,,,,,,,,,,,,,,,,,,,,,,,,,,,1.8811728457609813,0.7647525999927893,657.6473917000694,None,ScrollUp,정답입니다,657.6473917000694,None,657.6473917000694,None,657.6473917000694,None,657.6473917000694,None,658.329433200066,None,658.329433200066,658.8317569000646,,,,,,,,,,,,,,,,203,2023-04-26_17h32.42.219,FishGame,2022.1.1,59.97174133768153,
,40,나를 보내줘,6,Orange,A,0,0,ScrollUp,ScrollDown,Orange.png,4,NonTarget,NonTarget,0,0,0,0,,,,,,,,,,,,,,,,,,,,,,,,,0,39,39,39,,,,,,,,,,,,,,,,,,,,,,,,,,,,,,,,,,,,,,,,,,,,,,,,,,,,,,,,,,,,,,,,,,,,,,,,,1.8503086417913437,0.8818142000818625,659.4349657000275,None,ScrollUp,정답입니다,659.4349657000275,None,659.4349657000275,None,659.4349657000275,None,659.4349657000275,None,660.2317593999906,None,660.2317593999906,660.7317034000298,,,,,,,,,,,,,,,,203,2023-04-26_17h32.42.219,FishGame,2022.1.1,59.97174133768153,
,41,넌 거칠어,4,Orange,A,2.625,3.033333333333333,ScrollDown,ScrollUp,Orange.png,4,Negative,Incongruent,0,0,0,0,,,,,,,,,,,,,,,,,,,,,,,,,0,40,40,40,,,,,,,,,,,,,,,,,,,,,,,,,,,,,,,,,,,,,,,,,,,,,,,,,,,,,,,,,,,,,,,,,,,,,,,,,1,0.8267395999282598,661.3462544999784,None,ScrollDown,정답입니다,661.3462544999784,None,661.3462544999784,None,661.3462544999784,None,661.3462544999784,None,662.081603800063,None,662.081603800063,662.5815459000878,,,,,,,,,,,,,,,,203,2023-04-26_17h32.42.219,FishGame,2022.1.1,59.97174133768153,
,42,넌 변덕맞아,5,Green,B,2.75,2.166666666666667,ScrollUp,ScrollDown,Green.png,4,Negative,Congruent,0,0,0,0,,,,,,,,,,,,,,,,,,,,,,,,,0,41,41,41,,,,,,,,,,,,,,,,,,,,,,,,,,,,,,,,,,,,,,,,,,,,,,,,,,,,,,,,,,,,,,,,,,,,,,,,,1.9552469154198964,0.826290600001812,663.1931230000919,None,ScrollUp,정답입니다,663.1931230000919,None,663.1931230000919,None,663.1931230000919,None,663.1931230000919,None,663.9291493999772,None,663.9291493999772,664.4291698000161,,,,,,,,,,,,,,,,203,2023-04-26_17h32.42.219,FishGame,2022.1.1,59.97174133768153,
,43,나를 데려가줘,6,Green,B,0,0,ScrollDown,ScrollUp,Green.png,4,NonTarget,NonTarget,0,0,0,0,,,,,,,,,,,,,,,,,,,,,,,,,0,42,42,42,,,,,,,,,,,,,,,,,,,,,,,,,,,,,,,,,,,,,,,,,,,,,,,,,,,,,,,,,,,,,,,,,,,,,,,,,1,1.031585599994287,665.027768000029,None,ScrollDown,정답입니다,665.027768000029,None,665.027768000029,None,665.027768000029,None,665.027768000029,None,665.9791976000415,None,665.9791976000415,666.481560699991,,,,,,,,,,,,,,,,203,2023-04-26_17h32.42.219,FishGame,2022.1.1,59.97174133768153,
,44,넌 외로워,4,Green,B,2.833333333333333,3.3,ScrollUp,ScrollDown,Green.png,4,Negative,Congruent,0,0,0,0,,,,,,,,,,,,,,,,,,,,,,,,,0,43,43,43,,,,,,,,,,,,,,,,,,,,,,,,,,,,,,,,,,,,,,,,,,,,,,,,,,,,,,,,,,,,,,,,,,,,,,,,,1.879629631837209,0.7651549000293016,667.0872339999769,None,ScrollUp,정답입니다,667.0872339999769,None,667.0872339999769,None,667.0872339999769,None,667.0872339999769,None,667.7650103999767,None,667.7650103999767,668.2649205999915,,,,,,,,,,,,,,,,203,2023-04-26_17h32.42.219,FishGame,2022.1.1,59.97174133768153,
,1,넌 불평스러워,5,Orange,A,2.25,2.066666666666667,ScrollDown,ScrollUp,Orange.png,5,Negative,Incongruent,0,0,0,0,,,,,,,,,,,,,,,,,,,,,,,,,,,,,0,0,0,0,,,,,,,,,,,,,,,,,,,,,,,,,,,,701.5953333000652,703.0976163999876,703.1309434000868,704.0808721000794,704.1309235000517,705.0808782000095,705.0808782000095,None,,,,,,,,,,,,,,,,,,,,,,,,,,,,,,,,,,1,0.9241507999831811,706.1706609000685,None,ScrollDown,정답입니다,706.1706609000685,None,706.1706609000685,None,706.1706609000685,None,706.1706609000685,None,707.0123564000241,None,707.0123564000241,707.5140398000367,668.764737599995,None,668.764737599995,None,0.049074072,-0.10185185,1,0,0,0.016310490085743368,None,698.7640573000535,None,,,203,2023-04-26_17h32.42.219,FishGame,2022.1.1,59.97174133768153,
,2,나를 보내줘,6,Orange,A,0,0,ScrollUp,ScrollDown,Orange.png,5,NonTarget,NonTarget,0,0,0,0,,,,,,,,,,,,,,,,,,,,,,,,,,,,,0,1,1,1,,,,,,,,,,,,,,,,,,,,,,,,,,,,,,,,,,,,,,,,,,,,,,,,,,,,,,,,,,,,,,,,,,,,,1.9845678806304932,0.8630385000724345,708.1157439000672,None,ScrollUp,정답입니다,708.1157439000672,None,708.1157439000672,None,708.1157439000672,None,708.1157439000672,None,708.897231400013,None,708.897231400013,709.3972217000555,,,,,,,,,,,,,,,,203,2023-04-26_17h32.42.219,FishGame,2022.1.1,59.97174133768153,
,3,넌 다재다능해,2,Green,B,6.208333333333333,4.5,ScrollUp,ScrollDown,Green.png,5,Positive,Incongruent,0,0,0,0,,,,,,,,,,,,,,,,,,,,,,,,,,,,,0,2,2,2,,,,,,,,,,,,,,,,,,,,,,,,,,,,,,,,,,,,,,,,,,,,,,,,,,,,,,,,,,,,,,,,,,,,,1.9290123283863068,0.7796334999147803,709.999867400038,None,ScrollUp,정답입니다,709.999867400038,None,709.999867400038,None,709.999867400038,None,709.999867400038,None,710.6972749000415,None,710.6972749000415,711.1972481000703,,,,,,,,,,,,,,,,203,2023-04-26_17h32.42.219,FishGame,2022.1.1,59.97174133768153,
,4,넌 과감해,3,Orange,A,4.833333333333334,4.6,ScrollDown,ScrollUp,Orange.png,5,Neutral,Neutral,0,0,0,0,,,,,,,,,,,,,,,,,,,,,,,,,,,,,0,3,3,3,,,,,,,,,,,,,,,,,,,,,,,,,,,,,,,,,,,,,,,,,,,,,,,,,,,,,,,,,,,,,,,,,,,,,1.0432098706563313,0.8091926999622956,711.7986044000136,None,ScrollDown,정답입니다,711.7986044000136,None,711.7986044000136,None,711.7986044000136,None,711.7986044000136,None,712.5236924000783,None,712.5236924000783,713.0282163000666,,,,,,,,,,,,,,,,203,2023-04-26_17h32.42.219,FishGame,2022.1.1,59.97174133768153,
,5,넌 고분고분해,3,Green,B,3.75,4.033333333333333,ScrollUp,ScrollDown,Green.png,5,Neutral,Neutral,0,0,0,0,,,,,,,,,,,,,,,,,,,,,,,,,,,,,0,4,4,4,,,,,,,,,,,,,,,,,,,,,,,,,,,,,,,,,,,,,,,,,,,,,,,,,,,,,,,,,,,,,,,,,,,,,1.9259259502092998,0.7984160999767482,713.6290760000702,None,ScrollUp,정답입니다,713.6290760000702,None,713.6290760000702,None,713.6290760000702,None,713.6290760000702,None,714.3448510000017,None,714.3448510000017,714.8449060000712,,,,,,,,,,,,,,,,203,2023-04-26_17h32.42.219,FishGame,2022.1.1,59.97174133768153,
,6,나를 보내줘,6,Orange,A,0,0,ScrollUp,ScrollDown,Orange.png,5,NonTarget,NonTarget,0,0,0,0,,,,,,,,,,,,,,,,,,,,,,,,,,,,,0,5,5,5,,,,,,,,,,,,,,,,,,,,,,,,,,,,,,,,,,,,,,,,,,,,,,,,,,,,,,,,,,,,,,,,,,,,,1.8919753183921177,0.7982853999128565,715.4523690000642,None,ScrollUp,정답입니다,715.4523690000642,None,715.4523690000642,None,715.4523690000642,None,715.4523690000642,None,716.164012900088,None,716.164012900088,716.6639371999772,,,,,,,,,,,,,,,,203,2023-04-26_17h32.42.219,FishGame,2022.1.1,59.97174133768153,
,7,넌 잘 잊어,4,Orange,A,3,3.7,ScrollDown,ScrollUp,Orange.png,5,Negative,Incongruent,0,0,0,0,,,,,,,,,,,,,,,,,,,,,,,,,,,,,0,6,6,6,,,,,,,,,,,,,,,,,,,,,,,,,,,,,,,,,,,,,,,,,,,,,,,,,,,,,,,,,,,,,,,,,,,,,1,0.7622453001094982,717.2772528000642,None,ScrollDown,정답입니다,717.2772528000642,None,717.2772528000642,None,717.2772528000642,None,717.2772528000642,None,717.9448104000185,None,717.9448104000185,718.4447673000395,,,,,,,,,,,,,,,,203,2023-04-26_17h32.42.219,FishGame,2022.1.1,59.97174133768153,
,8,넌 탐구심이없어,4,Green,B,2.833333333333333,3.066666666666667,ScrollUp,ScrollDown,Green.png,5,Negative,Congruent,0,0,0,0,,,,,,,,,,,,,,,,,,,,,,,,,,,,,0,7,7,7,,,,,,,,,,,,,,,,,,,,,,,,,,,,,,,,,,,,,,,,,,,,,,,,,,,,,,,,,,,,,,,,,,,,,1.7608024577299755,0.8651978999841958,719.0502760000527,None,ScrollUp,정답입니다,719.0502760000527,None,719.0502760000527,None,719.0502760000527,None,719.0502760000527,None,719.8281569000101,None,719.8281569000101,720.330552999978,,,,,,,,,,,,,,,,203,2023-04-26_17h32.42.219,FishGame,2022.1.1,59.97174133768153,
,9,나를 데려가줘,6,Green,B,0,0,ScrollDown,ScrollUp,Green.png,5,NonTarget,NonTarget,0,0,0,0,,,,,,,,,,,,,,,,,,,,,,,,,,,,,0,8,8,8,,,,,,,,,,,,,,,,,,,,,,,,,,,,,,,,,,,,,,,,,,,,,,,,,,,,,,,,,,,,,,,,,,,,,1.09413580596447,0.8982151000527665,720.94139120006,None,ScrollDown,정답입니다,720.94139120006,None,720.94139120006,None,720.94139120006,None,720.94139120006,None,721.7472184000071,None,721.7472184000071,722.2502760000061,,,,,,,,,,,,,,,,203,2023-04-26_17h32.42.219,FishGame,2022.1.1,59.97174133768153,
,10,넌 참되어,2,Orange,A,6.041666666666664,4.733333333333333,ScrollDown,ScrollUp,Orange.png,5,Positive,Congruent,0,0,0,0,,,,,,,,,,,,,,,,,,,,,,,,,,,,,0,9,9,9,,,,,,,,,,,,,,,,,,,,,,,,,,,,,,,,,,,,,,,,,,,,,,,,,,,,,,,,,,,,,,,,,,,,,1,0.8460501000517979,722.8638189000776,None,ScrollDown,정답입니다,722.8638189000776,None,722.8638189000776,None,722.8638189000776,None,722.8638189000776,None,723.6137138000922,None,723.6137138000922,724.1136762000388,,,,,,,,,,,,,,,,203,2023-04-26_17h32.42.219,FishGame,2022.1.1,59.97174133768153,
,11,넌 생기있어,1,Green,B,5.875,5.633333333333334,ScrollUp,ScrollDown,Green.png,5,Positive,Incongruent,0,0,0,0,,,,,,,,,,,,,,,,,,,,,,,,,,,,,0,10,10,10,,,,,,,,,,,,,,,,,,,,,,,,,,,,,,,,,,,,,,,,,,,,,,,,,,,,,,,,,,,,,,,,,,,,,2,0.776608300046064,724.7272773000877,None,ScrollUp,정답입니다,724.7272773000877,None,724.7272773000877,None,724.7272773000877,None,724.7272773000877,None,725.411296700011,None,725.411296700011,725.9112931999844,,,,,,,,,,,,,,,,203,2023-04-26_17h32.42.219,FishGame,2022.1.1,59.97174133768153,
,12,넌 비사교적이야,4,Green,B,2.875,2.9,ScrollUp,ScrollDown,Green.png,5,Negative,Congruent,0,0,0,0,,,,,,,,,,,,,,,,,,,,,,,,,,,,,0,11,11,11,,,,,,,,,,,,,,,,,,,,,,,,,,,,,,,,,,,,,,,,,,,,,,,,,,,,,,,,,,,,,,,,,,,,,1.8456790000200272,0.7813027000520378,726.5091555999825,None,ScrollUp,정답입니다,726.5091555999825,None,726.5091555999825,None,726.5091555999825,None,726.5091555999825,None,727.2113199000014,None,727.2113199000014,727.7137023999821,,,,,,,,,,,,,,,,203,2023-04-26_17h32.42.219,FishGame,2022.1.1,59.97174133768153,
,13,나를 데려가줘,6,Green,B,0,0,ScrollDown,ScrollUp,Green.png,5,NonTarget,NonTarget,0,0,0,0,,,,,,,,,,,,,,,,,,,,,,,,,,,,,0,12,12,12,,,,,,,,,,,,,,,,,,,,,,,,,,,,,,,,,,,,,,,,,,,,,,,,,,,,,,,,,,,,,,,,,,,,,1,0.8982104000169784,728.3153361000586,None,ScrollDown,정답입니다,728.3153361000586,None,728.3153361000586,None,728.3153361000586,None,728.3153361000586,None,729.1304334000451,None,729.1304334000451,729.6303380000172,,,,,,,,,,,,,,,,203,2023-04-26_17h32.42.219,FishGame,2022.1.1,59.97174133768153,
,14,넌 고독해,4,Orange,A,2.916666666666667,3.233333333333333,ScrollDown,ScrollUp,Orange.png,5,Negative,Incongruent,0,0,0,0,,,,,,,,,,,,,,,,,,,,,,,,,,,,,0,13,13,13,,,,,,,,,,,,,,,,,,,,,,,,,,,,,,,,,,,,,,,,,,,,,,,,,,,,,,,,,,,,,,,,,,,,,1,0.7933432999998331,730.2382175000384,None,ScrollDown,정답입니다,730.2382175000384,None,730.2382175000384,None,730.2382175000384,None,730.2382175000384,None,730.9468342000619,None,730.9468342000619,731.4468363000778,,,,,,,,,,,,,,,,203,2023-04-26_17h32.42.219,FishGame,2022.1.1,59.97174133768153,
,15,넌 신경질적이야,5,Green,B,2.375,2.233333333333333,ScrollUp,ScrollDown,Green.png,5,Negative,Congruent,0,0,0,0,,,,,,,,,,,,,,,,,,,,,,,,,,,,,0,14,14,14,,,,,,,,,,,,,,,,,,,,,,,,,,,,,,,,,,,,,,,,,,,,,,,,,,,,,,,,,,,,,,,,,,,,,2,0.8129339999286458,732.0586522000376,None,ScrollUp,정답입니다,732.0586522000376,None,732.0586522000376,None,732.0586522000376,None,732.0586522000376,None,732.7801285000751,None,732.7801285000751,733.2800578000024,,,,,,,,,,,,,,,,203,2023-04-26_17h32.42.219,FishGame,2022.1.1,59.97174133768153,
,16,넌 똑똑해,2,Green,B,5.666666666666667,3.966666666666667,ScrollUp,ScrollDown,Green.png,5,Positive,Incongruent,0,0,0,0,,,,,,,,,,,,,,,,,,,,,,,,,,,,,0,15,15,15,,,,,,,,,,,,,,,,,,,,,,,,,,,,,,,,,,,,,,,,,,,,,,,,,,,,,,,,,,,,,,,,,,,,,1.9799382885297139,0.7631576000712812,733.8847484000726,None,ScrollUp,정답입니다,733.8847484000726,None,733.8847484000726,None,733.8847484000726,None,733.8847484000726,None,734.5635718000121,None,734.5635718000121,735.0634174000006,,,,,,,,,,,,,,,,203,2023-04-26_17h32.42.219,FishGame,2022.1.1,59.97174133768153,
,17,나를 보내줘,6,Orange,A,0,0,ScrollUp,ScrollDown,Orange.png,5,NonTarget,NonTarget,0,0,0,0,,,,,,,,,,,,,,,,,,,,,,,,,,,,,0,16,16,16,,,,,,,,,,,,,,,,,,,,,,,,,,,,,,,,,,,,,,,,,,,,,,,,,,,,,,,,,,,,,,,,,,,,,1.9228395223617554,0.9499295999994501,735.6648839000845,None,ScrollUp,정답입니다,735.6648839000845,None,735.6648839000845,None,735.6648839000845,None,735.6648839000845,None,736.5301165999845,None,736.5301165999845,737.030072900001,,,,,,,,,,,,,,,,203,2023-04-26_17h32.42.219,FishGame,2022.1.1,59.97174133768153,
,18,넌 협조적이야,1,Orange,A,5.625,5.666666666666667,ScrollDown,ScrollUp,Orange.png,5,Positive,Congruent,0,0,0,0,,,,,,,,,,,,,,,,,,,,,,,,,,,,,0,17,17,17,,,,,,,,,,,,,,,,,,,,,,,,,,,,,,,,,,,,,,,,,,,,,,,,,,,,,,,,,,,,,,,,,,,,,1,0.8767378999618813,737.6366476999829,None,ScrollDown,정답입니다,737.6366476999829,None,737.6366476999829,None,737.6366476999829,None,737.6366476999829,None,738.4300665999763,None,738.4300665999763,738.9299908999819,,,,,,,,,,,,,,,,203,2023-04-26_17h32.42.219,FishGame,2022.1.1,59.97174133768153,
,19,나를 데려가줘,6,Green,B,0,0,ScrollDown,ScrollUp,Green.png,5,NonTarget,NonTarget,0,0,0,0,,,,,,,,,,,,,,,,,,,,,,,,,,,,,0,18,18,18,,,,,,,,,,,,,,,,,,,,,,,,,,,,,,,,,,,,,,,,,,,,,,,,,,,,,,,,,,,,,,,,,,,,,1,1.1096644001081586,739.5417820999864,None,ScrollDown,정답입니다,739.5417820999864,None,739.5417820999864,None,739.5417820999864,None,739.5417820999864,None,740.5610209000297,None,740.5610209000297,741.0609886000166,,,,,,,,,,,,,,,,203,2023-04-26_17h32.42.219,FishGame,2022.1.1,59.97174133768153,
,20,넌 몰인정해,5,Green,B,2.541666666666667,2.066666666666667,ScrollUp,ScrollDown,Green.png,5,Negative,Congruent,0,0,0,0,,,,,,,,,,,,,,,,,,,,,,,,,,,,,0,19,19,19,,,,,,,,,,,,,,,,,,,,,,,,,,,,,,,,,,,,,,,,,,,,,,,,,,,,,,,,,,,,,,,,,,,,,2,0.9007590999826789,741.6636560000479,None,ScrollUp,정답입니다,741.6636560000479,None,741.6636560000479,None,741.6636560000479,None,741.6636560000479,None,742.480201600003,None,742.480201600003,742.980095100007,,,,,,,,,,,,,,,,203,2023-04-26_17h32.42.219,FishGame,2022.1.1,59.97174133768153,
,21,나를 데려가줘,6,Green,B,0,0,ScrollDown,ScrollUp,Green.png,5,NonTarget,NonTarget,0,0,0,0,,,,,,,,,,,,,,,,,,,,,,,,,,,,,0,20,20,20,,,,,,,,,,,,,,,,,,,,,,,,,,,,,,,,,,,,,,,,,,,,,,,,,,,,,,,,,,,,,,,,,,,,,1,0.9722167999716476,743.5812556000892,None,ScrollDown,정답입니다,743.5812556000892,None,743.5812556000892,None,743.5812556000892,None,743.5812556000892,None,744.47315970005,None,744.47315970005,744.9799008000409,,,,,,,,,,,,,,,,203,2023-04-26_17h32.42.219,FishGame,2022.1.1,59.97174133768153,
,22,넌 순진해,3,Green,B,4.125,4.166666666666667,ScrollUp,ScrollDown,Green.png,5,Neutral,Neutral,0,0,0,0,,,,,,,,,,,,,,,,,,,,,,,,,,,,,0,21,21,21,,,,,,,,,,,,,,,,,,,,,,,,,,,,,,,,,,,,,,,,,,,,,,,,,,,,,,,,,,,,,,,,,,,,,1.9274691144625347,0.8656633999198675,745.5822105000261,None,ScrollUp,정답입니다,745.5822105000261,None,745.5822105000261,None,745.5822105000261,None,745.5822105000261,None,746.3632211000659,None,746.3632211000659,746.8632531000767,,,,,,,,,,,,,,,,203,2023-04-26_17h32.42.219,FishGame,2022.1.1,59.97174133768153,
,23,넌 신뢰할만해,1,Orange,A,6.625,5.533333333333333,ScrollDown,ScrollUp,Orange.png,5,Positive,Congruent,0,0,0,0,,,,,,,,,,,,,,,,,,,,,,,,,,,,,0,22,22,22,,,,,,,,,,,,,,,,,,,,,,,,,,,,,,,,,,,,,,,,,,,,,,,,,,,,,,,,,,,,,,,,,,,,,1,0.8291849000379443,747.4751560000004,None,ScrollDown,정답입니다,747.4751560000004,None,747.4751560000004,None,747.4751560000004,None,747.4751560000004,None,748.2108673000475,None,748.2108673000475,748.7108400000725,,,,,,,,,,,,,,,,203,2023-04-26_17h32.42.219,FishGame,2022.1.1,59.97174133768153,
,24,나를 보내줘,6,Orange,A,0,0,ScrollUp,ScrollDown,Orange.png,5,NonTarget,NonTarget,0,0,0,0,,,,,,,,,,,,,,,,,,,,,,,,,,,,,0,23,23,23,,,,,,,,,,,,,,,,,,,,,,,,,,,,,,,,,,,,,,,,,,,,,,,,,,,,,,,,,,,,,,,,,,,,,2,0.9308555000461638,749.3142212000675,None,ScrollUp,정답입니다,749.3142212000675,None,749.3142212000675,None,749.3142212000675,None,749.3142212000675,None,750.1608835000079,None,750.1608835000079,750.6632676000008,,,,,,,,,,,,,,,,203,2023-04-26_17h32.42.219,FishGame,2022.1.1,59.97174133768153,
,25,넌 인색해,5,Orange,A,2.625,2.233333333333333,ScrollDown,ScrollUp,Orange.png,5,Negative,Incongruent,0,0,0,0,,,,,,,,,,,,,,,,,,,,,,,,,,,,,0,24,24,24,,,,,,,,,,,,,,,,,,,,,,,,,,,,,,,,,,,,,,,,,,,,,,,,,,,,,,,,,,,,,,,,,,,,,1,0.8481445999350399,751.267905500019,None,ScrollDown,정답입니다,751.267905500019,None,751.267905500019,None,751.267905500019,None,751.267905500019,None,752.0299004000844,None,752.0299004000844,752.5297332999762,,,,,,,,,,,,,,,,203,2023-04-26_17h32.42.219,FishGame,2022.1.1,59.97174133768153,
