name,TrialNum,Word,WordCategory,FishType,WordList,WordValence,WordReputation,CorrectResp,IncorrectResp,FishTypeFile,Round,WordType,Condition,LoopforOrange.thisRepN,LoopforOrange.thisTrialN,LoopforOrange.thisN,LoopforOrange.thisIndex,LoopForGreen.thisRepN,LoopForGreen.thisTrialN,LoopForGreen.thisN,LoopForGreen.thisIndex,GreenInstLoop.thisRepN,GreenInstLoop.thisTrialN,GreenInstLoop.thisN,GreenInstLoop.thisIndex,GreenPrac.thisRepN,GreenPrac.thisTrialN,GreenPrac.thisN,GreenPrac.thisIndex,trials_2.thisRepN,trials_2.thisTrialN,trials_2.thisN,trials_2.thisIndex,GreenRound1.thisRepN,GreenRound1.thisTrialN,GreenRound1.thisN,GreenRound1.thisIndex,GreenRound2.thisRepN,GreenRound2.thisTrialN,GreenRound2.thisN,GreenRound2.thisIndex,GreenRound3.thisRepN,GreenRound3.thisTrialN,GreenRound3.thisN,GreenRound3.thisIndex,GreenRound4.thisRepN,GreenRound4.thisTrialN,GreenRound4.thisN,GreenRound4.thisIndex,GreenRound5.thisRepN,GreenRound5.thisTrialN,GreenRound5.thisN,GreenRound5.thisIndex,text_2.started,text_2.stopped,text_3.started,text_3.stopped,key_resp.keys,key_resp.rt,key_resp.started,key_resp.stopped,PassI.started,PassI.stopped,PassInst.keys,PassInst.rt,PassInst.started,PassInst.stopped,mouse_2.x,mouse_2.y,mouse_2.leftButton,mouse_2.midButton,mouse_2.rightButton,mouse_2.started,mouse_2.stopped,image.started,image.stopped,text_5.started,text_5.stopped,text_6.started,text_6.stopped,text_7.started,text_7.stopped,text_8.started,text_8.stopped,slider_3.response,slider_3.rt,slider_3.started,slider_3.stopped,Response_3,Feedback_3,BackGround_3.started,BackGround_3.stopped,Fish_3.started,Fish_3.stopped,WordBox_3.started,WordBox_3.stopped,Words_3.started,Words_3.stopped,BackGround_Feedback_3.started,BackGround_Feedback_3.stopped,Feedbacks_3.started,Feedbacks_3.stopped,Continue_or_not_2.keys,Continue_or_not_2.rt,Continue_or_not_2.started,Continue_or_not_2.stopped,image_4.started,image_4.stopped,mouse_3.x,mouse_3.y,mouse_3.leftButton,mouse_3.midButton,mouse_3.rightButton,mouse_3.started,mouse_3.stopped,startmain.started,startmain.stopped,slider_4.response,slider_4.rt,slider_4.started,slider_4.stopped,Response_4,Feedback_4,BackGround_4.started,BackGround_4.stopped,Fish_4.started,Fish_4.stopped,WordBox_4.started,WordBox_4.stopped,Words_4.started,Words_4.stopped,BackGround_Feedback_4.started,BackGround_Feedback_4.stopped,Feedbacks_4.started,Feedbacks_4.stopped,text.started,text.stopped,break_interval.started,break_interval.stopped,mouse.x,mouse.y,mouse.leftButton,mouse.midButton,mouse.rightButton,mouse.started,mouse.stopped,stratnextround.started,stratnextround.stopped,endgame.started,endgame.stopped,participant,date,expName,psychopyVersion,frameRate,
,,,,,,,,,,,,,,,,,,,,,,,,,,,,,,,,,,,,,,,,,,,,,,,,,,,,,,18.628604299970903,None,18.628604299970903,None,space,4.898224900010973,19.121993399981875,None,,,,,,,,,,,,,,,,,,,,,,,,,,,,,,,,,,,,,,,,,,,,,,,,,,,,,,,,,,,,,,,,,,,,,,,,,,,,,,,,,,,,,,,,,,206,2023-04-21_10h44.42.910,FishGame,2022.1.1,60.15236593365569,
물고기과제_instruction(참가자용)GreenVersion.mp4,,,,,,,,,,,,,,,,,,0,0,0,0,0,0,0,0,,,,,,,,,,,,,,,,,,,,,,,,,,,,,,,,,,,,,58.1177509999834,None,n,1.5584605000331067,58.1177509999834,None,,,,,,,,,,,,,,,,,,,,,,,,,,,,,,,,,,,,,,,,,,,,,,,,,,,,,,,,,,,,,,,,,,,,,,,,,,,,,,,,,,,,206,2023-04-21_10h44.42.910,FishGame,2022.1.1,60.15236593365569,
,1,넌 교활해,5,Orange,B,2.333333333333333,2.133333333333333,ScrollUp,ScrollDown,Orange.png,practice,,,,,,,0,0,0,0,,,,,0,0,0,0,0,0,0,0,,,,,,,,,,,,,,,,,,,,,,,,,,,,,,,,,,,0.10925926,-0.21944444,1,0,0,0.5008456099894829,None,59.70134269999107,None,62.96564650000073,64.467896200018,64.50124780001352,65.45119120000163,65.50118650001241,66.45118939998792,66.45118939998792,None,1.8148148208856583,1.467225399974268,67.71861410001293,None,ScrollUp,정답입니다,67.71861410001293,None,67.71861410001293,None,67.71861410001293,None,67.71861410001293,None,68.90107099997113,None,68.90107099997113,69.4042097000056,,,,,,,,,,,,,,,,,,,,,,,,,,,,,,,,,,,,,,,,,,,,,,,,,206,2023-04-21_10h44.42.910,FishGame,2022.1.1,60.15236593365569,
,2,넌 슬기로워,2,Green,A,6.166666666666667,4.1,ScrollDown,ScrollUp,Green.png,practice,,,,,,,0,0,0,0,,,,,0,0,0,0,0,1,1,1,,,,,,,,,,,,,,,,,,,,,,,,,,,,,,,,,,,,,,,,,,,,,,,,,,,,1,1.0963360999594443,70.00497830001405,None,ScrollDown,정답입니다,70.00497830001405,None,70.00497830001405,None,70.00497830001405,None,70.00497830001405,None,71.01751420000801,None,71.01751420000801,71.51751999999397,,,,,,,,,,,,,,,,,,,,,,,,,,,,,,,,,,,,,,,,,,,,,,,,,206,2023-04-21_10h44.42.910,FishGame,2022.1.1,60.15236593365569,
,3,나를 보내줘,6,Green,A,0,0,ScrollUp,ScrollDown,Green.png,practice,,,,,,,0,0,0,0,,,,,0,0,0,0,0,2,2,2,,,,,,,,,,,,,,,,,,,,,,,,,,,,,,,,,,,,,,,,,,,,,,,,,,,,1.5092592594834664,1.046093999990262,72.12314290000359,None,NoResponse,무응답입니다,72.12314290000359,None,72.12314290000359,None,72.12314290000359,None,72.12314290000359,None,73.08218979998492,None,73.08218979998492,73.58430190000217,,,,,,,,,,,,,,,,,,,,,,,,,,,,,,,,,,,,,,,,,,,,,,,,,206,2023-04-21_10h44.42.910,FishGame,2022.1.1,60.15236593365569,
,4,나를 데려가줘,6,Orange,B,0,0,ScrollDown,ScrollUp,Orange.png,practice,,,,,,,0,0,0,0,,,,,0,0,0,0,0,3,3,3,,,,,,,,,,,,,,,,,,,,,,,,,,,,,,,,,,,,,,,,,,,,,,,,,,,,1,1.1126121999695897,74.19244080001954,None,ScrollDown,정답입니다,74.19244080001954,None,74.19244080001954,None,74.19244080001954,None,74.19244080001954,None,75.2151806000038,None,75.2151806000038,75.71512710000388,,,,,,,,,,,,,,,,,,,,,,,,,,,,,,,,,,,,,,,,,,,,,,,,,206,2023-04-21_10h44.42.910,FishGame,2022.1.1,60.15236593365569,
,1,넌 교활해,5,Orange,B,2.333333333333333,2.133333333333333,ScrollUp,ScrollDown,Orange.png,practice,,,,,,,0,0,0,0,,,,,0,0,0,0,,,,,,,,,,,,,,,,,,,,,,,,,,,,,,,,,,,,,,,,,,,,,,,,,,,,,,,,,,,,,,,,,,,,,,,,,,n,4.302094999991823,76.21520420000888,None,76.21520420000888,None,,,,,,,,,,,,,,,,,,,,,,,,,,,,,,,,,,,,,,,,,,,206,2023-04-21_10h44.42.910,FishGame,2022.1.1,60.15236593365569,
,1,넌 따뜻해,1,Orange,B,6.083333333333333,5.6,ScrollUp,ScrollDown,Orange.png,1,Positive,Incongruent,,,,,0,0,0,0,,,,,,,,,,,,,0,0,0,0,,,,,,,,,,,,,,,,,,,,,,,,,,,,,,,,,,,,,,,,81.60367400001269,83.11744369997177,83.13422830001218,84.08417260000715,84.13418880000245,85.08411729999352,85.08411729999352,None,,,,,,,,,,,,,,,,,,,,,,,,,0.08425926,-0.11666667,1,0,0,0.31466060993261635,None,80.53401080000913,None,2,1.4955160000245087,86.36165269999765,None,ScrollUp,정답입니다,86.36165269999765,None,86.36165269999765,None,86.36165269999765,None,86.36165269999765,None,87.56520569999702,None,87.56520569999702,88.06713629997103,,,,,,,,,,,,,,,,206,2023-04-21_10h44.42.910,FishGame,2022.1.1,60.15236593365569,
,2,넌 기품있어,2,Orange,B,5.791666666666668,4.5,ScrollUp,ScrollDown,Orange.png,1,Positive,Incongruent,,,,,0,0,0,0,,,,,,,,,,,,,0,1,1,1,,,,,,,,,,,,,,,,,,,,,,,,,,,,,,,,,,,,,,,,,,,,,,,,,,,,,,,,,,,,,,,,,,,,,,,,,,,,,,,,,2,0.9982004999765195,88.67661570000928,None,ScrollUp,정답입니다,88.67661570000928,None,88.67661570000928,None,88.67661570000928,None,88.67661570000928,None,89.5837773999665,None,89.5837773999665,90.08380540000508,,,,,,,,,,,,,,,,206,2023-04-21_10h44.42.910,FishGame,2022.1.1,60.15236593365569,
,3,나를 보내줘,6,Green,A,0,0,ScrollUp,ScrollDown,Green.png,1,NonTarget,NonTarget,,,,,0,0,0,0,,,,,,,,,,,,,0,2,2,2,,,,,,,,,,,,,,,,,,,,,,,,,,,,,,,,,,,,,,,,,,,,,,,,,,,,,,,,,,,,,,,,,,,,,,,,,,,,,,,,,2,1.1817353999940678,90.69477120001102,None,ScrollUp,정답입니다,90.69477120001102,None,90.69477120001102,None,90.69477120001102,None,90.69477120001102,None,91.78394120000303,None,91.78394120000303,92.28394240001217,,,,,,,,,,,,,,,,206,2023-04-21_10h44.42.910,FishGame,2022.1.1,60.15236593365569,
,4,넌 수동적이야,4,Green,A,2.833333333333333,2.933333333333333,ScrollDown,ScrollUp,Green.png,1,Negative,Incongruent,,,,,0,0,0,0,,,,,,,,,,,,,0,3,3,3,,,,,,,,,,,,,,,,,,,,,,,,,,,,,,,,,,,,,,,,,,,,,,,,,,,,,,,,,,,,,,,,,,,,,,,,,,,,,,,,,1,0.9961493000155315,92.90351009997539,None,ScrollDown,정답입니다,92.90351009997539,None,92.90351009997539,None,92.90351009997539,None,92.90351009997539,None,93.79810139996698,None,93.79810139996698,94.29810979997274,,,,,,,,,,,,,,,,206,2023-04-21_10h44.42.910,FishGame,2022.1.1,60.15236593365569,
,5,넌 사심이 없어,3,Orange,B,4.916666666666666,4.333333333333333,ScrollUp,ScrollDown,Orange.png,1,Neutral,Neutral,,,,,0,0,0,0,,,,,,,,,,,,,0,4,4,4,,,,,,,,,,,,,,,,,,,,,,,,,,,,,,,,,,,,,,,,,,,,,,,,,,,,,,,,,,,,,,,,,,,,,,,,,,,,,,,,,2,0.9810619999771006,94.91584959998727,None,ScrollUp,정답입니다,94.91584959998727,None,94.91584959998727,None,94.91584959998727,None,94.91584959998727,None,95.8005889999913,None,95.8005889999913,96.30059120000806,,,,,,,,,,,,,,,,206,2023-04-21_10h44.42.910,FishGame,2022.1.1,60.15236593365569,
,6,넌 헤퍼,5,Green,A,2.458333333333334,2.233333333333333,ScrollDown,ScrollUp,Green.png,1,Negative,Incongruent,,,,,0,0,0,0,,,,,,,,,,,,,0,5,5,5,,,,,,,,,,,,,,,,,,,,,,,,,,,,,,,,,,,,,,,,,,,,,,,,,,,,,,,,,,,,,,,,,,,,,,,,,,,,,,,,,1,0.9817818999872543,96.9082584999851,None,ScrollDown,정답입니다,96.9082584999851,None,96.9082584999851,None,96.9082584999851,None,96.9082584999851,None,97.80054729996482,None,97.80054729996482,98.3036018999992,,,,,,,,,,,,,,,,206,2023-04-21_10h44.42.910,FishGame,2022.1.1,60.15236593365569,
,7,넌 말쑥해,3,Green,A,4.833333333333334,4.333333333333333,ScrollDown,ScrollUp,Green.png,1,Neutral,Neutral,,,,,0,0,0,0,,,,,,,,,,,,,0,6,6,6,,,,,,,,,,,,,,,,,,,,,,,,,,,,,,,,,,,,,,,,,,,,,,,,,,,,,,,,,,,,,,,,,,,,,,,,,,,,,,,,,1,1.1317009999766015,98.90798849996645,None,ScrollDown,정답입니다,98.90798849996645,None,98.90798849996645,None,98.90798849996645,None,98.90798849996645,None,99.95030309999129,None,99.95030309999129,100.45357489999151,,,,,,,,,,,,,,,,206,2023-04-21_10h44.42.910,FishGame,2022.1.1,60.15236593365569,
,8,넌 투덜거려,5,Orange,B,2.541666666666667,2.266666666666667,ScrollUp,ScrollDown,Orange.png,1,Negative,Congruent,,,,,0,0,0,0,,,,,,,,,,,,,0,7,7,7,,,,,,,,,,,,,,,,,,,,,,,,,,,,,,,,,,,,,,,,,,,,,,,,,,,,,,,,,,,,,,,,,,,,,,,,,,,,,,,,,2,1.0644091999856755,101.06191509997007,None,ScrollUp,정답입니다,101.06191509997007,None,101.06191509997007,None,101.06191509997007,None,101.06191509997007,None,102.03151679999428,None,102.03151679999428,102.53355719998945,,,,,,,,,,,,,,,,206,2023-04-21_10h44.42.910,FishGame,2022.1.1,60.15236593365569,
,9,넌 적극적이야,1,Green,A,5.708333333333333,5.533333333333333,ScrollDown,ScrollUp,Green.png,1,Positive,Congruent,,,,,0,0,0,0,,,,,,,,,,,,,0,8,8,8,,,,,,,,,,,,,,,,,,,,,,,,,,,,,,,,,,,,,,,,,,,,,,,,,,,,,,,,,,,,,,,,,,,,,,,,,,,,,,,,,1,0.9961650000186637,103.14005929999985,None,ScrollDown,정답입니다,103.14005929999985,None,103.14005929999985,None,103.14005929999985,None,103.14005929999985,None,104.0503069999977,None,104.0503069999977,104.55023489997257,,,,,,,,,,,,,,,,206,2023-04-21_10h44.42.910,FishGame,2022.1.1,60.15236593365569,
,10,넌 재미없어,4,Orange,B,2.625,2.966666666666667,ScrollUp,ScrollDown,Orange.png,1,Negative,Congruent,,,,,0,0,0,0,,,,,,,,,,,,,0,9,9,9,,,,,,,,,,,,,,,,,,,,,,,,,,,,,,,,,,,,,,,,,,,,,,,,,,,,,,,,,,,,,,,,,,,,,,,,,,,,,,,,,2,1.0958872000337578,105.16068099997938,None,ScrollUp,정답입니다,105.16068099997938,None,105.16068099997938,None,105.16068099997938,None,105.16068099997938,None,106.16681829997106,None,106.16681829997106,106.66476100002183,,,,,,,,,,,,,,,,206,2023-04-21_10h44.42.910,FishGame,2022.1.1,60.15236593365569,
,11,넌 명석해,2,Green,A,5.875,4.033333333333333,ScrollDown,ScrollUp,Green.png,1,Positive,Congruent,,,,,0,0,0,0,,,,,,,,,,,,,0,10,10,10,,,,,,,,,,,,,,,,,,,,,,,,,,,,,,,,,,,,,,,,,,,,,,,,,,,,,,,,,,,,,,,,,,,,,,,,,,,,,,,,,1,0.9652368000242859,107.27401809999719,None,ScrollDown,정답입니다,107.27401809999719,None,107.27401809999719,None,107.27401809999719,None,107.27401809999719,None,108.15011960000265,None,108.15011960000265,108.66682649997529,,,,,,,,,,,,,,,,206,2023-04-21_10h44.42.910,FishGame,2022.1.1,60.15236593365569,
,12,나를 데려가줘,6,Orange,B,0,0,ScrollDown,ScrollUp,Orange.png,1,NonTarget,NonTarget,,,,,0,0,0,0,,,,,,,,,,,,,0,11,11,11,,,,,,,,,,,,,,,,,,,,,,,,,,,,,,,,,,,,,,,,,,,,,,,,,,,,,,,,,,,,,,,,,,,,,,,,,,,,,,,,,1,1.1958123000222258,109.27022439998109,None,ScrollDown,정답입니다,109.27022439998109,None,109.27022439998109,None,109.27022439998109,None,109.27022439998109,None,110.36445220001042,None,110.36445220001042,110.86443329998292,,,,,,,,,,,,,,,,206,2023-04-21_10h44.42.910,FishGame,2022.1.1,60.15236593365569,
,13,넌 소심해,4,Green,A,3,3.1,ScrollDown,ScrollUp,Green.png,1,Negative,Incongruent,,,,,0,0,0,0,,,,,,,,,,,,,0,12,12,12,,,,,,,,,,,,,,,,,,,,,,,,,,,,,,,,,,,,,,,,,,,,,,,,,,,,,,,,,,,,,,,,,,,,,,,,,,,,,,,,,1,0.9843257000320591,111.47083599999314,None,ScrollDown,정답입니다,111.47083599999314,None,111.47083599999314,None,111.47083599999314,None,111.47083599999314,None,112.36689730000217,None,112.36689730000217,112.86685809999472,,,,,,,,,,,,,,,,206,2023-04-21_10h44.42.910,FishGame,2022.1.1,60.15236593365569,
,14,넌 합리적이야,2,Green,A,5.583333333333333,4.733333333333333,ScrollDown,ScrollUp,Green.png,1,Positive,Congruent,,,,,0,0,0,0,,,,,,,,,,,,,0,13,13,13,,,,,,,,,,,,,,,,,,,,,,,,,,,,,,,,,,,,,,,,,,,,,,,,,,,,,,,,,,,,,,,,,,,,,,,,,,,,,,,,,1,0.9827913999906741,113.47599229996558,None,ScrollDown,정답입니다,113.47599229996558,None,113.47599229996558,None,113.47599229996558,None,113.47599229996558,None,114.36462950002169,None,114.36462950002169,114.86663559998851,,,,,,,,,,,,,,,,206,2023-04-21_10h44.42.910,FishGame,2022.1.1,60.15236593365569,
,15,넌 무자비해,5,Orange,B,2.333333333333333,2.1,ScrollUp,ScrollDown,Orange.png,1,Negative,Congruent,,,,,0,0,0,0,,,,,,,,,,,,,0,14,14,14,,,,,,,,,,,,,,,,,,,,,,,,,,,,,,,,,,,,,,,,,,,,,,,,,,,,,,,,,,,,,,,,,,,,,,,,,,,,,,,,,2,1.29818250000244,115.48297100001946,None,ScrollUp,정답입니다,115.48297100001946,None,115.48297100001946,None,115.48297100001946,None,115.48297100001946,None,116.68337300000712,None,116.68337300000712,117.18329790001735,,,,,,,,,,,,,,,,206,2023-04-21_10h44.42.910,FishGame,2022.1.1,60.15236593365569,
,16,나를 보내줘,6,Green,A,0,0,ScrollUp,ScrollDown,Green.png,1,NonTarget,NonTarget,,,,,0,0,0,0,,,,,,,,,,,,,0,15,15,15,,,,,,,,,,,,,,,,,,,,,,,,,,,,,,,,,,,,,,,,,,,,,,,,,,,,,,,,,,,,,,,,,,,,,,,,,,,,,,,,,2,1.079306399973575,117.78736099996604,None,ScrollUp,정답입니다,117.78736099996604,None,117.78736099996604,None,117.78736099996604,None,117.78736099996604,None,118.7811535000219,None,118.7811535000219,119.28324049996445,,,,,,,,,,,,,,,,206,2023-04-21_10h44.42.910,FishGame,2022.1.1,60.15236593365569,
,17,넌 현실적이야,3,Orange,B,4.608695652173913,4.766666666666667,ScrollUp,ScrollDown,Orange.png,1,Neutral,Neutral,,,,,0,0,0,0,,,,,,,,,,,,,0,16,16,16,,,,,,,,,,,,,,,,,,,,,,,,,,,,,,,,,,,,,,,,,,,,,,,,,,,,,,,,,,,,,,,,,,,,,,,,,,,,,,,,,2,1.2648065999965183,119.89386219996959,None,ScrollUp,정답입니다,119.89386219996959,None,119.89386219996959,None,119.89386219996959,None,119.89386219996959,None,121.06657149997773,None,121.06657149997773,121.58316490001744,,,,,,,,,,,,,,,,206,2023-04-21_10h44.42.910,FishGame,2022.1.1,60.15236593365569,
,18,넌 의리있어,1,Orange,B,5.833333333333334,5.633333333333334,ScrollUp,ScrollDown,Orange.png,1,Positive,Incongruent,,,,,0,0,0,0,,,,,,,,,,,,,0,17,17,17,,,,,,,,,,,,,,,,,,,,,,,,,,,,,,,,,,,,,,,,,,,,,,,,,,,,,,,,,,,,,,,,,,,,,,,,,,,,,,,,,2,0.9484323000069708,122.17618219996803,None,ScrollUp,정답입니다,122.17618219996803,None,122.17618219996803,None,122.17618219996803,None,122.17618219996803,None,123.03324949997477,None,123.03324949997477,123.5331901999889,,,,,,,,,,,,,,,,206,2023-04-21_10h44.42.910,FishGame,2022.1.1,60.15236593365569,
,19,넌 신경과민이야,5,Green,A,2.541666666666667,2.166666666666667,ScrollDown,ScrollUp,Green.png,1,Negative,Incongruent,,,,,0,0,0,0,,,,,,,,,,,,,0,18,18,18,,,,,,,,,,,,,,,,,,,,,,,,,,,,,,,,,,,,,,,,,,,,,,,,,,,,,,,,,,,,,,,,,,,,,,,,,,,,,,,,,1,1.2093013999983668,124.1525695999735,None,ScrollDown,정답입니다,124.1525695999735,None,124.1525695999735,None,124.1525695999735,None,124.1525695999735,None,125.26414990000194,None,125.26414990000194,125.76419640000677,,,,,,,,,,,,,,,,206,2023-04-21_10h44.42.910,FishGame,2022.1.1,60.15236593365569,
,20,넌 편안해,1,Green,A,5.916666666666666,5.866666666666666,ScrollDown,ScrollUp,Green.png,1,Positive,Congruent,,,,,0,0,0,0,,,,,,,,,,,,,0,19,19,19,,,,,,,,,,,,,,,,,,,,,,,,,,,,,,,,,,,,,,,,,,,,,,,,,,,,,,,,,,,,,,,,,,,,,,,,,,,,,,,,,1,0.9652190000051633,126.37397780001629,None,ScrollDown,정답입니다,126.37397780001629,None,126.37397780001629,None,126.37397780001629,None,126.37397780001629,None,127.2499678999884,None,127.2499678999884,127.74989490001462,,,,,,,,,,,,,,,,206,2023-04-21_10h44.42.910,FishGame,2022.1.1,60.15236593365569,
,21,넌 품위있어,2,Orange,B,5.291666666666666,4.466666666666667,ScrollUp,ScrollDown,Orange.png,1,Positive,Incongruent,,,,,0,0,0,0,,,,,,,,,,,,,0,20,20,20,,,,,,,,,,,,,,,,,,,,,,,,,,,,,,,,,,,,,,,,,,,,,,,,,,,,,,,,,,,,,,,,,,,,,,,,,,,,,,,,,2,0.9962055999785662,128.35916350001935,None,ScrollUp,정답입니다,128.35916350001935,None,128.35916350001935,None,128.35916350001935,None,128.35916350001935,None,129.26634229999036,None,129.26634229999036,129.76635089999763,,,,,,,,,,,,,,,,206,2023-04-21_10h44.42.910,FishGame,2022.1.1,60.15236593365569,
,22,넌 빈틈없어,3,Green,A,4.833333333333333,3.966666666666667,ScrollDown,ScrollUp,Green.png,1,Neutral,Neutral,,,,,0,0,0,0,,,,,,,,,,,,,0,21,21,21,,,,,,,,,,,,,,,,,,,,,,,,,,,,,,,,,,,,,,,,,,,,,,,,,,,,,,,,,,,,,,,,,,,,,,,,,,,,,,,,,1,0.9316210999968462,130.3763194999774,None,ScrollDown,정답입니다,130.3763194999774,None,130.3763194999774,None,130.3763194999774,None,130.3763194999774,None,131.2163964000065,None,131.2163964000065,131.71635980001884,,,,,,,,,,,,,,,,206,2023-04-21_10h44.42.910,FishGame,2022.1.1,60.15236593365569,
,23,넌 상상력없어,4,Orange,B,2.833333333333333,3.133333333333333,ScrollUp,ScrollDown,Orange.png,1,Negative,Congruent,,,,,0,0,0,0,,,,,,,,,,,,,0,22,22,22,,,,,,,,,,,,,,,,,,,,,,,,,,,,,,,,,,,,,,,,,,,,,,,,,,,,,,,,,,,,,,,,,,,,,,,,,,,,,,,,,2,0.931691600009799,132.32660039997427,None,ScrollUp,정답입니다,132.32660039997427,None,132.32660039997427,None,132.32660039997427,None,132.32660039997427,None,133.16640960000223,None,133.16640960000223,133.6662851999863,,,,,,,,,,,,,,,,206,2023-04-21_10h44.42.910,FishGame,2022.1.1,60.15236593365569,
,24,넌 지혜로워,2,Orange,B,6.333333333333334,4.633333333333334,ScrollUp,ScrollDown,Orange.png,1,Positive,Incongruent,,,,,0,0,0,0,,,,,,,,,,,,,0,23,23,23,,,,,,,,,,,,,,,,,,,,,,,,,,,,,,,,,,,,,,,,,,,,,,,,,,,,,,,,,,,,,,,,,,,,,,,,,,,,,,,,,2,0.8959737999830395,134.27861129998928,None,ScrollUp,정답입니다,134.27861129998928,None,134.27861129998928,None,134.27861129998928,None,134.27861129998928,None,135.08289520000108,None,135.08289520000108,135.58292760001495,,,,,,,,,,,,,,,,206,2023-04-21_10h44.42.910,FishGame,2022.1.1,60.15236593365569,
,25,넌 시끄러워,4,Green,A,2.833333333333333,3.033333333333333,ScrollDown,ScrollUp,Green.png,1,Negative,Incongruent,,,,,0,0,0,0,,,,,,,,,,,,,0,24,24,24,,,,,,,,,,,,,,,,,,,,,,,,,,,,,,,,,,,,,,,,,,,,,,,,,,,,,,,,,,,,,,,,,,,,,,,,,,,,,,,,,1,0.8652231000014581,136.19994359998964,None,ScrollDown,정답입니다,136.19994359998964,None,136.19994359998964,None,136.19994359998964,None,136.19994359998964,None,136.96638210001402,None,136.96638210001402,137.4694813999813,,,,,,,,,,,,,,,,206,2023-04-21_10h44.42.910,FishGame,2022.1.1,60.15236593365569,
,26,넌 만사태평이야,3,Orange,B,4,4.333333333333333,ScrollUp,ScrollDown,Orange.png,1,Neutral,Neutral,,,,,0,0,0,0,,,,,,,,,,,,,0,25,25,25,,,,,,,,,,,,,,,,,,,,,,,,,,,,,,,,,,,,,,,,,,,,,,,,,,,,,,,,,,,,,,,,,,,,,,,,,,,,,,,,,2,0.8982750000432134,138.07740790001117,None,ScrollUp,정답입니다,138.07740790001117,None,138.07740790001117,None,138.07740790001117,None,138.07740790001117,None,138.88076329999603,None,138.88076329999603,139.38278929999797,,,,,,,,,,,,,,,,206,2023-04-21_10h44.42.910,FishGame,2022.1.1,60.15236593365569,
,27,넌 붙임성있어,1,Green,A,5.708333333333333,5.633333333333334,ScrollDown,ScrollUp,Green.png,1,Positive,Congruent,,,,,0,0,0,0,,,,,,,,,,,,,0,26,26,26,,,,,,,,,,,,,,,,,,,,,,,,,,,,,,,,,,,,,,,,,,,,,,,,,,,,,,,,,,,,,,,,,,,,,,,,,,,,,,,,,1,0.914924599986989,139.99150090001058,None,ScrollDown,정답입니다,139.99150090001058,None,139.99150090001058,None,139.99150090001058,None,139.99150090001058,None,140.81614539999282,None,140.81614539999282,141.31618849997176,,,,,,,,,,,,,,,,206,2023-04-21_10h44.42.910,FishGame,2022.1.1,60.15236593365569,
,28,넌 영리해,2,Green,A,6,4.033333333333333,ScrollDown,ScrollUp,Green.png,1,Positive,Congruent,,,,,0,0,0,0,,,,,,,,,,,,,0,27,27,27,,,,,,,,,,,,,,,,,,,,,,,,,,,,,,,,,,,,,,,,,,,,,,,,,,,,,,,,,,,,,,,,,,,,,,,,,,,,,,,,,1,1.1795442000147887,141.92776659998344,None,ScrollDown,정답입니다,141.92776659998344,None,141.92776659998344,None,141.92776659998344,None,141.92776659998344,None,143.0161731999833,None,143.0161731999833,143.5160598999937,,,,,,,,,,,,,,,,206,2023-04-21_10h44.42.910,FishGame,2022.1.1,60.15236593365569,
,29,넌 열심이야,1,Orange,B,6.041666666666667,5.833333333333333,ScrollUp,ScrollDown,Orange.png,1,Positive,Incongruent,,,,,0,0,0,0,,,,,,,,,,,,,0,28,28,28,,,,,,,,,,,,,,,,,,,,,,,,,,,,,,,,,,,,,,,,,,,,,,,,,,,,,,,,,,,,,,,,,,,,,,,,,,,,,,,,,2,0.9983091999893077,144.12524119997397,None,ScrollUp,정답입니다,144.12524119997397,None,144.12524119997397,None,144.12524119997397,None,144.12524119997397,None,145.03068089997396,None,145.03068089997396,145.53271759999916,,,,,,,,,,,,,,,,206,2023-04-21_10h44.42.910,FishGame,2022.1.1,60.15236593365569,
,30,넌 인기없어,4,Orange,B,3,3.3,ScrollUp,ScrollDown,Orange.png,1,Negative,Congruent,,,,,0,0,0,0,,,,,,,,,,,,,0,29,29,29,,,,,,,,,,,,,,,,,,,,,,,,,,,,,,,,,,,,,,,,,,,,,,,,,,,,,,,,,,,,,,,,,,,,,,,,,,,,,,,,,2,0.9807678000070155,146.1420357999741,None,ScrollUp,정답입니다,146.1420357999741,None,146.1420357999741,None,146.1420357999741,None,146.1420357999741,None,147.03034280001884,None,147.03034280001884,147.53036340000108,,,,,,,,,,,,,,,,206,2023-04-21_10h44.42.910,FishGame,2022.1.1,60.15236593365569,
,31,넌 익살스러워,3,Green,A,4.708333333333334,4.833333333333333,ScrollDown,ScrollUp,Green.png,1,Neutral,Neutral,,,,,0,0,0,0,,,,,,,,,,,,,0,30,30,30,,,,,,,,,,,,,,,,,,,,,,,,,,,,,,,,,,,,,,,,,,,,,,,,,,,,,,,,,,,,,,,,,,,,,,,,,,,,,,,,,1,1.0147282999823801,148.1438799999887,None,ScrollDown,정답입니다,148.1438799999887,None,148.1438799999887,None,148.1438799999887,None,148.1438799999887,None,149.06371750001563,None,149.06371750001563,149.56607840000652,,,,,,,,,,,,,,,,206,2023-04-21_10h44.42.910,FishGame,2022.1.1,60.15236593365569,
,32,넌 이기적이야,5,Orange,B,2.291666666666667,2.333333333333333,ScrollUp,ScrollDown,Orange.png,1,Negative,Congruent,,,,,0,0,0,0,,,,,,,,,,,,,0,31,31,31,,,,,,,,,,,,,,,,,,,,,,,,,,,,,,,,,,,,,,,,,,,,,,,,,,,,,,,,,,,,,,,,,,,,,,,,,,,,,,,,,2,0.8988134000101127,150.1727305999957,None,ScrollUp,정답입니다,150.1727305999957,None,150.1727305999957,None,150.1727305999957,None,150.1727305999957,None,150.98277930001495,None,150.98277930001495,151.48593239998445,,,,,,,,,,,,,,,,206,2023-04-21_10h44.42.910,FishGame,2022.1.1,60.15236593365569,
,33,나를 데려가줘,6,Orange,B,0,0,ScrollDown,ScrollUp,Orange.png,1,NonTarget,NonTarget,,,,,0,0,0,0,,,,,,,,,,,,,0,32,32,32,,,,,,,,,,,,,,,,,,,,,,,,,,,,,,,,,,,,,,,,,,,,,,,,,,,,,,,,,,,,,,,,,,,,,,,,,,,,,,,,,1,1.1148219999740832,152.0891143999761,None,ScrollDown,정답입니다,152.0891143999761,None,152.0891143999761,None,152.0891143999761,None,152.0891143999761,None,153.11599859996932,None,153.11599859996932,153.61595299997134,,,,,,,,,,,,,,,,206,2023-04-21_10h44.42.910,FishGame,2022.1.1,60.15236593365569,
,34,넌 기회주의자야,5,Green,A,2.875,2.133333333333333,ScrollDown,ScrollUp,Green.png,1,Negative,Incongruent,,,,,0,0,0,0,,,,,,,,,,,,,0,33,33,33,,,,,,,,,,,,,,,,,,,,,,,,,,,,,,,,,,,,,,,,,,,,,,,,,,,,,,,,,,,,,,,,,,,,,,,,,,,,,,,,,1,0.9928823999944143,154.22767439996824,None,ScrollDown,정답입니다,154.22767439996824,None,154.22767439996824,None,154.22767439996824,None,154.22767439996824,None,155.13255939999362,None,155.13255939999362,155.63250070001232,,,,,,,,,,,,,,,,206,2023-04-21_10h44.42.910,FishGame,2022.1.1,60.15236593365569,
,1,넌 미성숙해,4,Green,A,3,3.2,ScrollDown,ScrollUp,Green.png,2,Negative,Incongruent,,,,,0,0,0,0,,,,,,,,,,,,,,,,,0,0,0,0,,,,,,,,,,,,,,,,,,,,,,,,,,,,,,,,,,,,188.03185949998442,189.5320721999742,189.5653715999797,190.5153108999948,190.5653380000149,191.5152902000118,191.5152902000118,None,,,,,,,,,,,,,,,,,,,,,,,,,,,,,,,,,,1,1.0909808999858797,192.5962404999882,None,ScrollDown,정답입니다,192.5962404999882,None,192.5962404999882,None,192.5962404999882,None,192.5962404999882,None,193.59849549998762,None,193.59849549998762,194.1150138999801,156.13260020001326,None,156.13260020001326,None,0.25462964,-0.08796296,1,0,0,0.016142609994858503,None,186.13182820001384,None,,,206,2023-04-21_10h44.42.910,FishGame,2022.1.1,60.15236593365569,
,2,넌 반사회적이야,5,Orange,B,2.416666666666667,2.033333333333333,ScrollUp,ScrollDown,Orange.png,2,Negative,Congruent,,,,,0,0,0,0,,,,,,,,,,,,,,,,,0,1,1,1,,,,,,,,,,,,,,,,,,,,,,,,,,,,,,,,,,,,,,,,,,,,,,,,,,,,,,,,,,,,,,,,,,,,,,,,,,,,,2,0.929500599973835,194.7075706999749,None,ScrollUp,정답입니다,194.7075706999749,None,194.7075706999749,None,194.7075706999749,None,194.7075706999749,None,195.54837179998867,None,195.54837179998867,196.04836020001676,,,,,,,,,,,,,,,,206,2023-04-21_10h44.42.910,FishGame,2022.1.1,60.15236593365569,
,3,넌 유능해,2,Green,A,6.208333333333333,4.433333333333334,ScrollDown,ScrollUp,Green.png,2,Positive,Congruent,,,,,0,0,0,0,,,,,,,,,,,,,,,,,0,2,2,2,,,,,,,,,,,,,,,,,,,,,,,,,,,,,,,,,,,,,,,,,,,,,,,,,,,,,,,,,,,,,,,,,,,,,,,,,,,,,1,0.9654163999948651,196.6560706999735,None,ScrollDown,정답입니다,196.6560706999735,None,196.6560706999735,None,196.6560706999735,None,196.6560706999735,None,197.53180559998145,None,197.53180559998145,198.03168720001122,,,,,,,,,,,,,,,,206,2023-04-21_10h44.42.910,FishGame,2022.1.1,60.15236593365569,
,4,넌 능숙해,2,Orange,B,5.666666666666667,4.733333333333333,ScrollUp,ScrollDown,Orange.png,2,Positive,Incongruent,,,,,0,0,0,0,,,,,,,,,,,,,,,,,0,3,3,3,,,,,,,,,,,,,,,,,,,,,,,,,,,,,,,,,,,,,,,,,,,,,,,,,,,,,,,,,,,,,,,,,,,,,,,,,,,,,2,0.9649484000401571,198.6379891000106,None,ScrollUp,정답입니다,198.6379891000106,None,198.6379891000106,None,198.6379891000106,None,198.6379891000106,None,199.5149704000214,None,199.5149704000214,200.0148998000077,,,,,,,,,,,,,,,,206,2023-04-21_10h44.42.910,FishGame,2022.1.1,60.15236593365569,
,5,넌 진부해,4,Orange,B,2.458333333333333,3.166666666666667,ScrollUp,ScrollDown,Orange.png,2,Negative,Congruent,,,,,0,0,0,0,,,,,,,,,,,,,,,,,0,4,4,4,,,,,,,,,,,,,,,,,,,,,,,,,,,,,,,,,,,,,,,,,,,,,,,,,,,,,,,,,,,,,,,,,,,,,,,,,,,,,2,0.8814394000219181,200.6254806999932,None,ScrollUp,정답입니다,200.6254806999932,None,200.6254806999932,None,200.6254806999932,None,200.6254806999932,None,201.41504709998844,None,201.41504709998844,201.91491399996448,,,,,,,,,,,,,,,,206,2023-04-21_10h44.42.910,FishGame,2022.1.1,60.15236593365569,
,6,나를 보내줘,6,Green,A,0,0,ScrollUp,ScrollDown,Green.png,2,NonTarget,NonTarget,,,,,0,0,0,0,,,,,,,,,,,,,,,,,0,5,5,5,,,,,,,,,,,,,,,,,,,,,,,,,,,,,,,,,,,,,,,,,,,,,,,,,,,,,,,,,,,,,,,,,,,,,,,,,,,,,2,1.1124791000038385,202.51899840001715,None,ScrollUp,정답입니다,202.51899840001715,None,202.51899840001715,None,202.51899840001715,None,202.51899840001715,None,203.5459158999729,None,203.5459158999729,204.04588300001342,,,,,,,,,,,,,,,,206,2023-04-21_10h44.42.910,FishGame,2022.1.1,60.15236593365569,
,7,넌 엄격해,3,Green,A,4.166666666666666,4.1,ScrollDown,ScrollUp,Green.png,2,Neutral,Neutral,,,,,0,0,0,0,,,,,,,,,,,,,,,,,0,6,6,6,,,,,,,,,,,,,,,,,,,,,,,,,,,,,,,,,,,,,,,,,,,,,,,,,,,,,,,,,,,,,,,,,,,,,,,,,,,,,1,0.9477771000238135,204.65175089996774,None,ScrollDown,정답입니다,204.65175089996774,None,204.65175089996774,None,204.65175089996774,None,204.65175089996774,None,205.5125657999888,None,205.5125657999888,206.0125706999679,,,,,,,,,,,,,,,,206,2023-04-21_10h44.42.910,FishGame,2022.1.1,60.15236593365569,
,8,나를 보내줘,6,Green,A,0,0,ScrollUp,ScrollDown,Green.png,2,NonTarget,NonTarget,,,,,0,0,0,0,,,,,,,,,,,,,,,,,0,7,7,7,,,,,,,,,,,,,,,,,,,,,,,,,,,,,,,,,,,,,,,,,,,,,,,,,,,,,,,,,,,,,,,,,,,,,,,,,,,,,2,1.0817933999933302,206.61932130000787,None,ScrollUp,정답입니다,206.61932130000787,None,206.61932130000787,None,206.61932130000787,None,206.61932130000787,None,207.6150087999995,None,207.6150087999995,208.11493929999415,,,,,,,,,,,,,,,,206,2023-04-21_10h44.42.910,FishGame,2022.1.1,60.15236593365569,
,9,넌 대담해,3,Orange,B,4.875,4.866666666666666,ScrollUp,ScrollDown,Orange.png,2,Neutral,Neutral,,,,,0,0,0,0,,,,,,,,,,,,,,,,,0,8,8,8,,,,,,,,,,,,,,,,,,,,,,,,,,,,,,,,,,,,,,,,,,,,,,,,,,,,,,,,,,,,,,,,,,,,,,,,,,,,,2,1.0962434000102803,208.72455129999435,None,ScrollUp,정답입니다,208.72455129999435,None,208.72455129999435,None,208.72455129999435,None,208.72455129999435,None,209.72937710001133,None,209.72937710001133,210.2314493000158,,,,,,,,,,,,,,,,206,2023-04-21_10h44.42.910,FishGame,2022.1.1,60.15236593365569,
,10,넌 꾸준해,1,Green,A,5.916666666666668,5.8,ScrollDown,ScrollUp,Green.png,2,Positive,Congruent,,,,,0,0,0,0,,,,,,,,,,,,,,,,,0,9,9,9,,,,,,,,,,,,,,,,,,,,,,,,,,,,,,,,,,,,,,,,,,,,,,,,,,,,,,,,,,,,,,,,,,,,,,,,,,,,,1,1.0796237000031397,210.83865659998264,None,ScrollDown,정답입니다,210.83865659998264,None,210.83865659998264,None,210.83865659998264,None,210.83865659998264,None,211.83131959999446,None,211.83131959999446,212.33131599996705,,,,,,,,,,,,,,,,206,2023-04-21_10h44.42.910,FishGame,2022.1.1,60.15236593365569,
,11,나를 데려가줘,6,Orange,B,0,0,ScrollDown,ScrollUp,Orange.png,2,NonTarget,NonTarget,,,,,0,0,0,0,,,,,,,,,,,,,,,,,0,10,10,10,,,,,,,,,,,,,,,,,,,,,,,,,,,,,,,,,,,,,,,,,,,,,,,,,,,,,,,,,,,,,,,,,,,,,,,,,,,,,1,1.131754899979569,212.93827609997243,None,ScrollDown,정답입니다,212.93827609997243,None,212.93827609997243,None,212.93827609997243,None,212.93827609997243,None,213.98145219997969,None,213.98145219997969,214.48134280001977,,,,,,,,,,,,,,,,206,2023-04-21_10h44.42.910,FishGame,2022.1.1,60.15236593365569,
,12,넌 독선적이야,5,Green,A,2.458333333333333,1.933333333333333,ScrollDown,ScrollUp,Green.png,2,Negative,Incongruent,,,,,0,0,0,0,,,,,,,,,,,,,,,,,0,11,11,11,,,,,,,,,,,,,,,,,,,,,,,,,,,,,,,,,,,,,,,,,,,,,,,,,,,,,,,,,,,,,,,,,,,,,,,,,,,,,1,0.9459032000158913,215.08957579999696,None,ScrollDown,정답입니다,215.08957579999696,None,215.08957579999696,None,215.08957579999696,None,215.08957579999696,None,215.94569889997365,None,215.94569889997365,216.4457155999844,,,,,,,,,,,,,,,,206,2023-04-21_10h44.42.910,FishGame,2022.1.1,60.15236593365569,
,13,나를 보내줘,6,Green,A,0,0,ScrollUp,ScrollDown,Green.png,2,NonTarget,NonTarget,,,,,0,0,0,0,,,,,,,,,,,,,,,,,0,12,12,12,,,,,,,,,,,,,,,,,,,,,,,,,,,,,,,,,,,,,,,,,,,,,,,,,,,,,,,,,,,,,,,,,,,,,,,,,,,,,2,1.181679899978917,217.04808669997146,None,ScrollUp,정답입니다,217.04808669997146,None,217.04808669997146,None,217.04808669997146,None,217.04808669997146,None,218.14821640000446,None,218.14821640000446,218.64804339996772,,,,,,,,,,,,,,,,206,2023-04-21_10h44.42.910,FishGame,2022.1.1,60.15236593365569,
,14,넌 책임감있어,1,Orange,B,6.347826086956522,6,ScrollUp,ScrollDown,Orange.png,2,Positive,Incongruent,,,,,0,0,0,0,,,,,,,,,,,,,,,,,0,13,13,13,,,,,,,,,,,,,,,,,,,,,,,,,,,,,,,,,,,,,,,,,,,,,,,,,,,,,,,,,,,,,,,,,,,,,,,,,,,,,2,1.0984304000157863,219.26037410000572,None,ScrollUp,정답입니다,219.26037410000572,None,219.26037410000572,None,219.26037410000572,None,219.26037410000572,None,220.26801870000781,None,220.26801870000781,220.7812160999747,,,,,,,,,,,,,,,,206,2023-04-21_10h44.42.910,FishGame,2022.1.1,60.15236593365569,
,15,넌 문학적이야,3,Green,A,4.708333333333334,4.333333333333333,ScrollDown,ScrollUp,Green.png,2,Neutral,Neutral,,,,,0,0,0,0,,,,,,,,,,,,,,,,,0,14,14,14,,,,,,,,,,,,,,,,,,,,,,,,,,,,,,,,,,,,,,,,,,,,,,,,,,,,,,,,,,,,,,,,,,,,,,,,,,,,,1,0.8819016000488773,221.3890672000125,None,ScrollDown,정답입니다,221.3890672000125,None,221.3890672000125,None,221.3890672000125,None,221.3890672000125,None,222.17915639997227,None,222.17915639997227,222.68453339999542,,,,,,,,,,,,,,,,206,2023-04-21_10h44.42.910,FishGame,2022.1.1,60.15236593365569,
,16,넌 재미있어,1,Orange,B,5.875,5.7,ScrollUp,ScrollDown,Orange.png,2,Positive,Incongruent,,,,,0,0,0,0,,,,,,,,,,,,,,,,,0,15,15,15,,,,,,,,,,,,,,,,,,,,,,,,,,,,,,,,,,,,,,,,,,,,,,,,,,,,,,,,,,,,,,,,,,,,,,,,,,,,,2,0.998207300028298,223.28911509999307,None,ScrollUp,정답입니다,223.28911509999307,None,223.28911509999307,None,223.28911509999307,None,223.28911509999307,None,224.19570929999463,None,224.19570929999463,224.69774949998828,,,,,,,,,,,,,,,,206,2023-04-21_10h44.42.910,FishGame,2022.1.1,60.15236593365569,
,17,나를 데려가줘,6,Orange,B,0,0,ScrollDown,ScrollUp,Orange.png,2,NonTarget,NonTarget,,,,,0,0,0,0,,,,,,,,,,,,,,,,,0,16,16,16,,,,,,,,,,,,,,,,,,,,,,,,,,,,,,,,,,,,,,,,,,,,,,,,,,,,,,,,,,,,,,,,,,,,,,,,,,,,,1,0.931945700023789,225.30674630001886,None,ScrollDown,정답입니다,225.30674630001886,None,225.30674630001886,None,225.30674630001886,None,225.30674630001886,None,226.14573679998284,None,226.14573679998284,226.6477899000165,,,,,,,,,,,,,,,,206,2023-04-21_10h44.42.910,FishGame,2022.1.1,60.15236593365569,
,18,넌 협력적이야,1,Green,A,5.625,5.633333333333334,ScrollDown,ScrollUp,Green.png,2,Positive,Congruent,,,,,0,0,0,0,,,,,,,,,,,,,,,,,0,17,17,17,,,,,,,,,,,,,,,,,,,,,,,,,,,,,,,,,,,,,,,,,,,,,,,,,,,,,,,,,,,,,,,,,,,,,,,,,,,,,1,0.9814866000087932,227.2550845000078,None,ScrollDown,정답입니다,227.2550845000078,None,227.2550845000078,None,227.2550845000078,None,227.2550845000078,None,228.14563149999594,None,228.14563149999594,228.6476470999769,,,,,,,,,,,,,,,,206,2023-04-21_10h44.42.910,FishGame,2022.1.1,60.15236593365569,
,19,넌 평범해,3,Orange,B,4.333333333333332,4.233333333333333,ScrollUp,ScrollDown,Orange.png,2,Neutral,Neutral,,,,,0,0,0,0,,,,,,,,,,,,,,,,,0,18,18,18,,,,,,,,,,,,,,,,,,,,,,,,,,,,,,,,,,,,,,,,,,,,,,,,,,,,,,,,,,,,,,,,,,,,,,,,,,,,,2,1.014993599965237,229.25625659996876,None,ScrollUp,정답입니다,229.25625659996876,None,229.25625659996876,None,229.25625659996876,None,229.25625659996876,None,230.1809673999669,None,230.1809673999669,230.681007999985,,,,,,,,,,,,,,,,206,2023-04-21_10h44.42.910,FishGame,2022.1.1,60.15236593365569,
,20,넌 오만해,5,Green,A,2.333333333333333,2,ScrollDown,ScrollUp,Green.png,2,Negative,Incongruent,,,,,0,0,0,0,,,,,,,,,,,,,,,,,0,19,19,19,,,,,,,,,,,,,,,,,,,,,,,,,,,,,,,,,,,,,,,,,,,,,,,,,,,,,,,,,,,,,,,,,,,,,,,,,,,,,1,0.9148488000500947,231.2872187999892,None,ScrollDown,정답입니다,231.2872187999892,None,231.2872187999892,None,231.2872187999892,None,231.2872187999892,None,232.11449509998783,None,232.11449509998783,232.6174858000013,,,,,,,,,,,,,,,,206,2023-04-21_10h44.42.910,FishGame,2022.1.1,60.15236593365569,
,21,넌 운이없어,4,Orange,B,3,3.466666666666667,ScrollUp,ScrollDown,Orange.png,2,Negative,Congruent,,,,,0,0,0,0,,,,,,,,,,,,,,,,,0,20,20,20,,,,,,,,,,,,,,,,,,,,,,,,,,,,,,,,,,,,,,,,,,,,,,,,,,,,,,,,,,,,,,,,,,,,,,,,,,,,,2,1.0463691999902949,233.22343169996748,None,ScrollUp,정답입니다,233.22343169996748,None,233.22343169996748,None,233.22343169996748,None,233.22343169996748,None,234.1808716999949,None,234.1808716999949,234.68087829998694,,,,,,,,,,,,,,,,206,2023-04-21_10h44.42.910,FishGame,2022.1.1,60.15236593365569,
,22,넌 창조적이야,2,Orange,B,6.125,4.633333333333334,ScrollUp,ScrollDown,Orange.png,2,Positive,Incongruent,,,,,0,0,0,0,,,,,,,,,,,,,,,,,0,21,21,21,,,,,,,,,,,,,,,,,,,,,,,,,,,,,,,,,,,,,,,,,,,,,,,,,,,,,,,,,,,,,,,,,,,,,,,,,,,,,2,0.9482977000297979,235.2963393999962,None,ScrollUp,정답입니다,235.2963393999962,None,235.2963393999962,None,235.2963393999962,None,235.2963393999962,None,236.14762880001217,None,236.14762880001217,236.64760109997587,,,,,,,,,,,,,,,,206,2023-04-21_10h44.42.910,FishGame,2022.1.1,60.15236593365569,
,23,나를 보내줘,6,Green,A,0,0,ScrollUp,ScrollDown,Green.png,2,NonTarget,NonTarget,,,,,0,0,0,0,,,,,,,,,,,,,,,,,0,22,22,22,,,,,,,,,,,,,,,,,,,,,,,,,,,,,,,,,,,,,,,,,,,,,,,,,,,,,,,,,,,,,,,,,,,,,,,,,,,,,2,1.0814217000151984,237.251695199986,None,ScrollUp,정답입니다,237.251695199986,None,237.251695199986,None,237.251695199986,None,237.251695199986,None,238.24544289999176,None,238.24544289999176,238.74745049997,,,,,,,,,,,,,,,,206,2023-04-21_10h44.42.910,FishGame,2022.1.1,60.15236593365569,
,24,넌 통찰력있어,2,Green,A,6.5,4.8,ScrollDown,ScrollUp,Green.png,2,Positive,Congruent,,,,,0,0,0,0,,,,,,,,,,,,,,,,,0,23,23,23,,,,,,,,,,,,,,,,,,,,,,,,,,,,,,,,,,,,,,,,,,,,,,,,,,,,,,,,,,,,,,,,,,,,,,,,,,,,,1,0.7648296999977902,239.3552205999731,None,ScrollDown,정답입니다,239.3552205999731,None,239.3552205999731,None,239.3552205999731,None,239.3552205999731,None,240.03082280000672,None,240.03082280000672,240.53081590001239,,,,,,,,,,,,,,,,206,2023-04-21_10h44.42.910,FishGame,2022.1.1,60.15236593365569,
,25,넌 경솔해,5,Orange,B,2.458333333333333,2.266666666666667,ScrollUp,ScrollDown,Orange.png,2,Negative,Congruent,,,,,0,0,0,0,,,,,,,,,,,,,,,,,0,24,24,24,,,,,,,,,,,,,,,,,,,,,,,,,,,,,,,,,,,,,,,,,,,,,,,,,,,,,,,,,,,,,,,,,,,,,,,,,,,,,2,0.9481099999975413,241.13974080001935,None,ScrollUp,정답입니다,241.13974080001935,None,241.13974080001935,None,241.13974080001935,None,241.13974080001935,None,241.99761929997476,None,241.99761929997476,242.49733809998725,,,,,,,,,,,,,,,,206,2023-04-21_10h44.42.910,FishGame,2022.1.1,60.15236593365569,
,26,넌 초조해,4,Green,A,2.916666666666667,3.133333333333333,ScrollDown,ScrollUp,Green.png,2,Negative,Incongruent,,,,,0,0,0,0,,,,,,,,,,,,,,,,,0,25,25,25,,,,,,,,,,,,,,,,,,,,,,,,,,,,,,,,,,,,,,,,,,,,,,,,,,,,,,,,,,,,,,,,,,,,,,,,,,,,,1,0.7629631999880075,243.1035746000125,None,ScrollDown,정답입니다,243.1035746000125,None,243.1035746000125,None,243.1035746000125,None,243.1035746000125,None,243.78069980000146,None,243.78069980000146,244.28068640001584,,,,,,,,,,,,,,,,206,2023-04-21_10h44.42.910,FishGame,2022.1.1,60.15236593365569,
,27,넌 무관심해,4,Orange,B,2.833333333333333,2.9,ScrollUp,ScrollDown,Orange.png,2,Negative,Congruent,,,,,0,0,0,0,,,,,,,,,,,,,,,,,0,26,26,26,,,,,,,,,,,,,,,,,,,,,,,,,,,,,,,,,,,,,,,,,,,,,,,,,,,,,,,,,,,,,,,,,,,,,,,,,,,,,2,0.981507699994836,244.88987169996835,None,ScrollUp,정답입니다,244.88987169996835,None,244.88987169996835,None,244.88987169996835,None,244.88987169996835,None,245.78065500000957,None,245.78065500000957,246.28072440001415,,,,,,,,,,,,,,,,206,2023-04-21_10h44.42.910,FishGame,2022.1.1,60.15236593365569,
,28,넌 감성적이야,3,Orange,B,4.125,4.166666666666667,ScrollUp,ScrollDown,Orange.png,2,Neutral,Neutral,,,,,0,0,0,0,,,,,,,,,,,,,,,,,0,27,27,27,,,,,,,,,,,,,,,,,,,,,,,,,,,,,,,,,,,,,,,,,,,,,,,,,,,,,,,,,,,,,,,,,,,,,,,,,,,,,2,0.8793130000121891,246.89366559998598,None,ScrollUp,정답입니다,246.89366559998598,None,246.89366559998598,None,246.89366559998598,None,246.89366559998598,None,247.6806576999952,None,247.6806576999952,248.18060869997134,,,,,,,,,,,,,,,,206,2023-04-21_10h44.42.910,FishGame,2022.1.1,60.15236593365569,
,29,넌 배려심있어,1,Green,A,6.083333333333333,5.5,ScrollDown,ScrollUp,Green.png,2,Positive,Congruent,,,,,0,0,0,0,,,,,,,,,,,,,,,,,0,28,28,28,,,,,,,,,,,,,,,,,,,,,,,,,,,,,,,,,,,,,,,,,,,,,,,,,,,,,,,,,,,,,,,,,,,,,,,,,,,,,1,0.8626953999628313,248.7872560999822,None,ScrollDown,정답입니다,248.7872560999822,None,248.7872560999822,None,248.7872560999822,None,248.7872560999822,None,249.5639881999814,None,249.5639881999814,250.063970600022,,,,,,,,,,,,,,,,206,2023-04-21_10h44.42.910,FishGame,2022.1.1,60.15236593365569,
,30,넌 숨김없어,3,Green,A,4.5,4.933333333333334,ScrollDown,ScrollUp,Green.png,2,Neutral,Neutral,,,,,0,0,0,0,,,,,,,,,,,,,,,,,0,29,29,29,,,,,,,,,,,,,,,,,,,,,,,,,,,,,,,,,,,,,,,,,,,,,,,,,,,,,,,,,,,,,,,,,,,,,,,,,,,,,1,0.8625002999906428,250.6721130000078,None,ScrollDown,정답입니다,250.6721130000078,None,250.6721130000078,None,250.6721130000078,None,250.6721130000078,None,251.44501530000707,None,251.44501530000707,251.94490910001332,,,,,,,,,,,,,,,,206,2023-04-21_10h44.42.910,FishGame,2022.1.1,60.15236593365569,
,31,넌 훌륭해,2,Orange,B,5.916666666666667,4.033333333333333,ScrollUp,ScrollDown,Orange.png,2,Positive,Incongruent,,,,,0,0,0,0,,,,,,,,,,,,,,,,,0,30,30,30,,,,,,,,,,,,,,,,,,,,,,,,,,,,,,,,,,,,,,,,,,,,,,,,,,,,,,,,,,,,,,,,,,,,,,,,,,,,,2,0.9507533999858424,252.55283860000782,None,ScrollUp,정답입니다,252.55283860000782,None,252.55283860000782,None,252.55283860000782,None,252.55283860000782,None,253.41409099998418,None,253.41409099998418,253.91396440000972,,,,,,,,,,,,,,,,206,2023-04-21_10h44.42.910,FishGame,2022.1.1,60.15236593365569,
,32,넌 슬기로워,2,Green,A,6.166666666666667,4.1,ScrollDown,ScrollUp,Green.png,2,Positive,Congruent,,,,,0,0,0,0,,,,,,,,,,,,,,,,,0,31,31,31,,,,,,,,,,,,,,,,,,,,,,,,,,,,,,,,,,,,,,,,,,,,,,,,,,,,,,,,,,,,,,,,,,,,,,,,,,,,,1,0.8486328999861144,254.52058359998045,None,ScrollDown,정답입니다,254.52058359998045,None,254.52058359998045,None,254.52058359998045,None,254.52058359998045,None,255.28068769996753,None,255.28068769996753,255.78066869999748,,,,,,,,,,,,,,,,206,2023-04-21_10h44.42.910,FishGame,2022.1.1,60.15236593365569,
,33,넌 냉혹해,5,Green,A,2.583333333333333,2.1,ScrollDown,ScrollUp,Green.png,2,Negative,Incongruent,,,,,0,0,0,0,,,,,,,,,,,,,,,,,0,32,32,32,,,,,,,,,,,,,,,,,,,,,,,,,,,,,,,,,,,,,,,,,,,,,,,,,,,,,,,,,,,,,,,,,,,,,,,,,,,,,1,0.9483719000127167,256.3880082999822,None,ScrollDown,정답입니다,256.3880082999822,None,256.3880082999822,None,256.3880082999822,None,256.3880082999822,None,257.2471456999774,None,257.2471456999774,257.74709670001175,,,,,,,,,,,,,,,,206,2023-04-21_10h44.42.910,FishGame,2022.1.1,60.15236593365569,
,34,나를 데려가줘,6,Orange,B,0,0,ScrollDown,ScrollUp,Orange.png,2,NonTarget,NonTarget,,,,,0,0,0,0,,,,,,,,,,,,,,,,,0,33,33,33,,,,,,,,,,,,,,,,,,,,,,,,,,,,,,,,,,,,,,,,,,,,,,,,,,,,,,,,,,,,,,,,,,,,,,,,,,,,,1,1.0295393000124022,258.359912600019,None,ScrollDown,정답입니다,258.359912600019,None,258.359912600019,None,258.359912600019,None,258.359912600019,None,259.29500609997194,None,259.29500609997194,259.79703790001804,,,,,,,,,,,,,,,,206,2023-04-21_10h44.42.910,FishGame,2022.1.1,60.15236593365569,
,35,넌 편파적이야,5,Orange,B,2.125,2,ScrollUp,ScrollDown,Orange.png,2,Negative,Congruent,,,,,0,0,0,0,,,,,,,,,,,,,,,,,0,34,34,34,,,,,,,,,,,,,,,,,,,,,,,,,,,,,,,,,,,,,,,,,,,,,,,,,,,,,,,,,,,,,,,,,,,,,,,,,,,,,2,1.0171329000149854,260.40472880000016,None,ScrollUp,정답입니다,260.40472880000016,None,260.40472880000016,None,260.40472880000016,None,260.40472880000016,None,261.32817270001397,None,261.32817270001397,261.8303664000123,,,,,,,,,,,,,,,,206,2023-04-21_10h44.42.910,FishGame,2022.1.1,60.15236593365569,
,36,넌 슬퍼,4,Green,A,2.583333333333333,3.066666666666667,ScrollDown,ScrollUp,Green.png,2,Negative,Incongruent,,,,,0,0,0,0,,,,,,,,,,,,,,,,,0,35,35,35,,,,,,,,,,,,,,,,,,,,,,,,,,,,,,,,,,,,,,,,,,,,,,,,,,,,,,,,,,,,,,,,,,,,,,,,,,,,,1,0.7925433000200428,262.43454260000726,None,ScrollDown,정답입니다,262.43454260000726,None,262.43454260000726,None,262.43454260000726,None,262.43454260000726,None,263.14017079997575,None,263.14017079997575,263.64696450001793,,,,,,,,,,,,,,,,206,2023-04-21_10h44.42.910,FishGame,2022.1.1,60.15236593365569,
,37,나를 데려가줘,6,Orange,B,0,0,ScrollDown,ScrollUp,Orange.png,2,NonTarget,NonTarget,,,,,0,0,0,0,,,,,,,,,,,,,,,,,0,36,36,36,,,,,,,,,,,,,,,,,,,,,,,,,,,,,,,,,,,,,,,,,,,,,,,,,,,,,,,,,,,,,,,,,,,,,,,,,,,,,1,1.0652275000466034,264.2535162999993,None,ScrollDown,정답입니다,264.2535162999993,None,264.2535162999993,None,264.2535162999993,None,264.2535162999993,None,265.22825960000046,None,265.22825960000046,265.7302604999859,,,,,,,,,,,,,,,,206,2023-04-21_10h44.42.910,FishGame,2022.1.1,60.15236593365569,
,38,넌 친절해,1,Orange,B,6.041666666666667,5.533333333333333,ScrollUp,ScrollDown,Orange.png,2,Positive,Incongruent,,,,,0,0,0,0,,,,,,,,,,,,,,,,,0,37,37,37,,,,,,,,,,,,,,,,,,,,,,,,,,,,,,,,,,,,,,,,,,,,,,,,,,,,,,,,,,,,,,,,,,,,,,,,,,,,,2,0.9795903000049293,266.34103299997514,None,ScrollUp,정답입니다,266.34103299997514,None,266.34103299997514,None,266.34103299997514,None,266.34103299997514,None,267.2303246000083,None,267.2303246000083,267.73028050002176,,,,,,,,,,,,,,,,206,2023-04-21_10h44.42.910,FishGame,2022.1.1,60.15236593365569,
,1,넌 엉성해,4,Green,A,3,3.3,ScrollDown,ScrollUp,Green.png,3,Negative,Incongruent,,,,,0,0,0,0,,,,,,,,,,,,,,,,,,,,,0,0,0,0,,,,,,,,,,,,,,,,,,,,,,,,,,,,,,,,301.1963426999864,302.6964079000172,302.7298311999766,303.67972879996523,303.7297759000212,304.67968559998553,304.67968559998553,None,,,,,,,,,,,,,,,,,,,,,,,,,,,,,,,,,,1,1.3085253000026569,305.75798729999224,None,ScrollDown,정답입니다,305.75798729999224,None,305.75798729999224,None,305.75798729999224,None,305.75798729999224,None,306.9794450000045,None,306.9794450000045,307.4794233000139,268.23042540001916,None,268.23042540001916,None,0.26759258,-0.09907407,1,0,0,0.016238209966104478,None,298.2324733000132,None,,,206,2023-04-21_10h44.42.910,FishGame,2022.1.1,60.15236593365569,
,2,나를 보내줘,6,Green,A,0,0,ScrollUp,ScrollDown,Green.png,3,NonTarget,NonTarget,,,,,0,0,0,0,,,,,,,,,,,,,,,,,,,,,0,1,1,1,,,,,,,,,,,,,,,,,,,,,,,,,,,,,,,,,,,,,,,,,,,,,,,,,,,,,,,,,,,,,,,,,,,,,,,,,2,1.0459791000466794,308.08339819998946,None,ScrollUp,정답입니다,308.08339819998946,None,308.08339819998946,None,308.08339819998946,None,308.08339819998946,None,309.0460290000192,None,309.0460290000192,309.546073000005,,,,,,,,,,,,,,,,206,2023-04-21_10h44.42.910,FishGame,2022.1.1,60.15236593365569,
,3,넌 활발해,1,Orange,B,5.666666666666667,5.6,ScrollUp,ScrollDown,Orange.png,3,Positive,Incongruent,,,,,0,0,0,0,,,,,,,,,,,,,,,,,,,,,0,2,2,2,,,,,,,,,,,,,,,,,,,,,,,,,,,,,,,,,,,,,,,,,,,,,,,,,,,,,,,,,,,,,,,,,,,,,,,,,2,1.0313950999989174,310.1560159000219,None,ScrollUp,정답입니다,310.1560159000219,None,310.1560159000219,None,310.1560159000219,None,310.1560159000219,None,311.09610610001255,None,311.09610610001255,311.59606110001914,,,,,,,,,,,,,,,,206,2023-04-21_10h44.42.910,FishGame,2022.1.1,60.15236593365569,
,4,넌 논리적이야,2,Green,A,5.666666666666666,4.633333333333334,ScrollDown,ScrollUp,Green.png,3,Positive,Congruent,,,,,0,0,0,0,,,,,,,,,,,,,,,,,,,,,0,3,3,3,,,,,,,,,,,,,,,,,,,,,,,,,,,,,,,,,,,,,,,,,,,,,,,,,,,,,,,,,,,,,,,,,,,,,,,,,1,0.9960750000318512,312.2022269999725,None,ScrollDown,정답입니다,312.2022269999725,None,312.2022269999725,None,312.2022269999725,None,312.2022269999725,None,313.11265600001207,None,313.11265600001207,313.61265630001435,,,,,,,,,,,,,,,,206,2023-04-21_10h44.42.910,FishGame,2022.1.1,60.15236593365569,
,5,넌 과묵해,3,Green,A,3.875,4.4,ScrollDown,ScrollUp,Green.png,3,Neutral,Neutral,,,,,0,0,0,0,,,,,,,,,,,,,,,,,,,,,0,4,4,4,,,,,,,,,,,,,,,,,,,,,,,,,,,,,,,,,,,,,,,,,,,,,,,,,,,,,,,,,,,,,,,,,,,,,,,,,1,1.081866699969396,314.22130299999844,None,ScrollDown,정답입니다,314.22130299999844,None,314.22130299999844,None,314.22130299999844,None,314.22130299999844,None,315.2126325999852,None,315.2126325999852,315.71260929998243,,,,,,,,,,,,,,,,206,2023-04-21_10h44.42.910,FishGame,2022.1.1,60.15236593365569,
,6,나를 데려가줘,6,Orange,B,0,0,ScrollDown,ScrollUp,Orange.png,3,NonTarget,NonTarget,,,,,0,0,0,0,,,,,,,,,,,,,,,,,,,,,0,5,5,5,,,,,,,,,,,,,,,,,,,,,,,,,,,,,,,,,,,,,,,,,,,,,,,,,,,,,,,,,,,,,,,,,,,,,,,,,1,1.0794988999841735,316.3193843999761,None,ScrollDown,정답입니다,316.3193843999761,None,316.3193843999761,None,316.3193843999761,None,316.3193843999761,None,317.3105138000101,None,317.3105138000101,317.8125428999774,,,,,,,,,,,,,,,,206,2023-04-21_10h44.42.910,FishGame,2022.1.1,60.15236593365569,
,7,넌 미숙해,4,Orange,B,3,3,ScrollUp,ScrollDown,Orange.png,3,Negative,Congruent,,,,,0,0,0,0,,,,,,,,,,,,,,,,,,,,,0,6,6,6,,,,,,,,,,,,,,,,,,,,,,,,,,,,,,,,,,,,,,,,,,,,,,,,,,,,,,,,,,,,,,,,,,,,,,,,,2,1.0485535999760032,318.4179073999985,None,ScrollUp,정답입니다,318.4179073999985,None,318.4179073999985,None,318.4179073999985,None,318.4179073999985,None,319.37922309996793,None,319.37922309996793,319.8792123000021,,,,,,,,,,,,,,,,206,2023-04-21_10h44.42.910,FishGame,2022.1.1,60.15236593365569,
,8,나를 보내줘,6,Green,A,0,0,ScrollUp,ScrollDown,Green.png,3,NonTarget,NonTarget,,,,,0,0,0,0,,,,,,,,,,,,,,,,,,,,,0,7,7,7,,,,,,,,,,,,,,,,,,,,,,,,,,,,,,,,,,,,,,,,,,,,,,,,,,,,,,,,,,,,,,,,,,,,,,,,,2,1.0795645999605767,320.4828011000063,None,ScrollUp,정답입니다,320.4828011000063,None,320.4828011000063,None,320.4828011000063,None,320.4828011000063,None,321.4791538999998,None,321.4791538999998,321.9791119999718,,,,,,,,,,,,,,,,206,2023-04-21_10h44.42.910,FishGame,2022.1.1,60.15236593365569,
,9,넌 자신만만해,3,Orange,B,4.833333333333334,4.333333333333333,ScrollUp,ScrollDown,Orange.png,3,Neutral,Neutral,,,,,0,0,0,0,,,,,,,,,,,,,,,,,,,,,0,8,8,8,,,,,,,,,,,,,,,,,,,,,,,,,,,,,,,,,,,,,,,,,,,,,,,,,,,,,,,,,,,,,,,,,,,,,,,,,2,1.0314697999856435,322.5853847999824,None,ScrollUp,정답입니다,322.5853847999824,None,322.5853847999824,None,322.5853847999824,None,322.5853847999824,None,323.52918760001194,None,323.52918760001194,324.0290513000218,,,,,,,,,,,,,,,,206,2023-04-21_10h44.42.910,FishGame,2022.1.1,60.15236593365569,
,10,넌 탐욕스러워,5,Green,A,2.25,2.1,ScrollDown,ScrollUp,Green.png,3,Negative,Incongruent,,,,,0,0,0,0,,,,,,,,,,,,,,,,,,,,,0,9,9,9,,,,,,,,,,,,,,,,,,,,,,,,,,,,,,,,,,,,,,,,,,,,,,,,,,,,,,,,,,,,,,,,,,,,,,,,,1,0.9651507000089623,324.63731010002084,None,ScrollDown,정답입니다,324.63731010002084,None,324.63731010002084,None,324.63731010002084,None,324.63731010002084,None,325.51248009997653,None,325.51248009997653,326.0124230000074,,,,,,,,,,,,,,,,206,2023-04-21_10h44.42.910,FishGame,2022.1.1,60.15236593365569,
,11,넌 인기있어,2,Green,A,5.458333333333333,4.5,ScrollDown,ScrollUp,Green.png,3,Positive,Congruent,,,,,0,0,0,0,,,,,,,,,,,,,,,,,,,,,0,10,10,10,,,,,,,,,,,,,,,,,,,,,,,,,,,,,,,,,,,,,,,,,,,,,,,,,,,,,,,,,,,,,,,,,,,,,,,,,1,0.896054400014691,326.6159329999937,None,ScrollDown,정답입니다,326.6159329999937,None,326.6159329999937,None,326.6159329999937,None,326.6159329999937,None,327.42904030001955,None,327.42904030001955,327.94565830001375,,,,,,,,,,,,,,,,206,2023-04-21_10h44.42.910,FishGame,2022.1.1,60.15236593365569,
,12,나를 데려가줘,6,Orange,B,0,0,ScrollDown,ScrollUp,Orange.png,3,NonTarget,NonTarget,,,,,0,0,0,0,,,,,,,,,,,,,,,,,,,,,0,11,11,11,,,,,,,,,,,,,,,,,,,,,,,,,,,,,,,,,,,,,,,,,,,,,,,,,,,,,,,,,,,,,,,,,,,,,,,,,1,1.0485446999664418,328.5356350999791,None,ScrollDown,정답입니다,328.5356350999791,None,328.5356350999791,None,328.5356350999791,None,328.5356350999791,None,329.4957149999682,None,329.4957149999682,329.9956376000191,,,,,,,,,,,,,,,,206,2023-04-21_10h44.42.910,FishGame,2022.1.1,60.15236593365569,
,13,넌 뛰어나,2,Orange,B,6.166666666666667,4,ScrollUp,ScrollDown,Orange.png,3,Positive,Incongruent,,,,,0,0,0,0,,,,,,,,,,,,,,,,,,,,,0,12,12,12,,,,,,,,,,,,,,,,,,,,,,,,,,,,,,,,,,,,,,,,,,,,,,,,,,,,,,,,,,,,,,,,,,,,,,,,,2,0.9483003000495955,330.604193200008,None,ScrollUp,정답입니다,330.604193200008,None,330.604193200008,None,330.604193200008,None,330.604193200008,None,331.46235929999966,None,331.46235929999966,331.96224680001615,,,,,,,,,,,,,,,,206,2023-04-21_10h44.42.910,FishGame,2022.1.1,60.15236593365569,
,14,넌 낙관적이야,1,Green,A,5.75,5.8,ScrollDown,ScrollUp,Green.png,3,Positive,Congruent,,,,,0,0,0,0,,,,,,,,,,,,,,,,,,,,,0,13,13,13,,,,,,,,,,,,,,,,,,,,,,,,,,,,,,,,,,,,,,,,,,,,,,,,,,,,,,,,,,,,,,,,,,,,,,,,,1.0385802288850148,0.7296829000115395,332.56873589998577,None,ScrollDown,정답입니다,332.56873589998577,None,332.56873589998577,None,332.56873589998577,None,332.56873589998577,None,333.2102412999957,None,333.2102412999957,333.71221879997756,,,,,,,,,,,,,,,,206,2023-04-21_10h44.42.910,FishGame,2022.1.1,60.15236593365569,
,15,넌 산만해,4,Orange,B,2.695652173913043,3.033333333333333,ScrollUp,ScrollDown,Orange.png,3,Negative,Congruent,,,,,0,0,0,0,,,,,,,,,,,,,,,,,,,,,0,14,14,14,,,,,,,,,,,,,,,,,,,,,,,,,,,,,,,,,,,,,,,,,,,,,,,,,,,,,,,,,,,,,,,,,,,,,,,,,2,0.9817773000104353,334.3210448999889,None,ScrollUp,정답입니다,334.3210448999889,None,334.3210448999889,None,334.3210448999889,None,334.3210448999889,None,335.2122750999988,None,335.2122750999988,335.71227139997063,,,,,,,,,,,,,,,,206,2023-04-21_10h44.42.910,FishGame,2022.1.1,60.15236593365569,
,16,나를 보내줘,6,Green,A,0,0,ScrollUp,ScrollDown,Green.png,3,NonTarget,NonTarget,,,,,0,0,0,0,,,,,,,,,,,,,,,,,,,,,0,15,15,15,,,,,,,,,,,,,,,,,,,,,,,,,,,,,,,,,,,,,,,,,,,,,,,,,,,,,,,,,,,,,,,,,,,,,,,,,2,1.0456296000047587,336.3216429000022,None,ScrollUp,정답입니다,336.3216429000022,None,336.3216429000022,None,336.3216429000022,None,336.3216429000022,None,337.27651850000257,None,337.27651850000257,337.77651359996526,,,,,,,,,,,,,,,,206,2023-04-21_10h44.42.910,FishGame,2022.1.1,60.15236593365569,
,17,넌 교활해,5,Orange,B,2.333333333333333,2.133333333333333,ScrollUp,ScrollDown,Orange.png,3,Negative,Congruent,,,,,0,0,0,0,,,,,,,,,,,,,,,,,,,,,0,16,16,16,,,,,,,,,,,,,,,,,,,,,,,,,,,,,,,,,,,,,,,,,,,,,,,,,,,,,,,,,,,,,,,,,,,,,,,,,2,1.1486759000108577,338.38498209998943,None,ScrollUp,정답입니다,338.38498209998943,None,338.38498209998943,None,338.38498209998943,None,338.38498209998943,None,339.44562750001205,None,339.44562750001205,339.9456036000047,,,,,,,,,,,,,,,,206,2023-04-21_10h44.42.910,FishGame,2022.1.1,60.15236593365569,
,18,나를 보내줘,6,Green,A,0,0,ScrollUp,ScrollDown,Green.png,3,NonTarget,NonTarget,,,,,0,0,0,0,,,,,,,,,,,,,,,,,,,,,0,17,17,17,,,,,,,,,,,,,,,,,,,,,,,,,,,,,,,,,,,,,,,,,,,,,,,,,,,,,,,,,,,,,,,,,,,,,,,,,2,1.048233900044579,340.54982169996947,None,ScrollUp,정답입니다,340.54982169996947,None,340.54982169996947,None,340.54982169996947,None,340.54982169996947,None,341.51230279996525,None,341.51230279996525,342.01208519999636,,,,,,,,,,,,,,,,206,2023-04-21_10h44.42.910,FishGame,2022.1.1,60.15236593365569,
,19,넌 불친절해,5,Orange,B,2.208333333333333,2.033333333333333,ScrollUp,ScrollDown,Orange.png,3,Negative,Congruent,,,,,0,0,0,0,,,,,,,,,,,,,,,,,,,,,0,18,18,18,,,,,,,,,,,,,,,,,,,,,,,,,,,,,,,,,,,,,,,,,,,,,,,,,,,,,,,,,,,,,,,,,,,,,,,,,2,1.0486851999885403,342.62065950001124,None,ScrollUp,정답입니다,342.62065950001124,None,342.62065950001124,None,342.62065950001124,None,342.62065950001124,None,343.5787862999714,None,343.5787862999714,344.0787377000088,,,,,,,,,,,,,,,,206,2023-04-21_10h44.42.910,FishGame,2022.1.1,60.15236593365569,
,20,넌 지적이야,2,Orange,B,5.75,4.366666666666666,ScrollUp,ScrollDown,Orange.png,3,Positive,Incongruent,,,,,0,0,0,0,,,,,,,,,,,,,,,,,,,,,0,19,19,19,,,,,,,,,,,,,,,,,,,,,,,,,,,,,,,,,,,,,,,,,,,,,,,,,,,,,,,,,,,,,,,,,,,,,,,,,2,0.9461182000231929,344.6846526999725,None,ScrollUp,정답입니다,344.6846526999725,None,344.6846526999725,None,344.6846526999725,None,344.6846526999725,None,345.54325789998984,None,345.54325789998984,346.04528650001157,,,,,,,,,,,,,,,,206,2023-04-21_10h44.42.910,FishGame,2022.1.1,60.15236593365569,
,21,넌 우유부단해,4,Green,A,2.666666666666667,3.166666666666667,ScrollDown,ScrollUp,Green.png,3,Negative,Incongruent,,,,,0,0,0,0,,,,,,,,,,,,,,,,,,,,,0,20,20,20,,,,,,,,,,,,,,,,,,,,,,,,,,,,,,,,,,,,,,,,,,,,,,,,,,,,,,,,,,,,,,,,,,,,,,,,,1,0.9652844999800436,346.65252519998467,None,ScrollDown,정답입니다,346.65252519998467,None,346.65252519998467,None,346.65252519998467,None,346.65252519998467,None,347.52878839999903,None,347.52878839999903,348.02869130001636,,,,,,,,,,,,,,,,206,2023-04-21_10h44.42.910,FishGame,2022.1.1,60.15236593365569,
,22,나를 데려가줘,6,Orange,B,0,0,ScrollDown,ScrollUp,Orange.png,3,NonTarget,NonTarget,,,,,0,0,0,0,,,,,,,,,,,,,,,,,,,,,0,21,21,21,,,,,,,,,,,,,,,,,,,,,,,,,,,,,,,,,,,,,,,,,,,,,,,,,,,,,,,,,,,,,,,,,,,,,,,,,1,1.112709500011988,348.6407790000085,None,ScrollDown,정답입니다,348.6407790000085,None,348.6407790000085,None,348.6407790000085,None,348.6407790000085,None,349.6598544999724,None,349.6598544999724,350.1618684999994,,,,,,,,,,,,,,,,206,2023-04-21_10h44.42.910,FishGame,2022.1.1,60.15236593365569,
,23,넌 성실해,1,Orange,B,6.041666666666666,5.7,ScrollUp,ScrollDown,Orange.png,3,Positive,Incongruent,,,,,0,0,0,0,,,,,,,,,,,,,,,,,,,,,0,22,22,22,,,,,,,,,,,,,,,,,,,,,,,,,,,,,,,,,,,,,,,,,,,,,,,,,,,,,,,,,,,,,,,,,,,,,,,,,2,0.9294561000424437,350.7673155000084,None,ScrollUp,정답입니다,350.7673155000084,None,350.7673155000084,None,350.7673155000084,None,350.7673155000084,None,351.61189820000436,None,351.61189820000436,352.1118989000097,,,,,,,,,,,,,,,,206,2023-04-21_10h44.42.910,FishGame,2022.1.1,60.15236593365569,
,24,넌 현실주의적이야,3,Green,A,4.625,4.4,ScrollDown,ScrollUp,Green.png,3,Neutral,Neutral,,,,,0,0,0,0,,,,,,,,,,,,,,,,,,,,,0,23,23,23,,,,,,,,,,,,,,,,,,,,,,,,,,,,,,,,,,,,,,,,,,,,,,,,,,,,,,,,,,,,,,,,,,,,,,,,,1,0.9127685999847017,352.7163259999943,None,ScrollDown,정답입니다,352.7163259999943,None,352.7163259999943,None,352.7163259999943,None,352.7163259999943,None,353.54310419998365,None,353.54310419998365,354.04309049999574,,,,,,,,,,,,,,,,206,2023-04-21_10h44.42.910,FishGame,2022.1.1,60.15236593365569,
,25,넌 진실돼,1,Green,A,6.625,5.566666666666666,ScrollDown,ScrollUp,Green.png,3,Positive,Congruent,,,,,0,0,0,0,,,,,,,,,,,,,,,,,,,,,0,24,24,24,,,,,,,,,,,,,,,,,,,,,,,,,,,,,,,,,,,,,,,,,,,,,,,,,,,,,,,,,,,,,,,,,,,,,,,,,1,0.9651586000109091,354.6510205999948,None,ScrollDown,정답입니다,354.6510205999948,None,354.6510205999948,None,354.6510205999948,None,354.6510205999948,None,355.52646109997295,None,355.52646109997295,356.0284575999831,,,,,,,,,,,,,,,,206,2023-04-21_10h44.42.910,FishGame,2022.1.1,60.15236593365569,
,26,넌 천진난만해,3,Orange,B,4.958333333333334,4.833333333333333,ScrollUp,ScrollDown,Orange.png,3,Neutral,Neutral,,,,,0,0,0,0,,,,,,,,,,,,,,,,,,,,,0,25,25,25,,,,,,,,,,,,,,,,,,,,,,,,,,,,,,,,,,,,,,,,,,,,,,,,,,,,,,,,,,,,,,,,,,,,,,,,,2,1.0483376999618486,356.6382201999659,None,ScrollUp,정답입니다,356.6382201999659,None,356.6382201999659,None,356.6382201999659,None,356.6382201999659,None,357.5952490000054,None,357.5952490000054,358.09512959996937,,,,,,,,,,,,,,,,206,2023-04-21_10h44.42.910,FishGame,2022.1.1,60.15236593365569,
,27,넌 교양없어,5,Green,A,2.416666666666667,2.2,ScrollDown,ScrollUp,Green.png,3,Negative,Incongruent,,,,,0,0,0,0,,,,,,,,,,,,,,,,,,,,,0,26,26,26,,,,,,,,,,,,,,,,,,,,,,,,,,,,,,,,,,,,,,,,,,,,,,,,,,,,,,,,,,,,,,,,,,,,,,,,,1,1.0286113999900408,358.7051509000012,None,ScrollDown,정답입니다,358.7051509000012,None,358.7051509000012,None,358.7051509000012,None,358.7051509000012,None,359.64508809999097,None,359.64508809999097,360.14508609997574,,,,,,,,,,,,,,,,206,2023-04-21_10h44.42.910,FishGame,2022.1.1,60.15236593365569,
,28,나를 보내줘,6,Green,A,0,0,ScrollUp,ScrollDown,Green.png,3,NonTarget,NonTarget,,,,,0,0,0,0,,,,,,,,,,,,,,,,,,,,,0,27,27,27,,,,,,,,,,,,,,,,,,,,,,,,,,,,,,,,,,,,,,,,,,,,,,,,,,,,,,,,,,,,,,,,,,,,,,,,,2,1.0784562000189908,360.7516836000141,None,ScrollUp,정답입니다,360.7516836000141,None,360.7516836000141,None,360.7516836000141,None,360.7516836000141,None,361.74499450001167,None,361.74499450001167,362.2449840999907,,,,,,,,,,,,,,,,206,2023-04-21_10h44.42.910,FishGame,2022.1.1,60.15236593365569,
,29,넌 엉뚱스러워,3,Green,A,4.166666666666667,4.133333333333334,ScrollDown,ScrollUp,Green.png,3,Neutral,Neutral,,,,,0,0,0,0,,,,,,,,,,,,,,,,,,,,,0,28,28,28,,,,,,,,,,,,,,,,,,,,,,,,,,,,,,,,,,,,,,,,,,,,,,,,,,,,,,,,,,,,,,,,,,,,,,,,,1,1.096343299956061,362.8524170999881,None,ScrollDown,정답입니다,362.8524170999881,None,362.8524170999881,None,362.8524170999881,None,362.8524170999881,None,363.8615848000045,None,363.8615848000045,364.3615864000167,,,,,,,,,,,,,,,,206,2023-04-21_10h44.42.910,FishGame,2022.1.1,60.15236593365569,
,30,넌 무지해,4,Orange,B,2.541666666666667,3.066666666666667,ScrollUp,ScrollDown,Orange.png,3,Negative,Congruent,,,,,0,0,0,0,,,,,,,,,,,,,,,,,,,,,0,29,29,29,,,,,,,,,,,,,,,,,,,,,,,,,,,,,,,,,,,,,,,,,,,,,,,,,,,,,,,,,,,,,,,,,,,,,,,,,2,0.9319166000350378,364.9681166000082,None,ScrollUp,정답입니다,364.9681166000082,None,364.9681166000082,None,364.9681166000082,None,364.9681166000082,None,365.81157259998145,None,365.81157259998145,366.30939439998474,,,,,,,,,,,,,,,,206,2023-04-21_10h44.42.910,FishGame,2022.1.1,60.15236593365569,
,31,넌 음울해,5,Orange,B,2.25,2.233333333333333,ScrollUp,ScrollDown,Orange.png,3,Negative,Congruent,,,,,0,0,0,0,,,,,,,,,,,,,,,,,,,,,0,30,30,30,,,,,,,,,,,,,,,,,,,,,,,,,,,,,,,,,,,,,,,,,,,,,,,,,,,,,,,,,,,,,,,,,,,,,,,,,2,0.9980807999963872,366.9226358999731,None,ScrollUp,정답입니다,366.9226358999731,None,366.9226358999731,None,366.9226358999731,None,366.9226358999731,None,367.82840639998903,None,367.82840639998903,368.3434235000168,,,,,,,,,,,,,,,,206,2023-04-21_10h44.42.910,FishGame,2022.1.1,60.15236593365569,
,32,넌 냉소적이야,5,Green,A,2.916666666666667,2.4,ScrollDown,ScrollUp,Green.png,3,Negative,Incongruent,,,,,0,0,0,0,,,,,,,,,,,,,,,,,,,,,0,31,31,31,,,,,,,,,,,,,,,,,,,,,,,,,,,,,,,,,,,,,,,,,,,,,,,,,,,,,,,,,,,,,,,,,,,,,,,,,1,0.9317751000053249,368.9323851999943,None,ScrollDown,정답입니다,368.9323851999943,None,368.9323851999943,None,368.9323851999943,None,368.9323851999943,None,369.7782917000004,None,369.7782917000004,370.2781354999752,,,,,,,,,,,,,,,,206,2023-04-21_10h44.42.910,FishGame,2022.1.1,60.15236593365569,
,33,나를 데려가줘,6,Orange,B,0,0,ScrollDown,ScrollUp,Orange.png,3,NonTarget,NonTarget,,,,,0,0,0,0,,,,,,,,,,,,,,,,,,,,,0,32,32,32,,,,,,,,,,,,,,,,,,,,,,,,,,,,,,,,,,,,,,,,,,,,,,,,,,,,,,,,,,,,,,,,,,,,,,,,,1,1.0132028000080027,370.88555379997706,None,ScrollDown,정답입니다,370.88555379997706,None,370.88555379997706,None,370.88555379997706,None,370.88555379997706,None,371.811556199973,None,371.811556199973,372.3114971999894,,,,,,,,,,,,,,,,206,2023-04-21_10h44.42.910,FishGame,2022.1.1,60.15236593365569,
,34,넌 쾌활해,1,Green,A,5.541666666666666,5.733333333333333,ScrollDown,ScrollUp,Green.png,3,Positive,Congruent,,,,,0,0,0,0,,,,,,,,,,,,,,,,,,,,,0,33,33,33,,,,,,,,,,,,,,,,,,,,,,,,,,,,,,,,,,,,,,,,,,,,,,,,,,,,,,,,,,,,,,,,,,,,,,,,,1,0.8796997999888845,372.91749329998856,None,ScrollDown,정답입니다,372.91749329998856,None,372.91749329998856,None,372.91749329998856,None,372.91749329998856,None,373.7114588000113,None,373.7114588000113,374.2280406000209,,,,,,,,,,,,,,,,206,2023-04-21_10h44.42.910,FishGame,2022.1.1,60.15236593365569,
,35,나를 보내줘,6,Green,A,0,0,ScrollUp,ScrollDown,Green.png,3,NonTarget,NonTarget,,,,,0,0,0,0,,,,,,,,,,,,,,,,,,,,,0,34,34,34,,,,,,,,,,,,,,,,,,,,,,,,,,,,,,,,,,,,,,,,,,,,,,,,,,,,,,,,,,,,,,,,,,,,,,,,,2,1.031946400005836,374.81529830000363,None,ScrollUp,정답입니다,374.81529830000363,None,374.81529830000363,None,374.81529830000363,None,374.81529830000363,None,375.7614120999933,None,375.7614120999933,376.26139419997344,,,,,,,,,,,,,,,,206,2023-04-21_10h44.42.910,FishGame,2022.1.1,60.15236593365569,
,36,넌 명랑해,1,Orange,B,5.739130434782609,5.666666666666667,ScrollUp,ScrollDown,Orange.png,3,Positive,Incongruent,,,,,0,0,0,0,,,,,,,,,,,,,,,,,,,,,0,35,35,35,,,,,,,,,,,,,,,,,,,,,,,,,,,,,,,,,,,,,,,,,,,,,,,,,,,,,,,,,,,,,,,,,,,,,,,,,2,0.9817946000257507,376.8699408000102,None,ScrollUp,정답입니다,376.8699408000102,None,376.8699408000102,None,376.8699408000102,None,376.8699408000102,None,377.7593609999749,None,377.7593609999749,378.2646625000052,,,,,,,,,,,,,,,,206,2023-04-21_10h44.42.910,FishGame,2022.1.1,60.15236593365569,
,37,넌 멍해,4,Green,A,2.833333333333333,3.4,ScrollDown,ScrollUp,Green.png,3,Negative,Incongruent,,,,,0,0,0,0,,,,,,,,,,,,,,,,,,,,,0,36,36,36,,,,,,,,,,,,,,,,,,,,,,,,,,,,,,,,,,,,,,,,,,,,,,,,,,,,,,,,,,,,,,,,,,,,,,,,,1,0.9149931999854743,378.8666840000078,None,ScrollDown,정답입니다,378.8666840000078,None,378.8666840000078,None,378.8666840000078,None,378.8666840000078,None,379.69460709998384,None,379.69460709998384,380.21130139997695,,,,,,,,,,,,,,,,206,2023-04-21_10h44.42.910,FishGame,2022.1.1,60.15236593365569,
,38,나를 데려가줘,6,Orange,B,0,0,ScrollDown,ScrollUp,Orange.png,3,NonTarget,NonTarget,,,,,0,0,0,0,,,,,,,,,,,,,,,,,,,,,0,37,37,37,,,,,,,,,,,,,,,,,,,,,,,,,,,,,,,,,,,,,,,,,,,,,,,,,,,,,,,,,,,,,,,,,,,,,,,,,1,1.0986322999815457,380.80066339997575,None,ScrollDown,정답입니다,380.80066339997575,None,380.80066339997575,None,380.80066339997575,None,380.80066339997575,None,381.81127820000984,None,381.81127820000984,382.31129370001145,,,,,,,,,,,,,,,,206,2023-04-21_10h44.42.910,FishGame,2022.1.1,60.15236593365569,
,39,넌 현명해,2,Green,A,6.541666666666666,4.533333333333333,ScrollDown,ScrollUp,Green.png,3,Positive,Congruent,,,,,0,0,0,0,,,,,,,,,,,,,,,,,,,,,0,38,38,38,,,,,,,,,,,,,,,,,,,,,,,,,,,,,,,,,,,,,,,,,,,,,,,,,,,,,,,,,,,,,,,,,,,,,,,,,1,1.098595599993132,382.92103500000667,None,ScrollDown,정답입니다,382.92103500000667,None,382.92103500000667,None,382.92103500000667,None,382.92103500000667,None,383.9278445999953,None,383.9278445999953,384.4278704000171,,,,,,,,,,,,,,,,206,2023-04-21_10h44.42.910,FishGame,2022.1.1,60.15236593365569,
,40,넌 수줍어,3,Orange,B,3.541666666666666,4.366666666666666,ScrollUp,ScrollDown,Orange.png,3,Neutral,Neutral,,,,,0,0,0,0,,,,,,,,,,,,,,,,,,,,,0,39,39,39,,,,,,,,,,,,,,,,,,,,,,,,,,,,,,,,,,,,,,,,,,,,,,,,,,,,,,,,,,,,,,,,,,,,,,,,,2,0.898409899964463,385.03650539997034,None,ScrollUp,정답입니다,385.03650539997034,None,385.03650539997034,None,385.03650539997034,None,385.03650539997034,None,385.84469599998556,None,385.84469599998556,386.36113629996544,,,,,,,,,,,,,,,,206,2023-04-21_10h44.42.910,FishGame,2022.1.1,60.15236593365569,
,41,나를 데려가줘,6,Orange,B,0,0,ScrollDown,ScrollUp,Orange.png,3,NonTarget,NonTarget,,,,,0,0,0,0,,,,,,,,,,,,,,,,,,,,,0,40,40,40,,,,,,,,,,,,,,,,,,,,,,,,,,,,,,,,,,,,,,,,,,,,,,,,,,,,,,,,,,,,,,,,,,,,,,,,,1,1.1797128000180237,386.9557849999983,None,ScrollDown,정답입니다,386.9557849999983,None,386.9557849999983,None,386.9557849999983,None,386.9557849999983,None,388.0424471999868,None,388.0424471999868,388.5444507999928,,,,,,,,,,,,,,,,206,2023-04-21_10h44.42.910,FishGame,2022.1.1,60.15236593365569,
,42,넌 성숙해,2,Orange,B,5.833333333333333,4.533333333333333,ScrollUp,ScrollDown,Orange.png,3,Positive,Incongruent,,,,,0,0,0,0,,,,,,,,,,,,,,,,,,,,,0,41,41,41,,,,,,,,,,,,,,,,,,,,,,,,,,,,,,,,,,,,,,,,,,,,,,,,,,,,,,,,,,,,,,,,,,,,,,,,,2,1.2146592999924906,389.15115789999254,None,ScrollUp,정답입니다,389.15115789999254,None,389.15115789999254,None,389.15115789999254,None,389.15115789999254,None,390.2779669999727,None,390.2779669999727,390.77779169997666,,,,,,,,,,,,,,,,206,2023-04-21_10h44.42.910,FishGame,2022.1.1,60.15236593365569,
,1,넌 매력적이야,2,Orange,B,6.125,4.666666666666667,ScrollUp,ScrollDown,Orange.png,4,Positive,Incongruent,,,,,0,0,0,0,,,,,,,,,,,,,,,,,,,,,,,,,0,0,0,0,,,,,,,,,,,,,,,,,,,,,,,,,,,,423.8104958999902,425.30845620000036,425.34391930000857,426.2939989999868,426.3438857999863,427.29390859999694,427.29390859999694,None,,,,,,,,,,,,,,,,,,,,,,,,,,,,,,,,,,2,1.292719200020656,428.3753178999759,None,ScrollUp,정답입니다,428.3753178999759,None,428.3753178999759,None,428.3753178999759,None,428.3753178999759,None,429.5770900999778,None,429.5770900999778,430.07692959997803,391.2778407000005,None,391.2778407000005,None,0.25555557,-0.09537037,1,0,0,0.016172009985893965,None,421.2801595000201,None,,,206,2023-04-21_10h44.42.910,FishGame,2022.1.1,60.15236593365569,
,2,나를 보내줘,6,Green,A,0,0,ScrollUp,ScrollDown,Green.png,4,NonTarget,NonTarget,,,,,0,0,0,0,,,,,,,,,,,,,,,,,,,,,,,,,0,1,1,1,,,,,,,,,,,,,,,,,,,,,,,,,,,,,,,,,,,,,,,,,,,,,,,,,,,,,,,,,,,,,,,,,,,,,2,1.0792705999920145,430.68120970000746,None,ScrollUp,정답입니다,430.68120970000746,None,430.68120970000746,None,430.68120970000746,None,430.68120970000746,None,431.6748559999978,None,431.6748559999978,432.176894299977,,,,,,,,,,,,,,,,206,2023-04-21_10h44.42.910,FishGame,2022.1.1,60.15236593365569,
,3,넌 조심스러워,3,Green,A,4.791666666666666,4.666666666666667,ScrollDown,ScrollUp,Green.png,4,Neutral,Neutral,,,,,0,0,0,0,,,,,,,,,,,,,,,,,,,,,,,,,0,2,2,2,,,,,,,,,,,,,,,,,,,,,,,,,,,,,,,,,,,,,,,,,,,,,,,,,,,,,,,,,,,,,,,,,,,,,1,0.9485653999727219,432.78136319998885,None,ScrollDown,정답입니다,432.78136319998885,None,432.78136319998885,None,432.78136319998885,None,432.78136319998885,None,433.6415432000067,None,433.6415432000067,434.14359629998216,,,,,,,,,,,,,,,,206,2023-04-21_10h44.42.910,FishGame,2022.1.1,60.15236593365569,
,4,넌 철학적이야,3,Orange,B,4.5,4.266666666666667,ScrollUp,ScrollDown,Orange.png,4,Neutral,Neutral,,,,,0,0,0,0,,,,,,,,,,,,,,,,,,,,,,,,,0,3,3,3,,,,,,,,,,,,,,,,,,,,,,,,,,,,,,,,,,,,,,,,,,,,,,,,,,,,,,,,,,,,,,,,,,,,,2,0.9295905999606475,434.7548435999779,None,ScrollUp,정답입니다,434.7548435999779,None,434.7548435999779,None,434.7548435999779,None,434.7548435999779,None,435.593469000014,None,435.593469000014,436.09351440001046,,,,,,,,,,,,,,,,206,2023-04-21_10h44.42.910,FishGame,2022.1.1,60.15236593365569,
,5,넌 쩨쩨해,5,Green,A,2.375,2.133333333333333,ScrollDown,ScrollUp,Green.png,4,Negative,Incongruent,,,,,0,0,0,0,,,,,,,,,,,,,,,,,,,,,,,,,0,4,4,4,,,,,,,,,,,,,,,,,,,,,,,,,,,,,,,,,,,,,,,,,,,,,,,,,,,,,,,,,,,,,,,,,,,,,1,1.0461567000020295,436.6990835000179,None,ScrollDown,정답입니다,436.6990835000179,None,436.6990835000179,None,436.6990835000179,None,436.6990835000179,None,437.66030019999016,None,437.66030019999016,438.16015169996535,,,,,,,,,,,,,,,,206,2023-04-21_10h44.42.910,FishGame,2022.1.1,60.15236593365569,
,6,나를 데려가줘,6,Orange,B,0,0,ScrollDown,ScrollUp,Orange.png,4,NonTarget,NonTarget,,,,,0,0,0,0,,,,,,,,,,,,,,,,,,,,,,,,,0,5,5,5,,,,,,,,,,,,,,,,,,,,,,,,,,,,,,,,,,,,,,,,,,,,,,,,,,,,,,,,,,,,,,,,,,,,,1,1.1294172999914736,438.76999010000145,None,ScrollDown,정답입니다,438.76999010000145,None,438.76999010000145,None,438.76999010000145,None,438.76999010000145,None,439.8100679999916,None,439.8100679999916,440.31004349997966,,,,,,,,,,,,,,,,206,2023-04-21_10h44.42.910,FishGame,2022.1.1,60.15236593365569,
,7,넌 고집불통이야,5,Orange,B,2.875,2,ScrollUp,ScrollDown,Orange.png,4,Negative,Congruent,,,,,0,0,0,0,,,,,,,,,,,,,,,,,,,,,,,,,0,6,6,6,,,,,,,,,,,,,,,,,,,,,,,,,,,,,,,,,,,,,,,,,,,,,,,,,,,,,,,,,,,,,,,,,,,,,2,1.0127998000243679,440.9202757999883,None,ScrollUp,정답입니다,440.9202757999883,None,440.9202757999883,None,440.9202757999883,None,440.9202757999883,None,441.843414700008,None,441.843414700008,442.34339340002043,,,,,,,,,,,,,,,,206,2023-04-21_10h44.42.910,FishGame,2022.1.1,60.15236593365569,
,8,넌 무심해,4,Green,A,2.875,3.2,ScrollDown,ScrollUp,Green.png,4,Negative,Incongruent,,,,,0,0,0,0,,,,,,,,,,,,,,,,,,,,,,,,,0,7,7,7,,,,,,,,,,,,,,,,,,,,,,,,,,,,,,,,,,,,,,,,,,,,,,,,,,,,,,,,,,,,,,,,,,,,,1,0.9463249999680556,442.94709400000283,None,ScrollDown,정답입니다,442.94709400000283,None,442.94709400000283,None,442.94709400000283,None,442.94709400000283,None,443.81010279996553,None,443.81010279996553,444.31006579997484,,,,,,,,,,,,,,,,206,2023-04-21_10h44.42.910,FishGame,2022.1.1,60.15236593365569,
,9,넌 정겨워,1,Green,A,5.791666666666667,5.666666666666667,ScrollDown,ScrollUp,Green.png,4,Positive,Congruent,,,,,0,0,0,0,,,,,,,,,,,,,,,,,,,,,,,,,0,8,8,8,,,,,,,,,,,,,,,,,,,,,,,,,,,,,,,,,,,,,,,,,,,,,,,,,,,,,,,,,,,,,,,,,,,,,1,0.8462042000028305,444.93364790000487,None,ScrollDown,정답입니다,444.93364790000487,None,444.93364790000487,None,444.93364790000487,None,444.93364790000487,None,445.6912692000042,None,445.6912692000042,446.1932553999941,,,,,,,,,,,,,,,,206,2023-04-21_10h44.42.910,FishGame,2022.1.1,60.15236593365569,
,10,나를 데려가줘,6,Orange,B,0,0,ScrollDown,ScrollUp,Orange.png,4,NonTarget,NonTarget,,,,,0,0,0,0,,,,,,,,,,,,,,,,,,,,,,,,,0,9,9,9,,,,,,,,,,,,,,,,,,,,,,,,,,,,,,,,,,,,,,,,,,,,,,,,,,,,,,,,,,,,,,,,,,,,,1,1.113013399997726,446.8005161000183,None,ScrollDown,정답입니다,446.8005161000183,None,446.8005161000183,None,446.8005161000183,None,446.8005161000183,None,447.8266183999949,None,447.8266183999949,448.3266323999851,,,,,,,,,,,,,,,,206,2023-04-21_10h44.42.910,FishGame,2022.1.1,60.15236593365569,
,11,넌 체제순응적이야,4,Orange,B,3,3.6,ScrollUp,ScrollDown,Orange.png,4,Negative,Congruent,,,,,0,0,0,0,,,,,,,,,,,,,,,,,,,,,,,,,0,10,10,10,,,,,,,,,,,,,,,,,,,,,,,,,,,,,,,,,,,,,,,,,,,,,,,,,,,,,,,,,,,,,,,,,,,,,2,0.912627799960319,448.9469042000128,None,ScrollUp,정답입니다,448.9469042000128,None,448.9469042000128,None,448.9469042000128,None,448.9469042000128,None,449.75765869999304,None,449.75765869999304,450.25759220001055,,,,,,,,,,,,,,,,206,2023-04-21_10h44.42.910,FishGame,2022.1.1,60.15236593365569,
,12,나를 보내줘,6,Green,A,0,0,ScrollUp,ScrollDown,Green.png,4,NonTarget,NonTarget,,,,,0,0,0,0,,,,,,,,,,,,,,,,,,,,,,,,,0,11,11,11,,,,,,,,,,,,,,,,,,,,,,,,,,,,,,,,,,,,,,,,,,,,,,,,,,,,,,,,,,,,,,,,,,,,,2,1.016267400002107,450.85976419999497,None,ScrollUp,정답입니다,450.85976419999497,None,450.85976419999497,None,450.85976419999497,None,450.85976419999497,None,451.79092389997095,None,451.79092389997095,452.2933401999762,,,,,,,,,,,,,,,,206,2023-04-21_10h44.42.910,FishGame,2022.1.1,60.15236593365569,
,13,넌 박식해,2,Green,A,5.625,3.933333333333333,ScrollDown,ScrollUp,Green.png,4,Positive,Congruent,,,,,0,0,0,0,,,,,,,,,,,,,,,,,,,,,,,,,0,12,12,12,,,,,,,,,,,,,,,,,,,,,,,,,,,,,,,,,,,,,,,,,,,,,,,,,,,,,,,,,,,,,,,,,,,,,1,1.031652000034228,452.90115609997883,None,ScrollDown,정답입니다,452.90115609997883,None,452.90115609997883,None,452.90115609997883,None,452.90115609997883,None,453.843437500007,None,453.843437500007,454.34641009999905,,,,,,,,,,,,,,,,206,2023-04-21_10h44.42.910,FishGame,2022.1.1,60.15236593365569,
,14,나를 보내줘,6,Green,A,0,0,ScrollUp,ScrollDown,Green.png,4,NonTarget,NonTarget,,,,,0,0,0,0,,,,,,,,,,,,,,,,,,,,,,,,,0,13,13,13,,,,,,,,,,,,,,,,,,,,,,,,,,,,,,,,,,,,,,,,,,,,,,,,,,,,,,,,,,,,,,,,,,,,,2,1.012800399970729,454.9461576999747,None,ScrollUp,정답입니다,454.9461576999747,None,454.9461576999747,None,454.9461576999747,None,454.9461576999747,None,455.87642489996506,None,455.87642489996506,456.3764886999852,,,,,,,,,,,,,,,,206,2023-04-21_10h44.42.910,FishGame,2022.1.1,60.15236593365569,
,15,넌 침착해,1,Orange,B,5.458333333333333,5.566666666666666,ScrollUp,ScrollDown,Orange.png,4,Positive,Incongruent,,,,,0,0,0,0,,,,,,,,,,,,,,,,,,,,,,,,,0,14,14,14,,,,,,,,,,,,,,,,,,,,,,,,,,,,,,,,,,,,,,,,,,,,,,,,,,,,,,,,,,,,,,,,,,,,,2,1.050006499979645,456.98453299998073,None,ScrollUp,정답입니다,456.98453299998073,None,456.98453299998073,None,456.98453299998073,None,456.98453299998073,None,457.9284888000111,None,457.9284888000111,458.4430159999756,,,,,,,,,,,,,,,,206,2023-04-21_10h44.42.910,FishGame,2022.1.1,60.15236593365569,
,16,나를 데려가줘,6,Orange,B,0,0,ScrollDown,ScrollUp,Orange.png,4,NonTarget,NonTarget,,,,,0,0,0,0,,,,,,,,,,,,,,,,,,,,,,,,,0,15,15,15,,,,,,,,,,,,,,,,,,,,,,,,,,,,,,,,,,,,,,,,,,,,,,,,,,,,,,,,,,,,,,,,,,,,,1,1.081904000020586,459.04935549997026,None,ScrollDown,정답입니다,459.04935549997026,None,459.04935549997026,None,459.04935549997026,None,459.04935549997026,None,460.0410061000148,None,460.0410061000148,460.5430839000037,,,,,,,,,,,,,,,,206,2023-04-21_10h44.42.910,FishGame,2022.1.1,60.15236593365569,
,17,넌 행복해,1,Green,A,6.416666666666666,6.166666666666667,ScrollDown,ScrollUp,Green.png,4,Positive,Congruent,,,,,0,0,0,0,,,,,,,,,,,,,,,,,,,,,,,,,0,16,16,16,,,,,,,,,,,,,,,,,,,,,,,,,,,,,,,,,,,,,,,,,,,,,,,,,,,,,,,,,,,,,,,,,,,,,1,1.4627078999765217,461.15103680000175,None,ScrollDown,정답입니다,461.15103680000175,None,461.15103680000175,None,461.15103680000175,None,461.15103680000175,None,462.5240745000192,None,462.5240745000192,463.0239916999708,,,,,,,,,,,,,,,,206,2023-04-21_10h44.42.910,FishGame,2022.1.1,60.15236593365569,
,18,넌 겸손해,2,Orange,B,5.791666666666667,4.766666666666667,ScrollUp,ScrollDown,Orange.png,4,Positive,Incongruent,,,,,0,0,0,0,,,,,,,,,,,,,,,,,,,,,,,,,0,17,17,17,,,,,,,,,,,,,,,,,,,,,,,,,,,,,,,,,,,,,,,,,,,,,,,,,,,,,,,,,,,,,,,,,,,,,2,1.0342685999930836,463.6383885999676,None,ScrollUp,정답입니다,463.6383885999676,None,463.6383885999676,None,463.6383885999676,None,463.6383885999676,None,464.57649249996757,None,464.57649249996757,465.0764448000118,,,,,,,,,,,,,,,,206,2023-04-21_10h44.42.910,FishGame,2022.1.1,60.15236593365569,
,19,나를 보내줘,6,Green,A,0,0,ScrollUp,ScrollDown,Green.png,4,NonTarget,NonTarget,,,,,0,0,0,0,,,,,,,,,,,,,,,,,,,,,,,,,0,18,18,18,,,,,,,,,,,,,,,,,,,,,,,,,,,,,,,,,,,,,,,,,,,,,,,,,,,,,,,,,,,,,,,,,,,,,1.9537037014961243,1.3150318000116386,465.68121720000636,None,ScrollUp,정답입니다,465.68121720000636,None,465.68121720000636,None,465.68121720000636,None,465.68121720000636,None,466.9095754000009,None,466.9095754000009,467.4095619000145,,,,,,,,,,,,,,,,206,2023-04-21_10h44.42.910,FishGame,2022.1.1,60.15236593365569,
,20,넌 의심없어,3,Green,A,4.166666666666667,4.6,ScrollDown,ScrollUp,Green.png,4,Neutral,Neutral,,,,,0,0,0,0,,,,,,,,,,,,,,,,,,,,,,,,,0,19,19,19,,,,,,,,,,,,,,,,,,,,,,,,,,,,,,,,,,,,,,,,,,,,,,,,,,,,,,,,,,,,,,,,,,,,,1,1.0818092999979854,468.01387490000343,None,ScrollDown,정답입니다,468.01387490000343,None,468.01387490000343,None,468.01387490000343,None,468.01387490000343,None,469.0096082999953,None,469.0096082999953,469.5094837999786,,,,,,,,,,,,,,,,206,2023-04-21_10h44.42.910,FishGame,2022.1.1,60.15236593365569,
,21,넌 시시해,4,Green,A,2.666666666666667,2.966666666666667,ScrollDown,ScrollUp,Green.png,4,Negative,Incongruent,,,,,0,0,0,0,,,,,,,,,,,,,,,,,,,,,,,,,0,20,20,20,,,,,,,,,,,,,,,,,,,,,,,,,,,,,,,,,,,,,,,,,,,,,,,,,,,,,,,,,,,,,,,,,,,,,1,1.0129234999767505,470.1117480999674,None,ScrollDown,정답입니다,470.1117480999674,None,470.1117480999674,None,470.1117480999674,None,470.1117480999674,None,471.0428131999797,None,471.0428131999797,471.5427724000183,,,,,,,,,,,,,,,,206,2023-04-21_10h44.42.910,FishGame,2022.1.1,60.15236593365569,
,22,나를 데려가줘,6,Orange,B,0,0,ScrollDown,ScrollUp,Orange.png,4,NonTarget,NonTarget,,,,,0,0,0,0,,,,,,,,,,,,,,,,,,,,,,,,,0,21,21,21,,,,,,,,,,,,,,,,,,,,,,,,,,,,,,,,,,,,,,,,,,,,,,,,,,,,,,,,,,,,,,,,,,,,,1,1.1126895999768749,472.14693260000786,None,ScrollDown,정답입니다,472.14693260000786,None,472.14693260000786,None,472.14693260000786,None,472.14693260000786,None,473.1762480000034,None,473.1762480000034,473.67613659997005,,,,,,,,,,,,,,,,206,2023-04-21_10h44.42.910,FishGame,2022.1.1,60.15236593365569,
,23,넌 무정해,5,Green,A,2.5,2.2,ScrollDown,ScrollUp,Green.png,4,Negative,Incongruent,,,,,0,0,0,0,,,,,,,,,,,,,,,,,,,,,,,,,0,22,22,22,,,,,,,,,,,,,,,,,,,,,,,,,,,,,,,,,,,,,,,,,,,,,,,,,,,,,,,,,,,,,,,,,,,,,1,1.009434700012207,474.28933639999013,None,ScrollDown,정답입니다,474.28933639999013,None,474.28933639999013,None,474.28933639999013,None,474.28933639999013,None,475.20707850001054,None,475.20707850001054,475.7071336999652,,,,,,,,,,,,,,,,206,2023-04-21_10h44.42.910,FishGame,2022.1.1,60.15236593365569,
,24,넌 긍정적이야,1,Orange,B,6.041666666666667,6.066666666666666,ScrollUp,ScrollDown,Orange.png,4,Positive,Incongruent,,,,,0,0,0,0,,,,,,,,,,,,,,,,,,,,,,,,,0,23,23,23,,,,,,,,,,,,,,,,,,,,,,,,,,,,,,,,,,,,,,,,,,,,,,,,,,,,,,,,,,,,,,,,,,,,,2,1.1172342000063509,476.3149720999645,None,ScrollUp,정답입니다,476.3149720999645,None,476.3149720999645,None,476.3149720999645,None,476.3149720999645,None,477.3428328000009,None,477.3428328000009,477.8428363999701,,,,,,,,,,,,,,,,206,2023-04-21_10h44.42.910,FishGame,2022.1.1,60.15236593365569,
,25,나를 보내줘,6,Green,A,0,0,ScrollUp,ScrollDown,Green.png,4,NonTarget,NonTarget,,,,,0,0,0,0,,,,,,,,,,,,,,,,,,,,,,,,,0,24,24,24,,,,,,,,,,,,,,,,,,,,,,,,,,,,,,,,,,,,,,,,,,,,,,,,,,,,,,,,,,,,,,,,,,,,,2,1.1483402999583632,478.4457460999838,None,ScrollUp,정답입니다,478.4457460999838,None,478.4457460999838,None,478.4457460999838,None,478.4457460999838,None,479.509564100008,None,479.509564100008,480.0093048000126,,,,,,,,,,,,,,,,206,2023-04-21_10h44.42.910,FishGame,2022.1.1,60.15236593365569,
,26,넌 시기심이 많아,5,Orange,B,2.458333333333333,2.233333333333333,ScrollUp,ScrollDown,Orange.png,4,Negative,Congruent,,,,,0,0,0,0,,,,,,,,,,,,,,,,,,,,,,,,,0,25,25,25,,,,,,,,,,,,,,,,,,,,,,,,,,,,,,,,,,,,,,,,,,,,,,,,,,,,,,,,,,,,,,,,,,,,,2,1.0963861999916844,480.6177273999783,None,ScrollUp,정답입니다,480.6177273999783,None,480.6177273999783,None,480.6177273999783,None,480.6177273999783,None,481.625949600013,None,481.625949600013,482.12596309999935,,,,,,,,,,,,,,,,206,2023-04-21_10h44.42.910,FishGame,2022.1.1,60.15236593365569,
,27,넌 탁월해,2,Green,A,5.708333333333334,4.5,ScrollDown,ScrollUp,Green.png,4,Positive,Congruent,,,,,0,0,0,0,,,,,,,,,,,,,,,,,,,,,,,,,0,26,26,26,,,,,,,,,,,,,,,,,,,,,,,,,,,,,,,,,,,,,,,,,,,,,,,,,,,,,,,,,,,,,,,,,,,,,1,0.9429100999841467,482.74280800001,None,ScrollDown,정답입니다,482.74280800001,None,482.74280800001,None,482.74280800001,None,482.74280800001,None,483.5902631999925,None,483.5902631999925,484.09022700000787,,,,,,,,,,,,,,,,206,2023-04-21_10h44.42.910,FishGame,2022.1.1,60.15236593365569,
,28,나를 데려가줘,6,Orange,B,0,0,ScrollDown,ScrollUp,Orange.png,4,NonTarget,NonTarget,,,,,0,0,0,0,,,,,,,,,,,,,,,,,,,,,,,,,0,27,27,27,,,,,,,,,,,,,,,,,,,,,,,,,,,,,,,,,,,,,,,,,,,,,,,,,,,,,,,,,,,,,,,,,,,,,1,1.1011702999821864,484.69401039998047,None,ScrollDown,정답입니다,484.69401039998047,None,484.69401039998047,None,484.69401039998047,None,484.69401039998047,None,485.7093572000158,None,485.7093572000158,486.20928850001656,,,,,,,,,,,,,,,,206,2023-04-21_10h44.42.910,FishGame,2022.1.1,60.15236593365569,
,29,넌 조용해,3,Orange,B,4.333333333333333,4.166666666666667,ScrollUp,ScrollDown,Orange.png,4,Neutral,Neutral,,,,,0,0,0,0,,,,,,,,,,,,,,,,,,,,,,,,,0,28,28,28,,,,,,,,,,,,,,,,,,,,,,,,,,,,,,,,,,,,,,,,,,,,,,,,,,,,,,,,,,,,,,,,,,,,,2,1.1149709000019357,486.81789509998634,None,ScrollUp,정답입니다,486.81789509998634,None,486.81789509998634,None,486.81789509998634,None,486.81789509998634,None,487.84273520001443,None,487.84273520001443,488.3424467999721,,,,,,,,,,,,,,,,206,2023-04-21_10h44.42.910,FishGame,2022.1.1,60.15236593365569,
,30,넌 다정해,1,Green,A,5.833333333333334,5.7,ScrollDown,ScrollUp,Green.png,4,Positive,Congruent,,,,,0,0,0,0,,,,,,,,,,,,,,,,,,,,,,,,,0,29,29,29,,,,,,,,,,,,,,,,,,,,,,,,,,,,,,,,,,,,,,,,,,,,,,,,,,,,,,,,,,,,,,,,,,,,,1,1.0151504999957979,488.9460303999949,None,ScrollDown,정답입니다,488.9460303999949,None,488.9460303999949,None,488.9460303999949,None,488.9460303999949,None,489.87574519996997,None,489.87574519996997,490.37582359998487,,,,,,,,,,,,,,,,206,2023-04-21_10h44.42.910,FishGame,2022.1.1,60.15236593365569,
,31,넌 능력있어,2,Orange,B,6.166666666666666,4.6,ScrollUp,ScrollDown,Orange.png,4,Positive,Incongruent,,,,,0,0,0,0,,,,,,,,,,,,,,,,,,,,,,,,,0,30,30,30,,,,,,,,,,,,,,,,,,,,,,,,,,,,,,,,,,,,,,,,,,,,,,,,,,,,,,,,,,,,,,,,,,,,,2,1.0628829000052065,490.9825355000212,None,ScrollUp,정답입니다,490.9825355000212,None,490.9825355000212,None,490.9825355000212,None,490.9825355000212,None,491.95697569998447,None,491.95697569998447,492.458973300003,,,,,,,,,,,,,,,,206,2023-04-21_10h44.42.910,FishGame,2022.1.1,60.15236593365569,
,32,넌 불쾌해,5,Green,A,2.125,1.933333333333333,ScrollDown,ScrollUp,Green.png,4,Negative,Incongruent,,,,,0,0,0,0,,,,,,,,,,,,,,,,,,,,,,,,,0,31,31,31,,,,,,,,,,,,,,,,,,,,,,,,,,,,,,,,,,,,,,,,,,,,,,,,,,,,,,,,,,,,,,,,,,,,,1,1.015192900027614,493.06319529999746,None,ScrollDown,정답입니다,493.06319529999746,None,493.06319529999746,None,493.06319529999746,None,493.06319529999746,None,493.9924213999766,None,493.9924213999766,494.4923462999868,,,,,,,,,,,,,,,,206,2023-04-21_10h44.42.910,FishGame,2022.1.1,60.15236593365569,
,33,나를 데려가줘,6,Orange,B,0,0,ScrollDown,ScrollUp,Orange.png,4,NonTarget,NonTarget,,,,,0,0,0,0,,,,,,,,,,,,,,,,,,,,,,,,,0,32,32,32,,,,,,,,,,,,,,,,,,,,,,,,,,,,,,,,,,,,,,,,,,,,,,,,,,,,,,,,,,,,,,,,,,,,,1,1.0794959000195377,495.10417160001816,None,ScrollDown,정답입니다,495.10417160001816,None,495.10417160001816,None,495.10417160001816,None,495.10417160001816,None,496.09021130000474,None,496.09021130000474,496.5922390000196,,,,,,,,,,,,,,,,206,2023-04-21_10h44.42.910,FishGame,2022.1.1,60.15236593365569,
,34,넌 유순해,3,Green,A,4.458333333333333,5,ScrollDown,ScrollUp,Green.png,4,Neutral,Neutral,,,,,0,0,0,0,,,,,,,,,,,,,,,,,,,,,,,,,0,33,33,33,,,,,,,,,,,,,,,,,,,,,,,,,,,,,,,,,,,,,,,,,,,,,,,,,,,,,,,,,,,,,,,,,,,,,1,0.9982325999881141,497.1935769999982,None,ScrollDown,정답입니다,497.1935769999982,None,497.1935769999982,None,497.1935769999982,None,497.1935769999982,None,498.1070166999707,None,498.1070166999707,498.6089356999728,,,,,,,,,,,,,,,,206,2023-04-21_10h44.42.910,FishGame,2022.1.1,60.15236593365569,
,35,넌 근심스러워,4,Orange,B,2.708333333333333,3.133333333333333,ScrollUp,ScrollDown,Orange.png,4,Negative,Congruent,,,,,0,0,0,0,,,,,,,,,,,,,,,,,,,,,,,,,0,34,34,34,,,,,,,,,,,,,,,,,,,,,,,,,,,,,,,,,,,,,,,,,,,,,,,,,,,,,,,,,,,,,,,,,,,,,2,1.0464159999974072,499.2187132000108,None,ScrollUp,정답입니다,499.2187132000108,None,499.2187132000108,None,499.2187132000108,None,499.2187132000108,None,500.1754575999803,None,500.1754575999803,500.6754858000204,,,,,,,,,,,,,,,,206,2023-04-21_10h44.42.910,FishGame,2022.1.1,60.15236593365569,
,36,넌 세련되었어,2,Green,A,5.5,4.6,ScrollDown,ScrollUp,Green.png,4,Positive,Congruent,,,,,0,0,0,0,,,,,,,,,,,,,,,,,,,,,,,,,0,35,35,35,,,,,,,,,,,,,,,,,,,,,,,,,,,,,,,,,,,,,,,,,,,,,,,,,,,,,,,,,,,,,,,,,,,,,1,1.0484492999967188,501.2860407999833,None,ScrollDown,정답입니다,501.2860407999833,None,501.2860407999833,None,501.2860407999833,None,501.2860407999833,None,502.24015789997065,None,502.24015789997065,502.74217129999306,,,,,,,,,,,,,,,,206,2023-04-21_10h44.42.910,FishGame,2022.1.1,60.15236593365569,
,37,나를 보내줘,6,Green,A,0,0,ScrollUp,ScrollDown,Green.png,4,NonTarget,NonTarget,,,,,0,0,0,0,,,,,,,,,,,,,,,,,,,,,,,,,0,36,36,36,,,,,,,,,,,,,,,,,,,,,,,,,,,,,,,,,,,,,,,,,,,,,,,,,,,,,,,,,,,,,,,,,,,,,2,1.1140249999589287,503.3446117999847,None,ScrollUp,정답입니다,503.3446117999847,None,503.3446117999847,None,503.3446117999847,None,503.3446117999847,None,504.37313979998,None,504.37313979998,504.87313469999935,,,,,,,,,,,,,,,,206,2023-04-21_10h44.42.910,FishGame,2022.1.1,60.15236593365569,
,38,넌 확고해,3,Orange,B,4.708333333333334,4.566666666666666,ScrollUp,ScrollDown,Orange.png,4,Neutral,Neutral,,,,,0,0,0,0,,,,,,,,,,,,,,,,,,,,,,,,,0,37,37,37,,,,,,,,,,,,,,,,,,,,,,,,,,,,,,,,,,,,,,,,,,,,,,,,,,,,,,,,,,,,,,,,,,,,,2,1.0491921000066213,505.4808934999746,None,ScrollUp,정답입니다,505.4808934999746,None,505.4808934999746,None,505.4808934999746,None,505.4808934999746,None,506.43981159996474,None,506.43981159996474,506.9429243999766,,,,,,,,,,,,,,,,206,2023-04-21_10h44.42.910,FishGame,2022.1.1,60.15236593365569,
,39,넌 이해심이 많아,1,Orange,B,6.041666666666668,5.533333333333333,ScrollUp,ScrollDown,Orange.png,4,Positive,Incongruent,,,,,0,0,0,0,,,,,,,,,,,,,,,,,,,,,,,,,0,38,38,38,,,,,,,,,,,,,,,,,,,,,,,,,,,,,,,,,,,,,,,,,,,,,,,,,,,,,,,,,,,,,,,,,,,,,2,1.0319444999913685,507.54920629999833,None,ScrollUp,정답입니다,507.54920629999833,None,507.54920629999833,None,507.54920629999833,None,507.54920629999833,None,508.4922456999775,None,508.4922456999775,508.99217370001134,,,,,,,,,,,,,,,,206,2023-04-21_10h44.42.910,FishGame,2022.1.1,60.15236593365569,
,40,나를 보내줘,6,Green,A,0,0,ScrollUp,ScrollDown,Green.png,4,NonTarget,NonTarget,,,,,0,0,0,0,,,,,,,,,,,,,,,,,,,,,,,,,0,39,39,39,,,,,,,,,,,,,,,,,,,,,,,,,,,,,,,,,,,,,,,,,,,,,,,,,,,,,,,,,,,,,,,,,,,,,2,1.1484717999701388,509.59526859998005,None,ScrollUp,정답입니다,509.59526859998005,None,509.59526859998005,None,509.59526859998005,None,509.59526859998005,None,510.65663819998736,None,510.65663819998736,511.15647440002067,,,,,,,,,,,,,,,,206,2023-04-21_10h44.42.910,FishGame,2022.1.1,60.15236593365569,
,41,넌 거칠어,4,Green,A,2.625,3.033333333333333,ScrollDown,ScrollUp,Green.png,4,Negative,Incongruent,,,,,0,0,0,0,,,,,,,,,,,,,,,,,,,,,,,,,0,40,40,40,,,,,,,,,,,,,,,,,,,,,,,,,,,,,,,,,,,,,,,,,,,,,,,,,,,,,,,,,,,,,,,,,,,,,1,0.8925674999481998,511.7710038999794,None,ScrollDown,정답입니다,511.7710038999794,None,511.7710038999794,None,511.7710038999794,None,511.7710038999794,None,512.5729981000186,None,512.5729981000186,513.0733749999781,,,,,,,,,,,,,,,,206,2023-04-21_10h44.42.910,FishGame,2022.1.1,60.15236593365569,
,42,넌 변덕맞아,5,Orange,B,2.75,2.166666666666667,ScrollUp,ScrollDown,Orange.png,4,Negative,Congruent,,,,,0,0,0,0,,,,,,,,,,,,,,,,,,,,,,,,,0,41,41,41,,,,,,,,,,,,,,,,,,,,,,,,,,,,,,,,,,,,,,,,,,,,,,,,,,,,,,,,,,,,,,,,,,,,,2,1.1145038999966346,513.6820106999949,None,ScrollUp,정답입니다,513.6820106999949,None,513.6820106999949,None,513.6820106999949,None,513.6820106999949,None,514.7063229000196,None,514.7063229000196,515.2087157000205,,,,,,,,,,,,,,,,206,2023-04-21_10h44.42.910,FishGame,2022.1.1,60.15236593365569,
,43,나를 데려가줘,6,Orange,B,0,0,ScrollDown,ScrollUp,Orange.png,4,NonTarget,NonTarget,,,,,0,0,0,0,,,,,,,,,,,,,,,,,,,,,,,,,0,42,42,42,,,,,,,,,,,,,,,,,,,,,,,,,,,,,,,,,,,,,,,,,,,,,,,,,,,,,,,,,,,,,,,,,,,,,1,1.0986531999660656,515.8155949999928,None,ScrollDown,정답입니다,515.8155949999928,None,515.8155949999928,None,515.8155949999928,None,515.8155949999928,None,516.8254311999772,None,516.8254311999772,517.3254282000125,,,,,,,,,,,,,,,,206,2023-04-21_10h44.42.910,FishGame,2022.1.1,60.15236593365569,
,44,넌 외로워,4,Orange,B,2.833333333333333,3.3,ScrollUp,ScrollDown,Orange.png,4,Negative,Congruent,,,,,0,0,0,0,,,,,,,,,,,,,,,,,,,,,,,,,0,43,43,43,,,,,,,,,,,,,,,,,,,,,,,,,,,,,,,,,,,,,,,,,,,,,,,,,,,,,,,,,,,,,,,,,,,,,2,1.5650181000237353,517.938570600003,None,ScrollUp,정답입니다,517.938570600003,None,517.938570600003,None,517.938570600003,None,517.938570600003,None,519.4084726999863,None,519.4084726999863,519.9085485999822,,,,,,,,,,,,,,,,206,2023-04-21_10h44.42.910,FishGame,2022.1.1,60.15236593365569,
,1,넌 불평스러워,5,Green,A,2.25,2.066666666666667,ScrollDown,ScrollUp,Green.png,5,Negative,Incongruent,,,,,0,0,0,0,,,,,,,,,,,,,,,,,,,,,,,,,,,,,0,0,0,0,,,,,,,,,,,,,,,,,,,,,,,,552.5891325999983,554.0912999999709,554.1246862999978,555.0746307999943,555.1245921999798,556.0745999999926,556.0745999999926,None,,,,,,,,,,,,,,,,,,,,,,,,,,,,,,,,,,1,1.2240100000053644,557.1538084999775,None,ScrollDown,정답입니다,557.1538084999775,None,557.1538084999775,None,557.1538084999775,None,557.1538084999775,None,558.2910984000191,None,558.2910984000191,558.7910940999864,520.4120265999809,None,520.4120265999809,None,0.26296297,-0.097222224,1,0,0,0.01639220997458324,None,550.42439130001,None,,,206,2023-04-21_10h44.42.910,FishGame,2022.1.1,60.15236593365569,
,2,나를 보내줘,6,Green,A,0,0,ScrollUp,ScrollDown,Green.png,5,NonTarget,NonTarget,,,,,0,0,0,0,,,,,,,,,,,,,,,,,,,,,,,,,,,,,0,1,1,1,,,,,,,,,,,,,,,,,,,,,,,,,,,,,,,,,,,,,,,,,,,,,,,,,,,,,,,,,,,,,,,,,2,1.0627673999988474,559.3975524000125,None,ScrollUp,정답입니다,559.3975524000125,None,559.3975524000125,None,559.3975524000125,None,559.3975524000125,None,560.374316499976,None,560.374316499976,560.8743455999647,,,,,,,,,,,,,,,,206,2023-04-21_10h44.42.910,FishGame,2022.1.1,60.15236593365569,
,3,넌 다재다능해,2,Orange,B,6.208333333333333,4.5,ScrollUp,ScrollDown,Orange.png,5,Positive,Incongruent,,,,,0,0,0,0,,,,,,,,,,,,,,,,,,,,,,,,,,,,,0,2,2,2,,,,,,,,,,,,,,,,,,,,,,,,,,,,,,,,,,,,,,,,,,,,,,,,,,,,,,,,,,,,,,,,,2,1.0150453000096604,561.4788834999781,None,ScrollUp,정답입니다,561.4788834999781,None,561.4788834999781,None,561.4788834999781,None,561.4788834999781,None,562.4076549999882,None,562.4076549999882,562.9077586000203,,,,,,,,,,,,,,,,206,2023-04-21_10h44.42.910,FishGame,2022.1.1,60.15236593365569,
,4,넌 과감해,3,Green,A,4.833333333333334,4.6,ScrollDown,ScrollUp,Green.png,5,Neutral,Neutral,,,,,0,0,0,0,,,,,,,,,,,,,,,,,,,,,,,,,,,,,0,3,3,3,,,,,,,,,,,,,,,,,,,,,,,,,,,,,,,,,,,,,,,,,,,,,,,,,,,,,,,,,,,,,,,,,1,1.0794562000082806,563.5116455999669,None,ScrollDown,정답입니다,563.5116455999669,None,563.5116455999669,None,563.5116455999669,None,563.5116455999669,None,564.5054811000009,None,564.5054811000009,565.0075157000101,,,,,,,,,,,,,,,,206,2023-04-21_10h44.42.910,FishGame,2022.1.1,60.15236593365569,
,5,넌 고분고분해,3,Orange,B,3.75,4.033333333333333,ScrollUp,ScrollDown,Orange.png,5,Neutral,Neutral,,,,,0,0,0,0,,,,,,,,,,,,,,,,,,,,,,,,,,,,,0,4,4,4,,,,,,,,,,,,,,,,,,,,,,,,,,,,,,,,,,,,,,,,,,,,,,,,,,,,,,,,,,,,,,,,,2,0.9816959999734536,565.6170949999942,None,ScrollUp,정답입니다,565.6170949999942,None,565.6170949999942,None,565.6170949999942,None,565.6170949999942,None,566.5075680000009,None,566.5075680000009,567.0076025999733,,,,,,,,,,,,,,,,206,2023-04-21_10h44.42.910,FishGame,2022.1.1,60.15236593365569,
,6,나를 보내줘,6,Green,A,0,0,ScrollUp,ScrollDown,Green.png,5,NonTarget,NonTarget,,,,,0,0,0,0,,,,,,,,,,,,,,,,,,,,,,,,,,,,,0,5,5,5,,,,,,,,,,,,,,,,,,,,,,,,,,,,,,,,,,,,,,,,,,,,,,,,,,,,,,,,,,,,,,,,,2,1.0623480000067502,567.6116232000059,None,ScrollUp,정답입니다,567.6116232000059,None,567.6116232000059,None,567.6116232000059,None,567.6116232000059,None,568.5885063000023,None,568.5885063000023,569.0885012000217,,,,,,,,,,,,,,,,206,2023-04-21_10h44.42.910,FishGame,2022.1.1,60.15236593365569,
,7,넌 잘 잊어,4,Green,A,3,3.7,ScrollDown,ScrollUp,Green.png,5,Negative,Incongruent,,,,,0,0,0,0,,,,,,,,,,,,,,,,,,,,,,,,,,,,,0,6,6,6,,,,,,,,,,,,,,,,,,,,,,,,,,,,,,,,,,,,,,,,,,,,,,,,,,,,,,,,,,,,,,,,,1,1.0143527999753132,569.6947972999769,None,ScrollDown,정답입니다,569.6947972999769,None,569.6947972999769,None,569.6947972999769,None,569.6947972999769,None,570.621871499985,None,570.621871499985,571.1243258999893,,,,,,,,,,,,,,,,206,2023-04-21_10h44.42.910,FishGame,2022.1.1,60.15236593365569,
,8,넌 탐구심이없어,4,Orange,B,2.833333333333333,3.066666666666667,ScrollUp,ScrollDown,Orange.png,5,Negative,Congruent,,,,,0,0,0,0,,,,,,,,,,,,,,,,,,,,,,,,,,,,,0,7,7,7,,,,,,,,,,,,,,,,,,,,,,,,,,,,,,,,,,,,,,,,,,,,,,,,,,,,,,,,,,,,,,,,,2,0.9650212000124156,571.7349971000222,None,ScrollUp,정답입니다,571.7349971000222,None,571.7349971000222,None,571.7349971000222,None,571.7349971000222,None,572.6076842999901,None,572.6076842999901,573.1075158999884,,,,,,,,,,,,,,,,206,2023-04-21_10h44.42.910,FishGame,2022.1.1,60.15236593365569,
,9,나를 데려가줘,6,Orange,B,0,0,ScrollDown,ScrollUp,Orange.png,5,NonTarget,NonTarget,,,,,0,0,0,0,,,,,,,,,,,,,,,,,,,,,,,,,,,,,0,8,8,8,,,,,,,,,,,,,,,,,,,,,,,,,,,,,,,,,,,,,,,,,,,,,,,,,,,,,,,,,,,,,,,,,2,0.9627030999981798,573.7131032000179,None,ScrollUp,오답입니다,573.7131032000179,None,573.7131032000179,None,573.7131032000179,None,573.7131032000179,None,574.5887306999648,None,574.5887306999648,575.0907158000045,,,,,,,,,,,,,,,,206,2023-04-21_10h44.42.910,FishGame,2022.1.1,60.15236593365569,
,10,넌 참되어,2,Green,A,6.041666666666664,4.733333333333333,ScrollDown,ScrollUp,Green.png,5,Positive,Congruent,,,,,0,0,0,0,,,,,,,,,,,,,,,,,,,,,,,,,,,,,0,9,9,9,,,,,,,,,,,,,,,,,,,,,,,,,,,,,,,,,,,,,,,,,,,,,,,,,,,,,,,,,,,,,,,,,1,1.011793099984061,575.6986348999781,None,ScrollDown,정답입니다,575.6986348999781,None,575.6986348999781,None,575.6986348999781,None,575.6986348999781,None,576.6219662000076,None,576.6219662000076,577.1239796999726,,,,,,,,,,,,,,,,206,2023-04-21_10h44.42.910,FishGame,2022.1.1,60.15236593365569,
,11,넌 생기있어,1,Orange,B,5.875,5.633333333333334,ScrollUp,ScrollDown,Orange.png,5,Positive,Incongruent,,,,,0,0,0,0,,,,,,,,,,,,,,,,,,,,,,,,,,,,,0,10,10,10,,,,,,,,,,,,,,,,,,,,,,,,,,,,,,,,,,,,,,,,,,,,,,,,,,,,,,,,,,,,,,,,,2,1.1433866000152193,577.7336333999992,None,ScrollUp,정답입니다,577.7336333999992,None,577.7336333999992,None,577.7336333999992,None,577.7336333999992,None,578.7838005999802,None,578.7838005999802,579.2882996000117,,,,,,,,,,,,,,,,206,2023-04-21_10h44.42.910,FishGame,2022.1.1,60.15236593365569,
,12,넌 비사교적이야,4,Orange,B,2.875,2.9,ScrollUp,ScrollDown,Orange.png,5,Negative,Congruent,,,,,0,0,0,0,,,,,,,,,,,,,,,,,,,,,,,,,,,,,0,11,11,11,,,,,,,,,,,,,,,,,,,,,,,,,,,,,,,,,,,,,,,,,,,,,,,,,,,,,,,,,,,,,,,,,2,1.0317321000038646,579.8943728000158,None,ScrollUp,정답입니다,579.8943728000158,None,579.8943728000158,None,579.8943728000158,None,579.8943728000158,None,580.8383374999976,None,580.8383374999976,581.3406970999786,,,,,,,,,,,,,,,,206,2023-04-21_10h44.42.910,FishGame,2022.1.1,60.15236593365569,
,13,나를 데려가줘,6,Orange,B,0,0,ScrollDown,ScrollUp,Orange.png,5,NonTarget,NonTarget,,,,,0,0,0,0,,,,,,,,,,,,,,,,,,,,,,,,,,,,,0,12,12,12,,,,,,,,,,,,,,,,,,,,,,,,,,,,,,,,,,,,,,,,,,,,,,,,,,,,,,,,,,,,,,,,,1,1.2310446999617852,581.9475769000128,None,ScrollDown,정답입니다,581.9475769000128,None,581.9475769000128,None,581.9475769000128,None,581.9475769000128,None,583.090830000001,None,583.090830000001,583.5938131000148,,,,,,,,,,,,,,,,206,2023-04-21_10h44.42.910,FishGame,2022.1.1,60.15236593365569,
,14,넌 고독해,4,Green,A,2.916666666666667,3.233333333333333,ScrollDown,ScrollUp,Green.png,5,Negative,Incongruent,,,,,0,0,0,0,,,,,,,,,,,,,,,,,,,,,,,,,,,,,0,13,13,13,,,,,,,,,,,,,,,,,,,,,,,,,,,,,,,,,,,,,,,,,,,,,,,,,,,,,,,,,,,,,,,,,1,1.081375100009609,584.1923843999975,None,ScrollDown,정답입니다,584.1923843999975,None,584.1923843999975,None,584.1923843999975,None,584.1923843999975,None,585.1905205000076,None,585.1905205000076,585.688318200002,,,,,,,,,,,,,,,,206,2023-04-21_10h44.42.910,FishGame,2022.1.1,60.15236593365569,
,15,넌 신경질적이야,5,Orange,B,2.375,2.233333333333333,ScrollUp,ScrollDown,Orange.png,5,Negative,Congruent,,,,,0,0,0,0,,,,,,,,,,,,,,,,,,,,,,,,,,,,,0,14,14,14,,,,,,,,,,,,,,,,,,,,,,,,,,,,,,,,,,,,,,,,,,,,,,,,,,,,,,,,,,,,,,,,,2,1.0295550000155345,586.3004306000075,None,ScrollUp,정답입니다,586.3004306000075,None,586.3004306000075,None,586.3004306000075,None,586.3004306000075,None,587.2404374000034,None,587.2404374000034,587.7404319000198,,,,,,,,,,,,,,,,206,2023-04-21_10h44.42.910,FishGame,2022.1.1,60.15236593365569,
,16,넌 똑똑해,2,Orange,B,5.666666666666667,3.966666666666667,ScrollUp,ScrollDown,Orange.png,5,Positive,Incongruent,,,,,0,0,0,0,,,,,,,,,,,,,,,,,,,,,,,,,,,,,0,15,15,15,,,,,,,,,,,,,,,,,,,,,,,,,,,,,,,,,,,,,,,,,,,,,,,,,,,,,,,,,,,,,,,,,2,1.1318289000191726,588.3490545999957,None,ScrollUp,정답입니다,588.3490545999957,None,588.3490545999957,None,588.3490545999957,None,588.3490545999957,None,589.3905282000196,None,589.3905282000196,589.890452099964,,,,,,,,,,,,,,,,206,2023-04-21_10h44.42.910,FishGame,2022.1.1,60.15236593365569,
,17,나를 보내줘,6,Green,A,0,0,ScrollUp,ScrollDown,Green.png,5,NonTarget,NonTarget,,,,,0,0,0,0,,,,,,,,,,,,,,,,,,,,,,,,,,,,,0,16,16,16,,,,,,,,,,,,,,,,,,,,,,,,,,,,,,,,,,,,,,,,,,,,,,,,,,,,,,,,,,,,,,,,,2,1.0793639000039548,590.4953502999851,None,ScrollUp,정답입니다,590.4953502999851,None,590.4953502999851,None,590.4953502999851,None,590.4953502999851,None,591.4903143999982,None,591.4903143999982,591.9903281999868,,,,,,,,,,,,,,,,206,2023-04-21_10h44.42.910,FishGame,2022.1.1,60.15236593365569,
,18,넌 협조적이야,1,Green,A,5.625,5.666666666666667,ScrollDown,ScrollUp,Green.png,5,Positive,Congruent,,,,,0,0,0,0,,,,,,,,,,,,,,,,,,,,,,,,,,,,,0,17,17,17,,,,,,,,,,,,,,,,,,,,,,,,,,,,,,,,,,,,,,,,,,,,,,,,,,,,,,,,,,,,,,,,,1,0.8481571999727748,592.5927229999797,None,ScrollDown,정답입니다,592.5927229999797,None,592.5927229999797,None,592.5927229999797,None,592.5927229999797,None,593.3549765999778,None,593.3549765999778,593.8570004000212,,,,,,,,,,,,,,,,206,2023-04-21_10h44.42.910,FishGame,2022.1.1,60.15236593365569,
,19,나를 데려가줘,6,Orange,B,0,0,ScrollDown,ScrollUp,Orange.png,5,NonTarget,NonTarget,,,,,0,0,0,0,,,,,,,,,,,,,,,,,,,,,,,,,,,,,0,18,18,18,,,,,,,,,,,,,,,,,,,,,,,,,,,,,,,,,,,,,,,,,,,,,,,,,,,,,,,,,,,,,,,,,1,1.1126129000331275,594.4639281000127,None,ScrollDown,정답입니다,594.4639281000127,None,594.4639281000127,None,594.4639281000127,None,594.4639281000127,None,595.487992600014,None,595.487992600014,595.9879802999785,,,,,,,,,,,,,,,,206,2023-04-21_10h44.42.910,FishGame,2022.1.1,60.15236593365569,
,20,넌 몰인정해,5,Orange,B,2.541666666666667,2.066666666666667,ScrollUp,ScrollDown,Orange.png,5,Negative,Congruent,,,,,0,0,0,0,,,,,,,,,,,,,,,,,,,,,,,,,,,,,0,19,19,19,,,,,,,,,,,,,,,,,,,,,,,,,,,,,,,,,,,,,,,,,,,,,,,,,,,,,,,,,,,,,,,,,2,1.0980937000131235,596.5955608999939,None,ScrollUp,정답입니다,596.5955608999939,None,596.5955608999939,None,596.5955608999939,None,596.5955608999939,None,597.6046232999652,None,597.6046232999652,598.1070266999886,,,,,,,,,,,,,,,,206,2023-04-21_10h44.42.910,FishGame,2022.1.1,60.15236593365569,
,21,나를 데려가줘,6,Orange,B,0,0,ScrollDown,ScrollUp,Orange.png,5,NonTarget,NonTarget,,,,,0,0,0,0,,,,,,,,,,,,,,,,,,,,,,,,,,,,,0,20,20,20,,,,,,,,,,,,,,,,,,,,,,,,,,,,,,,,,,,,,,,,,,,,,,,,,,,,,,,,,,,,,,,,,1,0.9817045999807306,598.7138683999656,None,ScrollDown,정답입니다,598.7138683999656,None,598.7138683999656,None,598.7138683999656,None,598.7138683999656,None,599.6070973000024,None,599.6070973000024,600.1069681000081,,,,,,,,,,,,,,,,206,2023-04-21_10h44.42.910,FishGame,2022.1.1,60.15236593365569,
,22,넌 순진해,3,Orange,B,4.125,4.166666666666667,ScrollUp,ScrollDown,Orange.png,5,Neutral,Neutral,,,,,0,0,0,0,,,,,,,,,,,,,,,,,,,,,,,,,,,,,0,21,21,21,,,,,,,,,,,,,,,,,,,,,,,,,,,,,,,,,,,,,,,,,,,,,,,,,,,,,,,,,,,,,,,,,2,1.4263506999704987,600.7143457999919,None,ScrollUp,정답입니다,600.7143457999919,None,600.7143457999919,None,600.7143457999919,None,600.7143457999919,None,602.0568612000206,None,602.0568612000206,602.5568513000035,,,,,,,,,,,,,,,,206,2023-04-21_10h44.42.910,FishGame,2022.1.1,60.15236593365569,
,23,넌 신뢰할만해,1,Green,A,6.625,5.533333333333333,ScrollDown,ScrollUp,Green.png,5,Positive,Congruent,,,,,0,0,0,0,,,,,,,,,,,,,,,,,,,,,,,,,,,,,0,22,22,22,,,,,,,,,,,,,,,,,,,,,,,,,,,,,,,,,,,,,,,,,,,,,,,,,,,,,,,,,,,,,,,,,1,1.3930806000134908,603.1744772999664,None,ScrollDown,정답입니다,603.1744772999664,None,603.1744772999664,None,603.1744772999664,None,603.1744772999664,None,604.4711236999719,None,604.4711236999719,604.9711061000125,,,,,,,,,,,,,,,,206,2023-04-21_10h44.42.910,FishGame,2022.1.1,60.15236593365569,
,24,나를 보내줘,6,Green,A,0,0,ScrollUp,ScrollDown,Green.png,5,NonTarget,NonTarget,,,,,0,0,0,0,,,,,,,,,,,,,,,,,,,,,,,,,,,,,0,23,23,23,,,,,,,,,,,,,,,,,,,,,,,,,,,,,,,,,,,,,,,,,,,,,,,,,,,,,,,,,,,,,,,,,2,1.2840895000263117,605.5754095999873,None,ScrollUp,정답입니다,605.5754095999873,None,605.5754095999873,None,605.5754095999873,None,605.5754095999873,None,606.7735451000044,None,606.7735451000044,607.2735510999919,,,,,,,,,,,,,,,,206,2023-04-21_10h44.42.910,FishGame,2022.1.1,60.15236593365569,
,25,넌 인색해,5,Green,A,2.625,2.233333333333333,ScrollDown,ScrollUp,Green.png,5,Negative,Incongruent,,,,,0,0,0,0,,,,,,,,,,,,,,,,,,,,,,,,,,,,,0,24,24,24,,,,,,,,,,,,,,,,,,,,,,,,,,,,,,,,,,,,,,,,,,,,,,,,,,,,,,,,,,,,,,,,,1,1.1314708000281826,607.8783695999882,None,ScrollDown,정답입니다,607.8783695999882,None,607.8783695999882,None,607.8783695999882,None,607.8783695999882,None,608.9234926999779,None,608.9234926999779,609.4400011000107,,,,,,,,,,,,,,,,206,2023-04-21_10h44.42.910,FishGame,2022.1.1,60.15236593365569,
,26,넌 유쾌해,1,Orange,B,5.833333333333333,5.766666666666667,ScrollUp,ScrollDown,Orange.png,5,Positive,Incongruent,,,,,0,0,0,0,,,,,,,,,,,,,,,,,,,,,,,,,,,,,0,25,25,25,,,,,,,,,,,,,,,,,,,,,,,,,,,,,,,,,,,,,,,,,,,,,,,,,,,,,,,,,,,,,,,,,2,1.11277649999829,610.0291992999846,None,ScrollUp,정답입니다,610.0291992999846,None,610.0291992999846,None,610.0291992999846,None,610.0291992999846,None,611.0543216000078,None,611.0543216000078,611.5544238999719,,,,,,,,,,,,,,,,206,2023-04-21_10h44.42.910,FishGame,2022.1.1,60.15236593365569,
,27,나를 보내줘,6,Green,A,0,0,ScrollUp,ScrollDown,Green.png,5,NonTarget,NonTarget,,,,,0,0,0,0,,,,,,,,,,,,,,,,,,,,,,,,,,,,,0,26,26,26,,,,,,,,,,,,,,,,,,,,,,,,,,,,,,,,,,,,,,,,,,,,,,,,,,,,,,,,,,,,,,,,,2,1.0810476999613456,612.1561447000131,None,ScrollUp,정답입니다,612.1561447000131,None,612.1561447000131,None,612.1561447000131,None,612.1561447000131,None,613.1543382999953,None,613.1543382999953,613.6568158000009,,,,,,,,,,,,,,,,206,2023-04-21_10h44.42.910,FishGame,2022.1.1,60.15236593365569,
