name,TrialNum,Word,WordCategory,FishType,WordList,WordValence,WordReputation,CorrectResp,IncorrectResp,FishTypeFile,Round,WordType,Condition,LoopforOrange.thisRepN,LoopforOrange.thisTrialN,LoopforOrange.thisN,LoopforOrange.thisIndex,OrangeInstLoop.thisRepN,OrangeInstLoop.thisTrialN,OrangeInstLoop.thisN,OrangeInstLoop.thisIndex,OrangePrac.thisRepN,OrangePrac.thisTrialN,OrangePrac.thisN,OrangePrac.thisIndex,temp1.thisRepN,temp1.thisTrialN,temp1.thisN,temp1.thisIndex,OrangeRound1.thisRepN,OrangeRound1.thisTrialN,OrangeRound1.thisN,OrangeRound1.thisIndex,OrangeRound2.thisRepN,OrangeRound2.thisTrialN,OrangeRound2.thisN,OrangeRound2.thisIndex,OrangeRound3.thisRepN,OrangeRound3.thisTrialN,OrangeRound3.thisN,OrangeRound3.thisIndex,OrangeRound4.thisRepN,OrangeRound4.thisTrialN,OrangeRound4.thisN,OrangeRound4.thisIndex,OrangeRound5.thisRepN,OrangeRound5.thisTrialN,OrangeRound5.thisN,OrangeRound5.thisIndex,LoopForGreen.thisRepN,LoopForGreen.thisTrialN,LoopForGreen.thisN,LoopForGreen.thisIndex,text_2.started,text_2.stopped,text_3.started,text_3.stopped,key_resp.keys,key_resp.rt,key_resp.started,key_resp.stopped,PassI_2.started,PassI_2.stopped,PassInst_2.keys,PassInst_2.rt,PassInst_2.started,PassInst_2.stopped,mouse_2.x,mouse_2.y,mouse_2.leftButton,mouse_2.midButton,mouse_2.rightButton,mouse_2.started,mouse_2.stopped,image.started,image.stopped,text_5.started,text_5.stopped,text_6.started,text_6.stopped,text_7.started,text_7.stopped,text_8.started,text_8.stopped,slider_2.response,slider_2.rt,slider_2.started,slider_2.stopped,Response_2,Feedback_2,BackGround_2.started,BackGround_2.stopped,Fish_2.started,Fish_2.stopped,WordBox_2.started,WordBox_2.stopped,Words_2.started,Words_2.stopped,BackGround_Feedback_2.started,BackGround_Feedback_2.stopped,Feedbacks_2.started,Feedbacks_2.stopped,Continue_or_not.keys,Continue_or_not.rt,Continue_or_not.started,Continue_or_not.stopped,image_3.started,image_3.stopped,mouse_3.x,mouse_3.y,mouse_3.leftButton,mouse_3.midButton,mouse_3.rightButton,mouse_3.started,mouse_3.stopped,startmain.started,startmain.stopped,slider.response,slider.rt,slider.started,slider.stopped,Response,Feedback,BackGround.started,BackGround.stopped,Fish.started,Fish.stopped,WordBox.started,WordBox.stopped,Words.started,Words.stopped,BackGround_Feedback.started,BackGround_Feedback.stopped,Feedbacks.started,Feedbacks.stopped,text.started,text.stopped,break_interval.started,break_interval.stopped,mouse.x,mouse.y,mouse.leftButton,mouse.midButton,mouse.rightButton,mouse.started,mouse.stopped,stratnextround.started,stratnextround.stopped,endgame.started,endgame.stopped,participant,date,expName,psychopyVersion,frameRate,
,,,,,,,,,,,,,,,,,,,,,,,,,,,,,,,,,,,,,,,,,,,,,,,,,,,,,,17.90234810009133,None,17.90234810009133,None,space,0.8717556999763474,18.39202170004137,None,,,,,,,,,,,,,,,,,,,,,,,,,,,,,,,,,,,,,,,,,,,,,,,,,,,,,,,,,,,,,,,,,,,,,,,,,,,,,,,,,,,,,,,,,,207,2023-04-26_13h40.08.734,FishGame,2022.1.1,60.080700409772035,
물고기과제_instruction(참가자용)OrangeVersion.mp4,,,,,,,,,,,,,,0,0,0,0,0,0,0,0,,,,,,,,,,,,,,,,,,,,,,,,,,,,,,,,,,,,,,,,,89.80414570006542,None,n,1.7474396000616252,89.80414570006542,None,,,,,,,,,,,,,,,,,,,,,,,,,,,,,,,,,,,,,,,,,,,,,,,,,,,,,,,,,,,,,,,,,,,,,,,,,,,,,,,,,,,,207,2023-04-26_13h40.08.734,FishGame,2022.1.1,60.080700409772035,
,1,넌 교활해,5,Green,B,2.333333333333333,2.133333333333333,ScrollUp,ScrollDown,Green.png,practice,,,0,0,0,0,,,,,0,0,0,0,0,0,0,0,,,,,,,,,,,,,,,,,,,,,,,,,,,,,,,,,,,,,,,0.08240741,-0.2212963,1,0,0,0.5136886200634763,None,91.56845890008844,None,94.07041130005382,95.5707332000602,95.60402690002229,96.55396120005753,96.60403779998887,97.55396430008113,97.55396430008113,None,1.8240740795930226,1.1769921000814065,98.8224654000951,None,ScrollUp,정답입니다,98.8224654000951,None,98.8224654000951,None,98.8224654000951,None,98.8224654000951,None,99.71839280007407,None,99.71839280007407,100.22088150004856,,,,,,,,,,,,,,,,,,,,,,,,,,,,,,,,,,,,,,,,,,,,,,,,,207,2023-04-26_13h40.08.734,FishGame,2022.1.1,60.080700409772035,
,2,넌 슬기로워,2,Orange,A,6.166666666666667,4.1,ScrollDown,ScrollUp,Orange.png,practice,,,0,0,0,0,,,,,0,0,0,0,0,1,1,1,,,,,,,,,,,,,,,,,,,,,,,,,,,,,,,,,,,,,,,,,,,,,,,,,,,,,,,,1,1.06464340002276,100.82690039998852,None,ScrollDown,정답입니다,100.82690039998852,None,100.82690039998852,None,100.82690039998852,None,100.82690039998852,None,101.80374410003424,None,101.80374410003424,102.30371830007061,,,,,,,,,,,,,,,,,,,,,,,,,,,,,,,,,,,,,,,,,,,,,,,,,207,2023-04-26_13h40.08.734,FishGame,2022.1.1,60.080700409772035,
,3,나를 보내줘,6,Orange,A,0,0,ScrollUp,ScrollDown,Orange.png,practice,,,0,0,0,0,,,,,0,0,0,0,0,2,2,2,,,,,,,,,,,,,,,,,,,,,,,,,,,,,,,,,,,,,,,,,,,,,,,,,,,,,,,,1.9567901293436687,1.0332966999849305,102.91007129999343,None,ScrollUp,정답입니다,102.91007129999343,None,102.91007129999343,None,102.91007129999343,None,102.91007129999343,None,103.85154910001438,None,103.85154910001438,104.35360110003967,,,,,,,,,,,,,,,,,,,,,,,,,,,,,,,,,,,,,,,,,,,,,,,,,207,2023-04-26_13h40.08.734,FishGame,2022.1.1,60.080700409772035,
,4,나를 데려가줘,6,Green,B,0,0,ScrollDown,ScrollUp,Green.png,practice,,,0,0,0,0,,,,,0,0,0,0,0,3,3,3,,,,,,,,,,,,,,,,,,,,,,,,,,,,,,,,,,,,,,,,,,,,,,,,,,,,,,,,1.0432098706563313,1.0818546999944374,104.95743760000914,None,ScrollDown,정답입니다,104.95743760000914,None,104.95743760000914,None,104.95743760000914,None,104.95743760000914,None,105.95358810003381,None,105.95358810003381,106.45363060000818,,,,,,,,,,,,,,,,,,,,,,,,,,,,,,,,,,,,,,,,,,,,,,,,,207,2023-04-26_13h40.08.734,FishGame,2022.1.1,60.080700409772035,
,1,넌 교활해,5,Green,B,2.333333333333333,2.133333333333333,ScrollUp,ScrollDown,Green.png,practice,,,0,0,0,0,,,,,0,0,0,0,,,,,,,,,,,,,,,,,,,,,,,,,,,,,,,,,,,,,,,,,,,,,,,,,,,,,,,,,,,,,,,,,,,,,,,,,,,,,,n,3.165881900000386,106.95363540004473,None,106.95363540004473,None,,,,,,,,,,,,,,,,,,,,,,,,,,,,,,,,,,,,,,,,,,,207,2023-04-26_13h40.08.734,FishGame,2022.1.1,60.080700409772035,
,1,넌 따뜻해,1,Green,B,6.083333333333333,5.6,ScrollUp,ScrollDown,Green.png,1,Positive,Incongruent,0,0,0,0,,,,,,,,,,,,,0,0,0,0,,,,,,,,,,,,,,,,,,,,,,,,,,,,,,,,,,,,,,,,,,,,112.8366433000192,114.34078620001674,114.35685380001087,115.32030530006159,115.37083490006626,116.3236043000361,116.3236043000361,None,,,,,,,,,,,,,,,,,,,,,,,,,0.05925926,-0.13055556,1,0,0,0.3146714201429859,None,110.1367498000618,None,1.858024686574936,1.1236865000100806,117.61160820000805,None,ScrollUp,정답입니다,117.61160820000805,None,117.61160820000805,None,117.61160820000805,None,117.61160820000805,None,118.45341120008379,None,118.45341120008379,118.95657849998679,,,,,,,,,,,,,,,,207,2023-04-26_13h40.08.734,FishGame,2022.1.1,60.080700409772035,
,2,넌 기품있어,2,Green,B,5.791666666666668,4.5,ScrollUp,ScrollDown,Green.png,1,Positive,Incongruent,0,0,0,0,,,,,,,,,,,,,0,1,1,1,,,,,,,,,,,,,,,,,,,,,,,,,,,,,,,,,,,,,,,,,,,,,,,,,,,,,,,,,,,,,,,,,,,,,,,,,,,,,,,,,,,,,1.9104938358068466,0.8791696999687701,119.56332359998487,None,ScrollUp,정답입니다,119.56332359998487,None,119.56332359998487,None,119.56332359998487,None,119.56332359998487,None,120.3532292000018,None,120.3532292000018,120.8532991000684,,,,,,,,,,,,,,,,207,2023-04-26_13h40.08.734,FishGame,2022.1.1,60.080700409772035,
,3,나를 보내줘,6,Orange,A,0,0,ScrollUp,ScrollDown,Orange.png,1,NonTarget,NonTarget,0,0,0,0,,,,,,,,,,,,,0,2,2,2,,,,,,,,,,,,,,,,,,,,,,,,,,,,,,,,,,,,,,,,,,,,,,,,,,,,,,,,,,,,,,,,,,,,,,,,,,,,,,,,,,,,,2,1.066539500025101,121.46628729999065,None,ScrollUp,정답입니다,121.46628729999065,None,121.46628729999065,None,121.46628729999065,None,121.46628729999065,None,122.4367241000291,None,122.4367241000291,122.93662410008255,,,,,,,,,,,,,,,,207,2023-04-26_13h40.08.734,FishGame,2022.1.1,60.080700409772035,
,4,넌 수동적이야,4,Orange,A,2.833333333333333,2.933333333333333,ScrollDown,ScrollUp,Orange.png,1,Negative,Incongruent,0,0,0,0,,,,,,,,,,,,,0,3,3,3,,,,,,,,,,,,,,,,,,,,,,,,,,,,,,,,,,,,,,,,,,,,,,,,,,,,,,,,,,,,,,,,,,,,,,,,,,,,,,,,,,,,,1,0.9331068000756204,123.56574610003736,None,ScrollDown,정답입니다,123.56574610003736,None,123.56574610003736,None,123.56574610003736,None,123.56574610003736,None,124.38651680003386,None,124.38651680003386,124.88653880008496,,,,,,,,,,,,,,,,207,2023-04-26_13h40.08.734,FishGame,2022.1.1,60.080700409772035,
,5,넌 사심이 없어,3,Green,B,4.916666666666666,4.333333333333333,ScrollUp,ScrollDown,Green.png,1,Neutral,Neutral,0,0,0,0,,,,,,,,,,,,,0,4,4,4,,,,,,,,,,,,,,,,,,,,,,,,,,,,,,,,,,,,,,,,,,,,,,,,,,,,,,,,,,,,,,,,,,,,,,,,,,,,,,,,,,,,,1.9367283980051677,0.8479052999755368,125.49507070006803,None,ScrollUp,정답입니다,125.49507070006803,None,125.49507070006803,None,125.49507070006803,None,125.49507070006803,None,126.25321170000825,None,126.25321170000825,126.75322390010115,,,,,,,,,,,,,,,,207,2023-04-26_13h40.08.734,FishGame,2022.1.1,60.080700409772035,
,6,넌 헤퍼,5,Orange,A,2.458333333333334,2.233333333333333,ScrollDown,ScrollUp,Orange.png,1,Negative,Incongruent,0,0,0,0,,,,,,,,,,,,,0,5,5,5,,,,,,,,,,,,,,,,,,,,,,,,,,,,,,,,,,,,,,,,,,,,,,,,,,,,,,,,,,,,,,,,,,,,,,,,,,,,,,,,,,,,,1,0.9625378999626264,127.3677704000147,None,ScrollDown,정답입니다,127.3677704000147,None,127.3677704000147,None,127.3677704000147,None,127.3677704000147,None,128.2344340001,None,128.2344340001,128.73646340006962,,,,,,,,,,,,,,,,207,2023-04-26_13h40.08.734,FishGame,2022.1.1,60.080700409772035,
,7,넌 말쑥해,3,Orange,A,4.833333333333334,4.333333333333333,ScrollDown,ScrollUp,Orange.png,1,Neutral,Neutral,0,0,0,0,,,,,,,,,,,,,0,6,6,6,,,,,,,,,,,,,,,,,,,,,,,,,,,,,,,,,,,,,,,,,,,,,,,,,,,,,,,,,,,,,,,,,,,,,,,,,,,,,,,,,,,,,1.0108024775981903,0.9980682999594137,129.3457830999978,None,ScrollDown,정답입니다,129.3457830999978,None,129.3457830999978,None,129.3457830999978,None,129.3457830999978,None,130.25309590005782,None,130.25309590005782,130.75311270006932,,,,,,,,,,,,,,,,207,2023-04-26_13h40.08.734,FishGame,2022.1.1,60.080700409772035,
,8,넌 투덜거려,5,Green,B,2.541666666666667,2.266666666666667,ScrollUp,ScrollDown,Green.png,1,Negative,Congruent,0,0,0,0,,,,,,,,,,,,,0,7,7,7,,,,,,,,,,,,,,,,,,,,,,,,,,,,,,,,,,,,,,,,,,,,,,,,,,,,,,,,,,,,,,,,,,,,,,,,,,,,,,,,,,,,,1.8348765522241592,0.9317528000101447,131.3687567000743,None,ScrollUp,정답입니다,131.3687567000743,None,131.3687567000743,None,131.3687567000743,None,131.3687567000743,None,132.20317620004062,None,132.20317620004062,132.7031094999984,,,,,,,,,,,,,,,,207,2023-04-26_13h40.08.734,FishGame,2022.1.1,60.080700409772035,
,9,넌 적극적이야,1,Orange,A,5.708333333333333,5.533333333333333,ScrollDown,ScrollUp,Orange.png,1,Positive,Congruent,0,0,0,0,,,,,,,,,,,,,0,8,8,8,,,,,,,,,,,,,,,,,,,,,,,,,,,,,,,,,,,,,,,,,,,,,,,,,,,,,,,,,,,,,,,,,,,,,,,,,,,,,,,,,,,,,1,0.9926361000398174,133.32059720007237,None,ScrollDown,정답입니다,133.32059720007237,None,133.32059720007237,None,133.32059720007237,None,133.32059720007237,None,134.21737880003639,None,134.21737880003639,134.71735180006362,,,,,,,,,,,,,,,,207,2023-04-26_13h40.08.734,FishGame,2022.1.1,60.080700409772035,
,10,넌 재미없어,4,Green,B,2.625,2.966666666666667,ScrollUp,ScrollDown,Green.png,1,Negative,Congruent,0,0,0,0,,,,,,,,,,,,,0,9,9,9,,,,,,,,,,,,,,,,,,,,,,,,,,,,,,,,,,,,,,,,,,,,,,,,,,,,,,,,,,,,,,,,,,,,,,,,,,,,,,,,,,,,,1.878086417913437,0.8667734999908134,135.32237680000253,None,ScrollUp,정답입니다,135.32237680000253,None,135.32237680000253,None,135.32237680000253,None,135.32237680000253,None,136.100761000067,None,136.100761000067,136.60312009998597,,,,,,,,,,,,,,,,207,2023-04-26_13h40.08.734,FishGame,2022.1.1,60.080700409772035,
,11,넌 명석해,2,Orange,A,5.875,4.033333333333333,ScrollDown,ScrollUp,Orange.png,1,Positive,Congruent,0,0,0,0,,,,,,,,,,,,,0,10,10,10,,,,,,,,,,,,,,,,,,,,,,,,,,,,,,,,,,,,,,,,,,,,,,,,,,,,,,,,,,,,,,,,,,,,,,,,,,,,,,,,,,,,,1,1.1752948000794277,137.213387100026,None,ScrollDown,정답입니다,137.213387100026,None,137.213387100026,None,137.213387100026,None,137.213387100026,None,138.29379550006706,None,138.29379550006706,138.80299600004219,,,,,,,,,,,,,,,,207,2023-04-26_13h40.08.734,FishGame,2022.1.1,60.080700409772035,
,12,나를 데려가줘,6,Green,B,0,0,ScrollDown,ScrollUp,Green.png,1,NonTarget,NonTarget,0,0,0,0,,,,,,,,,,,,,0,11,11,11,,,,,,,,,,,,,,,,,,,,,,,,,,,,,,,,,,,,,,,,,,,,,,,,,,,,,,,,,,,,,,,,,,,,,,,,,,,,,,,,,,,,,1,1.19816690008156,139.4106535000028,None,ScrollDown,정답입니다,139.4106535000028,None,139.4106535000028,None,139.4106535000028,None,139.4106535000028,None,140.51968230004422,None,140.51968230004422,141.01745330006815,,,,,,,,,,,,,,,,207,2023-04-26_13h40.08.734,FishGame,2022.1.1,60.080700409772035,
,13,넌 소심해,4,Orange,A,3,3.1,ScrollDown,ScrollUp,Orange.png,1,Negative,Incongruent,0,0,0,0,,,,,,,,,,,,,0,12,12,12,,,,,,,,,,,,,,,,,,,,,,,,,,,,,,,,,,,,,,,,,,,,,,,,,,,,,,,,,,,,,,,,,,,,,,,,,,,,,,,,,,,,,1.0555555323759716,0.9315282000461593,141.62738810002338,None,ScrollDown,정답입니다,141.62738810002338,None,141.62738810002338,None,141.62738810002338,None,141.62738810002338,None,142.46951600001194,None,142.46951600001194,142.96962600003462,,,,,,,,,,,,,,,,207,2023-04-26_13h40.08.734,FishGame,2022.1.1,60.080700409772035,
,14,넌 합리적이야,2,Orange,A,5.583333333333333,4.733333333333333,ScrollDown,ScrollUp,Orange.png,1,Positive,Congruent,0,0,0,0,,,,,,,,,,,,,0,13,13,13,,,,,,,,,,,,,,,,,,,,,,,,,,,,,,,,,,,,,,,,,,,,,,,,,,,,,,,,,,,,,,,,,,,,,,,,,,,,,,,,,,,,,1.040123442808787,0.8476403000531718,143.5796166000655,None,ScrollDown,정답입니다,143.5796166000655,None,143.5796166000655,None,143.5796166000655,None,143.5796166000655,None,144.3362274999963,None,144.3362274999963,144.83615880005527,,,,,,,,,,,,,,,,207,2023-04-26_13h40.08.734,FishGame,2022.1.1,60.080700409772035,
,15,넌 무자비해,5,Green,B,2.333333333333333,2.1,ScrollUp,ScrollDown,Green.png,1,Negative,Congruent,0,0,0,0,,,,,,,,,,,,,0,14,14,14,,,,,,,,,,,,,,,,,,,,,,,,,,,,,,,,,,,,,,,,,,,,,,,,,,,,,,,,,,,,,,,,,,,,,,,,,,,,,,,,,,,,,1.6188271616895995,0.8481312000658363,145.4447242000606,None,ScrollUp,정답입니다,145.4447242000606,None,145.4447242000606,None,145.4447242000606,None,145.4447242000606,None,146.20283349999227,None,146.20283349999227,146.70269150007516,,,,,,,,,,,,,,,,207,2023-04-26_13h40.08.734,FishGame,2022.1.1,60.080700409772035,
,16,나를 보내줘,6,Orange,A,0,0,ScrollUp,ScrollDown,Orange.png,1,NonTarget,NonTarget,0,0,0,0,,,,,,,,,,,,,0,15,15,15,,,,,,,,,,,,,,,,,,,,,,,,,,,,,,,,,,,,,,,,,,,,,,,,,,,,,,,,,,,,,,,,,,,,,,,,,,,,,,,,,,,,,1.746913582086563,0.9793616000097245,147.30841759999748,None,ScrollUp,정답입니다,147.30841759999748,None,147.30841759999748,None,147.30841759999748,None,147.30841759999748,None,148.20069760002661,None,148.20069760002661,148.7027257999871,,,,,,,,,,,,,,,,207,2023-04-26_13h40.08.734,FishGame,2022.1.1,60.080700409772035,
,17,넌 현실적이야,3,Green,B,4.608695652173913,4.766666666666667,ScrollUp,ScrollDown,Green.png,1,Neutral,Neutral,0,0,0,0,,,,,,,,,,,,,0,16,16,16,,,,,,,,,,,,,,,,,,,,,,,,,,,,,,,,,,,,,,,,,,,,,,,,,,,,,,,,,,,,,,,,,,,,,,,,,,,,,,,,,,,,,1.560185187806686,0.8294204000849277,149.31095330009703,None,ScrollUp,정답입니다,149.31095330009703,None,149.31095330009703,None,149.31095330009703,None,149.31095330009703,None,150.0526870000176,None,150.0526870000176,150.5527282000985,,,,,,,,,,,,,,,,207,2023-04-26_13h40.08.734,FishGame,2022.1.1,60.080700409772035,
,18,넌 의리있어,1,Green,B,5.833333333333334,5.633333333333334,ScrollUp,ScrollDown,Green.png,1,Positive,Incongruent,0,0,0,0,,,,,,,,,,,,,0,17,17,17,,,,,,,,,,,,,,,,,,,,,,,,,,,,,,,,,,,,,,,,,,,,,,,,,,,,,,,,,,,,,,,,,,,,,,,,,,,,,,,,,,,,,1.6250000049670539,0.7972860999871045,151.1594714000821,None,ScrollUp,정답입니다,151.1594714000821,None,151.1594714000821,None,151.1594714000821,None,151.1594714000821,None,151.867266700021,None,151.867266700021,152.3692643000977,,,,,,,,,,,,,,,,207,2023-04-26_13h40.08.734,FishGame,2022.1.1,60.080700409772035,
,19,넌 신경과민이야,5,Orange,A,2.541666666666667,2.166666666666667,ScrollDown,ScrollUp,Orange.png,1,Negative,Incongruent,0,0,0,0,,,,,,,,,,,,,0,18,18,18,,,,,,,,,,,,,,,,,,,,,,,,,,,,,,,,,,,,,,,,,,,,,,,,,,,,,,,,,,,,,,,,,,,,,,,,,,,,,,,,,,,,,1.016975333293279,0.9165954000782222,152.98154680000152,None,ScrollDown,정답입니다,152.98154680000152,None,152.98154680000152,None,152.98154680000152,None,152.98154680000152,None,153.8005704000825,None,153.8005704000825,154.30260669998825,,,,,,,,,,,,,,,,207,2023-04-26_13h40.08.734,FishGame,2022.1.1,60.080700409772035,
,20,넌 편안해,1,Orange,A,5.916666666666666,5.866666666666666,ScrollDown,ScrollUp,Orange.png,1,Positive,Congruent,0,0,0,0,,,,,,,,,,,,,0,19,19,19,,,,,,,,,,,,,,,,,,,,,,,,,,,,,,,,,,,,,,,,,,,,,,,,,,,,,,,,,,,,,,,,,,,,,,,,,,,,,,,,,,,,,1.0972222338120143,0.8486842999700457,154.91833260003477,None,ScrollDown,정답입니다,154.91833260003477,None,154.91833260003477,None,154.91833260003477,None,154.91833260003477,None,155.66726020001806,None,155.66726020001806,156.16935129999183,,,,,,,,,,,,,,,,207,2023-04-26_13h40.08.734,FishGame,2022.1.1,60.080700409772035,
,21,넌 품위있어,2,Green,B,5.291666666666666,4.466666666666667,ScrollUp,ScrollDown,Green.png,1,Positive,Incongruent,0,0,0,0,,,,,,,,,,,,,0,20,20,20,,,,,,,,,,,,,,,,,,,,,,,,,,,,,,,,,,,,,,,,,,,,,,,,,,,,,,,,,,,,,,,,,,,,,,,,,,,,,,,,,,,,,1.7283950646718345,0.8311178999720141,156.78835210006218,None,ScrollUp,정답입니다,156.78835210006218,None,156.78835210006218,None,156.78835210006218,None,156.78835210006218,None,157.5171613000566,None,157.5171613000566,158.01922120002564,,,,,,,,,,,,,,,,207,2023-04-26_13h40.08.734,FishGame,2022.1.1,60.080700409772035,
,22,넌 빈틈없어,3,Orange,A,4.833333333333333,3.966666666666667,ScrollDown,ScrollUp,Orange.png,1,Neutral,Neutral,0,0,0,0,,,,,,,,,,,,,0,21,21,21,,,,,,,,,,,,,,,,,,,,,,,,,,,,,,,,,,,,,,,,,,,,,,,,,,,,,,,,,,,,,,,,,,,,,,,,,,,,,,,,,,,,,1.1450617164373398,0.9647313000168651,158.6289426999865,None,ScrollDown,정답입니다,158.6289426999865,None,158.6289426999865,None,158.6289426999865,None,158.6289426999865,None,159.50260320003144,None,159.50260320003144,160.00258130009752,,,,,,,,,,,,,,,,207,2023-04-26_13h40.08.734,FishGame,2022.1.1,60.080700409772035,
,23,넌 상상력없어,4,Green,B,2.833333333333333,3.133333333333333,ScrollUp,ScrollDown,Green.png,1,Negative,Congruent,0,0,0,0,,,,,,,,,,,,,0,22,22,22,,,,,,,,,,,,,,,,,,,,,,,,,,,,,,,,,,,,,,,,,,,,,,,,,,,,,,,,,,,,,,,,,,,,,,,,,,,,,,,,,,,,,1.5679012325902781,0.7979411999695003,160.6100803000154,None,ScrollUp,정답입니다,160.6100803000154,None,160.6100803000154,None,160.6100803000154,None,160.6100803000154,None,161.3191762000788,None,161.3191762000788,161.81905910000205,,,,,,,,,,,,,,,,207,2023-04-26_13h40.08.734,FishGame,2022.1.1,60.080700409772035,
,24,넌 지혜로워,2,Green,B,6.333333333333334,4.633333333333334,ScrollUp,ScrollDown,Green.png,1,Positive,Incongruent,0,0,0,0,,,,,,,,,,,,,0,23,23,23,,,,,,,,,,,,,,,,,,,,,,,,,,,,,,,,,,,,,,,,,,,,,,,,,,,,,,,,,,,,,,,,,,,,,,,,,,,,,,,,,,,,,1.5524691368142762,0.8314892000053078,162.42790650005918,None,ScrollUp,정답입니다,162.42790650005918,None,162.42790650005918,None,162.42790650005918,None,162.42790650005918,None,163.1670674000634,None,163.1670674000634,163.66907619999256,,,,,,,,,,,,,,,,207,2023-04-26_13h40.08.734,FishGame,2022.1.1,60.080700409772035,
,25,넌 시끄러워,4,Orange,A,2.833333333333333,3.033333333333333,ScrollDown,ScrollUp,Orange.png,1,Negative,Incongruent,0,0,0,0,,,,,,,,,,,,,0,24,24,24,,,,,,,,,,,,,,,,,,,,,,,,,,,,,,,,,,,,,,,,,,,,,,,,,,,,,,,,,,,,,,,,,,,,,,,,,,,,,,,,,,,,,1,0.9167464000638574,164.27986670006067,None,ScrollDown,정답입니다,164.27986670006067,None,164.27986670006067,None,164.27986670006067,None,164.27986670006067,None,165.10247080004774,None,165.10247080004774,165.60243170009926,,,,,,,,,,,,,,,,207,2023-04-26_13h40.08.734,FishGame,2022.1.1,60.080700409772035,
,26,넌 만사태평이야,3,Green,B,4,4.333333333333333,ScrollUp,ScrollDown,Green.png,1,Neutral,Neutral,0,0,0,0,,,,,,,,,,,,,0,25,25,25,,,,,,,,,,,,,,,,,,,,,,,,,,,,,,,,,,,,,,,,,,,,,,,,,,,,,,,,,,,,,,,,,,,,,,,,,,,,,,,,,,,,,1.6929012313485146,0.7999446999747306,166.21174709999468,None,ScrollUp,정답입니다,166.21174709999468,None,166.21174709999468,None,166.21174709999468,None,166.21174709999468,None,166.92677020002156,None,166.92677020002156,167.43566140008625,,,,,,,,,,,,,,,,207,2023-04-26_13h40.08.734,FishGame,2022.1.1,60.080700409772035,
,27,넌 붙임성있어,1,Orange,A,5.708333333333333,5.633333333333334,ScrollDown,ScrollUp,Orange.png,1,Positive,Congruent,0,0,0,0,,,,,,,,,,,,,0,26,26,26,,,,,,,,,,,,,,,,,,,,,,,,,,,,,,,,,,,,,,,,,,,,,,,,,,,,,,,,,,,,,,,,,,,,,,,,,,,,,,,,,,,,,1.0648148159186046,0.9296540999785066,168.04602160002105,None,ScrollDown,정답입니다,168.04602160002105,None,168.04602160002105,None,168.04602160002105,None,168.04602160002105,None,168.88365470001008,None,168.88365470001008,169.38567700004205,,,,,,,,,,,,,,,,207,2023-04-26_13h40.08.734,FishGame,2022.1.1,60.080700409772035,
,28,넌 영리해,2,Orange,A,6,4.033333333333333,ScrollDown,ScrollUp,Orange.png,1,Positive,Congruent,0,0,0,0,,,,,,,,,,,,,0,27,27,27,,,,,,,,,,,,,,,,,,,,,,,,,,,,,,,,,,,,,,,,,,,,,,,,,,,,,,,,,,,,,,,,,,,,,,,,,,,,,,,,,,,,,1,0.8830001000314951,169.99901050003245,None,ScrollDown,정답입니다,169.99901050003245,None,169.99901050003245,None,169.99901050003245,None,169.99901050003245,None,170.78562099998817,None,170.78562099998817,171.28566890000366,,,,,,,,,,,,,,,,207,2023-04-26_13h40.08.734,FishGame,2022.1.1,60.080700409772035,
,29,넌 열심이야,1,Green,B,6.041666666666667,5.833333333333333,ScrollUp,ScrollDown,Green.png,1,Positive,Incongruent,0,0,0,0,,,,,,,,,,,,,0,28,28,28,,,,,,,,,,,,,,,,,,,,,,,,,,,,,,,,,,,,,,,,,,,,,,,,,,,,,,,,,,,,,,,,,,,,,,,,,,,,,,,,,,,,,1.7253086368242898,0.7977834000485018,171.89310820004903,None,ScrollUp,정답입니다,171.89310820004903,None,171.89310820004903,None,171.89310820004903,None,171.89310820004903,None,172.6023529000813,None,172.6023529000813,173.10218290006742,,,,,,,,,,,,,,,,207,2023-04-26_13h40.08.734,FishGame,2022.1.1,60.080700409772035,
,30,넌 인기없어,4,Green,B,3,3.3,ScrollUp,ScrollDown,Green.png,1,Negative,Congruent,0,0,0,0,,,,,,,,,,,,,0,29,29,29,,,,,,,,,,,,,,,,,,,,,,,,,,,,,,,,,,,,,,,,,,,,,,,,,,,,,,,,,,,,,,,,,,,,,,,,,,,,,,,,,,,,,1.9012345770994823,0.8458687999518588,173.70884580002166,None,ScrollUp,정답입니다,173.70884580002166,None,173.70884580002166,None,173.70884580002166,None,173.70884580002166,None,174.46889890008606,None,174.46889890008606,174.96883740008343,,,,,,,,,,,,,,,,207,2023-04-26_13h40.08.734,FishGame,2022.1.1,60.080700409772035,
,31,넌 익살스러워,3,Orange,A,4.708333333333334,4.833333333333333,ScrollDown,ScrollUp,Orange.png,1,Neutral,Neutral,0,0,0,0,,,,,,,,,,,,,0,30,30,30,,,,,,,,,,,,,,,,,,,,,,,,,,,,,,,,,,,,,,,,,,,,,,,,,,,,,,,,,,,,,,,,,,,,,,,,,,,,,,,,,,,,,1.0138889054457347,0.8646415000548586,175.58017550001387,None,ScrollDown,정답입니다,175.58017550001387,None,175.58017550001387,None,175.58017550001387,None,175.58017550001387,None,176.35224130004644,None,176.35224130004644,176.85219830006827,,,,,,,,,,,,,,,,207,2023-04-26_13h40.08.734,FishGame,2022.1.1,60.080700409772035,
,32,넌 이기적이야,5,Green,B,2.291666666666667,2.333333333333333,ScrollUp,ScrollDown,Green.png,1,Negative,Congruent,0,0,0,0,,,,,,,,,,,,,0,31,31,31,,,,,,,,,,,,,,,,,,,,,,,,,,,,,,,,,,,,,,,,,,,,,,,,,,,,,,,,,,,,,,,,,,,,,,,,,,,,,,,,,,,,,1.7098765472571054,0.7956540000159293,177.45651190006174,None,ScrollUp,정답입니다,177.45651190006174,None,177.45651190006174,None,177.45651190006174,None,177.45651190006174,None,178.1667494000867,None,178.1667494000867,178.66648960008752,,,,,,,,,,,,,,,,207,2023-04-26_13h40.08.734,FishGame,2022.1.1,60.080700409772035,
,33,나를 데려가줘,6,Green,B,0,0,ScrollDown,ScrollUp,Green.png,1,NonTarget,NonTarget,0,0,0,0,,,,,,,,,,,,,0,32,32,32,,,,,,,,,,,,,,,,,,,,,,,,,,,,,,,,,,,,,,,,,,,,,,,,,,,,,,,,,,,,,,,,,,,,,,,,,,,,,,,,,,,,,1.1635802586873372,0.9494016000535339,179.26893350004684,None,ScrollDown,정답입니다,179.26893350004684,None,179.26893350004684,None,179.26893350004684,None,179.26893350004684,None,180.13317799998913,None,180.13317799998913,180.635563799995,,,,,,,,,,,,,,,,207,2023-04-26_13h40.08.734,FishGame,2022.1.1,60.080700409772035,
,34,넌 기회주의자야,5,Orange,A,2.875,2.133333333333333,ScrollDown,ScrollUp,Orange.png,1,Negative,Incongruent,0,0,0,0,,,,,,,,,,,,,0,33,33,33,,,,,,,,,,,,,,,,,,,,,,,,,,,,,,,,,,,,,,,,,,,,,,,,,,,,,,,,,,,,,,,,,,,,,,,,,,,,,,,,,,,,,1.2376543283462524,0.9811962000094354,181.24645299999975,None,ScrollDown,정답입니다,181.24645299999975,None,181.24645299999975,None,181.24645299999975,None,181.24645299999975,None,182.13555780006573,None,182.13555780006573,182.63537969999015,,,,,,,,,,,,,,,,207,2023-04-26_13h40.08.734,FishGame,2022.1.1,60.080700409772035,
,1,넌 미성숙해,4,Orange,A,3,3.2,ScrollDown,ScrollUp,Orange.png,2,Negative,Incongruent,0,0,0,0,,,,,,,,,,,,,,,,,0,0,0,0,,,,,,,,,,,,,,,,,,,,,,,,,,,,,,,,,,,,,,,,215.00139059999492,216.50155610009097,216.53498250001576,217.4848596000811,217.5348559000995,218.48486249998678,218.48486249998678,None,,,,,,,,,,,,,,,,,,,,,,,,,,,,,,,,,,1,0.9779707998968661,219.5694481000537,None,ScrollDown,정답입니다,219.5694481000537,None,219.5694481000537,None,219.5694481000537,None,219.5694481000537,None,220.449263800052,None,220.449263800052,220.94924079999328,183.13542940001935,None,183.13542940001935,None,0.04537037,-0.10555556,1,0,0,0.01611772004980594,None,213.13464000006206,None,,,207,2023-04-26_13h40.08.734,FishGame,2022.1.1,60.080700409772035,
,2,넌 반사회적이야,5,Green,B,2.416666666666667,2.033333333333333,ScrollUp,ScrollDown,Green.png,2,Negative,Congruent,0,0,0,0,,,,,,,,,,,,,,,,,0,1,1,1,,,,,,,,,,,,,,,,,,,,,,,,,,,,,,,,,,,,,,,,,,,,,,,,,,,,,,,,,,,,,,,,,,,,,,,,,,,,,,,,,1.7546296268701553,0.7292506999801844,221.56045240000822,None,ScrollUp,정답입니다,221.56045240000822,None,221.56045240000822,None,221.56045240000822,None,221.56045240000822,None,222.19917730009183,None,222.19917730009183,222.70122720010113,,,,,,,,,,,,,,,,207,2023-04-26_13h40.08.734,FishGame,2022.1.1,60.080700409772035,
,3,넌 유능해,2,Orange,A,6.208333333333333,4.433333333333334,ScrollDown,ScrollUp,Orange.png,2,Positive,Congruent,0,0,0,0,,,,,,,,,,,,,,,,,0,2,2,2,,,,,,,,,,,,,,,,,,,,,,,,,,,,,,,,,,,,,,,,,,,,,,,,,,,,,,,,,,,,,,,,,,,,,,,,,,,,,,,,,1.3719135796030364,0.7305822999915108,223.3106563000474,None,ScrollDown,정답입니다,223.3106563000474,None,223.3106563000474,None,223.3106563000474,None,223.3106563000474,None,223.95121209998615,None,223.95121209998615,224.45124130009208,,,,,,,,,,,,,,,,207,2023-04-26_13h40.08.734,FishGame,2022.1.1,60.080700409772035,
,4,넌 능숙해,2,Green,B,5.666666666666667,4.733333333333333,ScrollUp,ScrollDown,Green.png,2,Positive,Incongruent,0,0,0,0,,,,,,,,,,,,,,,,,0,3,3,3,,,,,,,,,,,,,,,,,,,,,,,,,,,,,,,,,,,,,,,,,,,,,,,,,,,,,,,,,,,,,,,,,,,,,,,,,,,,,,,,,1.5617283955216408,0.7459898000815883,225.06092469999567,None,ScrollUp,정답입니다,225.06092469999567,None,225.06092469999567,None,225.06092469999567,None,225.06092469999567,None,225.71552930003963,None,225.71552930003963,226.21571270003915,,,,,,,,,,,,,,,,207,2023-04-26_13h40.08.734,FishGame,2022.1.1,60.080700409772035,
,5,넌 진부해,4,Green,B,2.458333333333333,3.166666666666667,ScrollUp,ScrollDown,Green.png,2,Negative,Congruent,0,0,0,0,,,,,,,,,,,,,,,,,0,4,4,4,,,,,,,,,,,,,,,,,,,,,,,,,,,,,,,,,,,,,,,,,,,,,,,,,,,,,,,,,,,,,,,,,,,,,,,,,,,,,,,,,1.7638888855775197,0.7981273999903351,226.82085080002435,None,ScrollUp,정답입니다,226.82085080002435,None,226.82085080002435,None,226.82085080002435,None,226.82085080002435,None,227.53221990005113,None,227.53221990005113,228.0346026000334,,,,,,,,,,,,,,,,207,2023-04-26_13h40.08.734,FishGame,2022.1.1,60.080700409772035,
,6,나를 보내줘,6,Orange,A,0,0,ScrollUp,ScrollDown,Orange.png,2,NonTarget,NonTarget,0,0,0,0,,,,,,,,,,,,,,,,,0,5,5,5,,,,,,,,,,,,,,,,,,,,,,,,,,,,,,,,,,,,,,,,,,,,,,,,,,,,,,,,,,,,,,,,,,,,,,,,,,,,,,,,,1.4830246918524306,0.9470139999175444,228.6414814000018,None,NoResponse,무응답입니다,228.6414814000018,None,228.6414814000018,None,228.6414814000018,None,228.6414814000018,None,229.5014300000621,None,229.5014300000621,230.00127960008103,,,,,,,,,,,,,,,,207,2023-04-26_13h40.08.734,FishGame,2022.1.1,60.080700409772035,
,7,넌 엄격해,3,Orange,A,4.166666666666666,4.1,ScrollDown,ScrollUp,Orange.png,2,Neutral,Neutral,0,0,0,0,,,,,,,,,,,,,,,,,0,6,6,6,,,,,,,,,,,,,,,,,,,,,,,,,,,,,,,,,,,,,,,,,,,,,,,,,,,,,,,,,,,,,,,,,,,,,,,,,,,,,,,,,1,0.9316334999166429,230.61581770004705,None,ScrollDown,정답입니다,230.61581770004705,None,230.61581770004705,None,230.61581770004705,None,230.61581770004705,None,231.45124359999318,None,231.45124359999318,231.95111510006245,,,,,,,,,,,,,,,,207,2023-04-26_13h40.08.734,FishGame,2022.1.1,60.080700409772035,
,8,나를 보내줘,6,Orange,A,0,0,ScrollUp,ScrollDown,Orange.png,2,NonTarget,NonTarget,0,0,0,0,,,,,,,,,,,,,,,,,0,7,7,7,,,,,,,,,,,,,,,,,,,,,,,,,,,,,,,,,,,,,,,,,,,,,,,,,,,,,,,,,,,,,,,,,,,,,,,,,,,,,,,,,1.71913580596447,0.8447991999564692,232.56037359999027,None,ScrollUp,정답입니다,232.56037359999027,None,232.56037359999027,None,232.56037359999027,None,232.56037359999027,None,233.3156609000871,None,233.3156609000871,233.81767360004596,,,,,,,,,,,,,,,,207,2023-04-26_13h40.08.734,FishGame,2022.1.1,60.080700409772035,
,9,넌 대담해,3,Green,B,4.875,4.866666666666666,ScrollUp,ScrollDown,Green.png,2,Neutral,Neutral,0,0,0,0,,,,,,,,,,,,,,,,,0,8,8,8,,,,,,,,,,,,,,,,,,,,,,,,,,,,,,,,,,,,,,,,,,,,,,,,,,,,,,,,,,,,,,,,,,,,,,,,,,,,,,,,,1.7067901194095612,0.8315157999750227,234.42536440002732,None,ScrollUp,정답입니다,234.42536440002732,None,234.42536440002732,None,234.42536440002732,None,234.42536440002732,None,235.16771980002522,None,235.16771980002522,235.6676306000445,,,,,,,,,,,,,,,,207,2023-04-26_13h40.08.734,FishGame,2022.1.1,60.080700409772035,
,10,넌 꾸준해,1,Orange,A,5.916666666666668,5.8,ScrollDown,ScrollUp,Orange.png,2,Positive,Congruent,0,0,0,0,,,,,,,,,,,,,,,,,0,9,9,9,,,,,,,,,,,,,,,,,,,,,,,,,,,,,,,,,,,,,,,,,,,,,,,,,,,,,,,,,,,,,,,,,,,,,,,,,,,,,,,,,1.160493830839793,1.066579099977389,236.27699130005203,None,ScrollDown,정답입니다,236.27699130005203,None,236.27699130005203,None,236.27699130005203,None,236.27699130005203,None,237.25089850008953,None,237.25089850008953,237.7489206000464,,,,,,,,,,,,,,,,207,2023-04-26_13h40.08.734,FishGame,2022.1.1,60.080700409772035,
,11,나를 데려가줘,6,Green,B,0,0,ScrollDown,ScrollUp,Green.png,2,NonTarget,NonTarget,0,0,0,0,,,,,,,,,,,,,,,,,0,10,10,10,,,,,,,,,,,,,,,,,,,,,,,,,,,,,,,,,,,,,,,,,,,,,,,,,,,,,,,,,,,,,,,,,,,,,,,,,,,,,,,,,1.2021604826052983,0.949789599981159,238.3555148000596,None,ScrollDown,정답입니다,238.3555148000596,None,238.3555148000596,None,238.3555148000596,None,238.3555148000596,None,239.21759230003227,None,239.21759230003227,239.71762030001264,,,,,,,,,,,,,,,,207,2023-04-26_13h40.08.734,FishGame,2022.1.1,60.080700409772035,
,12,넌 독선적이야,5,Orange,A,2.458333333333333,1.933333333333333,ScrollDown,ScrollUp,Orange.png,2,Negative,Incongruent,0,0,0,0,,,,,,,,,,,,,,,,,0,11,11,11,,,,,,,,,,,,,,,,,,,,,,,,,,,,,,,,,,,,,,,,,,,,,,,,,,,,,,,,,,,,,,,,,,,,,,,,,,,,,,,,,1.1651234477758408,1.1129379000049084,240.32805760006886,None,ScrollDown,정답입니다,240.32805760006886,None,240.32805760006886,None,240.32805760006886,None,240.32805760006886,None,241.34858190000523,None,241.34858190000523,241.84870780003257,,,,,,,,,,,,,,,,207,2023-04-26_13h40.08.734,FishGame,2022.1.1,60.080700409772035,
,13,나를 보내줘,6,Orange,A,0,0,ScrollUp,ScrollDown,Orange.png,2,NonTarget,NonTarget,0,0,0,0,,,,,,,,,,,,,,,,,0,12,12,12,,,,,,,,,,,,,,,,,,,,,,,,,,,,,,,,,,,,,,,,,,,,,,,,,,,,,,,,,,,,,,,,,,,,,,,,,,,,,,,,,1.6111111169060073,0.8650801000185311,242.46064710000064,None,ScrollUp,정답입니다,242.46064710000064,None,242.46064710000064,None,242.46064710000064,None,242.46064710000064,None,243.2342754000565,None,243.2342754000565,243.73429689998738,,,,,,,,,,,,,,,,207,2023-04-26_13h40.08.734,FishGame,2022.1.1,60.080700409772035,
,14,넌 책임감있어,1,Green,B,6.347826086956522,6,ScrollUp,ScrollDown,Green.png,2,Positive,Incongruent,0,0,0,0,,,,,,,,,,,,,,,,,0,13,13,13,,,,,,,,,,,,,,,,,,,,,,,,,,,,,,,,,,,,,,,,,,,,,,,,,,,,,,,,,,,,,,,,,,,,,,,,,,,,,,,,,1.614197532335917,0.8489707999397069,244.34418590005953,None,ScrollUp,정답입니다,244.34418590005953,None,244.34418590005953,None,244.34418590005953,None,244.34418590005953,None,245.1010091000935,None,245.1010091000935,245.60094590007793,,,,,,,,,,,,,,,,207,2023-04-26_13h40.08.734,FishGame,2022.1.1,60.080700409772035,
,15,넌 문학적이야,3,Orange,A,4.708333333333334,4.333333333333333,ScrollDown,ScrollUp,Orange.png,2,Neutral,Neutral,0,0,0,0,,,,,,,,,,,,,,,,,0,14,14,14,,,,,,,,,,,,,,,,,,,,,,,,,,,,,,,,,,,,,,,,,,,,,,,,,,,,,,,,,,,,,,,,,,,,,,,,,,,,,,,,,1.28086419403553,0.895992900012061,246.21129390003625,None,ScrollDown,정답입니다,246.21129390003625,None,246.21129390003625,None,246.21129390003625,None,246.21129390003625,None,247.01780160004273,None,247.01780160004273,247.51742070005275,,,,,,,,,,,,,,,,207,2023-04-26_13h40.08.734,FishGame,2022.1.1,60.080700409772035,
,16,넌 재미있어,1,Green,B,5.875,5.7,ScrollUp,ScrollDown,Green.png,2,Positive,Incongruent,0,0,0,0,,,,,,,,,,,,,,,,,0,15,15,15,,,,,,,,,,,,,,,,,,,,,,,,,,,,,,,,,,,,,,,,,,,,,,,,,,,,,,,,,,,,,,,,,,,,,,,,,,,,,,,,,1.5756172835826874,0.9282084000296891,248.12989360000938,None,ScrollUp,정답입니다,248.12989360000938,None,248.12989360000938,None,248.12989360000938,None,248.12989360000938,None,248.96511720004492,None,248.96511720004492,249.46505140000954,,,,,,,,,,,,,,,,207,2023-04-26_13h40.08.734,FishGame,2022.1.1,60.080700409772035,
,17,나를 데려가줘,6,Green,B,0,0,ScrollDown,ScrollUp,Green.png,2,NonTarget,NonTarget,0,0,0,0,,,,,,,,,,,,,,,,,0,16,16,16,,,,,,,,,,,,,,,,,,,,,,,,,,,,,,,,,,,,,,,,,,,,,,,,,,,,,,,,,,,,,,,,,,,,,,,,,,,,,,,,,1.2021604826052983,0.9123163999756798,250.07240060006734,None,ScrollDown,정답입니다,250.07240060006734,None,250.07240060006734,None,250.07240060006734,None,250.07240060006734,None,250.89841730007902,None,250.89841730007902,251.40081100002863,,,,,,,,,,,,,,,,207,2023-04-26_13h40.08.734,FishGame,2022.1.1,60.080700409772035,
,18,넌 협력적이야,1,Orange,A,5.625,5.633333333333334,ScrollDown,ScrollUp,Orange.png,2,Positive,Congruent,0,0,0,0,,,,,,,,,,,,,,,,,0,17,17,17,,,,,,,,,,,,,,,,,,,,,,,,,,,,,,,,,,,,,,,,,,,,,,,,,,,,,,,,,,,,,,,,,,,,,,,,,,,,,,,,,1.2083333383003871,0.8815249000908807,252.01002739998512,None,ScrollDown,정답입니다,252.01002739998512,None,252.01002739998512,None,252.01002739998512,None,252.01002739998512,None,252.80089370009955,None,252.80089370009955,253.30063320009504,,,,,,,,,,,,,,,,207,2023-04-26_13h40.08.734,FishGame,2022.1.1,60.080700409772035,
,19,넌 평범해,3,Green,B,4.333333333333332,4.233333333333333,ScrollUp,ScrollDown,Green.png,2,Neutral,Neutral,0,0,0,0,,,,,,,,,,,,,,,,,0,18,18,18,,,,,,,,,,,,,,,,,,,,,,,,,,,,,,,,,,,,,,,,,,,,,,,,,,,,,,,,,,,,,,,,,,,,,,,,,,,,,,,,,1.6944444452722869,0.812959700007923,253.90834329999052,None,ScrollUp,정답입니다,253.90834329999052,None,253.90834329999052,None,253.90834329999052,None,253.90834329999052,None,254.6339130999986,None,254.6339130999986,255.13397020008415,,,,,,,,,,,,,,,,207,2023-04-26_13h40.08.734,FishGame,2022.1.1,60.080700409772035,
,20,넌 오만해,5,Orange,A,2.333333333333333,2,ScrollDown,ScrollUp,Orange.png,2,Negative,Incongruent,0,0,0,0,,,,,,,,,,,,,,,,,0,19,19,19,,,,,,,,,,,,,,,,,,,,,,,,,,,,,,,,,,,,,,,,,,,,,,,,,,,,,,,,,,,,,,,,,,,,,,,,,,,,,,,,,1.1574074029922485,0.9164819000288844,255.74752129998524,None,ScrollDown,정답입니다,255.74752129998524,None,255.74752129998524,None,255.74752129998524,None,255.74752129998524,None,256.5673140999861,None,256.5673140999861,257.0672414000146,,,,,,,,,,,,,,,,207,2023-04-26_13h40.08.734,FishGame,2022.1.1,60.080700409772035,
,21,넌 운이없어,4,Green,B,3,3.466666666666667,ScrollUp,ScrollDown,Green.png,2,Negative,Congruent,0,0,0,0,,,,,,,,,,,,,,,,,0,20,20,20,,,,,,,,,,,,,,,,,,,,,,,,,,,,,,,,,,,,,,,,,,,,,,,,,,,,,,,,,,,,,,,,,,,,,,,,,,,,,,,,,1.6867284004886947,0.7425255000125617,257.67411990009714,None,ScrollUp,정답입니다,257.67411990009714,None,257.67411990009714,None,257.67411990009714,None,257.67411990009714,None,258.3272355000954,None,258.3272355000954,258.8338237000862,,,,,,,,,,,,,,,,207,2023-04-26_13h40.08.734,FishGame,2022.1.1,60.080700409772035,
,22,넌 창조적이야,2,Green,B,6.125,4.633333333333334,ScrollUp,ScrollDown,Green.png,2,Positive,Incongruent,0,0,0,0,,,,,,,,,,,,,,,,,0,21,21,21,,,,,,,,,,,,,,,,,,,,,,,,,,,,,,,,,,,,,,,,,,,,,,,,,,,,,,,,,,,,,,,,,,,,,,,,,,,,,,,,,1.6666666691501937,0.829561399994418,259.44185430009384,None,ScrollUp,정답입니다,259.44185430009384,None,259.44185430009384,None,259.44185430009384,None,259.44185430009384,None,260.1817565000383,None,260.1817565000383,260.683853500057,,,,,,,,,,,,,,,,207,2023-04-26_13h40.08.734,FishGame,2022.1.1,60.080700409772035,
,23,나를 보내줘,6,Orange,A,0,0,ScrollUp,ScrollDown,Orange.png,2,NonTarget,NonTarget,0,0,0,0,,,,,,,,,,,,,,,,,0,22,22,22,,,,,,,,,,,,,,,,,,,,,,,,,,,,,,,,,,,,,,,,,,,,,,,,,,,,,,,,,,,,,,,,,,,,,,,,,,,,,,,,,1.6126543184121451,0.9294477999210358,261.2900659000734,None,ScrollUp,정답입니다,261.2900659000734,None,261.2900659000734,None,261.2900659000734,None,261.2900659000734,None,262.1318069000263,None,262.1318069000263,262.63379710004665,,,,,,,,,,,,,,,,207,2023-04-26_13h40.08.734,FishGame,2022.1.1,60.080700409772035,
,24,넌 통찰력있어,2,Orange,A,6.5,4.8,ScrollDown,ScrollUp,Orange.png,2,Positive,Congruent,0,0,0,0,,,,,,,,,,,,,,,,,0,23,23,23,,,,,,,,,,,,,,,,,,,,,,,,,,,,,,,,,,,,,,,,,,,,,,,,,,,,,,,,,,,,,,,,,,,,,,,,,,,,,,,,,1.1851851791143417,0.7943009999580681,263.2443423999939,None,ScrollDown,정답입니다,263.2443423999939,None,263.2443423999939,None,263.2443423999939,None,263.2443423999939,None,263.9316681000637,None,263.9316681000637,264.4337214000989,,,,,,,,,,,,,,,,207,2023-04-26_13h40.08.734,FishGame,2022.1.1,60.080700409772035,
,25,넌 경솔해,5,Green,B,2.458333333333333,2.266666666666667,ScrollUp,ScrollDown,Green.png,2,Negative,Congruent,0,0,0,0,,,,,,,,,,,,,,,,,0,24,24,24,,,,,,,,,,,,,,,,,,,,,,,,,,,,,,,,,,,,,,,,,,,,,,,,,,,,,,,,,,,,,,,,,,,,,,,,,,,,,,,,,1.5246913575877747,0.8476116999518126,265.0405556000769,None,NoResponse,무응답입니다,265.0405556000769,None,265.0405556000769,None,265.0405556000769,None,265.0405556000769,None,265.8004358999897,None,265.8004358999897,266.3008899000706,,,,,,,,,,,,,,,,207,2023-04-26_13h40.08.734,FishGame,2022.1.1,60.080700409772035,
,26,넌 초조해,4,Orange,A,2.916666666666667,3.133333333333333,ScrollDown,ScrollUp,Orange.png,2,Negative,Incongruent,0,0,0,0,,,,,,,,,,,,,,,,,0,25,25,25,,,,,,,,,,,,,,,,,,,,,,,,,,,,,,,,,,,,,,,,,,,,,,,,,,,,,,,,,,,,,,,,,,,,,,,,,,,,,,,,,1,0.8812354999827221,266.909014300094,None,ScrollDown,정답입니다,266.909014300094,None,266.909014300094,None,266.909014300094,None,266.909014300094,None,267.698434800026,None,267.698434800026,268.2003709001001,,,,,,,,,,,,,,,,207,2023-04-26_13h40.08.734,FishGame,2022.1.1,60.080700409772035,
,27,넌 무관심해,4,Green,B,2.833333333333333,2.9,ScrollUp,ScrollDown,Green.png,2,Negative,Congruent,0,0,0,0,,,,,,,,,,,,,,,,,0,26,26,26,,,,,,,,,,,,,,,,,,,,,,,,,,,,,,,,,,,,,,,,,,,,,,,,,,,,,,,,,,,,,,,,,,,,,,,,,,,,,,,,,1.919753094514211,0.929140199907124,268.8070861999877,None,ScrollUp,정답입니다,268.8070861999877,None,268.8070861999877,None,268.8070861999877,None,268.8070861999877,None,269.64797859999817,None,269.64797859999817,270.1480550999986,,,,,,,,,,,,,,,,207,2023-04-26_13h40.08.734,FishGame,2022.1.1,60.080700409772035,
,28,넌 감성적이야,3,Green,B,4.125,4.166666666666667,ScrollUp,ScrollDown,Green.png,2,Neutral,Neutral,0,0,0,0,,,,,,,,,,,,,,,,,0,27,27,27,,,,,,,,,,,,,,,,,,,,,,,,,,,,,,,,,,,,,,,,,,,,,,,,,,,,,,,,,,,,,,,,,,,,,,,,,,,,,,,,,1.9861110945542653,0.9500021999701858,270.75007980002556,None,ScrollUp,정답입니다,270.75007980002556,None,270.75007980002556,None,270.75007980002556,None,270.75007980002556,None,271.6147030000575,None,271.6147030000575,272.1147084000986,,,,,,,,,,,,,,,,207,2023-04-26_13h40.08.734,FishGame,2022.1.1,60.080700409772035,
,29,넌 배려심있어,1,Orange,A,6.083333333333333,5.5,ScrollDown,ScrollUp,Orange.png,2,Positive,Congruent,0,0,0,0,,,,,,,,,,,,,,,,,0,28,28,28,,,,,,,,,,,,,,,,,,,,,,,,,,,,,,,,,,,,,,,,,,,,,,,,,,,,,,,,,,,,,,,,,,,,,,,,,,,,,,,,,1,0.9999123000307009,272.72713470004965,None,ScrollDown,정답입니다,272.72713470004965,None,272.72713470004965,None,272.72713470004965,None,272.72713470004965,None,273.6337871000869,None,273.6337871000869,274.13371740002185,,,,,,,,,,,,,,,,207,2023-04-26_13h40.08.734,FishGame,2022.1.1,60.080700409772035,
,30,넌 숨김없어,3,Orange,A,4.5,4.933333333333334,ScrollDown,ScrollUp,Orange.png,2,Neutral,Neutral,0,0,0,0,,,,,,,,,,,,,,,,,0,29,29,29,,,,,,,,,,,,,,,,,,,,,,,,,,,,,,,,,,,,,,,,,,,,,,,,,,,,,,,,,,,,,,,,,,,,,,,,,,,,,,,,,1,0.898124200059101,274.7436684999848,None,ScrollDown,정답입니다,274.7436684999848,None,274.7436684999848,None,274.7436684999848,None,274.7436684999848,None,275.55029210005887,None,275.55029210005887,276.0507297000149,,,,,,,,,,,,,,,,207,2023-04-26_13h40.08.734,FishGame,2022.1.1,60.080700409772035,
,31,넌 훌륭해,2,Green,B,5.916666666666667,4.033333333333333,ScrollUp,ScrollDown,Green.png,2,Positive,Incongruent,0,0,0,0,,,,,,,,,,,,,,,,,0,30,30,30,,,,,,,,,,,,,,,,,,,,,,,,,,,,,,,,,,,,,,,,,,,,,,,,,,,,,,,,,,,,,,,,,,,,,,,,,,,,,,,,,2,0.9648909999523312,276.66212950006593,None,ScrollUp,정답입니다,276.66212950006593,None,276.66212950006593,None,276.66212950006593,None,276.66212950006593,None,277.53352410008665,None,277.53352410008665,278.03346310008783,,,,,,,,,,,,,,,,207,2023-04-26_13h40.08.734,FishGame,2022.1.1,60.080700409772035,
,32,넌 슬기로워,2,Orange,A,6.166666666666667,4.1,ScrollDown,ScrollUp,Orange.png,2,Positive,Congruent,0,0,0,0,,,,,,,,,,,,,,,,,0,31,31,31,,,,,,,,,,,,,,,,,,,,,,,,,,,,,,,,,,,,,,,,,,,,,,,,,,,,,,,,,,,,,,,,,,,,,,,,,,,,,,,,,1,0.8499732000054792,278.641941400012,None,ScrollDown,정답입니다,278.641941400012,None,278.641941400012,None,278.641941400012,None,278.641941400012,None,279.40019290009513,None,279.40019290009513,279.90017810009886,,,,,,,,,,,,,,,,207,2023-04-26_13h40.08.734,FishGame,2022.1.1,60.080700409772035,
,33,넌 냉혹해,5,Orange,A,2.583333333333333,2.1,ScrollDown,ScrollUp,Orange.png,2,Negative,Incongruent,0,0,0,0,,,,,,,,,,,,,,,,,0,32,32,32,,,,,,,,,,,,,,,,,,,,,,,,,,,,,,,,,,,,,,,,,,,,,,,,,,,,,,,,,,,,,,,,,,,,,,,,,,,,,,,,,1,0.8332275999709964,280.5094660000177,None,ScrollDown,정답입니다,280.5094660000177,None,280.5094660000177,None,280.5094660000177,None,280.5094660000177,None,281.2500988000538,None,281.2500988000538,281.7500264000846,,,,,,,,,,,,,,,,207,2023-04-26_13h40.08.734,FishGame,2022.1.1,60.080700409772035,
,34,나를 데려가줘,6,Green,B,0,0,ScrollDown,ScrollUp,Green.png,2,NonTarget,NonTarget,0,0,0,0,,,,,,,,,,,,,,,,,0,33,33,33,,,,,,,,,,,,,,,,,,,,,,,,,,,,,,,,,,,,,,,,,,,,,,,,,,,,,,,,,,,,,,,,,,,,,,,,,,,,,,,,,1.095679019888242,0.9648027999792248,282.3542046000948,None,ScrollDown,정답입니다,282.3542046000948,None,282.3542046000948,None,282.3542046000948,None,282.3542046000948,None,283.2312302000355,None,283.2312302000355,283.7334017000394,,,,,,,,,,,,,,,,207,2023-04-26_13h40.08.734,FishGame,2022.1.1,60.080700409772035,
,35,넌 편파적이야,5,Green,B,2.125,2,ScrollUp,ScrollDown,Green.png,2,Negative,Congruent,0,0,0,0,,,,,,,,,,,,,,,,,0,34,34,34,,,,,,,,,,,,,,,,,,,,,,,,,,,,,,,,,,,,,,,,,,,,,,,,,,,,,,,,,,,,,,,,,,,,,,,,,,,,,,,,,1.4891975312493742,0.8641330999089405,284.34060039999895,None,NoResponse,무응답입니다,284.34060039999895,None,284.34060039999895,None,284.34060039999895,None,284.34060039999895,None,285.11435440008063,None,285.11435440008063,285.615277600009,,,,,,,,,,,,,,,,207,2023-04-26_13h40.08.734,FishGame,2022.1.1,60.080700409772035,
,36,넌 슬퍼,4,Orange,A,2.583333333333333,3.066666666666667,ScrollDown,ScrollUp,Orange.png,2,Negative,Incongruent,0,0,0,0,,,,,,,,,,,,,,,,,0,35,35,35,,,,,,,,,,,,,,,,,,,,,,,,,,,,,,,,,,,,,,,,,,,,,,,,,,,,,,,,,,,,,,,,,,,,,,,,,,,,,,,,,1,0.847468200023286,286.22235500009265,None,ScrollDown,정답입니다,286.22235500009265,None,286.22235500009265,None,286.22235500009265,None,286.22235500009265,None,286.981152900029,None,286.981152900029,287.48345719999634,,,,,,,,,,,,,,,,207,2023-04-26_13h40.08.734,FishGame,2022.1.1,60.080700409772035,
,37,나를 데려가줘,6,Green,B,0,0,ScrollDown,ScrollUp,Green.png,2,NonTarget,NonTarget,0,0,0,0,,,,,,,,,,,,,,,,,0,36,36,36,,,,,,,,,,,,,,,,,,,,,,,,,,,,,,,,,,,,,,,,,,,,,,,,,,,,,,,,,,,,,,,,,,,,,,,,,,,,,,,,,1.0293209950129192,1.0819669000338763,288.08726619998924,None,ScrollDown,정답입니다,288.08726619998924,None,288.08726619998924,None,288.08726619998924,None,288.08726619998924,None,289.0835467000725,None,289.0835467000725,289.5832773000002,,,,,,,,,,,,,,,,207,2023-04-26_13h40.08.734,FishGame,2022.1.1,60.080700409772035,
,38,넌 친절해,1,Green,B,6.041666666666667,5.533333333333333,ScrollUp,ScrollDown,Green.png,2,Positive,Incongruent,0,0,0,0,,,,,,,,,,,,,,,,,0,37,37,37,,,,,,,,,,,,,,,,,,,,,,,,,,,,,,,,,,,,,,,,,,,,,,,,,,,,,,,,,,,,,,,,,,,,,,,,,,,,,,,,,2,0.9501871999818832,290.19065870007034,None,ScrollUp,정답입니다,290.19065870007034,None,290.19065870007034,None,290.19065870007034,None,290.19065870007034,None,291.04983010003343,None,291.04983010003343,291.54991180007346,,,,,,,,,,,,,,,,207,2023-04-26_13h40.08.734,FishGame,2022.1.1,60.080700409772035,
,1,넌 엉성해,4,Orange,A,3,3.3,ScrollDown,ScrollUp,Orange.png,3,Negative,Incongruent,0,0,0,0,,,,,,,,,,,,,,,,,,,,,0,0,0,0,,,,,,,,,,,,,,,,,,,,,,,,,,,,,,,,,,,,323.61584119999316,325.1161073000403,325.15242390008643,326.1160623000469,326.14941380009986,327.09933290001936,327.09933290001936,None,,,,,,,,,,,,,,,,,,,,,,,,,,,,,,,,,,1,1.093803699943237,328.17837610002607,None,ScrollDown,정답입니다,328.17837610002607,None,328.17837610002607,None,328.17837610002607,None,328.17837610002607,None,329.18249090004247,None,329.18249090004247,329.68249090004247,292.0499860000564,None,292.0499860000564,None,0.035185184,-0.13333334,1,0,0,0.016132820048369467,None,322.049276500009,None,,,207,2023-04-26_13h40.08.734,FishGame,2022.1.1,60.080700409772035,
,2,나를 보내줘,6,Orange,A,0,0,ScrollUp,ScrollDown,Orange.png,3,NonTarget,NonTarget,0,0,0,0,,,,,,,,,,,,,,,,,,,,,0,1,1,1,,,,,,,,,,,,,,,,,,,,,,,,,,,,,,,,,,,,,,,,,,,,,,,,,,,,,,,,,,,,,,,,,,,,,,,,,,,,,2,1.0299739999463782,330.29476010007784,None,ScrollUp,정답입니다,330.29476010007784,None,330.29476010007784,None,330.29476010007784,None,330.29476010007784,None,331.2323893000139,None,331.2323893000139,331.73238890001085,,,,,,,,,,,,,,,,207,2023-04-26_13h40.08.734,FishGame,2022.1.1,60.080700409772035,
,3,넌 활발해,1,Green,B,5.666666666666667,5.6,ScrollUp,ScrollDown,Green.png,3,Positive,Incongruent,0,0,0,0,,,,,,,,,,,,,,,,,,,,,0,2,2,2,,,,,,,,,,,,,,,,,,,,,,,,,,,,,,,,,,,,,,,,,,,,,,,,,,,,,,,,,,,,,,,,,,,,,,,,,,,,,2,0.8146690999856219,332.3393985000439,None,ScrollUp,정답입니다,332.3393985000439,None,332.3393985000439,None,332.3393985000439,None,332.3393985000439,None,333.0657307000365,None,333.0657307000365,333.56572750001214,,,,,,,,,,,,,,,,207,2023-04-26_13h40.08.734,FishGame,2022.1.1,60.080700409772035,
,4,넌 논리적이야,2,Orange,A,5.666666666666666,4.633333333333334,ScrollDown,ScrollUp,Orange.png,3,Positive,Congruent,0,0,0,0,,,,,,,,,,,,,,,,,,,,,0,3,3,3,,,,,,,,,,,,,,,,,,,,,,,,,,,,,,,,,,,,,,,,,,,,,,,,,,,,,,,,,,,,,,,,,,,,,,,,,,,,,1,0.880096000037156,334.1748750000261,None,ScrollDown,정답입니다,334.1748750000261,None,334.1748750000261,None,334.1748750000261,None,334.1748750000261,None,334.96335340000223,None,334.96335340000223,335.463355600019,,,,,,,,,,,,,,,,207,2023-04-26_13h40.08.734,FishGame,2022.1.1,60.080700409772035,
,5,넌 과묵해,3,Orange,A,3.875,4.4,ScrollDown,ScrollUp,Orange.png,3,Neutral,Neutral,0,0,0,0,,,,,,,,,,,,,,,,,,,,,0,4,4,4,,,,,,,,,,,,,,,,,,,,,,,,,,,,,,,,,,,,,,,,,,,,,,,,,,,,,,,,,,,,,,,,,,,,,,,,,,,,,1,0.9316429999889806,336.0710156999994,None,ScrollDown,정답입니다,336.0710156999994,None,336.0710156999994,None,336.0710156999994,None,336.0710156999994,None,336.91335110005457,None,336.91335110005457,337.413369600079,,,,,,,,,,,,,,,,207,2023-04-26_13h40.08.734,FishGame,2022.1.1,60.080700409772035,
,6,나를 데려가줘,6,Green,B,0,0,ScrollDown,ScrollUp,Green.png,3,NonTarget,NonTarget,0,0,0,0,,,,,,,,,,,,,,,,,,,,,0,5,5,5,,,,,,,,,,,,,,,,,,,,,,,,,,,,,,,,,,,,,,,,,,,,,,,,,,,,,,,,,,,,,,,,,,,,,,,,,,,,,1,1.0646447000326589,338.0214001000859,None,ScrollDown,정답입니다,338.0214001000859,None,338.0214001000859,None,338.0214001000859,None,338.0214001000859,None,338.99917450000066,None,338.99917450000066,339.4990501999855,,,,,,,,,,,,,,,,207,2023-04-26_13h40.08.734,FishGame,2022.1.1,60.080700409772035,
,7,넌 미숙해,4,Green,B,3,3,ScrollUp,ScrollDown,Green.png,3,Negative,Congruent,0,0,0,0,,,,,,,,,,,,,,,,,,,,,0,6,6,6,,,,,,,,,,,,,,,,,,,,,,,,,,,,,,,,,,,,,,,,,,,,,,,,,,,,,,,,,,,,,,,,,,,,,,,,,,,,,2,1.064608999993652,340.1032680000644,None,ScrollUp,정답입니다,340.1032680000644,None,340.1032680000644,None,340.1032680000644,None,340.1032680000644,None,341.08230330003425,None,341.08230330003425,341.58222730003763,,,,,,,,,,,,,,,,207,2023-04-26_13h40.08.734,FishGame,2022.1.1,60.080700409772035,
,8,나를 보내줘,6,Orange,A,0,0,ScrollUp,ScrollDown,Orange.png,3,NonTarget,NonTarget,0,0,0,0,,,,,,,,,,,,,,,,,,,,,0,7,7,7,,,,,,,,,,,,,,,,,,,,,,,,,,,,,,,,,,,,,,,,,,,,,,,,,,,,,,,,,,,,,,,,,,,,,,,,,,,,,2,1.1296179000055417,342.18826600001194,None,ScrollUp,정답입니다,342.18826600001194,None,342.18826600001194,None,342.18826600001194,None,342.18826600001194,None,343.23229700000957,None,343.23229700000957,343.73282070003916,,,,,,,,,,,,,,,,207,2023-04-26_13h40.08.734,FishGame,2022.1.1,60.080700409772035,
,9,넌 자신만만해,3,Green,B,4.833333333333334,4.333333333333333,ScrollUp,ScrollDown,Green.png,3,Neutral,Neutral,0,0,0,0,,,,,,,,,,,,,,,,,,,,,0,8,8,8,,,,,,,,,,,,,,,,,,,,,,,,,,,,,,,,,,,,,,,,,,,,,,,,,,,,,,,,,,,,,,,,,,,,,,,,,,,,,2,1.3111402000067756,344.3400676000165,None,ScrollUp,정답입니다,344.3400676000165,None,344.3400676000165,None,344.3400676000165,None,344.3400676000165,None,345.5654604000738,None,345.5654604000738,346.06545059999917,,,,,,,,,,,,,,,,207,2023-04-26_13h40.08.734,FishGame,2022.1.1,60.080700409772035,
,10,넌 탐욕스러워,5,Orange,A,2.25,2.1,ScrollDown,ScrollUp,Orange.png,3,Negative,Incongruent,0,0,0,0,,,,,,,,,,,,,,,,,,,,,0,9,9,9,,,,,,,,,,,,,,,,,,,,,,,,,,,,,,,,,,,,,,,,,,,,,,,,,,,,,,,,,,,,,,,,,,,,,,,,,,,,,1,0.9804973000427708,346.6758418000536,None,ScrollDown,정답입니다,346.6758418000536,None,346.6758418000536,None,346.6758418000536,None,346.6758418000536,None,347.56312260008417,None,347.56312260008417,348.0630989000201,,,,,,,,,,,,,,,,207,2023-04-26_13h40.08.734,FishGame,2022.1.1,60.080700409772035,
,11,넌 인기있어,2,Orange,A,5.458333333333333,4.5,ScrollDown,ScrollUp,Orange.png,3,Positive,Congruent,0,0,0,0,,,,,,,,,,,,,,,,,,,,,0,10,10,10,,,,,,,,,,,,,,,,,,,,,,,,,,,,,,,,,,,,,,,,,,,,,,,,,,,,,,,,,,,,,,,,,,,,,,,,,,,,,1,0.901141699985601,348.6676055000862,None,ScrollDown,정답입니다,348.6676055000862,None,348.6676055000862,None,348.6676055000862,None,348.6676055000862,None,349.4799021000508,None,349.4799021000508,349.98219870007597,,,,,,,,,,,,,,,,207,2023-04-26_13h40.08.734,FishGame,2022.1.1,60.080700409772035,
,12,나를 데려가줘,6,Green,B,0,0,ScrollDown,ScrollUp,Green.png,3,NonTarget,NonTarget,0,0,0,0,,,,,,,,,,,,,,,,,,,,,0,11,11,11,,,,,,,,,,,,,,,,,,,,,,,,,,,,,,,,,,,,,,,,,,,,,,,,,,,,,,,,,,,,,,,,,,,,,,,,,,,,,1.0015431940555573,2.2124672000063583,350.5866811000742,None,ScrollDown,정답입니다,350.5866811000742,None,350.5866811000742,None,350.5866811000742,None,350.5866811000742,None,352.7130275000818,None,352.7130275000818,353.21298569999635,,,,,,,,,,,,,,,,207,2023-04-26_13h40.08.734,FishGame,2022.1.1,60.080700409772035,
,13,넌 뛰어나,2,Green,B,6.166666666666667,4,ScrollUp,ScrollDown,Green.png,3,Positive,Incongruent,0,0,0,0,,,,,,,,,,,,,,,,,,,,,0,12,12,12,,,,,,,,,,,,,,,,,,,,,,,,,,,,,,,,,,,,,,,,,,,,,,,,,,,,,,,,,,,,,,,,,,,,,,,,,,,,,1.7978395173947017,0.8656909000128508,353.82164770003874,None,ScrollUp,정답입니다,353.82164770003874,None,353.82164770003874,None,353.82164770003874,None,353.82164770003874,None,354.59882690000813,None,354.59882690000813,355.09873470000457,,,,,,,,,,,,,,,,207,2023-04-26_13h40.08.734,FishGame,2022.1.1,60.080700409772035,
,14,넌 낙관적이야,1,Orange,A,5.75,5.8,ScrollDown,ScrollUp,Orange.png,3,Positive,Congruent,0,0,0,0,,,,,,,,,,,,,,,,,,,,,0,13,13,13,,,,,,,,,,,,,,,,,,,,,,,,,,,,,,,,,,,,,,,,,,,,,,,,,,,,,,,,,,,,,,,,,,,,,,,,,,,,,1,0.9112657000077888,355.7075798000442,None,ScrollDown,정답입니다,355.7075798000442,None,355.7075798000442,None,355.7075798000442,None,355.7075798000442,None,356.52515010000207,None,356.52515010000207,357.02956759999506,,,,,,,,,,,,,,,,207,2023-04-26_13h40.08.734,FishGame,2022.1.1,60.080700409772035,
,15,넌 산만해,4,Green,B,2.695652173913043,3.033333333333333,ScrollUp,ScrollDown,Green.png,3,Negative,Congruent,0,0,0,0,,,,,,,,,,,,,,,,,,,,,0,14,14,14,,,,,,,,,,,,,,,,,,,,,,,,,,,,,,,,,,,,,,,,,,,,,,,,,,,,,,,,,,,,,,,,,,,,,,,,,,,,,1.9166666666666667,0.8487859000451863,357.6330640000524,None,ScrollUp,정답입니다,357.6330640000524,None,357.6330640000524,None,357.6330640000524,None,357.6330640000524,None,358.3962445000652,None,358.3962445000652,358.8962593000615,,,,,,,,,,,,,,,,207,2023-04-26_13h40.08.734,FishGame,2022.1.1,60.080700409772035,
,16,나를 보내줘,6,Orange,A,0,0,ScrollUp,ScrollDown,Orange.png,3,NonTarget,NonTarget,0,0,0,0,,,,,,,,,,,,,,,,,,,,,0,15,15,15,,,,,,,,,,,,,,,,,,,,,,,,,,,,,,,,,,,,,,,,,,,,,,,,,,,,,,,,,,,,,,,,,,,,,,,,,,,,,1.8348765522241592,1.0998918999684975,359.50436430005357,None,ScrollUp,정답입니다,359.50436430005357,None,359.50436430005357,None,359.50436430005357,None,359.50436430005357,None,360.5153383000288,None,360.5153383000288,361.01532740006223,,,,,,,,,,,,,,,,207,2023-04-26_13h40.08.734,FishGame,2022.1.1,60.080700409772035,
,17,넌 교활해,5,Green,B,2.333333333333333,2.133333333333333,ScrollUp,ScrollDown,Green.png,3,Negative,Congruent,0,0,0,0,,,,,,,,,,,,,,,,,,,,,0,16,16,16,,,,,,,,,,,,,,,,,,,,,,,,,,,,,,,,,,,,,,,,,,,,,,,,,,,,,,,,,,,,,,,,,,,,,,,,,,,,,2,0.9776752000907436,361.6218606000766,None,ScrollUp,정답입니다,361.6218606000766,None,361.6218606000766,None,361.6218606000766,None,361.6218606000766,None,362.50836159999017,None,362.50836159999017,363.01278039999306,,,,,,,,,,,,,,,,207,2023-04-26_13h40.08.734,FishGame,2022.1.1,60.080700409772035,
,18,나를 보내줘,6,Orange,A,0,0,ScrollUp,ScrollDown,Orange.png,3,NonTarget,NonTarget,0,0,0,0,,,,,,,,,,,,,,,,,,,,,0,17,17,17,,,,,,,,,,,,,,,,,,,,,,,,,,,,,,,,,,,,,,,,,,,,,,,,,,,,,,,,,,,,,,,,,,,,,,,,,,,,,1.9629629850387573,1.030929600005038,363.6216488000937,None,ScrollUp,정답입니다,363.6216488000937,None,363.6216488000937,None,363.6216488000937,None,363.6216488000937,None,364.56281580007635,None,364.56281580007635,365.0628100000322,,,,,,,,,,,,,,,,207,2023-04-26_13h40.08.734,FishGame,2022.1.1,60.080700409772035,
,19,넌 불친절해,5,Green,B,2.208333333333333,2.033333333333333,ScrollUp,ScrollDown,Green.png,3,Negative,Congruent,0,0,0,0,,,,,,,,,,,,,,,,,,,,,0,18,18,18,,,,,,,,,,,,,,,,,,,,,,,,,,,,,,,,,,,,,,,,,,,,,,,,,,,,,,,,,,,,,,,,,,,,,,,,,,,,,1.8811728457609813,0.9332402000436559,365.6752631000709,None,ScrollUp,정답입니다,365.6752631000709,None,365.6752631000709,None,365.6752631000709,None,365.6752631000709,None,366.51525900000706,None,366.51525900000706,367.015229600016,,,,,,,,,,,,,,,,207,2023-04-26_13h40.08.734,FishGame,2022.1.1,60.080700409772035,
,20,넌 지적이야,2,Green,B,5.75,4.366666666666666,ScrollUp,ScrollDown,Green.png,3,Positive,Incongruent,0,0,0,0,,,,,,,,,,,,,,,,,,,,,0,19,19,19,,,,,,,,,,,,,,,,,,,,,,,,,,,,,,,,,,,,,,,,,,,,,,,,,,,,,,,,,,,,,,,,,,,,,,,,,,,,,1.825617293516795,0.7981851999647915,367.6198945000069,None,ScrollUp,정답입니다,367.6198945000069,None,367.6198945000069,None,367.6198945000069,None,367.6198945000069,None,368.3318101000041,None,368.3318101000041,368.8316699001007,,,,,,,,,,,,,,,,207,2023-04-26_13h40.08.734,FishGame,2022.1.1,60.080700409772035,
,21,넌 우유부단해,4,Orange,A,2.666666666666667,3.166666666666667,ScrollDown,ScrollUp,Orange.png,3,Negative,Incongruent,0,0,0,0,,,,,,,,,,,,,,,,,,,,,0,20,20,20,,,,,,,,,,,,,,,,,,,,,,,,,,,,,,,,,,,,,,,,,,,,,,,,,,,,,,,,,,,,,,,,,,,,,,,,,,,,,1,0.9478172999806702,369.4418769000331,None,ScrollDown,정답입니다,369.4418769000331,None,369.4418769000331,None,369.4418769000331,None,369.4418769000331,None,370.29829480010085,None,370.29829480010085,370.7983472000342,,,,,,,,,,,,,,,,207,2023-04-26_13h40.08.734,FishGame,2022.1.1,60.080700409772035,
,22,나를 데려가줘,6,Green,B,0,0,ScrollDown,ScrollUp,Green.png,3,NonTarget,NonTarget,0,0,0,0,,,,,,,,,,,,,,,,,,,,,0,21,21,21,,,,,,,,,,,,,,,,,,,,,,,,,,,,,,,,,,,,,,,,,,,,,,,,,,,,,,,,,,,,,,,,,,,,,,,,,,,,,1.1481481442848842,1.0164575000526384,371.4020833000541,None,ScrollDown,정답입니다,371.4020833000541,None,371.4020833000541,None,371.4020833000541,None,371.4020833000541,None,372.3295035000192,None,372.3295035000192,372.83151600009296,,,,,,,,,,,,,,,,207,2023-04-26_13h40.08.734,FishGame,2022.1.1,60.080700409772035,
,23,넌 성실해,1,Green,B,6.041666666666666,5.7,ScrollUp,ScrollDown,Green.png,3,Positive,Incongruent,0,0,0,0,,,,,,,,,,,,,,,,,,,,,0,22,22,22,,,,,,,,,,,,,,,,,,,,,,,,,,,,,,,,,,,,,,,,,,,,,,,,,,,,,,,,,,,,,,,,,,,,,,,,,,,,,1.8503086417913437,0.8813204999314621,373.4346931000473,None,ScrollUp,정답입니다,373.4346931000473,None,373.4346931000473,None,373.4346931000473,None,373.4346931000473,None,374.2315602999879,None,374.2315602999879,374.73157500009984,,,,,,,,,,,,,,,,207,2023-04-26_13h40.08.734,FishGame,2022.1.1,60.080700409772035,
,24,넌 현실주의적이야,3,Orange,A,4.625,4.4,ScrollDown,ScrollUp,Orange.png,3,Neutral,Neutral,0,0,0,0,,,,,,,,,,,,,,,,,,,,,0,23,23,23,,,,,,,,,,,,,,,,,,,,,,,,,,,,,,,,,,,,,,,,,,,,,,,,,,,,,,,,,,,,,,,,,,,,,,,,,,,,,1,0.9146617000224069,375.33879910001997,None,ScrollDown,정답입니다,375.33879910001997,None,375.33879910001997,None,375.33879910001997,None,375.33879910001997,None,376.16492760006804,None,376.16492760006804,376.66816320002545,,,,,,,,,,,,,,,,207,2023-04-26_13h40.08.734,FishGame,2022.1.1,60.080700409772035,
,25,넌 진실돼,1,Orange,A,6.625,5.566666666666666,ScrollDown,ScrollUp,Orange.png,3,Positive,Congruent,0,0,0,0,,,,,,,,,,,,,,,,,,,,,0,24,24,24,,,,,,,,,,,,,,,,,,,,,,,,,,,,,,,,,,,,,,,,,,,,,,,,,,,,,,,,,,,,,,,,,,,,,,,,,,,,,1,0.8831795000005513,377.27300270006526,None,ScrollDown,정답입니다,377.27300270006526,None,377.27300270006526,None,377.27300270006526,None,377.27300270006526,None,378.0648314000573,None,378.0648314000573,378.56476560002193,,,,,,,,,,,,,,,,207,2023-04-26_13h40.08.734,FishGame,2022.1.1,60.080700409772035,
,26,넌 천진난만해,3,Green,B,4.958333333333334,4.833333333333333,ScrollUp,ScrollDown,Green.png,3,Neutral,Neutral,0,0,0,0,,,,,,,,,,,,,,,,,,,,,0,25,25,25,,,,,,,,,,,,,,,,,,,,,,,,,,,,,,,,,,,,,,,,,,,,,,,,,,,,,,,,,,,,,,,,,,,,,,,,,,,,,1.7453703681627908,0.8970382999395952,379.1719886000501,None,ScrollUp,정답입니다,379.1719886000501,None,379.1719886000501,None,379.1719886000501,None,379.1719886000501,None,379.9814868000103,None,379.9814868000103,380.4814646000741,,,,,,,,,,,,,,,,207,2023-04-26_13h40.08.734,FishGame,2022.1.1,60.080700409772035,
,27,넌 교양없어,5,Orange,A,2.416666666666667,2.2,ScrollDown,ScrollUp,Orange.png,3,Negative,Incongruent,0,0,0,0,,,,,,,,,,,,,,,,,,,,,0,26,26,26,,,,,,,,,,,,,,,,,,,,,,,,,,,,,,,,,,,,,,,,,,,,,,,,,,,,,,,,,,,,,,,,,,,,,,,,,,,,,1.0077160497506459,0.8312721999827772,381.0902156000957,None,ScrollDown,정답입니다,381.0902156000957,None,381.0902156000957,None,381.0902156000957,None,381.0902156000957,None,381.82933010009583,None,381.82933010009583,382.3318158000475,,,,,,,,,,,,,,,,207,2023-04-26_13h40.08.734,FishGame,2022.1.1,60.080700409772035,
,28,나를 보내줘,6,Orange,A,0,0,ScrollUp,ScrollDown,Orange.png,3,NonTarget,NonTarget,0,0,0,0,,,,,,,,,,,,,,,,,,,,,0,27,27,27,,,,,,,,,,,,,,,,,,,,,,,,,,,,,,,,,,,,,,,,,,,,,,,,,,,,,,,,,,,,,,,,,,,,,,,,,,,,,1.7808641890684764,0.9499811999266967,382.93907240009867,None,ScrollUp,정답입니다,382.93907240009867,None,382.93907240009867,None,382.93907240009867,None,382.93907240009867,None,383.79599960008636,None,383.79599960008636,384.29811110009905,,,,,,,,,,,,,,,,207,2023-04-26_13h40.08.734,FishGame,2022.1.1,60.080700409772035,
,29,넌 엉뚱스러워,3,Orange,A,4.166666666666667,4.133333333333334,ScrollDown,ScrollUp,Orange.png,3,Neutral,Neutral,0,0,0,0,,,,,,,,,,,,,,,,,,,,,0,28,28,28,,,,,,,,,,,,,,,,,,,,,,,,,,,,,,,,,,,,,,,,,,,,,,,,,,,,,,,,,,,,,,,,,,,,,,,,,,,,,1,1.016634100000374,384.90676839998923,None,ScrollDown,정답입니다,384.90676839998923,None,384.90676839998923,None,384.90676839998923,None,384.90676839998923,None,385.8313731000526,None,385.8313731000526,386.3313433000585,,,,,,,,,,,,,,,,207,2023-04-26_13h40.08.734,FishGame,2022.1.1,60.080700409772035,
,30,넌 무지해,4,Green,B,2.541666666666667,3.066666666666667,ScrollUp,ScrollDown,Green.png,3,Negative,Congruent,0,0,0,0,,,,,,,,,,,,,,,,,,,,,0,29,29,29,,,,,,,,,,,,,,,,,,,,,,,,,,,,,,,,,,,,,,,,,,,,,,,,,,,,,,,,,,,,,,,,,,,,,,,,,,,,,1.7175925920406976,0.8975963999982923,386.93520350009203,None,ScrollUp,정답입니다,386.93520350009203,None,386.93520350009203,None,386.93520350009203,None,386.93520350009203,None,387.74562790000346,None,387.74562790000346,388.2456901000114,,,,,,,,,,,,,,,,207,2023-04-26_13h40.08.734,FishGame,2022.1.1,60.080700409772035,
,31,넌 음울해,5,Green,B,2.25,2.233333333333333,ScrollUp,ScrollDown,Green.png,3,Negative,Congruent,0,0,0,0,,,,,,,,,,,,,,,,,,,,,0,30,30,30,,,,,,,,,,,,,,,,,,,,,,,,,,,,,,,,,,,,,,,,,,,,,,,,,,,,,,,,,,,,,,,,,,,,,,,,,,,,,1.6280864203969636,0.7666429999517277,388.85059809999075,None,ScrollUp,정답입니다,388.85059809999075,None,388.85059809999075,None,388.85059809999075,None,388.85059809999075,None,389.52899430005345,None,389.52899430005345,390.03137219999917,,,,,,,,,,,,,,,,207,2023-04-26_13h40.08.734,FishGame,2022.1.1,60.080700409772035,
,32,넌 냉소적이야,5,Orange,A,2.916666666666667,2.4,ScrollDown,ScrollUp,Orange.png,3,Negative,Incongruent,0,0,0,0,,,,,,,,,,,,,,,,,,,,,0,31,31,31,,,,,,,,,,,,,,,,,,,,,,,,,,,,,,,,,,,,,,,,,,,,,,,,,,,,,,,,,,,,,,,,,,,,,,,,,,,,,1,0.866088500013575,390.63891060010064,None,ScrollDown,정답입니다,390.63891060010064,None,390.63891060010064,None,390.63891060010064,None,390.63891060010064,None,391.4147096000379,None,391.4147096000379,391.91466890007723,,,,,,,,,,,,,,,,207,2023-04-26_13h40.08.734,FishGame,2022.1.1,60.080700409772035,
,33,나를 데려가줘,6,Green,B,0,0,ScrollDown,ScrollUp,Green.png,3,NonTarget,NonTarget,0,0,0,0,,,,,,,,,,,,,,,,,,,,,0,32,32,32,,,,,,,,,,,,,,,,,,,,,,,,,,,,,,,,,,,,,,,,,,,,,,,,,,,,,,,,,,,,,,,,,,,,,,,,,,,,,1,0.9978712000884116,392.5182397000026,None,ScrollDown,정답입니다,392.5182397000026,None,392.5182397000026,None,392.5182397000026,None,392.5182397000026,None,393.43124519998673,None,393.43124519998673,393.93118130008224,,,,,,,,,,,,,,,,207,2023-04-26_13h40.08.734,FishGame,2022.1.1,60.080700409772035,
,34,넌 쾌활해,1,Orange,A,5.541666666666666,5.733333333333333,ScrollDown,ScrollUp,Orange.png,3,Positive,Congruent,0,0,0,0,,,,,,,,,,,,,,,,,,,,,0,33,33,33,,,,,,,,,,,,,,,,,,,,,,,,,,,,,,,,,,,,,,,,,,,,,,,,,,,,,,,,,,,,,,,,,,,,,,,,,,,,,1.9922839502493541,0.8816373000154272,394.5550222999882,None,ScrollUp,오답입니다,394.5550222999882,None,394.5550222999882,None,394.5550222999882,None,394.5550222999882,None,395.3457125000423,None,395.3457125000423,395.8477802000707,,,,,,,,,,,,,,,,207,2023-04-26_13h40.08.734,FishGame,2022.1.1,60.080700409772035,
,35,나를 보내줘,6,Orange,A,0,0,ScrollUp,ScrollDown,Orange.png,3,NonTarget,NonTarget,0,0,0,0,,,,,,,,,,,,,,,,,,,,,0,34,34,34,,,,,,,,,,,,,,,,,,,,,,,,,,,,,,,,,,,,,,,,,,,,,,,,,,,,,,,,,,,,,,,,,,,,,,,,,,,,,1.9290123283863068,1.0332450000569224,396.4529346000636,None,ScrollUp,정답입니다,396.4529346000636,None,396.4529346000636,None,396.4529346000636,None,396.4529346000636,None,397.3977144000819,None,397.3977144000819,397.8977578000631,,,,,,,,,,,,,,,,207,2023-04-26_13h40.08.734,FishGame,2022.1.1,60.080700409772035,
,36,넌 명랑해,1,Green,B,5.739130434782609,5.666666666666667,ScrollUp,ScrollDown,Green.png,3,Positive,Incongruent,0,0,0,0,,,,,,,,,,,,,,,,,,,,,0,35,35,35,,,,,,,,,,,,,,,,,,,,,,,,,,,,,,,,,,,,,,,,,,,,,,,,,,,,,,,,,,,,,,,,,,,,,,,,,,,,,1.8132716069618862,0.8145430000731722,398.5034211000893,None,ScrollUp,정답입니다,398.5034211000893,None,398.5034211000893,None,398.5034211000893,None,398.5034211000893,None,399.23107350000646,None,399.23107350000646,399.7314455000451,,,,,,,,,,,,,,,,207,2023-04-26_13h40.08.734,FishGame,2022.1.1,60.080700409772035,
,37,넌 멍해,4,Orange,A,2.833333333333333,3.4,ScrollDown,ScrollUp,Orange.png,3,Negative,Incongruent,0,0,0,0,,,,,,,,,,,,,,,,,,,,,0,36,36,36,,,,,,,,,,,,,,,,,,,,,,,,,,,,,,,,,,,,,,,,,,,,,,,,,,,,,,,,,,,,,,,,,,,,,,,,,,,,,1,0.949922600062564,400.3389103000518,None,ScrollDown,정답입니다,400.3389103000518,None,400.3389103000518,None,400.3389103000518,None,400.3389103000518,None,401.1956129000755,None,401.1956129000755,401.697672600043,,,,,,,,,,,,,,,,207,2023-04-26_13h40.08.734,FishGame,2022.1.1,60.080700409772035,
,38,나를 데려가줘,6,Green,B,0,0,ScrollDown,ScrollUp,Green.png,3,NonTarget,NonTarget,0,0,0,0,,,,,,,,,,,,,,,,,,,,,0,37,37,37,,,,,,,,,,,,,,,,,,,,,,,,,,,,,,,,,,,,,,,,,,,,,,,,,,,,,,,,,,,,,,,,,,,,,,,,,,,,,1,1.214732600026764,402.30175340001006,None,ScrollDown,정답입니다,402.30175340001006,None,402.30175340001006,None,402.30175340001006,None,402.30175340001006,None,403.43102680006996,None,403.43102680006996,403.93101420009043,,,,,,,,,,,,,,,,207,2023-04-26_13h40.08.734,FishGame,2022.1.1,60.080700409772035,
,39,넌 현명해,2,Orange,A,6.541666666666666,4.533333333333333,ScrollDown,ScrollUp,Orange.png,3,Positive,Congruent,0,0,0,0,,,,,,,,,,,,,,,,,,,,,0,38,38,38,,,,,,,,,,,,,,,,,,,,,,,,,,,,,,,,,,,,,,,,,,,,,,,,,,,,,,,,,,,,,,,,,,,,,,,,,,,,,1,1.5145757999271154,404.54272000002675,None,ScrollDown,정답입니다,404.54272000002675,None,404.54272000002675,None,404.54272000002675,None,404.54272000002675,None,405.9642477000598,None,405.9642477000598,406.4642288000323,,,,,,,,,,,,,,,,207,2023-04-26_13h40.08.734,FishGame,2022.1.1,60.080700409772035,
,40,넌 수줍어,3,Green,B,3.541666666666666,4.366666666666666,ScrollUp,ScrollDown,Green.png,3,Neutral,Neutral,0,0,0,0,,,,,,,,,,,,,,,,,,,,,0,39,39,39,,,,,,,,,,,,,,,,,,,,,,,,,,,,,,,,,,,,,,,,,,,,,,,,,,,,,,,,,,,,,,,,,,,,,,,,,,,,,2,0.9164191000163555,407.0703490000451,None,ScrollUp,정답입니다,407.0703490000451,None,407.0703490000451,None,407.0703490000451,None,407.0703490000451,None,407.8976161000319,None,407.8976161000319,408.39756800001487,,,,,,,,,,,,,,,,207,2023-04-26_13h40.08.734,FishGame,2022.1.1,60.080700409772035,
,41,나를 데려가줘,6,Green,B,0,0,ScrollDown,ScrollUp,Green.png,3,NonTarget,NonTarget,0,0,0,0,,,,,,,,,,,,,,,,,,,,,0,40,40,40,,,,,,,,,,,,,,,,,,,,,,,,,,,,,,,,,,,,,,,,,,,,,,,,,,,,,,,,,,,,,,,,,,,,,,,,,,,,,2,1.0646956999553367,409.0082373000914,None,ScrollUp,오답입니다,409.0082373000914,None,409.0082373000914,None,409.0082373000914,None,409.0082373000914,None,409.97879750002176,None,409.97879750002176,410.480830000015,,,,,,,,,,,,,,,,207,2023-04-26_13h40.08.734,FishGame,2022.1.1,60.080700409772035,
,42,넌 성숙해,2,Green,B,5.833333333333333,4.533333333333333,ScrollUp,ScrollDown,Green.png,3,Positive,Incongruent,0,0,0,0,,,,,,,,,,,,,,,,,,,,,0,41,41,41,,,,,,,,,,,,,,,,,,,,,,,,,,,,,,,,,,,,,,,,,,,,,,,,,,,,,,,,,,,,,,,,,,,,,,,,,,,,,1.8950617214043934,0.8665386000648141,411.0846644000849,None,ScrollUp,정답입니다,411.0846644000849,None,411.0846644000849,None,411.0846644000849,None,411.0846644000849,None,411.86204909998924,None,411.86204909998924,412.36406200006604,,,,,,,,,,,,,,,,207,2023-04-26_13h40.08.734,FishGame,2022.1.1,60.080700409772035,
,1,넌 매력적이야,2,Green,B,6.125,4.666666666666667,ScrollUp,ScrollDown,Green.png,4,Positive,Incongruent,0,0,0,0,,,,,,,,,,,,,,,,,,,,,,,,,0,0,0,0,,,,,,,,,,,,,,,,,,,,,,,,,,,,,,,,447.7800003000302,449.2834463000763,449.30009060003795,450.2635511000408,450.31357720005326,451.26677520002704,451.26677520002704,None,,,,,,,,,,,,,,,,,,,,,,,,,,,,,,,,,,2,0.9110704000340775,452.35955500009004,None,ScrollUp,정답입니다,452.35955500009004,None,452.35955500009004,None,452.35955500009004,None,452.35955500009004,None,453.1800459000515,None,453.1800459000515,453.6799961000215,412.8641426000977,None,412.8641426000977,None,0.05277778,-0.15648147,1,0,0,0.01613412005826831,None,442.86340120004024,None,,,207,2023-04-26_13h40.08.734,FishGame,2022.1.1,60.080700409772035,
,2,나를 보내줘,6,Orange,A,0,0,ScrollUp,ScrollDown,Orange.png,4,NonTarget,NonTarget,0,0,0,0,,,,,,,,,,,,,,,,,,,,,,,,,0,1,1,1,,,,,,,,,,,,,,,,,,,,,,,,,,,,,,,,,,,,,,,,,,,,,,,,,,,,,,,,,,,,,,,,,,,,,,,,,2,1.0648649000795558,454.2856800000882,None,ScrollUp,정답입니다,454.2856800000882,None,454.2856800000882,None,454.2856800000882,None,454.2856800000882,None,455.26325800002087,None,455.26325800002087,455.763222000096,,,,,,,,,,,,,,,,207,2023-04-26_13h40.08.734,FishGame,2022.1.1,60.080700409772035,
,3,넌 조심스러워,3,Orange,A,4.791666666666666,4.666666666666667,ScrollDown,ScrollUp,Orange.png,4,Neutral,Neutral,0,0,0,0,,,,,,,,,,,,,,,,,,,,,,,,,0,2,2,2,,,,,,,,,,,,,,,,,,,,,,,,,,,,,,,,,,,,,,,,,,,,,,,,,,,,,,,,,,,,,,,,,,,,,,,,,1,0.9000764000229537,456.3697497000685,None,ScrollDown,정답입니다,456.3697497000685,None,456.3697497000685,None,456.3697497000685,None,456.3697497000685,None,457.180019200081,None,457.180019200081,457.6799147001002,,,,,,,,,,,,,,,,207,2023-04-26_13h40.08.734,FishGame,2022.1.1,60.080700409772035,
,4,넌 철학적이야,3,Green,B,4.5,4.266666666666667,ScrollUp,ScrollDown,Green.png,4,Neutral,Neutral,0,0,0,0,,,,,,,,,,,,,,,,,,,,,,,,,0,3,3,3,,,,,,,,,,,,,,,,,,,,,,,,,,,,,,,,,,,,,,,,,,,,,,,,,,,,,,,,,,,,,,,,,,,,,,,,,2,0.8477004999294877,458.28651810006704,None,ScrollUp,정답입니다,458.28651810006704,None,458.28651810006704,None,458.28651810006704,None,458.28651810006704,None,459.0441976999864,None,459.0441976999864,459.5450742000248,,,,,,,,,,,,,,,,207,2023-04-26_13h40.08.734,FishGame,2022.1.1,60.080700409772035,
,5,넌 쩨쩨해,5,Orange,A,2.375,2.133333333333333,ScrollDown,ScrollUp,Orange.png,4,Negative,Incongruent,0,0,0,0,,,,,,,,,,,,,,,,,,,,,,,,,0,4,4,4,,,,,,,,,,,,,,,,,,,,,,,,,,,,,,,,,,,,,,,,,,,,,,,,,,,,,,,,,,,,,,,,,,,,,,,,,1,1.0666531999595463,460.15055820008274,None,ScrollDown,정답입니다,460.15055820008274,None,460.15055820008274,None,460.15055820008274,None,460.15055820008274,None,461.13012009998783,None,461.13012009998783,461.6299203000963,,,,,,,,,,,,,,,,207,2023-04-26_13h40.08.734,FishGame,2022.1.1,60.080700409772035,
,6,나를 데려가줘,6,Green,B,0,0,ScrollDown,ScrollUp,Green.png,4,NonTarget,NonTarget,0,0,0,0,,,,,,,,,,,,,,,,,,,,,,,,,0,5,5,5,,,,,,,,,,,,,,,,,,,,,,,,,,,,,,,,,,,,,,,,,,,,,,,,,,,,,,,,,,,,,,,,,,,,,,,,,1,1.014969200012274,462.234114699997,None,ScrollDown,정답입니다,462.234114699997,None,462.234114699997,None,462.234114699997,None,462.234114699997,None,463.1632873000344,None,463.1632873000344,463.6630861000158,,,,,,,,,,,,,,,,207,2023-04-26_13h40.08.734,FishGame,2022.1.1,60.080700409772035,
,7,넌 고집불통이야,5,Green,B,2.875,2,ScrollUp,ScrollDown,Green.png,4,Negative,Congruent,0,0,0,0,,,,,,,,,,,,,,,,,,,,,,,,,0,6,6,6,,,,,,,,,,,,,,,,,,,,,,,,,,,,,,,,,,,,,,,,,,,,,,,,,,,,,,,,,,,,,,,,,,,,,,,,,1.9413580397764842,0.8153501000488177,464.27114299999084,None,ScrollUp,정답입니다,464.27114299999084,None,464.27114299999084,None,464.27114299999084,None,464.27114299999084,None,464.996580200037,None,464.996580200037,465.49646020005457,,,,,,,,,,,,,,,,207,2023-04-26_13h40.08.734,FishGame,2022.1.1,60.080700409772035,
,8,넌 무심해,4,Orange,A,2.875,3.2,ScrollDown,ScrollUp,Orange.png,4,Negative,Incongruent,0,0,0,0,,,,,,,,,,,,,,,,,,,,,,,,,0,7,7,7,,,,,,,,,,,,,,,,,,,,,,,,,,,,,,,,,,,,,,,,,,,,,,,,,,,,,,,,,,,,,,,,,,,,,,,,,1.1141975373029709,0.9294510999461636,466.1021017000312,None,ScrollDown,정답입니다,466.1021017000312,None,466.1021017000312,None,466.1021017000312,None,466.1021017000312,None,466.9463846000144,None,466.9463846000144,467.4464074000716,,,,,,,,,,,,,,,,207,2023-04-26_13h40.08.734,FishGame,2022.1.1,60.080700409772035,
,9,넌 정겨워,1,Orange,A,5.791666666666667,5.666666666666667,ScrollDown,ScrollUp,Orange.png,4,Positive,Congruent,0,0,0,0,,,,,,,,,,,,,,,,,,,,,,,,,0,8,8,8,,,,,,,,,,,,,,,,,,,,,,,,,,,,,,,,,,,,,,,,,,,,,,,,,,,,,,,,,,,,,,,,,,,,,,,,,1,0.8336154000135139,468.0561983000953,None,ScrollDown,정답입니다,468.0561983000953,None,468.0561983000953,None,468.0561983000953,None,468.0561983000953,None,468.79652329999954,None,468.79652329999954,469.2963439000305,,,,,,,,,,,,,,,,207,2023-04-26_13h40.08.734,FishGame,2022.1.1,60.080700409772035,
,10,나를 데려가줘,6,Green,B,0,0,ScrollDown,ScrollUp,Green.png,4,NonTarget,NonTarget,0,0,0,0,,,,,,,,,,,,,,,,,,,,,,,,,0,9,9,9,,,,,,,,,,,,,,,,,,,,,,,,,,,,,,,,,,,,,,,,,,,,,,,,,,,,,,,,,,,,,,,,,,,,,,,,,1.160493830839793,0.8647320999298245,469.9011526000686,None,ScrollDown,정답입니다,469.9011526000686,None,469.9011526000686,None,469.9011526000686,None,469.9011526000686,None,470.67791180009954,None,470.67791180009954,471.18003869999666,,,,,,,,,,,,,,,,207,2023-04-26_13h40.08.734,FishGame,2022.1.1,60.080700409772035,
,11,넌 체제순응적이야,4,Green,B,3,3.6,ScrollUp,ScrollDown,Green.png,4,Negative,Congruent,0,0,0,0,,,,,,,,,,,,,,,,,,,,,,,,,0,10,10,10,,,,,,,,,,,,,,,,,,,,,,,,,,,,,,,,,,,,,,,,,,,,,,,,,,,,,,,,,,,,,,,,,,,,,,,,,1.8935185074806213,0.8651989001082256,471.78998370002955,None,ScrollUp,정답입니다,471.78998370002955,None,471.78998370002955,None,471.78998370002955,None,471.78998370002955,None,472.56088520004414,None,472.56088520004414,473.06292580009904,,,,,,,,,,,,,,,,207,2023-04-26_13h40.08.734,FishGame,2022.1.1,60.080700409772035,
,12,나를 보내줘,6,Orange,A,0,0,ScrollUp,ScrollDown,Orange.png,4,NonTarget,NonTarget,0,0,0,0,,,,,,,,,,,,,,,,,,,,,,,,,0,11,11,11,,,,,,,,,,,,,,,,,,,,,,,,,,,,,,,,,,,,,,,,,,,,,,,,,,,,,,,,,,,,,,,,,,,,,,,,,2,1.0649854000657797,473.6691729000304,None,ScrollUp,정답입니다,473.6691729000304,None,473.6691729000304,None,473.6691729000304,None,473.6691729000304,None,474.64637020009104,None,474.64637020009104,475.1461946000345,,,,,,,,,,,,,,,,207,2023-04-26_13h40.08.734,FishGame,2022.1.1,60.080700409772035,
,13,넌 박식해,2,Orange,A,5.625,3.933333333333333,ScrollDown,ScrollUp,Orange.png,4,Positive,Congruent,0,0,0,0,,,,,,,,,,,,,,,,,,,,,,,,,0,12,12,12,,,,,,,,,,,,,,,,,,,,,,,,,,,,,,,,,,,,,,,,,,,,,,,,,,,,,,,,,,,,,,,,,,,,,,,,,1.0154321193695068,0.7978027999633923,475.75598480005283,None,ScrollDown,정답입니다,475.75598480005283,None,475.75598480005283,None,475.75598480005283,None,475.75598480005283,None,476.46053020004183,None,476.46053020004183,476.96049289999064,,,,,,,,,,,,,,,,207,2023-04-26_13h40.08.734,FishGame,2022.1.1,60.080700409772035,
,14,나를 보내줘,6,Orange,A,0,0,ScrollUp,ScrollDown,Orange.png,4,NonTarget,NonTarget,0,0,0,0,,,,,,,,,,,,,,,,,,,,,,,,,0,13,13,13,,,,,,,,,,,,,,,,,,,,,,,,,,,,,,,,,,,,,,,,,,,,,,,,,,,,,,,,,,,,,,,,,,,,,,,,,2,1.065912399906665,477.5651012000162,None,ScrollUp,정답입니다,477.5651012000162,None,477.5651012000162,None,477.5651012000162,None,477.5651012000162,None,478.54386800003704,None,478.54386800003704,479.046298500034,,,,,,,,,,,,,,,,207,2023-04-26_13h40.08.734,FishGame,2022.1.1,60.080700409772035,
,15,넌 침착해,1,Green,B,5.458333333333333,5.566666666666666,ScrollUp,ScrollDown,Green.png,4,Positive,Incongruent,0,0,0,0,,,,,,,,,,,,,,,,,,,,,,,,,0,14,14,14,,,,,,,,,,,,,,,,,,,,,,,,,,,,,,,,,,,,,,,,,,,,,,,,,,,,,,,,,,,,,,,,,,,,,,,,,2,1.2317149000009522,479.6542852000566,None,ScrollUp,정답입니다,479.6542852000566,None,479.6542852000566,None,479.6542852000566,None,479.6542852000566,None,480.79622630006634,None,480.79622630006634,481.2960554000456,,,,,,,,,,,,,,,,207,2023-04-26_13h40.08.734,FishGame,2022.1.1,60.080700409772035,
,16,나를 데려가줘,6,Green,B,0,0,ScrollDown,ScrollUp,Green.png,4,NonTarget,NonTarget,0,0,0,0,,,,,,,,,,,,,,,,,,,,,,,,,0,15,15,15,,,,,,,,,,,,,,,,,,,,,,,,,,,,,,,,,,,,,,,,,,,,,,,,,,,,,,,,,,,,,,,,,,,,,,,,,1,1.0163861000910401,481.9005252000643,None,ScrollDown,정답입니다,481.9005252000643,None,481.9005252000643,None,481.9005252000643,None,481.9005252000643,None,482.82945520000067,None,482.82945520000067,483.329433200066,,,,,,,,,,,,,,,,207,2023-04-26_13h40.08.734,FishGame,2022.1.1,60.080700409772035,
,17,넌 행복해,1,Orange,A,6.416666666666666,6.166666666666667,ScrollDown,ScrollUp,Orange.png,4,Positive,Congruent,0,0,0,0,,,,,,,,,,,,,,,,,,,,,,,,,0,16,16,16,,,,,,,,,,,,,,,,,,,,,,,,,,,,,,,,,,,,,,,,,,,,,,,,,,,,,,,,,,,,,,,,,,,,,,,,,1.0570987462997437,0.9166760999942198,483.94458120001946,None,ScrollDown,정답입니다,483.94458120001946,None,483.94458120001946,None,483.94458120001946,None,483.94458120001946,None,484.7606542999856,None,484.7606542999856,485.2626559000928,,,,,,,,,,,,,,,,207,2023-04-26_13h40.08.734,FishGame,2022.1.1,60.080700409772035,
,18,넌 겸손해,2,Green,B,5.791666666666667,4.766666666666667,ScrollUp,ScrollDown,Green.png,4,Positive,Incongruent,0,0,0,0,,,,,,,,,,,,,,,,,,,,,,,,,0,17,17,17,,,,,,,,,,,,,,,,,,,,,,,,,,,,,,,,,,,,,,,,,,,,,,,,,,,,,,,,,,,,,,,,,,,,,,,,,1.7608024577299755,0.9148530999664217,485.8699571000179,None,ScrollUp,정답입니다,485.8699571000179,None,485.8699571000179,None,485.8699571000179,None,485.8699571000179,None,486.6960781000089,None,486.6960781000089,487.1960132000968,,,,,,,,,,,,,,,,207,2023-04-26_13h40.08.734,FishGame,2022.1.1,60.080700409772035,
,19,나를 보내줘,6,Orange,A,0,0,ScrollUp,ScrollDown,Orange.png,4,NonTarget,NonTarget,0,0,0,0,,,,,,,,,,,,,,,,,,,,,,,,,0,18,18,18,,,,,,,,,,,,,,,,,,,,,,,,,,,,,,,,,,,,,,,,,,,,,,,,,,,,,,,,,,,,,,,,,,,,,,,,,1.5864197500050068,0.8479507999727502,487.8013603000436,None,ScrollUp,정답입니다,487.8013603000436,None,487.8013603000436,None,487.8013603000436,None,487.8013603000436,None,488.56259820004925,None,488.56259820004925,489.07919940003194,,,,,,,,,,,,,,,,207,2023-04-26_13h40.08.734,FishGame,2022.1.1,60.080700409772035,
,20,넌 의심없어,3,Orange,A,4.166666666666667,4.6,ScrollDown,ScrollUp,Orange.png,4,Neutral,Neutral,0,0,0,0,,,,,,,,,,,,,,,,,,,,,,,,,0,19,19,19,,,,,,,,,,,,,,,,,,,,,,,,,,,,,,,,,,,,,,,,,,,,,,,,,,,,,,,,,,,,,,,,,,,,,,,,,1.016975333293279,1.0334453999530524,489.6685639000498,None,ScrollDown,정답입니다,489.6685639000498,None,489.6685639000498,None,489.6685639000498,None,489.6685639000498,None,490.61258539999835,None,490.61258539999835,491.11257330002263,,,,,,,,,,,,,,,,207,2023-04-26_13h40.08.734,FishGame,2022.1.1,60.080700409772035,
,21,넌 시시해,4,Orange,A,2.666666666666667,2.966666666666667,ScrollDown,ScrollUp,Orange.png,4,Negative,Incongruent,0,0,0,0,,,,,,,,,,,,,,,,,,,,,,,,,0,20,20,20,,,,,,,,,,,,,,,,,,,,,,,,,,,,,,,,,,,,,,,,,,,,,,,,,,,,,,,,,,,,,,,,,,,,,,,,,1,0.914579699980095,491.7191648000153,None,ScrollDown,정답입니다,491.7191648000153,None,491.7191648000153,None,491.7191648000153,None,491.7191648000153,None,492.54352589999326,None,492.54352589999326,493.0435307000298,,,,,,,,,,,,,,,,207,2023-04-26_13h40.08.734,FishGame,2022.1.1,60.080700409772035,
,22,나를 데려가줘,6,Green,B,0,0,ScrollDown,ScrollUp,Green.png,4,NonTarget,NonTarget,0,0,0,0,,,,,,,,,,,,,,,,,,,,,,,,,0,21,21,21,,,,,,,,,,,,,,,,,,,,,,,,,,,,,,,,,,,,,,,,,,,,,,,,,,,,,,,,,,,,,,,,,,,,,,,,,1.0524691541989644,1.129374900017865,493.65096640004776,None,ScrollDown,정답입니다,493.65096640004776,None,493.65096640004776,None,493.65096640004776,None,493.65096640004776,None,494.6935293000424,None,494.6935293000424,495.19594210002106,,,,,,,,,,,,,,,,207,2023-04-26_13h40.08.734,FishGame,2022.1.1,60.080700409772035,
,23,넌 무정해,5,Orange,A,2.5,2.2,ScrollDown,ScrollUp,Orange.png,4,Negative,Incongruent,0,0,0,0,,,,,,,,,,,,,,,,,,,,,,,,,0,22,22,22,,,,,,,,,,,,,,,,,,,,,,,,,,,,,,,,,,,,,,,,,,,,,,,,,,,,,,,,,,,,,,,,,,,,,,,,,1.0154321193695068,1.0598987999837846,495.803264999995,None,ScrollDown,정답입니다,495.803264999995,None,495.803264999995,None,495.803264999995,None,495.803264999995,None,496.76586500008125,None,496.76586500008125,497.2796193000395,,,,,,,,,,,,,,,,207,2023-04-26_13h40.08.734,FishGame,2022.1.1,60.080700409772035,
,24,넌 긍정적이야,1,Green,B,6.041666666666667,6.066666666666666,ScrollUp,ScrollDown,Green.png,4,Positive,Incongruent,0,0,0,0,,,,,,,,,,,,,,,,,,,,,,,,,0,23,23,23,,,,,,,,,,,,,,,,,,,,,,,,,,,,,,,,,,,,,,,,,,,,,,,,,,,,,,,,,,,,,,,,,,,,,,,,,1.9783950746059418,1.0963181999977678,497.88665420003235,None,ScrollUp,정답입니다,497.88665420003235,None,497.88665420003235,None,497.88665420003235,None,497.88665420003235,None,498.89578000002075,None,498.89578000002075,499.3958040000871,,,,,,,,,,,,,,,,207,2023-04-26_13h40.08.734,FishGame,2022.1.1,60.080700409772035,
,25,나를 보내줘,6,Orange,A,0,0,ScrollUp,ScrollDown,Orange.png,4,NonTarget,NonTarget,0,0,0,0,,,,,,,,,,,,,,,,,,,,,,,,,0,24,24,24,,,,,,,,,,,,,,,,,,,,,,,,,,,,,,,,,,,,,,,,,,,,,,,,,,,,,,,,,,,,,,,,,,,,,,,,,1.8765432039896648,0.9961452999850735,500.0022209000308,None,ScrollUp,정답입니다,500.0022209000308,None,500.0022209000308,None,500.0022209000308,None,500.0022209000308,None,500.9124109999975,None,500.9124109999975,501.41230070008896,,,,,,,,,,,,,,,,207,2023-04-26_13h40.08.734,FishGame,2022.1.1,60.080700409772035,
,26,넌 시기심이 많아,5,Green,B,2.458333333333333,2.233333333333333,ScrollUp,ScrollDown,Green.png,4,Negative,Congruent,0,0,0,0,,,,,,,,,,,,,,,,,,,,,,,,,0,25,25,25,,,,,,,,,,,,,,,,,,,,,,,,,,,,,,,,,,,,,,,,,,,,,,,,,,,,,,,,,,,,,,,,,,,,,,,,,2,1.4498979999916628,502.02097559999675,None,ScrollUp,정답입니다,502.02097559999675,None,502.02097559999675,None,502.02097559999675,None,502.02097559999675,None,503.37917130009737,None,503.37917130009737,503.8795906000305,,,,,,,,,,,,,,,,207,2023-04-26_13h40.08.734,FishGame,2022.1.1,60.080700409772035,
,27,넌 탁월해,2,Orange,A,5.708333333333334,4.5,ScrollDown,ScrollUp,Orange.png,4,Positive,Congruent,0,0,0,0,,,,,,,,,,,,,,,,,,,,,,,,,0,26,26,26,,,,,,,,,,,,,,,,,,,,,,,,,,,,,,,,,,,,,,,,,,,,,,,,,,,,,,,,,,,,,,,,,,,,,,,,,1.0046296219031017,1.0807409000117332,504.4893068000674,None,ScrollDown,정답입니다,504.4893068000674,None,504.4893068000674,None,504.4893068000674,None,504.4893068000674,None,505.47659860004205,None,505.47659860004205,505.97658720007166,,,,,,,,,,,,,,,,207,2023-04-26_13h40.08.734,FishGame,2022.1.1,60.080700409772035,
,28,나를 데려가줘,6,Green,B,0,0,ScrollDown,ScrollUp,Green.png,4,NonTarget,NonTarget,0,0,0,0,,,,,,,,,,,,,,,,,,,,,,,,,0,27,27,27,,,,,,,,,,,,,,,,,,,,,,,,,,,,,,,,,,,,,,,,,,,,,,,,,,,,,,,,,,,,,,,,,,,,,,,,,1.1126543233791988,1.8673950999509543,506.5807418000186,None,ScrollDown,정답입니다,506.5807418000186,None,506.5807418000186,None,506.5807418000186,None,506.5807418000186,None,508.362537200097,None,508.362537200097,508.86234400002286,,,,,,,,,,,,,,,,207,2023-04-26_13h40.08.734,FishGame,2022.1.1,60.080700409772035,
,29,넌 조용해,3,Green,B,4.333333333333333,4.166666666666667,ScrollUp,ScrollDown,Green.png,4,Neutral,Neutral,0,0,0,0,,,,,,,,,,,,,,,,,,,,,,,,,0,28,28,28,,,,,,,,,,,,,,,,,,,,,,,,,,,,,,,,,,,,,,,,,,,,,,,,,,,,,,,,,,,,,,,,,,,,,,,,,1.699074074625969,0.8288696999661624,509.46980160009116,None,ScrollUp,정답입니다,509.46980160009116,None,509.46980160009116,None,509.46980160009116,None,509.46980160009116,None,510.20986750000156,None,510.20986750000156,510.70984870009124,,,,,,,,,,,,,,,,207,2023-04-26_13h40.08.734,FishGame,2022.1.1,60.080700409772035,
,30,넌 다정해,1,Orange,A,5.833333333333334,5.7,ScrollDown,ScrollUp,Orange.png,4,Positive,Congruent,0,0,0,0,,,,,,,,,,,,,,,,,,,,,,,,,0,29,29,29,,,,,,,,,,,,,,,,,,,,,,,,,,,,,,,,,,,,,,,,,,,,,,,,,,,,,,,,,,,,,,,,,,,,,,,,,1.080246905485789,0.9665293000871316,511.3183996999869,None,ScrollDown,정답입니다,511.3183996999869,None,511.3183996999869,None,511.3183996999869,None,511.3183996999869,None,512.1931817000732,None,512.1931817000732,512.6962220000569,,,,,,,,,,,,,,,,207,2023-04-26_13h40.08.734,FishGame,2022.1.1,60.080700409772035,
,31,넌 능력있어,2,Green,B,6.166666666666666,4.6,ScrollUp,ScrollDown,Green.png,4,Positive,Incongruent,0,0,0,0,,,,,,,,,,,,,,,,,,,,,,,,,0,30,30,30,,,,,,,,,,,,,,,,,,,,,,,,,,,,,,,,,,,,,,,,,,,,,,,,,,,,,,,,,,,,,,,,,,,,,,,,,1.878086417913437,0.8141300999559462,513.300756300101,None,ScrollUp,정답입니다,513.300756300101,None,513.300756300101,None,513.300756300101,None,513.300756300101,None,514.028925999999,None,514.028925999999,514.5289603000274,,,,,,,,,,,,,,,,207,2023-04-26_13h40.08.734,FishGame,2022.1.1,60.080700409772035,
,32,넌 불쾌해,5,Orange,A,2.125,1.933333333333333,ScrollDown,ScrollUp,Orange.png,4,Negative,Incongruent,0,0,0,0,,,,,,,,,,,,,,,,,,,,,,,,,0,31,31,31,,,,,,,,,,,,,,,,,,,,,,,,,,,,,,,,,,,,,,,,,,,,,,,,,,,,,,,,,,,,,,,,,,,,,,,,,1,0.9987702999496832,515.1350171000231,None,ScrollDown,정답입니다,515.1350171000231,None,515.1350171000231,None,515.1350171000231,None,515.1350171000231,None,516.0455760000041,None,516.0455760000041,516.545394100016,,,,,,,,,,,,,,,,207,2023-04-26_13h40.08.734,FishGame,2022.1.1,60.080700409772035,
,33,나를 데려가줘,6,Green,B,0,0,ScrollDown,ScrollUp,Green.png,4,NonTarget,NonTarget,0,0,0,0,,,,,,,,,,,,,,,,,,,,,,,,,0,32,32,32,,,,,,,,,,,,,,,,,,,,,,,,,,,,,,,,,,,,,,,,,,,,,,,,,,,,,,,,,,,,,,,,,,,,,,,,,1.8703703731298447,0.9499386999523267,517.1497400000226,None,ScrollUp,오답입니다,517.1497400000226,None,517.1497400000226,None,517.1497400000226,None,517.1497400000226,None,518.011997200083,None,518.011997200083,518.5119812000776,,,,,,,,,,,,,,,,207,2023-04-26_13h40.08.734,FishGame,2022.1.1,60.080700409772035,
,34,넌 유순해,3,Orange,A,4.458333333333333,5,ScrollDown,ScrollUp,Orange.png,4,Neutral,Neutral,0,0,0,0,,,,,,,,,,,,,,,,,,,,,,,,,0,33,33,33,,,,,,,,,,,,,,,,,,,,,,,,,,,,,,,,,,,,,,,,,,,,,,,,,,,,,,,,,,,,,,,,,,,,,,,,,1.060185174147288,0.7667109000030905,519.1175671000965,None,ScrollDown,정답입니다,519.1175671000965,None,519.1175671000965,None,519.1175671000965,None,519.1175671000965,None,519.7953967000358,None,519.7953967000358,520.2953175000148,,,,,,,,,,,,,,,,207,2023-04-26_13h40.08.734,FishGame,2022.1.1,60.080700409772035,
,35,넌 근심스러워,4,Green,B,2.708333333333333,3.133333333333333,ScrollUp,ScrollDown,Green.png,4,Negative,Congruent,0,0,0,0,,,,,,,,,,,,,,,,,,,,,,,,,0,34,34,34,,,,,,,,,,,,,,,,,,,,,,,,,,,,,,,,,,,,,,,,,,,,,,,,,,,,,,,,,,,,,,,,,,,,,,,,,1.8703703731298447,0.9972737999632955,520.9019073999953,None,ScrollUp,정답입니다,520.9019073999953,None,520.9019073999953,None,520.9019073999953,None,520.9019073999953,None,521.809605400078,None,521.809605400078,522.3097393000498,,,,,,,,,,,,,,,,207,2023-04-26_13h40.08.734,FishGame,2022.1.1,60.080700409772035,
,36,넌 세련되었어,2,Orange,A,5.5,4.6,ScrollDown,ScrollUp,Orange.png,4,Positive,Congruent,0,0,0,0,,,,,,,,,,,,,,,,,,,,,,,,,0,35,35,35,,,,,,,,,,,,,,,,,,,,,,,,,,,,,,,,,,,,,,,,,,,,,,,,,,,,,,,,,,,,,,,,,,,,,,,,,1.0725308855374653,0.8298297000583261,522.9251627000049,None,ScrollDown,정답입니다,522.9251627000049,None,522.9251627000049,None,522.9251627000049,None,522.9251627000049,None,523.6596288000001,None,523.6596288000001,524.1620429999894,,,,,,,,,,,,,,,,207,2023-04-26_13h40.08.734,FishGame,2022.1.1,60.080700409772035,
,37,나를 보내줘,6,Orange,A,0,0,ScrollUp,ScrollDown,Orange.png,4,NonTarget,NonTarget,0,0,0,0,,,,,,,,,,,,,,,,,,,,,,,,,0,36,36,36,,,,,,,,,,,,,,,,,,,,,,,,,,,,,,,,,,,,,,,,,,,,,,,,,,,,,,,,,,,,,,,,,,,,,,,,,2,0.998199800029397,524.7691361000761,None,ScrollUp,정답입니다,524.7691361000761,None,524.7691361000761,None,524.7691361000761,None,524.7691361000761,None,525.6790755999973,None,525.6790755999973,526.1819563000463,,,,,,,,,,,,,,,,207,2023-04-26_13h40.08.734,FishGame,2022.1.1,60.080700409772035,
,38,넌 확고해,3,Green,B,4.708333333333334,4.566666666666666,ScrollUp,ScrollDown,Green.png,4,Neutral,Neutral,0,0,0,0,,,,,,,,,,,,,,,,,,,,,,,,,0,37,37,37,,,,,,,,,,,,,,,,,,,,,,,,,,,,,,,,,,,,,,,,,,,,,,,,,,,,,,,,,,,,,,,,,,,,,,,,,1.904320980111758,0.8981646000174806,526.7843633000739,None,ScrollUp,정답입니다,526.7843633000739,None,526.7843633000739,None,526.7843633000739,None,526.7843633000739,None,527.5952590000816,None,527.5952590000816,528.0951730000088,,,,,,,,,,,,,,,,207,2023-04-26_13h40.08.734,FishGame,2022.1.1,60.080700409772035,
,39,넌 이해심이 많아,1,Green,B,6.041666666666668,5.533333333333333,ScrollUp,ScrollDown,Green.png,4,Positive,Incongruent,0,0,0,0,,,,,,,,,,,,,,,,,,,,,,,,,0,38,38,38,,,,,,,,,,,,,,,,,,,,,,,,,,,,,,,,,,,,,,,,,,,,,,,,,,,,,,,,,,,,,,,,,,,,,,,,,2,1.1759679999668151,528.7076629000949,None,ScrollUp,정답입니다,528.7076629000949,None,528.7076629000949,None,528.7076629000949,None,528.7076629000949,None,529.7927768999944,None,529.7927768999944,530.2927735000849,,,,,,,,,,,,,,,,207,2023-04-26_13h40.08.734,FishGame,2022.1.1,60.080700409772035,
,40,나를 보내줘,6,Orange,A,0,0,ScrollUp,ScrollDown,Orange.png,4,NonTarget,NonTarget,0,0,0,0,,,,,,,,,,,,,,,,,,,,,,,,,0,39,39,39,,,,,,,,,,,,,,,,,,,,,,,,,,,,,,,,,,,,,,,,,,,,,,,,,,,,,,,,,,,,,,,,,,,,,,,,,1.878086417913437,0.9663748000748456,530.9024601000128,None,ScrollUp,정답입니다,530.9024601000128,None,530.9024601000128,None,530.9024601000128,None,530.9024601000128,None,531.7763072000816,None,531.7763072000816,532.2785644000396,,,,,,,,,,,,,,,,207,2023-04-26_13h40.08.734,FishGame,2022.1.1,60.080700409772035,
,41,넌 거칠어,4,Orange,A,2.625,3.033333333333333,ScrollDown,ScrollUp,Orange.png,4,Negative,Incongruent,0,0,0,0,,,,,,,,,,,,,,,,,,,,,,,,,0,40,40,40,,,,,,,,,,,,,,,,,,,,,,,,,,,,,,,,,,,,,,,,,,,,,,,,,,,,,,,,,,,,,,,,,,,,,,,,,1.09413580596447,1.3128458999563009,532.8965724000009,None,ScrollDown,정답입니다,532.8965724000009,None,532.8965724000009,None,532.8965724000009,None,532.8965724000009,None,534.1095391000854,None,534.1095391000854,534.6096630000975,,,,,,,,,,,,,,,,207,2023-04-26_13h40.08.734,FishGame,2022.1.1,60.080700409772035,
,42,넌 변덕맞아,5,Green,B,2.75,2.166666666666667,ScrollUp,ScrollDown,Green.png,4,Negative,Congruent,0,0,0,0,,,,,,,,,,,,,,,,,,,,,,,,,0,41,41,41,,,,,,,,,,,,,,,,,,,,,,,,,,,,,,,,,,,,,,,,,,,,,,,,,,,,,,,,,,,,,,,,,,,,,,,,,1.8364197413126628,0.8980116000166163,535.2318987000035,None,ScrollUp,정답입니다,535.2318987000035,None,535.2318987000035,None,535.2318987000035,None,535.2318987000035,None,536.0260348999873,None,536.0260348999873,536.5284365999978,,,,,,,,,,,,,,,,207,2023-04-26_13h40.08.734,FishGame,2022.1.1,60.080700409772035,
,43,나를 데려가줘,6,Green,B,0,0,ScrollDown,ScrollUp,Green.png,4,NonTarget,NonTarget,0,0,0,0,,,,,,,,,,,,,,,,,,,,,,,,,0,42,42,42,,,,,,,,,,,,,,,,,,,,,,,,,,,,,,,,,,,,,,,,,,,,,,,,,,,,,,,,,,,,,,,,,,,,,,,,,1,1.0324858000967652,537.1327073000139,None,ScrollDown,정답입니다,537.1327073000139,None,537.1327073000139,None,537.1327073000139,None,537.1327073000139,None,538.0789643999888,None,538.0789643999888,538.5784095000708,,,,,,,,,,,,,,,,207,2023-04-26_13h40.08.734,FishGame,2022.1.1,60.080700409772035,
,44,넌 외로워,4,Green,B,2.833333333333333,3.3,ScrollUp,ScrollDown,Green.png,4,Negative,Congruent,0,0,0,0,,,,,,,,,,,,,,,,,,,,,,,,,0,43,43,43,,,,,,,,,,,,,,,,,,,,,,,,,,,,,,,,,,,,,,,,,,,,,,,,,,,,,,,,,,,,,,,,,,,,,,,,,1.9799382885297139,1.064706000033766,539.184482300072,None,ScrollUp,정답입니다,539.184482300072,None,539.184482300072,None,539.184482300072,None,539.184482300072,None,540.1595888000447,None,540.1595888000447,540.6597852000268,,,,,,,,,,,,,,,,207,2023-04-26_13h40.08.734,FishGame,2022.1.1,60.080700409772035,
,1,넌 불평스러워,5,Orange,A,2.25,2.066666666666667,ScrollDown,ScrollUp,Orange.png,5,Negative,Incongruent,0,0,0,0,,,,,,,,,,,,,,,,,,,,,,,,,,,,,0,0,0,0,,,,,,,,,,,,,,,,,,,,,,,,,,,,572.6774993999861,574.1808349000057,574.2141402000561,575.1777491000248,575.2110591999954,576.1641499000834,576.1641499000834,None,,,,,,,,,,,,,,,,,,,,,,,,,,,,,,,,,,1,0.9731374999973923,577.2608617000515,None,ScrollDown,정답입니다,577.2608617000515,None,577.2608617000515,None,577.2608617000515,None,577.2608617000515,None,578.1443360000849,None,578.1443360000849,578.6442633999977,541.1615921000484,None,541.1615921000484,None,0.10185185,-0.1287037,1,0,0,0.01623161998577416,None,571.1607865000842,None,,,207,2023-04-26_13h40.08.734,FishGame,2022.1.1,60.080700409772035,
,2,나를 보내줘,6,Orange,A,0,0,ScrollUp,ScrollDown,Orange.png,5,NonTarget,NonTarget,0,0,0,0,,,,,,,,,,,,,,,,,,,,,,,,,,,,,0,1,1,1,,,,,,,,,,,,,,,,,,,,,,,,,,,,,,,,,,,,,,,,,,,,,,,,,,,,,,,,,,,,,,,,,,,,,1.8302469104528427,0.9473931998945773,579.2508842000971,None,ScrollUp,정답입니다,579.2508842000971,None,579.2508842000971,None,579.2508842000971,None,579.2508842000971,None,580.1086597000249,None,580.1086597000249,580.6107505999971,,,,,,,,,,,,,,,,207,2023-04-26_13h40.08.734,FishGame,2022.1.1,60.080700409772035,
,3,넌 다재다능해,2,Green,B,6.208333333333333,4.5,ScrollUp,ScrollDown,Green.png,5,Positive,Incongruent,0,0,0,0,,,,,,,,,,,,,,,,,,,,,,,,,,,,,0,2,2,2,,,,,,,,,,,,,,,,,,,,,,,,,,,,,,,,,,,,,,,,,,,,,,,,,,,,,,,,,,,,,,,,,,,,,1.7422839403152466,0.6999778000172228,581.2151726000011,None,ScrollUp,정답입니다,581.2151726000011,None,581.2151726000011,None,581.2151726000011,None,581.2151726000011,None,581.8253456000239,None,581.8253456000239,582.3273961000377,,,,,,,,,,,,,,,,207,2023-04-26_13h40.08.734,FishGame,2022.1.1,60.080700409772035,
,4,넌 과감해,3,Orange,A,4.833333333333334,4.6,ScrollDown,ScrollUp,Orange.png,5,Neutral,Neutral,0,0,0,0,,,,,,,,,,,,,,,,,,,,,,,,,,,,,0,3,3,3,,,,,,,,,,,,,,,,,,,,,,,,,,,,,,,,,,,,,,,,,,,,,,,,,,,,,,,,,,,,,,,,,,,,,1,0.8477680999785662,582.9336723000742,None,ScrollDown,정답입니다,582.9336723000742,None,582.9336723000742,None,582.9336723000742,None,582.9336723000742,None,583.6916927000275,None,583.6916927000275,584.1917041999986,,,,,,,,,,,,,,,,207,2023-04-26_13h40.08.734,FishGame,2022.1.1,60.080700409772035,
,5,넌 고분고분해,3,Green,B,3.75,4.033333333333333,ScrollUp,ScrollDown,Green.png,5,Neutral,Neutral,0,0,0,0,,,,,,,,,,,,,,,,,,,,,,,,,,,,,0,4,4,4,,,,,,,,,,,,,,,,,,,,,,,,,,,,,,,,,,,,,,,,,,,,,,,,,,,,,,,,,,,,,,,,,,,,,2,0.7825411000521854,584.7984889000654,None,ScrollUp,정답입니다,584.7984889000654,None,584.7984889000654,None,584.7984889000654,None,584.7984889000654,None,585.4917476000264,None,585.4917476000264,585.9941440999974,,,,,,,,,,,,,,,,207,2023-04-26_13h40.08.734,FishGame,2022.1.1,60.080700409772035,
,6,나를 보내줘,6,Orange,A,0,0,ScrollUp,ScrollDown,Orange.png,5,NonTarget,NonTarget,0,0,0,0,,,,,,,,,,,,,,,,,,,,,,,,,,,,,0,5,5,5,,,,,,,,,,,,,,,,,,,,,,,,,,,,,,,,,,,,,,,,,,,,,,,,,,,,,,,,,,,,,,,,,,,,,1.837962955236435,0.9129297999897972,586.6011674000183,None,ScrollUp,정답입니다,586.6011674000183,None,586.6011674000183,None,586.6011674000183,None,586.6011674000183,None,587.4273957000114,None,587.4273957000114,587.9277270000894,,,,,,,,,,,,,,,,207,2023-04-26_13h40.08.734,FishGame,2022.1.1,60.080700409772035,
,7,넌 잘 잊어,4,Orange,A,3,3.7,ScrollDown,ScrollUp,Orange.png,5,Negative,Incongruent,0,0,0,0,,,,,,,,,,,,,,,,,,,,,,,,,,,,,0,6,6,6,,,,,,,,,,,,,,,,,,,,,,,,,,,,,,,,,,,,,,,,,,,,,,,,,,,,,,,,,,,,,,,,,,,,,1,1.1258063999703154,588.545746000018,None,ScrollDown,정답입니다,588.545746000018,None,588.545746000018,None,588.545746000018,None,588.545746000018,None,589.574939000071,None,589.574939000071,590.0748937000753,,,,,,,,,,,,,,,,207,2023-04-26_13h40.08.734,FishGame,2022.1.1,60.080700409772035,
,8,넌 탐구심이없어,4,Green,B,2.833333333333333,3.066666666666667,ScrollUp,ScrollDown,Green.png,5,Negative,Congruent,0,0,0,0,,,,,,,,,,,,,,,,,,,,,,,,,,,,,0,7,7,7,,,,,,,,,,,,,,,,,,,,,,,,,,,,,,,,,,,,,,,,,,,,,,,,,,,,,,,,,,,,,,,,,,,,,1.8271604826052983,0.7829262000741437,590.6793193999911,None,ScrollUp,정답입니다,590.6793193999911,None,590.6793193999911,None,590.6793193999911,None,590.6793193999911,None,591.3749328000704,None,591.3749328000704,591.8773499000818,,,,,,,,,,,,,,,,207,2023-04-26_13h40.08.734,FishGame,2022.1.1,60.080700409772035,
,9,나를 데려가줘,6,Green,B,0,0,ScrollDown,ScrollUp,Green.png,5,NonTarget,NonTarget,0,0,0,0,,,,,,,,,,,,,,,,,,,,,,,,,,,,,0,8,8,8,,,,,,,,,,,,,,,,,,,,,,,,,,,,,,,,,,,,,,,,,,,,,,,,,,,,,,,,,,,,,,,,,,,,,1,1.064916200004518,592.4816489000805,None,ScrollDown,정답입니다,592.4816489000805,None,592.4816489000805,None,592.4816489000805,None,592.4816489000805,None,593.4608213000465,None,593.4608213000465,593.9641578000737,,,,,,,,,,,,,,,,207,2023-04-26_13h40.08.734,FishGame,2022.1.1,60.080700409772035,
,10,넌 참되어,2,Orange,A,6.041666666666664,4.733333333333333,ScrollDown,ScrollUp,Orange.png,5,Positive,Congruent,0,0,0,0,,,,,,,,,,,,,,,,,,,,,,,,,,,,,0,9,9,9,,,,,,,,,,,,,,,,,,,,,,,,,,,,,,,,,,,,,,,,,,,,,,,,,,,,,,,,,,,,,,,,,,,,,1.0138889054457347,0.8667947000358254,594.5686558000743,None,ScrollDown,정답입니다,594.5686558000743,None,594.5686558000743,None,594.5686558000743,None,594.5686558000743,None,595.3417801000178,None,595.3417801000178,595.8438459000317,,,,,,,,,,,,,,,,207,2023-04-26_13h40.08.734,FishGame,2022.1.1,60.080700409772035,
,11,넌 생기있어,1,Green,B,5.875,5.633333333333334,ScrollUp,ScrollDown,Green.png,5,Positive,Incongruent,0,0,0,0,,,,,,,,,,,,,,,,,,,,,,,,,,,,,0,10,10,10,,,,,,,,,,,,,,,,,,,,,,,,,,,,,,,,,,,,,,,,,,,,,,,,,,,,,,,,,,,,,,,,,,,,,2,1.0134866000153124,596.4536638000282,None,ScrollUp,정답입니다,596.4536638000282,None,596.4536638000282,None,596.4536638000282,None,596.4536638000282,None,597.3747596000321,None,597.3747596000321,597.8752890999895,,,,,,,,,,,,,,,,207,2023-04-26_13h40.08.734,FishGame,2022.1.1,60.080700409772035,
,12,넌 비사교적이야,4,Green,B,2.875,2.9,ScrollUp,ScrollDown,Green.png,5,Negative,Congruent,0,0,0,0,,,,,,,,,,,,,,,,,,,,,,,,,,,,,0,11,11,11,,,,,,,,,,,,,,,,,,,,,,,,,,,,,,,,,,,,,,,,,,,,,,,,,,,,,,,,,,,,,,,,,,,,,2,0.9159436000045389,598.4779389000032,None,ScrollUp,정답입니다,598.4779389000032,None,598.4779389000032,None,598.4779389000032,None,598.4779389000032,None,599.3081119999988,None,599.3081119999988,599.8104940000921,,,,,,,,,,,,,,,,207,2023-04-26_13h40.08.734,FishGame,2022.1.1,60.080700409772035,
,13,나를 데려가줘,6,Green,B,0,0,ScrollDown,ScrollUp,Green.png,5,NonTarget,NonTarget,0,0,0,0,,,,,,,,,,,,,,,,,,,,,,,,,,,,,0,12,12,12,,,,,,,,,,,,,,,,,,,,,,,,,,,,,,,,,,,,,,,,,,,,,,,,,,,,,,,,,,,,,,,,,,,,,1,1.0465155999409035,600.41528690001,None,ScrollDown,정답입니다,600.41528690001,None,600.41528690001,None,600.41528690001,None,600.41528690001,None,601.377270200057,None,601.377270200057,601.8748530000448,,,,,,,,,,,,,,,,207,2023-04-26_13h40.08.734,FishGame,2022.1.1,60.080700409772035,
,14,넌 고독해,4,Orange,A,2.916666666666667,3.233333333333333,ScrollDown,ScrollUp,Orange.png,5,Negative,Incongruent,0,0,0,0,,,,,,,,,,,,,,,,,,,,,,,,,,,,,0,13,13,13,,,,,,,,,,,,,,,,,,,,,,,,,,,,,,,,,,,,,,,,,,,,,,,,,,,,,,,,,,,,,,,,,,,,,1.0061728358268738,1.328976699966006,602.4889933000086,None,ScrollDown,정답입니다,602.4889933000086,None,602.4889933000086,None,602.4889933000086,None,602.4889933000086,None,603.7271505000535,None,603.7271505000535,604.2271087000845,,,,,,,,,,,,,,,,207,2023-04-26_13h40.08.734,FishGame,2022.1.1,60.080700409772035,
,15,넌 신경질적이야,5,Green,B,2.375,2.233333333333333,ScrollUp,ScrollDown,Green.png,5,Negative,Congruent,0,0,0,0,,,,,,,,,,,,,,,,,,,,,,,,,,,,,0,14,14,14,,,,,,,,,,,,,,,,,,,,,,,,,,,,,,,,,,,,,,,,,,,,,,,,,,,,,,,,,,,,,,,,,,,,,1.6404320945342383,0.8316795999417081,604.8579019000754,None,ScrollUp,정답입니다,604.8579019000754,None,604.8579019000754,None,604.8579019000754,None,604.8579019000754,None,605.5915079000406,None,605.5915079000406,606.0935471000848,,,,,,,,,,,,,,,,207,2023-04-26_13h40.08.734,FishGame,2022.1.1,60.080700409772035,
,16,넌 똑똑해,2,Green,B,5.666666666666667,3.966666666666667,ScrollUp,ScrollDown,Green.png,5,Positive,Incongruent,0,0,0,0,,,,,,,,,,,,,,,,,,,,,,,,,,,,,0,15,15,15,,,,,,,,,,,,,,,,,,,,,,,,,,,,,,,,,,,,,,,,,,,,,,,,,,,,,,,,,,,,,,,,,,,,,1.8487654278675716,1.280796599923633,606.6972400000086,None,ScrollUp,정답입니다,606.6972400000086,None,606.6972400000086,None,606.6972400000086,None,606.6972400000086,None,607.8935253000818,None,607.8935253000818,608.393559499993,,,,,,,,,,,,,,,,207,2023-04-26_13h40.08.734,FishGame,2022.1.1,60.080700409772035,
,17,나를 보내줘,6,Orange,A,0,0,ScrollUp,ScrollDown,Orange.png,5,NonTarget,NonTarget,0,0,0,0,,,,,,,,,,,,,,,,,,,,,,,,,,,,,0,16,16,16,,,,,,,,,,,,,,,,,,,,,,,,,,,,,,,,,,,,,,,,,,,,,,,,,,,,,,,,,,,,,,,,,,,,,1.7422839403152466,0.9292495000408962,609.0002006000141,None,ScrollUp,정답입니다,609.0002006000141,None,609.0002006000141,None,609.0002006000141,None,609.0002006000141,None,609.8412076000823,None,609.8412076000823,610.3411474000895,,,,,,,,,,,,,,,,207,2023-04-26_13h40.08.734,FishGame,2022.1.1,60.080700409772035,
,18,넌 협조적이야,1,Orange,A,5.625,5.666666666666667,ScrollDown,ScrollUp,Orange.png,5,Positive,Congruent,0,0,0,0,,,,,,,,,,,,,,,,,,,,,,,,,,,,,0,17,17,17,,,,,,,,,,,,,,,,,,,,,,,,,,,,,,,,,,,,,,,,,,,,,,,,,,,,,,,,,,,,,,,,,,,,,1,0.9328107999172062,610.9464465000201,None,ScrollDown,정답입니다,610.9464465000201,None,610.9464465000201,None,610.9464465000201,None,610.9464465000201,None,611.7911617000354,None,611.7911617000354,612.2911794000538,,,,,,,,,,,,,,,,207,2023-04-26_13h40.08.734,FishGame,2022.1.1,60.080700409772035,
,19,나를 데려가줘,6,Green,B,0,0,ScrollDown,ScrollUp,Green.png,5,NonTarget,NonTarget,0,0,0,0,,,,,,,,,,,,,,,,,,,,,,,,,,,,,0,18,18,18,,,,,,,,,,,,,,,,,,,,,,,,,,,,,,,,,,,,,,,,,,,,,,,,,,,,,,,,,,,,,,,,,,,,,1.1018518507480621,1.1149861000012606,612.8967876000097,None,ScrollDown,정답입니다,612.8967876000097,None,612.8967876000097,None,612.8967876000097,None,612.8967876000097,None,613.9269230000209,None,613.9269230000209,614.4269105000421,,,,,,,,,,,,,,,,207,2023-04-26_13h40.08.734,FishGame,2022.1.1,60.080700409772035,
,20,넌 몰인정해,5,Green,B,2.541666666666667,2.066666666666667,ScrollUp,ScrollDown,Green.png,5,Negative,Congruent,0,0,0,0,,,,,,,,,,,,,,,,,,,,,,,,,,,,,0,19,19,19,,,,,,,,,,,,,,,,,,,,,,,,,,,,,,,,,,,,,,,,,,,,,,,,,,,,,,,,,,,,,,,,,,,,,1.9151234527428944,0.9147482999833301,615.0341055000899,None,ScrollUp,정답입니다,615.0341055000899,None,615.0341055000899,None,615.0341055000899,None,615.0341055000899,None,615.8601802000776,None,615.8601802000776,616.3601349000819,,,,,,,,,,,,,,,,207,2023-04-26_13h40.08.734,FishGame,2022.1.1,60.080700409772035,
,21,나를 데려가줘,6,Green,B,0,0,ScrollDown,ScrollUp,Green.png,5,NonTarget,NonTarget,0,0,0,0,,,,,,,,,,,,,,,,,,,,,,,,,,,,,0,20,20,20,,,,,,,,,,,,,,,,,,,,,,,,,,,,,,,,,,,,,,,,,,,,,,,,,,,,,,,,,,,,,,,,,,,,,1.1836419651905696,1.216587399947457,616.9643881000811,None,ScrollDown,정답입니다,616.9643881000811,None,616.9643881000811,None,616.9643881000811,None,616.9643881000811,None,618.0934031000361,None,618.0934031000361,618.596517900005,,,,,,,,,,,,,,,,207,2023-04-26_13h40.08.734,FishGame,2022.1.1,60.080700409772035,
,22,넌 순진해,3,Green,B,4.125,4.166666666666667,ScrollUp,ScrollDown,Green.png,5,Neutral,Neutral,0,0,0,0,,,,,,,,,,,,,,,,,,,,,,,,,,,,,0,21,21,21,,,,,,,,,,,,,,,,,,,,,,,,,,,,,,,,,,,,,,,,,,,,,,,,,,,,,,,,,,,,,,,,,,,,,2,0.8163592999335378,619.1975694000721,None,ScrollUp,정답입니다,619.1975694000721,None,619.1975694000721,None,619.1975694000721,None,619.1975694000721,None,619.9245762000792,None,619.9245762000792,620.4266627000179,,,,,,,,,,,,,,,,207,2023-04-26_13h40.08.734,FishGame,2022.1.1,60.080700409772035,
,23,넌 신뢰할만해,1,Orange,A,6.625,5.533333333333333,ScrollDown,ScrollUp,Orange.png,5,Positive,Congruent,0,0,0,0,,,,,,,,,,,,,,,,,,,,,,,,,,,,,0,22,22,22,,,,,,,,,,,,,,,,,,,,,,,,,,,,,,,,,,,,,,,,,,,,,,,,,,,,,,,,,,,,,,,,,,,,,1,0.8958973000990227,621.0375412000576,None,ScrollDown,정답입니다,621.0375412000576,None,621.0375412000576,None,621.0375412000576,None,621.0375412000576,None,621.8432447999949,None,621.8432447999949,622.3432779000141,,,,,,,,,,,,,,,,207,2023-04-26_13h40.08.734,FishGame,2022.1.1,60.080700409772035,
