name,TrialNum,Word,WordCategory,FishType,WordList,WordValence,WordReputation,CorrectResp,IncorrectResp,FishTypeFile,Round,WordType,Condition,LoopforOrange.thisRepN,LoopforOrange.thisTrialN,LoopforOrange.thisN,LoopforOrange.thisIndex,LoopForGreen.thisRepN,LoopForGreen.thisTrialN,LoopForGreen.thisN,LoopForGreen.thisIndex,GreenInstLoop.thisRepN,GreenInstLoop.thisTrialN,GreenInstLoop.thisN,GreenInstLoop.thisIndex,GreenPrac.thisRepN,GreenPrac.thisTrialN,GreenPrac.thisN,GreenPrac.thisIndex,trials_2.thisRepN,trials_2.thisTrialN,trials_2.thisN,trials_2.thisIndex,GreenRound1.thisRepN,GreenRound1.thisTrialN,GreenRound1.thisN,GreenRound1.thisIndex,GreenRound2.thisRepN,GreenRound2.thisTrialN,GreenRound2.thisN,GreenRound2.thisIndex,GreenRound3.thisRepN,GreenRound3.thisTrialN,GreenRound3.thisN,GreenRound3.thisIndex,GreenRound4.thisRepN,GreenRound4.thisTrialN,GreenRound4.thisN,GreenRound4.thisIndex,GreenRound5.thisRepN,GreenRound5.thisTrialN,GreenRound5.thisN,GreenRound5.thisIndex,text_2.started,text_2.stopped,text_3.started,text_3.stopped,key_resp.keys,key_resp.rt,key_resp.started,key_resp.stopped,PassI.started,PassI.stopped,PassInst.keys,PassInst.rt,PassInst.started,PassInst.stopped,mouse_2.x,mouse_2.y,mouse_2.leftButton,mouse_2.midButton,mouse_2.rightButton,mouse_2.started,mouse_2.stopped,image.started,image.stopped,text_5.started,text_5.stopped,text_6.started,text_6.stopped,text_7.started,text_7.stopped,text_8.started,text_8.stopped,slider_3.response,slider_3.rt,slider_3.started,slider_3.stopped,Response_3,Feedback_3,BackGround_3.started,BackGround_3.stopped,Fish_3.started,Fish_3.stopped,WordBox_3.started,WordBox_3.stopped,Words_3.started,Words_3.stopped,BackGround_Feedback_3.started,BackGround_Feedback_3.stopped,Feedbacks_3.started,Feedbacks_3.stopped,Continue_or_not_2.keys,Continue_or_not_2.rt,Continue_or_not_2.started,Continue_or_not_2.stopped,image_4.started,image_4.stopped,mouse_3.x,mouse_3.y,mouse_3.leftButton,mouse_3.midButton,mouse_3.rightButton,mouse_3.started,mouse_3.stopped,startmain.started,startmain.stopped,slider_4.response,slider_4.rt,slider_4.started,slider_4.stopped,Response_4,Feedback_4,BackGround_4.started,BackGround_4.stopped,Fish_4.started,Fish_4.stopped,WordBox_4.started,WordBox_4.stopped,Words_4.started,Words_4.stopped,BackGround_Feedback_4.started,BackGround_Feedback_4.stopped,Feedbacks_4.started,Feedbacks_4.stopped,text.started,text.stopped,break_interval.started,break_interval.stopped,mouse.x,mouse.y,mouse.leftButton,mouse.midButton,mouse.rightButton,mouse.started,mouse.stopped,stratnextround.started,stratnextround.stopped,endgame.started,endgame.stopped,participant,date,expName,psychopyVersion,frameRate,
,,,,,,,,,,,,,,,,,,,,,,,,,,,,,,,,,,,,,,,,,,,,,,,,,,,,,,18.046705799992196,None,18.046705799992196,None,space,0.8151512000476941,18.539874300011434,None,,,,,,,,,,,,,,,,,,,,,,,,,,,,,,,,,,,,,,,,,,,,,,,,,,,,,,,,,,,,,,,,,,,,,,,,,,,,,,,,,,,,,,,,,,210,2023-04-25_19h23.26.637,FishGame,2022.1.1,60.1362688006056,
물고기과제_instruction(참가자용)GreenVersion.mp4,,,,,,,,,,,,,,,,,,0,0,0,0,0,0,0,0,,,,,,,,,,,,,,,,,,,,,,,,,,,,,,,,,,,,,79.2516406000359,None,n,2.815332100028172,79.2516406000359,None,,,,,,,,,,,,,,,,,,,,,,,,,,,,,,,,,,,,,,,,,,,,,,,,,,,,,,,,,,,,,,,,,,,,,,,,,,,,,,,,,,,,210,2023-04-25_19h23.26.637,FishGame,2022.1.1,60.1362688006056,
,1,넌 교활해,5,Orange,B,2.333333333333333,2.133333333333333,ScrollUp,ScrollDown,Orange.png,practice,,,,,,,0,0,0,0,,,,,0,0,0,0,0,0,0,0,,,,,,,,,,,,,,,,,,,,,,,,,,,,,,,,,,,0.014814815,-0.22962964,1,0,0,0.5130154300713912,None,82.08519100002013,None,86.26645819994155,87.76867310004309,87.80195710004773,88.75193979998585,88.80193980003241,89.75191520003136,89.75191520003136,None,2,1.2969715000363067,91.01870909996796,None,ScrollUp,정답입니다,91.01870909996796,None,91.01870909996796,None,91.01870909996796,None,91.01870909996796,None,92.032711799955,None,92.032711799955,92.53266919997986,,,,,,,,,,,,,,,,,,,,,,,,,,,,,,,,,,,,,,,,,,,,,,,,,210,2023-04-25_19h23.26.637,FishGame,2022.1.1,60.1362688006056,
,2,넌 슬기로워,2,Green,A,6.166666666666667,4.1,ScrollDown,ScrollUp,Green.png,practice,,,,,,,0,0,0,0,,,,,0,0,0,0,0,1,1,1,,,,,,,,,,,,,,,,,,,,,,,,,,,,,,,,,,,,,,,,,,,,,,,,,,,,1,0.83160370006226,93.13699000002816,None,ScrollDown,정답입니다,93.13699000002816,None,93.13699000002816,None,93.13699000002816,None,93.13699000002816,None,93.88272230001166,None,93.88272230001166,94.38512240001,,,,,,,,,,,,,,,,,,,,,,,,,,,,,,,,,,,,,,,,,,,,,,,,,210,2023-04-25_19h23.26.637,FishGame,2022.1.1,60.1362688006056,
,3,나를 보내줘,6,Green,A,0,0,ScrollUp,ScrollDown,Green.png,practice,,,,,,,0,0,0,0,,,,,0,0,0,0,0,2,2,2,,,,,,,,,,,,,,,,,,,,,,,,,,,,,,,,,,,,,,,,,,,,,,,,,,,,1.8888888905445735,1.0649827999295667,94.9915953000309,None,ScrollUp,정답입니다,94.9915953000309,None,94.9915953000309,None,94.9915953000309,None,94.9915953000309,None,95.96848549996503,None,95.96848549996503,96.46837939997204,,,,,,,,,,,,,,,,,,,,,,,,,,,,,,,,,,,,,,,,,,,,,,,,,210,2023-04-25_19h23.26.637,FishGame,2022.1.1,60.1362688006056,
,4,나를 데려가줘,6,Orange,B,0,0,ScrollDown,ScrollUp,Orange.png,practice,,,,,,,0,0,0,0,,,,,0,0,0,0,0,3,3,3,,,,,,,,,,,,,,,,,,,,,,,,,,,,,,,,,,,,,,,,,,,,,,,,,,,,1.0617283880710602,0.7817351000849158,97.07955839997157,None,ScrollDown,정답입니다,97.07955839997157,None,97.07955839997157,None,97.07955839997157,None,97.07955839997157,None,97.76823199994396,None,97.76823199994396,98.28488089994062,,,,,,,,,,,,,,,,,,,,,,,,,,,,,,,,,,,,,,,,,,,,,,,,,210,2023-04-25_19h23.26.637,FishGame,2022.1.1,60.1362688006056,
,1,넌 교활해,5,Orange,B,2.333333333333333,2.133333333333333,ScrollUp,ScrollDown,Orange.png,practice,,,,,,,0,0,0,0,,,,,0,0,0,0,,,,,,,,,,,,,,,,,,,,,,,,,,,,,,,,,,,,,,,,,,,,,,,,,,,,,,,,,,,,,,,,,,,,,,,,,,n,3.9697795000392944,98.76829439995345,None,98.76829439995345,None,,,,,,,,,,,,,,,,,,,,,,,,,,,,,,,,,,,,,,,,,,,210,2023-04-25_19h23.26.637,FishGame,2022.1.1,60.1362688006056,
,1,넌 따뜻해,1,Orange,B,6.083333333333333,5.6,ScrollUp,ScrollDown,Orange.png,1,Positive,Incongruent,,,,,0,0,0,0,,,,,,,,,,,,,0,0,0,0,,,,,,,,,,,,,,,,,,,,,,,,,,,,,,,,,,,,,,,,104.34936809993815,105.8516246000072,105.8849840000039,106.85157119994983,106.8848981000483,107.83489029994234,107.83489029994234,None,,,,,,,,,,,,,,,,,,,,,,,,,0.0064814813,-0.11481482,1,0,0,0.3145018300274387,None,102.76808850001544,None,1.904320980111758,0.9939495000289753,109.11324950004928,None,ScrollUp,정답입니다,109.11324950004928,None,109.11324950004928,None,109.11324950004928,None,109.11324950004928,None,109.81600869994145,None,109.81600869994145,110.31802240002435,,,,,,,,,,,,,,,,210,2023-04-25_19h23.26.637,FishGame,2022.1.1,60.1362688006056,
,2,넌 기품있어,2,Orange,B,5.791666666666668,4.5,ScrollUp,ScrollDown,Orange.png,1,Positive,Incongruent,,,,,0,0,0,0,,,,,,,,,,,,,0,1,1,1,,,,,,,,,,,,,,,,,,,,,,,,,,,,,,,,,,,,,,,,,,,,,,,,,,,,,,,,,,,,,,,,,,,,,,,,,,,,,,,,,1.9151234527428944,0.8095787999918684,110.93923919997178,None,ScrollUp,정답입니다,110.93923919997178,None,110.93923919997178,None,110.93923919997178,None,110.93923919997178,None,111.64899509993847,None,111.64899509993847,112.14896669995505,,,,,,,,,,,,,,,,210,2023-04-25_19h23.26.637,FishGame,2022.1.1,60.1362688006056,
,3,나를 보내줘,6,Green,A,0,0,ScrollUp,ScrollDown,Green.png,1,NonTarget,NonTarget,,,,,0,0,0,0,,,,,,,,,,,,,0,2,2,2,,,,,,,,,,,,,,,,,,,,,,,,,,,,,,,,,,,,,,,,,,,,,,,,,,,,,,,,,,,,,,,,,,,,,,,,,,,,,,,,,2,0.9121968999970704,112.76405060000252,None,ScrollUp,정답입니다,112.76405060000252,None,112.76405060000252,None,112.76405060000252,None,112.76405060000252,None,113.58232369995676,None,113.58232369995676,114.08469899999909,,,,,,,,,,,,,,,,210,2023-04-25_19h23.26.637,FishGame,2022.1.1,60.1362688006056,
,4,넌 수동적이야,4,Green,A,2.833333333333333,2.933333333333333,ScrollDown,ScrollUp,Green.png,1,Negative,Incongruent,,,,,0,0,0,0,,,,,,,,,,,,,0,3,3,3,,,,,,,,,,,,,,,,,,,,,,,,,,,,,,,,,,,,,,,,,,,,,,,,,,,,,,,,,,,,,,,,,,,,,,,,,,,,,,,,,1.0663580298423767,0.8484019000316039,114.69716930005234,None,ScrollDown,정답입니다,114.69716930005234,None,114.69716930005234,None,114.69716930005234,None,114.69716930005234,None,115.45137030002661,None,115.45137030002661,115.95141550002154,,,,,,,,,,,,,,,,210,2023-04-25_19h23.26.637,FishGame,2022.1.1,60.1362688006056,
,5,넌 사심이 없어,3,Orange,B,4.916666666666666,4.333333333333333,ScrollUp,ScrollDown,Orange.png,1,Neutral,Neutral,,,,,0,0,0,0,,,,,,,,,,,,,0,4,4,4,,,,,,,,,,,,,,,,,,,,,,,,,,,,,,,,,,,,,,,,,,,,,,,,,,,,,,,,,,,,,,,,,,,,,,,,,,,,,,,,,1.9367283980051677,0.9315063999965787,116.56249229994137,None,ScrollUp,정답입니다,116.56249229994137,None,116.56249229994137,None,116.56249229994137,None,116.56249229994137,None,117.39915870002005,None,117.39915870002005,117.90117460000329,,,,,,,,,,,,,,,,210,2023-04-25_19h23.26.637,FishGame,2022.1.1,60.1362688006056,
,6,넌 헤퍼,5,Green,A,2.458333333333334,2.233333333333333,ScrollDown,ScrollUp,Green.png,1,Negative,Incongruent,,,,,0,0,0,0,,,,,,,,,,,,,0,5,5,5,,,,,,,,,,,,,,,,,,,,,,,,,,,,,,,,,,,,,,,,,,,,,,,,,,,,,,,,,,,,,,,,,,,,,,,,,,,,,,,,,1,0.7483961000107229,118.5145636999514,None,ScrollDown,정답입니다,118.5145636999514,None,118.5145636999514,None,118.5145636999514,None,118.5145636999514,None,119.1678015999496,None,119.1678015999496,119.66779940004926,,,,,,,,,,,,,,,,210,2023-04-25_19h23.26.637,FishGame,2022.1.1,60.1362688006056,
,7,넌 말쑥해,3,Green,A,4.833333333333334,4.333333333333333,ScrollDown,ScrollUp,Green.png,1,Neutral,Neutral,,,,,0,0,0,0,,,,,,,,,,,,,0,6,6,6,,,,,,,,,,,,,,,,,,,,,,,,,,,,,,,,,,,,,,,,,,,,,,,,,,,,,,,,,,,,,,,,,,,,,,,,,,,,,,,,,1,0.829409800004214,120.27553880005144,None,ScrollDown,정답입니다,120.27553880005144,None,120.27553880005144,None,120.27553880005144,None,120.27553880005144,None,121.01778879994527,None,121.01778879994527,121.51834479998797,,,,,,,,,,,,,,,,210,2023-04-25_19h23.26.637,FishGame,2022.1.1,60.1362688006056,
,8,넌 투덜거려,5,Orange,B,2.541666666666667,2.266666666666667,ScrollUp,ScrollDown,Orange.png,1,Negative,Congruent,,,,,0,0,0,0,,,,,,,,,,,,,0,7,7,7,,,,,,,,,,,,,,,,,,,,,,,,,,,,,,,,,,,,,,,,,,,,,,,,,,,,,,,,,,,,,,,,,,,,,,,,,,,,,,,,,1.8564814726511638,0.7811706999782473,122.1314758999506,None,ScrollUp,정답입니다,122.1314758999506,None,122.1314758999506,None,122.1314758999506,None,122.1314758999506,None,122.81568050000351,None,122.81568050000351,123.31769099994563,,,,,,,,,,,,,,,,210,2023-04-25_19h23.26.637,FishGame,2022.1.1,60.1362688006056,
,9,넌 적극적이야,1,Green,A,5.708333333333333,5.533333333333333,ScrollDown,ScrollUp,Green.png,1,Positive,Congruent,,,,,0,0,0,0,,,,,,,,,,,,,0,8,8,8,,,,,,,,,,,,,,,,,,,,,,,,,,,,,,,,,,,,,,,,,,,,,,,,,,,,,,,,,,,,,,,,,,,,,,,,,,,,,,,,,1,0.8463274999521673,123.92455200001132,None,ScrollDown,정답입니다,123.92455200001132,None,123.92455200001132,None,123.92455200001132,None,123.92455200001132,None,124.68436319998,None,124.68436319998,125.18434679997154,,,,,,,,,,,,,,,,210,2023-04-25_19h23.26.637,FishGame,2022.1.1,60.1362688006056,
,10,넌 재미없어,4,Orange,B,2.625,2.966666666666667,ScrollUp,ScrollDown,Orange.png,1,Negative,Congruent,,,,,0,0,0,0,,,,,,,,,,,,,0,9,9,9,,,,,,,,,,,,,,,,,,,,,,,,,,,,,,,,,,,,,,,,,,,,,,,,,,,,,,,,,,,,,,,,,,,,,,,,,,,,,,,,,1.9151234527428944,0.8320461000548676,125.79485960002057,None,ScrollUp,정답입니다,125.79485960002057,None,125.79485960002057,None,125.79485960002057,None,125.79485960002057,None,126.5344507000409,None,126.5344507000409,127.03438670001924,,,,,,,,,,,,,,,,210,2023-04-25_19h23.26.637,FishGame,2022.1.1,60.1362688006056,
,11,넌 명석해,2,Green,A,5.875,4.033333333333333,ScrollDown,ScrollUp,Green.png,1,Positive,Congruent,,,,,0,0,0,0,,,,,,,,,,,,,0,10,10,10,,,,,,,,,,,,,,,,,,,,,,,,,,,,,,,,,,,,,,,,,,,,,,,,,,,,,,,,,,,,,,,,,,,,,,,,,,,,,,,,,1,0.8419389000628144,127.65124060004018,None,ScrollDown,정답입니다,127.65124060004018,None,127.65124060004018,None,127.65124060004018,None,127.65124060004018,None,128.3819692999823,None,128.3819692999823,128.88205010001548,,,,,,,,,,,,,,,,210,2023-04-25_19h23.26.637,FishGame,2022.1.1,60.1362688006056,
,12,나를 데려가줘,6,Orange,B,0,0,ScrollDown,ScrollUp,Orange.png,1,NonTarget,NonTarget,,,,,0,0,0,0,,,,,,,,,,,,,0,11,11,11,,,,,,,,,,,,,,,,,,,,,,,,,,,,,,,,,,,,,,,,,,,,,,,,,,,,,,,,,,,,,,,,,,,,,,,,,,,,,,,,,1,1.1150830999249592,129.49038950004615,None,ScrollDown,정답입니다,129.49038950004615,None,129.49038950004615,None,129.49038950004615,None,129.49038950004615,None,130.51531639997847,None,130.51531639997847,131.01768839999568,,,,,,,,,,,,,,,,210,2023-04-25_19h23.26.637,FishGame,2022.1.1,60.1362688006056,
,13,넌 소심해,4,Green,A,3,3.1,ScrollDown,ScrollUp,Green.png,1,Negative,Incongruent,,,,,0,0,0,0,,,,,,,,,,,,,0,12,12,12,,,,,,,,,,,,,,,,,,,,,,,,,,,,,,,,,,,,,,,,,,,,,,,,,,,,,,,,,,,,,,,,,,,,,,,,,,,,,,,,,1,0.6983545999974012,131.62521750002634,None,ScrollDown,정답입니다,131.62521750002634,None,131.62521750002634,None,131.62521750002634,None,131.62521750002634,None,132.23453470005188,None,132.23453470005188,132.7343662000494,,,,,,,,,,,,,,,,210,2023-04-25_19h23.26.637,FishGame,2022.1.1,60.1362688006056,
,14,넌 합리적이야,2,Green,A,5.583333333333333,4.733333333333333,ScrollDown,ScrollUp,Green.png,1,Positive,Congruent,,,,,0,0,0,0,,,,,,,,,,,,,0,13,13,13,,,,,,,,,,,,,,,,,,,,,,,,,,,,,,,,,,,,,,,,,,,,,,,,,,,,,,,,,,,,,,,,,,,,,,,,,,,,,,,,,1,0.8152597999433056,133.34233929996844,None,ScrollDown,정답입니다,133.34233929996844,None,133.34233929996844,None,133.34233929996844,None,133.34233929996844,None,134.06760539999232,None,134.06760539999232,134.56751209998038,,,,,,,,,,,,,,,,210,2023-04-25_19h23.26.637,FishGame,2022.1.1,60.1362688006056,
,15,넌 무자비해,5,Orange,B,2.333333333333333,2.1,ScrollUp,ScrollDown,Orange.png,1,Negative,Congruent,,,,,0,0,0,0,,,,,,,,,,,,,0,14,14,14,,,,,,,,,,,,,,,,,,,,,,,,,,,,,,,,,,,,,,,,,,,,,,,,,,,,,,,,,,,,,,,,,,,,,,,,,,,,,,,,,1.6975308607021966,0.762548099970445,135.18486289994325,None,ScrollUp,정답입니다,135.18486289994325,None,135.18486289994325,None,135.18486289994325,None,135.18486289994325,None,135.84852949995548,None,135.84852949995548,136.34857769997325,,,,,,,,,,,,,,,,210,2023-04-25_19h23.26.637,FishGame,2022.1.1,60.1362688006056,
,16,나를 보내줘,6,Green,A,0,0,ScrollUp,ScrollDown,Green.png,1,NonTarget,NonTarget,,,,,0,0,0,0,,,,,,,,,,,,,0,15,15,15,,,,,,,,,,,,,,,,,,,,,,,,,,,,,,,,,,,,,,,,,,,,,,,,,,,,,,,,,,,,,,,,,,,,,,,,,,,,,,,,,1.9243827362855275,0.828929299954325,136.95480579999276,None,ScrollUp,정답입니다,136.95480579999276,None,136.95480579999276,None,136.95480579999276,None,136.95480579999276,None,137.6985188999679,None,137.6985188999679,138.20090439997148,,,,,,,,,,,,,,,,210,2023-04-25_19h23.26.637,FishGame,2022.1.1,60.1362688006056,
,17,넌 현실적이야,3,Orange,B,4.608695652173913,4.766666666666667,ScrollUp,ScrollDown,Orange.png,1,Neutral,Neutral,,,,,0,0,0,0,,,,,,,,,,,,,0,16,16,16,,,,,,,,,,,,,,,,,,,,,,,,,,,,,,,,,,,,,,,,,,,,,,,,,,,,,,,,,,,,,,,,,,,,,,,,,,,,,,,,,1.8919753183921177,1.1149817999685183,138.81267470004968,None,ScrollUp,정답입니다,138.81267470004968,None,138.81267470004968,None,138.81267470004968,None,138.81267470004968,None,139.83426839997992,None,139.83426839997992,140.33763339999132,,,,,,,,,,,,,,,,210,2023-04-25_19h23.26.637,FishGame,2022.1.1,60.1362688006056,
,18,넌 의리있어,1,Orange,B,5.833333333333334,5.633333333333334,ScrollUp,ScrollDown,Orange.png,1,Positive,Incongruent,,,,,0,0,0,0,,,,,,,,,,,,,0,17,17,17,,,,,,,,,,,,,,,,,,,,,,,,,,,,,,,,,,,,,,,,,,,,,,,,,,,,,,,,,,,,,,,,,,,,,,,,,,,,,,,,,1.67746914178133,0.9151461001019925,140.94334919995163,None,ScrollUp,정답입니다,140.94334919995163,None,140.94334919995163,None,140.94334919995163,None,140.94334919995163,None,141.76738910004497,None,141.76738910004497,142.26740310003515,,,,,,,,,,,,,,,,210,2023-04-25_19h23.26.637,FishGame,2022.1.1,60.1362688006056,
,19,넌 신경과민이야,5,Green,A,2.541666666666667,2.166666666666667,ScrollDown,ScrollUp,Green.png,1,Negative,Incongruent,,,,,0,0,0,0,,,,,,,,,,,,,0,18,18,18,,,,,,,,,,,,,,,,,,,,,,,,,,,,,,,,,,,,,,,,,,,,,,,,,,,,,,,,,,,,,,,,,,,,,,,,,,,,,,,,,1,0.8597312000347301,142.8815595000051,None,ScrollDown,정답입니다,142.8815595000051,None,142.8815595000051,None,142.8815595000051,None,142.8815595000051,None,143.65068189997692,None,143.65068189997692,144.15063970000483,,,,,,,,,,,,,,,,210,2023-04-25_19h23.26.637,FishGame,2022.1.1,60.1362688006056,
,20,넌 편안해,1,Green,A,5.916666666666666,5.866666666666666,ScrollDown,ScrollUp,Green.png,1,Positive,Congruent,,,,,0,0,0,0,,,,,,,,,,,,,0,19,19,19,,,,,,,,,,,,,,,,,,,,,,,,,,,,,,,,,,,,,,,,,,,,,,,,,,,,,,,,,,,,,,,,,,,,,,,,,,,,,,,,,1.0555555323759716,0.7485729999607429,144.75839339999948,None,ScrollDown,정답입니다,144.75839339999948,None,144.75839339999948,None,144.75839339999948,None,144.75839339999948,None,145.4174461000366,None,145.4174461000366,145.92065680003725,,,,,,,,,,,,,,,,210,2023-04-25_19h23.26.637,FishGame,2022.1.1,60.1362688006056,
,21,넌 품위있어,2,Orange,B,5.291666666666666,4.466666666666667,ScrollUp,ScrollDown,Orange.png,1,Positive,Incongruent,,,,,0,0,0,0,,,,,,,,,,,,,0,20,20,20,,,,,,,,,,,,,,,,,,,,,,,,,,,,,,,,,,,,,,,,,,,,,,,,,,,,,,,,,,,,,,,,,,,,,,,,,,,,,,,,,1.9151234527428944,0.7650022000307217,146.5261927000247,None,ScrollUp,정답입니다,146.5261927000247,None,146.5261927000247,None,146.5261927000247,None,146.5261927000247,None,147.20058980002068,None,147.20058980002068,147.7005437000189,,,,,,,,,,,,,,,,210,2023-04-25_19h23.26.637,FishGame,2022.1.1,60.1362688006056,
,22,넌 빈틈없어,3,Green,A,4.833333333333333,3.966666666666667,ScrollDown,ScrollUp,Green.png,1,Neutral,Neutral,,,,,0,0,0,0,,,,,,,,,,,,,0,21,21,21,,,,,,,,,,,,,,,,,,,,,,,,,,,,,,,,,,,,,,,,,,,,,,,,,,,,,,,,,,,,,,,,,,,,,,,,,,,,,,,,,1,0.665029399911873,148.30874190002214,None,ScrollDown,정답입니다,148.30874190002214,None,148.30874190002214,None,148.30874190002214,None,148.30874190002214,None,148.88389699999243,None,148.88389699999243,149.3839473000262,,,,,,,,,,,,,,,,210,2023-04-25_19h23.26.637,FishGame,2022.1.1,60.1362688006056,
,23,넌 상상력없어,4,Orange,B,2.833333333333333,3.133333333333333,ScrollUp,ScrollDown,Orange.png,1,Negative,Congruent,,,,,0,0,0,0,,,,,,,,,,,,,0,22,22,22,,,,,,,,,,,,,,,,,,,,,,,,,,,,,,,,,,,,,,,,,,,,,,,,,,,,,,,,,,,,,,,,,,,,,,,,,,,,,,,,,1.9645061492919922,0.7649889000458643,149.99434099998325,None,ScrollUp,정답입니다,149.99434099998325,None,149.99434099998325,None,149.99434099998325,None,149.99434099998325,None,150.6672238999745,None,150.6672238999745,151.1671353999991,,,,,,,,,,,,,,,,210,2023-04-25_19h23.26.637,FishGame,2022.1.1,60.1362688006056,
,24,넌 지혜로워,2,Orange,B,6.333333333333334,4.633333333333334,ScrollUp,ScrollDown,Orange.png,1,Positive,Incongruent,,,,,0,0,0,0,,,,,,,,,,,,,0,23,23,23,,,,,,,,,,,,,,,,,,,,,,,,,,,,,,,,,,,,,,,,,,,,,,,,,,,,,,,,,,,,,,,,,,,,,,,,,,,,,,,,,1.8904321044683456,0.6796163000399247,151.778860899969,None,ScrollUp,정답입니다,151.778860899969,None,151.778860899969,None,151.778860899969,None,151.778860899969,None,152.36715319997165,None,152.36715319997165,152.8671575000044,,,,,,,,,,,,,,,,210,2023-04-25_19h23.26.637,FishGame,2022.1.1,60.1362688006056,
,25,넌 시끄러워,4,Green,A,2.833333333333333,3.033333333333333,ScrollDown,ScrollUp,Green.png,1,Negative,Incongruent,,,,,0,0,0,0,,,,,,,,,,,,,0,24,24,24,,,,,,,,,,,,,,,,,,,,,,,,,,,,,,,,,,,,,,,,,,,,,,,,,,,,,,,,,,,,,,,,,,,,,,,,,,,,,,,,,1,0.7462472000624985,153.47603130002972,None,ScrollDown,정답입니다,153.47603130002972,None,153.47603130002972,None,153.47603130002972,None,153.47603130002972,None,154.13383930001874,None,154.13383930001874,154.63385920005385,,,,,,,,,,,,,,,,210,2023-04-25_19h23.26.637,FishGame,2022.1.1,60.1362688006056,
,26,넌 만사태평이야,3,Orange,B,4,4.333333333333333,ScrollUp,ScrollDown,Orange.png,1,Neutral,Neutral,,,,,0,0,0,0,,,,,,,,,,,,,0,25,25,25,,,,,,,,,,,,,,,,,,,,,,,,,,,,,,,,,,,,,,,,,,,,,,,,,,,,,,,,,,,,,,,,,,,,,,,,,,,,,,,,,1.9845678806304932,0.7130617999937385,155.2461054000305,None,ScrollUp,정답입니다,155.2461054000305,None,155.2461054000305,None,155.2461054000305,None,155.2461054000305,None,155.86720129998866,None,155.86720129998866,156.36702949996106,,,,,,,,,,,,,,,,210,2023-04-25_19h23.26.637,FishGame,2022.1.1,60.1362688006056,
,27,넌 붙임성있어,1,Green,A,5.708333333333333,5.633333333333334,ScrollDown,ScrollUp,Green.png,1,Positive,Congruent,,,,,0,0,0,0,,,,,,,,,,,,,0,26,26,26,,,,,,,,,,,,,,,,,,,,,,,,,,,,,,,,,,,,,,,,,,,,,,,,,,,,,,,,,,,,,,,,,,,,,,,,,,,,,,,,,1.1018518507480621,0.6795585000654683,156.97652919997927,None,ScrollDown,정답입니다,156.97652919997927,None,156.97652919997927,None,156.97652919997927,None,156.97652919997927,None,157.56499770004302,None,157.56499770004302,158.06701720005367,,,,,,,,,,,,,,,,210,2023-04-25_19h23.26.637,FishGame,2022.1.1,60.1362688006056,
,28,넌 영리해,2,Green,A,6,4.033333333333333,ScrollDown,ScrollUp,Green.png,1,Positive,Congruent,,,,,0,0,0,0,,,,,,,,,,,,,0,27,27,27,,,,,,,,,,,,,,,,,,,,,,,,,,,,,,,,,,,,,,,,,,,,,,,,,,,,,,,,,,,,,,,,,,,,,,,,,,,,,,,,,1,0.7296561999246478,158.67393179994542,None,ScrollDown,정답입니다,158.67393179994542,None,158.67393179994542,None,158.67393179994542,None,158.67393179994542,None,159.31704650004394,None,159.31704650004394,159.81705469998997,,,,,,,,,,,,,,,,210,2023-04-25_19h23.26.637,FishGame,2022.1.1,60.1362688006056,
,29,넌 열심이야,1,Orange,B,6.041666666666667,5.833333333333333,ScrollUp,ScrollDown,Orange.png,1,Positive,Incongruent,,,,,0,0,0,0,,,,,,,,,,,,,0,28,28,28,,,,,,,,,,,,,,,,,,,,,,,,,,,,,,,,,,,,,,,,,,,,,,,,,,,,,,,,,,,,,,,,,,,,,,,,,,,,,,,,,1.8472222139437993,0.6625560000538826,160.42686180002056,None,ScrollUp,정답입니다,160.42686180002056,None,160.42686180002056,None,160.42686180002056,None,160.42686180002056,None,161.00025859999005,None,161.00025859999005,161.50026450003497,,,,,,,,,,,,,,,,210,2023-04-25_19h23.26.637,FishGame,2022.1.1,60.1362688006056,
,30,넌 인기없어,4,Orange,B,3,3.3,ScrollUp,ScrollDown,Orange.png,1,Negative,Congruent,,,,,0,0,0,0,,,,,,,,,,,,,0,29,29,29,,,,,,,,,,,,,,,,,,,,,,,,,,,,,,,,,,,,,,,,,,,,,,,,,,,,,,,,,,,,,,,,,,,,,,,,,,,,,,,,,1.7206790198882422,0.6794621999142691,162.10917049995624,None,ScrollUp,정답입니다,162.10917049995624,None,162.10917049995624,None,162.10917049995624,None,162.10917049995624,None,162.70026730000973,None,162.70026730000973,163.20032099995296,,,,,,,,,,,,,,,,210,2023-04-25_19h23.26.637,FishGame,2022.1.1,60.1362688006056,
,31,넌 익살스러워,3,Green,A,4.708333333333334,4.833333333333333,ScrollDown,ScrollUp,Green.png,1,Neutral,Neutral,,,,,0,0,0,0,,,,,,,,,,,,,0,30,30,30,,,,,,,,,,,,,,,,,,,,,,,,,,,,,,,,,,,,,,,,,,,,,,,,,,,,,,,,,,,,,,,,,,,,,,,,,,,,,,,,,1,0.7131088000023738,163.80938660004176,None,ScrollDown,정답입니다,163.80938660004176,None,163.80938660004176,None,163.80938660004176,None,163.80938660004176,None,164.4335912000388,None,164.4335912000388,164.93357809993904,,,,,,,,,,,,,,,,210,2023-04-25_19h23.26.637,FishGame,2022.1.1,60.1362688006056,
,32,넌 이기적이야,5,Orange,B,2.291666666666667,2.333333333333333,ScrollUp,ScrollDown,Orange.png,1,Negative,Congruent,,,,,0,0,0,0,,,,,,,,,,,,,0,31,31,31,,,,,,,,,,,,,,,,,,,,,,,,,,,,,,,,,,,,,,,,,,,,,,,,,,,,,,,,,,,,,,,,,,,,,,,,,,,,,,,,,1.8981481492519379,0.7292531999992207,165.54055260005407,None,ScrollUp,정답입니다,165.54055260005407,None,165.54055260005407,None,165.54055260005407,None,165.54055260005407,None,166.18358690000605,None,166.18358690000605,166.68352109997068,,,,,,,,,,,,,,,,210,2023-04-25_19h23.26.637,FishGame,2022.1.1,60.1362688006056,
,33,나를 데려가줘,6,Orange,B,0,0,ScrollDown,ScrollUp,Orange.png,1,NonTarget,NonTarget,,,,,0,0,0,0,,,,,,,,,,,,,0,32,32,32,,,,,,,,,,,,,,,,,,,,,,,,,,,,,,,,,,,,,,,,,,,,,,,,,,,,,,,,,,,,,,,,,,,,,,,,,,,,,,,,,1.0354938507080078,0.9982135999016464,167.29036019998603,None,ScrollDown,정답입니다,167.29036019998603,None,167.29036019998603,None,167.29036019998603,None,167.29036019998603,None,168.20018419995904,None,168.20018419995904,168.70017900003586,,,,,,,,,,,,,,,,210,2023-04-25_19h23.26.637,FishGame,2022.1.1,60.1362688006056,
,34,넌 기회주의자야,5,Green,A,2.875,2.133333333333333,ScrollDown,ScrollUp,Green.png,1,Negative,Incongruent,,,,,0,0,0,0,,,,,,,,,,,,,0,33,33,33,,,,,,,,,,,,,,,,,,,,,,,,,,,,,,,,,,,,,,,,,,,,,,,,,,,,,,,,,,,,,,,,,,,,,,,,,,,,,,,,,1,0.6815067999996245,169.30886859993916,None,ScrollDown,정답입니다,169.30886859993916,None,169.30886859993916,None,169.30886859993916,None,169.30886859993916,None,169.90021899994463,None,169.90021899994463,170.40020419994835,,,,,,,,,,,,,,,,210,2023-04-25_19h23.26.637,FishGame,2022.1.1,60.1362688006056,
,1,넌 미성숙해,4,Green,A,3,3.2,ScrollDown,ScrollUp,Green.png,2,Negative,Incongruent,,,,,0,0,0,0,,,,,,,,,,,,,,,,,0,0,0,0,,,,,,,,,,,,,,,,,,,,,,,,,,,,,,,,,,,,202.44946899998467,203.95281549997162,203.96950300002936,204.93306499999017,204.98299329995643,205.93606099998578,205.91939729999285,None,,,,,,,,,,,,,,,,,,,,,,,,,,,,,,,,,,1.0679012437661488,0.7942691000644118,207.01069010002539,None,ScrollDown,정답입니다,207.01069010002539,None,207.01069010002539,None,207.01069010002539,None,207.01069010002539,None,207.7162608000217,None,207.7162608000217,208.21925299998838,170.9001569999382,None,170.9001569999382,None,0.02962963,-0.119444445,1,0,0,0.016116530052386224,None,200.89942389994394,None,,,210,2023-04-25_19h23.26.637,FishGame,2022.1.1,60.1362688006056,
,2,넌 반사회적이야,5,Orange,B,2.416666666666667,2.033333333333333,ScrollUp,ScrollDown,Orange.png,2,Negative,Congruent,,,,,0,0,0,0,,,,,,,,,,,,,,,,,0,1,1,1,,,,,,,,,,,,,,,,,,,,,,,,,,,,,,,,,,,,,,,,,,,,,,,,,,,,,,,,,,,,,,,,,,,,,,,,,,,,,1.9722222189108531,0.7795357999857515,208.8252834000159,None,ScrollUp,정답입니다,208.8252834000159,None,208.8252834000159,None,208.8252834000159,None,208.8252834000159,None,209.51396000001114,None,209.51396000001114,210.01600589998998,,,,,,,,,,,,,,,,210,2023-04-25_19h23.26.637,FishGame,2022.1.1,60.1362688006056,
,3,넌 유능해,2,Green,A,6.208333333333333,4.433333333333334,ScrollDown,ScrollUp,Green.png,2,Positive,Congruent,,,,,0,0,0,0,,,,,,,,,,,,,,,,,0,2,2,2,,,,,,,,,,,,,,,,,,,,,,,,,,,,,,,,,,,,,,,,,,,,,,,,,,,,,,,,,,,,,,,,,,,,,,,,,,,,,1.0555555323759716,0.6628175000660121,210.62412609998137,None,ScrollDown,정답입니다,210.62412609998137,None,210.62412609998137,None,210.62412609998137,None,210.62412609998137,None,211.1973703999538,None,211.1973703999538,211.69934639998246,,,,,,,,,,,,,,,,210,2023-04-25_19h23.26.637,FishGame,2022.1.1,60.1362688006056,
,4,넌 능숙해,2,Orange,B,5.666666666666667,4.733333333333333,ScrollUp,ScrollDown,Orange.png,2,Positive,Incongruent,,,,,0,0,0,0,,,,,,,,,,,,,,,,,0,3,3,3,,,,,,,,,,,,,,,,,,,,,,,,,,,,,,,,,,,,,,,,,,,,,,,,,,,,,,,,,,,,,,,,,,,,,,,,,,,,,1.8811728457609813,0.6477370000211522,212.30609700002242,None,ScrollUp,정답입니다,212.30609700002242,None,212.30609700002242,None,212.30609700002242,None,212.30609700002242,None,212.86391209997237,None,212.86391209997237,213.3659421999473,,,,,,,,,,,,,,,,210,2023-04-25_19h23.26.637,FishGame,2022.1.1,60.1362688006056,
,5,넌 진부해,4,Orange,B,2.458333333333333,3.166666666666667,ScrollUp,ScrollDown,Orange.png,2,Negative,Congruent,,,,,0,0,0,0,,,,,,,,,,,,,,,,,0,4,4,4,,,,,,,,,,,,,,,,,,,,,,,,,,,,,,,,,,,,,,,,,,,,,,,,,,,,,,,,,,,,,,,,,,,,,,,,,,,,,1.7623456716537476,0.647285099956207,213.9757316999603,None,ScrollUp,정답입니다,213.9757316999603,None,213.9757316999603,None,213.9757316999603,None,213.9757316999603,None,214.5325514000142,None,214.5325514000142,215.0325814000098,,,,,,,,,,,,,,,,210,2023-04-25_19h23.26.637,FishGame,2022.1.1,60.1362688006056,
,6,나를 보내줘,6,Green,A,0,0,ScrollUp,ScrollDown,Green.png,2,NonTarget,NonTarget,,,,,0,0,0,0,,,,,,,,,,,,,,,,,0,5,5,5,,,,,,,,,,,,,,,,,,,,,,,,,,,,,,,,,,,,,,,,,,,,,,,,,,,,,,,,,,,,,,,,,,,,,,,,,,,,,1.8703703731298447,0.9320813999511302,215.63652239996009,None,ScrollUp,정답입니다,215.63652239996009,None,215.63652239996009,None,215.63652239996009,None,215.63652239996009,None,216.48252049996518,None,216.48252049996518,216.9825998999877,,,,,,,,,,,,,,,,210,2023-04-25_19h23.26.637,FishGame,2022.1.1,60.1362688006056,
,7,넌 엄격해,3,Green,A,4.166666666666666,4.1,ScrollDown,ScrollUp,Green.png,2,Neutral,Neutral,,,,,0,0,0,0,,,,,,,,,,,,,,,,,0,6,6,6,,,,,,,,,,,,,,,,,,,,,,,,,,,,,,,,,,,,,,,,,,,,,,,,,,,,,,,,,,,,,,,,,,,,,,,,,,,,,1.0570987462997437,0.8259042000863701,217.60076810000464,None,ScrollDown,정답입니다,217.60076810000464,None,217.60076810000464,None,217.60076810000464,None,217.60076810000464,None,218.33022959996015,None,218.33022959996015,218.8302096000407,,,,,,,,,,,,,,,,210,2023-04-25_19h23.26.637,FishGame,2022.1.1,60.1362688006056,
,8,나를 보내줘,6,Green,A,0,0,ScrollUp,ScrollDown,Green.png,2,NonTarget,NonTarget,,,,,0,0,0,0,,,,,,,,,,,,,,,,,0,7,7,7,,,,,,,,,,,,,,,,,,,,,,,,,,,,,,,,,,,,,,,,,,,,,,,,,,,,,,,,,,,,,,,,,,,,,,,,,,,,,1.9614197711149852,0.9674630999797955,219.43234699999448,None,ScrollUp,정답입니다,219.43234699999448,None,219.43234699999448,None,219.43234699999448,None,219.43234699999448,None,220.31608010001946,None,220.31608010001946,220.8160373000428,,,,,,,,,,,,,,,,210,2023-04-25_19h23.26.637,FishGame,2022.1.1,60.1362688006056,
,9,넌 대담해,3,Orange,B,4.875,4.866666666666666,ScrollUp,ScrollDown,Orange.png,2,Neutral,Neutral,,,,,0,0,0,0,,,,,,,,,,,,,,,,,0,8,8,8,,,,,,,,,,,,,,,,,,,,,,,,,,,,,,,,,,,,,,,,,,,,,,,,,,,,,,,,,,,,,,,,,,,,,,,,,,,,,1.8966049353281658,0.7484942999435589,221.42676639999263,None,ScrollUp,정답입니다,221.42676639999263,None,221.42676639999263,None,221.42676639999263,None,221.42676639999263,None,222.0825522999512,None,222.0825522999512,222.58258759998716,,,,,,,,,,,,,,,,210,2023-04-25_19h23.26.637,FishGame,2022.1.1,60.1362688006056,
,10,넌 꾸준해,1,Green,A,5.916666666666668,5.8,ScrollDown,ScrollUp,Green.png,2,Positive,Congruent,,,,,0,0,0,0,,,,,,,,,,,,,,,,,0,9,9,9,,,,,,,,,,,,,,,,,,,,,,,,,,,,,,,,,,,,,,,,,,,,,,,,,,,,,,,,,,,,,,,,,,,,,,,,,,,,,1,1.0591987000079826,223.20016540004872,None,ScrollDown,정답입니다,223.20016540004872,None,223.20016540004872,None,223.20016540004872,None,223.20016540004872,None,224.16344010003377,None,224.16344010003377,224.66342720005196,,,,,,,,,,,,,,,,210,2023-04-25_19h23.26.637,FishGame,2022.1.1,60.1362688006056,
,11,나를 데려가줘,6,Orange,B,0,0,ScrollDown,ScrollUp,Orange.png,2,NonTarget,NonTarget,,,,,0,0,0,0,,,,,,,,,,,,,,,,,0,10,10,10,,,,,,,,,,,,,,,,,,,,,,,,,,,,,,,,,,,,,,,,,,,,,,,,,,,,,,,,,,,,,,,,,,,,,,,,,,,,,1,0.8839941000333056,225.2708646999672,None,ScrollDown,정답입니다,225.2708646999672,None,225.2708646999672,None,225.2708646999672,None,225.2708646999672,None,226.0659521999769,None,226.0659521999769,226.56582729995716,,,,,,,,,,,,,,,,210,2023-04-25_19h23.26.637,FishGame,2022.1.1,60.1362688006056,
,12,넌 독선적이야,5,Green,A,2.458333333333333,1.933333333333333,ScrollDown,ScrollUp,Green.png,2,Negative,Incongruent,,,,,0,0,0,0,,,,,,,,,,,,,,,,,0,11,11,11,,,,,,,,,,,,,,,,,,,,,,,,,,,,,,,,,,,,,,,,,,,,,,,,,,,,,,,,,,,,,,,,,,,,,,,,,,,,,1,0.6817830998916179,227.17484160000458,None,ScrollDown,정답입니다,227.17484160000458,None,227.17484160000458,None,227.17484160000458,None,227.17484160000458,None,227.765907999943,None,227.765907999943,228.26580860000104,,,,,,,,,,,,,,,,210,2023-04-25_19h23.26.637,FishGame,2022.1.1,60.1362688006056,
,13,나를 보내줘,6,Green,A,0,0,ScrollUp,ScrollDown,Green.png,2,NonTarget,NonTarget,,,,,0,0,0,0,,,,,,,,,,,,,,,,,0,12,12,12,,,,,,,,,,,,,,,,,,,,,,,,,,,,,,,,,,,,,,,,,,,,,,,,,,,,,,,,,,,,,,,,,,,,,,,,,,,,,1.8549382835626602,0.8150478999596089,228.86992289999034,None,ScrollUp,정답입니다,228.86992289999034,None,228.86992289999034,None,228.86992289999034,None,228.86992289999034,None,229.59696300001815,None,229.59696300001815,230.09898410004098,,,,,,,,,,,,,,,,210,2023-04-25_19h23.26.637,FishGame,2022.1.1,60.1362688006056,
,14,넌 책임감있어,1,Orange,B,6.347826086956522,6,ScrollUp,ScrollDown,Orange.png,2,Positive,Incongruent,,,,,0,0,0,0,,,,,,,,,,,,,,,,,0,13,13,13,,,,,,,,,,,,,,,,,,,,,,,,,,,,,,,,,,,,,,,,,,,,,,,,,,,,,,,,,,,,,,,,,,,,,,,,,,,,,1.5771604912976422,0.8599874000065029,230.7133909999393,None,ScrollUp,정답입니다,230.7133909999393,None,230.7133909999393,None,230.7133909999393,None,230.7133909999393,None,231.48261139995884,None,231.48261139995884,231.98228999995627,,,,,,,,,,,,,,,,210,2023-04-25_19h23.26.637,FishGame,2022.1.1,60.1362688006056,
,15,넌 문학적이야,3,Green,A,4.708333333333334,4.333333333333333,ScrollDown,ScrollUp,Green.png,2,Neutral,Neutral,,,,,0,0,0,0,,,,,,,,,,,,,,,,,0,14,14,14,,,,,,,,,,,,,,,,,,,,,,,,,,,,,,,,,,,,,,,,,,,,,,,,,,,,,,,,,,,,,,,,,,,,,,,,,,,,,1.0740740497907002,0.742934700101614,232.59913909994066,None,ScrollDown,정답입니다,232.59913909994066,None,232.59913909994066,None,232.59913909994066,None,232.59913909994066,None,233.24658259993885,None,233.24658259993885,233.74658439995255,,,,,,,,,,,,,,,,210,2023-04-25_19h23.26.637,FishGame,2022.1.1,60.1362688006056,
,16,넌 재미있어,1,Orange,B,5.875,5.7,ScrollUp,ScrollDown,Orange.png,2,Positive,Incongruent,,,,,0,0,0,0,,,,,,,,,,,,,,,,,0,15,15,15,,,,,,,,,,,,,,,,,,,,,,,,,,,,,,,,,,,,,,,,,,,,,,,,,,,,,,,,,,,,,,,,,,,,,,,,,,,,,1.6574074104428291,0.747029299964197,234.3523841999704,None,ScrollUp,정답입니다,234.3523841999704,None,234.3523841999704,None,234.3523841999704,None,234.3523841999704,None,235.01326519995928,None,235.01326519995928,235.515622899984,,,,,,,,,,,,,,,,210,2023-04-25_19h23.26.637,FishGame,2022.1.1,60.1362688006056,
,17,나를 데려가줘,6,Orange,B,0,0,ScrollDown,ScrollUp,Orange.png,2,NonTarget,NonTarget,,,,,0,0,0,0,,,,,,,,,,,,,,,,,0,16,16,16,,,,,,,,,,,,,,,,,,,,,,,,,,,,,,,,,,,,,,,,,,,,,,,,,,,,,,,,,,,,,,,,,,,,,,,,,,,,,1.0509259402751923,0.9650128000648692,236.12366689997725,None,ScrollDown,정답입니다,236.12366689997725,None,236.12366689997725,None,236.12366689997725,None,236.12366689997725,None,236.9990214999998,None,236.9990214999998,237.49894249998033,,,,,,,,,,,,,,,,210,2023-04-25_19h23.26.637,FishGame,2022.1.1,60.1362688006056,
,18,넌 협력적이야,1,Green,A,5.625,5.633333333333334,ScrollDown,ScrollUp,Green.png,2,Positive,Congruent,,,,,0,0,0,0,,,,,,,,,,,,,,,,,0,17,17,17,,,,,,,,,,,,,,,,,,,,,,,,,,,,,,,,,,,,,,,,,,,,,,,,,,,,,,,,,,,,,,,,,,,,,,,,,,,,,1.0246913532416027,0.6627409000648186,238.11099529999774,None,ScrollDown,정답입니다,238.11099529999774,None,238.11099529999774,None,238.11099529999774,None,238.11099529999774,None,238.67983329994604,None,238.67983329994604,239.17978260002565,,,,,,,,,,,,,,,,210,2023-04-25_19h23.26.637,FishGame,2022.1.1,60.1362688006056,
,19,넌 평범해,3,Orange,B,4.333333333333332,4.233333333333333,ScrollUp,ScrollDown,Orange.png,2,Neutral,Neutral,,,,,0,0,0,0,,,,,,,,,,,,,,,,,0,18,18,18,,,,,,,,,,,,,,,,,,,,,,,,,,,,,,,,,,,,,,,,,,,,,,,,,,,,,,,,,,,,,,,,,,,,,,,,,,,,,1.5817901206513247,0.8312275999924168,239.79269539995585,None,ScrollUp,정답입니다,239.79269539995585,None,239.79269539995585,None,239.79269539995585,None,239.79269539995585,None,240.52984920004383,None,240.52984920004383,241.03220939997118,,,,,,,,,,,,,,,,210,2023-04-25_19h23.26.637,FishGame,2022.1.1,60.1362688006056,
,20,넌 오만해,5,Green,A,2.333333333333333,2,ScrollDown,ScrollUp,Green.png,2,Negative,Incongruent,,,,,0,0,0,0,,,,,,,,,,,,,,,,,0,19,19,19,,,,,,,,,,,,,,,,,,,,,,,,,,,,,,,,,,,,,,,,,,,,,,,,,,,,,,,,,,,,,,,,,,,,,,,,,,,,,1.0385802288850148,0.7150066000176594,241.63947900000494,None,ScrollDown,정답입니다,241.63947900000494,None,241.63947900000494,None,241.63947900000494,None,241.63947900000494,None,242.2656226999825,None,242.2656226999825,242.76550400000997,,,,,,,,,,,,,,,,210,2023-04-25_19h23.26.637,FishGame,2022.1.1,60.1362688006056,
,21,넌 운이없어,4,Orange,B,3,3.466666666666667,ScrollUp,ScrollDown,Orange.png,2,Negative,Congruent,,,,,0,0,0,0,,,,,,,,,,,,,,,,,0,20,20,20,,,,,,,,,,,,,,,,,,,,,,,,,,,,,,,,,,,,,,,,,,,,,,,,,,,,,,,,,,,,,,,,,,,,,,,,,,,,,1.5524691368142762,0.6796731000067666,243.3746721999487,None,ScrollUp,정답입니다,243.3746721999487,None,243.3746721999487,None,243.3746721999487,None,243.3746721999487,None,243.9653312000446,None,243.9653312000446,244.46534150000662,,,,,,,,,,,,,,,,210,2023-04-25_19h23.26.637,FishGame,2022.1.1,60.1362688006056,
,22,넌 창조적이야,2,Orange,B,6.125,4.633333333333334,ScrollUp,ScrollDown,Orange.png,2,Positive,Incongruent,,,,,0,0,0,0,,,,,,,,,,,,,,,,,0,21,21,21,,,,,,,,,,,,,,,,,,,,,,,,,,,,,,,,,,,,,,,,,,,,,,,,,,,,,,,,,,,,,,,,,,,,,,,,,,,,,1.7592592686414719,0.6817619999637827,245.07633950002491,None,ScrollUp,정답입니다,245.07633950002491,None,245.07633950002491,None,245.07633950002491,None,245.07633950002491,None,245.6653263999615,None,245.6653263999615,246.1632637999719,,,,,,,,,,,,,,,,210,2023-04-25_19h23.26.637,FishGame,2022.1.1,60.1362688006056,
,23,나를 보내줘,6,Green,A,0,0,ScrollUp,ScrollDown,Green.png,2,NonTarget,NonTarget,,,,,0,0,0,0,,,,,,,,,,,,,,,,,0,22,22,22,,,,,,,,,,,,,,,,,,,,,,,,,,,,,,,,,,,,,,,,,,,,,,,,,,,,,,,,,,,,,,,,,,,,,,,,,,,,,1.6728395000100136,0.8795125999022275,246.7693287000293,None,ScrollUp,정답입니다,246.7693287000293,None,246.7693287000293,None,246.7693287000293,None,246.7693287000293,None,247.5652509999927,None,247.5652509999927,248.0652547000209,,,,,,,,,,,,,,,,210,2023-04-25_19h23.26.637,FishGame,2022.1.1,60.1362688006056,
,24,넌 통찰력있어,2,Green,A,6.5,4.8,ScrollDown,ScrollUp,Green.png,2,Positive,Congruent,,,,,0,0,0,0,,,,,,,,,,,,,,,,,0,23,23,23,,,,,,,,,,,,,,,,,,,,,,,,,,,,,,,,,,,,,,,,,,,,,,,,,,,,,,,,,,,,,,,,,,,,,,,,,,,,,1.0663580298423767,0.731754699954763,248.67352199996822,None,ScrollDown,정답입니다,248.67352199996822,None,248.67352199996822,None,248.67352199996822,None,248.67352199996822,None,249.3132397000445,None,249.3132397000445,249.81529459997546,,,,,,,,,,,,,,,,210,2023-04-25_19h23.26.637,FishGame,2022.1.1,60.1362688006056,
,25,넌 경솔해,5,Orange,B,2.458333333333333,2.266666666666667,ScrollUp,ScrollDown,Orange.png,2,Negative,Congruent,,,,,0,0,0,0,,,,,,,,,,,,,,,,,0,24,24,24,,,,,,,,,,,,,,,,,,,,,,,,,,,,,,,,,,,,,,,,,,,,,,,,,,,,,,,,,,,,,,,,,,,,,,,,,,,,,1.501543209849236,0.6148547000484541,250.4292219999479,None,NoResponse,무응답입니다,250.4292219999479,None,250.4292219999479,None,250.4292219999479,None,250.4292219999479,None,250.94651379995048,None,250.94651379995048,251.44851210003253,,,,,,,,,,,,,,,,210,2023-04-25_19h23.26.637,FishGame,2022.1.1,60.1362688006056,
,26,넌 초조해,4,Green,A,2.916666666666667,3.133333333333333,ScrollDown,ScrollUp,Green.png,2,Negative,Incongruent,,,,,0,0,0,0,,,,,,,,,,,,,,,,,0,25,25,25,,,,,,,,,,,,,,,,,,,,,,,,,,,,,,,,,,,,,,,,,,,,,,,,,,,,,,,,,,,,,,,,,,,,,,,,,,,,,1.0787036915620167,0.8627535999985412,252.05425899999682,None,ScrollDown,정답입니다,252.05425899999682,None,252.05425899999682,None,252.05425899999682,None,252.05425899999682,None,252.83184710005298,None,252.83184710005298,253.3318335999502,,,,,,,,,,,,,,,,210,2023-04-25_19h23.26.637,FishGame,2022.1.1,60.1362688006056,
,27,넌 무관심해,4,Orange,B,2.833333333333333,2.9,ScrollUp,ScrollDown,Orange.png,2,Negative,Congruent,,,,,0,0,0,0,,,,,,,,,,,,,,,,,0,26,26,26,,,,,,,,,,,,,,,,,,,,,,,,,,,,,,,,,,,,,,,,,,,,,,,,,,,,,,,,,,,,,,,,,,,,,,,,,,,,,1.8456790000200272,0.8151385000674054,253.9408768999856,None,ScrollUp,정답입니다,253.9408768999856,None,253.9408768999856,None,253.9408768999856,None,253.9408768999856,None,254.66523050004616,None,254.66523050004616,255.1651939000003,,,,,,,,,,,,,,,,210,2023-04-25_19h23.26.637,FishGame,2022.1.1,60.1362688006056,
,28,넌 감성적이야,3,Orange,B,4.125,4.166666666666667,ScrollUp,ScrollDown,Orange.png,2,Neutral,Neutral,,,,,0,0,0,0,,,,,,,,,,,,,,,,,0,27,27,27,,,,,,,,,,,,,,,,,,,,,,,,,,,,,,,,,,,,,,,,,,,,,,,,,,,,,,,,,,,,,,,,,,,,,,,,,,,,,1.8240740795930226,0.7297178000444546,255.77232350001577,None,ScrollUp,정답입니다,255.77232350001577,None,255.77232350001577,None,255.77232350001577,None,255.77232350001577,None,256.4151210000273,None,256.4151210000273,256.91506649996154,,,,,,,,,,,,,,,,210,2023-04-25_19h23.26.637,FishGame,2022.1.1,60.1362688006056,
,29,넌 배려심있어,1,Green,A,6.083333333333333,5.5,ScrollDown,ScrollUp,Green.png,2,Positive,Congruent,,,,,0,0,0,0,,,,,,,,,,,,,,,,,0,28,28,28,,,,,,,,,,,,,,,,,,,,,,,,,,,,,,,,,,,,,,,,,,,,,,,,,,,,,,,,,,,,,,,,,,,,,,,,,,,,,1.1527777860562007,0.7461296999827027,257.52186350000557,None,ScrollDown,정답입니다,257.52186350000557,None,257.52186350000557,None,257.52186350000557,None,257.52186350000557,None,258.17973390000407,None,258.17973390000407,258.68177989998367,,,,,,,,,,,,,,,,210,2023-04-25_19h23.26.637,FishGame,2022.1.1,60.1362688006056,
,30,넌 숨김없어,3,Green,A,4.5,4.933333333333334,ScrollDown,ScrollUp,Green.png,2,Neutral,Neutral,,,,,0,0,0,0,,,,,,,,,,,,,,,,,0,29,29,29,,,,,,,,,,,,,,,,,,,,,,,,,,,,,,,,,,,,,,,,,,,,,,,,,,,,,,,,,,,,,,,,,,,,,,,,,,,,,1.0817901194095612,0.7295331999193877,259.29021030000877,None,ScrollDown,정답입니다,259.29021030000877,None,259.29021030000877,None,259.29021030000877,None,259.29021030000877,None,259.9317553000292,None,259.9317553000292,260.4316113999812,,,,,,,,,,,,,,,,210,2023-04-25_19h23.26.637,FishGame,2022.1.1,60.1362688006056,
,31,넌 훌륭해,2,Orange,B,5.916666666666667,4.033333333333333,ScrollUp,ScrollDown,Orange.png,2,Positive,Incongruent,,,,,0,0,0,0,,,,,,,,,,,,,,,,,0,30,30,30,,,,,,,,,,,,,,,,,,,,,,,,,,,,,,,,,,,,,,,,,,,,,,,,,,,,,,,,,,,,,,,,,,,,,,,,,,,,,1.6450617238879204,0.7127229999750853,261.0420021000318,None,ScrollUp,정답입니다,261.0420021000318,None,261.0420021000318,None,261.0420021000318,None,261.0420021000318,None,261.6650851999875,None,261.6650851999875,262.16496530000586,,,,,,,,,,,,,,,,210,2023-04-25_19h23.26.637,FishGame,2022.1.1,60.1362688006056,
,32,넌 슬기로워,2,Green,A,6.166666666666667,4.1,ScrollDown,ScrollUp,Green.png,2,Positive,Congruent,,,,,0,0,0,0,,,,,,,,,,,,,,,,,0,31,31,31,,,,,,,,,,,,,,,,,,,,,,,,,,,,,,,,,,,,,,,,,,,,,,,,,,,,,,,,,,,,,,,,,,,,,,,,,,,,,1.2608024626970291,0.8628625000128523,262.7713941000402,None,ScrollDown,정답입니다,262.7713941000402,None,262.7713941000402,None,262.7713941000402,None,262.7713941000402,None,263.5483629000373,None,263.5483629000373,264.0483220999595,,,,,,,,,,,,,,,,210,2023-04-25_19h23.26.637,FishGame,2022.1.1,60.1362688006056,
,33,넌 냉혹해,5,Green,A,2.583333333333333,2.1,ScrollDown,ScrollUp,Green.png,2,Negative,Incongruent,,,,,0,0,0,0,,,,,,,,,,,,,,,,,0,32,32,32,,,,,,,,,,,,,,,,,,,,,,,,,,,,,,,,,,,,,,,,,,,,,,,,,,,,,,,,,,,,,,,,,,,,,,,,,,,,,1.0262345671653748,0.696392499958165,264.6561409999849,None,ScrollDown,정답입니다,264.6561409999849,None,264.6561409999849,None,264.6561409999849,None,264.6561409999849,None,265.2648930000141,None,265.2648930000141,265.7648959000362,,,,,,,,,,,,,,,,210,2023-04-25_19h23.26.637,FishGame,2022.1.1,60.1362688006056,
,34,나를 데려가줘,6,Orange,B,0,0,ScrollDown,ScrollUp,Orange.png,2,NonTarget,NonTarget,,,,,0,0,0,0,,,,,,,,,,,,,,,,,0,33,33,33,,,,,,,,,,,,,,,,,,,,,,,,,,,,,,,,,,,,,,,,,,,,,,,,,,,,,,,,,,,,,,,,,,,,,,,,,,,,,1,0.8985469000181183,266.37155439995695,None,ScrollDown,정답입니다,266.37155439995695,None,266.37155439995695,None,266.37155439995695,None,266.37155439995695,None,267.18156029994134,None,267.18156029994134,267.6815647999756,,,,,,,,,,,,,,,,210,2023-04-25_19h23.26.637,FishGame,2022.1.1,60.1362688006056,
,35,넌 편파적이야,5,Orange,B,2.125,2,ScrollUp,ScrollDown,Orange.png,2,Negative,Congruent,,,,,0,0,0,0,,,,,,,,,,,,,,,,,0,34,34,34,,,,,,,,,,,,,,,,,,,,,,,,,,,,,,,,,,,,,,,,,,,,,,,,,,,,,,,,,,,,,,,,,,,,,,,,,,,,,1.839506169160207,0.7127625000430271,268.29366750002373,None,ScrollUp,정답입니다,268.29366750002373,None,268.29366750002373,None,268.29366750002373,None,268.29366750002373,None,268.91491489997134,None,268.91491489997134,269.41489799995907,,,,,,,,,,,,,,,,210,2023-04-25_19h23.26.637,FishGame,2022.1.1,60.1362688006056,
,36,넌 슬퍼,4,Green,A,2.583333333333333,3.066666666666667,ScrollDown,ScrollUp,Green.png,2,Negative,Incongruent,,,,,0,0,0,0,,,,,,,,,,,,,,,,,0,35,35,35,,,,,,,,,,,,,,,,,,,,,,,,,,,,,,,,,,,,,,,,,,,,,,,,,,,,,,,,,,,,,,,,,,,,,,,,,,,,,1.0833333333333333,0.8118413999909535,270.0216495000059,None,ScrollDown,정답입니다,270.0216495000059,None,270.0216495000059,None,270.0216495000059,None,270.0216495000059,None,270.74816730001476,None,270.74816730001476,271.24816109996755,,,,,,,,,,,,,,,,210,2023-04-25_19h23.26.637,FishGame,2022.1.1,60.1362688006056,
,37,나를 데려가줘,6,Orange,B,0,0,ScrollDown,ScrollUp,Orange.png,2,NonTarget,NonTarget,,,,,0,0,0,0,,,,,,,,,,,,,,,,,0,36,36,36,,,,,,,,,,,,,,,,,,,,,,,,,,,,,,,,,,,,,,,,,,,,,,,,,,,,,,,,,,,,,,,,,,,,,,,,,,,,,1,0.8650225000455976,271.8551791999489,None,ScrollDown,정답입니다,271.8551791999489,None,271.8551791999489,None,271.8551791999489,None,271.8551791999489,None,272.6314997000154,None,272.6314997000154,273.13149209995754,,,,,,,,,,,,,,,,210,2023-04-25_19h23.26.637,FishGame,2022.1.1,60.1362688006056,
,38,넌 친절해,1,Orange,B,6.041666666666667,5.533333333333333,ScrollUp,ScrollDown,Orange.png,2,Positive,Incongruent,,,,,0,0,0,0,,,,,,,,,,,,,,,,,0,37,37,37,,,,,,,,,,,,,,,,,,,,,,,,,,,,,,,,,,,,,,,,,,,,,,,,,,,,,,,,,,,,,,,,,,,,,,,,,,,,,1.7808641890684764,0.6792836000677198,273.74226139998063,None,ScrollUp,정답입니다,273.74226139998063,None,273.74226139998063,None,273.74226139998063,None,273.74226139998063,None,274.3291158999782,None,274.3291158999782,274.82917070004623,,,,,,,,,,,,,,,,210,2023-04-25_19h23.26.637,FishGame,2022.1.1,60.1362688006056,
,1,넌 엉성해,4,Green,A,3,3.3,ScrollDown,ScrollUp,Green.png,3,Negative,Incongruent,,,,,0,0,0,0,,,,,,,,,,,,,,,,,,,,,0,0,0,0,,,,,,,,,,,,,,,,,,,,,,,,,,,,,,,,307.86407310003415,309.36432709998917,309.3976189000532,310.3475735000102,310.39754889998585,311.34752960002515,311.34752960002515,None,,,,,,,,,,,,,,,,,,,,,,,,,,,,,,,,,,1,0.8209554000059143,312.42987490003,None,ScrollDown,정답입니다,312.42987490003,None,312.42987490003,None,312.42987490003,None,312.42987490003,None,313.16409159998875,None,313.16409159998875,313.66715979995206,275.32909430004656,None,275.32909430004656,None,0.17314816,-0.11111111,1,0,0,0.016134230070747435,None,305.33074500004295,None,,,210,2023-04-25_19h23.26.637,FishGame,2022.1.1,60.1362688006056,
,2,나를 보내줘,6,Green,A,0,0,ScrollUp,ScrollDown,Green.png,3,NonTarget,NonTarget,,,,,0,0,0,0,,,,,,,,,,,,,,,,,,,,,0,1,1,1,,,,,,,,,,,,,,,,,,,,,,,,,,,,,,,,,,,,,,,,,,,,,,,,,,,,,,,,,,,,,,,,,,,,,,,,,1.9552469154198964,1.0292452999856323,314.2681320999982,None,ScrollUp,정답입니다,314.2681320999982,None,314.2681320999982,None,314.2681320999982,None,314.2681320999982,None,315.2118796999566,None,315.2118796999566,315.7139382000314,,,,,,,,,,,,,,,,210,2023-04-25_19h23.26.637,FishGame,2022.1.1,60.1362688006056,
,3,넌 활발해,1,Orange,B,5.666666666666667,5.6,ScrollUp,ScrollDown,Orange.png,3,Positive,Incongruent,,,,,0,0,0,0,,,,,,,,,,,,,,,,,,,,,0,2,2,2,,,,,,,,,,,,,,,,,,,,,,,,,,,,,,,,,,,,,,,,,,,,,,,,,,,,,,,,,,,,,,,,,,,,,,,,,1.8904321044683456,0.8462167999241501,316.3237931999611,None,ScrollUp,정답입니다,316.3237931999611,None,316.3237931999611,None,316.3237931999611,None,316.3237931999611,None,317.08060939994175,None,317.08060939994175,317.5806320999982,,,,,,,,,,,,,,,,210,2023-04-25_19h23.26.637,FishGame,2022.1.1,60.1362688006056,
,4,넌 논리적이야,2,Green,A,5.666666666666666,4.633333333333334,ScrollDown,ScrollUp,Green.png,3,Positive,Congruent,,,,,0,0,0,0,,,,,,,,,,,,,,,,,,,,,0,3,3,3,,,,,,,,,,,,,,,,,,,,,,,,,,,,,,,,,,,,,,,,,,,,,,,,,,,,,,,,,,,,,,,,,,,,,,,,,1,0.7963358999695629,318.18743960000575,None,ScrollDown,정답입니다,318.18743960000575,None,318.18743960000575,None,318.18743960000575,None,318.18743960000575,None,318.8972071999451,None,318.8972071999451,319.41386630001944,,,,,,,,,,,,,,,,210,2023-04-25_19h23.26.637,FishGame,2022.1.1,60.1362688006056,
,5,넌 과묵해,3,Green,A,3.875,4.4,ScrollDown,ScrollUp,Green.png,3,Neutral,Neutral,,,,,0,0,0,0,,,,,,,,,,,,,,,,,,,,,0,4,4,4,,,,,,,,,,,,,,,,,,,,,,,,,,,,,,,,,,,,,,,,,,,,,,,,,,,,,,,,,,,,,,,,,,,,,,,,,1.09413580596447,0.6799217000370845,320.0037129999837,None,ScrollDown,정답입니다,320.0037129999837,None,320.0037129999837,None,320.0037129999837,None,320.0037129999837,None,320.59713919996284,None,320.59713919996284,321.09717409999575,,,,,,,,,,,,,,,,210,2023-04-25_19h23.26.637,FishGame,2022.1.1,60.1362688006056,
,6,나를 데려가줘,6,Orange,B,0,0,ScrollDown,ScrollUp,Orange.png,3,NonTarget,NonTarget,,,,,0,0,0,0,,,,,,,,,,,,,,,,,,,,,0,5,5,5,,,,,,,,,,,,,,,,,,,,,,,,,,,,,,,,,,,,,,,,,,,,,,,,,,,,,,,,,,,,,,,,,,,,,,,,,1,0.9296520000789315,321.70439109997824,None,ScrollDown,정답입니다,321.70439109997824,None,321.70439109997824,None,321.70439109997824,None,321.70439109997824,None,322.5452730000252,None,322.5452730000252,323.0471923999721,,,,,,,,,,,,,,,,210,2023-04-25_19h23.26.637,FishGame,2022.1.1,60.1362688006056,
,7,넌 미숙해,4,Orange,B,3,3,ScrollUp,ScrollDown,Orange.png,3,Negative,Congruent,,,,,0,0,0,0,,,,,,,,,,,,,,,,,,,,,0,6,6,6,,,,,,,,,,,,,,,,,,,,,,,,,,,,,,,,,,,,,,,,,,,,,,,,,,,,,,,,,,,,,,,,,,,,,,,,,1.8765432039896648,0.744328900007531,323.66302620002534,None,ScrollUp,정답입니다,323.66302620002534,None,323.66302620002534,None,323.66302620002534,None,323.66302620002534,None,324.3114569999743,None,324.3114569999743,324.81152190000284,,,,,,,,,,,,,,,,210,2023-04-25_19h23.26.637,FishGame,2022.1.1,60.1362688006056,
,8,나를 보내줘,6,Green,A,0,0,ScrollUp,ScrollDown,Green.png,3,NonTarget,NonTarget,,,,,0,0,0,0,,,,,,,,,,,,,,,,,,,,,0,7,7,7,,,,,,,,,,,,,,,,,,,,,,,,,,,,,,,,,,,,,,,,,,,,,,,,,,,,,,,,,,,,,,,,,,,,,,,,,1.9182098805904388,0.9314426999771968,325.41406780004036,None,ScrollUp,정답입니다,325.41406780004036,None,325.41406780004036,None,325.41406780004036,None,325.41406780004036,None,326.26146609999705,None,326.26146609999705,326.7638645999832,,,,,,,,,,,,,,,,210,2023-04-25_19h23.26.637,FishGame,2022.1.1,60.1362688006056,
,9,넌 자신만만해,3,Orange,B,4.833333333333334,4.333333333333333,ScrollUp,ScrollDown,Orange.png,3,Neutral,Neutral,,,,,0,0,0,0,,,,,,,,,,,,,,,,,,,,,0,8,8,8,,,,,,,,,,,,,,,,,,,,,,,,,,,,,,,,,,,,,,,,,,,,,,,,,,,,,,,,,,,,,,,,,,,,,,,,,2,0.8982669999822974,327.37084280001,None,ScrollUp,정답입니다,327.37084280001,None,327.37084280001,None,327.37084280001,None,327.37084280001,None,328.18059829995036,None,328.18059829995036,328.68047459993977,,,,,,,,,,,,,,,,210,2023-04-25_19h23.26.637,FishGame,2022.1.1,60.1362688006056,
,10,넌 탐욕스러워,5,Green,A,2.25,2.1,ScrollDown,ScrollUp,Green.png,3,Negative,Incongruent,,,,,0,0,0,0,,,,,,,,,,,,,,,,,,,,,0,9,9,9,,,,,,,,,,,,,,,,,,,,,,,,,,,,,,,,,,,,,,,,,,,,,,,,,,,,,,,,,,,,,,,,,,,,,,,,,1.0432098706563313,0.7965311000589281,329.2884301999584,None,ScrollDown,정답입니다,329.2884301999584,None,329.2884301999584,None,329.2884301999584,None,329.2884301999584,None,329.9970123999519,None,329.9970123999519,330.49696759996004,,,,,,,,,,,,,,,,210,2023-04-25_19h23.26.637,FishGame,2022.1.1,60.1362688006056,
,11,넌 인기있어,2,Green,A,5.458333333333333,4.5,ScrollDown,ScrollUp,Green.png,3,Positive,Congruent,,,,,0,0,0,0,,,,,,,,,,,,,,,,,,,,,0,10,10,10,,,,,,,,,,,,,,,,,,,,,,,,,,,,,,,,,,,,,,,,,,,,,,,,,,,,,,,,,,,,,,,,,,,,,,,,,1.0864197611808777,0.7483322999905795,331.10114349995274,None,ScrollDown,정답입니다,331.10114349995274,None,331.10114349995274,None,331.10114349995274,None,331.10114349995274,None,331.7636268000351,None,331.7636268000351,332.26357860001735,,,,,,,,,,,,,,,,210,2023-04-25_19h23.26.637,FishGame,2022.1.1,60.1362688006056,
,12,나를 데려가줘,6,Orange,B,0,0,ScrollDown,ScrollUp,Orange.png,3,NonTarget,NonTarget,,,,,0,0,0,0,,,,,,,,,,,,,,,,,,,,,0,11,11,11,,,,,,,,,,,,,,,,,,,,,,,,,,,,,,,,,,,,,,,,,,,,,,,,,,,,,,,,,,,,,,,,,,,,,,,,,1,0.8981375000439584,332.86989910004195,None,ScrollDown,정답입니다,332.86989910004195,None,332.86989910004195,None,332.86989910004195,None,332.86989910004195,None,333.67818829999305,None,333.67818829999305,334.178057000041,,,,,,,,,,,,,,,,210,2023-04-25_19h23.26.637,FishGame,2022.1.1,60.1362688006056,
,13,넌 뛰어나,2,Orange,B,6.166666666666667,4,ScrollUp,ScrollDown,Orange.png,3,Positive,Incongruent,,,,,0,0,0,0,,,,,,,,,,,,,,,,,,,,,0,12,12,12,,,,,,,,,,,,,,,,,,,,,,,,,,,,,,,,,,,,,,,,,,,,,,,,,,,,,,,,,,,,,,,,,,,,,,,,,1.8148148208856583,0.7462699000025168,334.7893865000224,None,ScrollUp,정답입니다,334.7893865000224,None,334.7893865000224,None,334.7893865000224,None,334.7893865000224,None,335.446908300044,None,335.446908300044,335.94692320004106,,,,,,,,,,,,,,,,210,2023-04-25_19h23.26.637,FishGame,2022.1.1,60.1362688006056,
,14,넌 낙관적이야,1,Green,A,5.75,5.8,ScrollDown,ScrollUp,Green.png,3,Positive,Congruent,,,,,0,0,0,0,,,,,,,,,,,,,,,,,,,,,0,13,13,13,,,,,,,,,,,,,,,,,,,,,,,,,,,,,,,,,,,,,,,,,,,,,,,,,,,,,,,,,,,,,,,,,,,,,,,,,1,0.7963700999971479,336.5545445999596,None,ScrollDown,정답입니다,336.5545445999596,None,336.5545445999596,None,336.5545445999596,None,336.5545445999596,None,337.2635472000111,None,337.2635472000111,337.76348960003816,,,,,,,,,,,,,,,,210,2023-04-25_19h23.26.637,FishGame,2022.1.1,60.1362688006056,
,15,넌 산만해,4,Orange,B,2.695652173913043,3.033333333333333,ScrollUp,ScrollDown,Orange.png,3,Negative,Congruent,,,,,0,0,0,0,,,,,,,,,,,,,,,,,,,,,0,14,14,14,,,,,,,,,,,,,,,,,,,,,,,,,,,,,,,,,,,,,,,,,,,,,,,,,,,,,,,,,,,,,,,,,,,,,,,,,1.7253086368242898,0.7295372999506071,338.3723974999739,None,ScrollUp,정답입니다,338.3723974999739,None,338.3723974999739,None,338.3723974999739,None,338.3723974999739,None,339.01128059998155,None,339.01128059998155,339.513481699978,,,,,,,,,,,,,,,,210,2023-04-25_19h23.26.637,FishGame,2022.1.1,60.1362688006056,
,16,나를 보내줘,6,Green,A,0,0,ScrollUp,ScrollDown,Green.png,3,NonTarget,NonTarget,,,,,0,0,0,0,,,,,,,,,,,,,,,,,,,,,0,15,15,15,,,,,,,,,,,,,,,,,,,,,,,,,,,,,,,,,,,,,,,,,,,,,,,,,,,,,,,,,,,,,,,,,,,,,,,,,1.5679012325902781,0.7461682999273762,340.11783470003866,None,ScrollUp,정답입니다,340.11783470003866,None,340.11783470003866,None,340.11783470003866,None,340.11783470003866,None,340.78023979999125,None,340.78023979999125,341.28019319998566,,,,,,,,,,,,,,,,210,2023-04-25_19h23.26.637,FishGame,2022.1.1,60.1362688006056,
,17,넌 교활해,5,Orange,B,2.333333333333333,2.133333333333333,ScrollUp,ScrollDown,Orange.png,3,Negative,Congruent,,,,,0,0,0,0,,,,,,,,,,,,,,,,,,,,,0,16,16,16,,,,,,,,,,,,,,,,,,,,,,,,,,,,,,,,,,,,,,,,,,,,,,,,,,,,,,,,,,,,,,,,,,,,,,,,,1,0.7627929999725893,341.8879803000018,None,ScrollDown,오답입니다,341.8879803000018,None,341.8879803000018,None,341.8879803000018,None,341.8879803000018,None,342.5613635999616,None,342.5613635999616,343.0633717000019,,,,,,,,,,,,,,,,210,2023-04-25_19h23.26.637,FishGame,2022.1.1,60.1362688006056,
,18,나를 보내줘,6,Green,A,0,0,ScrollUp,ScrollDown,Green.png,3,NonTarget,NonTarget,,,,,0,0,0,0,,,,,,,,,,,,,,,,,,,,,0,17,17,17,,,,,,,,,,,,,,,,,,,,,,,,,,,,,,,,,,,,,,,,,,,,,,,,,,,,,,,,,,,,,,,,,,,,,,,,,1.9212963084379833,0.8985213999403641,343.66897819994483,None,ScrollUp,정답입니다,343.66897819994483,None,343.66897819994483,None,343.66897819994483,None,343.66897819994483,None,344.48011260002386,None,344.48011260002386,344.9800543000456,,,,,,,,,,,,,,,,210,2023-04-25_19h23.26.637,FishGame,2022.1.1,60.1362688006056,
,19,넌 불친절해,5,Orange,B,2.208333333333333,2.033333333333333,ScrollUp,ScrollDown,Orange.png,3,Negative,Congruent,,,,,0,0,0,0,,,,,,,,,,,,,,,,,,,,,0,18,18,18,,,,,,,,,,,,,,,,,,,,,,,,,,,,,,,,,,,,,,,,,,,,,,,,,,,,,,,,,,,,,,,,,,,,,,,,,1.819444437821706,0.8797124000266194,345.6059776999755,None,ScrollUp,정답입니다,345.6059776999755,None,345.6059776999755,None,345.6059776999755,None,345.6059776999755,None,346.3966352000134,None,346.3966352000134,346.8966376000317,,,,,,,,,,,,,,,,210,2023-04-25_19h23.26.637,FishGame,2022.1.1,60.1362688006056,
,20,넌 지적이야,2,Orange,B,5.75,4.366666666666666,ScrollUp,ScrollDown,Orange.png,3,Positive,Incongruent,,,,,0,0,0,0,,,,,,,,,,,,,,,,,,,,,0,19,19,19,,,,,,,,,,,,,,,,,,,,,,,,,,,,,,,,,,,,,,,,,,,,,,,,,,,,,,,,,,,,,,,,,,,,,,,,,1.9953703780968983,0.7652489000465721,347.5032808999531,None,ScrollUp,정답입니다,347.5032808999531,None,347.5032808999531,None,347.5032808999531,None,347.5032808999531,None,348.1779237999581,None,348.1779237999581,348.67993929993827,,,,,,,,,,,,,,,,210,2023-04-25_19h23.26.637,FishGame,2022.1.1,60.1362688006056,
,21,넌 우유부단해,4,Green,A,2.666666666666667,3.166666666666667,ScrollDown,ScrollUp,Green.png,3,Negative,Incongruent,,,,,0,0,0,0,,,,,,,,,,,,,,,,,,,,,0,20,20,20,,,,,,,,,,,,,,,,,,,,,,,,,,,,,,,,,,,,,,,,,,,,,,,,,,,,,,,,,,,,,,,,,,,,,,,,,1,0.7818097999552265,349.28827559994534,None,ScrollDown,정답입니다,349.28827559994534,None,349.28827559994534,None,349.28827559994534,None,349.28827559994534,None,349.98002849996556,None,349.98002849996556,350.4799538999796,,,,,,,,,,,,,,,,210,2023-04-25_19h23.26.637,FishGame,2022.1.1,60.1362688006056,
,22,나를 데려가줘,6,Orange,B,0,0,ScrollDown,ScrollUp,Orange.png,3,NonTarget,NonTarget,,,,,0,0,0,0,,,,,,,,,,,,,,,,,,,,,0,21,21,21,,,,,,,,,,,,,,,,,,,,,,,,,,,,,,,,,,,,,,,,,,,,,,,,,,,,,,,,,,,,,,,,,,,,,,,,,1,0.9794281999347731,351.087270500022,None,ScrollDown,정답입니다,351.087270500022,None,351.087270500022,None,351.087270500022,None,351.087270500022,None,351.9798632999882,None,351.9798632999882,352.4798237000359,,,,,,,,,,,,,,,,210,2023-04-25_19h23.26.637,FishGame,2022.1.1,60.1362688006056,
,23,넌 성실해,1,Orange,B,6.041666666666666,5.7,ScrollUp,ScrollDown,Orange.png,3,Positive,Incongruent,,,,,0,0,0,0,,,,,,,,,,,,,,,,,,,,,0,22,22,22,,,,,,,,,,,,,,,,,,,,,,,,,,,,,,,,,,,,,,,,,,,,,,,,,,,,,,,,,,,,,,,,,,,,,,,,,2,0.8961345999268815,353.086187900044,None,ScrollUp,정답입니다,353.086187900044,None,353.086187900044,None,353.086187900044,None,353.086187900044,None,353.89648560003843,None,353.89648560003843,354.396521299961,,,,,,,,,,,,,,,,210,2023-04-25_19h23.26.637,FishGame,2022.1.1,60.1362688006056,
,24,넌 현실주의적이야,3,Green,A,4.625,4.4,ScrollDown,ScrollUp,Green.png,3,Neutral,Neutral,,,,,0,0,0,0,,,,,,,,,,,,,,,,,,,,,0,23,23,23,,,,,,,,,,,,,,,,,,,,,,,,,,,,,,,,,,,,,,,,,,,,,,,,,,,,,,,,,,,,,,,,,,,,,,,,,1,0.7818033999064937,355.001374399988,None,ScrollDown,정답입니다,355.001374399988,None,355.001374399988,None,355.001374399988,None,355.001374399988,None,355.6945806000149,None,355.6945806000149,356.1965239000274,,,,,,,,,,,,,,,,210,2023-04-25_19h23.26.637,FishGame,2022.1.1,60.1362688006056,
,25,넌 진실돼,1,Green,A,6.625,5.566666666666666,ScrollDown,ScrollUp,Green.png,3,Positive,Congruent,,,,,0,0,0,0,,,,,,,,,,,,,,,,,,,,,0,24,24,24,,,,,,,,,,,,,,,,,,,,,,,,,,,,,,,,,,,,,,,,,,,,,,,,,,,,,,,,,,,,,,,,,,,,,,,,,1.0416666567325592,0.7795921000652015,356.80844849999994,None,ScrollDown,정답입니다,356.80844849999994,None,356.80844849999994,None,356.80844849999994,None,356.80844849999994,None,357.49641030002385,None,357.49641030002385,357.9964107000269,,,,,,,,,,,,,,,,210,2023-04-25_19h23.26.637,FishGame,2022.1.1,60.1362688006056,
,26,넌 천진난만해,3,Orange,B,4.958333333333334,4.833333333333333,ScrollUp,ScrollDown,Orange.png,3,Neutral,Neutral,,,,,0,0,0,0,,,,,,,,,,,,,,,,,,,,,0,25,25,25,,,,,,,,,,,,,,,,,,,,,,,,,,,,,,,,,,,,,,,,,,,,,,,,,,,,,,,,,,,,,,,,,,,,,,,,,1.939814825852712,0.7629681999096647,358.6064892000286,None,ScrollUp,정답입니다,358.6064892000286,None,358.6064892000286,None,358.6064892000286,None,358.6064892000286,None,359.2798796000425,None,359.2798796000425,359.7797225000104,,,,,,,,,,,,,,,,210,2023-04-25_19h23.26.637,FishGame,2022.1.1,60.1362688006056,
,27,넌 교양없어,5,Green,A,2.416666666666667,2.2,ScrollDown,ScrollUp,Green.png,3,Negative,Incongruent,,,,,0,0,0,0,,,,,,,,,,,,,,,,,,,,,0,26,26,26,,,,,,,,,,,,,,,,,,,,,,,,,,,,,,,,,,,,,,,,,,,,,,,,,,,,,,,,,,,,,,,,,,,,,,,,,1,0.7982026999816298,360.38669249997474,None,ScrollDown,정답입니다,360.38669249997474,None,360.38669249997474,None,360.38669249997474,None,360.38669249997474,None,361.09653640002944,None,361.09653640002944,361.5995373999467,,,,,,,,,,,,,,,,210,2023-04-25_19h23.26.637,FishGame,2022.1.1,60.1362688006056,
,28,나를 보내줘,6,Green,A,0,0,ScrollUp,ScrollDown,Green.png,3,NonTarget,NonTarget,,,,,0,0,0,0,,,,,,,,,,,,,,,,,,,,,0,27,27,27,,,,,,,,,,,,,,,,,,,,,,,,,,,,,,,,,,,,,,,,,,,,,,,,,,,,,,,,,,,,,,,,,,,,,,,,,1.9228395223617554,0.8130139000713825,362.20381390000694,None,ScrollUp,정답입니다,362.20381390000694,None,362.20381390000694,None,362.20381390000694,None,362.20381390000694,None,362.92966050002724,None,362.92966050002724,363.4296385999769,,,,,,,,,,,,,,,,210,2023-04-25_19h23.26.637,FishGame,2022.1.1,60.1362688006056,
,29,넌 엉뚱스러워,3,Green,A,4.166666666666667,4.133333333333334,ScrollDown,ScrollUp,Green.png,3,Neutral,Neutral,,,,,0,0,0,0,,,,,,,,,,,,,,,,,,,,,0,28,28,28,,,,,,,,,,,,,,,,,,,,,,,,,,,,,,,,,,,,,,,,,,,,,,,,,,,,,,,,,,,,,,,,,,,,,,,,,1.0015431940555573,0.6798221000935882,364.0365604000399,None,ScrollDown,정답입니다,364.0365604000399,None,364.0365604000399,None,364.0365604000399,None,364.0365604000399,None,364.62975530000404,None,364.62975530000404,365.1297084999969,,,,,,,,,,,,,,,,210,2023-04-25_19h23.26.637,FishGame,2022.1.1,60.1362688006056,
,30,넌 무지해,4,Orange,B,2.541666666666667,3.066666666666667,ScrollUp,ScrollDown,Orange.png,3,Negative,Congruent,,,,,0,0,0,0,,,,,,,,,,,,,,,,,,,,,0,29,29,29,,,,,,,,,,,,,,,,,,,,,,,,,,,,,,,,,,,,,,,,,,,,,,,,,,,,,,,,,,,,,,,,,,,,,,,,,1.5864197500050068,0.6924414000241086,365.7395101999864,None,ScrollUp,정답입니다,365.7395101999864,None,365.7395101999864,None,365.7395101999864,None,365.7395101999864,None,366.3394659999758,None,366.3394659999758,366.84396019997075,,,,,,,,,,,,,,,,210,2023-04-25_19h23.26.637,FishGame,2022.1.1,60.1362688006056,
,31,넌 음울해,5,Orange,B,2.25,2.233333333333333,ScrollUp,ScrollDown,Orange.png,3,Negative,Congruent,,,,,0,0,0,0,,,,,,,,,,,,,,,,,,,,,0,30,30,30,,,,,,,,,,,,,,,,,,,,,,,,,,,,,,,,,,,,,,,,,,,,,,,,,,,,,,,,,,,,,,,,,,,,,,,,,1.9413580397764842,0.7810628999723122,367.45668339997064,None,ScrollUp,정답입니다,367.45668339997064,None,367.45668339997064,None,367.45668339997064,None,367.45668339997064,None,368.1439444000134,None,368.1439444000134,368.6439673999557,,,,,,,,,,,,,,,,210,2023-04-25_19h23.26.637,FishGame,2022.1.1,60.1362688006056,
,32,넌 냉소적이야,5,Green,A,2.916666666666667,2.4,ScrollDown,ScrollUp,Green.png,3,Negative,Incongruent,,,,,0,0,0,0,,,,,,,,,,,,,,,,,,,,,0,31,31,31,,,,,,,,,,,,,,,,,,,,,,,,,,,,,,,,,,,,,,,,,,,,,,,,,,,,,,,,,,,,,,,,,,,,,,,,,1.0138889054457347,0.7505815000040457,369.24850129999686,None,ScrollDown,정답입니다,369.24850129999686,None,369.24850129999686,None,369.24850129999686,None,369.24850129999686,None,369.91305279999506,None,369.91305279999506,370.41297810000833,,,,,,,,,,,,,,,,210,2023-04-25_19h23.26.637,FishGame,2022.1.1,60.1362688006056,
,33,나를 데려가줘,6,Orange,B,0,0,ScrollDown,ScrollUp,Orange.png,3,NonTarget,NonTarget,,,,,0,0,0,0,,,,,,,,,,,,,,,,,,,,,0,32,32,32,,,,,,,,,,,,,,,,,,,,,,,,,,,,,,,,,,,,,,,,,,,,,,,,,,,,,,,,,,,,,,,,,,,,,,,,,1,0.9126707999967039,371.0201637999853,None,ScrollDown,정답입니다,371.0201637999853,None,371.0201637999853,None,371.0201637999853,None,371.0201637999853,None,371.8462144000223,None,371.8462144000223,372.3461933999788,,,,,,,,,,,,,,,,210,2023-04-25_19h23.26.637,FishGame,2022.1.1,60.1362688006056,
,34,넌 쾌활해,1,Green,A,5.541666666666666,5.733333333333333,ScrollDown,ScrollUp,Green.png,3,Positive,Congruent,,,,,0,0,0,0,,,,,,,,,,,,,,,,,,,,,0,33,33,33,,,,,,,,,,,,,,,,,,,,,,,,,,,,,,,,,,,,,,,,,,,,,,,,,,,,,,,,,,,,,,,,,,,,,,,,,1.016975333293279,0.6476690000854433,372.9524969999911,None,ScrollDown,정답입니다,372.9524969999911,None,372.9524969999911,None,372.9524969999911,None,372.9524969999911,None,373.51049689995125,None,373.51049689995125,374.0104801999405,,,,,,,,,,,,,,,,210,2023-04-25_19h23.26.637,FishGame,2022.1.1,60.1362688006056,
,35,나를 보내줘,6,Green,A,0,0,ScrollUp,ScrollDown,Green.png,3,NonTarget,NonTarget,,,,,0,0,0,0,,,,,,,,,,,,,,,,,,,,,0,34,34,34,,,,,,,,,,,,,,,,,,,,,,,,,,,,,,,,,,,,,,,,,,,,,,,,,,,,,,,,,,,,,,,,,,,,,,,,,1.9290123283863068,0.8149648000253364,374.6123449000297,None,ScrollUp,정답입니다,374.6123449000297,None,374.6123449000297,None,374.6123449000297,None,374.6123449000297,None,375.3438289000187,None,375.3438289000187,375.84622349997517,,,,,,,,,,,,,,,,210,2023-04-25_19h23.26.637,FishGame,2022.1.1,60.1362688006056,
,36,넌 명랑해,1,Orange,B,5.739130434782609,5.666666666666667,ScrollUp,ScrollDown,Orange.png,3,Positive,Incongruent,,,,,0,0,0,0,,,,,,,,,,,,,,,,,,,,,0,35,35,35,,,,,,,,,,,,,,,,,,,,,,,,,,,,,,,,,,,,,,,,,,,,,,,,,,,,,,,,,,,,,,,,,,,,,,,,,1.0632716019948323,0.7296852000290528,376.4558258999605,None,ScrollDown,오답입니다,376.4558258999605,None,376.4558258999605,None,376.4558258999605,None,376.4558258999605,None,377.09624240000267,None,377.09624240000267,377.59618989995215,,,,,,,,,,,,,,,,210,2023-04-25_19h23.26.637,FishGame,2022.1.1,60.1362688006056,
,37,넌 멍해,4,Green,A,2.833333333333333,3.4,ScrollDown,ScrollUp,Green.png,3,Negative,Incongruent,,,,,0,0,0,0,,,,,,,,,,,,,,,,,,,,,0,36,36,36,,,,,,,,,,,,,,,,,,,,,,,,,,,,,,,,,,,,,,,,,,,,,,,,,,,,,,,,,,,,,,,,,,,,,,,,,1,0.7792920999927446,378.20272249996196,None,ScrollDown,정답입니다,378.20272249996196,None,378.20272249996196,None,378.20272249996196,None,378.20272249996196,None,378.89402070001233,None,378.89402070001233,379.3960234000115,,,,,,,,,,,,,,,,210,2023-04-25_19h23.26.637,FishGame,2022.1.1,60.1362688006056,
,38,나를 데려가줘,6,Orange,B,0,0,ScrollDown,ScrollUp,Orange.png,3,NonTarget,NonTarget,,,,,0,0,0,0,,,,,,,,,,,,,,,,,,,,,0,37,37,37,,,,,,,,,,,,,,,,,,,,,,,,,,,,,,,,,,,,,,,,,,,,,,,,,,,,,,,,,,,,,,,,,,,,,,,,,1.0046296219031017,0.9817807999206707,380.00272190000396,None,ScrollDown,정답입니다,380.00272190000396,None,380.00272190000396,None,380.00272190000396,None,380.00272190000396,None,380.8961107999785,None,380.8961107999785,381.3991568000056,,,,,,,,,,,,,,,,210,2023-04-25_19h23.26.637,FishGame,2022.1.1,60.1362688006056,
,39,넌 현명해,2,Green,A,6.541666666666666,4.533333333333333,ScrollDown,ScrollUp,Green.png,3,Positive,Congruent,,,,,0,0,0,0,,,,,,,,,,,,,,,,,,,,,0,38,38,38,,,,,,,,,,,,,,,,,,,,,,,,,,,,,,,,,,,,,,,,,,,,,,,,,,,,,,,,,,,,,,,,,,,,,,,,,1,0.8129318000283092,381.9995017000474,None,ScrollDown,정답입니다,381.9995017000474,None,381.9995017000474,None,381.9995017000474,None,381.9995017000474,None,382.72924310003873,None,382.72924310003873,383.2292550000129,,,,,,,,,,,,,,,,210,2023-04-25_19h23.26.637,FishGame,2022.1.1,60.1362688006056,
,40,넌 수줍어,3,Orange,B,3.541666666666666,4.366666666666666,ScrollUp,ScrollDown,Orange.png,3,Neutral,Neutral,,,,,0,0,0,0,,,,,,,,,,,,,,,,,,,,,0,39,39,39,,,,,,,,,,,,,,,,,,,,,,,,,,,,,,,,,,,,,,,,,,,,,,,,,,,,,,,,,,,,,,,,,,,,,,,,,1.8132716069618862,0.7482665000716224,383.8397241999628,None,ScrollUp,정답입니다,383.8397241999628,None,383.8397241999628,None,383.8397241999628,None,383.8397241999628,None,384.4961051000282,None,384.4961051000282,384.9959227000363,,,,,,,,,,,,,,,,210,2023-04-25_19h23.26.637,FishGame,2022.1.1,60.1362688006056,
,41,나를 데려가줘,6,Orange,B,0,0,ScrollDown,ScrollUp,Orange.png,3,NonTarget,NonTarget,,,,,0,0,0,0,,,,,,,,,,,,,,,,,,,,,0,40,40,40,,,,,,,,,,,,,,,,,,,,,,,,,,,,,,,,,,,,,,,,,,,,,,,,,,,,,,,,,,,,,,,,,,,,,,,,,1,1.2295349999330938,385.60333670000546,None,ScrollDown,정답입니다,385.60333670000546,None,385.60333670000546,None,385.60333670000546,None,385.60333670000546,None,386.74583359993994,None,386.74583359993994,387.2458609000314,,,,,,,,,,,,,,,,210,2023-04-25_19h23.26.637,FishGame,2022.1.1,60.1362688006056,
,42,넌 성숙해,2,Orange,B,5.833333333333333,4.533333333333333,ScrollUp,ScrollDown,Orange.png,3,Positive,Incongruent,,,,,0,0,0,0,,,,,,,,,,,,,,,,,,,,,0,41,41,41,,,,,,,,,,,,,,,,,,,,,,,,,,,,,,,,,,,,,,,,,,,,,,,,,,,,,,,,,,,,,,,,,,,,,,,,,1.6373456791043282,0.7645327000645921,387.8522222000174,None,ScrollUp,정답입니다,387.8522222000174,None,387.8522222000174,None,387.8522222000174,None,387.8522222000174,None,388.52915650000796,None,388.52915650000796,389.0291703999974,,,,,,,,,,,,,,,,210,2023-04-25_19h23.26.637,FishGame,2022.1.1,60.1362688006056,
,1,넌 매력적이야,2,Orange,B,6.125,4.666666666666667,ScrollUp,ScrollDown,Orange.png,4,Positive,Incongruent,,,,,0,0,0,0,,,,,,,,,,,,,,,,,,,,,,,,,0,0,0,0,,,,,,,,,,,,,,,,,,,,,,,,,,,,420.8118131000083,422.32862649997696,422.34532530000433,423.29534139996395,423.34535189997405,424.29529150004964,424.29529150004964,None,,,,,,,,,,,,,,,,,,,,,,,,,,,,,,,,,,1.9922839502493541,0.9027786001097411,425.38350660004653,None,ScrollUp,정답입니다,425.38350660004653,None,425.38350660004653,None,425.38350660004653,None,425.38350660004653,None,426.1930781999836,None,426.1930781999836,426.6951378999511,389.5292132999748,None,389.5292132999748,None,0.12407407,-0.06759259,1,0,0,0.016128430026583374,None,419.5284897000529,None,,,210,2023-04-25_19h23.26.637,FishGame,2022.1.1,60.1362688006056,
,2,나를 보내줘,6,Green,A,0,0,ScrollUp,ScrollDown,Green.png,4,NonTarget,NonTarget,,,,,0,0,0,0,,,,,,,,,,,,,,,,,,,,,,,,,0,1,1,1,,,,,,,,,,,,,,,,,,,,,,,,,,,,,,,,,,,,,,,,,,,,,,,,,,,,,,,,,,,,,,,,,,,,,1.9320987562338512,1.0595370000228286,427.3084183000028,None,ScrollUp,정답입니다,427.3084183000028,None,427.3084183000028,None,427.3084183000028,None,427.3084183000028,None,428.27839410002343,None,428.27839410002343,428.77835809998214,,,,,,,,,,,,,,,,210,2023-04-25_19h23.26.637,FishGame,2022.1.1,60.1362688006056,
,3,넌 조심스러워,3,Green,A,4.791666666666666,4.666666666666667,ScrollDown,ScrollUp,Green.png,4,Neutral,Neutral,,,,,0,0,0,0,,,,,,,,,,,,,,,,,,,,,,,,,0,2,2,2,,,,,,,,,,,,,,,,,,,,,,,,,,,,,,,,,,,,,,,,,,,,,,,,,,,,,,,,,,,,,,,,,,,,,1.1033950646718342,0.763129600090906,429.38308189995587,None,ScrollDown,정답입니다,429.38308189995587,None,429.38308189995587,None,429.38308189995587,None,429.38308189995587,None,430.0596668999642,None,430.0596668999642,430.5617796999868,,,,,,,,,,,,,,,,210,2023-04-25_19h23.26.637,FishGame,2022.1.1,60.1362688006056,
,4,넌 철학적이야,3,Orange,B,4.5,4.266666666666667,ScrollUp,ScrollDown,Orange.png,4,Neutral,Neutral,,,,,0,0,0,0,,,,,,,,,,,,,,,,,,,,,,,,,0,3,3,3,,,,,,,,,,,,,,,,,,,,,,,,,,,,,,,,,,,,,,,,,,,,,,,,,,,,,,,,,,,,,,,,,,,,,1.7361111094554267,0.7797198999905959,431.18059550004546,None,ScrollUp,정답입니다,431.18059550004546,None,431.18059550004546,None,431.18059550004546,None,431.18059550004546,None,431.8617498000385,None,431.8617498000385,432.36159939994104,,,,,,,,,,,,,,,,210,2023-04-25_19h23.26.637,FishGame,2022.1.1,60.1362688006056,
,5,넌 쩨쩨해,5,Green,A,2.375,2.133333333333333,ScrollDown,ScrollUp,Green.png,4,Negative,Incongruent,,,,,0,0,0,0,,,,,,,,,,,,,,,,,,,,,,,,,0,4,4,4,,,,,,,,,,,,,,,,,,,,,,,,,,,,,,,,,,,,,,,,,,,,,,,,,,,,,,,,,,,,,,,,,,,,,1.0061728358268738,0.8130028999876231,432.96805389993824,None,ScrollDown,정답입니다,432.96805389993824,None,432.96805389993824,None,432.96805389993824,None,432.96805389993824,None,433.6928825000068,None,433.6928825000068,434.1949861999601,,,,,,,,,,,,,,,,210,2023-04-25_19h23.26.637,FishGame,2022.1.1,60.1362688006056,
,6,나를 데려가줘,6,Orange,B,0,0,ScrollDown,ScrollUp,Orange.png,4,NonTarget,NonTarget,,,,,0,0,0,0,,,,,,,,,,,,,,,,,,,,,,,,,0,5,5,5,,,,,,,,,,,,,,,,,,,,,,,,,,,,,,,,,,,,,,,,,,,,,,,,,,,,,,,,,,,,,,,,,,,,,1,0.981571999960579,434.8019177999813,None,ScrollDown,정답입니다,434.8019177999813,None,434.8019177999813,None,434.8019177999813,None,434.8019177999813,None,435.6949330000207,None,435.6949330000207,436.19490670005325,,,,,,,,,,,,,,,,210,2023-04-25_19h23.26.637,FishGame,2022.1.1,60.1362688006056,
,7,넌 고집불통이야,5,Orange,B,2.875,2,ScrollUp,ScrollDown,Orange.png,4,Negative,Congruent,,,,,0,0,0,0,,,,,,,,,,,,,,,,,,,,,,,,,0,6,6,6,,,,,,,,,,,,,,,,,,,,,,,,,,,,,,,,,,,,,,,,,,,,,,,,,,,,,,,,,,,,,,,,,,,,,1.540123456468185,0.762701699975878,436.8108046000125,None,NoResponse,무응답입니다,436.8108046000125,None,436.8108046000125,None,436.8108046000125,None,436.8108046000125,None,437.47614559996873,None,437.47614559996873,437.978161899955,,,,,,,,,,,,,,,,210,2023-04-25_19h23.26.637,FishGame,2022.1.1,60.1362688006056,
,8,넌 무심해,4,Green,A,2.875,3.2,ScrollDown,ScrollUp,Green.png,4,Negative,Incongruent,,,,,0,0,0,0,,,,,,,,,,,,,,,,,,,,,,,,,0,7,7,7,,,,,,,,,,,,,,,,,,,,,,,,,,,,,,,,,,,,,,,,,,,,,,,,,,,,,,,,,,,,,,,,,,,,,1,0.8963105999864638,438.58221350004897,None,ScrollDown,정답입니다,438.58221350004897,None,438.58221350004897,None,438.58221350004897,None,438.58221350004897,None,439.39280849997886,None,439.39280849997886,439.89486390003003,,,,,,,,,,,,,,,,210,2023-04-25_19h23.26.637,FishGame,2022.1.1,60.1362688006056,
,9,넌 정겨워,1,Green,A,5.791666666666667,5.666666666666667,ScrollDown,ScrollUp,Green.png,4,Positive,Congruent,,,,,0,0,0,0,,,,,,,,,,,,,,,,,,,,,,,,,0,8,8,8,,,,,,,,,,,,,,,,,,,,,,,,,,,,,,,,,,,,,,,,,,,,,,,,,,,,,,,,,,,,,,,,,,,,,1,0.7958468999713659,440.5024705999531,None,ScrollDown,정답입니다,440.5024705999531,None,440.5024705999531,None,440.5024705999531,None,440.5024705999531,None,441.20914199994877,None,441.20914199994877,441.709141899948,,,,,,,,,,,,,,,,210,2023-04-25_19h23.26.637,FishGame,2022.1.1,60.1362688006056,
,10,나를 데려가줘,6,Orange,B,0,0,ScrollDown,ScrollUp,Orange.png,4,NonTarget,NonTarget,,,,,0,0,0,0,,,,,,,,,,,,,,,,,,,,,,,,,0,9,9,9,,,,,,,,,,,,,,,,,,,,,,,,,,,,,,,,,,,,,,,,,,,,,,,,,,,,,,,,,,,,,,,,,,,,,1.0771604776382446,0.8817148000234738,442.3136232999386,None,ScrollDown,정답입니다,442.3136232999386,None,442.3136232999386,None,442.3136232999386,None,442.3136232999386,None,443.1091673000483,None,443.1091673000483,443.6115894999821,,,,,,,,,,,,,,,,210,2023-04-25_19h23.26.637,FishGame,2022.1.1,60.1362688006056,
,11,넌 체제순응적이야,4,Orange,B,3,3.6,ScrollUp,ScrollDown,Orange.png,4,Negative,Congruent,,,,,0,0,0,0,,,,,,,,,,,,,,,,,,,,,,,,,0,10,10,10,,,,,,,,,,,,,,,,,,,,,,,,,,,,,,,,,,,,,,,,,,,,,,,,,,,,,,,,,,,,,,,,,,,,,1.7978395173947017,0.7978635999606922,444.22523250000086,None,ScrollUp,정답입니다,444.22523250000086,None,444.22523250000086,None,444.22523250000086,None,444.22523250000086,None,444.92618780001067,None,444.92618780001067,445.43177399993874,,,,,,,,,,,,,,,,210,2023-04-25_19h23.26.637,FishGame,2022.1.1,60.1362688006056,
,12,나를 보내줘,6,Green,A,0,0,ScrollUp,ScrollDown,Green.png,4,NonTarget,NonTarget,,,,,0,0,0,0,,,,,,,,,,,,,,,,,,,,,,,,,0,11,11,11,,,,,,,,,,,,,,,,,,,,,,,,,,,,,,,,,,,,,,,,,,,,,,,,,,,,,,,,,,,,,,,,,,,,,1.6111111169060073,1.012957299943082,446.09425259998534,None,ScrollUp,정답입니다,446.09425259998534,None,446.09425259998534,None,446.09425259998534,None,446.09425259998534,None,446.9613927999744,None,446.9613927999744,447.4613985000178,,,,,,,,,,,,,,,,210,2023-04-25_19h23.26.637,FishGame,2022.1.1,60.1362688006056,
,13,넌 박식해,2,Green,A,5.625,3.933333333333333,ScrollDown,ScrollUp,Green.png,4,Positive,Congruent,,,,,0,0,0,0,,,,,,,,,,,,,,,,,,,,,,,,,0,12,12,12,,,,,,,,,,,,,,,,,,,,,,,,,,,,,,,,,,,,,,,,,,,,,,,,,,,,,,,,,,,,,,,,,,,,,1.1095678955316544,0.6781559999799356,448.07455130002927,None,ScrollDown,정답입니다,448.07455130002927,None,448.07455130002927,None,448.07455130002927,None,448.07455130002927,None,448.6614433999639,None,448.6614433999639,449.16130479995627,,,,,,,,,,,,,,,,210,2023-04-25_19h23.26.637,FishGame,2022.1.1,60.1362688006056,
,14,나를 보내줘,6,Green,A,0,0,ScrollUp,ScrollDown,Green.png,4,NonTarget,NonTarget,,,,,0,0,0,0,,,,,,,,,,,,,,,,,,,,,,,,,0,13,13,13,,,,,,,,,,,,,,,,,,,,,,,,,,,,,,,,,,,,,,,,,,,,,,,,,,,,,,,,,,,,,,,,,,,,,1.7160493781169257,0.8463885000674054,449.7653162999777,None,ScrollUp,정답입니다,449.7653162999777,None,449.7653162999777,None,449.7653162999777,None,449.7653162999777,None,450.52794179995544,None,450.52794179995544,451.02790530002676,,,,,,,,,,,,,,,,210,2023-04-25_19h23.26.637,FishGame,2022.1.1,60.1362688006056,
,15,넌 침착해,1,Orange,B,5.458333333333333,5.566666666666666,ScrollUp,ScrollDown,Orange.png,4,Positive,Incongruent,,,,,0,0,0,0,,,,,,,,,,,,,,,,,,,,,,,,,0,14,14,14,,,,,,,,,,,,,,,,,,,,,,,,,,,,,,,,,,,,,,,,,,,,,,,,,,,,,,,,,,,,,,,,,,,,,1.7067901194095612,0.8792330999858677,451.6385845999466,None,ScrollUp,정답입니다,451.6385845999466,None,451.6385845999466,None,451.6385845999466,None,451.6385845999466,None,452.4278730000369,None,452.4278730000369,452.944564800011,,,,,,,,,,,,,,,,210,2023-04-25_19h23.26.637,FishGame,2022.1.1,60.1362688006056,
,16,나를 데려가줘,6,Orange,B,0,0,ScrollDown,ScrollUp,Orange.png,4,NonTarget,NonTarget,,,,,0,0,0,0,,,,,,,,,,,,,,,,,,,,,,,,,0,15,15,15,,,,,,,,,,,,,,,,,,,,,,,,,,,,,,,,,,,,,,,,,,,,,,,,,,,,,,,,,,,,,,,,,,,,,1.1064814925193787,0.87953140004538,453.53485129994806,None,ScrollDown,정답입니다,453.53485129994806,None,453.53485129994806,None,453.53485129994806,None,453.53485129994806,None,454.3279559999937,None,454.3279559999937,454.827893699985,,,,,,,,,,,,,,,,210,2023-04-25_19h23.26.637,FishGame,2022.1.1,60.1362688006056,
,17,넌 행복해,1,Green,A,6.416666666666666,6.166666666666667,ScrollDown,ScrollUp,Green.png,4,Positive,Congruent,,,,,0,0,0,0,,,,,,,,,,,,,,,,,,,,,,,,,0,16,16,16,,,,,,,,,,,,,,,,,,,,,,,,,,,,,,,,,,,,,,,,,,,,,,,,,,,,,,,,,,,,,,,,,,,,,1.1543209999799728,0.6961436999263242,455.43616399995517,None,ScrollDown,정답입니다,455.43616399995517,None,455.43616399995517,None,455.43616399995517,None,455.43616399995517,None,456.0424330000533,None,456.0424330000533,456.5444779000245,,,,,,,,,,,,,,,,210,2023-04-25_19h23.26.637,FishGame,2022.1.1,60.1362688006056,
,18,넌 겸손해,2,Orange,B,5.791666666666667,4.766666666666667,ScrollUp,ScrollDown,Orange.png,4,Positive,Incongruent,,,,,0,0,0,0,,,,,,,,,,,,,,,,,,,,,,,,,0,17,17,17,,,,,,,,,,,,,,,,,,,,,,,,,,,,,,,,,,,,,,,,,,,,,,,,,,,,,,,,,,,,,,,,,,,,,1.839506169160207,0.9317586999386549,457.15755620005075,None,ScrollUp,정답입니다,457.15755620005075,None,457.15755620005075,None,457.15755620005075,None,457.15755620005075,None,457.99241970002186,None,457.99241970002186,458.49446600000374,,,,,,,,,,,,,,,,210,2023-04-25_19h23.26.637,FishGame,2022.1.1,60.1362688006056,
,19,나를 보내줘,6,Green,A,0,0,ScrollUp,ScrollDown,Green.png,4,NonTarget,NonTarget,,,,,0,0,0,0,,,,,,,,,,,,,,,,,,,,,,,,,0,18,18,18,,,,,,,,,,,,,,,,,,,,,,,,,,,,,,,,,,,,,,,,,,,,,,,,,,,,,,,,,,,,,,,,,,,,,1.6712962985038757,0.7981559000909328,459.0987354000099,None,ScrollUp,정답입니다,459.0987354000099,None,459.0987354000099,None,459.0987354000099,None,459.0987354000099,None,459.8113353999797,None,459.8113353999797,460.3111283000326,,,,,,,,,,,,,,,,210,2023-04-25_19h23.26.637,FishGame,2022.1.1,60.1362688006056,
,20,넌 의심없어,3,Green,A,4.166666666666667,4.6,ScrollDown,ScrollUp,Green.png,4,Neutral,Neutral,,,,,0,0,0,0,,,,,,,,,,,,,,,,,,,,,,,,,0,19,19,19,,,,,,,,,,,,,,,,,,,,,,,,,,,,,,,,,,,,,,,,,,,,,,,,,,,,,,,,,,,,,,,,,,,,,1.0725308855374653,0.7090509000699967,460.92528800002765,None,ScrollDown,정답입니다,460.92528800002765,None,460.92528800002765,None,460.92528800002765,None,460.92528800002765,None,461.54209769994486,None,461.54209769994486,462.04207710002083,,,,,,,,,,,,,,,,210,2023-04-25_19h23.26.637,FishGame,2022.1.1,60.1362688006056,
,21,넌 시시해,4,Green,A,2.666666666666667,2.966666666666667,ScrollDown,ScrollUp,Green.png,4,Negative,Incongruent,,,,,0,0,0,0,,,,,,,,,,,,,,,,,,,,,,,,,0,20,20,20,,,,,,,,,,,,,,,,,,,,,,,,,,,,,,,,,,,,,,,,,,,,,,,,,,,,,,,,,,,,,,,,,,,,,1,0.8314745000097901,462.6439178000437,None,ScrollDown,정답입니다,462.6439178000437,None,462.6439178000437,None,462.6439178000437,None,462.6439178000437,None,463.39208639995195,None,463.39208639995195,463.8951266000513,,,,,,,,,,,,,,,,210,2023-04-25_19h23.26.637,FishGame,2022.1.1,60.1362688006056,
,22,나를 데려가줘,6,Orange,B,0,0,ScrollDown,ScrollUp,Orange.png,4,NonTarget,NonTarget,,,,,0,0,0,0,,,,,,,,,,,,,,,,,,,,,,,,,0,21,21,21,,,,,,,,,,,,,,,,,,,,,,,,,,,,,,,,,,,,,,,,,,,,,,,,,,,,,,,,,,,,,,,,,,,,,1,0.9815688000526279,464.5013006000081,None,ScrollDown,정답입니다,464.5013006000081,None,464.5013006000081,None,464.5013006000081,None,464.5013006000081,None,465.39448170003016,None,465.39448170003016,465.89442170003895,,,,,,,,,,,,,,,,210,2023-04-25_19h23.26.637,FishGame,2022.1.1,60.1362688006056,
,23,넌 무정해,5,Green,A,2.5,2.2,ScrollDown,ScrollUp,Green.png,4,Negative,Incongruent,,,,,0,0,0,0,,,,,,,,,,,,,,,,,,,,,,,,,0,22,22,22,,,,,,,,,,,,,,,,,,,,,,,,,,,,,,,,,,,,,,,,,,,,,,,,,,,,,,,,,,,,,,,,,,,,,1.0447530845801036,0.8483256000326946,466.5065150000155,None,ScrollDown,정답입니다,466.5065150000155,None,466.5065150000155,None,466.5065150000155,None,466.5065150000155,None,467.26100499997847,None,467.26100499997847,467.76097609999124,,,,,,,,,,,,,,,,210,2023-04-25_19h23.26.637,FishGame,2022.1.1,60.1362688006056,
,24,넌 긍정적이야,1,Orange,B,6.041666666666667,6.066666666666666,ScrollUp,ScrollDown,Orange.png,4,Positive,Incongruent,,,,,0,0,0,0,,,,,,,,,,,,,,,,,,,,,,,,,0,23,23,23,,,,,,,,,,,,,,,,,,,,,,,,,,,,,,,,,,,,,,,,,,,,,,,,,,,,,,,,,,,,,,,,,,,,,1.6728395000100136,0.7762417999329045,468.38060230005067,None,ScrollUp,정답입니다,468.38060230005067,None,468.38060230005067,None,468.38060230005067,None,468.38060230005067,None,469.0585955999559,None,469.0585955999559,469.55865799996536,,,,,,,,,,,,,,,,210,2023-04-25_19h23.26.637,FishGame,2022.1.1,60.1362688006056,
,25,나를 보내줘,6,Green,A,0,0,ScrollUp,ScrollDown,Green.png,4,NonTarget,NonTarget,,,,,0,0,0,0,,,,,,,,,,,,,,,,,,,,,,,,,0,24,24,24,,,,,,,,,,,,,,,,,,,,,,,,,,,,,,,,,,,,,,,,,,,,,,,,,,,,,,,,,,,,,,,,,,,,,1.9243827362855275,0.8628173000179231,470.1648036999395,None,ScrollUp,정답입니다,470.1648036999395,None,470.1648036999395,None,470.1648036999395,None,470.1648036999395,None,470.94194579997566,None,470.94194579997566,471.4443074000301,,,,,,,,,,,,,,,,210,2023-04-25_19h23.26.637,FishGame,2022.1.1,60.1362688006056,
,26,넌 시기심이 많아,5,Orange,B,2.458333333333333,2.233333333333333,ScrollUp,ScrollDown,Orange.png,4,Negative,Congruent,,,,,0,0,0,0,,,,,,,,,,,,,,,,,,,,,,,,,0,25,25,25,,,,,,,,,,,,,,,,,,,,,,,,,,,,,,,,,,,,,,,,,,,,,,,,,,,,,,,,,,,,,,,,,,,,,1.879629631837209,0.796142700011842,472.056122399983,None,ScrollUp,정답입니다,472.056122399983,None,472.056122399983,None,472.056122399983,None,472.056122399983,None,472.7611068999395,None,472.7611068999395,473.2609488000162,,,,,,,,,,,,,,,,210,2023-04-25_19h23.26.637,FishGame,2022.1.1,60.1362688006056,
,27,넌 탁월해,2,Green,A,5.708333333333334,4.5,ScrollDown,ScrollUp,Green.png,4,Positive,Congruent,,,,,0,0,0,0,,,,,,,,,,,,,,,,,,,,,,,,,0,26,26,26,,,,,,,,,,,,,,,,,,,,,,,,,,,,,,,,,,,,,,,,,,,,,,,,,,,,,,,,,,,,,,,,,,,,,1.0231481393178303,0.846068499959074,473.8739259999711,None,ScrollDown,정답입니다,473.8739259999711,None,473.8739259999711,None,473.8739259999711,None,473.8739259999711,None,474.625178999966,None,474.625178999966,475.1251415000297,,,,,,,,,,,,,,,,210,2023-04-25_19h23.26.637,FishGame,2022.1.1,60.1362688006056,
,28,나를 데려가줘,6,Orange,B,0,0,ScrollDown,ScrollUp,Orange.png,4,NonTarget,NonTarget,,,,,0,0,0,0,,,,,,,,,,,,,,,,,,,,,,,,,0,27,27,27,,,,,,,,,,,,,,,,,,,,,,,,,,,,,,,,,,,,,,,,,,,,,,,,,,,,,,,,,,,,,,,,,,,,,1.0462962985038757,0.881735899951309,475.72966990002897,None,ScrollDown,정답입니다,475.72966990002897,None,475.72966990002897,None,475.72966990002897,None,475.72966990002897,None,476.5251636999892,None,476.5251636999892,477.0251567000523,,,,,,,,,,,,,,,,210,2023-04-25_19h23.26.637,FishGame,2022.1.1,60.1362688006056,
,29,넌 조용해,3,Orange,B,4.333333333333333,4.166666666666667,ScrollUp,ScrollDown,Orange.png,4,Neutral,Neutral,,,,,0,0,0,0,,,,,,,,,,,,,,,,,,,,,,,,,0,28,28,28,,,,,,,,,,,,,,,,,,,,,,,,,,,,,,,,,,,,,,,,,,,,,,,,,,,,,,,,,,,,,,,,,,,,,1.8873456766208012,0.8317083999281749,477.63764039997477,None,ScrollUp,정답입니다,477.63764039997477,None,477.63764039997477,None,477.63764039997477,None,477.63764039997477,None,478.37753049994353,None,478.37753049994353,478.87749710003845,,,,,,,,,,,,,,,,210,2023-04-25_19h23.26.637,FishGame,2022.1.1,60.1362688006056,
,30,넌 다정해,1,Green,A,5.833333333333334,5.7,ScrollDown,ScrollUp,Green.png,4,Positive,Congruent,,,,,0,0,0,0,,,,,,,,,,,,,,,,,,,,,,,,,0,29,29,29,,,,,,,,,,,,,,,,,,,,,,,,,,,,,,,,,,,,,,,,,,,,,,,,,,,,,,,,,,,,,,,,,,,,,1,0.8442703000037,479.4917617000174,None,ScrollDown,정답입니다,479.4917617000174,None,479.4917617000174,None,479.4917617000174,None,479.4917617000174,None,480.2419815999456,None,480.2419815999456,480.74400389997754,,,,,,,,,,,,,,,,210,2023-04-25_19h23.26.637,FishGame,2022.1.1,60.1362688006056,
,31,넌 능력있어,2,Orange,B,6.166666666666666,4.6,ScrollUp,ScrollDown,Orange.png,4,Positive,Incongruent,,,,,0,0,0,0,,,,,,,,,,,,,,,,,,,,,,,,,0,30,30,30,,,,,,,,,,,,,,,,,,,,,,,,,,,,,,,,,,,,,,,,,,,,,,,,,,,,,,,,,,,,,,,,,,,,,1.652777781089147,0.7651326999766752,481.3504063000437,None,ScrollUp,정답입니다,481.3504063000437,None,481.3504063000437,None,481.3504063000437,None,481.3504063000437,None,482.02768409997225,None,482.02768409997225,482.5305565999588,,,,,,,,,,,,,,,,210,2023-04-25_19h23.26.637,FishGame,2022.1.1,60.1362688006056,
,32,넌 불쾌해,5,Green,A,2.125,1.933333333333333,ScrollDown,ScrollUp,Green.png,4,Negative,Incongruent,,,,,0,0,0,0,,,,,,,,,,,,,,,,,,,,,,,,,0,31,31,31,,,,,,,,,,,,,,,,,,,,,,,,,,,,,,,,,,,,,,,,,,,,,,,,,,,,,,,,,,,,,,,,,,,,,1.0339506367842357,0.7960826999042183,483.13120209996123,None,ScrollDown,정답입니다,483.13120209996123,None,483.13120209996123,None,483.13120209996123,None,483.13120209996123,None,483.8418895000359,None,483.8418895000359,484.3438797999406,,,,,,,,,,,,,,,,210,2023-04-25_19h23.26.637,FishGame,2022.1.1,60.1362688006056,
,33,나를 데려가줘,6,Orange,B,0,0,ScrollDown,ScrollUp,Orange.png,4,NonTarget,NonTarget,,,,,0,0,0,0,,,,,,,,,,,,,,,,,,,,,,,,,0,32,32,32,,,,,,,,,,,,,,,,,,,,,,,,,,,,,,,,,,,,,,,,,,,,,,,,,,,,,,,,,,,,,,,,,,,,,1.0354938507080078,0.8460194000508636,484.95124309998937,None,ScrollDown,정답입니다,484.95124309998937,None,484.95124309998937,None,484.95124309998937,None,484.95124309998937,None,485.7106042000232,None,485.7106042000232,486.21060410002246,,,,,,,,,,,,,,,,210,2023-04-25_19h23.26.637,FishGame,2022.1.1,60.1362688006056,
,34,넌 유순해,3,Green,A,4.458333333333333,5,ScrollDown,ScrollUp,Green.png,4,Neutral,Neutral,,,,,0,0,0,0,,,,,,,,,,,,,,,,,,,,,,,,,0,33,33,33,,,,,,,,,,,,,,,,,,,,,,,,,,,,,,,,,,,,,,,,,,,,,,,,,,,,,,,,,,,,,,,,,,,,,1.10030863682429,0.7962058999110013,486.81512389995623,None,ScrollDown,정답입니다,486.81512389995623,None,486.81512389995623,None,486.81512389995623,None,486.81512389995623,None,487.5271939999657,None,487.5271939999657,488.04384229995776,,,,,,,,,,,,,,,,210,2023-04-25_19h23.26.637,FishGame,2022.1.1,60.1362688006056,
,35,넌 근심스러워,4,Orange,B,2.708333333333333,3.133333333333333,ScrollUp,ScrollDown,Orange.png,4,Negative,Congruent,,,,,0,0,0,0,,,,,,,,,,,,,,,,,,,,,,,,,0,34,34,34,,,,,,,,,,,,,,,,,,,,,,,,,,,,,,,,,,,,,,,,,,,,,,,,,,,,,,,,,,,,,,,,,,,,,1.8441358109315236,1.4461959999753162,488.636732700048,None,ScrollUp,정답입니다,488.636732700048,None,488.636732700048,None,488.636732700048,None,488.636732700048,None,489.99182720005047,None,489.99182720005047,490.49382360000163,,,,,,,,,,,,,,,,210,2023-04-25_19h23.26.637,FishGame,2022.1.1,60.1362688006056,
,36,넌 세련되었어,2,Green,A,5.5,4.6,ScrollDown,ScrollUp,Green.png,4,Positive,Congruent,,,,,0,0,0,0,,,,,,,,,,,,,,,,,,,,,,,,,0,35,35,35,,,,,,,,,,,,,,,,,,,,,,,,,,,,,,,,,,,,,,,,,,,,,,,,,,,,,,,,,,,,,,,,,,,,,1,0.7628183000488207,491.1042864000192,None,ScrollDown,정답입니다,491.1042864000192,None,491.1042864000192,None,491.1042864000192,None,491.1042864000192,None,491.7772172000259,None,491.7772172000259,492.2771918999497,,,,,,,,,,,,,,,,210,2023-04-25_19h23.26.637,FishGame,2022.1.1,60.1362688006056,
,37,나를 보내줘,6,Green,A,0,0,ScrollUp,ScrollDown,Green.png,4,NonTarget,NonTarget,,,,,0,0,0,0,,,,,,,,,,,,,,,,,,,,,,,,,0,36,36,36,,,,,,,,,,,,,,,,,,,,,,,,,,,,,,,,,,,,,,,,,,,,,,,,,,,,,,,,,,,,,,,,,,,,,1.7932098756233852,0.8963093999773264,492.8811438999837,None,ScrollUp,정답입니다,492.8811438999837,None,492.8811438999837,None,492.8811438999837,None,492.8811438999837,None,493.69376179995015,None,493.69376179995015,494.1937213999918,,,,,,,,,,,,,,,,210,2023-04-25_19h23.26.637,FishGame,2022.1.1,60.1362688006056,
,38,넌 확고해,3,Orange,B,4.708333333333334,4.566666666666666,ScrollUp,ScrollDown,Orange.png,4,Neutral,Neutral,,,,,0,0,0,0,,,,,,,,,,,,,,,,,,,,,,,,,0,37,37,37,,,,,,,,,,,,,,,,,,,,,,,,,,,,,,,,,,,,,,,,,,,,,,,,,,,,,,,,,,,,,,,,,,,,,1.8657407313585281,0.7128256000578403,494.8031211999478,None,ScrollUp,정답입니다,494.8031211999478,None,494.8031211999478,None,494.8031211999478,None,494.8031211999478,None,495.42503449996,None,495.42503449996,495.9270454000216,,,,,,,,,,,,,,,,210,2023-04-25_19h23.26.637,FishGame,2022.1.1,60.1362688006056,
,39,넌 이해심이 많아,1,Orange,B,6.041666666666668,5.533333333333333,ScrollUp,ScrollDown,Orange.png,4,Positive,Incongruent,,,,,0,0,0,0,,,,,,,,,,,,,,,,,,,,,,,,,0,38,38,38,,,,,,,,,,,,,,,,,,,,,,,,,,,,,,,,,,,,,,,,,,,,,,,,,,,,,,,,,,,,,,,,,,,,,1.7546296268701553,0.7627597999526188,496.5342133999802,None,ScrollUp,정답입니다,496.5342133999802,None,496.5342133999802,None,496.5342133999802,None,496.5342133999802,None,497.2103595000226,None,497.2103595000226,497.710312900017,,,,,,,,,,,,,,,,210,2023-04-25_19h23.26.637,FishGame,2022.1.1,60.1362688006056,
,40,나를 보내줘,6,Green,A,0,0,ScrollUp,ScrollDown,Green.png,4,NonTarget,NonTarget,,,,,0,0,0,0,,,,,,,,,,,,,,,,,,,,,,,,,0,39,39,39,,,,,,,,,,,,,,,,,,,,,,,,,,,,,,,,,,,,,,,,,,,,,,,,,,,,,,,,,,,,,,,,,,,,,1.7962963034709294,0.8962871000403538,498.33120679995045,None,ScrollUp,정답입니다,498.33120679995045,None,498.33120679995045,None,498.33120679995045,None,498.33120679995045,None,499.1436473999638,None,499.1436473999638,499.64362690004054,,,,,,,,,,,,,,,,210,2023-04-25_19h23.26.637,FishGame,2022.1.1,60.1362688006056,
,41,넌 거칠어,4,Green,A,2.625,3.033333333333333,ScrollDown,ScrollUp,Green.png,4,Negative,Incongruent,,,,,0,0,0,0,,,,,,,,,,,,,,,,,,,,,,,,,0,40,40,40,,,,,,,,,,,,,,,,,,,,,,,,,,,,,,,,,,,,,,,,,,,,,,,,,,,,,,,,,,,,,,,,,,,,,1.2067901243766148,0.9654647000133991,500.25057439995,None,ScrollDown,정답입니다,500.25057439995,None,500.25057439995,None,500.25057439995,None,500.25057439995,None,501.1269646999426,None,501.1269646999426,501.6269840999739,,,,,,,,,,,,,,,,210,2023-04-25_19h23.26.637,FishGame,2022.1.1,60.1362688006056,
,42,넌 변덕맞아,5,Orange,B,2.75,2.166666666666667,ScrollUp,ScrollDown,Orange.png,4,Negative,Congruent,,,,,0,0,0,0,,,,,,,,,,,,,,,,,,,,,,,,,0,41,41,41,,,,,,,,,,,,,,,,,,,,,,,,,,,,,,,,,,,,,,,,,,,,,,,,,,,,,,,,,,,,,,,,,,,,,1.7376543233791986,0.7598020000150427,502.2413760999916,None,ScrollUp,정답입니다,502.2413760999916,None,502.2413760999916,None,502.2413760999916,None,502.2413760999916,None,502.910339999944,None,502.910339999944,503.4102800999535,,,,,,,,,,,,,,,,210,2023-04-25_19h23.26.637,FishGame,2022.1.1,60.1362688006056,
,43,나를 데려가줘,6,Orange,B,0,0,ScrollDown,ScrollUp,Orange.png,4,NonTarget,NonTarget,,,,,0,0,0,0,,,,,,,,,,,,,,,,,,,,,,,,,0,42,42,42,,,,,,,,,,,,,,,,,,,,,,,,,,,,,,,,,,,,,,,,,,,,,,,,,,,,,,,,,,,,,,,,,,,,,1.040123442808787,1.0127304999623448,504.0211068999488,None,ScrollDown,정답입니다,504.0211068999488,None,504.0211068999488,None,504.0211068999488,None,504.0211068999488,None,504.94122469995636,None,504.94122469995636,505.44120839994866,,,,,,,,,,,,,,,,210,2023-04-25_19h23.26.637,FishGame,2022.1.1,60.1362688006056,
,44,넌 외로워,4,Orange,B,2.833333333333333,3.3,ScrollUp,ScrollDown,Orange.png,4,Negative,Congruent,,,,,0,0,0,0,,,,,,,,,,,,,,,,,,,,,,,,,0,43,43,43,,,,,,,,,,,,,,,,,,,,,,,,,,,,,,,,,,,,,,,,,,,,,,,,,,,,,,,,,,,,,,,,,,,,,1.8425925970077515,0.9799186000600457,506.0532021999825,None,ScrollUp,정답입니다,506.0532021999825,None,506.0532021999825,None,506.0532021999825,None,506.0532021999825,None,506.9437115000328,None,506.9437115000328,507.4436268999707,,,,,,,,,,,,,,,,210,2023-04-25_19h23.26.637,FishGame,2022.1.1,60.1362688006056,
,1,넌 불평스러워,5,Green,A,2.25,2.066666666666667,ScrollDown,ScrollUp,Green.png,5,Negative,Incongruent,,,,,0,0,0,0,,,,,,,,,,,,,,,,,,,,,,,,,,,,,0,0,0,0,,,,,,,,,,,,,,,,,,,,,,,,539.4575012000278,540.9597014000174,540.993016500026,541.9462421999779,541.9794030999765,542.9430612999713,542.9430612999713,None,,,,,,,,,,,,,,,,,,,,,,,,,,,,,,,,,,1,0.8720006999792531,544.02171859995,None,ScrollDown,정답입니다,544.02171859995,None,544.02171859995,None,544.02171859995,None,544.02171859995,None,544.8074054999743,None,544.8074054999743,545.3093882999383,507.9436297999928,None,507.9436297999928,None,0.031481482,-0.098148145,1,0,0,0.0161360299680382,None,537.94276669994,None,,,210,2023-04-25_19h23.26.637,FishGame,2022.1.1,60.1362688006056,
,2,나를 보내줘,6,Green,A,0,0,ScrollUp,ScrollDown,Green.png,5,NonTarget,NonTarget,,,,,0,0,0,0,,,,,,,,,,,,,,,,,,,,,,,,,,,,,0,1,1,1,,,,,,,,,,,,,,,,,,,,,,,,,,,,,,,,,,,,,,,,,,,,,,,,,,,,,,,,,,,,,,,,,1.7530864129463832,0.8629408999113366,545.9134971000021,None,ScrollUp,정답입니다,545.9134971000021,None,545.9134971000021,None,545.9134971000021,None,545.9134971000021,None,546.6927480000304,None,546.6927480000304,547.1927791000344,,,,,,,,,,,,,,,,210,2023-04-25_19h23.26.637,FishGame,2022.1.1,60.1362688006056,
,3,넌 다재다능해,2,Orange,B,6.208333333333333,4.5,ScrollUp,ScrollDown,Orange.png,5,Positive,Incongruent,,,,,0,0,0,0,,,,,,,,,,,,,,,,,,,,,,,,,,,,,0,2,2,2,,,,,,,,,,,,,,,,,,,,,,,,,,,,,,,,,,,,,,,,,,,,,,,,,,,,,,,,,,,,,,,,,1.9861110945542653,0.8463443000800908,547.7994640000397,None,ScrollUp,정답입니다,547.7994640000397,None,547.7994640000397,None,547.7994640000397,None,547.7994640000397,None,548.5572593000252,None,548.5572593000252,549.059309000033,,,,,,,,,,,,,,,,210,2023-04-25_19h23.26.637,FishGame,2022.1.1,60.1362688006056,
,4,넌 과감해,3,Green,A,4.833333333333334,4.6,ScrollDown,ScrollUp,Green.png,5,Neutral,Neutral,,,,,0,0,0,0,,,,,,,,,,,,,,,,,,,,,,,,,,,,,0,3,3,3,,,,,,,,,,,,,,,,,,,,,,,,,,,,,,,,,,,,,,,,,,,,,,,,,,,,,,,,,,,,,,,,,1,0.8963463000254706,549.6633980999468,None,ScrollDown,정답입니다,549.6633980999468,None,549.6633980999468,None,549.6633980999468,None,549.6633980999468,None,550.4759624999715,None,550.4759624999715,550.9759918999625,,,,,,,,,,,,,,,,210,2023-04-25_19h23.26.637,FishGame,2022.1.1,60.1362688006056,
,5,넌 고분고분해,3,Orange,B,3.75,4.033333333333333,ScrollUp,ScrollDown,Orange.png,5,Neutral,Neutral,,,,,0,0,0,0,,,,,,,,,,,,,,,,,,,,,,,,,,,,,0,4,4,4,,,,,,,,,,,,,,,,,,,,,,,,,,,,,,,,,,,,,,,,,,,,,,,,,,,,,,,,,,,,,,,,,1.7175925920406976,0.7626772000221536,551.5900875000516,None,ScrollUp,정답입니다,551.5900875000516,None,551.5900875000516,None,551.5900875000516,None,551.5900875000516,None,552.2569503999548,None,552.2569503999548,552.7569239999866,,,,,,,,,,,,,,,,210,2023-04-25_19h23.26.637,FishGame,2022.1.1,60.1362688006056,
,6,나를 보내줘,6,Green,A,0,0,ScrollUp,ScrollDown,Green.png,5,NonTarget,NonTarget,,,,,0,0,0,0,,,,,,,,,,,,,,,,,,,,,,,,,,,,,0,5,5,5,,,,,,,,,,,,,,,,,,,,,,,,,,,,,,,,,,,,,,,,,,,,,,,,,,,,,,,,,,,,,,,,,1.5586419738829136,0.8314752000151202,553.3590502999723,None,ScrollUp,정답입니다,553.3590502999723,None,553.3590502999723,None,553.3590502999723,None,553.3590502999723,None,554.106971399975,None,554.106971399975,554.6069706999697,,,,,,,,,,,,,,,,210,2023-04-25_19h23.26.637,FishGame,2022.1.1,60.1362688006056,
,7,넌 잘 잊어,4,Green,A,3,3.7,ScrollDown,ScrollUp,Green.png,5,Negative,Incongruent,,,,,0,0,0,0,,,,,,,,,,,,,,,,,,,,,,,,,,,,,0,6,6,6,,,,,,,,,,,,,,,,,,,,,,,,,,,,,,,,,,,,,,,,,,,,,,,,,,,,,,,,,,,,,,,,,1.0061728358268738,0.848289699992165,555.2180374000454,None,ScrollDown,정답입니다,555.2180374000454,None,555.2180374000454,None,555.2180374000454,None,555.2180374000454,None,555.9760724999942,None,555.9760724999942,556.475987700047,,,,,,,,,,,,,,,,210,2023-04-25_19h23.26.637,FishGame,2022.1.1,60.1362688006056,
,8,넌 탐구심이없어,4,Orange,B,2.833333333333333,3.066666666666667,ScrollUp,ScrollDown,Orange.png,5,Negative,Congruent,,,,,0,0,0,0,,,,,,,,,,,,,,,,,,,,,,,,,,,,,0,7,7,7,,,,,,,,,,,,,,,,,,,,,,,,,,,,,,,,,,,,,,,,,,,,,,,,,,,,,,,,,,,,,,,,,1.9490740597248077,0.8629259000299498,557.0863297999604,None,ScrollUp,정답입니다,557.0863297999604,None,557.0863297999604,None,557.0863297999604,None,557.0863297999604,None,557.8591517000459,None,557.8591517000459,558.3591426999774,,,,,,,,,,,,,,,,210,2023-04-25_19h23.26.637,FishGame,2022.1.1,60.1362688006056,
,9,나를 데려가줘,6,Orange,B,0,0,ScrollDown,ScrollUp,Orange.png,5,NonTarget,NonTarget,,,,,0,0,0,0,,,,,,,,,,,,,,,,,,,,,,,,,,,,,0,8,8,8,,,,,,,,,,,,,,,,,,,,,,,,,,,,,,,,,,,,,,,,,,,,,,,,,,,,,,,,,,,,,,,,,1.0385802288850148,0.9096359999384731,558.974915400031,None,ScrollDown,정답입니다,558.974915400031,None,558.974915400031,None,558.974915400031,None,558.974915400031,None,559.7901402999414,None,559.7901402999414,560.2901237000478,,,,,,,,,,,,,,,,210,2023-04-25_19h23.26.637,FishGame,2022.1.1,60.1362688006056,
,10,넌 참되어,2,Green,A,6.041666666666664,4.733333333333333,ScrollDown,ScrollUp,Green.png,5,Positive,Congruent,,,,,0,0,0,0,,,,,,,,,,,,,,,,,,,,,,,,,,,,,0,9,9,9,,,,,,,,,,,,,,,,,,,,,,,,,,,,,,,,,,,,,,,,,,,,,,,,,,,,,,,,,,,,,,,,,1.0293209950129192,0.6786567999515682,560.8999364000047,None,ScrollDown,정답입니다,560.8999364000047,None,560.8999364000047,None,560.8999364000047,None,560.8999364000047,None,561.4901642999612,None,561.4901642999612,561.9925283000339,,,,,,,,,,,,,,,,210,2023-04-25_19h23.26.637,FishGame,2022.1.1,60.1362688006056,
,11,넌 생기있어,1,Orange,B,5.875,5.633333333333334,ScrollUp,ScrollDown,Orange.png,5,Positive,Incongruent,,,,,0,0,0,0,,,,,,,,,,,,,,,,,,,,,,,,,,,,,0,10,10,10,,,,,,,,,,,,,,,,,,,,,,,,,,,,,,,,,,,,,,,,,,,,,,,,,,,,,,,,,,,,,,,,,1.7314814925193787,0.7151365999598056,562.6009702000301,None,ScrollUp,정답입니다,562.6009702000301,None,562.6009702000301,None,562.6009702000301,None,562.6009702000301,None,563.2260473000351,None,563.2260473000351,563.7258303000126,,,,,,,,,,,,,,,,210,2023-04-25_19h23.26.637,FishGame,2022.1.1,60.1362688006056,
,12,넌 비사교적이야,4,Orange,B,2.875,2.9,ScrollUp,ScrollDown,Orange.png,5,Negative,Congruent,,,,,0,0,0,0,,,,,,,,,,,,,,,,,,,,,,,,,,,,,0,11,11,11,,,,,,,,,,,,,,,,,,,,,,,,,,,,,,,,,,,,,,,,,,,,,,,,,,,,,,,,,,,,,,,,,1.7407407512267432,0.7146678999997675,564.331224399968,None,ScrollUp,정답입니다,564.331224399968,None,564.331224399968,None,564.331224399968,None,564.331224399968,None,564.9590554999886,None,564.9590554999886,565.4590238999808,,,,,,,,,,,,,,,,210,2023-04-25_19h23.26.637,FishGame,2022.1.1,60.1362688006056,
,13,나를 데려가줘,6,Orange,B,0,0,ScrollDown,ScrollUp,Orange.png,5,NonTarget,NonTarget,,,,,0,0,0,0,,,,,,,,,,,,,,,,,,,,,,,,,,,,,0,12,12,12,,,,,,,,,,,,,,,,,,,,,,,,,,,,,,,,,,,,,,,,,,,,,,,,,,,,,,,,,,,,,,,,,1.0709876716136932,0.7983115999959409,566.0657581000123,None,ScrollDown,정답입니다,566.0657581000123,None,566.0657581000123,None,566.0657581000123,None,566.0657581000123,None,566.7736031999812,None,566.7736031999812,567.2756966999732,,,,,,,,,,,,,,,,210,2023-04-25_19h23.26.637,FishGame,2022.1.1,60.1362688006056,
,14,넌 고독해,4,Green,A,2.916666666666667,3.233333333333333,ScrollDown,ScrollUp,Green.png,5,Negative,Incongruent,,,,,0,0,0,0,,,,,,,,,,,,,,,,,,,,,,,,,,,,,0,13,13,13,,,,,,,,,,,,,,,,,,,,,,,,,,,,,,,,,,,,,,,,,,,,,,,,,,,,,,,,,,,,,,,,,1.0987654229005177,0.775932400021702,567.8887996999547,None,ScrollDown,정답입니다,567.8887996999547,None,567.8887996999547,None,567.8887996999547,None,567.8887996999547,None,568.573297600029,None,568.573297600029,569.0732692000456,,,,,,,,,,,,,,,,210,2023-04-25_19h23.26.637,FishGame,2022.1.1,60.1362688006056,
,15,넌 신경질적이야,5,Orange,B,2.375,2.233333333333333,ScrollUp,ScrollDown,Orange.png,5,Negative,Congruent,,,,,0,0,0,0,,,,,,,,,,,,,,,,,,,,,,,,,,,,,0,14,14,14,,,,,,,,,,,,,,,,,,,,,,,,,,,,,,,,,,,,,,,,,,,,,,,,,,,,,,,,,,,,,,,,,1.7731481442848842,0.7317483000224456,569.6819972000085,None,ScrollUp,정답입니다,569.6819972000085,None,569.6819972000085,None,569.6819972000085,None,569.6819972000085,None,570.3233285000315,None,570.3233285000315,570.8256324999966,,,,,,,,,,,,,,,,210,2023-04-25_19h23.26.637,FishGame,2022.1.1,60.1362688006056,
,16,넌 똑똑해,2,Orange,B,5.666666666666667,3.966666666666667,ScrollUp,ScrollDown,Orange.png,5,Positive,Incongruent,,,,,0,0,0,0,,,,,,,,,,,,,,,,,,,,,,,,,,,,,0,15,15,15,,,,,,,,,,,,,,,,,,,,,,,,,,,,,,,,,,,,,,,,,,,,,,,,,,,,,,,,,,,,,,,,,1.8657407313585281,0.9628349000122398,571.4348746000323,None,ScrollUp,정답입니다,571.4348746000323,None,571.4348746000323,None,571.4348746000323,None,571.4348746000323,None,572.3090074999491,None,572.3090074999491,572.8089986999985,,,,,,,,,,,,,,,,210,2023-04-25_19h23.26.637,FishGame,2022.1.1,60.1362688006056,
,17,나를 보내줘,6,Green,A,0,0,ScrollUp,ScrollDown,Green.png,5,NonTarget,NonTarget,,,,,0,0,0,0,,,,,,,,,,,,,,,,,,,,,,,,,,,,,0,16,16,16,,,,,,,,,,,,,,,,,,,,,,,,,,,,,,,,,,,,,,,,,,,,,,,,,,,,,,,,,,,,,,,,,1.7947530895471573,0.8482126001035795,573.413423400023,None,ScrollUp,정답입니다,573.413423400023,None,573.413423400023,None,573.413423400023,None,573.413423400023,None,574.1754938999657,None,574.1754938999657,574.6754890000448,,,,,,,,,,,,,,,,210,2023-04-25_19h23.26.637,FishGame,2022.1.1,60.1362688006056,
,18,넌 협조적이야,1,Green,A,5.625,5.666666666666667,ScrollDown,ScrollUp,Green.png,5,Positive,Congruent,,,,,0,0,0,0,,,,,,,,,,,,,,,,,,,,,,,,,,,,,0,17,17,17,,,,,,,,,,,,,,,,,,,,,,,,,,,,,,,,,,,,,,,,,,,,,,,,,,,,,,,,,,,,,,,,,1,0.7129795000655577,575.2805289999815,None,ScrollDown,정답입니다,575.2805289999815,None,575.2805289999815,None,575.2805289999815,None,575.2805289999815,None,575.9087581000058,None,575.9087581000058,576.4087544999784,,,,,,,,,,,,,,,,210,2023-04-25_19h23.26.637,FishGame,2022.1.1,60.1362688006056,
,19,나를 데려가줘,6,Orange,B,0,0,ScrollDown,ScrollUp,Orange.png,5,NonTarget,NonTarget,,,,,0,0,0,0,,,,,,,,,,,,,,,,,,,,,,,,,,,,,0,18,18,18,,,,,,,,,,,,,,,,,,,,,,,,,,,,,,,,,,,,,,,,,,,,,,,,,,,,,,,,,,,,,,,,,1,1.2484684999799356,577.0153008999769,None,ScrollDown,정답입니다,577.0153008999769,None,577.0153008999769,None,577.0153008999769,None,577.0153008999769,None,578.1754545000149,None,578.1754545000149,578.6753990999423,,,,,,,,,,,,,,,,210,2023-04-25_19h23.26.637,FishGame,2022.1.1,60.1362688006056,
,20,넌 몰인정해,5,Orange,B,2.541666666666667,2.066666666666667,ScrollUp,ScrollDown,Orange.png,5,Negative,Congruent,,,,,0,0,0,0,,,,,,,,,,,,,,,,,,,,,,,,,,,,,0,19,19,19,,,,,,,,,,,,,,,,,,,,,,,,,,,,,,,,,,,,,,,,,,,,,,,,,,,,,,,,,,,,,,,,,1.5570987661679587,0.7293952000327408,579.2848439000081,None,ScrollUp,정답입니다,579.2848439000081,None,579.2848439000081,None,579.2848439000081,None,579.2848439000081,None,579.9255735999905,None,579.9255735999905,580.4287557000061,,,,,,,,,,,,,,,,210,2023-04-25_19h23.26.637,FishGame,2022.1.1,60.1362688006056,
,21,나를 데려가줘,6,Orange,B,0,0,ScrollDown,ScrollUp,Orange.png,5,NonTarget,NonTarget,,,,,0,0,0,0,,,,,,,,,,,,,,,,,,,,,,,,,,,,,0,20,20,20,,,,,,,,,,,,,,,,,,,,,,,,,,,,,,,,,,,,,,,,,,,,,,,,,,,,,,,,,,,,,,,,,1,0.8963741000043228,581.0318630000111,None,ScrollDown,정답입니다,581.0318630000111,None,581.0318630000111,None,581.0318630000111,None,581.0318630000111,None,581.8419645000249,None,581.8419645000249,582.3419832000509,,,,,,,,,,,,,,,,210,2023-04-25_19h23.26.637,FishGame,2022.1.1,60.1362688006056,
,22,넌 순진해,3,Orange,B,4.125,4.166666666666667,ScrollUp,ScrollDown,Orange.png,5,Neutral,Neutral,,,,,0,0,0,0,,,,,,,,,,,,,,,,,,,,,,,,,,,,,0,21,21,21,,,,,,,,,,,,,,,,,,,,,,,,,,,,,,,,,,,,,,,,,,,,,,,,,,,,,,,,,,,,,,,,,1.7206790198882422,0.7487579000880942,582.9483972999733,None,ScrollUp,정답입니다,582.9483972999733,None,582.9483972999733,None,582.9483972999733,None,582.9483972999733,None,583.6086691999808,None,583.6086691999808,584.1086695999838,,,,,,,,,,,,,,,,210,2023-04-25_19h23.26.637,FishGame,2022.1.1,60.1362688006056,
