distractor,target,set,ans1,ans2,rep_loop4.thisRepN,rep_loop4.thisTrialN,rep_loop4.thisN,rep_loop4.thisIndex,st2_prac_loop.thisRepN,st2_prac_loop.thisTrialN,st2_prac_loop.thisN,st2_prac_loop.thisIndex,st2_main_loop.thisRepN,st2_main_loop.thisTrialN,st2_main_loop.thisN,st2_main_loop.thisIndex,image_4.started,image_4.stopped,sound_2.started,sound_2.stopped,key_resp_3.keys,key_resp_3.rt,image_5.started,image_5.stopped,st_prac_back.started,st_prac_back.stopped,st_prac_text.started,st_prac_text.stopped,st_fix_back.started,st_fix_back.stopped,st_fix_2.started,st_fix_2.stopped,main_prac,st_ans,st_res,st_corr,st_rt,st_back.started,st_back.stopped,st2_resp.keys,st2_resp.corr,st_main_back.started,st_main_back.stopped,st_main_text.started,st_main_text.stopped,mouse_4.x,mouse_4.y,mouse_4.leftButton,mouse_4.midButton,mouse_4.rightButton,mouse_4.started,mouse_4.stopped,text_2.started,text_2.stopped,id*,date,expName,psychopyVersion,frameRate,
negative,yellow,1,k,None,,,,,0,0,0,0,,,,,29.276353999972343,None,95.36686873005237,None,space,1.5289984999690205,96.91395469987765,None,99.430542799877,None,99.430542799877,None,101.43357099988498,None,101.43357099988498,None,prac,None,None,1,1.4938964999746531,103.43961180001497,None,None,1,,,,,,,,,,,,,,101,2023-03-27_10h39.38.421,Main,2022.1.1,59.86213752074259,
positive,red,2,None,None,,,,,0,1,1,1,,,,,,,,,,,,,,,,,,,,,prac,None,None,1,1.4990254999138415,105.93421999993734,None,None,1,,,,,,,,,,,,,,101,2023-03-27_10h39.38.421,Main,2022.1.1,59.86213752074259,
negative,blue,2,None,k,,,,,0,2,2,2,,,,,,,,,,,,,,,,,,,,,prac,k,k,1,1.0297787000890821,108.44705469999462,None,None,0,,,,,,,,,,,,,,101,2023-03-27_10h39.38.421,Main,2022.1.1,59.86213752074259,
positive,yellow,1,None,k,,,,,0,3,3,3,,,,,,,,,,,,,,,,,,,,,prac,k,k,1,0.8854383998550475,110.46368429996073,None,None,0,,,,,,,,,,,,,,101,2023-03-27_10h39.38.421,Main,2022.1.1,59.86213752074259,
negative,blue,2,None,k,,,,,0,4,4,4,,,,,,,,,,,,,,,,,,,,,prac,k,k,1,0.7990766998846084,112.35046739992686,None,None,0,,,,,,,,,,,,,,101,2023-03-27_10h39.38.421,Main,2022.1.1,59.86213752074259,
negative,blue,1,None,k,,,,,0,5,5,5,,,,,,,,,,,,,,,,,,,,,prac,k,k,1,0.7992697998415679,114.15086849988438,None,None,0,,,,,,,,,,,,,,101,2023-03-27_10h39.38.421,Main,2022.1.1,59.86213752074259,
negative,yellow,2,k,None,,,,,0,6,6,6,,,,,,,,,,,,,,,,,,,,,prac,None,None,1,1.4955905000679195,115.94976859982125,None,None,1,,,,,,,,,,,,,,101,2023-03-27_10h39.38.421,Main,2022.1.1,59.86213752074259,
negative,red,1,None,None,,,,,0,7,7,7,,,,,,,,,,,,,,,,,,,,,prac,None,k,0,1.1526957000605762,118.44658749992959,None,None,1,,,,,,,,,,,,,,101,2023-03-27_10h39.38.421,Main,2022.1.1,59.86213752074259,
positive,yellow,2,None,k,,,,,0,8,8,8,,,,,,,,,,,,,,,,,,,,,prac,k,k,1,0.8983621001243591,121.59975509997457,None,None,0,,,,,,,,,,,,,,101,2023-03-27_10h39.38.421,Main,2022.1.1,59.86213752074259,
negative,yellow,1,k,None,,,,,0,9,9,9,,,,,,,,,,,,,,,,,,,,,prac,None,k,0,0.8489232000429183,123.49966029985808,None,None,1,,,,,,,,,,,,,,101,2023-03-27_10h39.38.421,Main,2022.1.1,59.86213752074259,
positive,yellow,2,None,k,,,,,0,10,10,10,,,,,,,,,,,,,,,,,,,,,prac,k,k,1,1.2013334999792278,126.36308509996161,None,None,0,,,,,,,,,,,,,,101,2023-03-27_10h39.38.421,Main,2022.1.1,59.86213752074259,
negative,yellow,2,k,None,,,,,0,11,11,11,,,,,,,,,,,,,,,,,,,,,prac,None,None,1,1.501712700119242,128.56629429990426,None,None,1,,,,,,,,,,,,,,101,2023-03-27_10h39.38.421,Main,2022.1.1,59.86213752074259,
negative,red,2,None,None,,,,,0,12,12,12,,,,,,,,,,,,,,,,,,,,,prac,None,None,1,1.4991804999299347,131.06631649984047,None,None,1,,,,,,,,,,,,,,101,2023-03-27_10h39.38.421,Main,2022.1.1,59.86213752074259,
positive,red,1,None,None,,,,,0,13,13,13,,,,,,,,,,,,,,,,,,,,,prac,None,None,1,1.4989163000136614,133.56624149996787,None,None,1,,,,,,,,,,,,,,101,2023-03-27_10h39.38.421,Main,2022.1.1,59.86213752074259,
positive,blue,2,k,None,,,,,0,14,14,14,,,,,,,,,,,,,,,,,,,,,prac,None,k,0,0.7660753999371082,136.06604079995304,None,None,1,,,,,,,,,,,,,,101,2023-03-27_10h39.38.421,Main,2022.1.1,59.86213752074259,
positive,blue,1,k,None,,,,,0,15,15,15,,,,,,,,,,,,,,,,,,,,,prac,None,None,1,1.5010508999694139,138.82982370001264,None,None,1,,,,,,,,,,,,,,101,2023-03-27_10h39.38.421,Main,2022.1.1,59.86213752074259,
negative,blue,1,None,k,,,,,0,16,16,16,,,,,,,,,,,,,,,,,,,,,prac,k,k,1,0.7994442000053823,141.32981709996238,None,None,0,,,,,,,,,,,,,,101,2023-03-27_10h39.38.421,Main,2022.1.1,59.86213752074259,
positive,blue,2,k,None,,,,,0,17,17,17,,,,,,,,,,,,,,,,,,,,,prac,None,None,1,1.4987639000173658,143.12979539996013,None,None,1,,,,,,,,,,,,,,101,2023-03-27_10h39.38.421,Main,2022.1.1,59.86213752074259,
positive,blue,1,k,None,,,,,0,18,18,18,,,,,,,,,,,,,,,,,,,,,prac,None,None,1,1.4989841999486089,145.62971309991553,None,None,1,,,,,,,,,,,,,,101,2023-03-27_10h39.38.421,Main,2022.1.1,59.86213752074259,
positive,yellow,1,None,k,,,,,0,19,19,19,,,,,,,,,,,,,,,,,,,,,prac,k,k,1,1.0129489002283663,148.1325582000427,None,None,0,,,,,,,,,,,,,,101,2023-03-27_10h39.38.421,Main,2022.1.1,59.86213752074259,
negative,yellow,1,k,None,,,,,1,0,20,0,,,,,,,,,,,,,,,,,,,,,prac,None,None,1,1.5022619001101702,150.14600279997103,None,None,1,,,,,,,,,,,,,,101,2023-03-27_10h39.38.421,Main,2022.1.1,59.86213752074259,
positive,red,2,None,None,,,,,1,1,21,1,,,,,,,,,,,,,,,,,,,,,prac,None,None,1,1.4992551000323147,152.6492293998599,None,None,1,,,,,,,,,,,,,,101,2023-03-27_10h39.38.421,Main,2022.1.1,59.86213752074259,
negative,blue,2,None,k,,,,,1,2,22,2,,,,,,,,,,,,,,,,,,,,,prac,k,k,1,0.9660257000941783,155.14913389994763,None,None,0,,,,,,,,,,,,,,101,2023-03-27_10h39.38.421,Main,2022.1.1,59.86213752074259,
positive,yellow,1,None,k,,,,,1,3,23,3,,,,,,,,,,,,,,,,,,,,,prac,k,k,1,1.1129215999972075,157.1129179999698,None,None,0,,,,,,,,,,,,,,101,2023-03-27_10h39.38.421,Main,2022.1.1,59.86213752074259,
negative,blue,2,None,k,,,,,1,4,24,4,,,,,,,,,,,,,,,,,,,,,prac,k,k,1,0.7823996001388878,159.22937870002352,None,None,0,,,,,,,,,,,,,,101,2023-03-27_10h39.38.421,Main,2022.1.1,59.86213752074259,
negative,blue,1,None,k,,,,,1,5,25,5,,,,,,,,,,,,,,,,,,,,,prac,k,k,1,0.8493214000482112,161.01560879987665,None,None,0,,,,,,,,,,,,,,101,2023-03-27_10h39.38.421,Main,2022.1.1,59.86213752074259,
negative,yellow,2,k,None,,,,,1,6,26,6,,,,,,,,,,,,,,,,,,,,,prac,None,None,1,1.50171949993819,162.86266539990902,None,None,1,,,,,,,,,,,,,,101,2023-03-27_10h39.38.421,Main,2022.1.1,59.86213752074259,
negative,red,1,None,None,,,,,1,7,27,7,,,,,,,,,,,,,,,,,,,,,prac,None,None,1,1.4991627000272274,165.36551239993423,None,None,1,,,,,,,,,,,,,,101,2023-03-27_10h39.38.421,Main,2022.1.1,59.86213752074259,
positive,yellow,2,None,k,,,,,1,8,28,8,,,,,,,,,,,,,,,,,,,,,prac,k,k,1,0.8799517001025379,167.8654081998393,None,None,0,,,,,,,,,,,,,,101,2023-03-27_10h39.38.421,Main,2022.1.1,59.86213752074259,
negative,yellow,1,k,None,,,,,1,9,29,9,,,,,,,,,,,,,,,,,,,,,prac,None,None,1,1.4985783998854458,169.74880479997955,None,None,1,,,,,,,,,,,,,,101,2023-03-27_10h39.38.421,Main,2022.1.1,59.86213752074259,
positive,yellow,2,None,k,,,,,1,10,30,10,,,,,,,,,,,,,,,,,,,,,prac,k,k,1,1.249539199983701,172.24554839986376,None,None,0,,,,,,,,,,,,,,101,2023-03-27_10h39.38.421,Main,2022.1.1,59.86213752074259,
negative,yellow,2,k,None,,,,,1,11,31,11,,,,,,,,,,,,,,,,,,,,,prac,None,None,1,1.5020953000057489,174.4955396000296,None,None,1,,,,,,,,,,,,,,101,2023-03-27_10h39.38.421,Main,2022.1.1,59.86213752074259,
negative,red,2,None,None,,,,,1,12,32,12,,,,,,,,,,,,,,,,,,,,,prac,None,None,1,1.4962377999909222,176.99870370002463,None,None,1,,,,,,,,,,,,,,101,2023-03-27_10h39.38.421,Main,2022.1.1,59.86213752074259,
positive,red,1,None,None,,,,,1,13,33,13,,,,,,,,,,,,,,,,,,,,,prac,None,None,1,1.5021230999846011,179.49859149986878,None,None,1,,,,,,,,,,,,,,101,2023-03-27_10h39.38.421,Main,2022.1.1,59.86213752074259,
positive,blue,2,k,None,,,,,1,14,34,14,,,,,,,,,,,,,,,,,,,,,prac,None,None,1,1.4991050001699477,181.99853360000998,None,None,1,,,,,,,,,,,,,,101,2023-03-27_10h39.38.421,Main,2022.1.1,59.86213752074259,
positive,blue,1,k,None,,,,,1,15,35,15,,,,,,,,,,,,,,,,,,,,,prac,None,None,1,1.496315099997446,184.49557180004194,None,None,1,,,,,,,,,,,,,,101,2023-03-27_10h39.38.421,Main,2022.1.1,59.86213752074259,
negative,blue,1,None,k,,,,,1,16,36,16,,,,,,,,,,,,,,,,,,,,,prac,k,k,1,0.8022197000682354,186.99556169984862,None,None,0,,,,,,,,,,,,,,101,2023-03-27_10h39.38.421,Main,2022.1.1,59.86213752074259,
positive,blue,2,k,None,,,,,1,17,37,17,,,,,,,,,,,,,,,,,,,,,prac,None,None,1,1.4997338000684977,188.7955101998523,None,None,1,,,,,,,,,,,,,,101,2023-03-27_10h39.38.421,Main,2022.1.1,59.86213752074259,
positive,blue,1,k,None,,,,,1,18,38,18,,,,,,,,,,,,,,,,,,,,,prac,None,k,0,0.9320227999705821,191.29833659995347,None,None,1,,,,,,,,,,,,,,101,2023-03-27_10h39.38.421,Main,2022.1.1,59.86213752074259,
positive,yellow,1,None,k,,,,,1,19,39,19,,,,,,,,,,,,,,,,,,,,,prac,k,k,1,2.798125799978152,194.23160959989764,None,None,0,,,,,,,,,,,,,,101,2023-03-27_10h39.38.421,Main,2022.1.1,59.86213752074259,
,,,,,,,,,,,,,,,,,,,,,,,,,,,,,,,,,,,,,,,,,,199.03159269993193,None,199.03159269993193,None,-0.027777778,-0.062037036,0,0,0,0.016410830430686474,None,,,101,2023-03-27_10h39.38.421,Main,2022.1.1,59.86213752074259,
negative,yellow,2,k,None,,,,,,,,,0,0,0,0,,,,,,,,,,,,,200.04822689993307,None,200.04822689993307,None,main,None,None,1,1.5056158998049796,202.06715999986045,None,None,1,,,,,,,,,,,,,,101,2023-03-27_10h39.38.421,Main,2022.1.1,59.86213752074259,
positive,red,1,None,None,,,,,,,,,0,1,1,1,,,,,,,,,,,,,,,,,main,None,None,1,1.4952980999369174,204.57836179994047,None,None,1,,,,,,,,,,,,,,101,2023-03-27_10h39.38.421,Main,2022.1.1,59.86213752074259,
positive,blue,2,k,None,,,,,,,,,0,2,2,2,,,,,,,,,,,,,,,,,main,None,k,0,0.7524885998573154,207.07827669987455,None,None,1,,,,,,,,,,,,,,101,2023-03-27_10h39.38.421,Main,2022.1.1,59.86213752074259,
positive,blue,1,k,None,,,,,,,,,0,3,3,3,,,,,,,,,,,,,,,,,main,None,None,1,1.5011547999456525,209.83136069984175,None,None,1,,,,,,,,,,,,,,101,2023-03-27_10h39.38.421,Main,2022.1.1,59.86213752074259,
negative,yellow,2,k,None,,,,,,,,,0,4,4,4,,,,,,,,,,,,,,,,,main,None,None,1,1.4986927998252213,212.33135839994065,None,None,1,,,,,,,,,,,,,,101,2023-03-27_10h39.38.421,Main,2022.1.1,59.86213752074259,
positive,yellow,2,None,k,,,,,,,,,0,5,5,5,,,,,,,,,,,,,,,,,main,k,k,1,1.0132001999299973,214.83112709992565,None,None,0,,,,,,,,,,,,,,101,2023-03-27_10h39.38.421,Main,2022.1.1,59.86213752074259,
negative,blue,2,None,k,,,,,,,,,0,6,6,6,,,,,,,,,,,,,,,,,main,k,k,1,1.8959852000698447,216.847767499974,None,None,0,,,,,,,,,,,,,,101,2023-03-27_10h39.38.421,Main,2022.1.1,59.86213752074259,
positive,red,2,None,None,,,,,,,,,0,7,7,7,,,,,,,,,,,,,,,,,main,None,None,1,1.5009469999931753,220.74778249999508,None,None,1,,,,,,,,,,,,,,101,2023-03-27_10h39.38.421,Main,2022.1.1,59.86213752074259,
positive,yellow,1,None,k,,,,,,,,,0,8,8,8,,,,,,,,,,,,,,,,,main,k,k,1,1.0463167000561953,223.24774659983814,None,None,0,,,,,,,,,,,,,,101,2023-03-27_10h39.38.421,Main,2022.1.1,59.86213752074259,
negative,red,1,None,None,,,,,,,,,0,9,9,9,,,,,,,,,,,,,,,,,main,None,None,1,1.4986527001019567,225.2977429998573,None,None,1,,,,,,,,,,,,,,101,2023-03-27_10h39.38.421,Main,2022.1.1,59.86213752074259,
positive,yellow,1,None,k,,,,,,,,,0,10,10,10,,,,,,,,,,,,,,,,,main,k,k,1,0.8660608998034149,227.79449609993026,None,None,0,,,,,,,,,,,,,,101,2023-03-27_10h39.38.421,Main,2022.1.1,59.86213752074259,
negative,yellow,1,k,None,,,,,,,,,0,11,11,11,,,,,,,,,,,,,,,,,main,None,None,1,1.502190100029111,229.6611734998878,None,None,1,,,,,,,,,,,,,,101,2023-03-27_10h39.38.421,Main,2022.1.1,59.86213752074259,
negative,yellow,1,k,None,,,,,,,,,0,12,12,12,,,,,,,,,,,,,,,,,main,None,k,0,0.9993068999610841,232.16426360001788,None,None,1,,,,,,,,,,,,,,101,2023-03-27_10h39.38.421,Main,2022.1.1,59.86213752074259,
negative,red,2,None,None,,,,,,,,,0,13,13,13,,,,,,,,,,,,,,,,,main,None,None,1,1.501141499960795,235.1642127998639,None,None,1,,,,,,,,,,,,,,101,2023-03-27_10h39.38.421,Main,2022.1.1,59.86213752074259,
positive,yellow,2,None,k,,,,,,,,,0,14,14,14,,,,,,,,,,,,,,,,,main,k,k,1,1.1628783999476582,237.66407759999856,None,None,0,,,,,,,,,,,,,,101,2023-03-27_10h39.38.421,Main,2022.1.1,59.86213752074259,
positive,blue,1,k,None,,,,,,,,,0,15,15,15,,,,,,,,,,,,,,,,,main,None,None,1,1.498955100076273,239.82787079992704,None,None,1,,,,,,,,,,,,,,101,2023-03-27_10h39.38.421,Main,2022.1.1,59.86213752074259,
negative,blue,1,None,k,,,,,,,,,0,16,16,16,,,,,,,,,,,,,,,,,main,k,k,1,0.7688959999941289,242.32782060001045,None,None,0,,,,,,,,,,,,,,101,2023-03-27_10h39.38.421,Main,2022.1.1,59.86213752074259,
positive,blue,2,k,None,,,,,,,,,0,17,17,17,,,,,,,,,,,,,,,,,main,None,None,1,1.4990817999932915,244.09450050001033,None,None,1,,,,,,,,,,,,,,101,2023-03-27_10h39.38.421,Main,2022.1.1,59.86213752074259,
negative,blue,2,None,k,,,,,,,,,0,18,18,18,,,,,,,,,,,,,,,,,main,k,k,1,0.7993282999377698,246.59445239999332,None,None,0,,,,,,,,,,,,,,101,2023-03-27_10h39.38.421,Main,2022.1.1,59.86213752074259,
negative,blue,1,None,k,,,,,,,,,0,19,19,19,,,,,,,,,,,,,,,,,main,k,k,1,0.9124427000060678,248.39441059995443,None,None,0,,,,,,,,,,,,,,101,2023-03-27_10h39.38.421,Main,2022.1.1,59.86213752074259,
negative,blue,1,None,k,,,,,,,,,0,20,20,20,,,,,,,,,,,,,,,,,main,k,k,1,0.6192407999187708,250.3107193999458,None,None,0,,,,,,,,,,,,,,101,2023-03-27_10h39.38.421,Main,2022.1.1,59.86213752074259,
negative,blue,2,None,k,,,,,,,,,0,21,21,21,,,,,,,,,,,,,,,,,main,k,k,1,0.765809099888429,251.93056220002472,None,None,0,,,,,,,,,,,,,,101,2023-03-27_10h39.38.421,Main,2022.1.1,59.86213752074259,
negative,red,1,None,None,,,,,,,,,0,22,22,22,,,,,,,,,,,,,,,,,main,None,None,1,1.4989662000443786,253.69723549997434,None,None,1,,,,,,,,,,,,,,101,2023-03-27_10h39.38.421,Main,2022.1.1,59.86213752074259,
positive,red,2,None,None,,,,,,,,,0,23,23,23,,,,,,,,,,,,,,,,,main,None,None,1,1.4991482999175787,256.19718239991926,None,None,1,,,,,,,,,,,,,,101,2023-03-27_10h39.38.421,Main,2022.1.1,59.86213752074259,
negative,red,2,None,None,,,,,,,,,0,24,24,24,,,,,,,,,,,,,,,,,main,None,None,1,1.4990494998637587,258.694135800004,None,None,1,,,,,,,,,,,,,,101,2023-03-27_10h39.38.421,Main,2022.1.1,59.86213752074259,
positive,blue,2,k,None,,,,,,,,,0,25,25,25,,,,,,,,,,,,,,,,,main,None,None,1,1.4963505000341684,261.19410960003734,None,None,1,,,,,,,,,,,,,,101,2023-03-27_10h39.38.421,Main,2022.1.1,59.86213752074259,
negative,yellow,1,k,None,,,,,,,,,0,26,26,26,,,,,,,,,,,,,,,,,main,None,None,1,1.5021231998689473,263.69406350003555,None,None,1,,,,,,,,,,,,,,101,2023-03-27_10h39.38.421,Main,2022.1.1,59.86213752074259,
positive,blue,2,k,None,,,,,,,,,0,27,27,27,,,,,,,,,,,,,,,,,main,None,None,1,1.499138900078833,266.1940369999502,None,None,1,,,,,,,,,,,,,,101,2023-03-27_10h39.38.421,Main,2022.1.1,59.86213752074259,
negative,blue,2,None,k,,,,,,,,,0,28,28,28,,,,,,,,,,,,,,,,,main,k,k,1,0.7159851000178605,268.69683080003597,None,None,0,,,,,,,,,,,,,,101,2023-03-27_10h39.38.421,Main,2022.1.1,59.86213752074259,
positive,red,1,None,None,,,,,,,,,0,29,29,29,,,,,,,,,,,,,,,,,main,None,None,1,1.4959332998842,270.41353609994985,None,None,1,,,,,,,,,,,,,,101,2023-03-27_10h39.38.421,Main,2022.1.1,59.86213752074259,
positive,blue,1,k,None,,,,,,,,,0,30,30,30,,,,,,,,,,,,,,,,,main,None,None,1,1.5024896000977606,272.91027949983254,None,None,1,,,,,,,,,,,,,,101,2023-03-27_10h39.38.421,Main,2022.1.1,59.86213752074259,
positive,yellow,1,None,k,,,,,,,,,0,31,31,31,,,,,,,,,,,,,,,,,main,k,k,1,0.9843266999814659,275.41343339998275,None,None,0,,,,,,,,,,,,,,101,2023-03-27_10h39.38.421,Main,2022.1.1,59.86213752074259,
negative,yellow,2,k,None,,,,,,,,,0,32,32,32,,,,,,,,,,,,,,,,,main,None,None,1,1.497397999977693,277.39676499995403,None,None,1,,,,,,,,,,,,,,101,2023-03-27_10h39.38.421,Main,2022.1.1,59.86213752074259,
negative,blue,1,None,k,,,,,,,,,0,33,33,33,,,,,,,,,,,,,,,,,main,k,k,1,0.8323806000407785,279.89673959999345,None,None,0,,,,,,,,,,,,,,101,2023-03-27_10h39.38.421,Main,2022.1.1,59.86213752074259,
positive,blue,1,k,None,,,,,,,,,0,34,34,34,,,,,,,,,,,,,,,,,main,None,None,1,1.49886679998599,281.7298250000458,None,None,1,,,,,,,,,,,,,,101,2023-03-27_10h39.38.421,Main,2022.1.1,59.86213752074259,
negative,yellow,1,k,None,,,,,,,,,0,35,35,35,,,,,,,,,,,,,,,,,main,None,None,1,1.4992458999622613,284.2270124000497,None,None,1,,,,,,,,,,,,,,101,2023-03-27_10h39.38.421,Main,2022.1.1,59.86213752074259,
positive,yellow,2,None,k,,,,,,,,,0,36,36,36,,,,,,,,,,,,,,,,,main,k,k,1,0.6967825000174344,286.72699779993854,None,None,0,,,,,,,,,,,,,,101,2023-03-27_10h39.38.421,Main,2022.1.1,59.86213752074259,
positive,yellow,2,None,k,,,,,,,,,0,37,37,37,,,,,,,,,,,,,,,,,main,k,k,1,0.6686231999192387,288.4269361998886,None,None,0,,,,,,,,,,,,,,101,2023-03-27_10h39.38.421,Main,2022.1.1,59.86213752074259,
negative,yellow,2,k,None,,,,,,,,,0,38,38,38,,,,,,,,,,,,,,,,,main,None,None,1,1.4990175999701023,290.0964774999302,None,None,1,,,,,,,,,,,,,,101,2023-03-27_10h39.38.421,Main,2022.1.1,59.86213752074259,
positive,yellow,1,None,k,,,,,,,,,0,39,39,39,,,,,,,,,,,,,,,,,main,k,k,1,0.6961396001279354,292.59647580003366,None,None,0,,,,,,,,,,,,,,101,2023-03-27_10h39.38.421,Main,2022.1.1,59.86213752074259,
negative,yellow,2,k,None,,,,,,,,,0,40,40,40,,,,,,,,,,,,,,,,,main,None,None,1,1.5021865000016987,294.2931973999366,None,None,1,,,,,,,,,,,,,,101,2023-03-27_10h39.38.421,Main,2022.1.1,59.86213752074259,
positive,blue,2,k,None,,,,,,,,,0,41,41,41,,,,,,,,,,,,,,,,,main,None,None,1,1.4991683999542147,296.7964045999106,None,None,1,,,,,,,,,,,,,,101,2023-03-27_10h39.38.421,Main,2022.1.1,59.86213752074259,
positive,blue,2,k,None,,,,,,,,,0,42,42,42,,,,,,,,,,,,,,,,,main,None,None,1,1.4993408999871463,299.29626449989155,None,None,1,,,,,,,,,,,,,,101,2023-03-27_10h39.38.421,Main,2022.1.1,59.86213752074259,
negative,blue,2,None,k,,,,,,,,,0,43,43,43,,,,,,,,,,,,,,,,,main,k,k,1,0.72931639989838,301.7963107000105,None,None,0,,,,,,,,,,,,,,101,2023-03-27_10h39.38.421,Main,2022.1.1,59.86213752074259,
negative,red,1,None,None,,,,,,,,,0,44,44,44,,,,,,,,,,,,,,,,,main,None,None,1,1.5022817000281066,303.5263487000484,None,None,1,,,,,,,,,,,,,,101,2023-03-27_10h39.38.421,Main,2022.1.1,59.86213752074259,
negative,yellow,1,k,None,,,,,,,,,0,45,45,45,,,,,,,,,,,,,,,,,main,None,None,1,1.4991518999449909,306.02951180003583,None,None,1,,,,,,,,,,,,,,101,2023-03-27_10h39.38.421,Main,2022.1.1,59.86213752074259,
negative,yellow,1,k,None,,,,,,,,,0,46,46,46,,,,,,,,,,,,,,,,,main,None,None,1,1.499159700004384,308.5294903998729,None,None,1,,,,,,,,,,,,,,101,2023-03-27_10h39.38.421,Main,2022.1.1,59.86213752074259,
positive,red,1,None,None,,,,,,,,,0,47,47,47,,,,,,,,,,,,,,,,,main,None,None,1,1.4962514000944793,311.0294385999441,None,None,1,,,,,,,,,,,,,,101,2023-03-27_10h39.38.421,Main,2022.1.1,59.86213752074259,
positive,yellow,1,None,k,,,,,,,,,0,48,48,48,,,,,,,,,,,,,,,,,main,k,k,1,1.2188953999429941,313.5264212999027,None,None,0,,,,,,,,,,,,,,101,2023-03-27_10h39.38.421,Main,2022.1.1,59.86213752074259,
negative,blue,1,None,k,,,,,,,,,0,49,49,49,,,,,,,,,,,,,,,,,main,k,k,1,0.9659285000525415,315.7430521999486,None,None,0,,,,,,,,,,,,,,101,2023-03-27_10h39.38.421,Main,2022.1.1,59.86213752074259,
positive,yellow,2,None,k,,,,,,,,,0,50,50,50,,,,,,,,,,,,,,,,,main,k,k,1,0.8491022000089288,317.70954459998757,None,None,0,,,,,,,,,,,,,,101,2023-03-27_10h39.38.421,Main,2022.1.1,59.86213752074259,
negative,blue,1,None,k,,,,,,,,,0,51,51,51,,,,,,,,,,,,,,,,,main,k,k,1,0.6802105000242591,319.55967089999467,None,None,0,,,,,,,,,,,,,,101,2023-03-27_10h39.38.421,Main,2022.1.1,59.86213752074259,
positive,red,2,None,None,,,,,,,,,0,52,52,52,,,,,,,,,,,,,,,,,main,None,None,1,1.5012833001092076,321.24299869989045,None,None,1,,,,,,,,,,,,,,101,2023-03-27_10h39.38.421,Main,2022.1.1,59.86213752074259,
positive,yellow,2,None,k,,,,,,,,,0,53,53,53,,,,,,,,,,,,,,,,,main,k,k,1,1.0629674000665545,323.74579939991236,None,None,0,,,,,,,,,,,,,,101,2023-03-27_10h39.38.421,Main,2022.1.1,59.86213752074259,
negative,red,2,None,None,,,,,,,,,0,54,54,54,,,,,,,,,,,,,,,,,main,None,None,1,1.499048399971798,325.80925960000604,None,None,1,,,,,,,,,,,,,,101,2023-03-27_10h39.38.421,Main,2022.1.1,59.86213752074259,
positive,yellow,1,None,k,,,,,,,,,0,55,55,55,,,,,,,,,,,,,,,,,main,k,k,1,0.7858857000246644,328.30924819991924,None,None,0,,,,,,,,,,,,,,101,2023-03-27_10h39.38.421,Main,2022.1.1,59.86213752074259,
negative,blue,2,None,k,,,,,,,,,0,56,56,56,,,,,,,,,,,,,,,,,main,k,k,1,0.7992070999462157,330.09580469992943,None,None,0,,,,,,,,,,,,,,101,2023-03-27_10h39.38.421,Main,2022.1.1,59.86213752074259,
positive,blue,1,k,None,,,,,,,,,0,57,57,57,,,,,,,,,,,,,,,,,main,None,None,1,1.499004099983722,331.89573340001516,None,None,1,,,,,,,,,,,,,,101,2023-03-27_10h39.38.421,Main,2022.1.1,59.86213752074259,
positive,blue,1,k,None,,,,,,,,,0,58,58,58,,,,,,,,,,,,,,,,,main,None,None,1,1.496129000093788,334.3928290999029,None,None,1,,,,,,,,,,,,,,101,2023-03-27_10h39.38.421,Main,2022.1.1,59.86213752074259,
negative,yellow,2,k,None,,,,,,,,,0,59,59,59,,,,,,,,,,,,,,,,,main,None,None,1,1.5020627998746932,336.89263439993374,None,None,1,,,,,,,,,,,,,,101,2023-03-27_10h39.38.421,Main,2022.1.1,59.86213752074259,
positive,red,2,None,None,,,,,,,,,0,60,60,60,,,,,,,,,,,,,,,,,main,None,None,1,1.4992402999196202,339.39261139999144,None,None,1,,,,,,,,,,,,,,101,2023-03-27_10h39.38.421,Main,2022.1.1,59.86213752074259,
negative,yellow,1,k,None,,,,,,,,,0,61,61,61,,,,,,,,,,,,,,,,,main,None,None,1,1.4962794999592006,341.8953849999234,None,None,1,,,,,,,,,,,,,,101,2023-03-27_10h39.38.421,Main,2022.1.1,59.86213752074259,
negative,red,1,None,None,,,,,,,,,0,62,62,62,,,,,,,,,,,,,,,,,main,None,None,1,1.4992706999182701,344.39531870000064,None,None,1,,,,,,,,,,,,,,101,2023-03-27_10h39.38.421,Main,2022.1.1,59.86213752074259,
negative,blue,1,None,k,,,,,,,,,0,63,63,63,,,,,,,,,,,,,,,,,main,k,k,1,0.9023424000479281,346.8953672000207,None,None,0,,,,,,,,,,,,,,101,2023-03-27_10h39.38.421,Main,2022.1.1,59.86213752074259,
positive,blue,2,k,None,,,,,,,,,0,64,64,64,,,,,,,,,,,,,,,,,main,None,None,1,1.495749100111425,348.79529769998044,None,None,1,,,,,,,,,,,,,,101,2023-03-27_10h39.38.421,Main,2022.1.1,59.86213752074259,
negative,yellow,2,k,None,,,,,,,,,0,65,65,65,,,,,,,,,,,,,,,,,main,None,None,1,1.502167300088331,351.29209949984215,None,None,1,,,,,,,,,,,,,,101,2023-03-27_10h39.38.421,Main,2022.1.1,59.86213752074259,
positive,yellow,2,None,k,,,,,,,,,0,66,66,66,,,,,,,,,,,,,,,,,main,k,k,1,0.8159768001642078,353.79531920002773,None,None,0,,,,,,,,,,,,,,101,2023-03-27_10h39.38.421,Main,2022.1.1,59.86213752074259,
positive,yellow,2,None,k,,,,,,,,,0,67,67,67,,,,,,,,,,,,,,,,,main,k,k,1,1.6154053998179734,355.6119472999126,None,None,0,,,,,,,,,,,,,,101,2023-03-27_10h39.38.421,Main,2022.1.1,59.86213752074259,
positive,red,1,None,None,,,,,,,,,0,68,68,68,,,,,,,,,,,,,,,,,main,None,None,1,1.4876323000062257,359.241951999953,None,None,1,,,,,,,,,,,,,,101,2023-03-27_10h39.38.421,Main,2022.1.1,59.86213752074259,
positive,yellow,1,None,k,,,,,,,,,0,69,69,69,,,,,,,,,,,,,,,,,main,k,k,1,1.3337862000335008,361.72847620001994,None,None,0,,,,,,,,,,,,,,101,2023-03-27_10h39.38.421,Main,2022.1.1,59.86213752074259,
negative,yellow,2,k,None,,,,,,,,,0,70,70,70,,,,,,,,,,,,,,,,,main,None,None,1,1.4973865000065416,364.0618223999627,None,None,1,,,,,,,,,,,,,,101,2023-03-27_10h39.38.421,Main,2022.1.1,59.86213752074259,
positive,yellow,1,None,k,,,,,,,,,0,71,71,71,,,,,,,,,,,,,,,,,main,k,k,1,0.8000800001900643,366.5616949000396,None,None,0,,,,,,,,,,,,,,101,2023-03-27_10h39.38.421,Main,2022.1.1,59.86213752074259,
negative,blue,1,None,k,,,,,,,,,0,72,72,72,,,,,,,,,,,,,,,,,main,k,k,1,0.7963061998598278,368.3587396000512,None,None,0,,,,,,,,,,,,,,101,2023-03-27_10h39.38.421,Main,2022.1.1,59.86213752074259,
negative,red,2,None,None,,,,,,,,,0,73,73,73,,,,,,,,,,,,,,,,,main,None,None,1,1.5001936999615282,370.1615533998702,None,None,1,,,,,,,,,,,,,,101,2023-03-27_10h39.38.421,Main,2022.1.1,59.86213752074259,
positive,blue,2,k,None,,,,,,,,,0,74,74,74,,,,,,,,,,,,,,,,,main,None,None,1,1.4964437000453472,372.661425499944,None,None,1,,,,,,,,,,,,,,101,2023-03-27_10h39.38.421,Main,2022.1.1,59.86213752074259,
negative,blue,2,None,k,,,,,,,,,0,75,75,75,,,,,,,,,,,,,,,,,main,k,k,1,0.7522243000566959,375.1586112999357,None,None,0,,,,,,,,,,,,,,101,2023-03-27_10h39.38.421,Main,2022.1.1,59.86213752074259,
negative,blue,2,None,k,,,,,,,,,0,76,76,76,,,,,,,,,,,,,,,,,main,k,k,1,0.6126502000261098,376.9085929999128,None,None,0,,,,,,,,,,,,,,101,2023-03-27_10h39.38.421,Main,2022.1.1,59.86213752074259,
negative,yellow,1,k,None,,,,,,,,,0,77,77,77,,,,,,,,,,,,,,,,,main,None,None,1,1.4988124000374228,378.5252404999919,None,None,1,,,,,,,,,,,,,,101,2023-03-27_10h39.38.421,Main,2022.1.1,59.86213752074259,
positive,blue,1,k,None,,,,,,,,,0,78,78,78,,,,,,,,,,,,,,,,,main,None,None,1,1.5023419000208378,381.0248818998225,None,None,1,,,,,,,,,,,,,,101,2023-03-27_10h39.38.421,Main,2022.1.1,59.86213752074259,
positive,blue,1,k,None,,,,,,,,,0,79,79,79,,,,,,,,,,,,,,,,,main,None,None,1,1.4992471998557448,383.52812270005234,None,None,1,,,,,,,,,,,,,,101,2023-03-27_10h39.38.421,Main,2022.1.1,59.86213752074259,
positive,red,2,None,None,,,,,,,,,0,80,80,80,,,,,,,,,,,,,,,,,main,None,None,1,1.4993579001165926,386.0280913999304,None,None,1,,,,,,,,,,,,,,101,2023-03-27_10h39.38.421,Main,2022.1.1,59.86213752074259,
positive,yellow,2,None,k,,,,,,,,,0,81,81,81,,,,,,,,,,,,,,,,,main,k,k,1,1.0626342999748886,388.5279309998732,None,None,0,,,,,,,,,,,,,,101,2023-03-27_10h39.38.421,Main,2022.1.1,59.86213752074259,
positive,blue,1,k,None,,,,,,,,,0,82,82,82,,,,,,,,,,,,,,,,,main,None,None,1,1.5023312999401242,390.59134729998186,None,None,1,,,,,,,,,,,,,,101,2023-03-27_10h39.38.421,Main,2022.1.1,59.86213752074259,
negative,yellow,2,k,None,,,,,,,,,0,83,83,83,,,,,,,,,,,,,,,,,main,None,None,1,1.499214299954474,393.0945609998889,None,None,1,,,,,,,,,,,,,,101,2023-03-27_10h39.38.421,Main,2022.1.1,59.86213752074259,
positive,blue,2,k,None,,,,,,,,,0,84,84,84,,,,,,,,,,,,,,,,,main,None,None,1,1.4991399000864476,395.59450039989315,None,None,1,,,,,,,,,,,,,,101,2023-03-27_10h39.38.421,Main,2022.1.1,59.86213752074259,
positive,yellow,1,None,k,,,,,,,,,0,85,85,85,,,,,,,,,,,,,,,,,main,k,k,1,1.063029499957338,398.09451789991,None,None,0,,,,,,,,,,,,,,101,2023-03-27_10h39.38.421,Main,2022.1.1,59.86213752074259,
positive,blue,2,k,None,,,,,,,,,0,86,86,86,,,,,,,,,,,,,,,,,main,None,None,1,1.5017872999887913,400.1609212998301,None,None,1,,,,,,,,,,,,,,101,2023-03-27_10h39.38.421,Main,2022.1.1,59.86213752074259,
positive,blue,1,k,None,,,,,,,,,0,87,87,87,,,,,,,,,,,,,,,,,main,None,None,1,1.4964184002019465,402.660903400043,None,None,1,,,,,,,,,,,,,,101,2023-03-27_10h39.38.421,Main,2022.1.1,59.86213752074259,
negative,yellow,2,k,None,,,,,,,,,0,88,88,88,,,,,,,,,,,,,,,,,main,None,None,1,1.5019561001099646,405.1580328999553,None,None,1,,,,,,,,,,,,,,101,2023-03-27_10h39.38.421,Main,2022.1.1,59.86213752074259,
negative,blue,2,None,k,,,,,,,,,0,89,89,89,,,,,,,,,,,,,,,,,main,k,k,1,0.8164906001184136,407.6609354999382,None,None,0,,,,,,,,,,,,,,101,2023-03-27_10h39.38.421,Main,2022.1.1,59.86213752074259,
positive,yellow,2,None,k,,,,,,,,,0,90,90,90,,,,,,,,,,,,,,,,,main,k,k,1,0.8656392998527735,409.4746447999496,None,None,0,,,,,,,,,,,,,,101,2023-03-27_10h39.38.421,Main,2022.1.1,59.86213752074259,
negative,yellow,1,k,None,,,,,,,,,0,91,91,91,,,,,,,,,,,,,,,,,main,None,None,1,1.4957538000307977,411.344106500037,None,None,1,,,,,,,,,,,,,,101,2023-03-27_10h39.38.421,Main,2022.1.1,59.86213752074259,
negative,red,2,None,None,,,,,,,,,0,92,92,92,,,,,,,,,,,,,,,,,main,None,None,1,1.5024693000596017,413.84095379989594,None,None,1,,,,,,,,,,,,,,101,2023-03-27_10h39.38.421,Main,2022.1.1,59.86213752074259,
negative,blue,2,None,k,,,,,,,,,0,93,93,93,,,,,,,,,,,,,,,,,main,k,k,1,0.8159632999449968,416.3441424998455,None,None,0,,,,,,,,,,,,,,101,2023-03-27_10h39.38.421,Main,2022.1.1,59.86213752074259,
negative,blue,1,None,k,,,,,,,,,0,94,94,94,,,,,,,,,,,,,,,,,main,k,k,1,0.9325834000483155,418.16080920002423,None,None,0,,,,,,,,,,,,,,101,2023-03-27_10h39.38.421,Main,2022.1.1,59.86213752074259,
negative,blue,1,None,k,,,,,,,,,0,95,95,95,,,,,,,,,,,,,,,,,main,k,k,1,0.6147899001371115,420.0940841999836,None,None,0,,,,,,,,,,,,,,101,2023-03-27_10h39.38.421,Main,2022.1.1,59.86213752074259,
negative,red,1,None,None,,,,,,,,,0,96,96,96,,,,,,,,,,,,,,,,,main,None,None,1,1.4989136001095176,421.7076337998733,None,None,1,,,,,,,,,,,,,,101,2023-03-27_10h39.38.421,Main,2022.1.1,59.86213752074259,
positive,yellow,1,None,k,,,,,,,,,0,97,97,97,,,,,,,,,,,,,,,,,main,k,k,1,0.7633584002032876,424.2076619998552,None,None,0,,,,,,,,,,,,,,101,2023-03-27_10h39.38.421,Main,2022.1.1,59.86213752074259,
negative,yellow,1,k,None,,,,,,,,,0,98,98,98,,,,,,,,,,,,,,,,,main,None,k,0,0.6825755999889225,425.97723399987444,None,None,1,,,,,,,,,,,,,,101,2023-03-27_10h39.38.421,Main,2022.1.1,59.86213752074259,
positive,red,1,None,None,,,,,,,,,0,99,99,99,,,,,,,,,,,,,,,,,main,None,None,1,1.5009304999839514,428.6603616999928,None,None,1,,,,,,,,,,,,,,101,2023-03-27_10h39.38.421,Main,2022.1.1,59.86213752074259,
positive,blue,1,k,None,,,,,,,,,0,100,100,100,,,,,,,,,,,,,,,,,main,None,None,1,1.4990028999745846,431.1603758998681,None,None,1,,,,,,,,,,,,,,101,2023-03-27_10h39.38.421,Main,2022.1.1,59.86213752074259,
negative,yellow,1,k,None,,,,,,,,,0,101,101,101,,,,,,,,,,,,,,,,,main,None,None,1,1.4959745998494327,433.66032679984346,None,None,1,,,,,,,,,,,,,,101,2023-03-27_10h39.38.421,Main,2022.1.1,59.86213752074259,
negative,blue,2,None,k,,,,,,,,,0,102,102,102,,,,,,,,,,,,,,,,,main,k,k,1,0.8360396998468786,436.1571900998242,None,None,0,,,,,,,,,,,,,,101,2023-03-27_10h39.38.421,Main,2022.1.1,59.86213752074259,
negative,yellow,2,k,None,,,,,,,,,0,103,103,103,,,,,,,,,,,,,,,,,main,None,None,1,1.498844200046733,437.99371219985187,None,None,1,,,,,,,,,,,,,,101,2023-03-27_10h39.38.421,Main,2022.1.1,59.86213752074259,
positive,yellow,2,None,k,,,,,,,,,0,104,104,104,,,,,,,,,,,,,,,,,main,k,k,1,1.0131983999162912,440.4935563998297,None,None,0,,,,,,,,,,,,,,101,2023-03-27_10h39.38.421,Main,2022.1.1,59.86213752074259,
positive,blue,1,k,None,,,,,,,,,0,105,105,105,,,,,,,,,,,,,,,,,main,None,None,1,1.4986801000777632,442.5102283000015,None,None,1,,,,,,,,,,,,,,101,2023-03-27_10h39.38.421,Main,2022.1.1,59.86213752074259,
positive,blue,2,k,None,,,,,,,,,0,106,106,106,,,,,,,,,,,,,,,,,main,None,None,1,1.4992047999985516,445.0070056000259,None,None,1,,,,,,,,,,,,,,101,2023-03-27_10h39.38.421,Main,2022.1.1,59.86213752074259,
negative,blue,1,None,k,,,,,,,,,0,107,107,107,,,,,,,,,,,,,,,,,main,k,k,1,0.6691060001030564,447.50697849993594,None,None,0,,,,,,,,,,,,,,101,2023-03-27_10h39.38.421,Main,2022.1.1,59.86213752074259,
positive,yellow,2,None,k,,,,,,,,,0,108,108,108,,,,,,,,,,,,,,,,,main,k,k,1,1.0326213000807911,449.17676729988307,None,None,0,,,,,,,,,,,,,,101,2023-03-27_10h39.38.421,Main,2022.1.1,59.86213752074259,
negative,yellow,1,k,None,,,,,,,,,0,109,109,109,,,,,,,,,,,,,,,,,main,None,None,1,1.4989728000946343,451.2100668998901,None,None,1,,,,,,,,,,,,,,101,2023-03-27_10h39.38.421,Main,2022.1.1,59.86213752074259,
negative,blue,2,None,k,,,,,,,,,0,110,110,110,,,,,,,,,,,,,,,,,main,k,k,1,0.6795365000143647,453.71007759985514,None,None,0,,,,,,,,,,,,,,101,2023-03-27_10h39.38.421,Main,2022.1.1,59.86213752074259,
positive,blue,2,k,None,,,,,,,,,0,111,111,111,,,,,,,,,,,,,,,,,main,None,None,1,1.5019257999956608,455.39033349999227,None,None,1,,,,,,,,,,,,,,101,2023-03-27_10h39.38.421,Main,2022.1.1,59.86213752074259,
negative,blue,1,None,k,,,,,,,,,0,112,112,112,,,,,,,,,,,,,,,,,main,k,k,1,0.6800286001525819,457.89032729994506,None,None,0,,,,,,,,,,,,,,101,2023-03-27_10h39.38.421,Main,2022.1.1,59.86213752074259,
positive,yellow,1,None,k,,,,,,,,,0,113,113,113,,,,,,,,,,,,,,,,,main,k,k,1,1.018808800028637,459.5764563998673,None,None,0,,,,,,,,,,,,,,101,2023-03-27_10h39.38.421,Main,2022.1.1,59.86213752074259,
negative,red,1,None,None,,,,,,,,,0,114,114,114,,,,,,,,,,,,,,,,,main,None,None,1,1.4987602999899536,461.5930591998622,None,None,1,,,,,,,,,,,,,,101,2023-03-27_10h39.38.421,Main,2022.1.1,59.86213752074259,
positive,red,1,None,None,,,,,,,,,0,115,115,115,,,,,,,,,,,,,,,,,main,None,None,1,1.4993491999339312,464.0931359999813,None,None,1,,,,,,,,,,,,,,101,2023-03-27_10h39.38.421,Main,2022.1.1,59.86213752074259,
negative,red,2,None,None,,,,,,,,,0,116,116,116,,,,,,,,,,,,,,,,,main,None,None,1,1.4957902000751346,466.5902056999039,None,None,1,,,,,,,,,,,,,,101,2023-03-27_10h39.38.421,Main,2022.1.1,59.86213752074259,
negative,yellow,2,k,None,,,,,,,,,0,117,117,117,,,,,,,,,,,,,,,,,main,None,None,1,1.5025150999426842,469.08984149992466,None,None,1,,,,,,,,,,,,,,101,2023-03-27_10h39.38.421,Main,2022.1.1,59.86213752074259,
positive,yellow,1,None,k,,,,,,,,,0,118,118,118,,,,,,,,,,,,,,,,,main,k,k,1,0.8493904999922961,471.59305160003714,None,None,0,,,,,,,,,,,,,,101,2023-03-27_10h39.38.421,Main,2022.1.1,59.86213752074259,
positive,red,2,None,None,,,,,,,,,0,119,119,119,,,,,,,,,,,,,,,,,main,None,None,1,1.5031028999947011,473.4429152999073,None,None,1,,,,,,,,,,,,,,101,2023-03-27_10h39.38.421,Main,2022.1.1,59.86213752074259,
positive,blue,2,k,None,,,,,,,,,0,120,120,120,,,,,,,,,,,,,,,,,main,None,None,1,1.4921222999691963,475.9449054999277,None,None,1,,,,,,,,,,,,,,101,2023-03-27_10h39.38.421,Main,2022.1.1,59.86213752074259,
negative,red,1,None,None,,,,,,,,,0,121,121,121,,,,,,,,,,,,,,,,,main,None,None,1,1.5029980998951942,478.43990110000595,None,None,1,,,,,,,,,,,,,,101,2023-03-27_10h39.38.421,Main,2022.1.1,59.86213752074259,
positive,yellow,2,None,k,,,,,,,,,0,122,122,122,,,,,,,,,,,,,,,,,main,k,k,1,0.8816737001761794,480.94268699991517,None,None,0,,,,,,,,,,,,,,101,2023-03-27_10h39.38.421,Main,2022.1.1,59.86213752074259,
negative,red,2,None,None,,,,,,,,,0,123,123,123,,,,,,,,,,,,,,,,,main,None,None,1,1.4990661998745054,482.82319429982454,None,None,1,,,,,,,,,,,,,,101,2023-03-27_10h39.38.421,Main,2022.1.1,59.86213752074259,
negative,yellow,2,k,None,,,,,,,,,0,124,124,124,,,,,,,,,,,,,,,,,main,None,None,1,1.4992758999578655,485.32594070001505,None,None,1,,,,,,,,,,,,,,101,2023-03-27_10h39.38.421,Main,2022.1.1,59.86213752074259,
positive,red,1,None,None,,,,,,,,,0,125,125,125,,,,,,,,,,,,,,,,,main,None,None,1,1.4958818999584764,487.8259747000411,None,None,1,,,,,,,,,,,,,,101,2023-03-27_10h39.38.421,Main,2022.1.1,59.86213752074259,
negative,blue,2,None,k,,,,,,,,,0,126,126,126,,,,,,,,,,,,,,,,,main,k,k,1,0.8363526999019086,490.32274019997567,None,None,0,,,,,,,,,,,,,,101,2023-03-27_10h39.38.421,Main,2022.1.1,59.86213752074259,
negative,blue,1,None,k,,,,,,,,,0,127,127,127,,,,,,,,,,,,,,,,,main,k,k,1,1.2825315000955015,492.15934679983184,None,None,0,,,,,,,,,,,,,,101,2023-03-27_10h39.38.421,Main,2022.1.1,59.86213752074259,
negative,yellow,1,k,None,,,,,,,,,0,128,128,128,,,,,,,,,,,,,,,,,main,None,k,0,0.9325069999322295,494.44253359991126,None,None,1,,,,,,,,,,,,,,101,2023-03-27_10h39.38.421,Main,2022.1.1,59.86213752074259,
negative,yellow,1,k,None,,,,,,,,,0,129,129,129,,,,,,,,,,,,,,,,,main,None,None,1,1.5007780001033098,497.37587899994105,None,None,1,,,,,,,,,,,,,,101,2023-03-27_10h39.38.421,Main,2022.1.1,59.86213752074259,
positive,blue,1,k,None,,,,,,,,,0,130,130,130,,,,,,,,,,,,,,,,,main,None,None,1,1.4989681001752615,499.8756566999946,None,None,1,,,,,,,,,,,,,,101,2023-03-27_10h39.38.421,Main,2022.1.1,59.86213752074259,
negative,blue,1,None,k,,,,,,,,,0,131,131,131,,,,,,,,,,,,,,,,,main,k,k,1,0.8162392999511212,502.37279399996623,None,None,0,,,,,,,,,,,,,,101,2023-03-27_10h39.38.421,Main,2022.1.1,59.86213752074259,
negative,blue,2,None,k,,,,,,,,,0,132,132,132,,,,,,,,,,,,,,,,,main,k,k,1,0.7796071001794189,504.1924157999456,None,None,0,,,,,,,,,,,,,,101,2023-03-27_10h39.38.421,Main,2022.1.1,59.86213752074259,
positive,blue,2,k,None,,,,,,,,,0,133,133,133,,,,,,,,,,,,,,,,,main,None,None,1,1.4990792002063245,505.9727771000471,None,None,1,,,,,,,,,,,,,,101,2023-03-27_10h39.38.421,Main,2022.1.1,59.86213752074259,
positive,red,2,None,None,,,,,,,,,0,134,134,134,,,,,,,,,,,,,,,,,main,None,None,1,1.4987222999334335,508.47555719991215,None,None,1,,,,,,,,,,,,,,101,2023-03-27_10h39.38.421,Main,2022.1.1,59.86213752074259,
negative,yellow,2,k,None,,,,,,,,,0,135,135,135,,,,,,,,,,,,,,,,,main,None,None,1,1.5026063998229802,510.9723369998392,None,None,1,,,,,,,,,,,,,,101,2023-03-27_10h39.38.421,Main,2022.1.1,59.86213752074259,
positive,yellow,2,None,k,,,,,,,,,0,136,136,136,,,,,,,,,,,,,,,,,main,k,k,1,0.7158641999121755,513.4727381998673,None,None,0,,,,,,,,,,,,,,101,2023-03-27_10h39.38.421,Main,2022.1.1,59.86213752074259,
positive,blue,1,k,None,,,,,,,,,0,137,137,137,,,,,,,,,,,,,,,,,main,None,None,1,1.499010100029409,515.1921826999169,None,None,1,,,,,,,,,,,,,,101,2023-03-27_10h39.38.421,Main,2022.1.1,59.86213752074259,
positive,yellow,1,None,k,,,,,,,,,0,138,138,138,,,,,,,,,,,,,,,,,main,k,k,1,4.4160577999427915,517.6920406999998,None,None,0,,,,,,,,,,,,,,101,2023-03-27_10h39.38.421,Main,2022.1.1,59.86213752074259,
positive,yellow,1,None,k,,,,,,,,,0,139,139,139,,,,,,,,,,,,,,,,,main,k,k,1,0.7151730000041425,524.105709400028,None,None,0,,,,,,,,,,,,,,101,2023-03-27_10h39.38.421,Main,2022.1.1,59.86213752074259,
positive,yellow,1,None,k,,,,,,,,,0,140,140,140,,,,,,,,,,,,,,,,,main,k,k,1,0.651516200043261,525.82524070004,None,None,0,,,,,,,,,,,,,,101,2023-03-27_10h39.38.421,Main,2022.1.1,59.86213752074259,
positive,blue,1,k,None,,,,,,,,,0,141,141,141,,,,,,,,,,,,,,,,,main,None,None,1,1.49909480009228,527.4751338998321,None,None,1,,,,,,,,,,,,,,101,2023-03-27_10h39.38.421,Main,2022.1.1,59.86213752074259,
positive,blue,2,k,None,,,,,,,,,0,142,142,142,,,,,,,,,,,,,,,,,main,None,None,1,1.4962784999515861,529.9723077998497,None,None,1,,,,,,,,,,,,,,101,2023-03-27_10h39.38.421,Main,2022.1.1,59.86213752074259,
positive,yellow,2,None,k,,,,,,,,,0,143,143,143,,,,,,,,,,,,,,,,,main,k,k,1,1.09906080015935,532.472260999959,None,None,0,,,,,,,,,,,,,,101,2023-03-27_10h39.38.421,Main,2022.1.1,59.86213752074259,
negative,yellow,2,k,None,,,,,,,,,0,144,144,144,,,,,,,,,,,,,,,,,main,None,None,1,1.5021762000396848,534.5720100000035,None,None,1,,,,,,,,,,,,,,101,2023-03-27_10h39.38.421,Main,2022.1.1,59.86213752074259,
negative,blue,2,None,k,,,,,,,,,0,145,145,145,,,,,,,,,,,,,,,,,main,k,k,1,1.163089299807325,537.0751155999023,None,None,0,,,,,,,,,,,,,,101,2023-03-27_10h39.38.421,Main,2022.1.1,59.86213752074259,
negative,red,1,None,None,,,,,,,,,0,146,146,146,,,,,,,,,,,,,,,,,main,None,None,1,1.501868500141427,539.2388478999492,None,None,1,,,,,,,,,,,,,,101,2023-03-27_10h39.38.421,Main,2022.1.1,59.86213752074259,
positive,blue,1,k,None,,,,,,,,,0,147,147,147,,,,,,,,,,,,,,,,,main,None,None,1,1.4963297999929637,541.7416610999499,None,None,1,,,,,,,,,,,,,,101,2023-03-27_10h39.38.421,Main,2022.1.1,59.86213752074259,
positive,yellow,1,None,k,,,,,,,,,0,148,148,148,,,,,,,,,,,,,,,,,main,k,k,1,1.3657961999997497,544.2386284999084,None,None,0,,,,,,,,,,,,,,101,2023-03-27_10h39.38.421,Main,2022.1.1,59.86213752074259,
negative,red,2,None,None,,,,,,,,,0,149,149,149,,,,,,,,,,,,,,,,,main,None,None,1,1.5018317999783903,546.6053436999209,None,None,1,,,,,,,,,,,,,,101,2023-03-27_10h39.38.421,Main,2022.1.1,59.86213752074259,
negative,blue,1,None,k,,,,,,,,,0,150,150,150,,,,,,,,,,,,,,,,,main,k,k,1,0.7162973000667989,549.1081544999033,None,None,0,,,,,,,,,,,,,,101,2023-03-27_10h39.38.421,Main,2022.1.1,59.86213752074259,
negative,yellow,2,k,None,,,,,,,,,0,151,151,151,,,,,,,,,,,,,,,,,main,None,None,1,1.4986962000839412,550.8219081999268,None,None,1,,,,,,,,,,,,,,101,2023-03-27_10h39.38.421,Main,2022.1.1,59.86213752074259,
negative,blue,2,None,k,,,,,,,,,0,152,152,152,,,,,,,,,,,,,,,,,main,k,k,1,0.8796997000463307,553.3246823998634,None,None,0,,,,,,,,,,,,,,101,2023-03-27_10h39.38.421,Main,2022.1.1,59.86213752074259,
negative,yellow,1,k,None,,,,,,,,,0,153,153,153,,,,,,,,,,,,,,,,,main,None,None,1,1.5013755999971181,555.2048368998803,None,None,1,,,,,,,,,,,,,,101,2023-03-27_10h39.38.421,Main,2022.1.1,59.86213752074259,
negative,blue,1,None,k,,,,,,,,,0,154,154,154,,,,,,,,,,,,,,,,,main,k,k,1,1.1492371000349522,557.7081291000359,None,None,0,,,,,,,,,,,,,,101,2023-03-27_10h39.38.421,Main,2022.1.1,59.86213752074259,
positive,yellow,2,None,k,,,,,,,,,0,155,155,155,,,,,,,,,,,,,,,,,main,k,k,1,0.8992276000790298,559.8579525998794,None,None,0,,,,,,,,,,,,,,101,2023-03-27_10h39.38.421,Main,2022.1.1,59.86213752074259,
positive,red,2,None,None,,,,,,,,,0,156,156,156,,,,,,,,,,,,,,,,,main,None,None,1,1.4988621000666171,561.755065199919,None,None,1,,,,,,,,,,,,,,101,2023-03-27_10h39.38.421,Main,2022.1.1,59.86213752074259,
positive,red,1,None,None,,,,,,,,,0,157,157,157,,,,,,,,,,,,,,,,,main,None,None,1,1.4961868999525905,564.25495829992,None,None,1,,,,,,,,,,,,,,101,2023-03-27_10h39.38.421,Main,2022.1.1,59.86213752074259,
positive,blue,2,k,None,,,,,,,,,0,158,158,158,,,,,,,,,,,,,,,,,main,None,None,1,1.5022076000459492,566.7577525998931,None,None,1,,,,,,,,,,,,,,101,2023-03-27_10h39.38.421,Main,2022.1.1,59.86213752074259,
negative,yellow,1,k,None,,,,,,,,,0,159,159,159,,,,,,,,,,,,,,,,,main,None,None,1,1.4991027999203652,569.2576184000354,None,None,1,,,,,,,,,,,,,,101,2023-03-27_10h39.38.421,Main,2022.1.1,59.86213752074259,
negative,red,2,None,None,,,,,,,,,0,160,160,160,,,,,,,,,,,,,,,,,main,None,None,1,1.4993660999462008,571.7548312998842,None,None,1,,,,,,,,,,,,,,101,2023-03-27_10h39.38.421,Main,2022.1.1,59.86213752074259,
negative,blue,1,None,k,,,,,,,,,0,161,161,161,,,,,,,,,,,,,,,,,main,k,k,1,0.7462448999285698,574.2575898000505,None,None,0,,,,,,,,,,,,,,101,2023-03-27_10h39.38.421,Main,2022.1.1,59.86213752074259,
negative,blue,1,None,k,,,,,,,,,0,162,162,162,,,,,,,,,,,,,,,,,main,k,k,1,1.0825660999398679,576.0044480999932,None,None,0,,,,,,,,,,,,,,101,2023-03-27_10h39.38.421,Main,2022.1.1,59.86213752074259,
negative,yellow,1,k,None,,,,,,,,,0,163,163,163,,,,,,,,,,,,,,,,,main,None,None,1,1.502186199882999,578.0877562998794,None,None,1,,,,,,,,,,,,,,101,2023-03-27_10h39.38.421,Main,2022.1.1,59.86213752074259,
negative,yellow,1,k,None,,,,,,,,,0,164,164,164,,,,,,,,,,,,,,,,,main,None,None,1,1.4991743001155555,580.5908669999335,None,None,1,,,,,,,,,,,,,,101,2023-03-27_10h39.38.421,Main,2022.1.1,59.86213752074259,
positive,yellow,1,None,k,,,,,,,,,0,165,165,165,,,,,,,,,,,,,,,,,main,k,k,1,0.9660273999907076,583.0908690998331,None,None,0,,,,,,,,,,,,,,101,2023-03-27_10h39.38.421,Main,2022.1.1,59.86213752074259,
negative,red,1,None,None,,,,,,,,,0,166,166,166,,,,,,,,,,,,,,,,,main,None,None,1,1.4987645000219345,585.0574692999944,None,None,1,,,,,,,,,,,,,,101,2023-03-27_10h39.38.421,Main,2022.1.1,59.86213752074259,
negative,yellow,2,k,None,,,,,,,,,0,167,167,167,,,,,,,,,,,,,,,,,main,None,None,1,1.4992090000305325,587.5573797000106,None,None,1,,,,,,,,,,,,,,101,2023-03-27_10h39.38.421,Main,2022.1.1,59.86213752074259,
positive,blue,2,k,None,,,,,,,,,0,168,168,168,,,,,,,,,,,,,,,,,main,None,None,1,1.4992439998313785,590.054438999854,None,None,1,,,,,,,,,,,,,,101,2023-03-27_10h39.38.421,Main,2022.1.1,59.86213752074259,
positive,red,2,None,None,,,,,,,,,0,169,169,169,,,,,,,,,,,,,,,,,main,None,None,1,1.4991886999923736,592.5572629999369,None,None,1,,,,,,,,,,,,,,101,2023-03-27_10h39.38.421,Main,2022.1.1,59.86213752074259,
positive,red,1,None,None,,,,,,,,,0,170,170,170,,,,,,,,,,,,,,,,,main,None,None,1,1.4992313000839204,595.0572056998499,None,None,1,,,,,,,,,,,,,,101,2023-03-27_10h39.38.421,Main,2022.1.1,59.86213752074259,
negative,blue,2,None,k,,,,,,,,,0,171,171,171,,,,,,,,,,,,,,,,,main,k,k,1,0.6961639998480678,597.5543198999949,None,None,0,,,,,,,,,,,,,,101,2023-03-27_10h39.38.421,Main,2022.1.1,59.86213752074259,
positive,blue,2,k,None,,,,,,,,,0,172,172,172,,,,,,,,,,,,,,,,,main,None,None,1,1.5022652000188828,599.2539822999388,None,None,1,,,,,,,,,,,,,,101,2023-03-27_10h39.38.421,Main,2022.1.1,59.86213752074259,
negative,yellow,2,k,None,,,,,,,,,0,173,173,173,,,,,,,,,,,,,,,,,main,None,None,1,1.499180199811235,601.7573066998739,None,None,1,,,,,,,,,,,,,,101,2023-03-27_10h39.38.421,Main,2022.1.1,59.86213752074259,
positive,yellow,2,None,k,,,,,,,,,0,174,174,174,,,,,,,,,,,,,,,,,main,k,k,1,0.7965907999314368,604.2571537999902,None,None,0,,,,,,,,,,,,,,101,2023-03-27_10h39.38.421,Main,2022.1.1,59.86213752074259,
negative,blue,2,None,k,,,,,,,,,0,175,175,175,,,,,,,,,,,,,,,,,main,k,k,1,0.8990128000732511,606.0571222999133,None,None,0,,,,,,,,,,,,,,101,2023-03-27_10h39.38.421,Main,2022.1.1,59.86213752074259,
positive,blue,1,k,None,,,,,,,,,0,176,176,176,,,,,,,,,,,,,,,,,main,None,None,1,1.4986729000229388,607.9571475998964,None,None,1,,,,,,,,,,,,,,101,2023-03-27_10h39.38.421,Main,2022.1.1,59.86213752074259,
positive,yellow,1,None,k,,,,,,,,,0,177,177,177,,,,,,,,,,,,,,,,,main,k,k,1,0.8192234998568892,610.4538253999781,None,None,0,,,,,,,,,,,,,,101,2023-03-27_10h39.38.421,Main,2022.1.1,59.86213752074259,
positive,blue,1,k,None,,,,,,,,,0,178,178,178,,,,,,,,,,,,,,,,,main,None,None,1,1.4988518001046032,612.2735741999932,None,None,1,,,,,,,,,,,,,,101,2023-03-27_10h39.38.421,Main,2022.1.1,59.86213752074259,
positive,yellow,2,None,k,,,,,,,,,0,179,179,179,,,,,,,,,,,,,,,,,main,k,k,1,0.9492536000907421,614.7707125998568,None,None,0,,,,,,,,,,,,,,101,2023-03-27_10h39.38.421,Main,2022.1.1,59.86213752074259,
positive,blue,1,k,None,,,,,,,,,0,180,180,180,,,,,,,,,,,,,,,,,main,None,None,1,1.4988108000252396,616.7234851999674,None,None,1,,,,,,,,,,,,,,101,2023-03-27_10h39.38.421,Main,2022.1.1,59.86213752074259,
negative,red,1,None,None,,,,,,,,,0,181,181,181,,,,,,,,,,,,,,,,,main,None,k,0,0.946637500077486,619.2205177999567,None,None,1,,,,,,,,,,,,,,101,2023-03-27_10h39.38.421,Main,2022.1.1,59.86213752074259,
negative,blue,1,None,k,,,,,,,,,0,182,182,182,,,,,,,,,,,,,,,,,main,k,k,1,0.9179308000020683,622.1733134000096,None,None,0,,,,,,,,,,,,,,101,2023-03-27_10h39.38.421,Main,2022.1.1,59.86213752074259,
negative,yellow,2,k,None,,,,,,,,,0,183,183,183,,,,,,,,,,,,,,,,,main,None,None,1,1.498648599954322,624.0899487999268,None,None,1,,,,,,,,,,,,,,101,2023-03-27_10h39.38.421,Main,2022.1.1,59.86213752074259,
positive,yellow,2,None,k,,,,,,,,,0,184,184,184,,,,,,,,,,,,,,,,,main,k,k,1,0.9837541999295354,626.5870918999426,None,None,0,,,,,,,,,,,,,,101,2023-03-27_10h39.38.421,Main,2022.1.1,59.86213752074259,
positive,yellow,1,None,k,,,,,,,,,0,185,185,185,,,,,,,,,,,,,,,,,main,k,k,1,0.9026504000648856,628.5704117999412,None,None,0,,,,,,,,,,,,,,101,2023-03-27_10h39.38.421,Main,2022.1.1,59.86213752074259,
positive,red,2,None,None,,,,,,,,,0,186,186,186,,,,,,,,,,,,,,,,,main,None,None,1,1.4912988999858499,630.4827845999971,None,None,1,,,,,,,,,,,,,,101,2023-03-27_10h39.38.421,Main,2022.1.1,59.86213752074259,
positive,blue,1,k,None,,,,,,,,,0,187,187,187,,,,,,,,,,,,,,,,,main,None,None,1,1.502297299914062,632.9700474999845,None,None,1,,,,,,,,,,,,,,101,2023-03-27_10h39.38.421,Main,2022.1.1,59.86213752074259,
negative,yellow,1,k,None,,,,,,,,,0,188,188,188,,,,,,,,,,,,,,,,,main,None,None,1,1.4992090000305325,635.4731947998516,None,None,1,,,,,,,,,,,,,,101,2023-03-27_10h39.38.421,Main,2022.1.1,59.86213752074259,
positive,yellow,2,None,k,,,,,,,,,0,189,189,189,,,,,,,,,,,,,,,,,main,k,k,1,0.9797697002068162,637.9702920999844,None,None,0,,,,,,,,,,,,,,101,2023-03-27_10h39.38.421,Main,2022.1.1,59.86213752074259,
negative,yellow,2,k,None,,,,,,,,,0,190,190,190,,,,,,,,,,,,,,,,,main,None,None,1,1.5017713999841362,639.9535504998639,None,None,1,,,,,,,,,,,,,,101,2023-03-27_10h39.38.421,Main,2022.1.1,59.86213752074259,
negative,yellow,1,k,None,,,,,,,,,0,191,191,191,,,,,,,,,,,,,,,,,main,None,None,1,1.499267099890858,642.4533948998433,None,None,1,,,,,,,,,,,,,,101,2023-03-27_10h39.38.421,Main,2022.1.1,59.86213752074259,
positive,blue,2,k,None,,,,,,,,,0,192,192,192,,,,,,,,,,,,,,,,,main,None,None,1,1.4991405999753624,644.9533694998827,None,None,1,,,,,,,,,,,,,,101,2023-03-27_10h39.38.421,Main,2022.1.1,59.86213752074259,
positive,yellow,1,None,k,,,,,,,,,0,193,193,193,,,,,,,,,,,,,,,,,main,k,k,1,1.0303493000101298,647.4562651999295,None,None,0,,,,,,,,,,,,,,101,2023-03-27_10h39.38.421,Main,2022.1.1,59.86213752074259,
negative,red,2,None,None,,,,,,,,,0,194,194,194,,,,,,,,,,,,,,,,,main,None,None,1,1.4893769000191242,649.4866565999109,None,None,1,,,,,,,,,,,,,,101,2023-03-27_10h39.38.421,Main,2022.1.1,59.86213752074259,
positive,red,1,None,None,,,,,,,,,0,195,195,195,,,,,,,,,,,,,,,,,main,None,None,1,1.4914446000475436,651.9750808000099,None,None,1,,,,,,,,,,,,,,101,2023-03-27_10h39.38.421,Main,2022.1.1,59.86213752074259,
negative,blue,1,None,k,,,,,,,,,0,196,196,196,,,,,,,,,,,,,,,,,main,k,k,1,0.8693773001432419,654.469619399868,None,None,0,,,,,,,,,,,,,,101,2023-03-27_10h39.38.421,Main,2022.1.1,59.86213752074259,
positive,blue,2,k,None,,,,,,,,,0,197,197,197,,,,,,,,,,,,,,,,,main,None,k,0,0.7992741998750716,656.3394162999466,None,None,1,,,,,,,,,,,,,,101,2023-03-27_10h39.38.421,Main,2022.1.1,59.86213752074259,
negative,blue,2,None,k,,,,,,,,,0,198,198,198,,,,,,,,,,,,,,,,,main,k,k,1,0.767800300149247,659.1393395999912,None,None,0,,,,,,,,,,,,,,101,2023-03-27_10h39.38.421,Main,2022.1.1,59.86213752074259,
negative,blue,2,None,k,,,,,,,,,0,199,199,199,,,,,,,,,,,,,,,,,main,k,k,1,0.6830416999291629,660.9030333999544,None,None,0,,,,,,,,,,,,,,101,2023-03-27_10h39.38.421,Main,2022.1.1,59.86213752074259,
positive,blue,2,k,None,,,,,,,,,0,200,200,200,,,,,,,,,,,,,,,,,main,None,None,1,1.4993394000921398,662.5863357000053,None,None,1,,,,,,,,,,,,,,101,2023-03-27_10h39.38.421,Main,2022.1.1,59.86213752074259,
positive,blue,2,k,None,,,,,,,,,0,201,201,201,,,,,,,,,,,,,,,,,main,None,None,1,1.4982720999978483,665.0891925999895,None,None,1,,,,,,,,,,,,,,101,2023-03-27_10h39.38.421,Main,2022.1.1,59.86213752074259,
negative,yellow,2,k,None,,,,,,,,,0,202,202,202,,,,,,,,,,,,,,,,,main,None,k,0,1.1963889000471681,667.5891215999145,None,None,1,,,,,,,,,,,,,,101,2023-03-27_10h39.38.421,Main,2022.1.1,59.86213752074259,
positive,red,1,None,None,,,,,,,,,0,203,203,203,,,,,,,,,,,,,,,,,main,None,None,1,1.5011243999470025,670.7862467998639,None,None,1,,,,,,,,,,,,,,101,2023-03-27_10h39.38.421,Main,2022.1.1,59.86213752074259,
negative,blue,2,None,k,,,,,,,,,0,204,204,204,,,,,,,,,,,,,,,,,main,k,k,1,0.9790888000279665,673.2890571998432,None,None,0,,,,,,,,,,,,,,101,2023-03-27_10h39.38.421,Main,2022.1.1,59.86213752074259,
negative,red,1,None,None,,,,,,,,,0,205,205,205,,,,,,,,,,,,,,,,,main,None,None,1,1.5021589000243694,675.2691671999637,None,None,1,,,,,,,,,,,,,,101,2023-03-27_10h39.38.421,Main,2022.1.1,59.86213752074259,
negative,blue,2,None,k,,,,,,,,,0,206,206,206,,,,,,,,,,,,,,,,,main,k,k,1,0.8133630999363959,677.7723154998384,None,None,0,,,,,,,,,,,,,,101,2023-03-27_10h39.38.421,Main,2022.1.1,59.86213752074259,
negative,yellow,2,k,None,,,,,,,,,0,207,207,207,,,,,,,,,,,,,,,,,main,None,None,1,1.498729799874127,679.5861126000527,None,None,1,,,,,,,,,,,,,,101,2023-03-27_10h39.38.421,Main,2022.1.1,59.86213752074259,
positive,yellow,2,None,k,,,,,,,,,0,208,208,208,,,,,,,,,,,,,,,,,main,k,k,1,0.799369900021702,682.0889045000076,None,None,0,,,,,,,,,,,,,,101,2023-03-27_10h39.38.421,Main,2022.1.1,59.86213752074259,
negative,yellow,1,k,None,,,,,,,,,0,209,209,209,,,,,,,,,,,,,,,,,main,None,None,1,1.5017943000420928,683.8859343000222,None,None,1,,,,,,,,,,,,,,101,2023-03-27_10h39.38.421,Main,2022.1.1,59.86213752074259,
negative,red,2,None,None,,,,,,,,,0,210,210,210,,,,,,,,,,,,,,,,,main,None,None,1,1.4992501998785883,686.3859063999262,None,None,1,,,,,,,,,,,,,,101,2023-03-27_10h39.38.421,Main,2022.1.1,59.86213752074259,
negative,blue,1,None,k,,,,,,,,,0,211,211,211,,,,,,,,,,,,,,,,,main,k,k,1,0.882788399932906,688.8886513998732,None,None,0,,,,,,,,,,,,,,101,2023-03-27_10h39.38.421,Main,2022.1.1,59.86213752074259,
negative,yellow,1,k,None,,,,,,,,,0,212,212,212,,,,,,,,,,,,,,,,,main,None,None,1,1.498919100034982,690.7691651999485,None,None,1,,,,,,,,,,,,,,101,2023-03-27_10h39.38.421,Main,2022.1.1,59.86213752074259,
positive,blue,1,k,None,,,,,,,,,0,213,213,213,,,,,,,,,,,,,,,,,main,None,None,1,1.4963485999032855,693.2720051999204,None,None,1,,,,,,,,,,,,,,101,2023-03-27_10h39.38.421,Main,2022.1.1,59.86213752074259,
positive,blue,1,k,None,,,,,,,,,0,214,214,214,,,,,,,,,,,,,,,,,main,None,None,1,1.498860500054434,695.7690915998537,None,None,1,,,,,,,,,,,,,,101,2023-03-27_10h39.38.421,Main,2022.1.1,59.86213752074259,
positive,yellow,1,None,k,,,,,,,,,0,215,215,215,,,,,,,,,,,,,,,,,main,k,k,1,1.635851299855858,698.2687385999598,None,None,0,,,,,,,,,,,,,,101,2023-03-27_10h39.38.421,Main,2022.1.1,59.86213752074259,
positive,yellow,1,None,k,,,,,,,,,0,216,216,216,,,,,,,,,,,,,,,,,main,k,k,1,0.8512903000228107,701.9190577999689,None,None,0,,,,,,,,,,,,,,101,2023-03-27_10h39.38.421,Main,2022.1.1,59.86213752074259,
positive,yellow,2,None,k,,,,,,,,,0,217,217,217,,,,,,,,,,,,,,,,,main,k,k,1,0.9783115000464022,703.7719459000509,None,None,0,,,,,,,,,,,,,,101,2023-03-27_10h39.38.421,Main,2022.1.1,59.86213752074259,
negative,blue,1,None,k,,,,,,,,,0,218,218,218,,,,,,,,,,,,,,,,,main,k,k,1,0.883638700004667,705.7551394999027,None,None,0,,,,,,,,,,,,,,101,2023-03-27_10h39.38.421,Main,2022.1.1,59.86213752074259,
positive,red,2,None,None,,,,,,,,,0,219,219,219,,,,,,,,,,,,,,,,,main,None,None,1,1.5002902001142502,707.635442599887,None,None,1,,,,,,,,,,,,,,101,2023-03-27_10h39.38.421,Main,2022.1.1,59.86213752074259,
positive,yellow,1,None,k,,,,,,,,,0,220,220,220,,,,,,,,,,,,,,,,,main,k,k,1,1.0327286999672651,710.1354416999966,None,None,0,,,,,,,,,,,,,,101,2023-03-27_10h39.38.421,Main,2022.1.1,59.86213752074259,
positive,blue,1,k,None,,,,,,,,,0,221,221,221,,,,,,,,,,,,,,,,,main,None,None,1,1.498977200128138,712.1687453999184,None,None,1,,,,,,,,,,,,,,101,2023-03-27_10h39.38.421,Main,2022.1.1,59.86213752074259,
positive,yellow,2,None,k,,,,,,,,,0,222,222,222,,,,,,,,,,,,,,,,,main,k,k,1,1.0132663999684155,714.6716757998802,None,None,0,,,,,,,,,,,,,,101,2023-03-27_10h39.38.421,Main,2022.1.1,59.86213752074259,
negative,yellow,1,k,None,,,,,,,,,0,223,223,223,,,,,,,,,,,,,,,,,main,None,None,1,1.4990256999153644,716.6853367998265,None,None,1,,,,,,,,,,,,,,101,2023-03-27_10h39.38.421,Main,2022.1.1,59.86213752074259,
positive,yellow,2,None,k,,,,,,,,,0,224,224,224,,,,,,,,,,,,,,,,,main,k,k,1,1.065833600005135,719.188156499993,None,None,0,,,,,,,,,,,,,,101,2023-03-27_10h39.38.421,Main,2022.1.1,59.86213752074259,
negative,yellow,2,k,None,,,,,,,,,0,225,225,225,,,,,,,,,,,,,,,,,main,None,None,1,1.5020880000665784,721.2516140998341,None,None,1,,,,,,,,,,,,,,101,2023-03-27_10h39.38.421,Main,2022.1.1,59.86213752074259,
negative,blue,2,None,k,,,,,,,,,0,226,226,226,,,,,,,,,,,,,,,,,main,k,k,1,1.0491976998746395,723.754785799887,None,None,0,,,,,,,,,,,,,,101,2023-03-27_10h39.38.421,Main,2022.1.1,59.86213752074259,
positive,red,2,None,None,,,,,,,,,0,227,227,227,,,,,,,,,,,,,,,,,main,None,None,1,1.4989677001722157,725.8046852999832,None,None,1,,,,,,,,,,,,,,101,2023-03-27_10h39.38.421,Main,2022.1.1,59.86213752074259,
positive,blue,2,k,None,,,,,,,,,0,228,228,228,,,,,,,,,,,,,,,,,main,None,None,1,1.4964554999023676,728.3047323999926,None,None,1,,,,,,,,,,,,,,101,2023-03-27_10h39.38.421,Main,2022.1.1,59.86213752074259,
negative,blue,1,None,k,,,,,,,,,0,229,229,229,,,,,,,,,,,,,,,,,main,k,k,1,0.7160475999116898,730.8045353998896,None,None,0,,,,,,,,,,,,,,101,2023-03-27_10h39.38.421,Main,2022.1.1,59.86213752074259,
positive,yellow,1,None,k,,,,,,,,,0,230,230,230,,,,,,,,,,,,,,,,,main,k,k,1,1.0018730000592768,732.5183290999848,None,None,0,,,,,,,,,,,,,,101,2023-03-27_10h39.38.421,Main,2022.1.1,59.86213752074259,
negative,blue,2,None,k,,,,,,,,,0,231,231,231,,,,,,,,,,,,,,,,,main,k,k,1,0.9994349000044167,734.5182942999527,None,None,0,,,,,,,,,,,,,,101,2023-03-27_10h39.38.421,Main,2022.1.1,59.86213752074259,
negative,red,1,None,None,,,,,,,,,0,232,232,232,,,,,,,,,,,,,,,,,main,None,None,1,1.4988819998688996,736.5182964999694,None,None,1,,,,,,,,,,,,,,101,2023-03-27_10h39.38.421,Main,2022.1.1,59.86213752074259,
positive,blue,2,k,None,,,,,,,,,0,233,233,233,,,,,,,,,,,,,,,,,main,None,None,1,1.4991824999451637,739.0211636000313,None,None,1,,,,,,,,,,,,,,101,2023-03-27_10h39.38.421,Main,2022.1.1,59.86213752074259,
negative,yellow,1,k,None,,,,,,,,,0,234,234,234,,,,,,,,,,,,,,,,,main,None,None,1,1.496014499804005,741.5182109999005,None,None,1,,,,,,,,,,,,,,101,2023-03-27_10h39.38.421,Main,2022.1.1,59.86213752074259,
negative,yellow,2,k,None,,,,,,,,,0,235,235,235,,,,,,,,,,,,,,,,,main,None,None,1,1.5023401000071317,744.0178449000232,None,None,1,,,,,,,,,,,,,,101,2023-03-27_10h39.38.421,Main,2022.1.1,59.86213752074259,
positive,red,1,None,None,,,,,,,,,0,236,236,236,,,,,,,,,,,,,,,,,main,None,None,1,1.499179899925366,746.520996700041,None,None,1,,,,,,,,,,,,,,101,2023-03-27_10h39.38.421,Main,2022.1.1,59.86213752074259,
negative,red,2,None,None,,,,,,,,,0,237,237,237,,,,,,,,,,,,,,,,,main,None,None,1,1.499042799929157,749.0209959999193,None,None,1,,,,,,,,,,,,,,101,2023-03-27_10h39.38.421,Main,2022.1.1,59.86213752074259,
negative,blue,1,None,k,,,,,,,,,0,238,238,238,,,,,,,,,,,,,,,,,main,k,k,1,0.9682534001767635,751.517954000039,None,None,0,,,,,,,,,,,,,,101,2023-03-27_10h39.38.421,Main,2022.1.1,59.86213752074259,
positive,blue,1,k,None,,,,,,,,,0,239,239,239,,,,,,,,,,,,,,,,,main,None,None,1,1.4967952000442892,753.4845867999829,None,None,1,,,,,,,,,,,,,,101,2023-03-27_10h39.38.421,Main,2022.1.1,59.86213752074259,
,,,,,,,,,,,,,,,,,,,,,,,,,,,,,,,,,,,,,,,,,,,,,,,,,,,,,755.9873925000429,None,,,,,,
