distractor,target,set,ans1,ans2,rep_loop4.thisRepN,rep_loop4.thisTrialN,rep_loop4.thisN,rep_loop4.thisIndex,st2_prac_loop.thisRepN,st2_prac_loop.thisTrialN,st2_prac_loop.thisN,st2_prac_loop.thisIndex,st2_main_loop.thisRepN,st2_main_loop.thisTrialN,st2_main_loop.thisN,st2_main_loop.thisIndex,image_4.started,image_4.stopped,sound_2.started,sound_2.stopped,key_resp_3.keys,key_resp_3.rt,image_5.started,image_5.stopped,st_prac_back.started,st_prac_back.stopped,st_prac_text.started,st_prac_text.stopped,st_fix_back.started,st_fix_back.stopped,st_fix_2.started,st_fix_2.stopped,main_prac,st_ans,st_res,st_corr,st_rt,st_back.started,st_back.stopped,st2_resp.keys,st2_resp.corr,st_main_back.started,st_main_back.stopped,st_main_text.started,st_main_text.stopped,mouse_4.x,mouse_4.y,mouse_4.leftButton,mouse_4.midButton,mouse_4.rightButton,mouse_4.started,mouse_4.stopped,text_2.started,text_2.stopped,id*,date,expName,psychopyVersion,frameRate,
negative,yellow,1,k,None,,,,,0,0,0,0,,,,,30.641832299996167,None,36.16902826994192,None,space,58.782676100032404,94.98469770001248,None,96.58480479987338,None,96.58480479987338,None,98.58538639987819,None,98.58538639987819,None,prac,k,k,1,1.8892138001974672,100.60186609998345,None,None,0,,,,,,,,,,,,,,102,2023-03-28_13h40.34.530,Main,2022.1.1,60.005496489447054,
positive,red,2,None,None,,,,,0,1,1,1,,,,,,,,,,,,,,,,,,,,,prac,None,k,0,1.1513098999857903,104.50120099983178,None,None,1,,,,,,,,,,,,,,102,2023-03-28_13h40.34.530,Main,2022.1.1,60.005496489447054,
negative,blue,2,None,k,,,,,0,2,2,2,,,,,,,,,,,,,,,,,,,,,prac,None,None,1,1.5007612998597324,107.65106449997984,None,None,1,,,,,,,,,,,,,,102,2023-03-28_13h40.34.530,Main,2022.1.1,60.005496489447054,
positive,yellow,1,None,k,,,,,0,3,3,3,,,,,,,,,,,,,,,,,,,,,prac,None,None,1,1.4989809999242425,110.14810079988092,None,None,1,,,,,,,,,,,,,,102,2023-03-28_13h40.34.530,Main,2022.1.1,60.005496489447054,
negative,blue,2,None,k,,,,,0,4,4,4,,,,,,,,,,,,,,,,,,,,,prac,None,None,1,1.4990775000769645,112.64812659984455,None,None,1,,,,,,,,,,,,,,102,2023-03-28_13h40.34.530,Main,2022.1.1,60.005496489447054,
negative,blue,1,None,k,,,,,0,5,5,5,,,,,,,,,,,,,,,,,,,,,prac,None,None,1,1.499133100034669,115.14807369979098,None,None,1,,,,,,,,,,,,,,102,2023-03-28_13h40.34.530,Main,2022.1.1,60.005496489447054,
negative,yellow,2,k,None,,,,,0,6,6,6,,,,,,,,,,,,,,,,,,,,,prac,k,k,1,0.9498510998673737,117.64806529995985,None,None,0,,,,,,,,,,,,,,102,2023-03-28_13h40.34.530,Main,2022.1.1,60.005496489447054,
negative,red,1,None,None,,,,,0,7,7,7,,,,,,,,,,,,,,,,,,,,,prac,None,None,1,1.4971570998895913,119.5980322000105,None,None,1,,,,,,,,,,,,,,102,2023-03-28_13h40.34.530,Main,2022.1.1,60.005496489447054,
positive,yellow,2,None,k,,,,,0,8,8,8,,,,,,,,,,,,,,,,,,,,,prac,None,None,1,1.4970039001200348,122.09763639979064,None,None,1,,,,,,,,,,,,,,102,2023-03-28_13h40.34.530,Main,2022.1.1,60.005496489447054,
negative,yellow,1,k,None,,,,,0,9,9,9,,,,,,,,,,,,,,,,,,,,,prac,k,k,1,0.9995985000859946,124.59764729999006,None,None,0,,,,,,,,,,,,,,102,2023-03-28_13h40.34.530,Main,2022.1.1,60.005496489447054,
positive,yellow,2,None,k,,,,,0,10,10,10,,,,,,,,,,,,,,,,,,,,,prac,None,None,1,1.5020911002065986,126.5979446999263,None,None,1,,,,,,,,,,,,,,102,2023-03-28_13h40.34.530,Main,2022.1.1,60.005496489447054,
negative,yellow,2,k,None,,,,,0,11,11,11,,,,,,,,,,,,,,,,,,,,,prac,k,k,1,0.9140813001431525,129.10075340000913,None,None,0,,,,,,,,,,,,,,102,2023-03-28_13h40.34.530,Main,2022.1.1,60.005496489447054,
negative,red,2,None,None,,,,,0,12,12,12,,,,,,,,,,,,,,,,,,,,,prac,None,None,1,1.4983208999037743,131.0145069998689,None,None,1,,,,,,,,,,,,,,102,2023-03-28_13h40.34.530,Main,2022.1.1,60.005496489447054,
positive,red,1,None,None,,,,,0,13,13,13,,,,,,,,,,,,,,,,,,,,,prac,None,None,1,1.50254589994438,133.51412860001437,None,None,1,,,,,,,,,,,,,,102,2023-03-28_13h40.34.530,Main,2022.1.1,60.005496489447054,
positive,blue,2,k,None,,,,,0,14,14,14,,,,,,,,,,,,,,,,,,,,,prac,k,k,1,0.678796999854967,136.017289099982,None,None,0,,,,,,,,,,,,,,102,2023-03-28_13h40.34.530,Main,2022.1.1,60.005496489447054,
positive,blue,1,k,None,,,,,0,15,15,15,,,,,,,,,,,,,,,,,,,,,prac,k,k,1,0.699104999890551,137.6977095999755,None,None,0,,,,,,,,,,,,,,102,2023-03-28_13h40.34.530,Main,2022.1.1,60.005496489447054,
negative,blue,1,None,k,,,,,0,16,16,16,,,,,,,,,,,,,,,,,,,,,prac,None,None,1,1.5030360000673681,139.3976617997978,None,None,1,,,,,,,,,,,,,,102,2023-03-28_13h40.34.530,Main,2022.1.1,60.005496489447054,
positive,blue,2,k,None,,,,,0,17,17,17,,,,,,,,,,,,,,,,,,,,,prac,k,k,1,1.1448506999295205,141.89749050000682,None,None,0,,,,,,,,,,,,,,102,2023-03-28_13h40.34.530,Main,2022.1.1,60.005496489447054,
positive,blue,1,k,None,,,,,0,18,18,18,,,,,,,,,,,,,,,,,,,,,prac,k,k,1,0.7987339999526739,144.0503806998022,None,None,0,,,,,,,,,,,,,,102,2023-03-28_13h40.34.530,Main,2022.1.1,60.005496489447054,
positive,yellow,1,None,k,,,,,0,19,19,19,,,,,,,,,,,,,,,,,,,,,prac,None,None,1,1.5016165000852197,145.85033519985154,None,None,1,,,,,,,,,,,,,,102,2023-03-28_13h40.34.530,Main,2022.1.1,60.005496489447054,
negative,yellow,1,k,None,,,,,1,0,20,0,,,,,,,,,,,,,,,,,,,,,prac,k,k,1,0.98015660000965,148.35037819994614,None,None,0,,,,,,,,,,,,,,102,2023-03-28_13h40.34.530,Main,2022.1.1,60.005496489447054,
positive,red,2,None,None,,,,,1,1,21,1,,,,,,,,,,,,,,,,,,,,,prac,None,None,1,1.4991264999844134,150.33071159990504,None,None,1,,,,,,,,,,,,,,102,2023-03-28_13h40.34.530,Main,2022.1.1,60.005496489447054,
negative,blue,2,None,k,,,,,1,2,22,2,,,,,,,,,,,,,,,,,,,,,prac,None,None,1,1.498331000097096,152.83350209984928,None,None,1,,,,,,,,,,,,,,102,2023-03-28_13h40.34.530,Main,2022.1.1,60.005496489447054,
positive,yellow,1,None,k,,,,,1,3,23,3,,,,,,,,,,,,,,,,,,,,,prac,None,None,1,1.5022497999016196,155.33049329998903,None,None,1,,,,,,,,,,,,,,102,2023-03-28_13h40.34.530,Main,2022.1.1,60.005496489447054,
negative,blue,2,None,k,,,,,1,4,24,4,,,,,,,,,,,,,,,,,,,,,prac,None,None,1,1.4990187999792397,157.83067049994133,None,None,1,,,,,,,,,,,,,,102,2023-03-28_13h40.34.530,Main,2022.1.1,60.005496489447054,
negative,blue,1,None,k,,,,,1,5,25,5,,,,,,,,,,,,,,,,,,,,,prac,None,None,1,1.4959541999269277,160.33343669981696,None,None,1,,,,,,,,,,,,,,102,2023-03-28_13h40.34.530,Main,2022.1.1,60.005496489447054,
negative,yellow,2,k,None,,,,,1,6,26,6,,,,,,,,,,,,,,,,,,,,,prac,k,k,1,0.8530176000203937,162.83044149982743,None,None,0,,,,,,,,,,,,,,102,2023-03-28_13h40.34.530,Main,2022.1.1,60.005496489447054,
negative,red,1,None,None,,,,,1,7,27,7,,,,,,,,,,,,,,,,,,,,,prac,None,None,1,1.4984164000488818,164.68316839984618,None,None,1,,,,,,,,,,,,,,102,2023-03-28_13h40.34.530,Main,2022.1.1,60.005496489447054,
positive,yellow,2,None,k,,,,,1,8,28,8,,,,,,,,,,,,,,,,,,,,,prac,None,None,1,1.499228399945423,167.18035869998857,None,None,1,,,,,,,,,,,,,,102,2023-03-28_13h40.34.530,Main,2022.1.1,60.005496489447054,
negative,yellow,1,k,None,,,,,1,9,29,9,,,,,,,,,,,,,,,,,,,,,prac,k,k,1,1.1292673000134528,169.68326029996388,None,None,0,,,,,,,,,,,,,,102,2023-03-28_13h40.34.530,Main,2022.1.1,60.005496489447054,
positive,yellow,2,None,k,,,,,1,10,30,10,,,,,,,,,,,,,,,,,,,,,prac,None,None,1,1.5017024001572281,171.81368209980428,None,None,1,,,,,,,,,,,,,,102,2023-03-28_13h40.34.530,Main,2022.1.1,60.005496489447054,
negative,yellow,2,k,None,,,,,1,11,31,11,,,,,,,,,,,,,,,,,,,,,prac,k,k,1,1.096400000154972,174.3138905998785,None,None,0,,,,,,,,,,,,,,102,2023-03-28_13h40.34.530,Main,2022.1.1,60.005496489447054,
negative,red,2,None,None,,,,,1,12,32,12,,,,,,,,,,,,,,,,,,,,,prac,None,None,1,1.5021201001945883,176.4134854997974,None,None,1,,,,,,,,,,,,,,102,2023-03-28_13h40.34.530,Main,2022.1.1,60.005496489447054,
positive,red,1,None,None,,,,,1,13,33,13,,,,,,,,,,,,,,,,,,,,,prac,None,None,1,1.4989398000761867,178.916508999886,None,None,1,,,,,,,,,,,,,,102,2023-03-28_13h40.34.530,Main,2022.1.1,60.005496489447054,
positive,blue,2,k,None,,,,,1,14,34,14,,,,,,,,,,,,,,,,,,,,,prac,k,k,1,0.7828404000028968,181.41641909978352,None,None,0,,,,,,,,,,,,,,102,2023-03-28_13h40.34.530,Main,2022.1.1,60.005496489447054,
positive,blue,1,k,None,,,,,1,15,35,15,,,,,,,,,,,,,,,,,,,,,prac,k,k,1,0.8455710001289845,183.19695139979012,None,None,0,,,,,,,,,,,,,,102,2023-03-28_13h40.34.530,Main,2022.1.1,60.005496489447054,
negative,blue,1,None,k,,,,,1,16,36,16,,,,,,,,,,,,,,,,,,,,,prac,None,None,1,1.5023193000815809,185.0463781999424,None,None,1,,,,,,,,,,,,,,102,2023-03-28_13h40.34.530,Main,2022.1.1,60.005496489447054,
positive,blue,2,k,None,,,,,1,17,37,17,,,,,,,,,,,,,,,,,,,,,prac,k,k,1,0.8297661000397056,187.54970039986074,None,None,0,,,,,,,,,,,,,,102,2023-03-28_13h40.34.530,Main,2022.1.1,60.005496489447054,
positive,blue,1,k,None,,,,,1,18,38,18,,,,,,,,,,,,,,,,,,,,,prac,k,k,1,0.6850628999527544,189.3829518998973,None,None,0,,,,,,,,,,,,,,102,2023-03-28_13h40.34.530,Main,2022.1.1,60.005496489447054,
positive,yellow,1,None,k,,,,,1,19,39,19,,,,,,,,,,,,,,,,,,,,,prac,None,None,1,1.4957727999426425,191.0661352998577,None,None,1,,,,,,,,,,,,,,102,2023-03-28_13h40.34.530,Main,2022.1.1,60.005496489447054,
,,,,,,,,,,,,,,,,,,,,,,,,,,,,,,,,,,,,,,,,,,193.56592969992198,None,193.56592969992198,None,0.036111113,-0.058333334,0,0,0,0.014060670044273138,None,,,102,2023-03-28_13h40.34.530,Main,2022.1.1,60.005496489447054,
negative,yellow,2,k,None,,,,,,,,,0,0,0,0,,,,,,,,,,,,,202.93251680000685,None,202.93251680000685,None,main,k,k,1,1.0242600999772549,204.98231139988638,None,None,0,,,,,,,,,,,,,,102,2023-03-28_13h40.34.530,Main,2022.1.1,60.005496489447054,
positive,red,1,None,None,,,,,,,,,0,1,1,1,,,,,,,,,,,,,,,,,main,None,None,1,1.495678200153634,207.01592109980993,None,None,1,,,,,,,,,,,,,,102,2023-03-28_13h40.34.530,Main,2022.1.1,60.005496489447054,
positive,blue,2,k,None,,,,,,,,,0,2,2,2,,,,,,,,,,,,,,,,,main,k,k,1,1.0494411999825388,209.51573969982564,None,None,0,,,,,,,,,,,,,,102,2023-03-28_13h40.34.530,Main,2022.1.1,60.005496489447054,
positive,blue,1,k,None,,,,,,,,,0,3,3,3,,,,,,,,,,,,,,,,,main,k,k,1,0.8159573001321405,211.56292329984717,None,None,0,,,,,,,,,,,,,,102,2023-03-28_13h40.34.530,Main,2022.1.1,60.005496489447054,
negative,yellow,2,k,None,,,,,,,,,0,4,4,4,,,,,,,,,,,,,,,,,main,k,k,1,0.818162800045684,213.37965559982695,None,None,0,,,,,,,,,,,,,,102,2023-03-28_13h40.34.530,Main,2022.1.1,60.005496489447054,
positive,yellow,2,None,k,,,,,,,,,0,5,5,5,,,,,,,,,,,,,,,,,main,None,None,1,1.496005600085482,215.1988313999027,None,None,1,,,,,,,,,,,,,,102,2023-03-28_13h40.34.530,Main,2022.1.1,60.005496489447054,
negative,blue,2,None,k,,,,,,,,,0,6,6,6,,,,,,,,,,,,,,,,,main,None,None,1,1.50188499991782,217.69601599988528,None,None,1,,,,,,,,,,,,,,102,2023-03-28_13h40.34.530,Main,2022.1.1,60.005496489447054,
positive,red,2,None,None,,,,,,,,,0,7,7,7,,,,,,,,,,,,,,,,,main,None,None,1,1.4997688999865204,220.19879719987512,None,None,1,,,,,,,,,,,,,,102,2023-03-28_13h40.34.530,Main,2022.1.1,60.005496489447054,
positive,yellow,1,None,k,,,,,,,,,0,8,8,8,,,,,,,,,,,,,,,,,main,None,None,1,1.498634200077504,222.6988318997901,None,None,1,,,,,,,,,,,,,,102,2023-03-28_13h40.34.530,Main,2022.1.1,60.005496489447054,
negative,red,1,None,None,,,,,,,,,0,9,9,9,,,,,,,,,,,,,,,,,main,None,None,1,1.4959456999786198,225.19877459993586,None,None,1,,,,,,,,,,,,,,102,2023-03-28_13h40.34.530,Main,2022.1.1,60.005496489447054,
positive,yellow,1,None,k,,,,,,,,,0,10,10,10,,,,,,,,,,,,,,,,,main,None,None,1,1.5026237999554724,227.69552239985205,None,None,1,,,,,,,,,,,,,,102,2023-03-28_13h40.34.530,Main,2022.1.1,60.005496489447054,
negative,yellow,1,k,None,,,,,,,,,0,11,11,11,,,,,,,,,,,,,,,,,main,k,k,1,0.8489971999078989,230.19875289988704,None,None,0,,,,,,,,,,,,,,102,2023-03-28_13h40.34.530,Main,2022.1.1,60.005496489447054,
negative,yellow,1,k,None,,,,,,,,,0,12,12,12,,,,,,,,,,,,,,,,,main,k,k,1,0.5830037000123411,232.048727999907,None,None,0,,,,,,,,,,,,,,102,2023-03-28_13h40.34.530,Main,2022.1.1,60.005496489447054,
negative,red,2,None,None,,,,,,,,,0,13,13,13,,,,,,,,,,,,,,,,,main,None,None,1,1.495607800083235,233.63204539986327,None,None,1,,,,,,,,,,,,,,102,2023-03-28_13h40.34.530,Main,2022.1.1,60.005496489447054,
positive,yellow,2,None,k,,,,,,,,,0,14,14,14,,,,,,,,,,,,,,,,,main,None,None,1,1.5021118000149727,236.1289685999509,None,None,1,,,,,,,,,,,,,,102,2023-03-28_13h40.34.530,Main,2022.1.1,60.005496489447054,
positive,blue,1,k,None,,,,,,,,,0,15,15,15,,,,,,,,,,,,,,,,,main,k,k,1,0.8325989001896232,238.63177589979023,None,None,0,,,,,,,,,,,,,,102,2023-03-28_13h40.34.530,Main,2022.1.1,60.005496489447054,
negative,blue,1,None,k,,,,,,,,,0,16,16,16,,,,,,,,,,,,,,,,,main,None,None,1,1.4960968000814319,240.462240899913,None,None,1,,,,,,,,,,,,,,102,2023-03-28_13h40.34.530,Main,2022.1.1,60.005496489447054,
positive,blue,2,k,None,,,,,,,,,0,17,17,17,,,,,,,,,,,,,,,,,main,k,k,1,0.7325341999530792,242.96245549991727,None,None,0,,,,,,,,,,,,,,102,2023-03-28_13h40.34.530,Main,2022.1.1,60.005496489447054,
negative,blue,2,None,k,,,,,,,,,0,18,18,18,,,,,,,,,,,,,,,,,main,None,None,1,1.4988408999051899,244.69563299999572,None,None,1,,,,,,,,,,,,,,102,2023-03-28_13h40.34.530,Main,2022.1.1,60.005496489447054,
negative,blue,1,None,k,,,,,,,,,0,19,19,19,,,,,,,,,,,,,,,,,main,None,None,1,1.499180099926889,247.1982678999193,None,None,1,,,,,,,,,,,,,,102,2023-03-28_13h40.34.530,Main,2022.1.1,60.005496489447054,
negative,blue,1,None,k,,,,,,,,,0,20,20,20,,,,,,,,,,,,,,,,,main,None,None,1,1.5021484999451786,249.69508849992417,None,None,1,,,,,,,,,,,,,,102,2023-03-28_13h40.34.530,Main,2022.1.1,60.005496489447054,
negative,blue,2,None,k,,,,,,,,,0,21,21,21,,,,,,,,,,,,,,,,,main,None,None,1,1.4988367999903858,252.19833039981313,None,None,1,,,,,,,,,,,,,,102,2023-03-28_13h40.34.530,Main,2022.1.1,60.005496489447054,
negative,red,1,None,None,,,,,,,,,0,22,22,22,,,,,,,,,,,,,,,,,main,None,None,1,1.4993551999796182,254.6982485000044,None,None,1,,,,,,,,,,,,,,102,2023-03-28_13h40.34.530,Main,2022.1.1,60.005496489447054,
positive,red,2,None,None,,,,,,,,,0,23,23,23,,,,,,,,,,,,,,,,,main,None,None,1,1.4960939001757652,257.1951792999171,None,None,1,,,,,,,,,,,,,,102,2023-03-28_13h40.34.530,Main,2022.1.1,60.005496489447054,
negative,red,2,None,None,,,,,,,,,0,24,24,24,,,,,,,,,,,,,,,,,main,None,None,1,1.502084600040689,259.6951574999839,None,None,1,,,,,,,,,,,,,,102,2023-03-28_13h40.34.530,Main,2022.1.1,60.005496489447054,
positive,blue,2,k,None,,,,,,,,,0,25,25,25,,,,,,,,,,,,,,,,,main,k,k,1,1.0995077001862228,262.1979752997868,None,None,0,,,,,,,,,,,,,,102,2023-03-28_13h40.34.530,Main,2022.1.1,60.005496489447054,
negative,yellow,1,k,None,,,,,,,,,0,26,26,26,,,,,,,,,,,,,,,,,main,k,k,1,1.4820205001160502,264.2979915998876,None,None,0,,,,,,,,,,,,,,102,2023-03-28_13h40.34.530,Main,2022.1.1,60.005496489447054,
positive,blue,2,k,None,,,,,,,,,0,27,27,27,,,,,,,,,,,,,,,,,main,k,k,1,0.6628213999792933,266.7785819999408,None,None,0,,,,,,,,,,,,,,102,2023-03-28_13h40.34.530,Main,2022.1.1,60.005496489447054,
negative,blue,2,None,k,,,,,,,,,0,28,28,28,,,,,,,,,,,,,,,,,main,None,None,1,1.4982733998913318,268.44518739986233,None,None,1,,,,,,,,,,,,,,102,2023-03-28_13h40.34.530,Main,2022.1.1,60.005496489447054,
positive,red,1,None,None,,,,,,,,,0,29,29,29,,,,,,,,,,,,,,,,,main,None,None,1,1.5023638000711799,270.9446573997848,None,None,1,,,,,,,,,,,,,,102,2023-03-28_13h40.34.530,Main,2022.1.1,60.005496489447054,
positive,blue,1,k,None,,,,,,,,,0,30,30,30,,,,,,,,,,,,,,,,,main,k,k,1,0.8329565001185983,273.44783569988795,None,None,0,,,,,,,,,,,,,,102,2023-03-28_13h40.34.530,Main,2022.1.1,60.005496489447054,
positive,yellow,1,None,k,,,,,,,,,0,31,31,31,,,,,,,,,,,,,,,,,main,None,None,1,1.4993276000022888,275.2810714999214,None,None,1,,,,,,,,,,,,,,102,2023-03-28_13h40.34.530,Main,2022.1.1,60.005496489447054,
negative,yellow,2,k,None,,,,,,,,,0,32,32,32,,,,,,,,,,,,,,,,,main,k,k,1,0.9986322999466211,277.7810162999667,None,None,0,,,,,,,,,,,,,,102,2023-03-28_13h40.34.530,Main,2022.1.1,60.005496489447054,
negative,blue,1,None,k,,,,,,,,,0,33,33,33,,,,,,,,,,,,,,,,,main,None,None,1,1.4989217999391258,279.77808919991367,None,None,1,,,,,,,,,,,,,,102,2023-03-28_13h40.34.530,Main,2022.1.1,60.005496489447054,
positive,blue,1,k,None,,,,,,,,,0,34,34,34,,,,,,,,,,,,,,,,,main,k,k,1,1.2160275999922305,282.2780456999317,None,None,0,,,,,,,,,,,,,,102,2023-03-28_13h40.34.530,Main,2022.1.1,60.005496489447054,
negative,yellow,1,k,None,,,,,,,,,0,35,35,35,,,,,,,,,,,,,,,,,main,k,k,1,1.132559600053355,284.4949420997873,None,None,0,,,,,,,,,,,,,,102,2023-03-28_13h40.34.530,Main,2022.1.1,60.005496489447054,
positive,yellow,2,None,k,,,,,,,,,0,36,36,36,,,,,,,,,,,,,,,,,main,None,None,1,1.4988096000161022,286.62800829997286,None,None,1,,,,,,,,,,,,,,102,2023-03-28_13h40.34.530,Main,2022.1.1,60.005496489447054,
positive,yellow,2,None,k,,,,,,,,,0,37,37,37,,,,,,,,,,,,,,,,,main,None,None,1,1.4957950001116842,289.13084599981084,None,None,1,,,,,,,,,,,,,,102,2023-03-28_13h40.34.530,Main,2022.1.1,60.005496489447054,
negative,yellow,2,k,None,,,,,,,,,0,38,38,38,,,,,,,,,,,,,,,,,main,k,k,1,1.032836199970916,291.62760439980775,None,None,0,,,,,,,,,,,,,,102,2023-03-28_13h40.34.530,Main,2022.1.1,60.005496489447054,
positive,yellow,1,None,k,,,,,,,,,0,39,39,39,,,,,,,,,,,,,,,,,main,None,None,1,1.5021201001945883,293.66094289999455,None,None,1,,,,,,,,,,,,,,102,2023-03-28_13h40.34.530,Main,2022.1.1,60.005496489447054,
negative,yellow,2,k,None,,,,,,,,,0,40,40,40,,,,,,,,,,,,,,,,,main,k,k,1,1.1629470000043511,296.1612172999885,None,None,0,,,,,,,,,,,,,,102,2023-03-28_13h40.34.530,Main,2022.1.1,60.005496489447054,
positive,blue,2,k,None,,,,,,,,,0,41,41,41,,,,,,,,,,,,,,,,,main,k,k,1,0.7325160999316722,298.3278548999224,None,None,0,,,,,,,,,,,,,,102,2023-03-28_13h40.34.530,Main,2022.1.1,60.005496489447054,
positive,blue,2,k,None,,,,,,,,,0,42,42,42,,,,,,,,,,,,,,,,,main,k,k,1,0.79868120001629,300.0640023997985,None,None,0,,,,,,,,,,,,,,102,2023-03-28_13h40.34.530,Main,2022.1.1,60.005496489447054,
negative,blue,2,None,k,,,,,,,,,0,43,43,43,,,,,,,,,,,,,,,,,main,None,None,1,1.501999500207603,301.8607212000061,None,None,1,,,,,,,,,,,,,,102,2023-03-28_13h40.34.530,Main,2022.1.1,60.005496489447054,
negative,red,1,None,None,,,,,,,,,0,44,44,44,,,,,,,,,,,,,,,,,main,None,None,1,1.4991713999770582,304.36392399994656,None,None,1,,,,,,,,,,,,,,102,2023-03-28_13h40.34.530,Main,2022.1.1,60.005496489447054,
negative,yellow,1,k,None,,,,,,,,,0,45,45,45,,,,,,,,,,,,,,,,,main,k,k,1,1.3963874999899417,306.8639131998643,None,None,0,,,,,,,,,,,,,,102,2023-03-28_13h40.34.530,Main,2022.1.1,60.005496489447054,
negative,yellow,1,k,None,,,,,,,,,0,46,46,46,,,,,,,,,,,,,,,,,main,k,k,1,0.665355599950999,309.2639109999873,None,None,0,,,,,,,,,,,,,,102,2023-03-28_13h40.34.530,Main,2022.1.1,60.005496489447054,
positive,red,1,None,None,,,,,,,,,0,47,47,47,,,,,,,,,,,,,,,,,main,None,None,1,1.5021003999281675,310.9274918998126,None,None,1,,,,,,,,,,,,,,102,2023-03-28_13h40.34.530,Main,2022.1.1,60.005496489447054,
positive,yellow,1,None,k,,,,,,,,,0,48,48,48,,,,,,,,,,,,,,,,,main,None,None,1,1.4994963000062853,313.42755129979923,None,None,1,,,,,,,,,,,,,,102,2023-03-28_13h40.34.530,Main,2022.1.1,60.005496489447054,
negative,blue,1,None,k,,,,,,,,,0,49,49,49,,,,,,,,,,,,,,,,,main,None,None,1,1.5029429998248816,315.93032219982706,None,None,1,,,,,,,,,,,,,,102,2023-03-28_13h40.34.530,Main,2022.1.1,60.005496489447054,
positive,yellow,2,None,k,,,,,,,,,0,50,50,50,,,,,,,,,,,,,,,,,main,None,None,1,1.491676399949938,318.4324984999839,None,None,1,,,,,,,,,,,,,,102,2023-03-28_13h40.34.530,Main,2022.1.1,60.005496489447054,
negative,blue,1,None,k,,,,,,,,,0,51,51,51,,,,,,,,,,,,,,,,,main,None,None,1,1.5021317000500858,320.92707129986957,None,None,1,,,,,,,,,,,,,,102,2023-03-28_13h40.34.530,Main,2022.1.1,60.005496489447054,
positive,red,2,None,None,,,,,,,,,0,52,52,52,,,,,,,,,,,,,,,,,main,None,None,1,1.4995111001189798,323.4273474998772,None,None,1,,,,,,,,,,,,,,102,2023-03-28_13h40.34.530,Main,2022.1.1,60.005496489447054,
positive,yellow,2,None,k,,,,,,,,,0,53,53,53,,,,,,,,,,,,,,,,,main,None,None,1,1.4959726000670344,325.9301241999492,None,None,1,,,,,,,,,,,,,,102,2023-03-28_13h40.34.530,Main,2022.1.1,60.005496489447054,
negative,red,2,None,None,,,,,,,,,0,54,54,54,,,,,,,,,,,,,,,,,main,None,None,1,1.501727299997583,328.4271218997892,None,None,1,,,,,,,,,,,,,,102,2023-03-28_13h40.34.530,Main,2022.1.1,60.005496489447054,
positive,yellow,1,None,k,,,,,,,,,0,55,55,55,,,,,,,,,,,,,,,,,main,None,None,1,1.4963643001392484,330.93001409992576,None,None,1,,,,,,,,,,,,,,102,2023-03-28_13h40.34.530,Main,2022.1.1,60.005496489447054,
negative,blue,2,None,k,,,,,,,,,0,56,56,56,,,,,,,,,,,,,,,,,main,None,None,1,1.5018011999782175,333.42708119982854,None,None,1,,,,,,,,,,,,,,102,2023-03-28_13h40.34.530,Main,2022.1.1,60.005496489447054,
positive,blue,1,k,None,,,,,,,,,0,57,57,57,,,,,,,,,,,,,,,,,main,k,k,1,0.8993770000524819,335.9270114998799,None,None,0,,,,,,,,,,,,,,102,2023-03-28_13h40.34.530,Main,2022.1.1,60.005496489447054,
positive,blue,1,k,None,,,,,,,,,0,58,58,58,,,,,,,,,,,,,,,,,main,k,k,1,0.6325737000443041,337.82981579983607,None,None,0,,,,,,,,,,,,,,102,2023-03-28_13h40.34.530,Main,2022.1.1,60.005496489447054,
negative,yellow,2,k,None,,,,,,,,,0,59,59,59,,,,,,,,,,,,,,,,,main,k,k,1,0.9293932998552918,339.46321819978766,None,None,0,,,,,,,,,,,,,,102,2023-03-28_13h40.34.530,Main,2022.1.1,60.005496489447054,
positive,red,2,None,None,,,,,,,,,0,60,60,60,,,,,,,,,,,,,,,,,main,None,None,1,1.4985503000207245,341.3935896998737,None,None,1,,,,,,,,,,,,,,102,2023-03-28_13h40.34.530,Main,2022.1.1,60.005496489447054,
negative,yellow,1,k,None,,,,,,,,,0,61,61,61,,,,,,,,,,,,,,,,,main,k,k,1,1.0359776001423597,343.8932812998537,None,None,0,,,,,,,,,,,,,,102,2023-03-28_13h40.34.530,Main,2022.1.1,60.005496489447054,
negative,red,1,None,None,,,,,,,,,0,62,62,62,,,,,,,,,,,,,,,,,main,None,None,1,1.4987641000188887,345.92975429981016,None,None,1,,,,,,,,,,,,,,102,2023-03-28_13h40.34.530,Main,2022.1.1,60.005496489447054,
negative,blue,1,None,k,,,,,,,,,0,63,63,63,,,,,,,,,,,,,,,,,main,None,None,1,1.496383700054139,348.4297391998116,None,None,1,,,,,,,,,,,,,,102,2023-03-28_13h40.34.530,Main,2022.1.1,60.005496489447054,
positive,blue,2,k,None,,,,,,,,,0,64,64,64,,,,,,,,,,,,,,,,,main,k,k,1,1.902134699979797,350.9266496999189,None,None,0,,,,,,,,,,,,,,102,2023-03-28_13h40.34.530,Main,2022.1.1,60.005496489447054,
negative,yellow,2,k,None,,,,,,,,,0,65,65,65,,,,,,,,,,,,,,,,,main,k,k,1,1.0014661999884993,354.8266054999549,None,None,0,,,,,,,,,,,,,,102,2023-03-28_13h40.34.530,Main,2022.1.1,60.005496489447054,
positive,yellow,2,None,k,,,,,,,,,0,66,66,66,,,,,,,,,,,,,,,,,main,None,None,1,1.4983186000026762,356.82943729986437,None,None,1,,,,,,,,,,,,,,102,2023-03-28_13h40.34.530,Main,2022.1.1,60.005496489447054,
positive,yellow,2,None,k,,,,,,,,,0,67,67,67,,,,,,,,,,,,,,,,,main,None,None,1,1.4992557999212295,359.32940649986267,None,None,1,,,,,,,,,,,,,,102,2023-03-28_13h40.34.530,Main,2022.1.1,60.005496489447054,
positive,red,1,None,None,,,,,,,,,0,68,68,68,,,,,,,,,,,,,,,,,main,None,None,1,1.4958643999416381,361.8263342999853,None,None,1,,,,,,,,,,,,,,102,2023-03-28_13h40.34.530,Main,2022.1.1,60.005496489447054,
positive,yellow,1,None,k,,,,,,,,,0,69,69,69,,,,,,,,,,,,,,,,,main,None,None,1,1.5035354001447558,364.3261322998442,None,None,1,,,,,,,,,,,,,,102,2023-03-28_13h40.34.530,Main,2022.1.1,60.005496489447054,
negative,yellow,2,k,None,,,,,,,,,0,70,70,70,,,,,,,,,,,,,,,,,main,k,k,1,0.9954247002024204,366.82946009980515,None,None,0,,,,,,,,,,,,,,102,2023-03-28_13h40.34.530,Main,2022.1.1,60.005496489447054,
positive,yellow,1,None,k,,,,,,,,,0,71,71,71,,,,,,,,,,,,,,,,,main,None,None,1,1.5017759001348168,368.8264999999665,None,None,1,,,,,,,,,,,,,,102,2023-03-28_13h40.34.530,Main,2022.1.1,60.005496489447054,
negative,blue,1,None,k,,,,,,,,,0,72,72,72,,,,,,,,,,,,,,,,,main,None,None,1,1.495696899946779,371.3293603998609,None,None,1,,,,,,,,,,,,,,102,2023-03-28_13h40.34.530,Main,2022.1.1,60.005496489447054,
negative,red,2,None,None,,,,,,,,,0,73,73,73,,,,,,,,,,,,,,,,,main,None,None,1,1.50215549999848,373.8259448998142,None,None,1,,,,,,,,,,,,,,102,2023-03-28_13h40.34.530,Main,2022.1.1,60.005496489447054,
positive,blue,2,k,None,,,,,,,,,0,74,74,74,,,,,,,,,,,,,,,,,main,k,k,1,-0.28211080003529787,376.3291331999935,None,None,0,,,,,,,,,,,,,,102,2023-03-28_13h40.34.530,Main,2022.1.1,60.005496489447054,
negative,blue,2,None,k,,,,,,,,,0,75,75,75,,,,,,,,,,,,,,,,,main,None,None,1,1.500810599885881,380.04289789986797,None,None,1,,,,,,,,,,,,,,102,2023-03-28_13h40.34.530,Main,2022.1.1,60.005496489447054,
negative,blue,2,None,k,,,,,,,,,0,76,76,76,,,,,,,,,,,,,,,,,main,None,None,1,1.4987415000796318,382.5427029998973,None,None,1,,,,,,,,,,,,,,102,2023-03-28_13h40.34.530,Main,2022.1.1,60.005496489447054,
negative,yellow,1,k,None,,,,,,,,,0,77,77,77,,,,,,,,,,,,,,,,,main,k,k,1,1.3966183001175523,385.0454301999416,None,None,0,,,,,,,,,,,,,,102,2023-03-28_13h40.34.530,Main,2022.1.1,60.005496489447054,
positive,blue,1,k,None,,,,,,,,,0,78,78,78,,,,,,,,,,,,,,,,,main,k,k,1,1.2365374001674354,387.4426356998738,None,None,0,,,,,,,,,,,,,,102,2023-03-28_13h40.34.530,Main,2022.1.1,60.005496489447054,
positive,blue,1,k,None,,,,,,,,,0,79,79,79,,,,,,,,,,,,,,,,,main,k,k,1,0.6645420000422746,389.67601259984076,None,None,0,,,,,,,,,,,,,,102,2023-03-28_13h40.34.530,Main,2022.1.1,60.005496489447054,
positive,red,2,None,None,,,,,,,,,0,80,80,80,,,,,,,,,,,,,,,,,main,None,None,1,1.4950184000190347,391.3426169999875,None,None,1,,,,,,,,,,,,,,102,2023-03-28_13h40.34.530,Main,2022.1.1,60.005496489447054,
positive,yellow,2,None,k,,,,,,,,,0,81,81,81,,,,,,,,,,,,,,,,,main,None,None,1,1.5026998999528587,393.84219559980556,None,None,1,,,,,,,,,,,,,,102,2023-03-28_13h40.34.530,Main,2022.1.1,60.005496489447054,
positive,blue,1,k,None,,,,,,,,,0,82,82,82,,,,,,,,,,,,,,,,,main,k,k,1,1.0661374998744577,396.34550039982423,None,None,0,,,,,,,,,,,,,,102,2023-03-28_13h40.34.530,Main,2022.1.1,60.005496489447054,
negative,yellow,2,k,None,,,,,,,,,0,83,83,83,,,,,,,,,,,,,,,,,main,k,k,1,0.9488554000854492,398.4120474997908,None,None,0,,,,,,,,,,,,,,102,2023-03-28_13h40.34.530,Main,2022.1.1,60.005496489447054,
positive,blue,2,k,None,,,,,,,,,0,84,84,84,,,,,,,,,,,,,,,,,main,k,k,1,1.0294233998283744,400.3621750997845,None,None,0,,,,,,,,,,,,,,102,2023-03-28_13h40.34.530,Main,2022.1.1,60.005496489447054,
positive,yellow,1,None,k,,,,,,,,,0,85,85,85,,,,,,,,,,,,,,,,,main,None,None,1,1.5017249998636544,402.3922957999166,None,None,1,,,,,,,,,,,,,,102,2023-03-28_13h40.34.530,Main,2022.1.1,60.005496489447054,
positive,blue,2,k,None,,,,,,,,,0,86,86,86,,,,,,,,,,,,,,,,,main,k,k,1,0.8463416998274624,404.89230059995316,None,None,0,,,,,,,,,,,,,,102,2023-03-28_13h40.34.530,Main,2022.1.1,60.005496489447054,
positive,blue,1,k,None,,,,,,,,,0,87,87,87,,,,,,,,,,,,,,,,,main,k,k,1,0.902904599905014,406.7422344998922,None,None,0,,,,,,,,,,,,,,102,2023-03-28_13h40.34.530,Main,2022.1.1,60.005496489447054,
negative,yellow,2,k,None,,,,,,,,,0,88,88,88,,,,,,,,,,,,,,,,,main,k,k,1,0.8483130000531673,408.64512719982304,None,None,0,,,,,,,,,,,,,,102,2023-03-28_13h40.34.530,Main,2022.1.1,60.005496489447054,
negative,blue,2,None,k,,,,,,,,,0,89,89,89,,,,,,,,,,,,,,,,,main,None,None,1,1.4978493999224156,410.49217669991776,None,None,1,,,,,,,,,,,,,,102,2023-03-28_13h40.34.530,Main,2022.1.1,60.005496489447054,
positive,yellow,2,None,k,,,,,,,,,0,90,90,90,,,,,,,,,,,,,,,,,main,None,None,1,1.4953272000420839,412.99216009979136,None,None,1,,,,,,,,,,,,,,102,2023-03-28_13h40.34.530,Main,2022.1.1,60.005496489447054,
negative,yellow,1,k,None,,,,,,,,,0,91,91,91,,,,,,,,,,,,,,,,,main,k,k,1,1.715832500020042,415.49185199989006,None,None,0,,,,,,,,,,,,,,102,2023-03-28_13h40.34.530,Main,2022.1.1,60.005496489447054,
negative,red,2,None,None,,,,,,,,,0,92,92,92,,,,,,,,,,,,,,,,,main,None,None,1,1.5013566999696195,419.21168689988554,None,None,1,,,,,,,,,,,,,,102,2023-03-28_13h40.34.530,Main,2022.1.1,60.005496489447054,
negative,blue,2,None,k,,,,,,,,,0,93,93,93,,,,,,,,,,,,,,,,,main,None,None,1,1.4983445000834763,421.71225449978374,None,None,1,,,,,,,,,,,,,,102,2023-03-28_13h40.34.530,Main,2022.1.1,60.005496489447054,
negative,blue,1,None,k,,,,,,,,,0,94,94,94,,,,,,,,,,,,,,,,,main,None,None,1,1.4989390999544412,424.2115589999594,None,None,1,,,,,,,,,,,,,,102,2023-03-28_13h40.34.530,Main,2022.1.1,60.005496489447054,
negative,blue,1,None,k,,,,,,,,,0,95,95,95,,,,,,,,,,,,,,,,,main,None,None,1,1.499903199961409,426.7085014998447,None,None,1,,,,,,,,,,,,,,102,2023-03-28_13h40.34.530,Main,2022.1.1,60.005496489447054,
negative,red,1,None,None,,,,,,,,,0,96,96,96,,,,,,,,,,,,,,,,,main,None,None,1,1.495619700057432,429.2086141000036,None,None,1,,,,,,,,,,,,,,102,2023-03-28_13h40.34.530,Main,2022.1.1,60.005496489447054,
positive,yellow,1,None,k,,,,,,,,,0,97,97,97,,,,,,,,,,,,,,,,,main,None,None,1,1.4993891001213342,431.7111825000029,None,None,1,,,,,,,,,,,,,,102,2023-03-28_13h40.34.530,Main,2022.1.1,60.005496489447054,
negative,yellow,1,k,None,,,,,,,,,0,98,98,98,,,,,,,,,,,,,,,,,main,k,k,1,0.8488870998844504,434.20839169993997,None,None,0,,,,,,,,,,,,,,102,2023-03-28_13h40.34.530,Main,2022.1.1,60.005496489447054,
positive,red,1,None,None,,,,,,,,,0,99,99,99,,,,,,,,,,,,,,,,,main,None,None,1,1.5021180000621825,436.05878059985116,None,None,1,,,,,,,,,,,,,,102,2023-03-28_13h40.34.530,Main,2022.1.1,60.005496489447054,
positive,blue,1,k,None,,,,,,,,,0,100,100,100,,,,,,,,,,,,,,,,,main,k,k,1,0.7967705000191927,438.5612179997843,None,None,0,,,,,,,,,,,,,,102,2023-03-28_13h40.34.530,Main,2022.1.1,60.005496489447054,
negative,yellow,1,k,None,,,,,,,,,0,101,101,101,,,,,,,,,,,,,,,,,main,k,k,1,1.0989232000429183,440.3613485000096,None,None,0,,,,,,,,,,,,,,102,2023-03-28_13h40.34.530,Main,2022.1.1,60.005496489447054,
negative,blue,2,None,k,,,,,,,,,0,102,102,102,,,,,,,,,,,,,,,,,main,None,None,1,1.5015078999567777,442.4612522998359,None,None,1,,,,,,,,,,,,,,102,2023-03-28_13h40.34.530,Main,2022.1.1,60.005496489447054,
negative,yellow,2,k,None,,,,,,,,,0,103,103,103,,,,,,,,,,,,,,,,,main,k,k,1,0.9466160000301898,444.95817749993876,None,None,0,,,,,,,,,,,,,,102,2023-03-28_13h40.34.530,Main,2022.1.1,60.005496489447054,
positive,yellow,2,None,k,,,,,,,,,0,104,104,104,,,,,,,,,,,,,,,,,main,None,None,1,1.501666400115937,446.9081546999514,None,None,1,,,,,,,,,,,,,,102,2023-03-28_13h40.34.530,Main,2022.1.1,60.005496489447054,
positive,blue,1,k,None,,,,,,,,,0,105,105,105,,,,,,,,,,,,,,,,,main,k,k,1,0.7161574999336153,449.41094439988956,None,None,0,,,,,,,,,,,,,,102,2023-03-28_13h40.34.530,Main,2022.1.1,60.005496489447054,
positive,blue,2,k,None,,,,,,,,,0,106,106,106,,,,,,,,,,,,,,,,,main,k,k,1,0.7464479999616742,451.1276624999009,None,None,0,,,,,,,,,,,,,,102,2023-03-28_13h40.34.530,Main,2022.1.1,60.005496489447054,
negative,blue,1,None,k,,,,,,,,,0,107,107,107,,,,,,,,,,,,,,,,,main,None,None,1,1.5014539998956025,452.87762099993415,None,None,1,,,,,,,,,,,,,,102,2023-03-28_13h40.34.530,Main,2022.1.1,60.005496489447054,
positive,yellow,2,None,k,,,,,,,,,0,108,108,108,,,,,,,,,,,,,,,,,main,None,None,1,1.4991687999572605,455.3747634999454,None,None,1,,,,,,,,,,,,,,102,2023-03-28_13h40.34.530,Main,2022.1.1,60.005496489447054,
negative,yellow,1,k,None,,,,,,,,,0,109,109,109,,,,,,,,,,,,,,,,,main,k,k,1,0.8292661998420954,457.87461589998566,None,None,0,,,,,,,,,,,,,,102,2023-03-28_13h40.34.530,Main,2022.1.1,60.005496489447054,
negative,blue,2,None,k,,,,,,,,,0,110,110,110,,,,,,,,,,,,,,,,,main,None,None,1,1.4988556001335382,459.70757189998403,None,None,1,,,,,,,,,,,,,,102,2023-03-28_13h40.34.530,Main,2022.1.1,60.005496489447054,
positive,blue,2,k,None,,,,,,,,,0,111,111,111,,,,,,,,,,,,,,,,,main,k,k,1,1.0665500999893993,462.207567299949,None,None,0,,,,,,,,,,,,,,102,2023-03-28_13h40.34.530,Main,2022.1.1,60.005496489447054,
negative,blue,1,None,k,,,,,,,,,0,112,112,112,,,,,,,,,,,,,,,,,main,None,None,1,1.5015734999906272,464.27734039979987,None,None,1,,,,,,,,,,,,,,102,2023-03-28_13h40.34.530,Main,2022.1.1,60.005496489447054,
positive,yellow,1,None,k,,,,,,,,,0,113,113,113,,,,,,,,,,,,,,,,,main,None,None,1,1.496127299964428,466.77447999990545,None,None,1,,,,,,,,,,,,,,102,2023-03-28_13h40.34.530,Main,2022.1.1,60.005496489447054,
negative,red,1,None,None,,,,,,,,,0,114,114,114,,,,,,,,,,,,,,,,,main,None,None,1,1.5023543999996036,469.27449300000444,None,None,1,,,,,,,,,,,,,,102,2023-03-28_13h40.34.530,Main,2022.1.1,60.005496489447054,
positive,red,1,None,None,,,,,,,,,0,115,115,115,,,,,,,,,,,,,,,,,main,None,None,1,1.498434599954635,471.77727219997905,None,None,1,,,,,,,,,,,,,,102,2023-03-28_13h40.34.530,Main,2022.1.1,60.005496489447054,
negative,red,2,None,None,,,,,,,,,0,116,116,116,,,,,,,,,,,,,,,,,main,None,None,1,1.4963889999780804,474.2770567999687,None,None,1,,,,,,,,,,,,,,102,2023-03-28_13h40.34.530,Main,2022.1.1,60.005496489447054,
negative,yellow,2,k,None,,,,,,,,,0,117,117,117,,,,,,,,,,,,,,,,,main,k,k,1,0.7996096999850124,476.7741597997956,None,None,0,,,,,,,,,,,,,,102,2023-03-28_13h40.34.530,Main,2022.1.1,60.005496489447054,
positive,yellow,1,None,k,,,,,,,,,0,118,118,118,,,,,,,,,,,,,,,,,main,None,None,1,1.4989225999452174,478.5770967998542,None,None,1,,,,,,,,,,,,,,102,2023-03-28_13h40.34.530,Main,2022.1.1,60.005496489447054,
positive,red,2,None,None,,,,,,,,,0,119,119,119,,,,,,,,,,,,,,,,,main,None,None,1,1.4986211999785155,481.07695949985646,None,None,1,,,,,,,,,,,,,,102,2023-03-28_13h40.34.530,Main,2022.1.1,60.005496489447054,
positive,blue,2,k,None,,,,,,,,,0,120,120,120,,,,,,,,,,,,,,,,,main,k,k,1,0.7833970000501722,483.57375459978357,None,None,0,,,,,,,,,,,,,,102,2023-03-28_13h40.34.530,Main,2022.1.1,60.005496489447054,
negative,red,1,None,None,,,,,,,,,0,121,121,121,,,,,,,,,,,,,,,,,main,None,None,1,1.5029596001841128,485.3607252999209,None,None,1,,,,,,,,,,,,,,102,2023-03-28_13h40.34.530,Main,2022.1.1,60.005496489447054,
positive,yellow,2,None,k,,,,,,,,,0,122,122,122,,,,,,,,,,,,,,,,,main,None,None,1,1.4971481000538915,487.8606724999845,None,None,1,,,,,,,,,,,,,,102,2023-03-28_13h40.34.530,Main,2022.1.1,60.005496489447054,
negative,red,2,None,None,,,,,,,,,0,123,123,123,,,,,,,,,,,,,,,,,main,None,None,1,1.498951500048861,490.3601326998323,None,None,1,,,,,,,,,,,,,,102,2023-03-28_13h40.34.530,Main,2022.1.1,60.005496489447054,
negative,yellow,2,k,None,,,,,,,,,0,124,124,124,,,,,,,,,,,,,,,,,main,k,k,1,1.513360699871555,492.8600486998912,None,None,0,,,,,,,,,,,,,,102,2023-03-28_13h40.34.530,Main,2022.1.1,60.005496489447054,
positive,red,1,None,None,,,,,,,,,0,125,125,125,,,,,,,,,,,,,,,,,main,None,None,1,1.5013907998800278,496.37654339987785,None,None,1,,,,,,,,,,,,,,102,2023-03-28_13h40.34.530,Main,2022.1.1,60.005496489447054,
negative,blue,2,None,k,,,,,,,,,0,126,126,126,,,,,,,,,,,,,,,,,main,None,None,1,1.4957141000777483,498.8766994997859,None,None,1,,,,,,,,,,,,,,102,2023-03-28_13h40.34.530,Main,2022.1.1,60.005496489447054,
negative,blue,1,None,k,,,,,,,,,0,127,127,127,,,,,,,,,,,,,,,,,main,None,None,1,1.4894272000528872,501.37370309978724,None,None,1,,,,,,,,,,,,,,102,2023-03-28_13h40.34.530,Main,2022.1.1,60.005496489447054,
negative,yellow,1,k,None,,,,,,,,,0,128,128,128,,,,,,,,,,,,,,,,,main,k,k,1,0.7084020001348108,503.86234869994223,None,None,0,,,,,,,,,,,,,,102,2023-03-28_13h40.34.530,Main,2022.1.1,60.005496489447054,
negative,yellow,1,k,None,,,,,,,,,0,129,129,129,,,,,,,,,,,,,,,,,main,k,k,1,0.619254999794066,505.5733035998419,None,None,0,,,,,,,,,,,,,,102,2023-03-28_13h40.34.530,Main,2022.1.1,60.005496489447054,
positive,blue,1,k,None,,,,,,,,,0,130,130,130,,,,,,,,,,,,,,,,,main,k,k,1,0.8991951998323202,507.19317059987225,None,None,0,,,,,,,,,,,,,,102,2023-03-28_13h40.34.530,Main,2022.1.1,60.005496489447054,
negative,blue,1,None,k,,,,,,,,,0,131,131,131,,,,,,,,,,,,,,,,,main,None,None,1,1.498690899927169,509.0902910998557,None,None,1,,,,,,,,,,,,,,102,2023-03-28_13h40.34.530,Main,2022.1.1,60.005496489447054,
negative,blue,2,None,k,,,,,,,,,0,132,132,132,,,,,,,,,,,,,,,,,main,None,None,1,1.4990250000264496,511.59317909996025,None,None,1,,,,,,,,,,,,,,102,2023-03-28_13h40.34.530,Main,2022.1.1,60.005496489447054,
positive,blue,2,k,None,,,,,,,,,0,133,133,133,,,,,,,,,,,,,,,,,main,k,k,1,0.9663168000988662,514.0928626998793,None,None,0,,,,,,,,,,,,,,102,2023-03-28_13h40.34.530,Main,2022.1.1,60.005496489447054,
positive,red,2,None,None,,,,,,,,,0,134,134,134,,,,,,,,,,,,,,,,,main,None,None,1,1.4986856000032276,516.0596587997861,None,None,1,,,,,,,,,,,,,,102,2023-03-28_13h40.34.530,Main,2022.1.1,60.005496489447054,
negative,yellow,2,k,None,,,,,,,,,0,135,135,135,,,,,,,,,,,,,,,,,main,k,k,1,1.01614010008052,518.5594760999084,None,None,0,,,,,,,,,,,,,,102,2023-03-28_13h40.34.530,Main,2022.1.1,60.005496489447054,
positive,yellow,2,None,k,,,,,,,,,0,136,136,136,,,,,,,,,,,,,,,,,main,None,None,1,1.4991533001884818,520.5733388999943,None,None,1,,,,,,,,,,,,,,102,2023-03-28_13h40.34.530,Main,2022.1.1,60.005496489447054,
positive,blue,1,k,None,,,,,,,,,0,137,137,137,,,,,,,,,,,,,,,,,main,k,k,1,0.9659204999916255,523.0761800999753,None,None,0,,,,,,,,,,,,,,102,2023-03-28_13h40.34.530,Main,2022.1.1,60.005496489447054,
positive,yellow,1,None,k,,,,,,,,,0,138,138,138,,,,,,,,,,,,,,,,,main,None,None,1,1.4957274999469519,525.0399273999501,None,None,1,,,,,,,,,,,,,,102,2023-03-28_13h40.34.530,Main,2022.1.1,60.005496489447054,
positive,yellow,1,None,k,,,,,,,,,0,139,139,139,,,,,,,,,,,,,,,,,main,None,None,1,1.5023147000465542,527.5395928998478,None,None,1,,,,,,,,,,,,,,102,2023-03-28_13h40.34.530,Main,2022.1.1,60.005496489447054,
positive,yellow,1,None,k,,,,,,,,,0,140,140,140,,,,,,,,,,,,,,,,,main,None,None,1,1.4996148999780416,530.0428466999438,None,None,1,,,,,,,,,,,,,,102,2023-03-28_13h40.34.530,Main,2022.1.1,60.005496489447054,
positive,blue,1,k,None,,,,,,,,,0,141,141,141,,,,,,,,,,,,,,,,,main,k,k,1,1.3286809001583606,532.5427090998273,None,None,0,,,,,,,,,,,,,,102,2023-03-28_13h40.34.530,Main,2022.1.1,60.005496489447054,
positive,blue,2,k,None,,,,,,,,,0,142,142,142,,,,,,,,,,,,,,,,,main,k,k,1,0.7823930000886321,534.8727061999962,None,None,0,,,,,,,,,,,,,,102,2023-03-28_13h40.34.530,Main,2022.1.1,60.005496489447054,
positive,yellow,2,None,k,,,,,,,,,0,143,143,143,,,,,,,,,,,,,,,,,main,None,k,0,0.7688110999297351,536.656078599859,None,None,1,,,,,,,,,,,,,,102,2023-03-28_13h40.34.530,Main,2022.1.1,60.005496489447054,
negative,yellow,2,k,None,,,,,,,,,0,144,144,144,,,,,,,,,,,,,,,,,main,k,k,1,1.0485005001537502,539.4258045998868,None,None,0,,,,,,,,,,,,,,102,2023-03-28_13h40.34.530,Main,2022.1.1,60.005496489447054,
negative,blue,2,None,k,,,,,,,,,0,145,145,145,,,,,,,,,,,,,,,,,main,None,None,1,1.4984735001344234,541.472975099925,None,None,1,,,,,,,,,,,,,,102,2023-03-28_13h40.34.530,Main,2022.1.1,60.005496489447054,
negative,red,1,None,None,,,,,,,,,0,146,146,146,,,,,,,,,,,,,,,,,main,None,None,1,1.5019094999879599,543.9728133999743,None,None,1,,,,,,,,,,,,,,102,2023-03-28_13h40.34.530,Main,2022.1.1,60.005496489447054,
positive,blue,1,k,None,,,,,,,,,0,147,147,147,,,,,,,,,,,,,,,,,main,k,k,1,0.883000000147149,546.4727522998583,None,None,0,,,,,,,,,,,,,,102,2023-03-28_13h40.34.530,Main,2022.1.1,60.005496489447054,
positive,yellow,1,None,k,,,,,,,,,0,148,148,148,,,,,,,,,,,,,,,,,main,None,None,1,1.4956719998735934,548.358902100008,None,None,1,,,,,,,,,,,,,,102,2023-03-28_13h40.34.530,Main,2022.1.1,60.005496489447054,
negative,red,2,None,None,,,,,,,,,0,149,149,149,,,,,,,,,,,,,,,,,main,None,None,1,1.49922990007326,550.8589472998865,None,None,1,,,,,,,,,,,,,,102,2023-03-28_13h40.34.530,Main,2022.1.1,60.005496489447054,
negative,blue,1,None,k,,,,,,,,,0,150,150,150,,,,,,,,,,,,,,,,,main,None,None,1,1.4986435999162495,553.3560300997924,None,None,1,,,,,,,,,,,,,,102,2023-03-28_13h40.34.530,Main,2022.1.1,60.005496489447054,
negative,yellow,2,k,None,,,,,,,,,0,151,151,151,,,,,,,,,,,,,,,,,main,k,k,1,1.1328902998939157,555.855629599886,None,None,0,,,,,,,,,,,,,,102,2023-03-28_13h40.34.530,Main,2022.1.1,60.005496489447054,
negative,blue,2,None,k,,,,,,,,,0,152,152,152,,,,,,,,,,,,,,,,,main,None,None,1,1.501836200011894,557.9890002999455,None,None,1,,,,,,,,,,,,,,102,2023-03-28_13h40.34.530,Main,2022.1.1,60.005496489447054,
negative,yellow,1,k,None,,,,,,,,,0,153,153,153,,,,,,,,,,,,,,,,,main,k,k,1,1.5495261999312788,560.492130599916,None,None,0,,,,,,,,,,,,,,102,2023-03-28_13h40.34.530,Main,2022.1.1,60.005496489447054,
negative,blue,1,None,k,,,,,,,,,0,154,154,154,,,,,,,,,,,,,,,,,main,None,None,1,1.4983442998491228,564.0419752998278,None,None,1,,,,,,,,,,,,,,102,2023-03-28_13h40.34.530,Main,2022.1.1,60.005496489447054,
positive,yellow,2,None,k,,,,,,,,,0,155,155,155,,,,,,,,,,,,,,,,,main,None,None,1,1.4987991999369115,566.539038799936,None,None,1,,,,,,,,,,,,,,102,2023-03-28_13h40.34.530,Main,2022.1.1,60.005496489447054,
positive,red,2,None,None,,,,,,,,,0,156,156,156,,,,,,,,,,,,,,,,,main,None,None,1,1.5018510001245886,569.0390230999328,None,None,1,,,,,,,,,,,,,,102,2023-03-28_13h40.34.530,Main,2022.1.1,60.005496489447054,
positive,red,1,None,None,,,,,,,,,0,157,157,157,,,,,,,,,,,,,,,,,main,None,None,1,1.499232499860227,571.5417361999862,None,None,1,,,,,,,,,,,,,,102,2023-03-28_13h40.34.530,Main,2022.1.1,60.005496489447054,
positive,blue,2,k,None,,,,,,,,,0,158,158,158,,,,,,,,,,,,,,,,,main,k,k,1,1.081830499926582,574.0389373998623,None,None,0,,,,,,,,,,,,,,102,2023-03-28_13h40.34.530,Main,2022.1.1,60.005496489447054,
negative,yellow,1,k,None,,,,,,,,,0,159,159,159,,,,,,,,,,,,,,,,,main,k,k,1,0.8789953000377864,576.1222722998355,None,None,0,,,,,,,,,,,,,,102,2023-03-28_13h40.34.530,Main,2022.1.1,60.005496489447054,
negative,red,2,None,None,,,,,,,,,0,160,160,160,,,,,,,,,,,,,,,,,main,None,None,1,1.502395800082013,578.0051913999487,None,None,1,,,,,,,,,,,,,,102,2023-03-28_13h40.34.530,Main,2022.1.1,60.005496489447054,
negative,blue,1,None,k,,,,,,,,,0,161,161,161,,,,,,,,,,,,,,,,,main,None,None,1,1.4990439000539482,580.5083949998952,None,None,1,,,,,,,,,,,,,,102,2023-03-28_13h40.34.530,Main,2022.1.1,60.005496489447054,
negative,blue,1,None,k,,,,,,,,,0,162,162,162,,,,,,,,,,,,,,,,,main,None,None,1,1.499060200061649,583.0083945998922,None,None,1,,,,,,,,,,,,,,102,2023-03-28_13h40.34.530,Main,2022.1.1,60.005496489447054,
negative,yellow,1,k,None,,,,,,,,,0,163,163,163,,,,,,,,,,,,,,,,,main,k,k,1,0.9326003000605851,585.5082618999295,None,None,0,,,,,,,,,,,,,,102,2023-03-28_13h40.34.530,Main,2022.1.1,60.005496489447054,
negative,yellow,1,k,None,,,,,,,,,0,164,164,164,,,,,,,,,,,,,,,,,main,k,k,1,0.7128256999421865,587.4385966998525,None,None,0,,,,,,,,,,,,,,102,2023-03-28_13h40.34.530,Main,2022.1.1,60.005496489447054,
positive,yellow,1,None,k,,,,,,,,,0,165,165,165,,,,,,,,,,,,,,,,,main,None,None,1,1.501725299982354,589.158156799851,None,None,1,,,,,,,,,,,,,,102,2023-03-28_13h40.34.530,Main,2022.1.1,60.005496489447054,
negative,red,1,None,None,,,,,,,,,0,166,166,166,,,,,,,,,,,,,,,,,main,None,None,1,1.4961903998628259,591.6580519999843,None,None,1,,,,,,,,,,,,,,102,2023-03-28_13h40.34.530,Main,2022.1.1,60.005496489447054,
negative,yellow,2,k,None,,,,,,,,,0,167,167,167,,,,,,,,,,,,,,,,,main,k,k,1,1.3364135001320392,594.1552493998315,None,None,0,,,,,,,,,,,,,,102,2023-03-28_13h40.34.530,Main,2022.1.1,60.005496489447054,
positive,blue,2,k,None,,,,,,,,,0,168,168,168,,,,,,,,,,,,,,,,,main,k,k,1,0.9618325000628829,596.4884665999562,None,None,0,,,,,,,,,,,,,,102,2023-03-28_13h40.34.530,Main,2022.1.1,60.005496489447054,
positive,red,2,None,None,,,,,,,,,0,169,169,169,,,,,,,,,,,,,,,,,main,None,None,1,1.4986388999968767,598.4580009998754,None,None,1,,,,,,,,,,,,,,102,2023-03-28_13h40.34.530,Main,2022.1.1,60.005496489447054,
positive,red,1,None,None,,,,,,,,,0,170,170,170,,,,,,,,,,,,,,,,,main,None,None,1,1.4992429001722485,600.9547068998218,None,None,1,,,,,,,,,,,,,,102,2023-03-28_13h40.34.530,Main,2022.1.1,60.005496489447054,
negative,blue,2,None,k,,,,,,,,,0,171,171,171,,,,,,,,,,,,,,,,,main,None,None,1,1.5023825999815017,603.4547185997944,None,None,1,,,,,,,,,,,,,,102,2023-03-28_13h40.34.530,Main,2022.1.1,60.005496489447054,
positive,blue,2,k,None,,,,,,,,,0,172,172,172,,,,,,,,,,,,,,,,,main,k,k,1,1.5465960998553783,605.957876799861,None,None,0,,,,,,,,,,,,,,102,2023-03-28_13h40.34.530,Main,2022.1.1,60.005496489447054,
negative,yellow,2,k,None,,,,,,,,,0,173,173,173,,,,,,,,,,,,,,,,,main,k,k,1,1.0814913001377136,609.507759799948,None,None,0,,,,,,,,,,,,,,102,2023-03-28_13h40.34.530,Main,2022.1.1,60.005496489447054,
positive,yellow,2,None,k,,,,,,,,,0,174,174,174,,,,,,,,,,,,,,,,,main,None,None,1,1.5017652998212725,611.5878458998632,None,None,1,,,,,,,,,,,,,,102,2023-03-28_13h40.34.530,Main,2022.1.1,60.005496489447054,
negative,blue,2,None,k,,,,,,,,,0,175,175,175,,,,,,,,,,,,,,,,,main,None,None,1,1.4963884998578578,614.0910614999011,None,None,1,,,,,,,,,,,,,,102,2023-03-28_13h40.34.530,Main,2022.1.1,60.005496489447054,
positive,blue,1,k,None,,,,,,,,,0,176,176,176,,,,,,,,,,,,,,,,,main,k,k,1,1.051770000020042,616.5909883999266,None,None,0,,,,,,,,,,,,,,102,2023-03-28_13h40.34.530,Main,2022.1.1,60.005496489447054,
positive,yellow,1,None,k,,,,,,,,,0,177,177,177,,,,,,,,,,,,,,,,,main,None,None,1,1.4987584999762475,618.6408569999039,None,None,1,,,,,,,,,,,,,,102,2023-03-28_13h40.34.530,Main,2022.1.1,60.005496489447054,
positive,blue,1,k,None,,,,,,,,,0,178,178,178,,,,,,,,,,,,,,,,,main,k,k,1,1.2298793999943882,621.137920799898,None,None,0,,,,,,,,,,,,,,102,2023-03-28_13h40.34.530,Main,2022.1.1,60.005496489447054,
positive,yellow,2,None,k,,,,,,,,,0,179,179,179,,,,,,,,,,,,,,,,,main,None,k,0,1.5016189999878407,623.3712192999665,None,None,1,,,,,,,,,,,,,,102,2023-03-28_13h40.34.530,Main,2022.1.1,60.005496489447054,
positive,blue,1,k,None,,,,,,,,,0,180,180,180,,,,,,,,,,,,,,,,,main,k,k,1,0.8514904999174178,626.8739997998346,None,None,0,,,,,,,,,,,,,,102,2023-03-28_13h40.34.530,Main,2022.1.1,60.005496489447054,
negative,red,1,None,None,,,,,,,,,0,181,181,181,,,,,,,,,,,,,,,,,main,None,None,1,1.4986097000073642,628.721142299939,None,None,1,,,,,,,,,,,,,,102,2023-03-28_13h40.34.530,Main,2022.1.1,60.005496489447054,
negative,blue,1,None,k,,,,,,,,,0,182,182,182,,,,,,,,,,,,,,,,,main,None,None,1,1.4956626000348479,631.2239886999596,None,None,1,,,,,,,,,,,,,,102,2023-03-28_13h40.34.530,Main,2022.1.1,60.005496489447054,
negative,yellow,2,k,None,,,,,,,,,0,183,183,183,,,,,,,,,,,,,,,,,main,k,k,1,0.7195152000058442,633.7207066998817,None,None,0,,,,,,,,,,,,,,102,2023-03-28_13h40.34.530,Main,2022.1.1,60.005496489447054,
positive,yellow,2,None,k,,,,,,,,,0,184,184,184,,,,,,,,,,,,,,,,,main,None,None,1,1.4960107998922467,635.4406835997943,None,None,1,,,,,,,,,,,,,,102,2023-03-28_13h40.34.530,Main,2022.1.1,60.005496489447054,
positive,yellow,1,None,k,,,,,,,,,0,185,185,185,,,,,,,,,,,,,,,,,main,None,k,0,0.7826001001521945,637.9406150998548,None,None,1,,,,,,,,,,,,,,102,2023-03-28_13h40.34.530,Main,2022.1.1,60.005496489447054,
positive,red,2,None,None,,,,,,,,,0,186,186,186,,,,,,,,,,,,,,,,,main,None,None,1,1.5012942000757903,640.7237293999642,None,None,1,,,,,,,,,,,,,,102,2023-03-28_13h40.34.530,Main,2022.1.1,60.005496489447054,
positive,blue,1,k,None,,,,,,,,,0,187,187,187,,,,,,,,,,,,,,,,,main,k,k,1,1.0293843999970704,643.2209065000061,None,None,0,,,,,,,,,,,,,,102,2023-03-28_13h40.34.530,Main,2022.1.1,60.005496489447054,
negative,yellow,1,k,None,,,,,,,,,0,188,188,188,,,,,,,,,,,,,,,,,main,k,k,1,1.0851166998036206,645.2541019998025,None,None,0,,,,,,,,,,,,,,102,2023-03-28_13h40.34.530,Main,2022.1.1,60.005496489447054,
positive,yellow,2,None,k,,,,,,,,,0,189,189,189,,,,,,,,,,,,,,,,,main,None,None,1,1.499078700086102,647.3374260999262,None,None,1,,,,,,,,,,,,,,102,2023-03-28_13h40.34.530,Main,2022.1.1,60.005496489447054,
negative,yellow,2,k,None,,,,,,,,,0,190,190,190,,,,,,,,,,,,,,,,,main,k,k,1,1.1494225000496954,649.8402894998435,None,None,0,,,,,,,,,,,,,,102,2023-03-28_13h40.34.530,Main,2022.1.1,60.005496489447054,
negative,yellow,1,k,None,,,,,,,,,0,191,191,191,,,,,,,,,,,,,,,,,main,k,k,1,0.8957257000729442,651.9902917,None,None,0,,,,,,,,,,,,,,102,2023-03-28_13h40.34.530,Main,2022.1.1,60.005496489447054,
positive,blue,2,k,None,,,,,,,,,0,192,192,192,,,,,,,,,,,,,,,,,main,k,k,1,0.8660770999267697,653.8870244999416,None,None,0,,,,,,,,,,,,,,102,2023-03-28_13h40.34.530,Main,2022.1.1,60.005496489447054,
positive,yellow,1,None,k,,,,,,,,,0,193,193,193,,,,,,,,,,,,,,,,,main,None,None,1,1.5019155000336468,655.753870099783,None,None,1,,,,,,,,,,,,,,102,2023-03-28_13h40.34.530,Main,2022.1.1,60.005496489447054,
negative,red,2,None,None,,,,,,,,,0,194,194,194,,,,,,,,,,,,,,,,,main,None,None,1,1.4990489999763668,658.2567696999758,None,None,1,,,,,,,,,,,,,,102,2023-03-28_13h40.34.530,Main,2022.1.1,60.005496489447054,
positive,red,1,None,None,,,,,,,,,0,195,195,195,,,,,,,,,,,,,,,,,main,None,None,1,1.496120700147003,660.7568041998893,None,None,1,,,,,,,,,,,,,,102,2023-03-28_13h40.34.530,Main,2022.1.1,60.005496489447054,
negative,blue,1,None,k,,,,,,,,,0,196,196,196,,,,,,,,,,,,,,,,,main,None,None,1,1.5017148999031633,663.2566266998183,None,None,1,,,,,,,,,,,,,,102,2023-03-28_13h40.34.530,Main,2022.1.1,60.005496489447054,
positive,blue,2,k,None,,,,,,,,,0,197,197,197,,,,,,,,,,,,,,,,,main,k,k,1,1.1661584998946637,665.756476999959,None,None,0,,,,,,,,,,,,,,102,2023-03-28_13h40.34.530,Main,2022.1.1,60.005496489447054,
negative,blue,2,None,k,,,,,,,,,0,198,198,198,,,,,,,,,,,,,,,,,main,None,None,1,1.4961246000602841,667.9233293998986,None,None,1,,,,,,,,,,,,,,102,2023-03-28_13h40.34.530,Main,2022.1.1,60.005496489447054,
negative,blue,2,None,k,,,,,,,,,0,199,199,199,,,,,,,,,,,,,,,,,main,None,None,1,1.4990966999903321,670.4230824999977,None,None,1,,,,,,,,,,,,,,102,2023-03-28_13h40.34.530,Main,2022.1.1,60.005496489447054,
positive,blue,2,k,None,,,,,,,,,0,200,200,200,,,,,,,,,,,,,,,,,main,k,k,1,0.8827012002002448,672.9231396999676,None,None,0,,,,,,,,,,,,,,102,2023-03-28_13h40.34.530,Main,2022.1.1,60.005496489447054,
positive,blue,2,k,None,,,,,,,,,0,201,201,201,,,,,,,,,,,,,,,,,main,k,k,1,0.6813562999013811,674.8064235998318,None,None,0,,,,,,,,,,,,,,102,2023-03-28_13h40.34.530,Main,2022.1.1,60.005496489447054,
negative,yellow,2,k,None,,,,,,,,,0,202,202,202,,,,,,,,,,,,,,,,,main,k,k,1,1.1323168000672013,676.4865358998068,None,None,0,,,,,,,,,,,,,,102,2023-03-28_13h40.34.530,Main,2022.1.1,60.005496489447054,
positive,red,1,None,None,,,,,,,,,0,203,203,203,,,,,,,,,,,,,,,,,main,None,None,1,1.5022191999014467,678.6198749998584,None,None,1,,,,,,,,,,,,,,102,2023-03-28_13h40.34.530,Main,2022.1.1,60.005496489447054,
negative,blue,2,None,k,,,,,,,,,0,204,204,204,,,,,,,,,,,,,,,,,main,None,None,1,1.4987522000446916,681.120396199869,None,None,1,,,,,,,,,,,,,,102,2023-03-28_13h40.34.530,Main,2022.1.1,60.005496489447054,
negative,red,1,None,None,,,,,,,,,0,205,205,205,,,,,,,,,,,,,,,,,main,None,None,1,1.4960479999426752,683.6228633997962,None,None,1,,,,,,,,,,,,,,102,2023-03-28_13h40.34.530,Main,2022.1.1,60.005496489447054,
negative,blue,2,None,k,,,,,,,,,0,206,206,206,,,,,,,,,,,,,,,,,main,None,None,1,1.5021261000074446,686.1227902998216,None,None,1,,,,,,,,,,,,,,102,2023-03-28_13h40.34.530,Main,2022.1.1,60.005496489447054,
negative,yellow,2,k,None,,,,,,,,,0,207,207,207,,,,,,,,,,,,,,,,,main,k,k,1,0.7964765001088381,688.6199122997932,None,None,0,,,,,,,,,,,,,,102,2023-03-28_13h40.34.530,Main,2022.1.1,60.005496489447054,
positive,yellow,2,None,k,,,,,,,,,0,208,208,208,,,,,,,,,,,,,,,,,main,None,None,1,1.5017693999689072,690.4227225999348,None,None,1,,,,,,,,,,,,,,102,2023-03-28_13h40.34.530,Main,2022.1.1,60.005496489447054,
negative,yellow,1,k,None,,,,,,,,,0,209,209,209,,,,,,,,,,,,,,,,,main,k,k,1,1.816212800098583,692.9226275999099,None,None,0,,,,,,,,,,,,,,102,2023-03-28_13h40.34.530,Main,2022.1.1,60.005496489447054,
negative,red,2,None,None,,,,,,,,,0,210,210,210,,,,,,,,,,,,,,,,,main,None,None,1,1.4979885998181999,696.7559816997964,None,None,1,,,,,,,,,,,,,,102,2023-03-28_13h40.34.530,Main,2022.1.1,60.005496489447054,
negative,blue,1,None,k,,,,,,,,,0,211,211,211,,,,,,,,,,,,,,,,,main,None,None,1,1.5018092000391334,699.2527569998056,None,None,1,,,,,,,,,,,,,,102,2023-03-28_13h40.34.530,Main,2022.1.1,60.005496489447054,
negative,yellow,1,k,None,,,,,,,,,0,212,212,212,,,,,,,,,,,,,,,,,main,k,k,1,0.9827744998037815,701.7558686998673,None,None,0,,,,,,,,,,,,,,102,2023-03-28_13h40.34.530,Main,2022.1.1,60.005496489447054,
positive,blue,1,k,None,,,,,,,,,0,213,213,213,,,,,,,,,,,,,,,,,main,k,k,1,0.8157416998874396,703.7393330999184,None,None,0,,,,,,,,,,,,,,102,2023-03-28_13h40.34.530,Main,2022.1.1,60.005496489447054,
positive,blue,1,k,None,,,,,,,,,0,214,214,214,,,,,,,,,,,,,,,,,main,k,k,1,0.5822022999636829,705.5530226998962,None,None,0,,,,,,,,,,,,,,102,2023-03-28_13h40.34.530,Main,2022.1.1,60.005496489447054,
positive,yellow,1,None,k,,,,,,,,,0,215,215,215,,,,,,,,,,,,,,,,,main,None,None,1,1.496112999971956,707.1390317999758,None,None,1,,,,,,,,,,,,,,102,2023-03-28_13h40.34.530,Main,2022.1.1,60.005496489447054,
positive,yellow,1,None,k,,,,,,,,,0,216,216,216,,,,,,,,,,,,,,,,,main,None,None,1,1.5019706999883056,709.6361773000099,None,None,1,,,,,,,,,,,,,,102,2023-03-28_13h40.34.530,Main,2022.1.1,60.005496489447054,
positive,yellow,2,None,k,,,,,,,,,0,217,217,217,,,,,,,,,,,,,,,,,main,None,None,1,1.4994505001232028,712.1359241998289,None,None,1,,,,,,,,,,,,,,102,2023-03-28_13h40.34.530,Main,2022.1.1,60.005496489447054,
negative,blue,1,None,k,,,,,,,,,0,218,218,218,,,,,,,,,,,,,,,,,main,None,None,1,1.4990207999944687,714.6361858998425,None,None,1,,,,,,,,,,,,,,102,2023-03-28_13h40.34.530,Main,2022.1.1,60.005496489447054,
positive,red,2,None,None,,,,,,,,,0,219,219,219,,,,,,,,,,,,,,,,,main,None,None,1,1.4991926001384854,717.1388842999004,None,None,1,,,,,,,,,,,,,,102,2023-03-28_13h40.34.530,Main,2022.1.1,60.005496489447054,
positive,yellow,1,None,k,,,,,,,,,0,220,220,220,,,,,,,,,,,,,,,,,main,None,None,1,1.4959640998858958,719.6358685998712,None,None,1,,,,,,,,,,,,,,102,2023-03-28_13h40.34.530,Main,2022.1.1,60.005496489447054,
positive,blue,1,k,None,,,,,,,,,0,221,221,221,,,,,,,,,,,,,,,,,main,k,k,1,1.3187827998772264,722.1356563000008,None,None,0,,,,,,,,,,,,,,102,2023-03-28_13h40.34.530,Main,2022.1.1,60.005496489447054,
positive,yellow,2,None,k,,,,,,,,,0,222,222,222,,,,,,,,,,,,,,,,,main,None,None,1,1.4979718998074532,724.4555255998857,None,None,1,,,,,,,,,,,,,,102,2023-03-28_13h40.34.530,Main,2022.1.1,60.005496489447054,
negative,yellow,1,k,None,,,,,,,,,0,223,223,223,,,,,,,,,,,,,,,,,main,k,k,1,1.3821913001593202,726.9554591998458,None,None,0,,,,,,,,,,,,,,102,2023-03-28_13h40.34.530,Main,2022.1.1,60.005496489447054,
positive,yellow,2,None,k,,,,,,,,,0,224,224,224,,,,,,,,,,,,,,,,,main,None,None,1,1.4987160000018775,729.3388338999357,None,None,1,,,,,,,,,,,,,,102,2023-03-28_13h40.34.530,Main,2022.1.1,60.005496489447054,
negative,yellow,2,k,None,,,,,,,,,0,225,225,225,,,,,,,,,,,,,,,,,main,k,k,1,4.99928450002335,731.8356696998235,None,None,0,,,,,,,,,,,,,,102,2023-03-28_13h40.34.530,Main,2022.1.1,60.005496489447054,
negative,blue,2,None,k,,,,,,,,,0,226,226,226,,,,,,,,,,,,,,,,,main,None,None,1,1.4984395001083612,738.8383930998389,None,None,1,,,,,,,,,,,,,,102,2023-03-28_13h40.34.530,Main,2022.1.1,60.005496489447054,
positive,red,2,None,None,,,,,,,,,0,227,227,227,,,,,,,,,,,,,,,,,main,None,None,1,1.498349400004372,741.3384355998132,None,None,1,,,,,,,,,,,,,,102,2023-03-28_13h40.34.530,Main,2022.1.1,60.005496489447054,
positive,blue,2,k,None,,,,,,,,,0,228,228,228,,,,,,,,,,,,,,,,,main,k,k,1,0.7494918999727815,743.8351670999546,None,None,0,,,,,,,,,,,,,,102,2023-03-28_13h40.34.530,Main,2022.1.1,60.005496489447054,
negative,blue,1,None,k,,,,,,,,,0,229,229,229,,,,,,,,,,,,,,,,,main,None,None,1,1.4992465998511761,745.5851914999075,None,None,1,,,,,,,,,,,,,,102,2023-03-28_13h40.34.530,Main,2022.1.1,60.005496489447054,
positive,yellow,1,None,k,,,,,,,,,0,230,230,230,,,,,,,,,,,,,,,,,main,None,None,1,1.5015889001078904,748.0883458999451,None,None,1,,,,,,,,,,,,,,102,2023-03-28_13h40.34.530,Main,2022.1.1,60.005496489447054,
negative,blue,2,None,k,,,,,,,,,0,231,231,231,,,,,,,,,,,,,,,,,main,None,None,1,1.4990914999507368,750.588291299995,None,None,1,,,,,,,,,,,,,,102,2023-03-28_13h40.34.530,Main,2022.1.1,60.005496489447054,
negative,red,1,None,None,,,,,,,,,0,232,232,232,,,,,,,,,,,,,,,,,main,None,None,1,1.4963589999824762,753.088036299916,None,None,1,,,,,,,,,,,,,,102,2023-03-28_13h40.34.530,Main,2022.1.1,60.005496489447054,
positive,blue,2,k,None,,,,,,,,,0,233,233,233,,,,,,,,,,,,,,,,,main,k,k,1,2.003222599858418,755.5851990999654,None,None,0,,,,,,,,,,,,,,102,2023-03-28_13h40.34.530,Main,2022.1.1,60.005496489447054,
negative,yellow,1,k,None,,,,,,,,,0,234,234,234,,,,,,,,,,,,,,,,,main,k,k,1,1.5848200998734683,759.5879739997908,None,None,0,,,,,,,,,,,,,,102,2023-03-28_13h40.34.530,Main,2022.1.1,60.005496489447054,
negative,yellow,2,k,None,,,,,,,,,0,235,235,235,,,,,,,,,,,,,,,,,main,k,k,1,0.7402718998491764,763.1714303998742,None,None,0,,,,,,,,,,,,,,102,2023-03-28_13h40.34.530,Main,2022.1.1,60.005496489447054,
positive,red,1,None,None,,,,,,,,,0,236,236,236,,,,,,,,,,,,,,,,,main,None,None,1,1.4907376000192016,764.9014188998844,None,None,1,,,,,,,,,,,,,,102,2023-03-28_13h40.34.530,Main,2022.1.1,60.005496489447054,
negative,red,2,None,None,,,,,,,,,0,237,237,237,,,,,,,,,,,,,,,,,main,None,None,1,1.502034500008449,767.4046149998903,None,None,1,,,,,,,,,,,,,,102,2023-03-28_13h40.34.530,Main,2022.1.1,60.005496489447054,
negative,blue,1,None,k,,,,,,,,,0,238,238,238,,,,,,,,,,,,,,,,,main,None,None,1,1.4992309000808746,769.9045115998015,None,None,1,,,,,,,,,,,,,,102,2023-03-28_13h40.34.530,Main,2022.1.1,60.005496489447054,
positive,blue,1,k,None,,,,,,,,,0,239,239,239,,,,,,,,,,,,,,,,,main,k,k,1,0.915022199973464,772.4044174998999,None,None,0,,,,,,,,,,,,,,102,2023-03-28_13h40.34.530,Main,2022.1.1,60.005496489447054,
,,,,,,,,,,,,,,,,,,,,,,,,,,,,,,,,,,,,,,,,,,,,,,,,,,,,,774.3181028999388,None,,,,,,
