distractor,target,set,ans1,ans2,rep_loop4.thisRepN,rep_loop4.thisTrialN,rep_loop4.thisN,rep_loop4.thisIndex,st2_prac_loop.thisRepN,st2_prac_loop.thisTrialN,st2_prac_loop.thisN,st2_prac_loop.thisIndex,st2_main_loop.thisRepN,st2_main_loop.thisTrialN,st2_main_loop.thisN,st2_main_loop.thisIndex,image_4.started,image_4.stopped,sound_2.started,sound_2.stopped,key_resp_3.keys,key_resp_3.rt,image_5.started,image_5.stopped,st_prac_back.started,st_prac_back.stopped,st_prac_text.started,st_prac_text.stopped,st_fix_back.started,st_fix_back.stopped,st_fix_2.started,st_fix_2.stopped,main_prac,st_ans,st_res,st_corr,st_rt,st_back.started,st_back.stopped,st2_resp.keys,st2_resp.corr,st_main_back.started,st_main_back.stopped,st_main_text.started,st_main_text.stopped,mouse_4.x,mouse_4.y,mouse_4.leftButton,mouse_4.midButton,mouse_4.rightButton,mouse_4.started,mouse_4.stopped,text_2.started,text_2.stopped,id*,date,expName,psychopyVersion,frameRate,
negative,yellow,1,k,None,,,,,0,0,0,0,,,,,31.67625949997455,None,36.467482370021756,None,space,57.7870487999171,94.28292539995164,None,95.832890199963,None,95.832890199963,None,97.8327341999393,None,97.8327341999393,None,prac,None,None,1,1.5003772999625653,99.84073500009254,None,None,1,,,,,,,,,,,,,,103,2023-03-28_16h44.18.122,Main,2022.1.1,60.03763165040635,
positive,red,2,None,None,,,,,0,1,1,1,,,,,,,,,,,,,,,,,,,,,prac,None,None,1,1.4952517000492662,102.34645300009288,None,None,1,,,,,,,,,,,,,,103,2023-03-28_16h44.18.122,Main,2022.1.1,60.03763165040635,
negative,blue,2,None,k,,,,,0,2,2,2,,,,,,,,,,,,,,,,,,,,,prac,k,k,1,0.7164521999657154,104.84610010008328,None,None,0,,,,,,,,,,,,,,103,2023-03-28_16h44.18.122,Main,2022.1.1,60.03763165040635,
positive,yellow,1,None,k,,,,,0,3,3,3,,,,,,,,,,,,,,,,,,,,,prac,k,k,1,0.7853729999624193,106.5631613000296,None,None,0,,,,,,,,,,,,,,103,2023-03-28_16h44.18.122,Main,2022.1.1,60.03763165040635,
negative,blue,2,None,k,,,,,0,4,4,4,,,,,,,,,,,,,,,,,,,,,prac,k,k,1,0.629527699900791,108.34920649998821,None,None,0,,,,,,,,,,,,,,103,2023-03-28_16h44.18.122,Main,2022.1.1,60.03763165040635,
negative,blue,1,None,k,,,,,0,5,5,5,,,,,,,,,,,,,,,,,,,,,prac,k,k,1,0.9887334001250565,109.97977680014446,None,None,0,,,,,,,,,,,,,,103,2023-03-28_16h44.18.122,Main,2022.1.1,60.03763165040635,
negative,yellow,2,k,None,,,,,0,6,6,6,,,,,,,,,,,,,,,,,,,,,prac,None,None,1,1.491197999799624,111.97569300001487,None,None,1,,,,,,,,,,,,,,103,2023-03-28_16h44.18.122,Main,2022.1.1,60.03763165040635,
negative,red,1,None,None,,,,,0,7,7,7,,,,,,,,,,,,,,,,,,,,,prac,None,None,1,1.5022877999581397,114.46259359992109,None,None,1,,,,,,,,,,,,,,103,2023-03-28_16h44.18.122,Main,2022.1.1,60.03763165040635,
positive,yellow,2,None,k,,,,,0,8,8,8,,,,,,,,,,,,,,,,,,,,,prac,k,k,1,0.8134878999553621,116.96292329998687,None,None,0,,,,,,,,,,,,,,103,2023-03-28_16h44.18.122,Main,2022.1.1,60.03763165040635,
negative,yellow,1,k,None,,,,,0,9,9,9,,,,,,,,,,,,,,,,,,,,,prac,None,None,1,1.5012924999464303,118.78238609991968,None,None,1,,,,,,,,,,,,,,103,2023-03-28_16h44.18.122,Main,2022.1.1,60.03763165040635,
positive,yellow,2,None,k,,,,,0,10,10,10,,,,,,,,,,,,,,,,,,,,,prac,k,k,1,1.1631627001333982,121.28239820012823,None,None,0,,,,,,,,,,,,,,103,2023-03-28_16h44.18.122,Main,2022.1.1,60.03763165040635,
negative,yellow,2,k,None,,,,,0,11,11,11,,,,,,,,,,,,,,,,,,,,,prac,None,None,1,1.4988613000605255,123.4459420000203,None,None,1,,,,,,,,,,,,,,103,2023-03-28_16h44.18.122,Main,2022.1.1,60.03763165040635,
negative,red,2,None,None,,,,,0,12,12,12,,,,,,,,,,,,,,,,,,,,,prac,None,None,1,1.499165300047025,125.94590779999271,None,None,1,,,,,,,,,,,,,,103,2023-03-28_16h44.18.122,Main,2022.1.1,60.03763165040635,
positive,red,1,None,None,,,,,0,13,13,13,,,,,,,,,,,,,,,,,,,,,prac,None,None,1,1.502175800036639,128.44591809995472,None,None,1,,,,,,,,,,,,,,103,2023-03-28_16h44.18.122,Main,2022.1.1,60.03763165040635,
positive,blue,2,k,None,,,,,0,14,14,14,,,,,,,,,,,,,,,,,,,,,prac,None,None,1,1.4959684000350535,130.9459067999851,None,None,1,,,,,,,,,,,,,,103,2023-03-28_16h44.18.122,Main,2022.1.1,60.03763165040635,
positive,blue,1,k,None,,,,,0,15,15,15,,,,,,,,,,,,,,,,,,,,,prac,None,None,1,1.4989572998601943,133.44590350007638,None,None,1,,,,,,,,,,,,,,103,2023-03-28_16h44.18.122,Main,2022.1.1,60.03763165040635,
negative,blue,1,None,k,,,,,0,16,16,16,,,,,,,,,,,,,,,,,,,,,prac,k,k,1,0.6192228998988867,135.9454225001391,None,None,0,,,,,,,,,,,,,,103,2023-03-28_16h44.18.122,Main,2022.1.1,60.03763165040635,
positive,blue,2,k,None,,,,,0,17,17,17,,,,,,,,,,,,,,,,,,,,,prac,None,None,1,1.4986601998098195,137.5625110999681,None,None,1,,,,,,,,,,,,,,103,2023-03-28_16h44.18.122,Main,2022.1.1,60.03763165040635,
positive,blue,1,k,None,,,,,0,18,18,18,,,,,,,,,,,,,,,,,,,,,prac,None,None,1,1.498951899819076,140.06243359996006,None,None,1,,,,,,,,,,,,,,103,2023-03-28_16h44.18.122,Main,2022.1.1,60.03763165040635,
positive,yellow,1,None,k,,,,,0,19,19,19,,,,,,,,,,,,,,,,,,,,,prac,k,k,1,0.5965813999064267,142.56526620010845,None,None,0,,,,,,,,,,,,,,103,2023-03-28_16h44.18.122,Main,2022.1.1,60.03763165040635,
negative,yellow,1,k,None,,,,,1,0,20,0,,,,,,,,,,,,,,,,,,,,,prac,None,None,1,1.4988679001107812,144.16220419993624,None,None,1,,,,,,,,,,,,,,103,2023-03-28_16h44.18.122,Main,2022.1.1,60.03763165040635,
positive,red,2,None,None,,,,,1,1,21,1,,,,,,,,,,,,,,,,,,,,,prac,None,None,1,1.5019771000370383,146.6622226999607,None,None,1,,,,,,,,,,,,,,103,2023-03-28_16h44.18.122,Main,2022.1.1,60.03763165040635,
negative,blue,2,None,k,,,,,1,2,22,2,,,,,,,,,,,,,,,,,,,,,prac,k,k,1,0.7132220999337733,149.1621433000546,None,None,0,,,,,,,,,,,,,,103,2023-03-28_16h44.18.122,Main,2022.1.1,60.03763165040635,
positive,yellow,1,None,k,,,,,1,3,23,3,,,,,,,,,,,,,,,,,,,,,prac,k,k,1,0.5657929999288172,150.87877589999698,None,None,0,,,,,,,,,,,,,,103,2023-03-28_16h44.18.122,Main,2022.1.1,60.03763165040635,
negative,blue,2,None,k,,,,,1,4,24,4,,,,,,,,,,,,,,,,,,,,,prac,k,k,1,0.9825842999853194,152.44541430007666,None,None,0,,,,,,,,,,,,,,103,2023-03-28_16h44.18.122,Main,2022.1.1,60.03763165040635,
negative,blue,1,None,k,,,,,1,5,25,5,,,,,,,,,,,,,,,,,,,,,prac,k,k,1,0.8154370998963714,154.42874090000987,None,None,0,,,,,,,,,,,,,,103,2023-03-28_16h44.18.122,Main,2022.1.1,60.03763165040635,
negative,yellow,2,k,None,,,,,1,6,26,6,,,,,,,,,,,,,,,,,,,,,prac,None,None,1,1.502143899910152,156.24503440014087,None,None,1,,,,,,,,,,,,,,103,2023-03-28_16h44.18.122,Main,2022.1.1,60.03763165040635,
negative,red,1,None,None,,,,,1,7,27,7,,,,,,,,,,,,,,,,,,,,,prac,None,None,1,1.499127299990505,158.74819210008718,None,None,1,,,,,,,,,,,,,,103,2023-03-28_16h44.18.122,Main,2022.1.1,60.03763165040635,
positive,yellow,2,None,k,,,,,1,8,28,8,,,,,,,,,,,,,,,,,,,,,prac,k,k,1,0.6630204999819398,161.24533320008777,None,None,0,,,,,,,,,,,,,,103,2023-03-28_16h44.18.122,Main,2022.1.1,60.03763165040635,
negative,yellow,1,k,None,,,,,1,9,29,9,,,,,,,,,,,,,,,,,,,,,prac,None,None,1,1.4985122999642044,162.9119653000962,None,None,1,,,,,,,,,,,,,,103,2023-03-28_16h44.18.122,Main,2022.1.1,60.03763165040635,
positive,yellow,2,None,k,,,,,1,10,30,10,,,,,,,,,,,,,,,,,,,,,prac,k,k,1,0.649411499965936,165.41156630008481,None,None,0,,,,,,,,,,,,,,103,2023-03-28_16h44.18.122,Main,2022.1.1,60.03763165040635,
negative,yellow,2,k,None,,,,,1,11,31,11,,,,,,,,,,,,,,,,,,,,,prac,None,None,1,1.5020431000739336,167.06153980013914,None,None,1,,,,,,,,,,,,,,103,2023-03-28_16h44.18.122,Main,2022.1.1,60.03763165040635,
negative,red,2,None,None,,,,,1,12,32,12,,,,,,,,,,,,,,,,,,,,,prac,None,None,1,1.4991035000421107,169.56474089995027,None,None,1,,,,,,,,,,,,,,103,2023-03-28_16h44.18.122,Main,2022.1.1,60.03763165040635,
positive,red,1,None,None,,,,,1,13,33,13,,,,,,,,,,,,,,,,,,,,,prac,None,None,1,1.4961186000145972,172.06175370002165,None,None,1,,,,,,,,,,,,,,103,2023-03-28_16h44.18.122,Main,2022.1.1,60.03763165040635,
positive,blue,2,k,None,,,,,1,14,34,14,,,,,,,,,,,,,,,,,,,,,prac,None,None,1,1.5020967999007553,174.56159700010903,None,None,1,,,,,,,,,,,,,,103,2023-03-28_16h44.18.122,Main,2022.1.1,60.03763165040635,
positive,blue,1,k,None,,,,,1,15,35,15,,,,,,,,,,,,,,,,,,,,,prac,None,None,1,1.499048300087452,177.0644443000201,None,None,1,,,,,,,,,,,,,,103,2023-03-28_16h44.18.122,Main,2022.1.1,60.03763165040635,
negative,blue,1,None,k,,,,,1,16,36,16,,,,,,,,,,,,,,,,,,,,,prac,k,k,1,1.2299659999553114,179.56153710000217,None,None,0,,,,,,,,,,,,,,103,2023-03-28_16h44.18.122,Main,2022.1.1,60.03763165040635,
positive,blue,2,k,None,,,,,1,17,37,17,,,,,,,,,,,,,,,,,,,,,prac,None,None,1,1.498577899998054,181.7948264000006,None,None,1,,,,,,,,,,,,,,103,2023-03-28_16h44.18.122,Main,2022.1.1,60.03763165040635,
positive,blue,1,k,None,,,,,1,18,38,18,,,,,,,,,,,,,,,,,,,,,prac,None,None,1,1.502357800025493,184.2944557000883,None,None,1,,,,,,,,,,,,,,103,2023-03-28_16h44.18.122,Main,2022.1.1,60.03763165040635,
positive,yellow,1,None,k,,,,,1,19,39,19,,,,,,,,,,,,,,,,,,,,,prac,k,k,1,0.7797922000754625,186.79771850001998,None,None,0,,,,,,,,,,,,,,103,2023-03-28_16h44.18.122,Main,2022.1.1,60.03763165040635,
,,,,,,,,,,,,,,,,,,,,,,,,,,,,,,,,,,,,,,,,,,188.58089180011302,None,188.58089180011302,None,-0.02037037,-0.022222223,0,0,0,0.01386777008883655,None,,,103,2023-03-28_16h44.18.122,Main,2022.1.1,60.03763165040635,
negative,yellow,2,k,None,,,,,,,,,0,0,0,0,,,,,,,,,,,,,199.0139544000849,None,199.0139544000849,None,main,None,k,0,0.679574100067839,201.03951900009997,None,None,1,,,,,,,,,,,,,,103,2023-03-28_16h44.18.122,Main,2022.1.1,60.03763165040635,
positive,red,1,None,None,,,,,,,,,0,1,1,1,,,,,,,,,,,,,,,,,main,None,None,1,1.5045974999666214,203.72744340007193,None,None,1,,,,,,,,,,,,,,103,2023-03-28_16h44.18.122,Main,2022.1.1,60.03763165040635,
positive,blue,2,k,None,,,,,,,,,0,2,2,2,,,,,,,,,,,,,,,,,main,None,None,1,1.4986544998828322,206.23062669998035,None,None,1,,,,,,,,,,,,,,103,2023-03-28_16h44.18.122,Main,2022.1.1,60.03763165040635,
positive,blue,1,k,None,,,,,,,,,0,3,3,3,,,,,,,,,,,,,,,,,main,None,None,1,1.4960312000475824,208.73060479993,None,None,1,,,,,,,,,,,,,,103,2023-03-28_16h44.18.122,Main,2022.1.1,60.03763165040635,
negative,yellow,2,k,None,,,,,,,,,0,4,4,4,,,,,,,,,,,,,,,,,main,None,None,1,1.501977700041607,211.23032890004106,None,None,1,,,,,,,,,,,,,,103,2023-03-28_16h44.18.122,Main,2022.1.1,60.03763165040635,
positive,yellow,2,None,k,,,,,,,,,0,5,5,5,,,,,,,,,,,,,,,,,main,k,k,1,0.7300046999007463,213.7274740000721,None,None,0,,,,,,,,,,,,,,103,2023-03-28_16h44.18.122,Main,2022.1.1,60.03763165040635,
negative,blue,2,None,k,,,,,,,,,0,6,6,6,,,,,,,,,,,,,,,,,main,k,k,1,0.6991073000244796,215.4607677999884,None,None,0,,,,,,,,,,,,,,103,2023-03-28_16h44.18.122,Main,2022.1.1,60.03763165040635,
positive,red,2,None,None,,,,,,,,,0,7,7,7,,,,,,,,,,,,,,,,,main,None,None,1,1.4979846999049187,217.1607705000788,None,None,1,,,,,,,,,,,,,,103,2023-03-28_16h44.18.122,Main,2022.1.1,60.03763165040635,
positive,yellow,1,None,k,,,,,,,,,0,8,8,8,,,,,,,,,,,,,,,,,main,k,k,1,0.9485840999986976,219.66081020003185,None,None,0,,,,,,,,,,,,,,103,2023-03-28_16h44.18.122,Main,2022.1.1,60.03763165040635,
negative,red,1,None,None,,,,,,,,,0,9,9,9,,,,,,,,,,,,,,,,,main,None,None,1,1.4985511000268161,221.61066569993272,None,None,1,,,,,,,,,,,,,,103,2023-03-28_16h44.18.122,Main,2022.1.1,60.03763165040635,
positive,yellow,1,None,k,,,,,,,,,0,10,10,10,,,,,,,,,,,,,,,,,main,k,k,1,0.6663844999857247,224.1103771000635,None,None,0,,,,,,,,,,,,,,103,2023-03-28_16h44.18.122,Main,2022.1.1,60.03763165040635,
negative,yellow,1,k,None,,,,,,,,,0,11,11,11,,,,,,,,,,,,,,,,,main,None,None,1,1.5016612000763416,225.7801797001157,None,None,1,,,,,,,,,,,,,,103,2023-03-28_16h44.18.122,Main,2022.1.1,60.03763165040635,
negative,yellow,1,k,None,,,,,,,,,0,12,12,12,,,,,,,,,,,,,,,,,main,None,None,1,1.4993272998835891,228.28004870004952,None,None,1,,,,,,,,,,,,,,103,2023-03-28_16h44.18.122,Main,2022.1.1,60.03763165040635,
negative,red,2,None,None,,,,,,,,,0,13,13,13,,,,,,,,,,,,,,,,,main,None,None,1,1.4959203000180423,230.78010910004377,None,None,1,,,,,,,,,,,,,,103,2023-03-28_16h44.18.122,Main,2022.1.1,60.03763165040635,
positive,yellow,2,None,k,,,,,,,,,0,14,14,14,,,,,,,,,,,,,,,,,main,k,k,1,0.6332036999519914,233.27684570010751,None,None,0,,,,,,,,,,,,,,103,2023-03-28_16h44.18.122,Main,2022.1.1,60.03763165040635,
positive,blue,1,k,None,,,,,,,,,0,15,15,15,,,,,,,,,,,,,,,,,main,None,None,1,1.4988248001318425,234.91327339992858,None,None,1,,,,,,,,,,,,,,103,2023-03-28_16h44.18.122,Main,2022.1.1,60.03763165040635,
negative,blue,1,None,k,,,,,,,,,0,16,16,16,,,,,,,,,,,,,,,,,main,k,k,1,1.0159489999059588,237.41041449992917,None,None,0,,,,,,,,,,,,,,103,2023-03-28_16h44.18.122,Main,2022.1.1,60.03763165040635,
positive,blue,2,k,None,,,,,,,,,0,17,17,17,,,,,,,,,,,,,,,,,main,None,None,1,1.4988973001018167,239.42706339992583,None,None,1,,,,,,,,,,,,,,103,2023-03-28_16h44.18.122,Main,2022.1.1,60.03763165040635,
negative,blue,2,None,k,,,,,,,,,0,18,18,18,,,,,,,,,,,,,,,,,main,k,k,1,0.6492918999865651,241.92692629992962,None,None,0,,,,,,,,,,,,,,103,2023-03-28_16h44.18.122,Main,2022.1.1,60.03763165040635,
negative,blue,1,None,k,,,,,,,,,0,19,19,19,,,,,,,,,,,,,,,,,main,k,k,1,0.6825420998502523,243.5768689000979,None,None,0,,,,,,,,,,,,,,103,2023-03-28_16h44.18.122,Main,2022.1.1,60.03763165040635,
negative,blue,1,None,k,,,,,,,,,0,20,20,20,,,,,,,,,,,,,,,,,main,k,k,1,0.5825147000141442,245.26025300007313,None,None,0,,,,,,,,,,,,,,103,2023-03-28_16h44.18.122,Main,2022.1.1,60.03763165040635,
negative,blue,2,None,k,,,,,,,,,0,21,21,21,,,,,,,,,,,,,,,,,main,k,k,1,0.732598900096491,246.84348840010352,None,None,0,,,,,,,,,,,,,,103,2023-03-28_16h44.18.122,Main,2022.1.1,60.03763165040635,
negative,red,1,None,None,,,,,,,,,0,22,22,22,,,,,,,,,,,,,,,,,main,None,None,1,1.501614699838683,248.5767822000198,None,None,1,,,,,,,,,,,,,,103,2023-03-28_16h44.18.122,Main,2022.1.1,60.03763165040635,
positive,red,2,None,None,,,,,,,,,0,23,23,23,,,,,,,,,,,,,,,,,main,None,None,1,1.4960539999883622,251.07675280002877,None,None,1,,,,,,,,,,,,,,103,2023-03-28_16h44.18.122,Main,2022.1.1,60.03763165040635,
negative,red,2,None,None,,,,,,,,,0,24,24,24,,,,,,,,,,,,,,,,,main,None,None,1,1.5021874997764826,253.57638840004802,None,None,1,,,,,,,,,,,,,,103,2023-03-28_16h44.18.122,Main,2022.1.1,60.03763165040635,
positive,blue,2,k,None,,,,,,,,,0,25,25,25,,,,,,,,,,,,,,,,,main,None,None,1,1.4989644999150187,256.07675110013224,None,None,1,,,,,,,,,,,,,,103,2023-03-28_16h44.18.122,Main,2022.1.1,60.03763165040635,
negative,yellow,1,k,None,,,,,,,,,0,26,26,26,,,,,,,,,,,,,,,,,main,None,None,1,1.4992577999364585,258.57950370013714,None,None,1,,,,,,,,,,,,,,103,2023-03-28_16h44.18.122,Main,2022.1.1,60.03763165040635,
positive,blue,2,k,None,,,,,,,,,0,27,27,27,,,,,,,,,,,,,,,,,main,None,None,1,1.4960191999562085,261.0794693999924,None,None,1,,,,,,,,,,,,,,103,2023-03-28_16h44.18.122,Main,2022.1.1,60.03763165040635,
negative,blue,2,None,k,,,,,,,,,0,28,28,28,,,,,,,,,,,,,,,,,main,k,k,1,0.6661403998732567,263.5764218000695,None,None,0,,,,,,,,,,,,,,103,2023-03-28_16h44.18.122,Main,2022.1.1,60.03763165040635,
positive,red,1,None,None,,,,,,,,,0,29,29,29,,,,,,,,,,,,,,,,,main,None,None,1,1.4988447001669556,265.24595910008065,None,None,1,,,,,,,,,,,,,,103,2023-03-28_16h44.18.122,Main,2022.1.1,60.03763165040635,
positive,blue,1,k,None,,,,,,,,,0,30,30,30,,,,,,,,,,,,,,,,,main,None,None,1,1.499206499895081,267.743064600043,None,None,1,,,,,,,,,,,,,,103,2023-03-28_16h44.18.122,Main,2022.1.1,60.03763165040635,
positive,yellow,1,None,k,,,,,,,,,0,31,31,31,,,,,,,,,,,,,,,,,main,k,k,1,0.9022023999132216,270.2459553000517,None,None,0,,,,,,,,,,,,,,103,2023-03-28_16h44.18.122,Main,2022.1.1,60.03763165040635,
negative,yellow,2,k,None,,,,,,,,,0,32,32,32,,,,,,,,,,,,,,,,,main,None,None,1,1.49554149992764,272.1429892999586,None,None,1,,,,,,,,,,,,,,103,2023-03-28_16h44.18.122,Main,2022.1.1,60.03763165040635,
negative,blue,1,None,k,,,,,,,,,0,33,33,33,,,,,,,,,,,,,,,,,main,k,k,1,0.6666324001271278,274.6426178999245,None,None,0,,,,,,,,,,,,,,103,2023-03-28_16h44.18.122,Main,2022.1.1,60.03763165040635,
positive,blue,1,k,None,,,,,,,,,0,34,34,34,,,,,,,,,,,,,,,,,main,None,None,1,1.5012759999372065,276.30967739992775,None,None,1,,,,,,,,,,,,,,103,2023-03-28_16h44.18.122,Main,2022.1.1,60.03763165040635,
negative,yellow,1,k,None,,,,,,,,,0,35,35,35,,,,,,,,,,,,,,,,,main,None,None,1,1.499301000032574,278.80959310010076,None,None,1,,,,,,,,,,,,,,103,2023-03-28_16h44.18.122,Main,2022.1.1,60.03763165040635,
positive,yellow,2,None,k,,,,,,,,,0,36,36,36,,,,,,,,,,,,,,,,,main,k,k,1,0.612930600065738,281.3124188000802,None,None,0,,,,,,,,,,,,,,103,2023-03-28_16h44.18.122,Main,2022.1.1,60.03763165040635,
positive,yellow,2,None,k,,,,,,,,,0,37,37,37,,,,,,,,,,,,,,,,,main,k,k,1,0.6992099999915808,282.9260424000677,None,None,0,,,,,,,,,,,,,,103,2023-03-28_16h44.18.122,Main,2022.1.1,60.03763165040635,
negative,yellow,2,k,None,,,,,,,,,0,38,38,38,,,,,,,,,,,,,,,,,main,None,None,1,1.501860999967903,284.6259993999265,None,None,1,,,,,,,,,,,,,,103,2023-03-28_16h44.18.122,Main,2022.1.1,60.03763165040635,
positive,yellow,1,None,k,,,,,,,,,0,39,39,39,,,,,,,,,,,,,,,,,main,k,k,1,0.6963924998417497,287.1259892000817,None,None,0,,,,,,,,,,,,,,103,2023-03-28_16h44.18.122,Main,2022.1.1,60.03763165040635,
negative,yellow,2,k,None,,,,,,,,,0,40,40,40,,,,,,,,,,,,,,,,,main,None,None,1,1.5017627999186516,288.8260379000567,None,None,1,,,,,,,,,,,,,,103,2023-03-28_16h44.18.122,Main,2022.1.1,60.03763165040635,
positive,blue,2,k,None,,,,,,,,,0,41,41,41,,,,,,,,,,,,,,,,,main,None,None,1,1.4959925999864936,291.3259302000515,None,None,1,,,,,,,,,,,,,,103,2023-03-28_16h44.18.122,Main,2022.1.1,60.03763165040635,
positive,blue,2,k,None,,,,,,,,,0,42,42,42,,,,,,,,,,,,,,,,,main,None,None,1,1.5023141999263316,293.82557620014995,None,None,1,,,,,,,,,,,,,,103,2023-03-28_16h44.18.122,Main,2022.1.1,60.03763165040635,
negative,blue,2,None,k,,,,,,,,,0,43,43,43,,,,,,,,,,,,,,,,,main,k,k,1,0.6493821998592466,296.3287730999291,None,None,0,,,,,,,,,,,,,,103,2023-03-28_16h44.18.122,Main,2022.1.1,60.03763165040635,
negative,red,1,None,None,,,,,,,,,0,44,44,44,,,,,,,,,,,,,,,,,main,None,None,1,1.4986823999788612,297.97869220003486,None,None,1,,,,,,,,,,,,,,103,2023-03-28_16h44.18.122,Main,2022.1.1,60.03763165040635,
negative,yellow,1,k,None,,,,,,,,,0,45,45,45,,,,,,,,,,,,,,,,,main,None,None,1,1.4963096000719815,300.4786982999649,None,None,1,,,,,,,,,,,,,,103,2023-03-28_16h44.18.122,Main,2022.1.1,60.03763165040635,
negative,yellow,1,k,None,,,,,,,,,0,46,46,46,,,,,,,,,,,,,,,,,main,None,None,1,1.4993114999961108,302.9756112000905,None,None,1,,,,,,,,,,,,,,103,2023-03-28_16h44.18.122,Main,2022.1.1,60.03763165040635,
positive,red,1,None,None,,,,,,,,,0,47,47,47,,,,,,,,,,,,,,,,,main,None,None,1,1.5020014999900013,305.47559139993973,None,None,1,,,,,,,,,,,,,,103,2023-03-28_16h44.18.122,Main,2022.1.1,60.03763165040635,
positive,yellow,1,None,k,,,,,,,,,0,48,48,48,,,,,,,,,,,,,,,,,main,k,k,1,0.5129404000472277,307.9755752000492,None,None,0,,,,,,,,,,,,,,103,2023-03-28_16h44.18.122,Main,2022.1.1,60.03763165040635,
negative,blue,1,None,k,,,,,,,,,0,49,49,49,,,,,,,,,,,,,,,,,main,k,k,1,0.7492426999378949,309.4922025001142,None,None,0,,,,,,,,,,,,,,103,2023-03-28_16h44.18.122,Main,2022.1.1,60.03763165040635,
positive,yellow,2,None,k,,,,,,,,,0,50,50,50,,,,,,,,,,,,,,,,,main,k,k,1,0.6991772998590022,311.24219000013545,None,None,0,,,,,,,,,,,,,,103,2023-03-28_16h44.18.122,Main,2022.1.1,60.03763165040635,
negative,blue,1,None,k,,,,,,,,,0,51,51,51,,,,,,,,,,,,,,,,,main,k,k,1,0.6154455000068992,312.94511520001106,None,None,0,,,,,,,,,,,,,,103,2023-03-28_16h44.18.122,Main,2022.1.1,60.03763165040635,
positive,red,2,None,None,,,,,,,,,0,52,52,52,,,,,,,,,,,,,,,,,main,None,None,1,1.50222079991363,314.558472200064,None,None,1,,,,,,,,,,,,,,103,2023-03-28_16h44.18.122,Main,2022.1.1,60.03763165040635,
positive,yellow,2,None,k,,,,,,,,,0,53,53,53,,,,,,,,,,,,,,,,,main,k,k,1,0.6976413000375032,317.058815700002,None,None,0,,,,,,,,,,,,,,103,2023-03-28_16h44.18.122,Main,2022.1.1,60.03763165040635,
negative,red,2,None,None,,,,,,,,,0,54,54,54,,,,,,,,,,,,,,,,,main,None,None,1,1.5013526999391615,318.75877479999326,None,None,1,,,,,,,,,,,,,,103,2023-03-28_16h44.18.122,Main,2022.1.1,60.03763165040635,
positive,yellow,1,None,k,,,,,,,,,0,55,55,55,,,,,,,,,,,,,,,,,main,k,k,1,0.6286248001269996,321.2587133999914,None,None,0,,,,,,,,,,,,,,103,2023-03-28_16h44.18.122,Main,2022.1.1,60.03763165040635,
negative,blue,2,None,k,,,,,,,,,0,56,56,56,,,,,,,,,,,,,,,,,main,k,k,1,0.6493830000981688,322.8915985999629,None,None,0,,,,,,,,,,,,,,103,2023-03-28_16h44.18.122,Main,2022.1.1,60.03763165040635,
positive,blue,1,k,None,,,,,,,,,0,57,57,57,,,,,,,,,,,,,,,,,main,None,None,1,1.4989275000989437,324.5415875001345,None,None,1,,,,,,,,,,,,,,103,2023-03-28_16h44.18.122,Main,2022.1.1,60.03763165040635,
positive,blue,1,k,None,,,,,,,,,0,58,58,58,,,,,,,,,,,,,,,,,main,None,None,1,1.4992698000278324,327.0420103999786,None,None,1,,,,,,,,,,,,,,103,2023-03-28_16h44.18.122,Main,2022.1.1,60.03763165040635,
negative,yellow,2,k,None,,,,,,,,,0,59,59,59,,,,,,,,,,,,,,,,,main,None,None,1,1.4984842999838293,329.5447450999636,None,None,1,,,,,,,,,,,,,,103,2023-03-28_16h44.18.122,Main,2022.1.1,60.03763165040635,
positive,red,2,None,None,,,,,,,,,0,60,60,60,,,,,,,,,,,,,,,,,main,None,None,1,1.4993471999187022,332.0417023000773,None,None,1,,,,,,,,,,,,,,103,2023-03-28_16h44.18.122,Main,2022.1.1,60.03763165040635,
negative,yellow,1,k,None,,,,,,,,,0,61,61,61,,,,,,,,,,,,,,,,,main,None,None,1,1.4989677001722157,334.5416671000421,None,None,1,,,,,,,,,,,,,,103,2023-03-28_16h44.18.122,Main,2022.1.1,60.03763165040635,
negative,red,1,None,None,,,,,,,,,0,62,62,62,,,,,,,,,,,,,,,,,main,None,None,1,1.5020381999202073,337.0416475001257,None,None,1,,,,,,,,,,,,,,103,2023-03-28_16h44.18.122,Main,2022.1.1,60.03763165040635,
negative,blue,1,None,k,,,,,,,,,0,63,63,63,,,,,,,,,,,,,,,,,main,k,k,1,0.6465409998781979,339.54159609996714,None,None,0,,,,,,,,,,,,,,103,2023-03-28_16h44.18.122,Main,2022.1.1,60.03763165040635,
positive,blue,2,k,None,,,,,,,,,0,64,64,64,,,,,,,,,,,,,,,,,main,None,None,1,1.4972209001425654,341.1915752000641,None,None,1,,,,,,,,,,,,,,103,2023-03-28_16h44.18.122,Main,2022.1.1,60.03763165040635,
negative,yellow,2,k,None,,,,,,,,,0,65,65,65,,,,,,,,,,,,,,,,,main,None,None,1,1.5017772000283003,343.6912130001001,None,None,1,,,,,,,,,,,,,,103,2023-03-28_16h44.18.122,Main,2022.1.1,60.03763165040635,
positive,yellow,2,None,k,,,,,,,,,0,66,66,66,,,,,,,,,,,,,,,,,main,k,k,1,0.5819377999287099,346.1915855000261,None,None,0,,,,,,,,,,,,,,103,2023-03-28_16h44.18.122,Main,2022.1.1,60.03763165040635,
positive,yellow,2,None,k,,,,,,,,,0,67,67,67,,,,,,,,,,,,,,,,,main,k,k,1,0.5487544999923557,347.7749008999672,None,None,0,,,,,,,,,,,,,,103,2023-03-28_16h44.18.122,Main,2022.1.1,60.03763165040635,
positive,red,1,None,None,,,,,,,,,0,68,68,68,,,,,,,,,,,,,,,,,main,None,None,1,1.4990411999169737,349.3248187000863,None,None,1,,,,,,,,,,,,,,103,2023-03-28_16h44.18.122,Main,2022.1.1,60.03763165040635,
positive,yellow,1,None,k,,,,,,,,,0,69,69,69,,,,,,,,,,,,,,,,,main,k,k,1,0.7128715999424458,351.8246129001491,None,None,0,,,,,,,,,,,,,,103,2023-03-28_16h44.18.122,Main,2022.1.1,60.03763165040635,
negative,yellow,2,k,None,,,,,,,,,0,70,70,70,,,,,,,,,,,,,,,,,main,None,None,1,1.5019873999990523,353.5412666001357,None,None,1,,,,,,,,,,,,,,103,2023-03-28_16h44.18.122,Main,2022.1.1,60.03763165040635,
positive,yellow,1,None,k,,,,,,,,,0,71,71,71,,,,,,,,,,,,,,,,,main,k,k,1,0.6965775999706239,356.04413369996473,None,None,0,,,,,,,,,,,,,,103,2023-03-28_16h44.18.122,Main,2022.1.1,60.03763165040635,
negative,blue,1,None,k,,,,,,,,,0,72,72,72,,,,,,,,,,,,,,,,,main,k,k,1,0.9822543000336736,357.74122949992307,None,None,0,,,,,,,,,,,,,,103,2023-03-28_16h44.18.122,Main,2022.1.1,60.03763165040635,
negative,red,2,None,None,,,,,,,,,0,73,73,73,,,,,,,,,,,,,,,,,main,None,None,1,1.501876400085166,359.72453220002353,None,None,1,,,,,,,,,,,,,,103,2023-03-28_16h44.18.122,Main,2022.1.1,60.03763165040635,
positive,blue,2,k,None,,,,,,,,,0,74,74,74,,,,,,,,,,,,,,,,,main,None,None,1,1.4960072000976652,362.22447489993647,None,None,1,,,,,,,,,,,,,,103,2023-03-28_16h44.18.122,Main,2022.1.1,60.03763165040635,
negative,blue,2,None,k,,,,,,,,,0,75,75,75,,,,,,,,,,,,,,,,,main,k,k,1,0.633034799946472,364.72418750007637,None,None,0,,,,,,,,,,,,,,103,2023-03-28_16h44.18.122,Main,2022.1.1,60.03763165040635,
negative,blue,2,None,k,,,,,,,,,0,76,76,76,,,,,,,,,,,,,,,,,main,k,k,1,0.4992127001751214,366.3578053000383,None,None,0,,,,,,,,,,,,,,103,2023-03-28_16h44.18.122,Main,2022.1.1,60.03763165040635,
negative,yellow,1,k,None,,,,,,,,,0,77,77,77,,,,,,,,,,,,,,,,,main,None,None,1,1.5017530000768602,367.85777699993923,None,None,1,,,,,,,,,,,,,,103,2023-03-28_16h44.18.122,Main,2022.1.1,60.03763165040635,
positive,blue,1,k,None,,,,,,,,,0,78,78,78,,,,,,,,,,,,,,,,,main,None,None,1,1.4959679001476616,370.358087599976,None,None,1,,,,,,,,,,,,,,103,2023-03-28_16h44.18.122,Main,2022.1.1,60.03763165040635,
positive,blue,1,k,None,,,,,,,,,0,79,79,79,,,,,,,,,,,,,,,,,main,None,None,1,1.501706600189209,372.8575244001113,None,None,1,,,,,,,,,,,,,,103,2023-03-28_16h44.18.122,Main,2022.1.1,60.03763165040635,
positive,red,2,None,None,,,,,,,,,0,80,80,80,,,,,,,,,,,,,,,,,main,None,None,1,1.496646499959752,375.36043070000596,None,None,1,,,,,,,,,,,,,,103,2023-03-28_16h44.18.122,Main,2022.1.1,60.03763165040635,
positive,yellow,2,None,k,,,,,,,,,0,81,81,81,,,,,,,,,,,,,,,,,main,k,k,1,0.6686241999268532,377.8603866000194,None,None,0,,,,,,,,,,,,,,103,2023-03-28_16h44.18.122,Main,2022.1.1,60.03763165040635,
positive,blue,1,k,None,,,,,,,,,0,82,82,82,,,,,,,,,,,,,,,,,main,None,None,1,1.4958389999810606,379.5241489999462,None,None,1,,,,,,,,,,,,,,103,2023-03-28_16h44.18.122,Main,2022.1.1,60.03763165040635,
negative,yellow,2,k,None,,,,,,,,,0,83,83,83,,,,,,,,,,,,,,,,,main,None,None,1,1.5022827999200672,382.02375070005655,None,None,1,,,,,,,,,,,,,,103,2023-03-28_16h44.18.122,Main,2022.1.1,60.03763165040635,
positive,blue,2,k,None,,,,,,,,,0,84,84,84,,,,,,,,,,,,,,,,,main,None,None,1,1.499218299984932,384.5269498999696,None,None,1,,,,,,,,,,,,,,103,2023-03-28_16h44.18.122,Main,2022.1.1,60.03763165040635,
positive,yellow,1,None,k,,,,,,,,,0,85,85,85,,,,,,,,,,,,,,,,,main,k,k,1,0.5491899000480771,387.0240474001039,None,None,0,,,,,,,,,,,,,,103,2023-03-28_16h44.18.122,Main,2022.1.1,60.03763165040635,
positive,blue,2,k,None,,,,,,,,,0,86,86,86,,,,,,,,,,,,,,,,,main,None,None,1,1.4986692001111805,388.5740024000406,None,None,1,,,,,,,,,,,,,,103,2023-03-28_16h44.18.122,Main,2022.1.1,60.03763165040635,
positive,blue,1,k,None,,,,,,,,,0,87,87,87,,,,,,,,,,,,,,,,,main,None,None,1,1.4992199998814613,391.0739019999746,None,None,1,,,,,,,,,,,,,,103,2023-03-28_16h44.18.122,Main,2022.1.1,60.03763165040635,
negative,yellow,2,k,None,,,,,,,,,0,88,88,88,,,,,,,,,,,,,,,,,main,None,k,0,0.5324365999549627,393.5737930999603,None,None,1,,,,,,,,,,,,,,103,2023-03-28_16h44.18.122,Main,2022.1.1,60.03763165040635,
negative,blue,2,None,k,,,,,,,,,0,89,89,89,,,,,,,,,,,,,,,,,main,k,k,1,0.765212400117889,396.10708410013467,None,None,0,,,,,,,,,,,,,,103,2023-03-28_16h44.18.122,Main,2022.1.1,60.03763165040635,
positive,yellow,2,None,k,,,,,,,,,0,90,90,90,,,,,,,,,,,,,,,,,main,k,k,1,0.6320752999745309,397.8737468000036,None,None,0,,,,,,,,,,,,,,103,2023-03-28_16h44.18.122,Main,2022.1.1,60.03763165040635,
negative,yellow,1,k,None,,,,,,,,,0,91,91,91,,,,,,,,,,,,,,,,,main,None,None,1,1.498579400125891,399.507050300017,None,None,1,,,,,,,,,,,,,,103,2023-03-28_16h44.18.122,Main,2022.1.1,60.03763165040635,
negative,red,2,None,None,,,,,,,,,0,92,92,92,,,,,,,,,,,,,,,,,main,None,None,1,1.502504400210455,402.0066867999267,None,None,1,,,,,,,,,,,,,,103,2023-03-28_16h44.18.122,Main,2022.1.1,60.03763165040635,
negative,blue,2,None,k,,,,,,,,,0,93,93,93,,,,,,,,,,,,,,,,,main,k,k,1,0.7630704001057893,404.5099748999346,None,None,0,,,,,,,,,,,,,,103,2023-03-28_16h44.18.122,Main,2022.1.1,60.03763165040635,
negative,blue,1,None,k,,,,,,,,,0,94,94,94,,,,,,,,,,,,,,,,,main,k,k,1,0.7990111000835896,406.2736407001503,None,None,0,,,,,,,,,,,,,,103,2023-03-28_16h44.18.122,Main,2022.1.1,60.03763165040635,
negative,blue,1,None,k,,,,,,,,,0,95,95,95,,,,,,,,,,,,,,,,,main,k,k,1,0.5492628000210971,408.07642720011063,None,None,0,,,,,,,,,,,,,,103,2023-03-28_16h44.18.122,Main,2022.1.1,60.03763165040635,
negative,red,1,None,None,,,,,,,,,0,96,96,96,,,,,,,,,,,,,,,,,main,None,None,1,1.49824250000529,409.62357800011523,None,None,1,,,,,,,,,,,,,,103,2023-03-28_16h44.18.122,Main,2022.1.1,60.03763165040635,
positive,yellow,1,None,k,,,,,,,,,0,97,97,97,,,,,,,,,,,,,,,,,main,k,k,1,0.6861028000712395,412.1231385001447,None,None,0,,,,,,,,,,,,,,103,2023-03-28_16h44.18.122,Main,2022.1.1,60.03763165040635,
negative,yellow,1,k,None,,,,,,,,,0,98,98,98,,,,,,,,,,,,,,,,,main,None,None,1,1.4959116000682116,413.80967950006016,None,None,1,,,,,,,,,,,,,,103,2023-03-28_16h44.18.122,Main,2022.1.1,60.03763165040635,
positive,red,1,None,None,,,,,,,,,0,99,99,99,,,,,,,,,,,,,,,,,main,None,None,1,1.5017687000799924,416.30677579995245,None,None,1,,,,,,,,,,,,,,103,2023-03-28_16h44.18.122,Main,2022.1.1,60.03763165040635,
positive,blue,1,k,None,,,,,,,,,0,100,100,100,,,,,,,,,,,,,,,,,main,None,None,1,1.4959282998461276,418.8067280999385,None,None,1,,,,,,,,,,,,,,103,2023-03-28_16h44.18.122,Main,2022.1.1,60.03763165040635,
negative,yellow,1,k,None,,,,,,,,,0,101,101,101,,,,,,,,,,,,,,,,,main,None,None,1,1.502416400006041,421.3062732000835,None,None,1,,,,,,,,,,,,,,103,2023-03-28_16h44.18.122,Main,2022.1.1,60.03763165040635,
negative,blue,2,None,k,,,,,,,,,0,102,102,102,,,,,,,,,,,,,,,,,main,k,k,1,1.2131669998634607,423.80663920007646,None,None,0,,,,,,,,,,,,,,103,2023-03-28_16h44.18.122,Main,2022.1.1,60.03763165040635,
negative,yellow,2,k,None,,,,,,,,,0,103,103,103,,,,,,,,,,,,,,,,,main,None,None,1,1.5014737998135388,426.0232452999335,None,None,1,,,,,,,,,,,,,,103,2023-03-28_16h44.18.122,Main,2022.1.1,60.03763165040635,
positive,yellow,2,None,k,,,,,,,,,0,104,104,104,,,,,,,,,,,,,,,,,main,k,k,1,0.6465847999788821,428.52605390013196,None,None,0,,,,,,,,,,,,,,103,2023-03-28_16h44.18.122,Main,2022.1.1,60.03763165040635,
positive,blue,1,k,None,,,,,,,,,0,105,105,105,,,,,,,,,,,,,,,,,main,None,None,1,1.501727200113237,430.1730098000262,None,None,1,,,,,,,,,,,,,,103,2023-03-28_16h44.18.122,Main,2022.1.1,60.03763165040635,
positive,blue,2,k,None,,,,,,,,,0,106,106,106,,,,,,,,,,,,,,,,,main,None,None,1,1.499279199866578,432.6729973999318,None,None,1,,,,,,,,,,,,,,103,2023-03-28_16h44.18.122,Main,2022.1.1,60.03763165040635,
negative,blue,1,None,k,,,,,,,,,0,107,107,107,,,,,,,,,,,,,,,,,main,k,k,1,0.7798478999175131,435.1729683999438,None,None,0,,,,,,,,,,,,,,103,2023-03-28_16h44.18.122,Main,2022.1.1,60.03763165040635,
positive,yellow,2,None,k,,,,,,,,,0,108,108,108,,,,,,,,,,,,,,,,,main,k,k,1,0.6822289999108762,436.95610309997573,None,None,0,,,,,,,,,,,,,,103,2023-03-28_16h44.18.122,Main,2022.1.1,60.03763165040635,
negative,yellow,1,k,None,,,,,,,,,0,109,109,109,,,,,,,,,,,,,,,,,main,None,None,1,1.5019280000124127,438.6395676000975,None,None,1,,,,,,,,,,,,,,103,2023-03-28_16h44.18.122,Main,2022.1.1,60.03763165040635,
negative,blue,2,None,k,,,,,,,,,0,110,110,110,,,,,,,,,,,,,,,,,main,k,k,1,0.9296456999145448,441.13953700009733,None,None,0,,,,,,,,,,,,,,103,2023-03-28_16h44.18.122,Main,2022.1.1,60.03763165040635,
positive,blue,2,k,None,,,,,,,,,0,111,111,111,,,,,,,,,,,,,,,,,main,None,None,1,1.5021689999848604,443.07249699998647,None,None,1,,,,,,,,,,,,,,103,2023-03-28_16h44.18.122,Main,2022.1.1,60.03763165040635,
negative,blue,1,None,k,,,,,,,,,0,112,112,112,,,,,,,,,,,,,,,,,main,k,k,1,0.6157162999734282,445.5757774000522,None,None,0,,,,,,,,,,,,,,103,2023-03-28_16h44.18.122,Main,2022.1.1,60.03763165040635,
positive,yellow,1,None,k,,,,,,,,,0,113,113,113,,,,,,,,,,,,,,,,,main,k,k,1,0.6991536999121308,447.1895298999734,None,None,0,,,,,,,,,,,,,,103,2023-03-28_16h44.18.122,Main,2022.1.1,60.03763165040635,
negative,red,1,None,None,,,,,,,,,0,114,114,114,,,,,,,,,,,,,,,,,main,None,None,1,1.4957749999593943,448.88943010009825,None,None,1,,,,,,,,,,,,,,103,2023-03-28_16h44.18.122,Main,2022.1.1,60.03763165040635,
positive,red,1,None,None,,,,,,,,,0,115,115,115,,,,,,,,,,,,,,,,,main,None,None,1,1.502069199923426,451.38924819999374,None,None,1,,,,,,,,,,,,,,103,2023-03-28_16h44.18.122,Main,2022.1.1,60.03763165040635,
negative,red,2,None,None,,,,,,,,,0,116,116,116,,,,,,,,,,,,,,,,,main,None,None,1,1.4959968000184745,453.8892002000939,None,None,1,,,,,,,,,,,,,,103,2023-03-28_16h44.18.122,Main,2022.1.1,60.03763165040635,
negative,yellow,2,k,None,,,,,,,,,0,117,117,117,,,,,,,,,,,,,,,,,main,None,None,1,1.5020677000284195,456.3891668000724,None,None,1,,,,,,,,,,,,,,103,2023-03-28_16h44.18.122,Main,2022.1.1,60.03763165040635,
positive,yellow,1,None,k,,,,,,,,,0,118,118,118,,,,,,,,,,,,,,,,,main,k,k,1,0.7494127999525517,458.8891581001226,None,None,0,,,,,,,,,,,,,,103,2023-03-28_16h44.18.122,Main,2022.1.1,60.03763165040635,
positive,red,2,None,None,,,,,,,,,0,119,119,119,,,,,,,,,,,,,,,,,main,None,None,1,1.4991142000071704,460.63922620005906,None,None,1,,,,,,,,,,,,,,103,2023-03-28_16h44.18.122,Main,2022.1.1,60.03763165040635,
positive,blue,2,k,None,,,,,,,,,0,120,120,120,,,,,,,,,,,,,,,,,main,None,None,1,1.4956494001671672,463.13907820009626,None,None,1,,,,,,,,,,,,,,103,2023-03-28_16h44.18.122,Main,2022.1.1,60.03763165040635,
negative,red,1,None,None,,,,,,,,,0,121,121,121,,,,,,,,,,,,,,,,,main,None,None,1,1.5024451999925077,465.6387666000519,None,None,1,,,,,,,,,,,,,,103,2023-03-28_16h44.18.122,Main,2022.1.1,60.03763165040635,
positive,yellow,2,None,k,,,,,,,,,0,122,122,122,,,,,,,,,,,,,,,,,main,k,k,1,0.6795612999703735,468.1390345999971,None,None,0,,,,,,,,,,,,,,103,2023-03-28_16h44.18.122,Main,2022.1.1,60.03763165040635,
negative,red,2,None,None,,,,,,,,,0,123,123,123,,,,,,,,,,,,,,,,,main,None,None,1,1.501862599980086,469.82507090014406,None,None,1,,,,,,,,,,,,,,103,2023-03-28_16h44.18.122,Main,2022.1.1,60.03763165040635,
negative,yellow,2,k,None,,,,,,,,,0,124,124,124,,,,,,,,,,,,,,,,,main,None,None,1,1.4960145999211818,472.3222876000218,None,None,1,,,,,,,,,,,,,,103,2023-03-28_16h44.18.122,Main,2022.1.1,60.03763165040635,
positive,red,1,None,None,,,,,,,,,0,125,125,125,,,,,,,,,,,,,,,,,main,None,None,1,1.5020357999019325,474.82191880000755,None,None,1,,,,,,,,,,,,,,103,2023-03-28_16h44.18.122,Main,2022.1.1,60.03763165040635,
negative,blue,2,None,k,,,,,,,,,0,126,126,126,,,,,,,,,,,,,,,,,main,k,k,1,0.6133936000987887,477.3222087000031,None,None,0,,,,,,,,,,,,,,103,2023-03-28_16h44.18.122,Main,2022.1.1,60.03763165040635,
negative,blue,1,None,k,,,,,,,,,0,127,127,127,,,,,,,,,,,,,,,,,main,k,k,1,0.7492561000399292,478.9417560000438,None,None,0,,,,,,,,,,,,,,103,2023-03-28_16h44.18.122,Main,2022.1.1,60.03763165040635,
negative,yellow,1,k,None,,,,,,,,,0,128,128,128,,,,,,,,,,,,,,,,,main,None,None,1,1.4985964000225067,480.6915547000244,None,None,1,,,,,,,,,,,,,,103,2023-03-28_16h44.18.122,Main,2022.1.1,60.03763165040635,
negative,yellow,1,k,None,,,,,,,,,0,129,129,129,,,,,,,,,,,,,,,,,main,None,None,1,1.502093099988997,483.188588200137,None,None,1,,,,,,,,,,,,,,103,2023-03-28_16h44.18.122,Main,2022.1.1,60.03763165040635,
positive,blue,1,k,None,,,,,,,,,0,130,130,130,,,,,,,,,,,,,,,,,main,None,None,1,1.4962483001872897,485.68867120007053,None,None,1,,,,,,,,,,,,,,103,2023-03-28_16h44.18.122,Main,2022.1.1,60.03763165040635,
negative,blue,1,None,k,,,,,,,,,0,131,131,131,,,,,,,,,,,,,,,,,main,k,k,1,0.6825077999383211,488.19141929992475,None,None,0,,,,,,,,,,,,,,103,2023-03-28_16h44.18.122,Main,2022.1.1,60.03763165040635,
negative,blue,2,None,k,,,,,,,,,0,132,132,132,,,,,,,,,,,,,,,,,main,k,k,1,0.8002430000342429,489.8718431999441,None,None,0,,,,,,,,,,,,,,103,2023-03-28_16h44.18.122,Main,2022.1.1,60.03763165040635,
positive,blue,2,k,None,,,,,,,,,0,133,133,133,,,,,,,,,,,,,,,,,main,None,None,1,1.501778299920261,491.67186010000296,None,None,1,,,,,,,,,,,,,,103,2023-03-28_16h44.18.122,Main,2022.1.1,60.03763165040635,
positive,red,2,None,None,,,,,,,,,0,134,134,134,,,,,,,,,,,,,,,,,main,None,None,1,1.4959496001247317,494.17180970008485,None,None,1,,,,,,,,,,,,,,103,2023-03-28_16h44.18.122,Main,2022.1.1,60.03763165040635,
negative,yellow,2,k,None,,,,,,,,,0,135,135,135,,,,,,,,,,,,,,,,,main,None,None,1,1.501985700102523,496.6714655000251,None,None,1,,,,,,,,,,,,,,103,2023-03-28_16h44.18.122,Main,2022.1.1,60.03763165040635,
positive,yellow,2,None,k,,,,,,,,,0,136,136,136,,,,,,,,,,,,,,,,,main,k,k,1,0.6652772000525147,499.1717532000039,None,None,0,,,,,,,,,,,,,,103,2023-03-28_16h44.18.122,Main,2022.1.1,60.03763165040635,
positive,blue,1,k,None,,,,,,,,,0,137,137,137,,,,,,,,,,,,,,,,,main,None,None,1,1.4992980000097305,500.838391300058,None,None,1,,,,,,,,,,,,,,103,2023-03-28_16h44.18.122,Main,2022.1.1,60.03763165040635,
positive,yellow,1,None,k,,,,,,,,,0,138,138,138,,,,,,,,,,,,,,,,,main,k,k,1,0.6126321000047028,503.3380619001109,None,None,0,,,,,,,,,,,,,,103,2023-03-28_16h44.18.122,Main,2022.1.1,60.03763165040635,
positive,yellow,1,None,k,,,,,,,,,0,139,139,139,,,,,,,,,,,,,,,,,main,k,k,1,0.6158731998875737,504.9545632000081,None,None,0,,,,,,,,,,,,,,103,2023-03-28_16h44.18.122,Main,2022.1.1,60.03763165040635,
positive,yellow,1,None,k,,,,,,,,,0,140,140,140,,,,,,,,,,,,,,,,,main,k,k,1,0.515893500065431,506.57123519992456,None,None,0,,,,,,,,,,,,,,103,2023-03-28_16h44.18.122,Main,2022.1.1,60.03763165040635,
positive,blue,1,k,None,,,,,,,,,0,141,141,141,,,,,,,,,,,,,,,,,main,None,None,1,1.5021852999925613,508.08789440011606,None,None,1,,,,,,,,,,,,,,103,2023-03-28_16h44.18.122,Main,2022.1.1,60.03763165040635,
positive,blue,2,k,None,,,,,,,,,0,142,142,142,,,,,,,,,,,,,,,,,main,None,None,1,1.4959863999392837,510.59109920007177,None,None,1,,,,,,,,,,,,,,103,2023-03-28_16h44.18.122,Main,2022.1.1,60.03763165040635,
positive,yellow,2,None,k,,,,,,,,,0,143,143,143,,,,,,,,,,,,,,,,,main,k,k,1,0.6743334999773651,513.0910207999405,None,None,0,,,,,,,,,,,,,,103,2023-03-28_16h44.18.122,Main,2022.1.1,60.03763165040635,
negative,yellow,2,k,None,,,,,,,,,0,144,144,144,,,,,,,,,,,,,,,,,main,None,None,1,1.4902878999710083,514.7684210999869,None,None,1,,,,,,,,,,,,,,103,2023-03-28_16h44.18.122,Main,2022.1.1,60.03763165040635,
negative,blue,2,None,k,,,,,,,,,0,145,145,145,,,,,,,,,,,,,,,,,main,k,k,1,0.5527239001821727,517.2543685999699,None,None,0,,,,,,,,,,,,,,103,2023-03-28_16h44.18.122,Main,2022.1.1,60.03763165040635,
negative,red,1,None,None,,,,,,,,,0,146,146,146,,,,,,,,,,,,,,,,,main,None,None,1,1.4986608000472188,518.8046613000333,None,None,1,,,,,,,,,,,,,,103,2023-03-28_16h44.18.122,Main,2022.1.1,60.03763165040635,
positive,blue,1,k,None,,,,,,,,,0,147,147,147,,,,,,,,,,,,,,,,,main,None,None,1,1.5035061999224126,521.3075608999934,None,None,1,,,,,,,,,,,,,,103,2023-03-28_16h44.18.122,Main,2022.1.1,60.03763165040635,
positive,yellow,1,None,k,,,,,,,,,0,148,148,148,,,,,,,,,,,,,,,,,main,k,k,1,0.8086747999768704,523.8100120001473,None,None,0,,,,,,,,,,,,,,103,2023-03-28_16h44.18.122,Main,2022.1.1,60.03763165040635,
negative,red,2,None,None,,,,,,,,,0,149,149,149,,,,,,,,,,,,,,,,,main,None,None,1,1.4986552000045776,525.6210712001193,None,None,1,,,,,,,,,,,,,,103,2023-03-28_16h44.18.122,Main,2022.1.1,60.03763165040635,
negative,blue,1,None,k,,,,,,,,,0,150,150,150,,,,,,,,,,,,,,,,,main,k,k,1,0.515823099995032,528.121026000008,None,None,0,,,,,,,,,,,,,,103,2023-03-28_16h44.18.122,Main,2022.1.1,60.03763165040635,
negative,yellow,2,k,None,,,,,,,,,0,151,151,151,,,,,,,,,,,,,,,,,main,None,None,1,1.5009824999142438,529.6376958000474,None,None,1,,,,,,,,,,,,,,103,2023-03-28_16h44.18.122,Main,2022.1.1,60.03763165040635,
negative,blue,2,None,k,,,,,,,,,0,152,152,152,,,,,,,,,,,,,,,,,main,k,k,1,0.5622711000032723,532.1376658000518,None,None,0,,,,,,,,,,,,,,103,2023-03-28_16h44.18.122,Main,2022.1.1,60.03763165040635,
negative,yellow,1,k,None,,,,,,,,,0,153,153,153,,,,,,,,,,,,,,,,,main,None,None,1,1.5017363999504596,533.7042990999762,None,None,1,,,,,,,,,,,,,,103,2023-03-28_16h44.18.122,Main,2022.1.1,60.03763165040635,
negative,blue,1,None,k,,,,,,,,,0,154,154,154,,,,,,,,,,,,,,,,,main,k,k,1,0.6960783000104129,536.2042445000261,None,None,0,,,,,,,,,,,,,,103,2023-03-28_16h44.18.122,Main,2022.1.1,60.03763165040635,
positive,yellow,2,None,k,,,,,,,,,0,155,155,155,,,,,,,,,,,,,,,,,main,k,k,1,0.63261489989236,537.9038897000719,None,None,0,,,,,,,,,,,,,,103,2023-03-28_16h44.18.122,Main,2022.1.1,60.03763165040635,
positive,red,2,None,None,,,,,,,,,0,156,156,156,,,,,,,,,,,,,,,,,main,None,None,1,1.5021764999255538,539.5372103999835,None,None,1,,,,,,,,,,,,,,103,2023-03-28_16h44.18.122,Main,2022.1.1,60.03763165040635,
positive,red,1,None,None,,,,,,,,,0,157,157,157,,,,,,,,,,,,,,,,,main,None,None,1,1.4990032000932842,542.0375672001392,None,None,1,,,,,,,,,,,,,,103,2023-03-28_16h44.18.122,Main,2022.1.1,60.03763165040635,
positive,blue,2,k,None,,,,,,,,,0,158,158,158,,,,,,,,,,,,,,,,,main,None,None,1,1.4989767000079155,544.5375004999805,None,None,1,,,,,,,,,,,,,,103,2023-03-28_16h44.18.122,Main,2022.1.1,60.03763165040635,
negative,yellow,1,k,None,,,,,,,,,0,159,159,159,,,,,,,,,,,,,,,,,main,None,None,1,1.4990455999504775,547.0374425000045,None,None,1,,,,,,,,,,,,,,103,2023-03-28_16h44.18.122,Main,2022.1.1,60.03763165040635,
negative,red,2,None,None,,,,,,,,,0,160,160,160,,,,,,,,,,,,,,,,,main,None,None,1,1.4963121998589486,549.5372745001223,None,None,1,,,,,,,,,,,,,,103,2023-03-28_16h44.18.122,Main,2022.1.1,60.03763165040635,
negative,blue,1,None,k,,,,,,,,,0,161,161,161,,,,,,,,,,,,,,,,,main,k,k,1,0.6662341998890042,552.0402005999349,None,None,0,,,,,,,,,,,,,,103,2023-03-28_16h44.18.122,Main,2022.1.1,60.03763165040635,
negative,blue,1,None,k,,,,,,,,,0,162,162,162,,,,,,,,,,,,,,,,,main,k,k,1,0.5656662001274526,553.7040343999397,None,None,0,,,,,,,,,,,,,,103,2023-03-28_16h44.18.122,Main,2022.1.1,60.03763165040635,
negative,yellow,1,k,None,,,,,,,,,0,163,163,163,,,,,,,,,,,,,,,,,main,None,None,1,1.4989547999575734,555.2705161001068,None,None,1,,,,,,,,,,,,,,103,2023-03-28_16h44.18.122,Main,2022.1.1,60.03763165040635,
negative,yellow,1,k,None,,,,,,,,,0,164,164,164,,,,,,,,,,,,,,,,,main,None,None,1,1.4988337000831962,557.7705046001356,None,None,1,,,,,,,,,,,,,,103,2023-03-28_16h44.18.122,Main,2022.1.1,60.03763165040635,
positive,yellow,1,None,k,,,,,,,,,0,165,165,165,,,,,,,,,,,,,,,,,main,k,k,1,0.5994225998874754,560.2701121999417,None,None,0,,,,,,,,,,,,,,103,2023-03-28_16h44.18.122,Main,2022.1.1,60.03763165040635,
negative,red,1,None,None,,,,,,,,,0,166,166,166,,,,,,,,,,,,,,,,,main,None,None,1,1.5021314001642168,561.8701275000349,None,None,1,,,,,,,,,,,,,,103,2023-03-28_16h44.18.122,Main,2022.1.1,60.03763165040635,
negative,yellow,2,k,None,,,,,,,,,0,167,167,167,,,,,,,,,,,,,,,,,main,None,None,1,1.4963891000952572,564.3732251001056,None,None,1,,,,,,,,,,,,,,103,2023-03-28_16h44.18.122,Main,2022.1.1,60.03763165040635,
positive,blue,2,k,None,,,,,,,,,0,168,168,168,,,,,,,,,,,,,,,,,main,None,None,1,1.5017985000740737,566.8732907001395,None,None,1,,,,,,,,,,,,,,103,2023-03-28_16h44.18.122,Main,2022.1.1,60.03763165040635,
positive,red,2,None,None,,,,,,,,,0,169,169,169,,,,,,,,,,,,,,,,,main,None,None,1,1.4963863000739366,569.3701659999788,None,None,1,,,,,,,,,,,,,,103,2023-03-28_16h44.18.122,Main,2022.1.1,60.03763165040635,
positive,red,1,None,None,,,,,,,,,0,170,170,170,,,,,,,,,,,,,,,,,main,None,None,1,1.4991077000740916,571.8701396000106,None,None,1,,,,,,,,,,,,,,103,2023-03-28_16h44.18.122,Main,2022.1.1,60.03763165040635,
negative,blue,2,None,k,,,,,,,,,0,171,171,171,,,,,,,,,,,,,,,,,main,k,k,1,0.9326752999331802,574.3730180000421,None,None,0,,,,,,,,,,,,,,103,2023-03-28_16h44.18.122,Main,2022.1.1,60.03763165040635,
positive,blue,2,k,None,,,,,,,,,0,172,172,172,,,,,,,,,,,,,,,,,main,None,None,1,1.5018219000194222,576.3034125000704,None,None,1,,,,,,,,,,,,,,103,2023-03-28_16h44.18.122,Main,2022.1.1,60.03763165040635,
negative,yellow,2,k,None,,,,,,,,,0,173,173,173,,,,,,,,,,,,,,,,,main,None,None,1,1.4957600999623537,578.8033823999576,None,None,1,,,,,,,,,,,,,,103,2023-03-28_16h44.18.122,Main,2022.1.1,60.03763165040635,
positive,yellow,2,None,k,,,,,,,,,0,174,174,174,,,,,,,,,,,,,,,,,main,k,k,1,0.6331972000189126,581.3030092001427,None,None,0,,,,,,,,,,,,,,103,2023-03-28_16h44.18.122,Main,2022.1.1,60.03763165040635,
negative,blue,2,None,k,,,,,,,,,0,175,175,175,,,,,,,,,,,,,,,,,main,k,k,1,0.7159593999385834,582.936762999976,None,None,0,,,,,,,,,,,,,,103,2023-03-28_16h44.18.122,Main,2022.1.1,60.03763165040635,
positive,blue,1,k,None,,,,,,,,,0,176,176,176,,,,,,,,,,,,,,,,,main,None,None,1,1.4987703999504447,584.6533331000246,None,None,1,,,,,,,,,,,,,,103,2023-03-28_16h44.18.122,Main,2022.1.1,60.03763165040635,
positive,yellow,1,None,k,,,,,,,,,0,177,177,177,,,,,,,,,,,,,,,,,main,k,k,1,0.6358131999149919,587.1532225999981,None,None,0,,,,,,,,,,,,,,103,2023-03-28_16h44.18.122,Main,2022.1.1,60.03763165040635,
positive,blue,1,k,None,,,,,,,,,0,178,178,178,,,,,,,,,,,,,,,,,main,None,None,1,1.495822099968791,588.7893354000989,None,None,1,,,,,,,,,,,,,,103,2023-03-28_16h44.18.122,Main,2022.1.1,60.03763165040635,
positive,yellow,2,None,k,,,,,,,,,0,179,179,179,,,,,,,,,,,,,,,,,main,k,k,1,1.0658232001587749,591.2864167999942,None,None,0,,,,,,,,,,,,,,103,2023-03-28_16h44.18.122,Main,2022.1.1,60.03763165040635,
positive,blue,1,k,None,,,,,,,,,0,180,180,180,,,,,,,,,,,,,,,,,main,None,None,1,1.498866899870336,593.3531446000561,None,None,1,,,,,,,,,,,,,,103,2023-03-28_16h44.18.122,Main,2022.1.1,60.03763165040635,
negative,red,1,None,None,,,,,,,,,0,181,181,181,,,,,,,,,,,,,,,,,main,None,None,1,1.5018832001369447,595.8529873001389,None,None,1,,,,,,,,,,,,,,103,2023-03-28_16h44.18.122,Main,2022.1.1,60.03763165040635,
negative,blue,1,None,k,,,,,,,,,0,182,182,182,,,,,,,,,,,,,,,,,main,k,k,1,0.6329556000418961,598.3530385999475,None,None,0,,,,,,,,,,,,,,103,2023-03-28_16h44.18.122,Main,2022.1.1,60.03763165040635,
negative,yellow,2,k,None,,,,,,,,,0,183,183,183,,,,,,,,,,,,,,,,,main,None,None,1,1.4988280001562089,599.9862500999589,None,None,1,,,,,,,,,,,,,,103,2023-03-28_16h44.18.122,Main,2022.1.1,60.03763165040635,
positive,yellow,2,None,k,,,,,,,,,0,184,184,184,,,,,,,,,,,,,,,,,main,k,k,1,0.704844200052321,602.4862703001127,None,None,0,,,,,,,,,,,,,,103,2023-03-28_16h44.18.122,Main,2022.1.1,60.03763165040635,
positive,yellow,1,None,k,,,,,,,,,0,185,185,185,,,,,,,,,,,,,,,,,main,k,k,1,0.5903654000721872,604.1998123000376,None,None,0,,,,,,,,,,,,,,103,2023-03-28_16h44.18.122,Main,2022.1.1,60.03763165040635,
positive,red,2,None,None,,,,,,,,,0,186,186,186,,,,,,,,,,,,,,,,,main,None,None,1,1.4993828998412937,605.7858301999513,None,None,1,,,,,,,,,,,,,,103,2023-03-28_16h44.18.122,Main,2022.1.1,60.03763165040635,
positive,blue,1,k,None,,,,,,,,,0,187,187,187,,,,,,,,,,,,,,,,,main,None,k,0,0.9161393998656422,608.2890649000183,None,None,1,,,,,,,,,,,,,,103,2023-03-28_16h44.18.122,Main,2022.1.1,60.03763165040635,
negative,yellow,1,k,None,,,,,,,,,0,188,188,188,,,,,,,,,,,,,,,,,main,None,None,1,1.5053037002217025,611.2027930000331,None,None,1,,,,,,,,,,,,,,103,2023-03-28_16h44.18.122,Main,2022.1.1,60.03763165040635,
positive,yellow,2,None,k,,,,,,,,,0,189,189,189,,,,,,,,,,,,,,,,,main,k,k,1,0.6420424000825733,613.7083199000917,None,None,0,,,,,,,,,,,,,,103,2023-03-28_16h44.18.122,Main,2022.1.1,60.03763165040635,
negative,yellow,2,k,None,,,,,,,,,0,190,190,190,,,,,,,,,,,,,,,,,main,None,None,1,1.4989704000763595,615.3525696999859,None,None,1,,,,,,,,,,,,,,103,2023-03-28_16h44.18.122,Main,2022.1.1,60.03763165040635,
negative,yellow,1,k,None,,,,,,,,,0,191,191,191,,,,,,,,,,,,,,,,,main,None,None,1,1.4989664000459015,617.8553798000794,None,None,1,,,,,,,,,,,,,,103,2023-03-28_16h44.18.122,Main,2022.1.1,60.03763165040635,
positive,blue,2,k,None,,,,,,,,,0,192,192,192,,,,,,,,,,,,,,,,,main,None,None,1,1.4994479001034051,620.355334599968,None,None,1,,,,,,,,,,,,,,103,2023-03-28_16h44.18.122,Main,2022.1.1,60.03763165040635,
positive,yellow,1,None,k,,,,,,,,,0,193,193,193,,,,,,,,,,,,,,,,,main,k,k,1,0.6489643000531942,622.8553593000397,None,None,0,,,,,,,,,,,,,,103,2023-03-28_16h44.18.122,Main,2022.1.1,60.03763165040635,
negative,red,2,None,None,,,,,,,,,0,194,194,194,,,,,,,,,,,,,,,,,main,None,None,1,1.4984773001633584,624.5053473999724,None,None,1,,,,,,,,,,,,,,103,2023-03-28_16h44.18.122,Main,2022.1.1,60.03763165040635,
positive,red,1,None,None,,,,,,,,,0,195,195,195,,,,,,,,,,,,,,,,,main,None,None,1,1.4997419000137597,627.0022644000128,None,None,1,,,,,,,,,,,,,,103,2023-03-28_16h44.18.122,Main,2022.1.1,60.03763165040635,
negative,blue,1,None,k,,,,,,,,,0,196,196,196,,,,,,,,,,,,,,,,,main,k,k,1,0.801863299915567,629.5052253000904,None,None,0,,,,,,,,,,,,,,103,2023-03-28_16h44.18.122,Main,2022.1.1,60.03763165040635,
positive,blue,2,k,None,,,,,,,,,0,197,197,197,,,,,,,,,,,,,,,,,main,None,None,1,1.4957934999838471,631.3052538000047,None,None,1,,,,,,,,,,,,,,103,2023-03-28_16h44.18.122,Main,2022.1.1,60.03763165040635,
negative,blue,2,None,k,,,,,,,,,0,198,198,198,,,,,,,,,,,,,,,,,main,k,k,1,0.7161384001374245,633.805187900085,None,None,0,,,,,,,,,,,,,,103,2023-03-28_16h44.18.122,Main,2022.1.1,60.03763165040635,
negative,blue,2,None,k,,,,,,,,,0,199,199,199,,,,,,,,,,,,,,,,,main,k,k,1,0.8659047000110149,635.5187959999312,None,None,0,,,,,,,,,,,,,,103,2023-03-28_16h44.18.122,Main,2022.1.1,60.03763165040635,
positive,blue,2,k,None,,,,,,,,,0,200,200,200,,,,,,,,,,,,,,,,,main,None,None,1,1.5021381000988185,637.3854549999814,None,None,1,,,,,,,,,,,,,,103,2023-03-28_16h44.18.122,Main,2022.1.1,60.03763165040635,
positive,blue,2,k,None,,,,,,,,,0,201,201,201,,,,,,,,,,,,,,,,,main,None,None,1,1.4962335000745952,639.8855666001327,None,None,1,,,,,,,,,,,,,,103,2023-03-28_16h44.18.122,Main,2022.1.1,60.03763165040635,
negative,yellow,2,k,None,,,,,,,,,0,202,202,202,,,,,,,,,,,,,,,,,main,None,None,1,1.501545700011775,642.3855449999683,None,None,1,,,,,,,,,,,,,,103,2023-03-28_16h44.18.122,Main,2022.1.1,60.03763165040635,
positive,red,1,None,None,,,,,,,,,0,203,203,203,,,,,,,,,,,,,,,,,main,None,None,1,1.4961374001577497,644.8854517000727,None,None,1,,,,,,,,,,,,,,103,2023-03-28_16h44.18.122,Main,2022.1.1,60.03763165040635,
negative,blue,2,None,k,,,,,,,,,0,204,204,204,,,,,,,,,,,,,,,,,main,k,k,1,0.6827618000097573,647.3849810999818,None,None,0,,,,,,,,,,,,,,103,2023-03-28_16h44.18.122,Main,2022.1.1,60.03763165040635,
negative,red,1,None,None,,,,,,,,,0,205,205,205,,,,,,,,,,,,,,,,,main,None,None,1,1.5016673000063747,649.0688487000298,None,None,1,,,,,,,,,,,,,,103,2023-03-28_16h44.18.122,Main,2022.1.1,60.03763165040635,
negative,blue,2,None,k,,,,,,,,,0,206,206,206,,,,,,,,,,,,,,,,,main,k,k,1,0.6466177001129836,651.5686272999737,None,None,0,,,,,,,,,,,,,,103,2023-03-28_16h44.18.122,Main,2022.1.1,60.03763165040635,
negative,yellow,2,k,None,,,,,,,,,0,207,207,207,,,,,,,,,,,,,,,,,main,None,None,1,1.498618199955672,653.2214278001338,None,None,1,,,,,,,,,,,,,,103,2023-03-28_16h44.18.122,Main,2022.1.1,60.03763165040635,
positive,yellow,2,None,k,,,,,,,,,0,208,208,208,,,,,,,,,,,,,,,,,main,k,k,1,0.632729500066489,655.7184061000589,None,None,0,,,,,,,,,,,,,,103,2023-03-28_16h44.18.122,Main,2022.1.1,60.03763165040635,
negative,yellow,1,k,None,,,,,,,,,0,209,209,209,,,,,,,,,,,,,,,,,main,None,None,1,1.5018933000974357,657.3517037001438,None,None,1,,,,,,,,,,,,,,103,2023-03-28_16h44.18.122,Main,2022.1.1,60.03763165040635,
negative,red,2,None,None,,,,,,,,,0,210,210,210,,,,,,,,,,,,,,,,,main,None,None,1,1.4992334998678416,659.8516558001284,None,None,1,,,,,,,,,,,,,,103,2023-03-28_16h44.18.122,Main,2022.1.1,60.03763165040635,
negative,blue,1,None,k,,,,,,,,,0,211,211,211,,,,,,,,,,,,,,,,,main,k,k,1,0.9297951001208276,662.351739600068,None,None,0,,,,,,,,,,,,,,103,2023-03-28_16h44.18.122,Main,2022.1.1,60.03763165040635,
negative,yellow,1,k,None,,,,,,,,,0,212,212,212,,,,,,,,,,,,,,,,,main,None,None,1,1.4891908999998122,664.2849656001199,None,None,1,,,,,,,,,,,,,,103,2023-03-28_16h44.18.122,Main,2022.1.1,60.03763165040635,
positive,blue,1,k,None,,,,,,,,,0,213,213,213,,,,,,,,,,,,,,,,,main,None,None,1,1.4915520998183638,666.7735929000191,None,None,1,,,,,,,,,,,,,,103,2023-03-28_16h44.18.122,Main,2022.1.1,60.03763165040635,
positive,blue,1,k,None,,,,,,,,,0,214,214,214,,,,,,,,,,,,,,,,,main,None,None,1,1.5025076000019908,669.2679368001409,None,None,1,,,,,,,,,,,,,,103,2023-03-28_16h44.18.122,Main,2022.1.1,60.03763165040635,
positive,yellow,1,None,k,,,,,,,,,0,215,215,215,,,,,,,,,,,,,,,,,main,k,k,1,0.7797212998848408,671.7682117000222,None,None,0,,,,,,,,,,,,,,103,2023-03-28_16h44.18.122,Main,2022.1.1,60.03763165040635,
positive,yellow,1,None,k,,,,,,,,,0,216,216,216,,,,,,,,,,,,,,,,,main,k,k,1,0.6326002001296729,673.5515424001496,None,None,0,,,,,,,,,,,,,,103,2023-03-28_16h44.18.122,Main,2022.1.1,60.03763165040635,
positive,yellow,2,None,k,,,,,,,,,0,217,217,217,,,,,,,,,,,,,,,,,main,k,k,1,0.8150673001073301,675.184799300041,None,None,0,,,,,,,,,,,,,,103,2023-03-28_16h44.18.122,Main,2022.1.1,60.03763165040635,
negative,blue,1,None,k,,,,,,,,,0,218,218,218,,,,,,,,,,,,,,,,,main,k,k,1,0.7492879999335855,677.0010619000532,None,None,0,,,,,,,,,,,,,,103,2023-03-28_16h44.18.122,Main,2022.1.1,60.03763165040635,
positive,red,2,None,None,,,,,,,,,0,219,219,219,,,,,,,,,,,,,,,,,main,None,None,1,1.5019849000964314,678.7510522999801,None,None,1,,,,,,,,,,,,,,103,2023-03-28_16h44.18.122,Main,2022.1.1,60.03763165040635,
positive,yellow,1,None,k,,,,,,,,,0,220,220,220,,,,,,,,,,,,,,,,,main,k,k,1,1.082965400069952,681.2513934001327,None,None,0,,,,,,,,,,,,,,103,2023-03-28_16h44.18.122,Main,2022.1.1,60.03763165040635,
positive,blue,1,k,None,,,,,,,,,0,221,221,221,,,,,,,,,,,,,,,,,main,None,None,1,1.4988568001426756,683.334682200104,None,None,1,,,,,,,,,,,,,,103,2023-03-28_16h44.18.122,Main,2022.1.1,60.03763165040635,
positive,yellow,2,None,k,,,,,,,,,0,222,222,222,,,,,,,,,,,,,,,,,main,k,k,1,0.7808479000814259,685.8346476000734,None,None,0,,,,,,,,,,,,,,103,2023-03-28_16h44.18.122,Main,2022.1.1,60.03763165040635,
negative,yellow,1,k,None,,,,,,,,,0,223,223,223,,,,,,,,,,,,,,,,,main,None,None,1,1.5017254000995308,687.6179057001136,None,None,1,,,,,,,,,,,,,,103,2023-03-28_16h44.18.122,Main,2022.1.1,60.03763165040635,
positive,yellow,2,None,k,,,,,,,,,0,224,224,224,,,,,,,,,,,,,,,,,main,k,k,1,0.5953709001187235,690.1177362999879,None,None,0,,,,,,,,,,,,,,103,2023-03-28_16h44.18.122,Main,2022.1.1,60.03763165040635,
negative,yellow,2,k,None,,,,,,,,,0,225,225,225,,,,,,,,,,,,,,,,,main,None,None,1,1.5017441001255065,691.7204803000204,None,None,1,,,,,,,,,,,,,,103,2023-03-28_16h44.18.122,Main,2022.1.1,60.03763165040635,
negative,blue,2,None,k,,,,,,,,,0,226,226,226,,,,,,,,,,,,,,,,,main,k,k,1,0.6632125000469387,694.2176604000852,None,None,0,,,,,,,,,,,,,,103,2023-03-28_16h44.18.122,Main,2022.1.1,60.03763165040635,
positive,red,2,None,None,,,,,,,,,0,227,227,227,,,,,,,,,,,,,,,,,main,None,None,1,1.4915358999278396,695.8843153999187,None,None,1,,,,,,,,,,,,,,103,2023-03-28_16h44.18.122,Main,2022.1.1,60.03763165040635,
positive,blue,2,k,None,,,,,,,,,0,228,228,228,,,,,,,,,,,,,,,,,main,None,None,1,1.5061057999264449,698.3754007001407,None,None,1,,,,,,,,,,,,,,103,2023-03-28_16h44.18.122,Main,2022.1.1,60.03763165040635,
negative,blue,1,None,k,,,,,,,,,0,229,229,229,,,,,,,,,,,,,,,,,main,k,k,1,0.7497783000580966,700.8839603001252,None,None,0,,,,,,,,,,,,,,103,2023-03-28_16h44.18.122,Main,2022.1.1,60.03763165040635,
positive,yellow,1,None,k,,,,,,,,,0,230,230,230,,,,,,,,,,,,,,,,,main,k,k,1,0.6159737999550998,702.6343111000024,None,None,0,,,,,,,,,,,,,,103,2023-03-28_16h44.18.122,Main,2022.1.1,60.03763165040635,
negative,blue,2,None,k,,,,,,,,,0,231,231,231,,,,,,,,,,,,,,,,,main,k,k,1,0.7323433000128716,704.2536704000086,None,None,0,,,,,,,,,,,,,,103,2023-03-28_16h44.18.122,Main,2022.1.1,60.03763165040635,
negative,red,1,None,None,,,,,,,,,0,232,232,232,,,,,,,,,,,,,,,,,main,None,None,1,1.4986985002178699,705.9841742001008,None,None,1,,,,,,,,,,,,,,103,2023-03-28_16h44.18.122,Main,2022.1.1,60.03763165040635,
positive,blue,2,k,None,,,,,,,,,0,233,233,233,,,,,,,,,,,,,,,,,main,None,None,1,1.5020373000297695,708.484041800024,None,None,1,,,,,,,,,,,,,,103,2023-03-28_16h44.18.122,Main,2022.1.1,60.03763165040635,
negative,yellow,1,k,None,,,,,,,,,0,234,234,234,,,,,,,,,,,,,,,,,main,None,None,1,1.4989672000519931,710.9839649000205,None,None,1,,,,,,,,,,,,,,103,2023-03-28_16h44.18.122,Main,2022.1.1,60.03763165040635,
negative,yellow,2,k,None,,,,,,,,,0,235,235,235,,,,,,,,,,,,,,,,,main,None,None,1,1.4961937998887151,713.4868322999682,None,None,1,,,,,,,,,,,,,,103,2023-03-28_16h44.18.122,Main,2022.1.1,60.03763165040635,
positive,red,1,None,None,,,,,,,,,0,236,236,236,,,,,,,,,,,,,,,,,main,None,None,1,1.5018005000893027,715.983867800096,None,None,1,,,,,,,,,,,,,,103,2023-03-28_16h44.18.122,Main,2022.1.1,60.03763165040635,
negative,red,2,None,None,,,,,,,,,0,237,237,237,,,,,,,,,,,,,,,,,main,None,None,1,1.4956336000468582,718.4838414001279,None,None,1,,,,,,,,,,,,,,103,2023-03-28_16h44.18.122,Main,2022.1.1,60.03763165040635,
negative,blue,1,None,k,,,,,,,,,0,238,238,238,,,,,,,,,,,,,,,,,main,k,k,1,0.7526897001080215,720.9835385000333,None,None,0,,,,,,,,,,,,,,103,2023-03-28_16h44.18.122,Main,2022.1.1,60.03763165040635,
positive,blue,1,k,None,,,,,,,,,0,239,239,239,,,,,,,,,,,,,,,,,main,None,None,1,1.4989546998403966,722.733867800096,None,None,1,,,,,,,,,,,,,,103,2023-03-28_16h44.18.122,Main,2022.1.1,60.03763165040635,
,,,,,,,,,,,,,,,,,,,,,,,,,,,,,,,,,,,,,,,,,,,,,,,,,,,,,725.2337760999799,None,,,,,,
