distractor,target,set,ans1,ans2,rep_loop4.thisRepN,rep_loop4.thisTrialN,rep_loop4.thisN,rep_loop4.thisIndex,st2_prac_loop.thisRepN,st2_prac_loop.thisTrialN,st2_prac_loop.thisN,st2_prac_loop.thisIndex,st2_main_loop.thisRepN,st2_main_loop.thisTrialN,st2_main_loop.thisN,st2_main_loop.thisIndex,image_4.started,image_4.stopped,sound_2.started,sound_2.stopped,key_resp_3.keys,key_resp_3.rt,image_5.started,image_5.stopped,st_prac_back.started,st_prac_back.stopped,st_prac_text.started,st_prac_text.stopped,st_fix_back.started,st_fix_back.stopped,st_fix_2.started,st_fix_2.stopped,main_prac,st_ans,st_res,st_corr,st_rt,st_back.started,st_back.stopped,st2_resp.keys,st2_resp.corr,st_main_back.started,st_main_back.stopped,st_main_text.started,st_main_text.stopped,mouse_4.x,mouse_4.y,mouse_4.leftButton,mouse_4.midButton,mouse_4.rightButton,mouse_4.started,mouse_4.stopped,text_2.started,text_2.stopped,id*,date,expName,psychopyVersion,frameRate,
negative,yellow,1,k,None,,,,,0,0,0,0,,,,,31.294068099930882,None,35.81150396987796,None,space,57.349175800103694,93.19406559993513,None,96.69346280000173,None,96.69346280000173,None,98.69343500002287,None,98.69343500002287,None,prac,k,k,1,1.2727956001181155,100.71050769998692,None,None,0,,,,,,,,,,,,,,104,2023-03-29_13h40.42.361,Main,2022.1.1,59.89594883002295,
positive,red,2,None,None,,,,,0,1,1,1,,,,,,,,,,,,,,,,,,,,,prac,None,None,1,1.4987770000007004,102.99330549989827,None,None,1,,,,,,,,,,,,,,104,2023-03-29_13h40.42.361,Main,2022.1.1,59.89594883002295,
negative,blue,2,None,k,,,,,0,2,2,2,,,,,,,,,,,,,,,,,,,,,prac,None,None,1,1.4978538998402655,105.49329979997128,None,None,1,,,,,,,,,,,,,,104,2023-03-29_13h40.42.361,Main,2022.1.1,59.89594883002295,
positive,yellow,1,None,k,,,,,0,3,3,3,,,,,,,,,,,,,,,,,,,,,prac,None,None,1,1.496743299998343,107.98999409982935,None,None,1,,,,,,,,,,,,,,104,2023-03-29_13h40.42.361,Main,2022.1.1,59.89594883002295,
negative,blue,2,None,k,,,,,0,4,4,4,,,,,,,,,,,,,,,,,,,,,prac,None,None,1,1.5019182998221368,110.4900247999467,None,None,1,,,,,,,,,,,,,,104,2023-03-29_13h40.42.361,Main,2022.1.1,59.89594883002295,
negative,blue,1,None,k,,,,,0,5,5,5,,,,,,,,,,,,,,,,,,,,,prac,None,None,1,1.499353100080043,112.99318819982,None,None,1,,,,,,,,,,,,,,104,2023-03-29_13h40.42.361,Main,2022.1.1,59.89594883002295,
negative,yellow,2,k,None,,,,,0,6,6,6,,,,,,,,,,,,,,,,,,,,,prac,k,k,1,0.9808398999739438,115.49318269989453,None,None,0,,,,,,,,,,,,,,104,2023-03-29_13h40.42.361,Main,2022.1.1,59.89594883002295,
negative,red,1,None,None,,,,,0,7,7,7,,,,,,,,,,,,,,,,,,,,,prac,None,None,1,1.49834130005911,117.47355460003018,None,None,1,,,,,,,,,,,,,,104,2023-03-29_13h40.42.361,Main,2022.1.1,59.89594883002295,
positive,yellow,2,None,k,,,,,0,8,8,8,,,,,,,,,,,,,,,,,,,,,prac,None,None,1,1.499339299974963,119.97333749989048,None,None,1,,,,,,,,,,,,,,104,2023-03-29_13h40.42.361,Main,2022.1.1,59.89594883002295,
negative,yellow,1,k,None,,,,,0,9,9,9,,,,,,,,,,,,,,,,,,,,,prac,k,k,1,0.9984993999823928,122.47332390001975,None,None,0,,,,,,,,,,,,,,104,2023-03-29_13h40.42.361,Main,2022.1.1,59.89594883002295,
positive,yellow,2,None,k,,,,,0,10,10,10,,,,,,,,,,,,,,,,,,,,,prac,None,None,1,1.501937400083989,124.47333689988591,None,None,1,,,,,,,,,,,,,,104,2023-03-29_13h40.42.361,Main,2022.1.1,59.89594883002295,
negative,yellow,2,k,None,,,,,0,11,11,11,,,,,,,,,,,,,,,,,,,,,prac,k,k,1,0.6630423001479357,126.97326769982465,None,None,0,,,,,,,,,,,,,,104,2023-03-29_13h40.42.361,Main,2022.1.1,59.89594883002295,
negative,red,2,None,None,,,,,0,12,12,12,,,,,,,,,,,,,,,,,,,,,prac,None,None,1,1.4984725001268089,128.63989209989086,None,None,1,,,,,,,,,,,,,,104,2023-03-29_13h40.42.361,Main,2022.1.1,59.89594883002295,
positive,red,1,None,None,,,,,0,13,13,13,,,,,,,,,,,,,,,,,,,,,prac,None,None,1,1.5023089000023901,131.13953199982643,None,None,1,,,,,,,,,,,,,,104,2023-03-29_13h40.42.361,Main,2022.1.1,59.89594883002295,
positive,blue,2,k,None,,,,,0,14,14,14,,,,,,,,,,,,,,,,,,,,,prac,k,k,1,0.6466787999961525,133.64275470003486,None,None,0,,,,,,,,,,,,,,104,2023-03-29_13h40.42.361,Main,2022.1.1,59.89594883002295,
positive,blue,1,k,None,,,,,0,15,15,15,,,,,,,,,,,,,,,,,,,,,prac,k,k,1,0.5658290998544544,135.29274219996296,None,None,0,,,,,,,,,,,,,,104,2023-03-29_13h40.42.361,Main,2022.1.1,59.89594883002295,
negative,blue,1,None,k,,,,,0,16,16,16,,,,,,,,,,,,,,,,,,,,,prac,None,None,1,1.5018025001045316,136.85935009992681,None,None,1,,,,,,,,,,,,,,104,2023-03-29_13h40.42.361,Main,2022.1.1,59.89594883002295,
positive,blue,2,k,None,,,,,0,17,17,17,,,,,,,,,,,,,,,,,,,,,prac,k,k,1,0.5991881999652833,139.35641320003197,None,None,0,,,,,,,,,,,,,,104,2023-03-29_13h40.42.361,Main,2022.1.1,59.89594883002295,
positive,blue,1,k,None,,,,,0,18,18,18,,,,,,,,,,,,,,,,,,,,,prac,k,k,1,0.6992134999018162,140.95624749991111,None,None,0,,,,,,,,,,,,,,104,2023-03-29_13h40.42.361,Main,2022.1.1,59.89594883002295,
positive,yellow,1,None,k,,,,,0,19,19,19,,,,,,,,,,,,,,,,,,,,,prac,None,None,1,1.4989812998101115,142.65623269998468,None,None,1,,,,,,,,,,,,,,104,2023-03-29_13h40.42.361,Main,2022.1.1,59.89594883002295,
negative,yellow,1,k,None,,,,,1,0,20,0,,,,,,,,,,,,,,,,,,,,,prac,k,k,1,0.5801390002015978,145.15619539981708,None,None,0,,,,,,,,,,,,,,104,2023-03-29_13h40.42.361,Main,2022.1.1,59.89594883002295,
positive,red,2,None,None,,,,,1,1,21,1,,,,,,,,,,,,,,,,,,,,,prac,None,None,1,1.499006099998951,146.7396278998349,None,None,1,,,,,,,,,,,,,,104,2023-03-29_13h40.42.361,Main,2022.1.1,59.89594883002295,
negative,blue,2,None,k,,,,,1,2,22,2,,,,,,,,,,,,,,,,,,,,,prac,None,None,1,1.5019790001679212,149.24233949999325,None,None,1,,,,,,,,,,,,,,104,2023-03-29_13h40.42.361,Main,2022.1.1,59.89594883002295,
positive,yellow,1,None,k,,,,,1,3,23,3,,,,,,,,,,,,,,,,,,,,,prac,None,None,1,1.4957532999105752,151.73945129988715,None,None,1,,,,,,,,,,,,,,104,2023-03-29_13h40.42.361,Main,2022.1.1,59.89594883002295,
negative,blue,2,None,k,,,,,1,4,24,4,,,,,,,,,,,,,,,,,,,,,prac,None,None,1,1.5025285000447184,154.23904979997315,None,None,1,,,,,,,,,,,,,,104,2023-03-29_13h40.42.361,Main,2022.1.1,59.89594883002295,
negative,blue,1,None,k,,,,,1,5,25,5,,,,,,,,,,,,,,,,,,,,,prac,None,None,1,1.4989606000017375,156.73941529984586,None,None,1,,,,,,,,,,,,,,104,2023-03-29_13h40.42.361,Main,2022.1.1,59.89594883002295,
negative,yellow,2,k,None,,,,,1,6,26,6,,,,,,,,,,,,,,,,,,,,,prac,k,k,1,0.729478299850598,159.24212519987486,None,None,0,,,,,,,,,,,,,,104,2023-03-29_13h40.42.361,Main,2022.1.1,59.89594883002295,
negative,red,1,None,None,,,,,1,7,27,7,,,,,,,,,,,,,,,,,,,,,prac,None,None,1,1.4988238997757435,160.9796264998149,None,None,1,,,,,,,,,,,,,,104,2023-03-29_13h40.42.361,Main,2022.1.1,59.89594883002295,
positive,yellow,2,None,k,,,,,1,8,28,8,,,,,,,,,,,,,,,,,,,,,prac,None,None,1,1.5022702000569552,163.4722766999621,None,None,1,,,,,,,,,,,,,,104,2023-03-29_13h40.42.361,Main,2022.1.1,59.89594883002295,
negative,yellow,1,k,None,,,,,1,9,29,9,,,,,,,,,,,,,,,,,,,,,prac,k,k,1,0.6160971999634057,165.97533189994283,None,None,0,,,,,,,,,,,,,,104,2023-03-29_13h40.42.361,Main,2022.1.1,59.89594883002295,
positive,yellow,2,None,k,,,,,1,10,30,10,,,,,,,,,,,,,,,,,,,,,prac,None,None,1,1.4984762999229133,167.5919877998531,None,None,1,,,,,,,,,,,,,,104,2023-03-29_13h40.42.361,Main,2022.1.1,59.89594883002295,
negative,yellow,2,k,None,,,,,1,11,31,11,,,,,,,,,,,,,,,,,,,,,prac,k,k,1,0.7328415000811219,170.09620219981298,None,None,0,,,,,,,,,,,,,,104,2023-03-29_13h40.42.361,Main,2022.1.1,59.89594883002295,
negative,red,2,None,None,,,,,1,12,32,12,,,,,,,,,,,,,,,,,,,,,prac,None,None,1,1.4961914999876171,171.8222854998894,None,None,1,,,,,,,,,,,,,,104,2023-03-29_13h40.42.361,Main,2022.1.1,59.89594883002295,
positive,red,1,None,None,,,,,1,13,33,13,,,,,,,,,,,,,,,,,,,,,prac,None,None,1,1.502001800108701,174.32521489984356,None,None,1,,,,,,,,,,,,,,104,2023-03-29_13h40.42.361,Main,2022.1.1,59.89594883002295,
positive,blue,2,k,None,,,,,1,14,34,14,,,,,,,,,,,,,,,,,,,,,prac,k,k,1,0.6327070000115782,176.82223489996977,None,None,0,,,,,,,,,,,,,,104,2023-03-29_13h40.42.361,Main,2022.1.1,59.89594883002295,
positive,blue,1,k,None,,,,,1,15,35,15,,,,,,,,,,,,,,,,,,,,,prac,k,k,1,0.5296928000170738,178.45829109987244,None,None,0,,,,,,,,,,,,,,104,2023-03-29_13h40.42.361,Main,2022.1.1,59.89594883002295,
negative,blue,1,None,k,,,,,1,16,36,16,,,,,,,,,,,,,,,,,,,,,prac,None,None,1,1.5020736998412758,179.98885490000248,None,None,1,,,,,,,,,,,,,,104,2023-03-29_13h40.42.361,Main,2022.1.1,59.89594883002295,
positive,blue,2,k,None,,,,,1,17,37,17,,,,,,,,,,,,,,,,,,,,,prac,k,k,1,1.1624974999576807,182.48880989989266,None,None,0,,,,,,,,,,,,,,104,2023-03-29_13h40.42.361,Main,2022.1.1,59.89594883002295,
positive,blue,1,k,None,,,,,1,18,38,18,,,,,,,,,,,,,,,,,,,,,prac,k,k,1,0.516020999988541,184.65511359996162,None,None,0,,,,,,,,,,,,,,104,2023-03-29_13h40.42.361,Main,2022.1.1,59.89594883002295,
positive,yellow,1,None,k,,,,,1,19,39,19,,,,,,,,,,,,,,,,,,,,,prac,None,None,1,1.502218100009486,186.1718223998323,None,None,1,,,,,,,,,,,,,,104,2023-03-29_13h40.42.361,Main,2022.1.1,59.89594883002295,
,,,,,,,,,,,,,,,,,,,,,,,,,,,,,,,,,,,,,,,,,,188.67492139991373,None,188.67492139991373,None,0.0,-0.17407407,0,0,0,0.01425836980342865,None,,,104,2023-03-29_13h40.42.361,Main,2022.1.1,59.89594883002295,
negative,yellow,2,k,None,,,,,,,,,0,0,0,0,,,,,,,,,,,,,189.75815190002322,None,189.75815190002322,None,main,k,k,1,0.7627876999322325,191.78405699995346,None,None,0,,,,,,,,,,,,,,104,2023-03-29_13h40.42.361,Main,2022.1.1,59.89594883002295,
positive,red,1,None,None,,,,,,,,,0,1,1,1,,,,,,,,,,,,,,,,,main,None,None,1,1.4984738000202924,193.5551817000378,None,None,1,,,,,,,,,,,,,,104,2023-03-29_13h40.42.361,Main,2022.1.1,59.89594883002295,
positive,blue,2,k,None,,,,,,,,,0,2,2,2,,,,,,,,,,,,,,,,,main,k,k,1,0.6828237001318485,196.05796899995767,None,None,0,,,,,,,,,,,,,,104,2023-03-29_13h40.42.361,Main,2022.1.1,59.89594883002295,
positive,blue,1,k,None,,,,,,,,,0,3,3,3,,,,,,,,,,,,,,,,,main,k,k,1,0.5990681999828666,197.7385080999229,None,None,0,,,,,,,,,,,,,,104,2023-03-29_13h40.42.361,Main,2022.1.1,59.89594883002295,
negative,yellow,2,k,None,,,,,,,,,0,4,4,4,,,,,,,,,,,,,,,,,main,k,k,1,0.6659007999114692,199.34133909991942,None,None,0,,,,,,,,,,,,,,104,2023-03-29_13h40.42.361,Main,2022.1.1,59.89594883002295,
positive,yellow,2,None,k,,,,,,,,,0,5,5,5,,,,,,,,,,,,,,,,,main,None,None,1,1.5017927000299096,201.00507929991,None,None,1,,,,,,,,,,,,,,104,2023-03-29_13h40.42.361,Main,2022.1.1,59.89594883002295,
negative,blue,2,None,k,,,,,,,,,0,6,6,6,,,,,,,,,,,,,,,,,main,None,None,1,1.4960149999242276,203.5079314999748,None,None,1,,,,,,,,,,,,,,104,2023-03-29_13h40.42.361,Main,2022.1.1,59.89594883002295,
positive,red,2,None,None,,,,,,,,,0,7,7,7,,,,,,,,,,,,,,,,,main,None,None,1,1.5024507001508027,206.00467249983922,None,None,1,,,,,,,,,,,,,,104,2023-03-29_13h40.42.361,Main,2022.1.1,59.89594883002295,
positive,yellow,1,None,k,,,,,,,,,0,8,8,8,,,,,,,,,,,,,,,,,main,None,None,1,1.4990617001894861,208.50789260002784,None,None,1,,,,,,,,,,,,,,104,2023-03-29_13h40.42.361,Main,2022.1.1,59.89594883002295,
negative,red,1,None,None,,,,,,,,,0,9,9,9,,,,,,,,,,,,,,,,,main,None,None,1,1.4990793999750167,211.00772279989906,None,None,1,,,,,,,,,,,,,,104,2023-03-29_13h40.42.361,Main,2022.1.1,59.89594883002295,
positive,yellow,1,None,k,,,,,,,,,0,10,10,10,,,,,,,,,,,,,,,,,main,None,None,1,1.4964044000953436,213.50474769994617,None,None,1,,,,,,,,,,,,,,104,2023-03-29_13h40.42.361,Main,2022.1.1,59.89594883002295,
negative,yellow,1,k,None,,,,,,,,,0,11,11,11,,,,,,,,,,,,,,,,,main,k,k,1,0.6196971999015659,216.00472890003584,None,None,0,,,,,,,,,,,,,,104,2023-03-29_13h40.42.361,Main,2022.1.1,59.89594883002295,
negative,yellow,1,k,None,,,,,,,,,0,12,12,12,,,,,,,,,,,,,,,,,main,k,k,1,0.5790284001268446,217.62422629981302,None,None,0,,,,,,,,,,,,,,104,2023-03-29_13h40.42.361,Main,2022.1.1,59.89594883002295,
negative,red,2,None,None,,,,,,,,,0,13,13,13,,,,,,,,,,,,,,,,,main,None,None,1,1.501561800017953,219.20470190001652,None,None,1,,,,,,,,,,,,,,104,2023-03-29_13h40.42.361,Main,2022.1.1,59.89594883002295,
positive,yellow,2,None,k,,,,,,,,,0,14,14,14,,,,,,,,,,,,,,,,,main,None,None,1,1.4992294998373836,221.70469079981558,None,None,1,,,,,,,,,,,,,,104,2023-03-29_13h40.42.361,Main,2022.1.1,59.89594883002295,
positive,blue,1,k,None,,,,,,,,,0,15,15,15,,,,,,,,,,,,,,,,,main,k,k,1,0.7328134998679161,224.20746419997886,None,None,0,,,,,,,,,,,,,,104,2023-03-29_13h40.42.361,Main,2022.1.1,59.89594883002295,
negative,blue,1,None,k,,,,,,,,,0,16,16,16,,,,,,,,,,,,,,,,,main,None,None,1,1.495791899971664,225.9379382999614,None,None,1,,,,,,,,,,,,,,104,2023-03-29_13h40.42.361,Main,2022.1.1,59.89594883002295,
positive,blue,2,k,None,,,,,,,,,0,17,17,17,,,,,,,,,,,,,,,,,main,k,k,1,0.6360921999439597,228.43759149988182,None,None,0,,,,,,,,,,,,,,104,2023-03-29_13h40.42.361,Main,2022.1.1,59.89594883002295,
negative,blue,2,None,k,,,,,,,,,0,18,18,18,,,,,,,,,,,,,,,,,main,None,None,1,1.4989861999638379,230.07412220002152,None,None,1,,,,,,,,,,,,,,104,2023-03-29_13h40.42.361,Main,2022.1.1,59.89594883002295,
negative,blue,1,None,k,,,,,,,,,0,19,19,19,,,,,,,,,,,,,,,,,main,None,None,1,1.4992205000016838,232.57404470001347,None,None,1,,,,,,,,,,,,,,104,2023-03-29_13h40.42.361,Main,2022.1.1,59.89594883002295,
negative,blue,1,None,k,,,,,,,,,0,20,20,20,,,,,,,,,,,,,,,,,main,None,None,1,1.4990610000677407,235.07406289991923,None,None,1,,,,,,,,,,,,,,104,2023-03-29_13h40.42.361,Main,2022.1.1,59.89594883002295,
negative,blue,2,None,k,,,,,,,,,0,21,21,21,,,,,,,,,,,,,,,,,main,None,None,1,1.499138900078833,237.57380589982495,None,None,1,,,,,,,,,,,,,,104,2023-03-29_13h40.42.361,Main,2022.1.1,59.89594883002295,
negative,red,1,None,None,,,,,,,,,0,22,22,22,,,,,,,,,,,,,,,,,main,None,None,1,1.499246000079438,240.07094369991682,None,None,1,,,,,,,,,,,,,,104,2023-03-29_13h40.42.361,Main,2022.1.1,59.89594883002295,
positive,red,2,None,None,,,,,,,,,0,23,23,23,,,,,,,,,,,,,,,,,main,None,None,1,1.4992068000137806,242.57086510001682,None,None,1,,,,,,,,,,,,,,104,2023-03-29_13h40.42.361,Main,2022.1.1,59.89594883002295,
negative,red,2,None,None,,,,,,,,,0,24,24,24,,,,,,,,,,,,,,,,,main,None,None,1,1.4992267999332398,245.07366879982874,None,None,1,,,,,,,,,,,,,,104,2023-03-29_13h40.42.361,Main,2022.1.1,59.89594883002295,
positive,blue,2,k,None,,,,,,,,,0,25,25,25,,,,,,,,,,,,,,,,,main,k,k,1,0.6626000998076051,247.57374999998137,None,None,0,,,,,,,,,,,,,,104,2023-03-29_13h40.42.361,Main,2022.1.1,59.89594883002295,
negative,yellow,1,k,None,,,,,,,,,0,26,26,26,,,,,,,,,,,,,,,,,main,k,k,1,0.9024569999892265,249.2371086999774,None,None,0,,,,,,,,,,,,,,104,2023-03-29_13h40.42.361,Main,2022.1.1,59.89594883002295,
positive,blue,2,k,None,,,,,,,,,0,27,27,27,,,,,,,,,,,,,,,,,main,k,k,1,0.6631136001087725,251.14043170004152,None,None,0,,,,,,,,,,,,,,104,2023-03-29_13h40.42.361,Main,2022.1.1,59.89594883002295,
negative,blue,2,None,k,,,,,,,,,0,28,28,28,,,,,,,,,,,,,,,,,main,None,None,1,1.5016314000822604,252.80700020003133,None,None,1,,,,,,,,,,,,,,104,2023-03-29_13h40.42.361,Main,2022.1.1,59.89594883002295,
positive,red,1,None,None,,,,,,,,,0,29,29,29,,,,,,,,,,,,,,,,,main,None,None,1,1.4961891998536885,255.30693540000357,None,None,1,,,,,,,,,,,,,,104,2023-03-29_13h40.42.361,Main,2022.1.1,59.89594883002295,
positive,blue,1,k,None,,,,,,,,,0,30,30,30,,,,,,,,,,,,,,,,,main,k,k,1,0.6328360999468714,257.8066216998268,None,None,0,,,,,,,,,,,,,,104,2023-03-29_13h40.42.361,Main,2022.1.1,59.89594883002295,
positive,yellow,1,None,k,,,,,,,,,0,31,31,31,,,,,,,,,,,,,,,,,main,None,None,1,1.501481399871409,259.4372143999208,None,None,1,,,,,,,,,,,,,,104,2023-03-29_13h40.42.361,Main,2022.1.1,59.89594883002295,
negative,yellow,2,k,None,,,,,,,,,0,32,32,32,,,,,,,,,,,,,,,,,main,k,k,1,0.4967157000210136,261.9371342000086,None,None,0,,,,,,,,,,,,,,104,2023-03-29_13h40.42.361,Main,2022.1.1,59.89594883002295,
negative,blue,1,None,k,,,,,,,,,0,33,33,33,,,,,,,,,,,,,,,,,main,None,None,1,1.5014871000312269,263.43711689999327,None,None,1,,,,,,,,,,,,,,104,2023-03-29_13h40.42.361,Main,2022.1.1,59.89594883002295,
positive,blue,1,k,None,,,,,,,,,0,34,34,34,,,,,,,,,,,,,,,,,main,k,k,1,0.6160539998672903,265.94002319988795,None,None,0,,,,,,,,,,,,,,104,2023-03-29_13h40.42.361,Main,2022.1.1,59.89594883002295,
negative,yellow,1,k,None,,,,,,,,,0,35,35,35,,,,,,,,,,,,,,,,,main,k,k,1,0.9460711998399347,267.5565668998752,None,None,0,,,,,,,,,,,,,,104,2023-03-29_13h40.42.361,Main,2022.1.1,59.89594883002295,
positive,yellow,2,None,k,,,,,,,,,0,36,36,36,,,,,,,,,,,,,,,,,main,None,None,1,1.50217380002141,269.50335809984244,None,None,1,,,,,,,,,,,,,,104,2023-03-29_13h40.42.361,Main,2022.1.1,59.89594883002295,
positive,yellow,2,None,k,,,,,,,,,0,37,37,37,,,,,,,,,,,,,,,,,main,None,None,1,1.4992365001235157,272.0066815998871,None,None,1,,,,,,,,,,,,,,104,2023-03-29_13h40.42.361,Main,2022.1.1,59.89594883002295,
negative,yellow,2,k,None,,,,,,,,,0,38,38,38,,,,,,,,,,,,,,,,,main,k,k,1,0.7993477999698371,274.50659659993835,None,None,0,,,,,,,,,,,,,,104,2023-03-29_13h40.42.361,Main,2022.1.1,59.89594883002295,
positive,yellow,1,None,k,,,,,,,,,0,39,39,39,,,,,,,,,,,,,,,,,main,None,None,1,1.495935200015083,276.306448899908,None,None,1,,,,,,,,,,,,,,104,2023-03-29_13h40.42.361,Main,2022.1.1,59.89594883002295,
negative,yellow,2,k,None,,,,,,,,,0,40,40,40,,,,,,,,,,,,,,,,,main,k,k,1,0.5491227000020444,278.8062213000376,None,None,0,,,,,,,,,,,,,,104,2023-03-29_13h40.42.361,Main,2022.1.1,59.89594883002295,
positive,blue,2,k,None,,,,,,,,,0,41,41,41,,,,,,,,,,,,,,,,,main,k,k,1,0.702163300011307,280.3534019999206,None,None,0,,,,,,,,,,,,,,104,2023-03-29_13h40.42.361,Main,2022.1.1,59.89594883002295,
positive,blue,2,k,None,,,,,,,,,0,42,42,42,,,,,,,,,,,,,,,,,main,k,k,1,0.513133900007233,282.0534941998776,None,None,0,,,,,,,,,,,,,,104,2023-03-29_13h40.42.361,Main,2022.1.1,59.89594883002295,
negative,blue,2,None,k,,,,,,,,,0,43,43,43,,,,,,,,,,,,,,,,,main,None,None,1,1.5012240000069141,283.57004019990563,None,None,1,,,,,,,,,,,,,,104,2023-03-29_13h40.42.361,Main,2022.1.1,59.89594883002295,
negative,red,1,None,None,,,,,,,,,0,44,44,44,,,,,,,,,,,,,,,,,main,None,None,1,1.496648299973458,286.06999180000275,None,None,1,,,,,,,,,,,,,,104,2023-03-29_13h40.42.361,Main,2022.1.1,59.89594883002295,
negative,yellow,1,k,None,,,,,,,,,0,45,45,45,,,,,,,,,,,,,,,,,main,k,k,1,0.7186329001560807,288.5727216999512,None,None,0,,,,,,,,,,,,,,104,2023-03-29_13h40.42.361,Main,2022.1.1,59.89594883002295,
negative,yellow,1,k,None,,,,,,,,,0,46,46,46,,,,,,,,,,,,,,,,,main,k,k,1,0.5795112999621779,290.2865949999541,None,None,0,,,,,,,,,,,,,,104,2023-03-29_13h40.42.361,Main,2022.1.1,59.89594883002295,
positive,red,1,None,None,,,,,,,,,0,47,47,47,,,,,,,,,,,,,,,,,main,None,None,1,1.498852499993518,291.8695637998171,None,None,1,,,,,,,,,,,,,,104,2023-03-29_13h40.42.361,Main,2022.1.1,59.89594883002295,
positive,yellow,1,None,k,,,,,,,,,0,48,48,48,,,,,,,,,,,,,,,,,main,None,None,1,1.5022172997705638,294.3695821999572,None,None,1,,,,,,,,,,,,,,104,2023-03-29_13h40.42.361,Main,2022.1.1,59.89594883002295,
negative,blue,1,None,k,,,,,,,,,0,49,49,49,,,,,,,,,,,,,,,,,main,None,None,1,1.4992325999774039,296.8726876999717,None,None,1,,,,,,,,,,,,,,104,2023-03-29_13h40.42.361,Main,2022.1.1,59.89594883002295,
positive,yellow,2,None,k,,,,,,,,,0,50,50,50,,,,,,,,,,,,,,,,,main,None,None,1,1.495998099911958,299.37258309987374,None,None,1,,,,,,,,,,,,,,104,2023-03-29_13h40.42.361,Main,2022.1.1,59.89594883002295,
negative,blue,1,None,k,,,,,,,,,0,51,51,51,,,,,,,,,,,,,,,,,main,None,None,1,1.502446400001645,301.86935469997115,None,None,1,,,,,,,,,,,,,,104,2023-03-29_13h40.42.361,Main,2022.1.1,59.89594883002295,
positive,red,2,None,None,,,,,,,,,0,52,52,52,,,,,,,,,,,,,,,,,main,None,None,1,1.4989629001356661,304.3726116998587,None,None,1,,,,,,,,,,,,,,104,2023-03-29_13h40.42.361,Main,2022.1.1,59.89594883002295,
positive,yellow,2,None,k,,,,,,,,,0,53,53,53,,,,,,,,,,,,,,,,,main,None,None,1,1.4992883000522852,306.87239389983006,None,None,1,,,,,,,,,,,,,,104,2023-03-29_13h40.42.361,Main,2022.1.1,59.89594883002295,
negative,red,2,None,None,,,,,,,,,0,54,54,54,,,,,,,,,,,,,,,,,main,None,None,1,1.4960992999840528,309.37249429989606,None,None,1,,,,,,,,,,,,,,104,2023-03-29_13h40.42.361,Main,2022.1.1,59.89594883002295,
positive,yellow,1,None,k,,,,,,,,,0,55,55,55,,,,,,,,,,,,,,,,,main,None,None,1,1.5019702999852598,311.86943279998377,None,None,1,,,,,,,,,,,,,,104,2023-03-29_13h40.42.361,Main,2022.1.1,59.89594883002295,
negative,blue,2,None,k,,,,,,,,,0,56,56,56,,,,,,,,,,,,,,,,,main,None,None,1,1.4965240999590605,314.3722447999753,None,None,1,,,,,,,,,,,,,,104,2023-03-29_13h40.42.361,Main,2022.1.1,59.89594883002295,
positive,blue,1,k,None,,,,,,,,,0,57,57,57,,,,,,,,,,,,,,,,,main,k,k,1,0.6519553998950869,316.86934009986,None,None,0,,,,,,,,,,,,,,104,2023-03-29_13h40.42.361,Main,2022.1.1,59.89594883002295,
positive,blue,1,k,None,,,,,,,,,0,58,58,58,,,,,,,,,,,,,,,,,main,k,k,1,0.516039100009948,318.5221921999473,None,None,0,,,,,,,,,,,,,,104,2023-03-29_13h40.42.361,Main,2022.1.1,59.89594883002295,
negative,yellow,2,k,None,,,,,,,,,0,59,59,59,,,,,,,,,,,,,,,,,main,k,k,1,0.8324466000776738,320.0389651998412,None,None,0,,,,,,,,,,,,,,104,2023-03-29_13h40.42.361,Main,2022.1.1,59.89594883002295,
positive,red,2,None,None,,,,,,,,,0,60,60,60,,,,,,,,,,,,,,,,,main,None,None,1,1.4958676001988351,321.8721679998562,None,None,1,,,,,,,,,,,,,,104,2023-03-29_13h40.42.361,Main,2022.1.1,59.89594883002295,
negative,yellow,1,k,None,,,,,,,,,0,61,61,61,,,,,,,,,,,,,,,,,main,k,k,1,0.6663987000938505,324.3689382998273,None,None,0,,,,,,,,,,,,,,104,2023-03-29_13h40.42.361,Main,2022.1.1,59.89594883002295,
negative,red,1,None,None,,,,,,,,,0,62,62,62,,,,,,,,,,,,,,,,,main,None,None,1,1.5019255001097918,326.0356246998999,None,None,1,,,,,,,,,,,,,,104,2023-03-29_13h40.42.361,Main,2022.1.1,59.89594883002295,
negative,blue,1,None,k,,,,,,,,,0,63,63,63,,,,,,,,,,,,,,,,,main,None,None,1,1.4992659999988973,328.53877620003186,None,None,1,,,,,,,,,,,,,,104,2023-03-29_13h40.42.361,Main,2022.1.1,59.89594883002295,
positive,blue,2,k,None,,,,,,,,,0,64,64,64,,,,,,,,,,,,,,,,,main,k,k,1,0.6655525998212397,331.0386824000161,None,None,0,,,,,,,,,,,,,,104,2023-03-29_13h40.42.361,Main,2022.1.1,59.89594883002295,
negative,yellow,2,k,None,,,,,,,,,0,65,65,65,,,,,,,,,,,,,,,,,main,k,k,1,0.615862499922514,332.7022912998218,None,None,0,,,,,,,,,,,,,,104,2023-03-29_13h40.42.361,Main,2022.1.1,59.89594883002295,
positive,yellow,2,None,k,,,,,,,,,0,66,66,66,,,,,,,,,,,,,,,,,main,None,None,1,1.499076999956742,334.3217439998407,None,None,1,,,,,,,,,,,,,,104,2023-03-29_13h40.42.361,Main,2022.1.1,59.89594883002295,
positive,yellow,2,None,k,,,,,,,,,0,67,67,67,,,,,,,,,,,,,,,,,main,None,None,1,1.4991969999391586,336.8189507999923,None,None,1,,,,,,,,,,,,,,104,2023-03-29_13h40.42.361,Main,2022.1.1,59.89594883002295,
positive,red,1,None,None,,,,,,,,,0,68,68,68,,,,,,,,,,,,,,,,,main,None,None,1,1.4964972999878228,339.31890179985203,None,None,1,,,,,,,,,,,,,,104,2023-03-29_13h40.42.361,Main,2022.1.1,59.89594883002295,
positive,yellow,1,None,k,,,,,,,,,0,69,69,69,,,,,,,,,,,,,,,,,main,None,None,1,1.501836400013417,341.8216658998281,None,None,1,,,,,,,,,,,,,,104,2023-03-29_13h40.42.361,Main,2022.1.1,59.89594883002295,
negative,yellow,2,k,None,,,,,,,,,0,70,70,70,,,,,,,,,,,,,,,,,main,k,k,1,0.6792559998575598,344.3188187999185,None,None,0,,,,,,,,,,,,,,104,2023-03-29_13h40.42.361,Main,2022.1.1,59.89594883002295,
positive,yellow,1,None,k,,,,,,,,,0,71,71,71,,,,,,,,,,,,,,,,,main,None,None,1,1.5022772001102567,346.0018044000026,None,None,1,,,,,,,,,,,,,,104,2023-03-29_13h40.42.361,Main,2022.1.1,59.89594883002295,
negative,blue,1,None,k,,,,,,,,,0,72,72,72,,,,,,,,,,,,,,,,,main,None,None,1,1.4992003000807017,348.5049687998835,None,None,1,,,,,,,,,,,,,,104,2023-03-29_13h40.42.361,Main,2022.1.1,59.89594883002295,
negative,red,2,None,None,,,,,,,,,0,73,73,73,,,,,,,,,,,,,,,,,main,None,None,1,1.4990530998911709,351.00495549989864,None,None,1,,,,,,,,,,,,,,104,2023-03-29_13h40.42.361,Main,2022.1.1,59.89594883002295,
positive,blue,2,k,None,,,,,,,,,0,74,74,74,,,,,,,,,,,,,,,,,main,k,k,1,0.7132366001605988,353.5048595999833,None,None,0,,,,,,,,,,,,,,104,2023-03-29_13h40.42.361,Main,2022.1.1,59.89594883002295,
negative,blue,2,None,k,,,,,,,,,0,75,75,75,,,,,,,,,,,,,,,,,main,None,None,1,1.5017909000162035,355.2185139998328,None,None,1,,,,,,,,,,,,,,104,2023-03-29_13h40.42.361,Main,2022.1.1,59.89594883002295,
negative,blue,2,None,k,,,,,,,,,0,76,76,76,,,,,,,,,,,,,,,,,main,None,None,1,1.4965586001053452,357.7184695999604,None,None,1,,,,,,,,,,,,,,104,2023-03-29_13h40.42.361,Main,2022.1.1,59.89594883002295,
negative,yellow,1,k,None,,,,,,,,,0,77,77,77,,,,,,,,,,,,,,,,,main,k,k,1,0.7686984001193196,360.2213637998793,None,None,0,,,,,,,,,,,,,,104,2023-03-29_13h40.42.361,Main,2022.1.1,59.89594883002295,
positive,blue,1,k,None,,,,,,,,,0,78,78,78,,,,,,,,,,,,,,,,,main,k,k,1,0.8825332999695092,361.985089099966,None,None,0,,,,,,,,,,,,,,104,2023-03-29_13h40.42.361,Main,2022.1.1,59.89594883002295,
positive,blue,1,k,None,,,,,,,,,0,79,79,79,,,,,,,,,,,,,,,,,main,k,k,1,0.6492405000608414,363.8683835999109,None,None,0,,,,,,,,,,,,,,104,2023-03-29_13h40.42.361,Main,2022.1.1,59.89594883002295,
positive,red,2,None,None,,,,,,,,,0,80,80,80,,,,,,,,,,,,,,,,,main,None,None,1,1.4957532999105752,365.51852309983224,None,None,1,,,,,,,,,,,,,,104,2023-03-29_13h40.42.361,Main,2022.1.1,59.89594883002295,
positive,yellow,2,None,k,,,,,,,,,0,81,81,81,,,,,,,,,,,,,,,,,main,None,None,1,1.5024149001110345,368.01799299987033,None,None,1,,,,,,,,,,,,,,104,2023-03-29_13h40.42.361,Main,2022.1.1,59.89594883002295,
positive,blue,1,k,None,,,,,,,,,0,82,82,82,,,,,,,,,,,,,,,,,main,k,k,1,0.6162041998468339,370.5213045999408,None,None,0,,,,,,,,,,,,,,104,2023-03-29_13h40.42.361,Main,2022.1.1,59.89594883002295,
negative,yellow,2,k,None,,,,,,,,,0,83,83,83,,,,,,,,,,,,,,,,,main,k,k,1,0.5657899999059737,372.1378681999631,None,None,0,,,,,,,,,,,,,,104,2023-03-29_13h40.42.361,Main,2022.1.1,59.89594883002295,
positive,blue,2,k,None,,,,,,,,,0,84,84,84,,,,,,,,,,,,,,,,,main,k,k,1,0.61579760001041,373.70448859990574,None,None,0,,,,,,,,,,,,,,104,2023-03-29_13h40.42.361,Main,2022.1.1,59.89594883002295,
positive,yellow,1,None,k,,,,,,,,,0,85,85,85,,,,,,,,,,,,,,,,,main,None,k,0,0.5962910000234842,375.32108199992217,None,None,1,,,,,,,,,,,,,,104,2023-03-29_13h40.42.361,Main,2022.1.1,59.89594883002295,
positive,blue,2,k,None,,,,,,,,,0,86,86,86,,,,,,,,,,,,,,,,,main,k,k,1,0.7878203999716789,377.9181075999513,None,None,0,,,,,,,,,,,,,,104,2023-03-29_13h40.42.361,Main,2022.1.1,59.89594883002295,
positive,blue,1,k,None,,,,,,,,,0,87,87,87,,,,,,,,,,,,,,,,,main,k,k,1,0.6461578998714685,379.70115799992345,None,None,0,,,,,,,,,,,,,,104,2023-03-29_13h40.42.361,Main,2022.1.1,59.89594883002295,
negative,yellow,2,k,None,,,,,,,,,0,88,88,88,,,,,,,,,,,,,,,,,main,k,k,1,0.6353186001069844,381.35155949997716,None,None,0,,,,,,,,,,,,,,104,2023-03-29_13h40.42.361,Main,2022.1.1,59.89594883002295,
negative,blue,2,None,k,,,,,,,,,0,89,89,89,,,,,,,,,,,,,,,,,main,None,k,0,0.5797025999054313,382.9875890999101,None,None,1,,,,,,,,,,,,,,104,2023-03-29_13h40.42.361,Main,2022.1.1,59.89594883002295,
positive,yellow,2,None,k,,,,,,,,,0,90,90,90,,,,,,,,,,,,,,,,,main,None,None,1,1.5013681999407709,385.57079639984295,None,None,1,,,,,,,,,,,,,,104,2023-03-29_13h40.42.361,Main,2022.1.1,59.89594883002295,
negative,yellow,1,k,None,,,,,,,,,0,91,91,91,,,,,,,,,,,,,,,,,main,k,k,1,0.6820177000481635,388.06759130000137,None,None,0,,,,,,,,,,,,,,104,2023-03-29_13h40.42.361,Main,2022.1.1,59.89594883002295,
negative,red,2,None,None,,,,,,,,,0,92,92,92,,,,,,,,,,,,,,,,,main,None,None,1,1.5016711000353098,389.75420570001006,None,None,1,,,,,,,,,,,,,,104,2023-03-29_13h40.42.361,Main,2022.1.1,59.89594883002295,
negative,blue,2,None,k,,,,,,,,,0,93,93,93,,,,,,,,,,,,,,,,,main,None,None,1,1.499185899971053,392.25401109992526,None,None,1,,,,,,,,,,,,,,104,2023-03-29_13h40.42.361,Main,2022.1.1,59.89594883002295,
negative,blue,1,None,k,,,,,,,,,0,94,94,94,,,,,,,,,,,,,,,,,main,None,None,1,1.4991972998250276,394.7511378999334,None,None,1,,,,,,,,,,,,,,104,2023-03-29_13h40.42.361,Main,2022.1.1,59.89594883002295,
negative,blue,1,None,k,,,,,,,,,0,95,95,95,,,,,,,,,,,,,,,,,main,None,None,1,1.4989858998451382,397.2510161998216,None,None,1,,,,,,,,,,,,,,104,2023-03-29_13h40.42.361,Main,2022.1.1,59.89594883002295,
negative,red,1,None,None,,,,,,,,,0,96,96,96,,,,,,,,,,,,,,,,,main,None,None,1,1.4991272001061589,399.75372839998454,None,None,1,,,,,,,,,,,,,,104,2023-03-29_13h40.42.361,Main,2022.1.1,59.89594883002295,
positive,yellow,1,None,k,,,,,,,,,0,97,97,97,,,,,,,,,,,,,,,,,main,None,None,1,1.4992901999503374,402.2537535999436,None,None,1,,,,,,,,,,,,,,104,2023-03-29_13h40.42.361,Main,2022.1.1,59.89594883002295,
negative,yellow,1,k,None,,,,,,,,,0,98,98,98,,,,,,,,,,,,,,,,,main,k,k,1,1.2300197998993099,404.7509047000203,None,None,0,,,,,,,,,,,,,,104,2023-03-29_13h40.42.361,Main,2022.1.1,59.89594883002295,
positive,red,1,None,None,,,,,,,,,0,99,99,99,,,,,,,,,,,,,,,,,main,None,None,1,1.4989179000258446,406.9841679998208,None,None,1,,,,,,,,,,,,,,104,2023-03-29_13h40.42.361,Main,2022.1.1,59.89594883002295,
positive,blue,1,k,None,,,,,,,,,0,100,100,100,,,,,,,,,,,,,,,,,main,k,k,1,1.1823575999587774,409.48694900004193,None,None,0,,,,,,,,,,,,,,104,2023-03-29_13h40.42.361,Main,2022.1.1,59.89594883002295,
negative,yellow,1,k,None,,,,,,,,,0,101,101,101,,,,,,,,,,,,,,,,,main,k,k,1,0.6660136999562383,411.66711249994114,None,None,0,,,,,,,,,,,,,,104,2023-03-29_13h40.42.361,Main,2022.1.1,59.89594883002295,
negative,blue,2,None,k,,,,,,,,,0,102,102,102,,,,,,,,,,,,,,,,,main,None,None,1,1.5021927000489086,413.3337961998768,None,None,1,,,,,,,,,,,,,,104,2023-03-29_13h40.42.361,Main,2022.1.1,59.89594883002295,
negative,yellow,2,k,None,,,,,,,,,0,103,103,103,,,,,,,,,,,,,,,,,main,k,k,1,0.7297608000226319,415.83695879997686,None,None,0,,,,,,,,,,,,,,104,2023-03-29_13h40.42.361,Main,2022.1.1,59.89594883002295,
positive,yellow,2,None,k,,,,,,,,,0,104,104,104,,,,,,,,,,,,,,,,,main,None,None,1,1.505824799882248,417.5701662998181,None,None,1,,,,,,,,,,,,,,104,2023-03-29_13h40.42.361,Main,2022.1.1,59.89594883002295,
positive,blue,1,k,None,,,,,,,,,0,105,105,105,,,,,,,,,,,,,,,,,main,k,k,1,0.8256135999690741,420.07223359984346,None,None,0,,,,,,,,,,,,,,104,2023-03-29_13h40.42.361,Main,2022.1.1,59.89594883002295,
positive,blue,2,k,None,,,,,,,,,0,106,106,106,,,,,,,,,,,,,,,,,main,k,k,1,0.7326162999961525,421.9004676998593,None,None,0,,,,,,,,,,,,,,104,2023-03-29_13h40.42.361,Main,2022.1.1,59.89594883002295,
negative,blue,1,None,k,,,,,,,,,0,107,107,107,,,,,,,,,,,,,,,,,main,None,None,1,1.4990576000418514,423.6339384999592,None,None,1,,,,,,,,,,,,,,104,2023-03-29_13h40.42.361,Main,2022.1.1,59.89594883002295,
positive,yellow,2,None,k,,,,,,,,,0,108,108,108,,,,,,,,,,,,,,,,,main,None,None,1,1.5019227000884712,426.1337567998562,None,None,1,,,,,,,,,,,,,,104,2023-03-29_13h40.42.361,Main,2022.1.1,59.89594883002295,
negative,yellow,1,k,None,,,,,,,,,0,109,109,109,,,,,,,,,,,,,,,,,main,k,k,1,0.44640749995596707,428.63374019996263,None,None,0,,,,,,,,,,,,,,104,2023-03-29_13h40.42.361,Main,2022.1.1,59.89594883002295,
negative,blue,2,None,k,,,,,,,,,0,110,110,110,,,,,,,,,,,,,,,,,main,None,k,0,1.5019330000504851,430.0865229999181,None,None,1,,,,,,,,,,,,,,104,2023-03-29_13h40.42.361,Main,2022.1.1,59.89594883002295,
positive,blue,2,k,None,,,,,,,,,0,111,111,111,,,,,,,,,,,,,,,,,main,k,k,1,0.7346834000200033,433.59998339996673,None,None,0,,,,,,,,,,,,,,104,2023-03-29_13h40.42.361,Main,2022.1.1,59.89594883002295,
negative,blue,1,None,k,,,,,,,,,0,112,112,112,,,,,,,,,,,,,,,,,main,None,None,1,1.5020292999688536,435.3333129999228,None,None,1,,,,,,,,,,,,,,104,2023-03-29_13h40.42.361,Main,2022.1.1,59.89594883002295,
positive,yellow,1,None,k,,,,,,,,,0,113,113,113,,,,,,,,,,,,,,,,,main,None,None,1,1.4989700999576598,437.8364804999437,None,None,1,,,,,,,,,,,,,,104,2023-03-29_13h40.42.361,Main,2022.1.1,59.89594883002295,
negative,red,1,None,None,,,,,,,,,0,114,114,114,,,,,,,,,,,,,,,,,main,None,None,1,1.4991953000426292,440.3364330998156,None,None,1,,,,,,,,,,,,,,104,2023-03-29_13h40.42.361,Main,2022.1.1,59.89594883002295,
positive,red,1,None,None,,,,,,,,,0,115,115,115,,,,,,,,,,,,,,,,,main,None,None,1,1.498949799919501,442.836314199958,None,None,1,,,,,,,,,,,,,,104,2023-03-29_13h40.42.361,Main,2022.1.1,59.89594883002295,
negative,red,2,None,None,,,,,,,,,0,116,116,116,,,,,,,,,,,,,,,,,main,None,None,1,1.4993474998045713,445.3361506999936,None,None,1,,,,,,,,,,,,,,104,2023-03-29_13h40.42.361,Main,2022.1.1,59.89594883002295,
negative,yellow,2,k,None,,,,,,,,,0,117,117,117,,,,,,,,,,,,,,,,,main,k,k,1,0.7826928000431508,447.8333087998908,None,None,0,,,,,,,,,,,,,,104,2023-03-29_13h40.42.361,Main,2022.1.1,59.89594883002295,
positive,yellow,1,None,k,,,,,,,,,0,118,118,118,,,,,,,,,,,,,,,,,main,None,None,1,1.49893690017052,449.6166151999496,None,None,1,,,,,,,,,,,,,,104,2023-03-29_13h40.42.361,Main,2022.1.1,59.89594883002295,
positive,red,2,None,None,,,,,,,,,0,119,119,119,,,,,,,,,,,,,,,,,main,None,None,1,1.4965033000335097,452.1194302998483,None,None,1,,,,,,,,,,,,,,104,2023-03-29_13h40.42.361,Main,2022.1.1,59.89594883002295,
positive,blue,2,k,None,,,,,,,,,0,120,120,120,,,,,,,,,,,,,,,,,main,k,k,1,0.6656512999907136,454.6193995999638,None,None,0,,,,,,,,,,,,,,104,2023-03-29_13h40.42.361,Main,2022.1.1,59.89594883002295,
negative,red,1,None,None,,,,,,,,,0,121,121,121,,,,,,,,,,,,,,,,,main,None,None,1,1.5022380999289453,456.28284569992684,None,None,1,,,,,,,,,,,,,,104,2023-03-29_13h40.42.361,Main,2022.1.1,59.89594883002295,
positive,yellow,2,None,k,,,,,,,,,0,122,122,122,,,,,,,,,,,,,,,,,main,None,None,1,1.4991238999646157,458.7860285998322,None,None,1,,,,,,,,,,,,,,104,2023-03-29_13h40.42.361,Main,2022.1.1,59.89594883002295,
negative,red,2,None,None,,,,,,,,,0,123,123,123,,,,,,,,,,,,,,,,,main,None,None,1,1.499271099921316,461.2859993998427,None,None,1,,,,,,,,,,,,,,104,2023-03-29_13h40.42.361,Main,2022.1.1,59.89594883002295,
negative,yellow,2,k,None,,,,,,,,,0,124,124,124,,,,,,,,,,,,,,,,,main,k,k,1,0.7656870000064373,463.78305189986713,None,None,0,,,,,,,,,,,,,,104,2023-03-29_13h40.42.361,Main,2022.1.1,59.89594883002295,
positive,red,1,None,None,,,,,,,,,0,125,125,125,,,,,,,,,,,,,,,,,main,None,None,1,1.4961770998779684,465.5495886998251,None,None,1,,,,,,,,,,,,,,104,2023-03-29_13h40.42.361,Main,2022.1.1,59.89594883002295,
negative,blue,2,None,k,,,,,,,,,0,126,126,126,,,,,,,,,,,,,,,,,main,None,None,1,1.5020002000965178,468.0524612998124,None,None,1,,,,,,,,,,,,,,104,2023-03-29_13h40.42.361,Main,2022.1.1,59.89594883002295,
negative,blue,1,None,k,,,,,,,,,0,127,127,127,,,,,,,,,,,,,,,,,main,None,None,1,1.4993215000722557,470.5493661998771,None,None,1,,,,,,,,,,,,,,104,2023-03-29_13h40.42.361,Main,2022.1.1,59.89594883002295,
negative,yellow,1,k,None,,,,,,,,,0,128,128,128,,,,,,,,,,,,,,,,,main,k,k,1,0.8159429000224918,473.0494794999249,None,None,0,,,,,,,,,,,,,,104,2023-03-29_13h40.42.361,Main,2022.1.1,59.89594883002295,
negative,yellow,1,k,None,,,,,,,,,0,129,129,129,,,,,,,,,,,,,,,,,main,k,k,1,0.6797565999440849,474.86900359997526,None,None,0,,,,,,,,,,,,,,104,2023-03-29_13h40.42.361,Main,2022.1.1,59.89594883002295,
positive,blue,1,k,None,,,,,,,,,0,130,130,130,,,,,,,,,,,,,,,,,main,k,k,1,0.6716780001297593,476.5522517999634,None,None,0,,,,,,,,,,,,,,104,2023-03-29_13h40.42.361,Main,2022.1.1,59.89594883002295,
negative,blue,1,None,k,,,,,,,,,0,131,131,131,,,,,,,,,,,,,,,,,main,None,None,1,1.494977799942717,478.2182779000141,None,None,1,,,,,,,,,,,,,,104,2023-03-29_13h40.42.361,Main,2022.1.1,59.89594883002295,
negative,blue,2,None,k,,,,,,,,,0,132,132,132,,,,,,,,,,,,,,,,,main,None,None,1,1.4983548999298364,480.7189376000315,None,None,1,,,,,,,,,,,,,,104,2023-03-29_13h40.42.361,Main,2022.1.1,59.89594883002295,
positive,blue,2,k,None,,,,,,,,,0,133,133,133,,,,,,,,,,,,,,,,,main,k,k,1,0.6791499000974,483.21888719988056,None,None,0,,,,,,,,,,,,,,104,2023-03-29_13h40.42.361,Main,2022.1.1,59.89594883002295,
positive,red,2,None,None,,,,,,,,,0,134,134,134,,,,,,,,,,,,,,,,,main,None,None,1,1.5018058998975903,484.89927719999105,None,None,1,,,,,,,,,,,,,,104,2023-03-29_13h40.42.361,Main,2022.1.1,59.89594883002295,
negative,yellow,2,k,None,,,,,,,,,0,135,135,135,,,,,,,,,,,,,,,,,main,k,k,1,0.7826205000746995,487.39910279982723,None,None,0,,,,,,,,,,,,,,104,2023-03-29_13h40.42.361,Main,2022.1.1,59.89594883002295,
positive,yellow,2,None,k,,,,,,,,,0,136,136,136,,,,,,,,,,,,,,,,,main,None,None,1,1.4990999000146985,489.1852197998669,None,None,1,,,,,,,,,,,,,,104,2023-03-29_13h40.42.361,Main,2022.1.1,59.89594883002295,
positive,blue,1,k,None,,,,,,,,,0,137,137,137,,,,,,,,,,,,,,,,,main,k,k,1,0.6992013000417501,491.68527689995244,None,None,0,,,,,,,,,,,,,,104,2023-03-29_13h40.42.361,Main,2022.1.1,59.89594883002295,
positive,yellow,1,None,k,,,,,,,,,0,138,138,138,,,,,,,,,,,,,,,,,main,None,None,1,1.4990401999093592,493.38522859988734,None,None,1,,,,,,,,,,,,,,104,2023-03-29_13h40.42.361,Main,2022.1.1,59.89594883002295,
positive,yellow,1,None,k,,,,,,,,,0,139,139,139,,,,,,,,,,,,,,,,,main,None,None,1,1.4992597999516875,495.88520639995113,None,None,1,,,,,,,,,,,,,,104,2023-03-29_13h40.42.361,Main,2022.1.1,59.89594883002295,
positive,yellow,1,None,k,,,,,,,,,0,140,140,140,,,,,,,,,,,,,,,,,main,None,None,1,1.4959482001140714,498.38522359984927,None,None,1,,,,,,,,,,,,,,104,2023-03-29_13h40.42.361,Main,2022.1.1,59.89594883002295,
positive,blue,1,k,None,,,,,,,,,0,141,141,141,,,,,,,,,,,,,,,,,main,k,k,1,0.7026659999974072,500.88194819982164,None,None,0,,,,,,,,,,,,,,104,2023-03-29_13h40.42.361,Main,2022.1.1,59.89594883002295,
positive,blue,2,k,None,,,,,,,,,0,142,142,142,,,,,,,,,,,,,,,,,main,k,k,1,0.9326063001062721,502.5851910999045,None,None,0,,,,,,,,,,,,,,104,2023-03-29_13h40.42.361,Main,2022.1.1,59.89594883002295,
positive,yellow,2,None,k,,,,,,,,,0,143,143,143,,,,,,,,,,,,,,,,,main,None,None,1,1.4986652000807226,504.51849309983663,None,None,1,,,,,,,,,,,,,,104,2023-03-29_13h40.42.361,Main,2022.1.1,59.89594883002295,
negative,yellow,2,k,None,,,,,,,,,0,144,144,144,,,,,,,,,,,,,,,,,main,k,k,1,0.6798743000254035,507.01837529987097,None,None,0,,,,,,,,,,,,,,104,2023-03-29_13h40.42.361,Main,2022.1.1,59.89594883002295,
negative,blue,2,None,k,,,,,,,,,0,145,145,145,,,,,,,,,,,,,,,,,main,None,None,1,1.4986828998662531,508.69879999989644,None,None,1,,,,,,,,,,,,,,104,2023-03-29_13h40.42.361,Main,2022.1.1,59.89594883002295,
negative,red,1,None,None,,,,,,,,,0,146,146,146,,,,,,,,,,,,,,,,,main,None,None,1,1.502296700142324,511.19845020002685,None,None,1,,,,,,,,,,,,,,104,2023-03-29_13h40.42.361,Main,2022.1.1,59.89594883002295,
positive,blue,1,k,None,,,,,,,,,0,147,147,147,,,,,,,,,,,,,,,,,main,k,k,1,0.6162789000663906,513.7015120999422,None,None,0,,,,,,,,,,,,,,104,2023-03-29_13h40.42.361,Main,2022.1.1,59.89594883002295,
positive,yellow,1,None,k,,,,,,,,,0,148,148,148,,,,,,,,,,,,,,,,,main,None,None,1,1.498862899839878,515.3182748998515,None,None,1,,,,,,,,,,,,,,104,2023-03-29_13h40.42.361,Main,2022.1.1,59.89594883002295,
negative,red,2,None,None,,,,,,,,,0,149,149,149,,,,,,,,,,,,,,,,,main,None,None,1,1.496294700074941,517.8180858998094,None,None,1,,,,,,,,,,,,,,104,2023-03-29_13h40.42.361,Main,2022.1.1,59.89594883002295,
negative,blue,1,None,k,,,,,,,,,0,150,150,150,,,,,,,,,,,,,,,,,main,None,None,1,1.5019652999471873,520.3151630000211,None,None,1,,,,,,,,,,,,,,104,2023-03-29_13h40.42.361,Main,2022.1.1,59.89594883002295,
negative,yellow,2,k,None,,,,,,,,,0,151,151,151,,,,,,,,,,,,,,,,,main,k,k,1,1.6329255998134613,522.815086199902,None,None,0,,,,,,,,,,,,,,104,2023-03-29_13h40.42.361,Main,2022.1.1,59.89594883002295,
negative,blue,2,None,k,,,,,,,,,0,152,152,152,,,,,,,,,,,,,,,,,main,None,None,1,1.502040599938482,526.4511804999784,None,None,1,,,,,,,,,,,,,,104,2023-03-29_13h40.42.361,Main,2022.1.1,59.89594883002295,
negative,yellow,1,k,None,,,,,,,,,0,153,153,153,,,,,,,,,,,,,,,,,main,k,k,1,1.15182189992629,528.9512280998752,None,None,0,,,,,,,,,,,,,,104,2023-03-29_13h40.42.361,Main,2022.1.1,59.89594883002295,
negative,blue,1,None,k,,,,,,,,,0,154,154,154,,,,,,,,,,,,,,,,,main,None,None,1,1.4950988998170942,531.1100800000131,None,None,1,,,,,,,,,,,,,,104,2023-03-29_13h40.42.361,Main,2022.1.1,59.89594883002295,
positive,yellow,2,None,k,,,,,,,,,0,155,155,155,,,,,,,,,,,,,,,,,main,None,None,1,1.499418699881062,533.6010763000231,None,None,1,,,,,,,,,,,,,,104,2023-03-29_13h40.42.361,Main,2022.1.1,59.89594883002295,
positive,red,2,None,None,,,,,,,,,0,156,156,156,,,,,,,,,,,,,,,,,main,None,None,1,1.4988863999024034,536.1010080999695,None,None,1,,,,,,,,,,,,,,104,2023-03-29_13h40.42.361,Main,2022.1.1,59.89594883002295,
positive,red,1,None,None,,,,,,,,,0,157,157,157,,,,,,,,,,,,,,,,,main,None,None,1,1.4962568001355976,538.6010348999407,None,None,1,,,,,,,,,,,,,,104,2023-03-29_13h40.42.361,Main,2022.1.1,59.89594883002295,
positive,blue,2,k,None,,,,,,,,,0,158,158,158,,,,,,,,,,,,,,,,,main,k,k,1,1.0523040001280606,541.0979827998672,None,None,0,,,,,,,,,,,,,,104,2023-03-29_13h40.42.361,Main,2022.1.1,59.89594883002295,
negative,yellow,1,k,None,,,,,,,,,0,159,159,159,,,,,,,,,,,,,,,,,main,k,k,1,0.8296433000359684,543.1479868998285,None,None,0,,,,,,,,,,,,,,104,2023-03-29_13h40.42.361,Main,2022.1.1,59.89594883002295,
negative,red,2,None,None,,,,,,,,,0,160,160,160,,,,,,,,,,,,,,,,,main,None,None,1,1.5018798001110554,544.9813457999844,None,None,1,,,,,,,,,,,,,,104,2023-03-29_13h40.42.361,Main,2022.1.1,59.89594883002295,
negative,blue,1,None,k,,,,,,,,,0,161,161,161,,,,,,,,,,,,,,,,,main,None,None,1,1.4990872999187559,547.4812838998623,None,None,1,,,,,,,,,,,,,,104,2023-03-29_13h40.42.361,Main,2022.1.1,59.89594883002295,
negative,blue,1,None,k,,,,,,,,,0,162,162,162,,,,,,,,,,,,,,,,,main,None,None,1,1.4994042001198977,549.9841336000245,None,None,1,,,,,,,,,,,,,,104,2023-03-29_13h40.42.361,Main,2022.1.1,59.89594883002295,
negative,yellow,1,k,None,,,,,,,,,0,163,163,163,,,,,,,,,,,,,,,,,main,k,k,1,0.77949079987593,552.4840508999769,None,None,0,,,,,,,,,,,,,,104,2023-03-29_13h40.42.361,Main,2022.1.1,59.89594883002295,
negative,yellow,1,k,None,,,,,,,,,0,164,164,164,,,,,,,,,,,,,,,,,main,k,k,1,0.6825520000420511,554.2641612000298,None,None,0,,,,,,,,,,,,,,104,2023-03-29_13h40.42.361,Main,2022.1.1,59.89594883002295,
positive,yellow,1,None,k,,,,,,,,,0,165,165,165,,,,,,,,,,,,,,,,,main,None,None,1,1.5033613999839872,555.9475298998877,None,None,1,,,,,,,,,,,,,,104,2023-03-29_13h40.42.361,Main,2022.1.1,59.89594883002295,
negative,red,1,None,None,,,,,,,,,0,166,166,166,,,,,,,,,,,,,,,,,main,None,None,1,1.4949577001389116,558.4507032998372,None,None,1,,,,,,,,,,,,,,104,2023-03-29_13h40.42.361,Main,2022.1.1,59.89594883002295,
negative,yellow,2,k,None,,,,,,,,,0,167,167,167,,,,,,,,,,,,,,,,,main,k,k,1,0.7596430999692529,560.9507158999331,None,None,0,,,,,,,,,,,,,,104,2023-03-29_13h40.42.361,Main,2022.1.1,59.89594883002295,
positive,blue,2,k,None,,,,,,,,,0,168,168,168,,,,,,,,,,,,,,,,,main,k,k,1,0.6715656998567283,562.7134251999669,None,None,0,,,,,,,,,,,,,,104,2023-03-29_13h40.42.361,Main,2022.1.1,59.89594883002295,
positive,red,2,None,None,,,,,,,,,0,169,169,169,,,,,,,,,,,,,,,,,main,None,None,1,1.502250700024888,564.3806060999632,None,None,1,,,,,,,,,,,,,,104,2023-03-29_13h40.42.361,Main,2022.1.1,59.89594883002295,
positive,red,1,None,None,,,,,,,,,0,170,170,170,,,,,,,,,,,,,,,,,main,None,None,1,1.4992273000534624,566.8837965000421,None,None,1,,,,,,,,,,,,,,104,2023-03-29_13h40.42.361,Main,2022.1.1,59.89594883002295,
negative,blue,2,None,k,,,,,,,,,0,171,171,171,,,,,,,,,,,,,,,,,main,None,None,1,1.4988461001776159,569.383795300033,None,None,1,,,,,,,,,,,,,,104,2023-03-29_13h40.42.361,Main,2022.1.1,59.89594883002295,
positive,blue,2,k,None,,,,,,,,,0,172,172,172,,,,,,,,,,,,,,,,,main,k,k,1,0.5967910999897867,571.8807069999166,None,None,0,,,,,,,,,,,,,,104,2023-03-29_13h40.42.361,Main,2022.1.1,59.89594883002295,
negative,yellow,2,k,None,,,,,,,,,0,173,173,173,,,,,,,,,,,,,,,,,main,k,k,1,0.7019956998992711,573.4834818998352,None,None,0,,,,,,,,,,,,,,104,2023-03-29_13h40.42.361,Main,2022.1.1,59.89594883002295,
positive,yellow,2,None,k,,,,,,,,,0,174,174,174,,,,,,,,,,,,,,,,,main,None,None,1,1.499042100040242,575.1806734998245,None,None,1,,,,,,,,,,,,,,104,2023-03-29_13h40.42.361,Main,2022.1.1,59.89594883002295,
negative,blue,2,None,k,,,,,,,,,0,175,175,175,,,,,,,,,,,,,,,,,main,None,None,1,1.499179300153628,577.6806316999719,None,None,1,,,,,,,,,,,,,,104,2023-03-29_13h40.42.361,Main,2022.1.1,59.89594883002295,
positive,blue,1,k,None,,,,,,,,,0,176,176,176,,,,,,,,,,,,,,,,,main,k,k,1,0.6131699997931719,580.1806099000387,None,None,0,,,,,,,,,,,,,,104,2023-03-29_13h40.42.361,Main,2022.1.1,59.89594883002295,
positive,yellow,1,None,k,,,,,,,,,0,177,177,177,,,,,,,,,,,,,,,,,main,None,None,1,1.5017806000541896,581.7972358998377,None,None,1,,,,,,,,,,,,,,104,2023-03-29_13h40.42.361,Main,2022.1.1,59.89594883002295,
positive,blue,1,k,None,,,,,,,,,0,178,178,178,,,,,,,,,,,,,,,,,main,k,k,1,1.296411800198257,584.3000509999692,None,None,0,,,,,,,,,,,,,,104,2023-03-29_13h40.42.361,Main,2022.1.1,59.89594883002295,
positive,yellow,2,None,k,,,,,,,,,0,179,179,179,,,,,,,,,,,,,,,,,main,None,None,1,1.5022173000033945,586.5968871000223,None,None,1,,,,,,,,,,,,,,104,2023-03-29_13h40.42.361,Main,2022.1.1,59.89594883002295,
positive,blue,1,k,None,,,,,,,,,0,180,180,180,,,,,,,,,,,,,,,,,main,k,k,1,0.7130438999738544,589.100001799874,None,None,0,,,,,,,,,,,,,,104,2023-03-29_13h40.42.361,Main,2022.1.1,59.89594883002295,
negative,red,1,None,None,,,,,,,,,0,181,181,181,,,,,,,,,,,,,,,,,main,None,None,1,1.5024411000777036,590.8166883999947,None,None,1,,,,,,,,,,,,,,104,2023-03-29_13h40.42.361,Main,2022.1.1,59.89594883002295,
negative,blue,1,None,k,,,,,,,,,0,182,182,182,,,,,,,,,,,,,,,,,main,None,None,1,1.495411700103432,593.3137530998792,None,None,1,,,,,,,,,,,,,,104,2023-03-29_13h40.42.361,Main,2022.1.1,59.89594883002295,
negative,yellow,2,k,None,,,,,,,,,0,183,183,183,,,,,,,,,,,,,,,,,main,k,k,1,0.8160990001633763,595.8136252998374,None,None,0,,,,,,,,,,,,,,104,2023-03-29_13h40.42.361,Main,2022.1.1,59.89594883002295,
positive,yellow,2,None,k,,,,,,,,,0,184,184,184,,,,,,,,,,,,,,,,,main,None,None,1,1.5020192000083625,597.6330281000119,None,None,1,,,,,,,,,,,,,,104,2023-03-29_13h40.42.361,Main,2022.1.1,59.89594883002295,
positive,yellow,1,None,k,,,,,,,,,0,185,185,185,,,,,,,,,,,,,,,,,main,None,None,1,1.499177100136876,600.1301944998559,None,None,1,,,,,,,,,,,,,,104,2023-03-29_13h40.42.361,Main,2022.1.1,59.89594883002295,
positive,red,2,None,None,,,,,,,,,0,186,186,186,,,,,,,,,,,,,,,,,main,None,None,1,1.4990729000419378,602.6301481998526,None,None,1,,,,,,,,,,,,,,104,2023-03-29_13h40.42.361,Main,2022.1.1,59.89594883002295,
positive,blue,1,k,None,,,,,,,,,0,187,187,187,,,,,,,,,,,,,,,,,main,k,k,1,0.6294641999993473,605.1330108998809,None,None,0,,,,,,,,,,,,,,104,2023-03-29_13h40.42.361,Main,2022.1.1,59.89594883002295,
negative,yellow,1,k,None,,,,,,,,,0,188,188,188,,,,,,,,,,,,,,,,,main,k,k,1,0.6159209001343697,606.7630916999187,None,None,0,,,,,,,,,,,,,,104,2023-03-29_13h40.42.361,Main,2022.1.1,59.89594883002295,
positive,yellow,2,None,k,,,,,,,,,0,189,189,189,,,,,,,,,,,,,,,,,main,None,None,1,1.5021605999208987,608.3797871000133,None,None,1,,,,,,,,,,,,,,104,2023-03-29_13h40.42.361,Main,2022.1.1,59.89594883002295,
negative,yellow,2,k,None,,,,,,,,,0,190,190,190,,,,,,,,,,,,,,,,,main,k,k,1,0.5631979999598116,610.8828794998117,None,None,0,,,,,,,,,,,,,,104,2023-03-29_13h40.42.361,Main,2022.1.1,59.89594883002295,
negative,yellow,1,k,None,,,,,,,,,0,191,191,191,,,,,,,,,,,,,,,,,main,k,k,1,0.6491564000025392,612.4496108000167,None,None,0,,,,,,,,,,,,,,104,2023-03-29_13h40.42.361,Main,2022.1.1,59.89594883002295,
positive,blue,2,k,None,,,,,,,,,0,192,192,192,,,,,,,,,,,,,,,,,main,k,k,1,0.6488550000358373,614.0996270999312,None,None,0,,,,,,,,,,,,,,104,2023-03-29_13h40.42.361,Main,2022.1.1,59.89594883002295,
positive,yellow,1,None,k,,,,,,,,,0,193,193,193,,,,,,,,,,,,,,,,,main,None,None,1,1.5018137998413295,615.7492865000386,None,None,1,,,,,,,,,,,,,,104,2023-03-29_13h40.42.361,Main,2022.1.1,59.89594883002295,
negative,red,2,None,None,,,,,,,,,0,194,194,194,,,,,,,,,,,,,,,,,main,None,None,1,1.4991097999736667,618.2464313998353,None,None,1,,,,,,,,,,,,,,104,2023-03-29_13h40.42.361,Main,2022.1.1,59.89594883002295,
positive,red,1,None,None,,,,,,,,,0,195,195,195,,,,,,,,,,,,,,,,,main,None,None,1,1.496381500037387,620.7492388000246,None,None,1,,,,,,,,,,,,,,104,2023-03-29_13h40.42.361,Main,2022.1.1,59.89594883002295,
negative,blue,1,None,k,,,,,,,,,0,196,196,196,,,,,,,,,,,,,,,,,main,None,None,1,1.4992883999366313,623.2463954000268,None,None,1,,,,,,,,,,,,,,104,2023-03-29_13h40.42.361,Main,2022.1.1,59.89594883002295,
positive,blue,2,k,None,,,,,,,,,0,197,197,197,,,,,,,,,,,,,,,,,main,k,k,1,0.6491892000194639,625.7463165998925,None,None,0,,,,,,,,,,,,,,104,2023-03-29_13h40.42.361,Main,2022.1.1,59.89594883002295,
negative,blue,2,None,k,,,,,,,,,0,198,198,198,,,,,,,,,,,,,,,,,main,None,None,1,1.4985750000923872,627.3991119000129,None,None,1,,,,,,,,,,,,,,104,2023-03-29_13h40.42.361,Main,2022.1.1,59.89594883002295,
negative,blue,2,None,k,,,,,,,,,0,199,199,199,,,,,,,,,,,,,,,,,main,None,None,1,1.5025226001162082,629.8959174999036,None,None,1,,,,,,,,,,,,,,104,2023-03-29_13h40.42.361,Main,2022.1.1,59.89594883002295,
positive,blue,2,k,None,,,,,,,,,0,200,200,200,,,,,,,,,,,,,,,,,main,k,k,1,0.6991396001540124,632.3991934999358,None,None,0,,,,,,,,,,,,,,104,2023-03-29_13h40.42.361,Main,2022.1.1,59.89594883002295,
positive,blue,2,k,None,,,,,,,,,0,201,201,201,,,,,,,,,,,,,,,,,main,k,k,1,0.6491433000192046,634.0990388998762,None,None,0,,,,,,,,,,,,,,104,2023-03-29_13h40.42.361,Main,2022.1.1,59.89594883002295,
negative,yellow,2,k,None,,,,,,,,,0,202,202,202,,,,,,,,,,,,,,,,,main,k,k,1,0.7357021002098918,635.7490176998544,None,None,0,,,,,,,,,,,,,,104,2023-03-29_13h40.42.361,Main,2022.1.1,59.89594883002295,
positive,red,1,None,None,,,,,,,,,0,203,203,203,,,,,,,,,,,,,,,,,main,None,None,1,1.4925294001586735,637.4906884999946,None,None,1,,,,,,,,,,,,,,104,2023-03-29_13h40.42.361,Main,2022.1.1,59.89594883002295,
negative,blue,2,None,k,,,,,,,,,0,204,204,204,,,,,,,,,,,,,,,,,main,None,None,1,1.502496600151062,639.9791208000388,None,None,1,,,,,,,,,,,,,,104,2023-03-29_13h40.42.361,Main,2022.1.1,59.89594883002295,
negative,red,1,None,None,,,,,,,,,0,205,205,205,,,,,,,,,,,,,,,,,main,None,None,1,1.49897770001553,642.4821666998323,None,None,1,,,,,,,,,,,,,,104,2023-03-29_13h40.42.361,Main,2022.1.1,59.89594883002295,
negative,blue,2,None,k,,,,,,,,,0,206,206,206,,,,,,,,,,,,,,,,,main,None,None,1,1.4960464001633227,644.9822018998675,None,None,1,,,,,,,,,,,,,,104,2023-03-29_13h40.42.361,Main,2022.1.1,59.89594883002295,
negative,yellow,2,k,None,,,,,,,,,0,207,207,207,,,,,,,,,,,,,,,,,main,k,k,1,0.7995686999056488,647.4788965999614,None,None,0,,,,,,,,,,,,,,104,2023-03-29_13h40.42.361,Main,2022.1.1,59.89594883002295,
positive,yellow,2,None,k,,,,,,,,,0,208,208,208,,,,,,,,,,,,,,,,,main,None,None,1,1.502137399977073,649.2821053999942,None,None,1,,,,,,,,,,,,,,104,2023-03-29_13h40.42.361,Main,2022.1.1,59.89594883002295,
negative,yellow,1,k,None,,,,,,,,,0,209,209,209,,,,,,,,,,,,,,,,,main,k,k,1,0.6826022998429835,651.7820333999116,None,None,0,,,,,,,,,,,,,,104,2023-03-29_13h40.42.361,Main,2022.1.1,59.89594883002295,
negative,red,2,None,None,,,,,,,,,0,210,210,210,,,,,,,,,,,,,,,,,main,None,None,1,1.498825600137934,653.4624770998489,None,None,1,,,,,,,,,,,,,,104,2023-03-29_13h40.42.361,Main,2022.1.1,59.89594883002295,
negative,blue,1,None,k,,,,,,,,,0,211,211,211,,,,,,,,,,,,,,,,,main,None,None,1,1.4963687998242676,655.9623059998266,None,None,1,,,,,,,,,,,,,,104,2023-03-29_13h40.42.361,Main,2022.1.1,59.89594883002295,
negative,yellow,1,k,None,,,,,,,,,0,212,212,212,,,,,,,,,,,,,,,,,main,k,k,1,0.6689597999211401,658.4622553000227,None,None,0,,,,,,,,,,,,,,104,2023-03-29_13h40.42.361,Main,2022.1.1,59.89594883002295,
positive,blue,1,k,None,,,,,,,,,0,213,213,213,,,,,,,,,,,,,,,,,main,k,k,1,0.613076200010255,660.1317037998233,None,None,0,,,,,,,,,,,,,,104,2023-03-29_13h40.42.361,Main,2022.1.1,59.89594883002295,
positive,blue,1,k,None,,,,,,,,,0,214,214,214,,,,,,,,,,,,,,,,,main,k,k,1,0.5160763999447227,661.7455584998243,None,None,0,,,,,,,,,,,,,,104,2023-03-29_13h40.42.361,Main,2022.1.1,59.89594883002295,
positive,yellow,1,None,k,,,,,,,,,0,215,215,215,,,,,,,,,,,,,,,,,main,None,None,1,1.5016245001461357,663.2625803998671,None,None,1,,,,,,,,,,,,,,104,2023-03-29_13h40.42.361,Main,2022.1.1,59.89594883002295,
positive,yellow,1,None,k,,,,,,,,,0,216,216,216,,,,,,,,,,,,,,,,,main,None,None,1,1.4993205000646412,665.7621736000292,None,None,1,,,,,,,,,,,,,,104,2023-03-29_13h40.42.361,Main,2022.1.1,59.89594883002295,
positive,yellow,2,None,k,,,,,,,,,0,217,217,217,,,,,,,,,,,,,,,,,main,None,None,1,1.495820299955085,668.2621153998189,None,None,1,,,,,,,,,,,,,,104,2023-03-29_13h40.42.361,Main,2022.1.1,59.89594883002295,
negative,blue,1,None,k,,,,,,,,,0,218,218,218,,,,,,,,,,,,,,,,,main,None,None,1,1.5023952000774443,670.7617709999904,None,None,1,,,,,,,,,,,,,,104,2023-03-29_13h40.42.361,Main,2022.1.1,59.89594883002295,
positive,red,2,None,None,,,,,,,,,0,219,219,219,,,,,,,,,,,,,,,,,main,None,None,1,1.4964547001291066,673.2649193999823,None,None,1,,,,,,,,,,,,,,104,2023-03-29_13h40.42.361,Main,2022.1.1,59.89594883002295,
positive,yellow,1,None,k,,,,,,,,,0,220,220,220,,,,,,,,,,,,,,,,,main,None,None,1,1.4989295999985188,675.764793299837,None,None,1,,,,,,,,,,,,,,104,2023-03-29_13h40.42.361,Main,2022.1.1,59.89594883002295,
positive,blue,1,k,None,,,,,,,,,0,221,221,221,,,,,,,,,,,,,,,,,main,k,k,1,0.7522388999350369,678.2618795000017,None,None,0,,,,,,,,,,,,,,104,2023-03-29_13h40.42.361,Main,2022.1.1,59.89594883002295,
positive,yellow,2,None,k,,,,,,,,,0,222,222,222,,,,,,,,,,,,,,,,,main,None,None,1,1.4961278999689966,680.011845999863,None,None,1,,,,,,,,,,,,,,104,2023-03-29_13h40.42.361,Main,2022.1.1,59.89594883002295,
negative,yellow,1,k,None,,,,,,,,,0,223,223,223,,,,,,,,,,,,,,,,,main,k,k,1,0.5993695000652224,682.5118091998156,None,None,0,,,,,,,,,,,,,,104,2023-03-29_13h40.42.361,Main,2022.1.1,59.89594883002295,
positive,yellow,2,None,k,,,,,,,,,0,224,224,224,,,,,,,,,,,,,,,,,main,None,None,1,1.500943100079894,684.1117823999375,None,None,1,,,,,,,,,,,,,,104,2023-03-29_13h40.42.361,Main,2022.1.1,59.89594883002295,
negative,yellow,2,k,None,,,,,,,,,0,225,225,225,,,,,,,,,,,,,,,,,main,k,k,1,0.7291403999552131,686.6146682999097,None,None,0,,,,,,,,,,,,,,104,2023-03-29_13h40.42.361,Main,2022.1.1,59.89594883002295,
negative,blue,2,None,k,,,,,,,,,0,226,226,226,,,,,,,,,,,,,,,,,main,None,None,1,1.498929199995473,688.345030499855,None,None,1,,,,,,,,,,,,,,104,2023-03-29_13h40.42.361,Main,2022.1.1,59.89594883002295,
positive,red,2,None,None,,,,,,,,,0,227,227,227,,,,,,,,,,,,,,,,,main,None,None,1,1.4988700000103563,690.8449971999507,None,None,1,,,,,,,,,,,,,,104,2023-03-29_13h40.42.361,Main,2022.1.1,59.89594883002295,
positive,blue,2,k,None,,,,,,,,,0,228,228,228,,,,,,,,,,,,,,,,,main,k,k,1,0.621137399924919,693.3446112000383,None,None,0,,,,,,,,,,,,,,104,2023-03-29_13h40.42.361,Main,2022.1.1,59.89594883002295,
negative,blue,1,None,k,,,,,,,,,0,229,229,229,,,,,,,,,,,,,,,,,main,None,None,1,1.4970901000779122,694.9644939999562,None,None,1,,,,,,,,,,,,,,104,2023-03-29_13h40.42.361,Main,2022.1.1,59.89594883002295,
positive,yellow,1,None,k,,,,,,,,,0,230,230,230,,,,,,,,,,,,,,,,,main,None,None,1,1.499155400088057,697.4644758999348,None,None,1,,,,,,,,,,,,,,104,2023-03-29_13h40.42.361,Main,2022.1.1,59.89594883002295,
negative,blue,2,None,k,,,,,,,,,0,231,231,231,,,,,,,,,,,,,,,,,main,None,None,1,1.4963058000430465,699.9644760999363,None,None,1,,,,,,,,,,,,,,104,2023-03-29_13h40.42.361,Main,2022.1.1,59.89594883002295,
negative,red,1,None,None,,,,,,,,,0,232,232,232,,,,,,,,,,,,,,,,,main,None,None,1,1.4990916999522597,702.4613810998853,None,None,1,,,,,,,,,,,,,,104,2023-03-29_13h40.42.361,Main,2022.1.1,59.89594883002295,
positive,blue,2,k,None,,,,,,,,,0,233,233,233,,,,,,,,,,,,,,,,,main,k,k,1,0.6330413999967277,704.9613299998455,None,None,0,,,,,,,,,,,,,,104,2023-03-29_13h40.42.361,Main,2022.1.1,59.89594883002295,
negative,yellow,1,k,None,,,,,,,,,0,234,234,234,,,,,,,,,,,,,,,,,main,k,k,1,0.9489291999489069,706.5946265000384,None,None,0,,,,,,,,,,,,,,104,2023-03-29_13h40.42.361,Main,2022.1.1,59.89594883002295,
negative,yellow,2,k,None,,,,,,,,,0,235,235,235,,,,,,,,,,,,,,,,,main,k,k,1,0.6991395999211818,708.5446036998183,None,None,0,,,,,,,,,,,,,,104,2023-03-29_13h40.42.361,Main,2022.1.1,59.89594883002295,
positive,red,1,None,None,,,,,,,,,0,236,236,236,,,,,,,,,,,,,,,,,main,None,None,1,1.5019346999470145,710.2445872998796,None,None,1,,,,,,,,,,,,,,104,2023-03-29_13h40.42.361,Main,2022.1.1,59.89594883002295,
negative,red,2,None,None,,,,,,,,,0,237,237,237,,,,,,,,,,,,,,,,,main,None,None,1,1.4958348001819104,712.7473867000081,None,None,1,,,,,,,,,,,,,,104,2023-03-29_13h40.42.361,Main,2022.1.1,59.89594883002295,
negative,blue,1,None,k,,,,,,,,,0,238,238,238,,,,,,,,,,,,,,,,,main,None,None,1,1.5025390998926014,715.2441567999776,None,None,1,,,,,,,,,,,,,,104,2023-03-29_13h40.42.361,Main,2022.1.1,59.89594883002295,
positive,blue,1,k,None,,,,,,,,,0,239,239,239,,,,,,,,,,,,,,,,,main,k,k,1,0.696496499935165,717.7473075999878,None,None,0,,,,,,,,,,,,,,104,2023-03-29_13h40.42.361,Main,2022.1.1,59.89594883002295,
,,,,,,,,,,,,,,,,,,,,,,,,,,,,,,,,,,,,,,,,,,,,,,,,,,,,,719.4472184998449,None,,,,,,
