distractor,target,set,ans1,ans2,rep_loop4.thisRepN,rep_loop4.thisTrialN,rep_loop4.thisN,rep_loop4.thisIndex,st2_prac_loop.thisRepN,st2_prac_loop.thisTrialN,st2_prac_loop.thisN,st2_prac_loop.thisIndex,st2_main_loop.thisRepN,st2_main_loop.thisTrialN,st2_main_loop.thisN,st2_main_loop.thisIndex,image_4.started,image_4.stopped,sound_2.started,sound_2.stopped,key_resp_3.keys,key_resp_3.rt,image_5.started,image_5.stopped,st_prac_back.started,st_prac_back.stopped,st_prac_text.started,st_prac_text.stopped,st_fix_back.started,st_fix_back.stopped,st_fix_2.started,st_fix_2.stopped,main_prac,st_ans,st_res,st_corr,st_rt,st_back.started,st_back.stopped,st2_resp.keys,st2_resp.corr,st_main_back.started,st_main_back.stopped,st_main_text.started,st_main_text.stopped,mouse_4.x,mouse_4.y,mouse_4.leftButton,mouse_4.midButton,mouse_4.rightButton,mouse_4.started,mouse_4.stopped,text_2.started,text_2.stopped,id*,date,expName,psychopyVersion,frameRate,
negative,yellow,1,k,None,,,,,0,0,0,0,,,,,30.37487219995819,None,35.417450139811265,None,space,59.43412459990941,94.87978169997223,None,96.79656980000436,None,96.79656980000436,None,98.7994955999311,None,98.7994955999311,None,prac,None,None,1,1.4939531998243183,100.79769919998944,None,None,1,,,,,,,,,,,,,,105,2023-03-29_18h54.10.895,Main,2022.1.1,60.04707687527463,
positive,red,2,None,None,,,,,0,1,1,1,,,,,,,,,,,,,,,,,,,,,prac,None,None,1,1.4988116999156773,103.29930799989961,None,None,1,,,,,,,,,,,,,,105,2023-03-29_18h54.10.895,Main,2022.1.1,60.04707687527463,
negative,blue,2,None,k,,,,,0,2,2,2,,,,,,,,,,,,,,,,,,,,,prac,k,k,1,0.9494730001315475,105.79629059997387,None,None,0,,,,,,,,,,,,,,105,2023-03-29_18h54.10.895,Main,2022.1.1,60.04707687527463,
positive,yellow,1,None,k,,,,,0,3,3,3,,,,,,,,,,,,,,,,,,,,,prac,k,k,1,0.8296503000892699,107.7462939999532,None,None,0,,,,,,,,,,,,,,105,2023-03-29_18h54.10.895,Main,2022.1.1,60.04707687527463,
negative,blue,2,None,k,,,,,0,4,4,4,,,,,,,,,,,,,,,,,,,,,prac,k,k,1,0.8150398000143468,109.57960289996117,None,None,0,,,,,,,,,,,,,,105,2023-03-29_18h54.10.895,Main,2022.1.1,60.04707687527463,
negative,blue,1,None,k,,,,,0,5,5,5,,,,,,,,,,,,,,,,,,,,,prac,k,k,1,0.8991892000194639,111.3990640998818,None,None,0,,,,,,,,,,,,,,105,2023-03-29_18h54.10.895,Main,2022.1.1,60.04707687527463,
negative,yellow,2,k,None,,,,,0,6,6,6,,,,,,,,,,,,,,,,,,,,,prac,None,None,1,1.5016295998357236,113.29619019990787,None,None,1,,,,,,,,,,,,,,105,2023-03-29_18h54.10.895,Main,2022.1.1,60.04707687527463,
negative,red,1,None,None,,,,,0,7,7,7,,,,,,,,,,,,,,,,,,,,,prac,None,None,1,1.4963042999152094,115.79898399999365,None,None,1,,,,,,,,,,,,,,105,2023-03-29_18h54.10.895,Main,2022.1.1,60.04707687527463,
positive,yellow,2,None,k,,,,,0,8,8,8,,,,,,,,,,,,,,,,,,,,,prac,k,k,1,0.8994154999963939,118.29580059996806,None,None,0,,,,,,,,,,,,,,105,2023-03-29_18h54.10.895,Main,2022.1.1,60.04707687527463,
negative,yellow,1,k,None,,,,,0,9,9,9,,,,,,,,,,,,,,,,,,,,,prac,None,None,1,1.5018213000148535,120.19910199986771,None,None,1,,,,,,,,,,,,,,105,2023-03-29_18h54.10.895,Main,2022.1.1,60.04707687527463,
positive,yellow,2,None,k,,,,,0,10,10,10,,,,,,,,,,,,,,,,,,,,,prac,k,k,1,0.7993388001341373,122.69900729996152,None,None,0,,,,,,,,,,,,,,105,2023-03-29_18h54.10.895,Main,2022.1.1,60.04707687527463,
negative,yellow,2,k,None,,,,,0,11,11,11,,,,,,,,,,,,,,,,,,,,,prac,None,None,1,1.4959082000423223,124.49604729982093,None,None,1,,,,,,,,,,,,,,105,2023-03-29_18h54.10.895,Main,2022.1.1,60.04707687527463,
negative,red,2,None,None,,,,,0,12,12,12,,,,,,,,,,,,,,,,,,,,,prac,None,None,1,1.499305099947378,126.99586429982446,None,None,1,,,,,,,,,,,,,,105,2023-03-29_18h54.10.895,Main,2022.1.1,60.04707687527463,
positive,red,1,None,None,,,,,0,13,13,13,,,,,,,,,,,,,,,,,,,,,prac,None,None,1,1.501998299965635,129.49582990002818,None,None,1,,,,,,,,,,,,,,105,2023-03-29_18h54.10.895,Main,2022.1.1,60.04707687527463,
positive,blue,2,k,None,,,,,0,14,14,14,,,,,,,,,,,,,,,,,,,,,prac,None,None,1,1.496389200212434,131.99868780001998,None,None,1,,,,,,,,,,,,,,105,2023-03-29_18h54.10.895,Main,2022.1.1,60.04707687527463,
positive,blue,1,k,None,,,,,0,15,15,15,,,,,,,,,,,,,,,,,,,,,prac,None,None,1,1.5016806998755783,134.4957930999808,None,None,1,,,,,,,,,,,,,,105,2023-03-29_18h54.10.895,Main,2022.1.1,60.04707687527463,
negative,blue,1,None,k,,,,,0,16,16,16,,,,,,,,,,,,,,,,,,,,,prac,k,k,1,0.6633265998680145,136.99867649981752,None,None,0,,,,,,,,,,,,,,105,2023-03-29_18h54.10.895,Main,2022.1.1,60.04707687527463,
positive,blue,2,k,None,,,,,0,17,17,17,,,,,,,,,,,,,,,,,,,,,prac,None,None,1,1.499129100004211,138.66205559996888,None,None,1,,,,,,,,,,,,,,105,2023-03-29_18h54.10.895,Main,2022.1.1,60.04707687527463,
positive,blue,1,k,None,,,,,0,18,18,18,,,,,,,,,,,,,,,,,,,,,prac,None,None,1,1.5017508000601083,141.16204409999773,None,None,1,,,,,,,,,,,,,,105,2023-03-29_18h54.10.895,Main,2022.1.1,60.04707687527463,
positive,yellow,1,None,k,,,,,0,19,19,19,,,,,,,,,,,,,,,,,,,,,prac,k,k,1,0.7826622999273241,143.66519859991968,None,None,0,,,,,,,,,,,,,,105,2023-03-29_18h54.10.895,Main,2022.1.1,60.04707687527463,
negative,yellow,1,k,None,,,,,1,0,20,0,,,,,,,,,,,,,,,,,,,,,prac,None,None,1,1.4987173001281917,145.44854509993456,None,None,1,,,,,,,,,,,,,,105,2023-03-29_18h54.10.895,Main,2022.1.1,60.04707687527463,
positive,red,2,None,None,,,,,1,1,21,1,,,,,,,,,,,,,,,,,,,,,prac,None,None,1,1.4963590998668224,147.94847429986112,None,None,1,,,,,,,,,,,,,,105,2023-03-29_18h54.10.895,Main,2022.1.1,60.04707687527463,
negative,blue,2,None,k,,,,,1,2,22,2,,,,,,,,,,,,,,,,,,,,,prac,k,k,1,0.7825140999630094,150.44824959989637,None,None,0,,,,,,,,,,,,,,105,2023-03-29_18h54.10.895,Main,2022.1.1,60.04707687527463,
positive,yellow,1,None,k,,,,,1,3,23,3,,,,,,,,,,,,,,,,,,,,,prac,k,k,1,0.7158893002197146,152.23158989986405,None,None,0,,,,,,,,,,,,,,105,2023-03-29_18h54.10.895,Main,2022.1.1,60.04707687527463,
negative,blue,2,None,k,,,,,1,4,24,4,,,,,,,,,,,,,,,,,,,,,prac,k,k,1,0.868640200002119,153.94533539982513,None,None,0,,,,,,,,,,,,,,105,2023-03-29_18h54.10.895,Main,2022.1.1,60.04707687527463,
negative,blue,1,None,k,,,,,1,5,25,5,,,,,,,,,,,,,,,,,,,,,prac,k,k,1,0.8796657000202686,155.81478689983487,None,None,0,,,,,,,,,,,,,,105,2023-03-29_18h54.10.895,Main,2022.1.1,60.04707687527463,
negative,yellow,2,k,None,,,,,1,6,26,6,,,,,,,,,,,,,,,,,,,,,prac,None,None,1,1.5014112000353634,157.69528550002724,None,None,1,,,,,,,,,,,,,,105,2023-03-29_18h54.10.895,Main,2022.1.1,60.04707687527463,
negative,red,1,None,None,,,,,1,7,27,7,,,,,,,,,,,,,,,,,,,,,prac,None,None,1,1.4961161001119763,160.19809630000964,None,None,1,,,,,,,,,,,,,,105,2023-03-29_18h54.10.895,Main,2022.1.1,60.04707687527463,
positive,yellow,2,None,k,,,,,1,8,28,8,,,,,,,,,,,,,,,,,,,,,prac,k,k,1,0.8326809001155198,162.6949002998881,None,None,0,,,,,,,,,,,,,,105,2023-03-29_18h54.10.895,Main,2022.1.1,60.04707687527463,
negative,yellow,1,k,None,,,,,1,9,29,9,,,,,,,,,,,,,,,,,,,,,prac,None,None,1,1.499023700132966,164.5282142998185,None,None,1,,,,,,,,,,,,,,105,2023-03-29_18h54.10.895,Main,2022.1.1,60.04707687527463,
positive,yellow,2,None,k,,,,,1,10,30,10,,,,,,,,,,,,,,,,,,,,,prac,k,k,1,0.7693109000101686,167.0281950000208,None,None,0,,,,,,,,,,,,,,105,2023-03-29_18h54.10.895,Main,2022.1.1,60.04707687527463,
negative,yellow,2,k,None,,,,,1,11,31,11,,,,,,,,,,,,,,,,,,,,,prac,None,None,1,1.4987926001194865,168.79812049982138,None,None,1,,,,,,,,,,,,,,105,2023-03-29_18h54.10.895,Main,2022.1.1,60.04707687527463,
negative,red,2,None,None,,,,,1,12,32,12,,,,,,,,,,,,,,,,,,,,,prac,None,None,1,1.49861010001041,171.29792579985224,None,None,1,,,,,,,,,,,,,,105,2023-03-29_18h54.10.895,Main,2022.1.1,60.04707687527463,
positive,red,1,None,None,,,,,1,13,33,13,,,,,,,,,,,,,,,,,,,,,prac,None,None,1,1.4995915000326931,173.79493539989926,None,None,1,,,,,,,,,,,,,,105,2023-03-29_18h54.10.895,Main,2022.1.1,60.04707687527463,
positive,blue,2,k,None,,,,,1,14,34,14,,,,,,,,,,,,,,,,,,,,,prac,None,None,1,1.4993539000861347,176.29485749988817,None,None,1,,,,,,,,,,,,,,105,2023-03-29_18h54.10.895,Main,2022.1.1,60.04707687527463,
positive,blue,1,k,None,,,,,1,15,35,15,,,,,,,,,,,,,,,,,,,,,prac,None,None,1,1.4990850000176579,178.79769059992395,None,None,1,,,,,,,,,,,,,,105,2023-03-29_18h54.10.895,Main,2022.1.1,60.04707687527463,
negative,blue,1,None,k,,,,,1,16,36,16,,,,,,,,,,,,,,,,,,,,,prac,k,k,1,0.7811000000219792,181.29766259994358,None,None,0,,,,,,,,,,,,,,105,2023-03-29_18h54.10.895,Main,2022.1.1,60.04707687527463,
positive,blue,2,k,None,,,,,1,17,37,17,,,,,,,,,,,,,,,,,,,,,prac,None,None,1,1.501479099970311,183.08106949995272,None,None,1,,,,,,,,,,,,,,105,2023-03-29_18h54.10.895,Main,2022.1.1,60.04707687527463,
positive,blue,1,k,None,,,,,1,18,38,18,,,,,,,,,,,,,,,,,,,,,prac,None,None,1,1.495999500155449,185.57811729982495,None,None,1,,,,,,,,,,,,,,105,2023-03-29_18h54.10.895,Main,2022.1.1,60.04707687527463,
positive,yellow,1,None,k,,,,,1,19,39,19,,,,,,,,,,,,,,,,,,,,,prac,k,k,1,0.7489505000412464,188.07771829981357,None,None,0,,,,,,,,,,,,,,105,2023-03-29_18h54.10.895,Main,2022.1.1,60.04707687527463,
,,,,,,,,,,,,,,,,,,,,,,,,,,,,,,,,,,,,,,,,,,189.83090219995938,None,189.83090219995938,None,0.074074075,-0.07962963,0,0,0,0.014261239906772971,None,,,105,2023-03-29_18h54.10.895,Main,2022.1.1,60.04707687527463,
negative,yellow,2,k,None,,,,,,,,,0,0,0,0,,,,,,,,,,,,,190.88096889993176,None,190.88096889993176,None,main,None,None,1,1.5045670000836253,192.9005503000226,None,None,1,,,,,,,,,,,,,,105,2023-03-29_18h54.10.895,Main,2022.1.1,60.04707687527463,
positive,red,1,None,None,,,,,,,,,0,1,1,1,,,,,,,,,,,,,,,,,main,None,None,1,1.4989936000201851,195.41104589984752,None,None,1,,,,,,,,,,,,,,105,2023-03-29_18h54.10.895,Main,2022.1.1,60.04707687527463,
positive,blue,2,k,None,,,,,,,,,0,2,2,2,,,,,,,,,,,,,,,,,main,None,None,1,1.4991730998735875,197.91394159989432,None,None,1,,,,,,,,,,,,,,105,2023-03-29_18h54.10.895,Main,2022.1.1,60.04707687527463,
positive,blue,1,k,None,,,,,,,,,0,3,3,3,,,,,,,,,,,,,,,,,main,None,None,1,1.4992273999378085,200.41387219983153,None,None,1,,,,,,,,,,,,,,105,2023-03-29_18h54.10.895,Main,2022.1.1,60.04707687527463,
negative,yellow,2,k,None,,,,,,,,,0,4,4,4,,,,,,,,,,,,,,,,,main,None,None,1,1.4963157998863608,202.91383819980547,None,None,1,,,,,,,,,,,,,,105,2023-03-29_18h54.10.895,Main,2022.1.1,60.04707687527463,
positive,yellow,2,None,k,,,,,,,,,0,5,5,5,,,,,,,,,,,,,,,,,main,k,k,1,0.5692929001525044,205.41101459995843,None,None,0,,,,,,,,,,,,,,105,2023-03-29_18h54.10.895,Main,2022.1.1,60.04707687527463,
negative,blue,2,None,k,,,,,,,,,0,6,6,6,,,,,,,,,,,,,,,,,main,k,k,1,0.7455812999978662,206.98058969993144,None,None,0,,,,,,,,,,,,,,105,2023-03-29_18h54.10.895,Main,2022.1.1,60.04707687527463,
positive,red,2,None,None,,,,,,,,,0,7,7,7,,,,,,,,,,,,,,,,,main,None,None,1,1.4997065998613834,208.72731929994188,None,None,1,,,,,,,,,,,,,,105,2023-03-29_18h54.10.895,Main,2022.1.1,60.04707687527463,
positive,yellow,1,None,k,,,,,,,,,0,8,8,8,,,,,,,,,,,,,,,,,main,k,k,1,0.7158131999894977,211.23061549989507,None,None,0,,,,,,,,,,,,,,105,2023-03-29_18h54.10.895,Main,2022.1.1,60.04707687527463,
negative,red,1,None,None,,,,,,,,,0,9,9,9,,,,,,,,,,,,,,,,,main,None,None,1,1.5017955999355763,212.94429249991663,None,None,1,,,,,,,,,,,,,,105,2023-03-29_18h54.10.895,Main,2022.1.1,60.04707687527463,
positive,yellow,1,None,k,,,,,,,,,0,10,10,10,,,,,,,,,,,,,,,,,main,k,k,1,0.6706599998287857,215.44714079983532,None,None,0,,,,,,,,,,,,,,105,2023-03-29_18h54.10.895,Main,2022.1.1,60.04707687527463,
negative,yellow,1,k,None,,,,,,,,,0,11,11,11,,,,,,,,,,,,,,,,,main,None,None,1,1.4910214999690652,217.1235572998412,None,None,1,,,,,,,,,,,,,,105,2023-03-29_18h54.10.895,Main,2022.1.1,60.04707687527463,
negative,yellow,1,k,None,,,,,,,,,0,12,12,12,,,,,,,,,,,,,,,,,main,None,None,1,1.5024079999420792,219.610470399959,None,None,1,,,,,,,,,,,,,,105,2023-03-29_18h54.10.895,Main,2022.1.1,60.04707687527463,
negative,red,2,None,None,,,,,,,,,0,13,13,13,,,,,,,,,,,,,,,,,main,None,None,1,1.4988944998476654,222.1136371998582,None,None,1,,,,,,,,,,,,,,105,2023-03-29_18h54.10.895,Main,2022.1.1,60.04707687527463,
positive,yellow,2,None,k,,,,,,,,,0,14,14,14,,,,,,,,,,,,,,,,,main,k,k,1,0.7197163000237197,224.61359829991125,None,None,0,,,,,,,,,,,,,,105,2023-03-29_18h54.10.895,Main,2022.1.1,60.04707687527463,
positive,blue,1,k,None,,,,,,,,,0,15,15,15,,,,,,,,,,,,,,,,,main,None,None,1,1.4924039000179619,226.3273068999406,None,None,1,,,,,,,,,,,,,,105,2023-03-29_18h54.10.895,Main,2022.1.1,60.04707687527463,
negative,blue,1,None,k,,,,,,,,,0,16,16,16,,,,,,,,,,,,,,,,,main,k,k,1,0.5856978001538664,228.82715000002645,None,None,0,,,,,,,,,,,,,,105,2023-03-29_18h54.10.895,Main,2022.1.1,60.04707687527463,
positive,blue,2,k,None,,,,,,,,,0,17,17,17,,,,,,,,,,,,,,,,,main,None,None,1,1.4960288000293076,230.41338289994746,None,None,1,,,,,,,,,,,,,,105,2023-03-29_18h54.10.895,Main,2022.1.1,60.04707687527463,
negative,blue,2,None,k,,,,,,,,,0,18,18,18,,,,,,,,,,,,,,,,,main,k,k,1,0.699479800183326,232.91045379987918,None,None,0,,,,,,,,,,,,,,105,2023-03-29_18h54.10.895,Main,2022.1.1,60.04707687527463,
negative,blue,1,None,k,,,,,,,,,0,19,19,19,,,,,,,,,,,,,,,,,main,k,k,1,0.5656491999980062,234.61040729982778,None,None,0,,,,,,,,,,,,,,105,2023-03-29_18h54.10.895,Main,2022.1.1,60.04707687527463,
negative,blue,1,None,k,,,,,,,,,0,20,20,20,,,,,,,,,,,,,,,,,main,k,k,1,0.6020545999053866,236.17998639983125,None,None,0,,,,,,,,,,,,,,105,2023-03-29_18h54.10.895,Main,2022.1.1,60.04707687527463,
negative,blue,2,None,k,,,,,,,,,0,21,21,21,,,,,,,,,,,,,,,,,main,k,k,1,0.5130278998985887,237.77993840002455,None,None,0,,,,,,,,,,,,,,105,2023-03-29_18h54.10.895,Main,2022.1.1,60.04707687527463,
negative,red,1,None,None,,,,,,,,,0,22,22,22,,,,,,,,,,,,,,,,,main,None,None,1,1.4977903000544757,239.29658819991164,None,None,1,,,,,,,,,,,,,,105,2023-03-29_18h54.10.895,Main,2022.1.1,60.04707687527463,
positive,red,2,None,None,,,,,,,,,0,23,23,23,,,,,,,,,,,,,,,,,main,None,None,1,1.4988694998901337,241.7933104999829,None,None,1,,,,,,,,,,,,,,105,2023-03-29_18h54.10.895,Main,2022.1.1,60.04707687527463,
negative,red,2,None,None,,,,,,,,,0,24,24,24,,,,,,,,,,,,,,,,,main,None,None,1,1.5007746000774205,244.2964649000205,None,None,1,,,,,,,,,,,,,,105,2023-03-29_18h54.10.895,Main,2022.1.1,60.04707687527463,
positive,blue,2,k,None,,,,,,,,,0,25,25,25,,,,,,,,,,,,,,,,,main,None,None,1,1.4982394999824464,246.79653019993566,None,None,1,,,,,,,,,,,,,,105,2023-03-29_18h54.10.895,Main,2022.1.1,60.04707687527463,
negative,yellow,1,k,None,,,,,,,,,0,26,26,26,,,,,,,,,,,,,,,,,main,None,None,1,1.4981103998143226,249.29338899999857,None,None,1,,,,,,,,,,,,,,105,2023-03-29_18h54.10.895,Main,2022.1.1,60.04707687527463,
positive,blue,2,k,None,,,,,,,,,0,27,27,27,,,,,,,,,,,,,,,,,main,None,None,1,1.4956636999268085,251.79336209991015,None,None,1,,,,,,,,,,,,,,105,2023-03-29_18h54.10.895,Main,2022.1.1,60.04707687527463,
negative,blue,2,None,k,,,,,,,,,0,28,28,28,,,,,,,,,,,,,,,,,main,k,k,1,0.61812309990637,254.29317179997452,None,None,0,,,,,,,,,,,,,,105,2023-03-29_18h54.10.895,Main,2022.1.1,60.04707687527463,
positive,red,1,None,None,,,,,,,,,0,29,29,29,,,,,,,,,,,,,,,,,main,None,None,1,1.4991111000999808,255.91276899981312,None,None,1,,,,,,,,,,,,,,105,2023-03-29_18h54.10.895,Main,2022.1.1,60.04707687527463,
positive,blue,1,k,None,,,,,,,,,0,30,30,30,,,,,,,,,,,,,,,,,main,None,None,1,1.4963368000462651,258.4099492998794,None,None,1,,,,,,,,,,,,,,105,2023-03-29_18h54.10.895,Main,2022.1.1,60.04707687527463,
positive,yellow,1,None,k,,,,,,,,,0,31,31,31,,,,,,,,,,,,,,,,,main,k,k,1,0.7489358999300748,260.9127783998847,None,None,0,,,,,,,,,,,,,,105,2023-03-29_18h54.10.895,Main,2022.1.1,60.04707687527463,
negative,yellow,2,k,None,,,,,,,,,0,32,32,32,,,,,,,,,,,,,,,,,main,None,None,1,1.4989522001706064,262.6595401999075,None,None,1,,,,,,,,,,,,,,105,2023-03-29_18h54.10.895,Main,2022.1.1,60.04707687527463,
negative,blue,1,None,k,,,,,,,,,0,33,33,33,,,,,,,,,,,,,,,,,main,k,k,1,0.8997675999999046,265.15955300000496,None,None,0,,,,,,,,,,,,,,105,2023-03-29_18h54.10.895,Main,2022.1.1,60.04707687527463,
positive,blue,1,k,None,,,,,,,,,0,34,34,34,,,,,,,,,,,,,,,,,main,None,None,1,1.5018103998154402,267.06280569988303,None,None,1,,,,,,,,,,,,,,105,2023-03-29_18h54.10.895,Main,2022.1.1,60.04707687527463,
negative,yellow,1,k,None,,,,,,,,,0,35,35,35,,,,,,,,,,,,,,,,,main,None,None,1,1.4989346999209374,269.56258549983613,None,None,1,,,,,,,,,,,,,,105,2023-03-29_18h54.10.895,Main,2022.1.1,60.04707687527463,
positive,yellow,2,None,k,,,,,,,,,0,36,36,36,,,,,,,,,,,,,,,,,main,k,k,1,0.47997490013949573,272.0595958000049,None,None,0,,,,,,,,,,,,,,105,2023-03-29_18h54.10.895,Main,2022.1.1,60.04707687527463,
positive,yellow,2,None,k,,,,,,,,,0,37,37,37,,,,,,,,,,,,,,,,,main,k,k,1,0.4519587999675423,273.5429140999913,None,None,0,,,,,,,,,,,,,,105,2023-03-29_18h54.10.895,Main,2022.1.1,60.04707687527463,
negative,yellow,2,k,None,,,,,,,,,0,38,38,38,,,,,,,,,,,,,,,,,main,None,None,1,1.4962716998998076,274.9958074998576,None,None,1,,,,,,,,,,,,,,105,2023-03-29_18h54.10.895,Main,2022.1.1,60.04707687527463,
positive,yellow,1,None,k,,,,,,,,,0,39,39,39,,,,,,,,,,,,,,,,,main,k,k,1,0.649340600008145,277.49286619992927,None,None,0,,,,,,,,,,,,,,105,2023-03-29_18h54.10.895,Main,2022.1.1,60.04707687527463,
negative,yellow,2,k,None,,,,,,,,,0,40,40,40,,,,,,,,,,,,,,,,,main,None,None,1,1.5015648000407964,279.14288559998386,None,None,1,,,,,,,,,,,,,,105,2023-03-29_18h54.10.895,Main,2022.1.1,60.04707687527463,
positive,blue,2,k,None,,,,,,,,,0,41,41,41,,,,,,,,,,,,,,,,,main,None,None,1,1.4961031000129879,281.6457847999409,None,None,1,,,,,,,,,,,,,,105,2023-03-29_18h54.10.895,Main,2022.1.1,60.04707687527463,
positive,blue,2,k,None,,,,,,,,,0,42,42,42,,,,,,,,,,,,,,,,,main,None,None,1,1.502435800153762,284.14244439988397,None,None,1,,,,,,,,,,,,,,105,2023-03-29_18h54.10.895,Main,2022.1.1,60.04707687527463,
negative,blue,2,None,k,,,,,,,,,0,43,43,43,,,,,,,,,,,,,,,,,main,k,k,1,0.515934000024572,286.64571269997396,None,None,0,,,,,,,,,,,,,,105,2023-03-29_18h54.10.895,Main,2022.1.1,60.04707687527463,
negative,red,1,None,None,,,,,,,,,0,44,44,44,,,,,,,,,,,,,,,,,main,None,None,1,1.4960954000707716,288.1623203000054,None,None,1,,,,,,,,,,,,,,105,2023-03-29_18h54.10.895,Main,2022.1.1,60.04707687527463,
negative,yellow,1,k,None,,,,,,,,,0,45,45,45,,,,,,,,,,,,,,,,,main,None,None,1,1.5020008001010865,290.6621383000165,None,None,1,,,,,,,,,,,,,,105,2023-03-29_18h54.10.895,Main,2022.1.1,60.04707687527463,
negative,yellow,1,k,None,,,,,,,,,0,46,46,46,,,,,,,,,,,,,,,,,main,None,None,1,1.4990352001041174,293.15929250000045,None,None,1,,,,,,,,,,,,,,105,2023-03-29_18h54.10.895,Main,2022.1.1,60.04707687527463,
positive,red,1,None,None,,,,,,,,,0,47,47,47,,,,,,,,,,,,,,,,,main,None,None,1,1.4965307000093162,295.6619178999681,None,None,1,,,,,,,,,,,,,,105,2023-03-29_18h54.10.895,Main,2022.1.1,60.04707687527463,
positive,yellow,1,None,k,,,,,,,,,0,48,48,48,,,,,,,,,,,,,,,,,main,k,k,1,0.5854150000959635,298.15911729983054,None,None,0,,,,,,,,,,,,,,105,2023-03-29_18h54.10.895,Main,2022.1.1,60.04707687527463,
negative,blue,1,None,k,,,,,,,,,0,49,49,49,,,,,,,,,,,,,,,,,main,k,k,1,0.7492539000231773,299.7424474998843,None,None,0,,,,,,,,,,,,,,105,2023-03-29_18h54.10.895,Main,2022.1.1,60.04707687527463,
positive,yellow,2,None,k,,,,,,,,,0,50,50,50,,,,,,,,,,,,,,,,,main,k,k,1,0.712974000023678,301.4953224998899,None,None,0,,,,,,,,,,,,,,105,2023-03-29_18h54.10.895,Main,2022.1.1,60.04707687527463,
negative,blue,1,None,k,,,,,,,,,0,51,51,51,,,,,,,,,,,,,,,,,main,k,k,1,0.6995272000785917,303.2119092999492,None,None,0,,,,,,,,,,,,,,105,2023-03-29_18h54.10.895,Main,2022.1.1,60.04707687527463,
positive,red,2,None,None,,,,,,,,,0,52,52,52,,,,,,,,,,,,,,,,,main,None,None,1,1.4983141000848264,304.90901019982994,None,None,1,,,,,,,,,,,,,,105,2023-03-29_18h54.10.895,Main,2022.1.1,60.04707687527463,
positive,yellow,2,None,k,,,,,,,,,0,53,53,53,,,,,,,,,,,,,,,,,main,k,k,1,0.6377381000202149,307.40863740001805,None,None,0,,,,,,,,,,,,,,105,2023-03-29_18h54.10.895,Main,2022.1.1,60.04707687527463,
negative,red,2,None,None,,,,,,,,,0,54,54,54,,,,,,,,,,,,,,,,,main,None,None,1,1.4973160999361426,309.0452327998355,None,None,1,,,,,,,,,,,,,,105,2023-03-29_18h54.10.895,Main,2022.1.1,60.04707687527463,
positive,yellow,1,None,k,,,,,,,,,0,55,55,55,,,,,,,,,,,,,,,,,main,k,k,1,0.5324195998255163,311.54520349996164,None,None,0,,,,,,,,,,,,,,105,2023-03-29_18h54.10.895,Main,2022.1.1,60.04707687527463,
negative,blue,2,None,k,,,,,,,,,0,56,56,56,,,,,,,,,,,,,,,,,main,k,k,1,0.5296530001796782,313.07846869993955,None,None,0,,,,,,,,,,,,,,105,2023-03-29_18h54.10.895,Main,2022.1.1,60.04707687527463,
positive,blue,1,k,None,,,,,,,,,0,57,57,57,,,,,,,,,,,,,,,,,main,None,None,1,1.501894700108096,314.6087379998062,None,None,1,,,,,,,,,,,,,,105,2023-03-29_18h54.10.895,Main,2022.1.1,60.04707687527463,
positive,blue,1,k,None,,,,,,,,,0,58,58,58,,,,,,,,,,,,,,,,,main,None,None,1,1.4988711001351476,317.1115645999089,None,None,1,,,,,,,,,,,,,,105,2023-03-29_18h54.10.895,Main,2022.1.1,60.04707687527463,
negative,yellow,2,k,None,,,,,,,,,0,59,59,59,,,,,,,,,,,,,,,,,main,None,None,1,1.4992410999257118,319.6115331000183,None,None,1,,,,,,,,,,,,,,105,2023-03-29_18h54.10.895,Main,2022.1.1,60.04707687527463,
positive,red,2,None,None,,,,,,,,,0,60,60,60,,,,,,,,,,,,,,,,,main,None,None,1,1.4993511999491602,322.10866669984534,None,None,1,,,,,,,,,,,,,,105,2023-03-29_18h54.10.895,Main,2022.1.1,60.04707687527463,
negative,yellow,1,k,None,,,,,,,,,0,61,61,61,,,,,,,,,,,,,,,,,main,None,None,1,1.4956437000073493,324.61147599993274,None,None,1,,,,,,,,,,,,,,105,2023-03-29_18h54.10.895,Main,2022.1.1,60.04707687527463,
negative,red,1,None,None,,,,,,,,,0,62,62,62,,,,,,,,,,,,,,,,,main,None,None,1,1.502367899985984,327.1082458999008,None,None,1,,,,,,,,,,,,,,105,2023-03-29_18h54.10.895,Main,2022.1.1,60.04707687527463,
negative,blue,1,None,k,,,,,,,,,0,63,63,63,,,,,,,,,,,,,,,,,main,k,k,1,0.6632487000897527,329.6115401999559,None,None,0,,,,,,,,,,,,,,105,2023-03-29_18h54.10.895,Main,2022.1.1,60.04707687527463,
positive,blue,2,k,None,,,,,,,,,0,64,64,64,,,,,,,,,,,,,,,,,main,None,None,1,1.501584299840033,331.2780225998722,None,None,1,,,,,,,,,,,,,,105,2023-03-29_18h54.10.895,Main,2022.1.1,60.04707687527463,
negative,yellow,2,k,None,,,,,,,,,0,65,65,65,,,,,,,,,,,,,,,,,main,None,None,1,1.4991202999372035,333.7779899998568,None,None,1,,,,,,,,,,,,,,105,2023-03-29_18h54.10.895,Main,2022.1.1,60.04707687527463,
positive,yellow,2,None,k,,,,,,,,,0,66,66,66,,,,,,,,,,,,,,,,,main,k,k,1,0.5660554000642151,336.2749807999935,None,None,0,,,,,,,,,,,,,,105,2023-03-29_18h54.10.895,Main,2022.1.1,60.04707687527463,
positive,yellow,2,None,k,,,,,,,,,0,67,67,67,,,,,,,,,,,,,,,,,main,k,k,1,0.6130206999368966,337.84443649998866,None,None,0,,,,,,,,,,,,,,105,2023-03-29_18h54.10.895,Main,2022.1.1,60.04707687527463,
positive,red,1,None,None,,,,,,,,,0,68,68,68,,,,,,,,,,,,,,,,,main,None,None,1,1.499323499854654,339.4611068998929,None,None,1,,,,,,,,,,,,,,105,2023-03-29_18h54.10.895,Main,2022.1.1,60.04707687527463,
positive,yellow,1,None,k,,,,,,,,,0,69,69,69,,,,,,,,,,,,,,,,,main,k,k,1,0.6158596000168473,341.9582314998843,None,None,0,,,,,,,,,,,,,,105,2023-03-29_18h54.10.895,Main,2022.1.1,60.04707687527463,
negative,yellow,2,k,None,,,,,,,,,0,70,70,70,,,,,,,,,,,,,,,,,main,None,None,1,1.501638200134039,343.5748755999375,None,None,1,,,,,,,,,,,,,,105,2023-03-29_18h54.10.895,Main,2022.1.1,60.04707687527463,
positive,yellow,1,None,k,,,,,,,,,0,71,71,71,,,,,,,,,,,,,,,,,main,k,k,1,0.5033533000387251,346.07768059987575,None,None,0,,,,,,,,,,,,,,105,2023-03-29_18h54.10.895,Main,2022.1.1,60.04707687527463,
negative,blue,1,None,k,,,,,,,,,0,72,72,72,,,,,,,,,,,,,,,,,main,k,k,1,0.6754211999941617,347.58648399985395,None,None,0,,,,,,,,,,,,,,105,2023-03-29_18h54.10.895,Main,2022.1.1,60.04707687527463,
negative,red,2,None,None,,,,,,,,,0,73,73,73,,,,,,,,,,,,,,,,,main,None,None,1,1.5021507001947612,349.25779139995575,None,None,1,,,,,,,,,,,,,,105,2023-03-29_18h54.10.895,Main,2022.1.1,60.04707687527463,
positive,blue,2,k,None,,,,,,,,,0,74,74,74,,,,,,,,,,,,,,,,,main,None,None,1,1.4992948002181947,351.7611065998208,None,None,1,,,,,,,,,,,,,,105,2023-03-29_18h54.10.895,Main,2022.1.1,60.04707687527463,
negative,blue,2,None,k,,,,,,,,,0,75,75,75,,,,,,,,,,,,,,,,,main,k,k,1,0.6465821000747383,354.2610394000076,None,None,0,,,,,,,,,,,,,,105,2023-03-29_18h54.10.895,Main,2022.1.1,60.04707687527463,
negative,blue,2,None,k,,,,,,,,,0,76,76,76,,,,,,,,,,,,,,,,,main,k,k,1,0.6157826001290232,355.91094619990326,None,None,0,,,,,,,,,,,,,,105,2023-03-29_18h54.10.895,Main,2022.1.1,60.04707687527463,
negative,yellow,1,k,None,,,,,,,,,0,77,77,77,,,,,,,,,,,,,,,,,main,None,None,1,1.5004650000482798,357.5246823998168,None,None,1,,,,,,,,,,,,,,105,2023-03-29_18h54.10.895,Main,2022.1.1,60.04707687527463,
positive,blue,1,k,None,,,,,,,,,0,78,78,78,,,,,,,,,,,,,,,,,main,None,None,1,1.4983814000152051,360.02732179989107,None,None,1,,,,,,,,,,,,,,105,2023-03-29_18h54.10.895,Main,2022.1.1,60.04707687527463,
positive,blue,1,k,None,,,,,,,,,0,79,79,79,,,,,,,,,,,,,,,,,main,None,None,1,1.4985170001164079,362.52450689999387,None,None,1,,,,,,,,,,,,,,105,2023-03-29_18h54.10.895,Main,2022.1.1,60.04707687527463,
positive,red,2,None,None,,,,,,,,,0,80,80,80,,,,,,,,,,,,,,,,,main,None,None,1,1.4955118000507355,365.02737909997813,None,None,1,,,,,,,,,,,,,,105,2023-03-29_18h54.10.895,Main,2022.1.1,60.04707687527463,
positive,yellow,2,None,k,,,,,,,,,0,81,81,81,,,,,,,,,,,,,,,,,main,k,k,1,0.5986570999957621,367.52733980002813,None,None,0,,,,,,,,,,,,,,105,2023-03-29_18h54.10.895,Main,2022.1.1,60.04707687527463,
positive,blue,1,k,None,,,,,,,,,0,82,82,82,,,,,,,,,,,,,,,,,main,None,None,1,1.4986777000594884,369.12445289990865,None,None,1,,,,,,,,,,,,,,105,2023-03-29_18h54.10.895,Main,2022.1.1,60.04707687527463,
negative,yellow,2,k,None,,,,,,,,,0,83,83,83,,,,,,,,,,,,,,,,,main,None,None,1,1.5025621999520808,371.62402580003254,None,None,1,,,,,,,,,,,,,,105,2023-03-29_18h54.10.895,Main,2022.1.1,60.04707687527463,
positive,blue,2,k,None,,,,,,,,,0,84,84,84,,,,,,,,,,,,,,,,,main,None,None,1,1.499023700132966,374.1272646000143,None,None,1,,,,,,,,,,,,,,105,2023-03-29_18h54.10.895,Main,2022.1.1,60.04707687527463,
positive,yellow,1,None,k,,,,,,,,,0,85,85,85,,,,,,,,,,,,,,,,,main,k,k,1,0.5490834999363869,376.6271025999449,None,None,0,,,,,,,,,,,,,,105,2023-03-29_18h54.10.895,Main,2022.1.1,60.04707687527463,
positive,blue,2,k,None,,,,,,,,,0,86,86,86,,,,,,,,,,,,,,,,,main,None,None,1,1.4958399999886751,378.17702739988454,None,None,1,,,,,,,,,,,,,,105,2023-03-29_18h54.10.895,Main,2022.1.1,60.04707687527463,
positive,blue,1,k,None,,,,,,,,,0,87,87,87,,,,,,,,,,,,,,,,,main,None,None,1,1.5023831999860704,380.673819599906,None,None,1,,,,,,,,,,,,,,105,2023-03-29_18h54.10.895,Main,2022.1.1,60.04707687527463,
negative,yellow,2,k,None,,,,,,,,,0,88,88,88,,,,,,,,,,,,,,,,,main,None,None,1,1.4992269000504166,383.17414799984545,None,None,1,,,,,,,,,,,,,,105,2023-03-29_18h54.10.895,Main,2022.1.1,60.04707687527463,
negative,blue,2,None,k,,,,,,,,,0,89,89,89,,,,,,,,,,,,,,,,,main,k,k,1,0.6159008000977337,385.6741249000188,None,None,0,,,,,,,,,,,,,,105,2023-03-29_18h54.10.895,Main,2022.1.1,60.04707687527463,
positive,yellow,2,None,k,,,,,,,,,0,90,90,90,,,,,,,,,,,,,,,,,main,k,k,1,0.7156018000096083,387.2935773998033,None,None,0,,,,,,,,,,,,,,105,2023-03-29_18h54.10.895,Main,2022.1.1,60.04707687527463,
negative,yellow,1,k,None,,,,,,,,,0,91,91,91,,,,,,,,,,,,,,,,,main,None,None,1,1.4961672998033464,389.00723879993893,None,None,1,,,,,,,,,,,,,,105,2023-03-29_18h54.10.895,Main,2022.1.1,60.04707687527463,
negative,red,2,None,None,,,,,,,,,0,92,92,92,,,,,,,,,,,,,,,,,main,None,None,1,1.501996099948883,391.5072300999891,None,None,1,,,,,,,,,,,,,,105,2023-03-29_18h54.10.895,Main,2022.1.1,60.04707687527463,
negative,blue,2,None,k,,,,,,,,,0,93,93,93,,,,,,,,,,,,,,,,,main,k,k,1,0.6299385998863727,394.01005909987725,None,None,0,,,,,,,,,,,,,,105,2023-03-29_18h54.10.895,Main,2022.1.1,60.04707687527463,
negative,blue,1,None,k,,,,,,,,,0,94,94,94,,,,,,,,,,,,,,,,,main,k,k,1,0.6186798999551684,395.6404857998714,None,None,0,,,,,,,,,,,,,,105,2023-03-29_18h54.10.895,Main,2022.1.1,60.04707687527463,
negative,blue,1,None,k,,,,,,,,,0,95,95,95,,,,,,,,,,,,,,,,,main,k,k,1,0.5297496998682618,397.2571415998973,None,None,0,,,,,,,,,,,,,,105,2023-03-29_18h54.10.895,Main,2022.1.1,60.04707687527463,
negative,red,1,None,None,,,,,,,,,0,96,96,96,,,,,,,,,,,,,,,,,main,None,None,1,1.5014893000479788,398.79338519996963,None,None,1,,,,,,,,,,,,,,105,2023-03-29_18h54.10.895,Main,2022.1.1,60.04707687527463,
positive,yellow,1,None,k,,,,,,,,,0,97,97,97,,,,,,,,,,,,,,,,,main,k,k,1,0.6629037999082357,401.29040119983256,None,None,0,,,,,,,,,,,,,,105,2023-03-29_18h54.10.895,Main,2022.1.1,60.04707687527463,
negative,yellow,1,k,None,,,,,,,,,0,98,98,98,,,,,,,,,,,,,,,,,main,None,None,1,1.5021895999088883,402.9567274998408,None,None,1,,,,,,,,,,,,,,105,2023-03-29_18h54.10.895,Main,2022.1.1,60.04707687527463,
positive,red,1,None,None,,,,,,,,,0,99,99,99,,,,,,,,,,,,,,,,,main,None,None,1,1.4990719000343233,405.4598734998144,None,None,1,,,,,,,,,,,,,,105,2023-03-29_18h54.10.895,Main,2022.1.1,60.04707687527463,
positive,blue,1,k,None,,,,,,,,,0,100,100,100,,,,,,,,,,,,,,,,,main,None,None,1,1.498600000049919,407.9599232999608,None,None,1,,,,,,,,,,,,,,105,2023-03-29_18h54.10.895,Main,2022.1.1,60.04707687527463,
negative,yellow,1,k,None,,,,,,,,,0,101,101,101,,,,,,,,,,,,,,,,,main,None,None,1,1.4965787997934967,410.4639532000292,None,None,1,,,,,,,,,,,,,,105,2023-03-29_18h54.10.895,Main,2022.1.1,60.04707687527463,
negative,blue,2,None,k,,,,,,,,,0,102,102,102,,,,,,,,,,,,,,,,,main,k,k,1,0.6026628001127392,412.9565663000103,None,None,0,,,,,,,,,,,,,,105,2023-03-29_18h54.10.895,Main,2022.1.1,60.04707687527463,
negative,yellow,2,k,None,,,,,,,,,0,103,103,103,,,,,,,,,,,,,,,,,main,None,None,1,1.4987345000263304,414.55688449996524,None,None,1,,,,,,,,,,,,,,105,2023-03-29_18h54.10.895,Main,2022.1.1,60.04707687527463,
positive,yellow,2,None,k,,,,,,,,,0,104,104,104,,,,,,,,,,,,,,,,,main,k,k,1,0.49926859978586435,417.05973330000415,None,None,0,,,,,,,,,,,,,,105,2023-03-29_18h54.10.895,Main,2022.1.1,60.04707687527463,
positive,blue,1,k,None,,,,,,,,,0,105,105,105,,,,,,,,,,,,,,,,,main,None,None,1,1.4989073001779616,418.5595467998646,None,None,1,,,,,,,,,,,,,,105,2023-03-29_18h54.10.895,Main,2022.1.1,60.04707687527463,
positive,blue,2,k,None,,,,,,,,,0,106,106,106,,,,,,,,,,,,,,,,,main,None,None,1,1.499153799843043,421.0565794999711,None,None,1,,,,,,,,,,,,,,105,2023-03-29_18h54.10.895,Main,2022.1.1,60.04707687527463,
negative,blue,1,None,k,,,,,,,,,0,107,107,107,,,,,,,,,,,,,,,,,main,k,k,1,0.6470323998946697,423.5565902998205,None,None,0,,,,,,,,,,,,,,105,2023-03-29_18h54.10.895,Main,2022.1.1,60.04707687527463,
positive,yellow,2,None,k,,,,,,,,,0,108,108,108,,,,,,,,,,,,,,,,,main,k,k,1,0.6184382999781519,425.20947159989737,None,None,0,,,,,,,,,,,,,,105,2023-03-29_18h54.10.895,Main,2022.1.1,60.04707687527463,
negative,yellow,1,k,None,,,,,,,,,0,109,109,109,,,,,,,,,,,,,,,,,main,None,None,1,1.4988285000436008,426.82334619993344,None,None,1,,,,,,,,,,,,,,105,2023-03-29_18h54.10.895,Main,2022.1.1,60.04707687527463,
negative,blue,2,None,k,,,,,,,,,0,110,110,110,,,,,,,,,,,,,,,,,main,k,k,1,0.6131754999514669,429.3231593000237,None,None,0,,,,,,,,,,,,,,105,2023-03-29_18h54.10.895,Main,2022.1.1,60.04707687527463,
positive,blue,2,k,None,,,,,,,,,0,111,111,111,,,,,,,,,,,,,,,,,main,None,None,1,1.4983751000836492,430.9427331998013,None,None,1,,,,,,,,,,,,,,105,2023-03-29_18h54.10.895,Main,2022.1.1,60.04707687527463,
negative,blue,1,None,k,,,,,,,,,0,112,112,112,,,,,,,,,,,,,,,,,main,k,k,1,0.635956299956888,433.43941009999253,None,None,0,,,,,,,,,,,,,,105,2023-03-29_18h54.10.895,Main,2022.1.1,60.04707687527463,
positive,yellow,1,None,k,,,,,,,,,0,113,113,113,,,,,,,,,,,,,,,,,main,k,k,1,0.599235099973157,435.0760154000018,None,None,0,,,,,,,,,,,,,,105,2023-03-29_18h54.10.895,Main,2022.1.1,60.04707687527463,
negative,red,1,None,None,,,,,,,,,0,114,114,114,,,,,,,,,,,,,,,,,main,None,None,1,1.4992168999742717,436.67587449983694,None,None,1,,,,,,,,,,,,,,105,2023-03-29_18h54.10.895,Main,2022.1.1,60.04707687527463,
positive,red,1,None,None,,,,,,,,,0,115,115,115,,,,,,,,,,,,,,,,,main,None,None,1,1.4986334000714123,439.17590369982645,None,None,1,,,,,,,,,,,,,,105,2023-03-29_18h54.10.895,Main,2022.1.1,60.04707687527463,
negative,red,2,None,None,,,,,,,,,0,116,116,116,,,,,,,,,,,,,,,,,main,None,None,1,1.499200299847871,441.67290769983083,None,None,1,,,,,,,,,,,,,,105,2023-03-29_18h54.10.895,Main,2022.1.1,60.04707687527463,
negative,yellow,2,k,None,,,,,,,,,0,117,117,117,,,,,,,,,,,,,,,,,main,None,None,1,1.4964417000301182,444.17279819981195,None,None,1,,,,,,,,,,,,,,105,2023-03-29_18h54.10.895,Main,2022.1.1,60.04707687527463,
positive,yellow,1,None,k,,,,,,,,,0,118,118,118,,,,,,,,,,,,,,,,,main,k,k,1,0.51597879990004,446.6727716999594,None,None,0,,,,,,,,,,,,,,105,2023-03-29_18h54.10.895,Main,2022.1.1,60.04707687527463,
positive,red,2,None,None,,,,,,,,,0,119,119,119,,,,,,,,,,,,,,,,,main,None,None,1,1.5016746001783758,448.18942009983584,None,None,1,,,,,,,,,,,,,,105,2023-03-29_18h54.10.895,Main,2022.1.1,60.04707687527463,
positive,blue,2,k,None,,,,,,,,,0,120,120,120,,,,,,,,,,,,,,,,,main,None,None,1,1.4962998998817056,450.6893759998493,None,None,1,,,,,,,,,,,,,,105,2023-03-29_18h54.10.895,Main,2022.1.1,60.04707687527463,
negative,red,1,None,None,,,,,,,,,0,121,121,121,,,,,,,,,,,,,,,,,main,None,None,1,1.4987028997857124,453.18916079984047,None,None,1,,,,,,,,,,,,,,105,2023-03-29_18h54.10.895,Main,2022.1.1,60.04707687527463,
positive,yellow,2,None,k,,,,,,,,,0,122,122,122,,,,,,,,,,,,,,,,,main,k,k,1,0.5994401997886598,455.6889682998881,None,None,0,,,,,,,,,,,,,,105,2023-03-29_18h54.10.895,Main,2022.1.1,60.04707687527463,
negative,red,2,None,None,,,,,,,,,0,123,123,123,,,,,,,,,,,,,,,,,main,None,None,1,1.4989673998206854,457.28899000003,None,None,1,,,,,,,,,,,,,,105,2023-03-29_18h54.10.895,Main,2022.1.1,60.04707687527463,
negative,yellow,2,k,None,,,,,,,,,0,124,124,124,,,,,,,,,,,,,,,,,main,None,None,1,1.5023525999858975,459.78895989991724,None,None,1,,,,,,,,,,,,,,105,2023-03-29_18h54.10.895,Main,2022.1.1,60.04707687527463,
positive,red,1,None,None,,,,,,,,,0,125,125,125,,,,,,,,,,,,,,,,,main,None,None,1,1.4990900000557303,462.29216860001907,None,None,1,,,,,,,,,,,,,,105,2023-03-29_18h54.10.895,Main,2022.1.1,60.04707687527463,
negative,blue,2,None,k,,,,,,,,,0,126,126,126,,,,,,,,,,,,,,,,,main,k,k,1,0.5633565001189709,464.7921456999611,None,None,0,,,,,,,,,,,,,,105,2023-03-29_18h54.10.895,Main,2022.1.1,60.04707687527463,
negative,blue,1,None,k,,,,,,,,,0,127,127,127,,,,,,,,,,,,,,,,,main,k,k,1,0.632079100003466,466.3585630999878,None,None,0,,,,,,,,,,,,,,105,2023-03-29_18h54.10.895,Main,2022.1.1,60.04707687527463,
negative,yellow,1,k,None,,,,,,,,,0,128,128,128,,,,,,,,,,,,,,,,,main,None,None,1,1.5021535998675972,467.9887176998891,None,None,1,,,,,,,,,,,,,,105,2023-03-29_18h54.10.895,Main,2022.1.1,60.04707687527463,
negative,yellow,1,k,None,,,,,,,,,0,129,129,129,,,,,,,,,,,,,,,,,main,None,None,1,1.4991692998446524,470.4919988999609,None,None,1,,,,,,,,,,,,,,105,2023-03-29_18h54.10.895,Main,2022.1.1,60.04707687527463,
positive,blue,1,k,None,,,,,,,,,0,130,130,130,,,,,,,,,,,,,,,,,main,None,None,1,1.4989589999895543,472.99182410002686,None,None,1,,,,,,,,,,,,,,105,2023-03-29_18h54.10.895,Main,2022.1.1,60.04707687527463,
negative,blue,1,None,k,,,,,,,,,0,131,131,131,,,,,,,,,,,,,,,,,main,k,k,1,0.6132233000826091,475.49176279990934,None,None,0,,,,,,,,,,,,,,105,2023-03-29_18h54.10.895,Main,2022.1.1,60.04707687527463,
negative,blue,2,None,k,,,,,,,,,0,132,132,132,,,,,,,,,,,,,,,,,main,k,k,1,0.569128500064835,477.10838959994726,None,None,0,,,,,,,,,,,,,,105,2023-03-29_18h54.10.895,Main,2022.1.1,60.04707687527463,
positive,blue,2,k,None,,,,,,,,,0,133,133,133,,,,,,,,,,,,,,,,,main,None,None,1,1.4986511999741197,478.672106300015,None,None,1,,,,,,,,,,,,,,105,2023-03-29_18h54.10.895,Main,2022.1.1,60.04707687527463,
positive,red,2,None,None,,,,,,,,,0,134,134,134,,,,,,,,,,,,,,,,,main,None,None,1,1.4991870000958443,481.1720971998293,None,None,1,,,,,,,,,,,,,,105,2023-03-29_18h54.10.895,Main,2022.1.1,60.04707687527463,
negative,yellow,2,k,None,,,,,,,,,0,135,135,135,,,,,,,,,,,,,,,,,main,None,None,1,1.4991055000573397,483.67498909984715,None,None,1,,,,,,,,,,,,,,105,2023-03-29_18h54.10.895,Main,2022.1.1,60.04707687527463,
positive,yellow,2,None,k,,,,,,,,,0,136,136,136,,,,,,,,,,,,,,,,,main,k,k,1,0.4662838999647647,486.1748183998279,None,None,0,,,,,,,,,,,,,,105,2023-03-29_18h54.10.895,Main,2022.1.1,60.04707687527463,
positive,blue,1,k,None,,,,,,,,,0,137,137,137,,,,,,,,,,,,,,,,,main,None,None,1,1.4957246000412852,487.64154409989715,None,None,1,,,,,,,,,,,,,,105,2023-03-29_18h54.10.895,Main,2022.1.1,60.04707687527463,
positive,yellow,1,None,k,,,,,,,,,0,138,138,138,,,,,,,,,,,,,,,,,main,k,k,1,0.6661884998902678,490.1382629999425,None,None,0,,,,,,,,,,,,,,105,2023-03-29_18h54.10.895,Main,2022.1.1,60.04707687527463,
positive,yellow,1,None,k,,,,,,,,,0,139,139,139,,,,,,,,,,,,,,,,,main,k,k,1,0.5495327999815345,491.80822909995914,None,None,0,,,,,,,,,,,,,,105,2023-03-29_18h54.10.895,Main,2022.1.1,60.04707687527463,
positive,yellow,1,None,k,,,,,,,,,0,140,140,140,,,,,,,,,,,,,,,,,main,k,k,1,0.46871619997546077,493.3581099000294,None,None,0,,,,,,,,,,,,,,105,2023-03-29_18h54.10.895,Main,2022.1.1,60.04707687527463,
positive,blue,1,k,None,,,,,,,,,0,141,141,141,,,,,,,,,,,,,,,,,main,None,None,1,1.4988895000424236,494.82190410001203,None,None,1,,,,,,,,,,,,,,105,2023-03-29_18h54.10.895,Main,2022.1.1,60.04707687527463,
positive,blue,2,k,None,,,,,,,,,0,142,142,142,,,,,,,,,,,,,,,,,main,None,None,1,1.496402099961415,497.32467989996076,None,None,1,,,,,,,,,,,,,,105,2023-03-29_18h54.10.895,Main,2022.1.1,60.04707687527463,
positive,yellow,2,None,k,,,,,,,,,0,143,143,143,,,,,,,,,,,,,,,,,main,k,k,1,0.6827195999212563,499.82445900002494,None,None,0,,,,,,,,,,,,,,105,2023-03-29_18h54.10.895,Main,2022.1.1,60.04707687527463,
negative,yellow,2,k,None,,,,,,,,,0,144,144,144,,,,,,,,,,,,,,,,,main,None,None,1,1.4987488000188023,501.5050957999192,None,None,1,,,,,,,,,,,,,,105,2023-03-29_18h54.10.895,Main,2022.1.1,60.04707687527463,
negative,blue,2,None,k,,,,,,,,,0,145,145,145,,,,,,,,,,,,,,,,,main,k,k,1,0.6494095001835376,504.0049389000051,None,None,0,,,,,,,,,,,,,,105,2023-03-29_18h54.10.895,Main,2022.1.1,60.04707687527463,
negative,red,1,None,None,,,,,,,,,0,146,146,146,,,,,,,,,,,,,,,,,main,None,None,1,1.49905230011791,505.6549161998555,None,None,1,,,,,,,,,,,,,,105,2023-03-29_18h54.10.895,Main,2022.1.1,60.04707687527463,
positive,blue,1,k,None,,,,,,,,,0,147,147,147,,,,,,,,,,,,,,,,,main,None,None,1,1.5019163000397384,508.1577498000115,None,None,1,,,,,,,,,,,,,,105,2023-03-29_18h54.10.895,Main,2022.1.1,60.04707687527463,
positive,yellow,1,None,k,,,,,,,,,0,148,148,148,,,,,,,,,,,,,,,,,main,k,k,1,0.5960899000056088,510.657659499906,None,None,0,,,,,,,,,,,,,,105,2023-03-29_18h54.10.895,Main,2022.1.1,60.04707687527463,
negative,red,2,None,None,,,,,,,,,0,149,149,149,,,,,,,,,,,,,,,,,main,None,None,1,1.502133599948138,512.2544874998275,None,None,1,,,,,,,,,,,,,,105,2023-03-29_18h54.10.895,Main,2022.1.1,60.04707687527463,
negative,blue,1,None,k,,,,,,,,,0,150,150,150,,,,,,,,,,,,,,,,,main,k,k,1,0.6465843000914901,514.7576301998924,None,None,0,,,,,,,,,,,,,,105,2023-03-29_18h54.10.895,Main,2022.1.1,60.04707687527463,
negative,yellow,2,k,None,,,,,,,,,0,151,151,151,,,,,,,,,,,,,,,,,main,None,None,1,1.5017556000966579,516.4076318999287,None,None,1,,,,,,,,,,,,,,105,2023-03-29_18h54.10.895,Main,2022.1.1,60.04707687527463,
negative,blue,2,None,k,,,,,,,,,0,152,152,152,,,,,,,,,,,,,,,,,main,k,k,1,0.6132219999562949,518.9076549999882,None,None,0,,,,,,,,,,,,,,105,2023-03-29_18h54.10.895,Main,2022.1.1,60.04707687527463,
negative,yellow,1,k,None,,,,,,,,,0,153,153,153,,,,,,,,,,,,,,,,,main,None,None,1,1.5017392998561263,520.521248199977,None,None,1,,,,,,,,,,,,,,105,2023-03-29_18h54.10.895,Main,2022.1.1,60.04707687527463,
negative,blue,1,None,k,,,,,,,,,0,154,154,154,,,,,,,,,,,,,,,,,main,k,k,1,0.5132251000031829,523.0212161999661,None,None,0,,,,,,,,,,,,,,105,2023-03-29_18h54.10.895,Main,2022.1.1,60.04707687527463,
positive,yellow,2,None,k,,,,,,,,,0,155,155,155,,,,,,,,,,,,,,,,,main,k,k,1,0.5656463999766856,524.5379049999174,None,None,0,,,,,,,,,,,,,,105,2023-03-29_18h54.10.895,Main,2022.1.1,60.04707687527463,
positive,red,2,None,None,,,,,,,,,0,156,156,156,,,,,,,,,,,,,,,,,main,None,None,1,1.4991146000102162,526.1072835000232,None,None,1,,,,,,,,,,,,,,105,2023-03-29_18h54.10.895,Main,2022.1.1,60.04707687527463,
positive,red,1,None,None,,,,,,,,,0,157,157,157,,,,,,,,,,,,,,,,,main,None,None,1,1.4989626000169665,528.6044769999571,None,None,1,,,,,,,,,,,,,,105,2023-03-29_18h54.10.895,Main,2022.1.1,60.04707687527463,
positive,blue,2,k,None,,,,,,,,,0,158,158,158,,,,,,,,,,,,,,,,,main,None,None,1,1.4990085000172257,531.1073063998483,None,None,1,,,,,,,,,,,,,,105,2023-03-29_18h54.10.895,Main,2022.1.1,60.04707687527463,
negative,yellow,1,k,None,,,,,,,,,0,159,159,159,,,,,,,,,,,,,,,,,main,None,None,1,1.499101100023836,533.6040629998315,None,None,1,,,,,,,,,,,,,,105,2023-03-29_18h54.10.895,Main,2022.1.1,60.04707687527463,
negative,red,2,None,None,,,,,,,,,0,160,160,160,,,,,,,,,,,,,,,,,main,None,None,1,1.5026612000074238,536.1072343999986,None,None,1,,,,,,,,,,,,,,105,2023-03-29_18h54.10.895,Main,2022.1.1,60.04707687527463,
negative,blue,1,None,k,,,,,,,,,0,161,161,161,,,,,,,,,,,,,,,,,main,k,k,1,0.4953709999099374,538.6072458999697,None,None,0,,,,,,,,,,,,,,105,2023-03-29_18h54.10.895,Main,2022.1.1,60.04707687527463,
negative,blue,1,None,k,,,,,,,,,0,162,162,162,,,,,,,,,,,,,,,,,main,k,k,1,0.46594389993697405,540.1043271999806,None,None,0,,,,,,,,,,,,,,105,2023-03-29_18h54.10.895,Main,2022.1.1,60.04707687527463,
negative,yellow,1,k,None,,,,,,,,,0,163,163,163,,,,,,,,,,,,,,,,,main,None,None,1,1.50165869994089,541.5710006998852,None,None,1,,,,,,,,,,,,,,105,2023-03-29_18h54.10.895,Main,2022.1.1,60.04707687527463,
negative,yellow,1,k,None,,,,,,,,,0,164,164,164,,,,,,,,,,,,,,,,,main,None,None,1,1.499244000064209,544.0707546998747,None,None,1,,,,,,,,,,,,,,105,2023-03-29_18h54.10.895,Main,2022.1.1,60.04707687527463,
positive,yellow,1,None,k,,,,,,,,,0,165,165,165,,,,,,,,,,,,,,,,,main,k,k,1,0.5166668999008834,546.5707617998123,None,None,0,,,,,,,,,,,,,,105,2023-03-29_18h54.10.895,Main,2022.1.1,60.04707687527463,
negative,red,1,None,None,,,,,,,,,0,166,166,166,,,,,,,,,,,,,,,,,main,None,None,1,1.4974651001393795,548.0874528000131,None,None,1,,,,,,,,,,,,,,105,2023-03-29_18h54.10.895,Main,2022.1.1,60.04707687527463,
negative,yellow,2,k,None,,,,,,,,,0,167,167,167,,,,,,,,,,,,,,,,,main,None,None,1,1.4985521999187768,550.5902085998096,None,None,1,,,,,,,,,,,,,,105,2023-03-29_18h54.10.895,Main,2022.1.1,60.04707687527463,
positive,blue,2,k,None,,,,,,,,,0,168,168,168,,,,,,,,,,,,,,,,,main,None,None,1,1.4950176000129431,553.08733140002,None,None,1,,,,,,,,,,,,,,105,2023-03-29_18h54.10.895,Main,2022.1.1,60.04707687527463,
positive,red,2,None,None,,,,,,,,,0,169,169,169,,,,,,,,,,,,,,,,,main,None,None,1,1.498417800059542,555.586953099817,None,None,1,,,,,,,,,,,,,,105,2023-03-29_18h54.10.895,Main,2022.1.1,60.04707687527463,
positive,red,1,None,None,,,,,,,,,0,170,170,170,,,,,,,,,,,,,,,,,main,None,None,1,1.501466500107199,558.0869652999099,None,None,1,,,,,,,,,,,,,,105,2023-03-29_18h54.10.895,Main,2022.1.1,60.04707687527463,
negative,blue,2,None,k,,,,,,,,,0,171,171,171,,,,,,,,,,,,,,,,,main,k,k,1,0.6986246998421848,560.5900552999228,None,None,0,,,,,,,,,,,,,,105,2023-03-29_18h54.10.895,Main,2022.1.1,60.04707687527463,
positive,blue,2,k,None,,,,,,,,,0,172,172,172,,,,,,,,,,,,,,,,,main,None,None,1,1.4959112999495119,562.2900916999206,None,None,1,,,,,,,,,,,,,,105,2023-03-29_18h54.10.895,Main,2022.1.1,60.04707687527463,
negative,yellow,2,k,None,,,,,,,,,0,173,173,173,,,,,,,,,,,,,,,,,main,None,None,1,1.5006575998850167,564.7869980998803,None,None,1,,,,,,,,,,,,,,105,2023-03-29_18h54.10.895,Main,2022.1.1,60.04707687527463,
positive,yellow,2,None,k,,,,,,,,,0,174,174,174,,,,,,,,,,,,,,,,,main,k,k,1,0.4645650000311434,567.2869813998695,None,None,0,,,,,,,,,,,,,,105,2023-03-29_18h54.10.895,Main,2022.1.1,60.04707687527463,
negative,blue,2,None,k,,,,,,,,,0,175,175,175,,,,,,,,,,,,,,,,,main,k,k,1,0.6354415998794138,568.7564485999756,None,None,0,,,,,,,,,,,,,,105,2023-03-29_18h54.10.895,Main,2022.1.1,60.04707687527463,
positive,blue,1,k,None,,,,,,,,,0,176,176,176,,,,,,,,,,,,,,,,,main,None,None,1,1.4961607998702675,570.3870710998308,None,None,1,,,,,,,,,,,,,,105,2023-03-29_18h54.10.895,Main,2022.1.1,60.04707687527463,
positive,yellow,1,None,k,,,,,,,,,0,177,177,177,,,,,,,,,,,,,,,,,main,k,k,1,0.6992381999734789,572.8897174999584,None,None,0,,,,,,,,,,,,,,105,2023-03-29_18h54.10.895,Main,2022.1.1,60.04707687527463,
positive,blue,1,k,None,,,,,,,,,0,178,178,178,,,,,,,,,,,,,,,,,main,None,None,1,1.5014820999931544,574.5868746999186,None,None,1,,,,,,,,,,,,,,105,2023-03-29_18h54.10.895,Main,2022.1.1,60.04707687527463,
positive,yellow,2,None,k,,,,,,,,,0,179,179,179,,,,,,,,,,,,,,,,,main,k,k,1,0.730151099851355,577.0896958999801,None,None,0,,,,,,,,,,,,,,105,2023-03-29_18h54.10.895,Main,2022.1.1,60.04707687527463,
positive,blue,1,k,None,,,,,,,,,0,180,180,180,,,,,,,,,,,,,,,,,main,None,None,1,1.5014730000402778,578.8198253998999,None,None,1,,,,,,,,,,,,,,105,2023-03-29_18h54.10.895,Main,2022.1.1,60.04707687527463,
negative,red,1,None,None,,,,,,,,,0,181,181,181,,,,,,,,,,,,,,,,,main,None,None,1,1.496355300070718,581.3229487999342,None,None,1,,,,,,,,,,,,,,105,2023-03-29_18h54.10.895,Main,2022.1.1,60.04707687527463,
negative,blue,1,None,k,,,,,,,,,0,182,182,182,,,,,,,,,,,,,,,,,main,k,k,1,0.5689474998507649,583.8229678999633,None,None,0,,,,,,,,,,,,,,105,2023-03-29_18h54.10.895,Main,2022.1.1,60.04707687527463,
negative,yellow,2,k,None,,,,,,,,,0,183,183,183,,,,,,,,,,,,,,,,,main,None,None,1,1.4956594998948276,585.3896776000038,None,None,1,,,,,,,,,,,,,,105,2023-03-29_18h54.10.895,Main,2022.1.1,60.04707687527463,
positive,yellow,2,None,k,,,,,,,,,0,184,184,184,,,,,,,,,,,,,,,,,main,k,k,1,0.516311300219968,587.886290299939,None,None,0,,,,,,,,,,,,,,105,2023-03-29_18h54.10.895,Main,2022.1.1,60.04707687527463,
positive,yellow,1,None,k,,,,,,,,,0,185,185,185,,,,,,,,,,,,,,,,,main,k,k,1,0.5193638000637293,589.4029856999405,None,None,0,,,,,,,,,,,,,,105,2023-03-29_18h54.10.895,Main,2022.1.1,60.04707687527463,
positive,red,2,None,None,,,,,,,,,0,186,186,186,,,,,,,,,,,,,,,,,main,None,None,1,1.4986215999815613,590.922882999992,None,None,1,,,,,,,,,,,,,,105,2023-03-29_18h54.10.895,Main,2022.1.1,60.04707687527463,
positive,blue,1,k,None,,,,,,,,,0,187,187,187,,,,,,,,,,,,,,,,,main,None,None,1,1.49931660015136,593.4228492998518,None,None,1,,,,,,,,,,,,,,105,2023-03-29_18h54.10.895,Main,2022.1.1,60.04707687527463,
negative,yellow,1,k,None,,,,,,,,,0,188,188,188,,,,,,,,,,,,,,,,,main,None,None,1,1.4987478000111878,595.9226402998902,None,None,1,,,,,,,,,,,,,,105,2023-03-29_18h54.10.895,Main,2022.1.1,60.04707687527463,
positive,yellow,2,None,k,,,,,,,,,0,189,189,189,,,,,,,,,,,,,,,,,main,k,k,1,0.5344728999771178,598.4225049000233,None,None,0,,,,,,,,,,,,,,105,2023-03-29_18h54.10.895,Main,2022.1.1,60.04707687527463,
negative,yellow,2,k,None,,,,,,,,,0,190,190,190,,,,,,,,,,,,,,,,,main,None,None,1,1.4973536999896169,599.9529818999581,None,None,1,,,,,,,,,,,,,,105,2023-03-29_18h54.10.895,Main,2022.1.1,60.04707687527463,
negative,yellow,1,k,None,,,,,,,,,0,191,191,191,,,,,,,,,,,,,,,,,main,None,None,1,1.499240699922666,602.455759699922,None,None,1,,,,,,,,,,,,,,105,2023-03-29_18h54.10.895,Main,2022.1.1,60.04707687527463,
positive,blue,2,k,None,,,,,,,,,0,192,192,192,,,,,,,,,,,,,,,,,main,None,None,1,1.499181600054726,604.9559002998285,None,None,1,,,,,,,,,,,,,,105,2023-03-29_18h54.10.895,Main,2022.1.1,60.04707687527463,
positive,yellow,1,None,k,,,,,,,,,0,193,193,193,,,,,,,,,,,,,,,,,main,k,k,1,0.5628377001266927,607.4557270999067,None,None,0,,,,,,,,,,,,,,105,2023-03-29_18h54.10.895,Main,2022.1.1,60.04707687527463,
negative,red,2,None,None,,,,,,,,,0,194,194,194,,,,,,,,,,,,,,,,,main,None,None,1,1.4989887999836355,609.0192062000278,None,None,1,,,,,,,,,,,,,,105,2023-03-29_18h54.10.895,Main,2022.1.1,60.04707687527463,
positive,red,1,None,None,,,,,,,,,0,195,195,195,,,,,,,,,,,,,,,,,main,None,None,1,1.5024375000502914,611.5191973999608,None,None,1,,,,,,,,,,,,,,105,2023-03-29_18h54.10.895,Main,2022.1.1,60.04707687527463,
negative,blue,1,None,k,,,,,,,,,0,196,196,196,,,,,,,,,,,,,,,,,main,k,k,1,0.5995094000827521,614.0222291999962,None,None,0,,,,,,,,,,,,,,105,2023-03-29_18h54.10.895,Main,2022.1.1,60.04707687527463,
positive,blue,2,k,None,,,,,,,,,0,197,197,197,,,,,,,,,,,,,,,,,main,None,None,1,1.495828199898824,615.622238199925,None,None,1,,,,,,,,,,,,,,105,2023-03-29_18h54.10.895,Main,2022.1.1,60.04707687527463,
negative,blue,2,None,k,,,,,,,,,0,198,198,198,,,,,,,,,,,,,,,,,main,k,k,1,0.6329330001026392,618.1221280999016,None,None,0,,,,,,,,,,,,,,105,2023-03-29_18h54.10.895,Main,2022.1.1,60.04707687527463,
negative,blue,2,None,k,,,,,,,,,0,199,199,199,,,,,,,,,,,,,,,,,main,k,k,1,0.5685481000691652,619.7525943999644,None,None,0,,,,,,,,,,,,,,105,2023-03-29_18h54.10.895,Main,2022.1.1,60.04707687527463,
positive,blue,2,k,None,,,,,,,,,0,200,200,200,,,,,,,,,,,,,,,,,main,None,None,1,1.4988313000649214,621.3192306999117,None,None,1,,,,,,,,,,,,,,105,2023-03-29_18h54.10.895,Main,2022.1.1,60.04707687527463,
positive,blue,2,k,None,,,,,,,,,0,201,201,201,,,,,,,,,,,,,,,,,main,None,None,1,1.4991226999554783,623.8192195999436,None,None,1,,,,,,,,,,,,,,105,2023-03-29_18h54.10.895,Main,2022.1.1,60.04707687527463,
negative,yellow,2,k,None,,,,,,,,,0,202,202,202,,,,,,,,,,,,,,,,,main,None,None,1,1.4992432999424636,626.319150299998,None,None,1,,,,,,,,,,,,,,105,2023-03-29_18h54.10.895,Main,2022.1.1,60.04707687527463,
positive,red,1,None,None,,,,,,,,,0,203,203,203,,,,,,,,,,,,,,,,,main,None,None,1,1.4958886001259089,628.8221497000195,None,None,1,,,,,,,,,,,,,,105,2023-03-29_18h54.10.895,Main,2022.1.1,60.04707687527463,
negative,blue,2,None,k,,,,,,,,,0,204,204,204,,,,,,,,,,,,,,,,,main,k,k,1,0.6193971999455243,631.3188153998926,None,None,0,,,,,,,,,,,,,,105,2023-03-29_18h54.10.895,Main,2022.1.1,60.04707687527463,
negative,red,1,None,None,,,,,,,,,0,205,205,205,,,,,,,,,,,,,,,,,main,None,None,1,1.4987530000507832,632.9386075998191,None,None,1,,,,,,,,,,,,,,105,2023-03-29_18h54.10.895,Main,2022.1.1,60.04707687527463,
negative,blue,2,None,k,,,,,,,,,0,206,206,206,,,,,,,,,,,,,,,,,main,k,k,1,0.5494113001041114,635.4386120999698,None,None,0,,,,,,,,,,,,,,105,2023-03-29_18h54.10.895,Main,2022.1.1,60.04707687527463,
negative,yellow,2,k,None,,,,,,,,,0,207,207,207,,,,,,,,,,,,,,,,,main,None,None,1,1.495864100055769,636.9886657998431,None,None,1,,,,,,,,,,,,,,105,2023-03-29_18h54.10.895,Main,2022.1.1,60.04707687527463,
positive,yellow,2,None,k,,,,,,,,,0,208,208,208,,,,,,,,,,,,,,,,,main,k,k,1,0.43283160007558763,639.4854913000017,None,None,0,,,,,,,,,,,,,,105,2023-03-29_18h54.10.895,Main,2022.1.1,60.04707687527463,
negative,yellow,1,k,None,,,,,,,,,0,209,209,209,,,,,,,,,,,,,,,,,main,None,None,1,1.4989804001525044,640.9188196000177,None,None,1,,,,,,,,,,,,,,105,2023-03-29_18h54.10.895,Main,2022.1.1,60.04707687527463,
negative,red,2,None,None,,,,,,,,,0,210,210,210,,,,,,,,,,,,,,,,,main,None,None,1,1.5020355999004096,643.4187648999505,None,None,1,,,,,,,,,,,,,,105,2023-03-29_18h54.10.895,Main,2022.1.1,60.04707687527463,
negative,blue,1,None,k,,,,,,,,,0,211,211,211,,,,,,,,,,,,,,,,,main,k,k,1,0.6327005999628454,645.9187719000038,None,None,0,,,,,,,,,,,,,,105,2023-03-29_18h54.10.895,Main,2022.1.1,60.04707687527463,
negative,yellow,1,k,None,,,,,,,,,0,212,212,212,,,,,,,,,,,,,,,,,main,None,None,1,1.4988315999507904,647.5520814999472,None,None,1,,,,,,,,,,,,,,105,2023-03-29_18h54.10.895,Main,2022.1.1,60.04707687527463,
positive,blue,1,k,None,,,,,,,,,0,213,213,213,,,,,,,,,,,,,,,,,main,None,None,1,1.4960072999820113,650.0549101999495,None,None,1,,,,,,,,,,,,,,105,2023-03-29_18h54.10.895,Main,2022.1.1,60.04707687527463,
positive,blue,1,k,None,,,,,,,,,0,214,214,214,,,,,,,,,,,,,,,,,main,None,None,1,1.5024628001265228,652.5516661999281,None,None,1,,,,,,,,,,,,,,105,2023-03-29_18h54.10.895,Main,2022.1.1,60.04707687527463,
positive,yellow,1,None,k,,,,,,,,,0,215,215,215,,,,,,,,,,,,,,,,,main,k,k,1,0.5631774999201298,655.0548469999339,None,None,0,,,,,,,,,,,,,,105,2023-03-29_18h54.10.895,Main,2022.1.1,60.04707687527463,
positive,yellow,1,None,k,,,,,,,,,0,216,216,216,,,,,,,,,,,,,,,,,main,k,k,1,0.449068000074476,656.6186319999397,None,None,0,,,,,,,,,,,,,,105,2023-03-29_18h54.10.895,Main,2022.1.1,60.04707687527463,
positive,yellow,2,None,k,,,,,,,,,0,217,217,217,,,,,,,,,,,,,,,,,main,k,k,1,0.5030629998072982,658.0685676999856,None,None,0,,,,,,,,,,,,,,105,2023-03-29_18h54.10.895,Main,2022.1.1,60.04707687527463,
negative,blue,1,None,k,,,,,,,,,0,218,218,218,,,,,,,,,,,,,,,,,main,k,k,1,0.6284034999553114,659.5685793999583,None,None,0,,,,,,,,,,,,,,105,2023-03-29_18h54.10.895,Main,2022.1.1,60.04707687527463,
positive,red,2,None,None,,,,,,,,,0,219,219,219,,,,,,,,,,,,,,,,,main,None,None,1,1.5011729998514056,661.2017186000012,None,None,1,,,,,,,,,,,,,,105,2023-03-29_18h54.10.895,Main,2022.1.1,60.04707687527463,
positive,yellow,1,None,k,,,,,,,,,0,220,220,220,,,,,,,,,,,,,,,,,main,k,k,1,0.5298977999482304,663.7045384999365,None,None,0,,,,,,,,,,,,,,105,2023-03-29_18h54.10.895,Main,2022.1.1,60.04707687527463,
positive,blue,1,k,None,,,,,,,,,0,221,221,221,,,,,,,,,,,,,,,,,main,None,k,0,0.5492350000422448,665.2350192000158,None,None,1,,,,,,,,,,,,,,105,2023-03-29_18h54.10.895,Main,2022.1.1,60.04707687527463,
positive,yellow,2,None,k,,,,,,,,,0,222,222,222,,,,,,,,,,,,,,,,,main,k,k,1,0.5875880001112819,667.7877921999898,None,None,0,,,,,,,,,,,,,,105,2023-03-29_18h54.10.895,Main,2022.1.1,60.04707687527463,
negative,yellow,1,k,None,,,,,,,,,0,223,223,223,,,,,,,,,,,,,,,,,main,None,None,1,1.498615900054574,669.3682923999149,None,None,1,,,,,,,,,,,,,,105,2023-03-29_18h54.10.895,Main,2022.1.1,60.04707687527463,
positive,yellow,2,None,k,,,,,,,,,0,224,224,224,,,,,,,,,,,,,,,,,main,k,k,1,0.612773000029847,671.8712473998312,None,None,0,,,,,,,,,,,,,,105,2023-03-29_18h54.10.895,Main,2022.1.1,60.04707687527463,
negative,yellow,2,k,None,,,,,,,,,0,225,225,225,,,,,,,,,,,,,,,,,main,None,None,1,1.4989525000564754,673.4845598000102,None,None,1,,,,,,,,,,,,,,105,2023-03-29_18h54.10.895,Main,2022.1.1,60.04707687527463,
negative,blue,2,None,k,,,,,,,,,0,226,226,226,,,,,,,,,,,,,,,,,main,k,k,1,0.6332783000543714,675.9845763999037,None,None,0,,,,,,,,,,,,,,105,2023-03-29_18h54.10.895,Main,2022.1.1,60.04707687527463,
positive,red,2,None,None,,,,,,,,,0,227,227,227,,,,,,,,,,,,,,,,,main,None,None,1,1.5015914998948574,677.6182297999039,None,None,1,,,,,,,,,,,,,,105,2023-03-29_18h54.10.895,Main,2022.1.1,60.04707687527463,
positive,blue,2,k,None,,,,,,,,,0,228,228,228,,,,,,,,,,,,,,,,,main,None,None,1,1.499153200071305,680.1210892000236,None,None,1,,,,,,,,,,,,,,105,2023-03-29_18h54.10.895,Main,2022.1.1,60.04707687527463,
negative,blue,1,None,k,,,,,,,,,0,229,229,229,,,,,,,,,,,,,,,,,main,k,k,1,0.599215199938044,682.620999599807,None,None,0,,,,,,,,,,,,,,105,2023-03-29_18h54.10.895,Main,2022.1.1,60.04707687527463,
positive,yellow,1,None,k,,,,,,,,,0,230,230,230,,,,,,,,,,,,,,,,,main,k,k,1,0.6806321998592466,684.2207289999351,None,None,0,,,,,,,,,,,,,,105,2023-03-29_18h54.10.895,Main,2022.1.1,60.04707687527463,
negative,blue,2,None,k,,,,,,,,,0,231,231,231,,,,,,,,,,,,,,,,,main,k,k,1,0.6674945000559092,685.9041699999943,None,None,0,,,,,,,,,,,,,,105,2023-03-29_18h54.10.895,Main,2022.1.1,60.04707687527463,
negative,red,1,None,None,,,,,,,,,0,232,232,232,,,,,,,,,,,,,,,,,main,None,None,1,1.4962917000520974,687.5678989998996,None,None,1,,,,,,,,,,,,,,105,2023-03-29_18h54.10.895,Main,2022.1.1,60.04707687527463,
positive,blue,2,k,None,,,,,,,,,0,233,233,233,,,,,,,,,,,,,,,,,main,None,None,1,1.4993163000326604,690.0678503999952,None,None,1,,,,,,,,,,,,,,105,2023-03-29_18h54.10.895,Main,2022.1.1,60.04707687527463,
negative,yellow,1,k,None,,,,,,,,,0,234,234,234,,,,,,,,,,,,,,,,,main,None,None,1,1.5018446000758559,692.5678470998537,None,None,1,,,,,,,,,,,,,,105,2023-03-29_18h54.10.895,Main,2022.1.1,60.04707687527463,
negative,yellow,2,k,None,,,,,,,,,0,235,235,235,,,,,,,,,,,,,,,,,main,None,None,1,1.4960026000626385,695.0677892998792,None,None,1,,,,,,,,,,,,,,105,2023-03-29_18h54.10.895,Main,2022.1.1,60.04707687527463,
positive,red,1,None,None,,,,,,,,,0,236,236,236,,,,,,,,,,,,,,,,,main,None,None,1,1.5024774000048637,697.5674907998182,None,None,1,,,,,,,,,,,,,,105,2023-03-29_18h54.10.895,Main,2022.1.1,60.04707687527463,
negative,red,2,None,None,,,,,,,,,0,237,237,237,,,,,,,,,,,,,,,,,main,None,None,1,1.4990497999824584,700.0705742000137,None,None,1,,,,,,,,,,,,,,105,2023-03-29_18h54.10.895,Main,2022.1.1,60.04707687527463,
negative,blue,1,None,k,,,,,,,,,0,238,238,238,,,,,,,,,,,,,,,,,main,k,k,1,0.663284899899736,702.5705426998902,None,None,0,,,,,,,,,,,,,,105,2023-03-29_18h54.10.895,Main,2022.1.1,60.04707687527463,
positive,blue,1,k,None,,,,,,,,,0,239,239,239,,,,,,,,,,,,,,,,,main,None,None,1,1.4989776001311839,704.2342976999935,None,None,1,,,,,,,,,,,,,,105,2023-03-29_18h54.10.895,Main,2022.1.1,60.04707687527463,
,,,,,,,,,,,,,,,,,,,,,,,,,,,,,,,,,,,,,,,,,,,,,,,,,,,,,706.7369444998913,None,,,,,,
