distractor,target,set,ans1,ans2,rep_loop4.thisRepN,rep_loop4.thisTrialN,rep_loop4.thisN,rep_loop4.thisIndex,st2_prac_loop.thisRepN,st2_prac_loop.thisTrialN,st2_prac_loop.thisN,st2_prac_loop.thisIndex,st2_main_loop.thisRepN,st2_main_loop.thisTrialN,st2_main_loop.thisN,st2_main_loop.thisIndex,image_4.started,image_4.stopped,sound_2.started,sound_2.stopped,key_resp_3.keys,key_resp_3.rt,image_5.started,image_5.stopped,st_prac_back.started,st_prac_back.stopped,st_prac_text.started,st_prac_text.stopped,st_fix_back.started,st_fix_back.stopped,st_fix_2.started,st_fix_2.stopped,main_prac,st_ans,st_res,st_corr,st_rt,st_back.started,st_back.stopped,st2_resp.keys,st2_resp.corr,st_main_back.started,st_main_back.stopped,st_main_text.started,st_main_text.stopped,mouse_4.x,mouse_4.y,mouse_4.leftButton,mouse_4.midButton,mouse_4.rightButton,mouse_4.started,mouse_4.stopped,text_2.started,text_2.stopped,id*,date,expName,psychopyVersion,frameRate,
negative,yellow,1,k,None,,,,,0,0,0,0,,,,,29.520098099994357,None,34.13158806000138,None,space,60.10335820000182,94.26340199999686,None,95.911133900001,None,95.911133900001,None,97.91362189999927,None,97.91362189999927,None,prac,k,k,1,2.0288749000028474,99.92545750000136,None,None,0,,,,,,,,,,,,,,106,2023-03-30_13h41.18.274,Main,2022.1.1,59.82335360053602,
positive,red,2,None,None,,,,,0,1,1,1,,,,,,,,,,,,,,,,,,,,,prac,None,None,1,1.4874496999982512,103.96344099999988,None,None,1,,,,,,,,,,,,,,106,2023-03-30_13h41.18.274,Main,2022.1.1,59.82335360053602,
negative,blue,2,None,k,,,,,0,2,2,2,,,,,,,,,,,,,,,,,,,,,prac,None,None,1,1.493449800000235,106.45552129999851,None,None,1,,,,,,,,,,,,,,106,2023-03-30_13h41.18.274,Main,2022.1.1,59.82335360053602,
positive,yellow,1,None,k,,,,,0,3,3,3,,,,,,,,,,,,,,,,,,,,,prac,None,None,1,1.5015593999996781,108.94551320000028,None,None,1,,,,,,,,,,,,,,106,2023-03-30_13h41.18.274,Main,2022.1.1,59.82335360053602,
negative,blue,2,None,k,,,,,0,4,4,4,,,,,,,,,,,,,,,,,,,,,prac,None,None,1,1.4966210999991745,111.44657639999787,None,None,1,,,,,,,,,,,,,,106,2023-03-30_13h41.18.274,Main,2022.1.1,59.82335360053602,
negative,blue,1,None,k,,,,,0,5,5,5,,,,,,,,,,,,,,,,,,,,,prac,None,None,1,1.5016333000021405,113.94387569999526,None,None,1,,,,,,,,,,,,,,106,2023-03-30_13h41.18.274,Main,2022.1.1,59.82335360053602,
negative,yellow,2,k,None,,,,,0,6,6,6,,,,,,,,,,,,,,,,,,,,,prac,k,k,1,0.8998208999983035,116.44646709999506,None,None,0,,,,,,,,,,,,,,106,2023-03-30_13h41.18.274,Main,2022.1.1,59.82335360053602,
negative,red,1,None,None,,,,,0,7,7,7,,,,,,,,,,,,,,,,,,,,,prac,None,None,1,1.4962075999937952,118.34648429999652,None,None,1,,,,,,,,,,,,,,106,2023-03-30_13h41.18.274,Main,2022.1.1,59.82335360053602,
positive,yellow,2,None,k,,,,,0,8,8,8,,,,,,,,,,,,,,,,,,,,,prac,None,None,1,1.5014085000002524,120.84379819999594,None,None,1,,,,,,,,,,,,,,106,2023-03-30_13h41.18.274,Main,2022.1.1,59.82335360053602,
negative,yellow,1,k,None,,,,,0,9,9,9,,,,,,,,,,,,,,,,,,,,,prac,k,k,1,1.3303828999996767,123.34638849999465,None,None,0,,,,,,,,,,,,,,106,2023-03-30_13h41.18.274,Main,2022.1.1,59.82335360053602,
positive,yellow,2,None,k,,,,,0,10,10,10,,,,,,,,,,,,,,,,,,,,,prac,None,None,1,1.5016557999988436,125.67695239999739,None,None,1,,,,,,,,,,,,,,106,2023-03-30_13h41.18.274,Main,2022.1.1,59.82335360053602,
negative,yellow,2,k,None,,,,,0,11,11,11,,,,,,,,,,,,,,,,,,,,,prac,k,k,1,1.0824419999989914,128.17955229999643,None,None,0,,,,,,,,,,,,,,106,2023-03-30_13h41.18.274,Main,2022.1.1,59.82335360053602,
negative,red,2,None,None,,,,,0,12,12,12,,,,,,,,,,,,,,,,,,,,,prac,None,None,1,1.4962187000055565,130.26283419999527,None,None,1,,,,,,,,,,,,,,106,2023-03-30_13h41.18.274,Main,2022.1.1,59.82335360053602,
positive,red,1,None,None,,,,,0,13,13,13,,,,,,,,,,,,,,,,,,,,,prac,None,None,1,1.501861299999291,132.76020669999707,None,None,1,,,,,,,,,,,,,,106,2023-03-30_13h41.18.274,Main,2022.1.1,59.82335360053602,
positive,blue,2,k,None,,,,,0,14,14,14,,,,,,,,,,,,,,,,,,,,,prac,k,k,1,1.0799159000016516,135.26326189999963,None,None,0,,,,,,,,,,,,,,106,2023-03-30_13h41.18.274,Main,2022.1.1,59.82335360053602,
positive,blue,1,k,None,,,,,0,15,15,15,,,,,,,,,,,,,,,,,,,,,prac,k,k,1,0.8158723000015016,137.34339989999717,None,None,0,,,,,,,,,,,,,,106,2023-03-30_13h41.18.274,Main,2022.1.1,59.82335360053602,
negative,blue,1,None,k,,,,,0,16,16,16,,,,,,,,,,,,,,,,,,,,,prac,None,None,1,1.5016178000005311,139.16010809999716,None,None,1,,,,,,,,,,,,,,106,2023-03-30_13h41.18.274,Main,2022.1.1,59.82335360053602,
positive,blue,2,k,None,,,,,0,17,17,17,,,,,,,,,,,,,,,,,,,,,prac,k,k,1,0.8158256999959121,141.662588399995,None,None,0,,,,,,,,,,,,,,106,2023-03-30_13h41.18.274,Main,2022.1.1,59.82335360053602,
positive,blue,1,k,None,,,,,0,18,18,18,,,,,,,,,,,,,,,,,,,,,prac,k,k,1,0.7159835000056773,143.4768796999997,None,None,0,,,,,,,,,,,,,,106,2023-03-30_13h41.18.274,Main,2022.1.1,59.82335360053602,
positive,yellow,1,None,k,,,,,0,19,19,19,,,,,,,,,,,,,,,,,,,,,prac,None,None,1,1.4962474999992992,145.19579729999532,None,None,1,,,,,,,,,,,,,,106,2023-03-30_13h41.18.274,Main,2022.1.1,59.82335360053602,
negative,yellow,1,k,None,,,,,1,0,20,0,,,,,,,,,,,,,,,,,,,,,prac,k,k,1,1.0020197999983793,147.69322239999747,None,None,0,,,,,,,,,,,,,,106,2023-03-30_13h41.18.274,Main,2022.1.1,59.82335360053602,
positive,red,2,None,None,,,,,1,1,21,1,,,,,,,,,,,,,,,,,,,,,prac,None,None,1,1.4962283999993815,149.6957881999988,None,None,1,,,,,,,,,,,,,,106,2023-03-30_13h41.18.274,Main,2022.1.1,59.82335360053602,
negative,blue,2,None,k,,,,,1,2,22,2,,,,,,,,,,,,,,,,,,,,,prac,None,None,1,1.5016643999988446,152.19307919999846,None,None,1,,,,,,,,,,,,,,106,2023-03-30_13h41.18.274,Main,2022.1.1,59.82335360053602,
positive,yellow,1,None,k,,,,,1,3,23,3,,,,,,,,,,,,,,,,,,,,,prac,None,None,1,1.4993451000045752,154.69640999999683,None,None,1,,,,,,,,,,,,,,106,2023-03-30_13h41.18.274,Main,2022.1.1,59.82335360053602,
negative,blue,2,None,k,,,,,1,4,24,4,,,,,,,,,,,,,,,,,,,,,prac,None,None,1,1.4964153000037186,157.19566399999894,None,None,1,,,,,,,,,,,,,,106,2023-03-30_13h41.18.274,Main,2022.1.1,59.82335360053602,
negative,blue,1,None,k,,,,,1,5,25,5,,,,,,,,,,,,,,,,,,,,,prac,None,None,1,1.501715400001558,159.69290609999734,None,None,1,,,,,,,,,,,,,,106,2023-03-30_13h41.18.274,Main,2022.1.1,59.82335360053602,
negative,yellow,2,k,None,,,,,1,6,26,6,,,,,,,,,,,,,,,,,,,,,prac,k,k,1,1.36332389999734,162.19555639999453,None,None,0,,,,,,,,,,,,,,106,2023-03-30_13h41.18.274,Main,2022.1.1,59.82335360053602,
negative,red,1,None,None,,,,,1,7,27,7,,,,,,,,,,,,,,,,,,,,,prac,None,None,1,1.5017711999971652,164.55947549999837,None,None,1,,,,,,,,,,,,,,106,2023-03-30_13h41.18.274,Main,2022.1.1,59.82335360053602,
positive,yellow,2,None,k,,,,,1,8,28,8,,,,,,,,,,,,,,,,,,,,,prac,None,None,1,1.4989285999981803,167.06210529999953,None,None,1,,,,,,,,,,,,,,106,2023-03-30_13h41.18.274,Main,2022.1.1,59.82335360053602,
negative,yellow,1,k,None,,,,,1,9,29,9,,,,,,,,,,,,,,,,,,,,,prac,k,k,1,1.2673128000024008,169.56202669999766,None,None,0,,,,,,,,,,,,,,106,2023-03-30_13h41.18.274,Main,2022.1.1,59.82335360053602,
positive,yellow,2,None,k,,,,,1,10,30,10,,,,,,,,,,,,,,,,,,,,,prac,None,None,1,1.494022799997765,171.826312899997,None,None,1,,,,,,,,,,,,,,106,2023-03-30_13h41.18.274,Main,2022.1.1,59.82335360053602,
negative,yellow,2,k,None,,,,,1,11,31,11,,,,,,,,,,,,,,,,,,,,,prac,k,k,1,0.9340763000000152,174.32590260000143,None,None,0,,,,,,,,,,,,,,106,2023-03-30_13h41.18.274,Main,2022.1.1,59.82335360053602,
negative,red,2,None,None,,,,,1,12,32,12,,,,,,,,,,,,,,,,,,,,,prac,None,None,1,1.4992669999992358,176.26181619999988,None,None,1,,,,,,,,,,,,,,106,2023-03-30_13h41.18.274,Main,2022.1.1,59.82335360053602,
positive,red,1,None,None,,,,,1,13,33,13,,,,,,,,,,,,,,,,,,,,,prac,None,None,1,1.4964153000037186,178.76188890000049,None,None,1,,,,,,,,,,,,,,106,2023-03-30_13h41.18.274,Main,2022.1.1,59.82335360053602,
positive,blue,2,k,None,,,,,1,14,34,14,,,,,,,,,,,,,,,,,,,,,prac,k,k,1,0.6186581000001752,181.25919689999864,None,None,0,,,,,,,,,,,,,,106,2023-03-30_13h41.18.274,Main,2022.1.1,59.82335360053602,
positive,blue,1,k,None,,,,,1,15,35,15,,,,,,,,,,,,,,,,,,,,,prac,k,k,1,0.8139914000057615,182.878461100001,None,None,0,,,,,,,,,,,,,,106,2023-03-30_13h41.18.274,Main,2022.1.1,59.82335360053602,
negative,blue,1,None,k,,,,,1,16,36,16,,,,,,,,,,,,,,,,,,,,,prac,None,None,1,1.4982020999959786,184.6950588999971,None,None,1,,,,,,,,,,,,,,106,2023-03-30_13h41.18.274,Main,2022.1.1,59.82335360053602,
positive,blue,2,k,None,,,,,1,17,37,17,,,,,,,,,,,,,,,,,,,,,prac,k,k,1,0.7687463000038406,187.19238490000134,None,None,0,,,,,,,,,,,,,,106,2023-03-30_13h41.18.274,Main,2022.1.1,59.82335360053602,
positive,blue,1,k,None,,,,,1,18,38,18,,,,,,,,,,,,,,,,,,,,,prac,k,k,1,0.7323409000018728,188.96174020000035,None,None,0,,,,,,,,,,,,,,106,2023-03-30_13h41.18.274,Main,2022.1.1,59.82335360053602,
positive,yellow,1,None,k,,,,,1,19,39,19,,,,,,,,,,,,,,,,,,,,,prac,None,None,1,1.496404799996526,190.69491839999682,None,None,1,,,,,,,,,,,,,,106,2023-03-30_13h41.18.274,Main,2022.1.1,59.82335360053602,
,,,,,,,,,,,,,,,,,,,,,,,,,,,,,,,,,,,,,,,,,,193.19224589999794,None,193.19224589999794,None,0.011111111,-0.02037037,0,0,0,0.014377359999343753,None,,,106,2023-03-30_13h41.18.274,Main,2022.1.1,59.82335360053602,
negative,yellow,2,k,None,,,,,,,,,0,0,0,0,,,,,,,,,,,,,203.52530259999912,None,203.52530259999912,None,main,k,k,1,0.8736873000016203,205.5626052000007,None,None,0,,,,,,,,,,,,,,106,2023-03-30_13h41.18.274,Main,2022.1.1,59.82335360053602,
positive,red,1,None,None,,,,,,,,,0,1,1,1,,,,,,,,,,,,,,,,,main,None,None,1,1.4959507000021404,207.44452959999762,None,None,1,,,,,,,,,,,,,,106,2023-03-30_13h41.18.274,Main,2022.1.1,59.82335360053602,
positive,blue,2,k,None,,,,,,,,,0,2,2,2,,,,,,,,,,,,,,,,,main,k,k,1,0.7355051999984425,209.94183959999646,None,None,0,,,,,,,,,,,,,,106,2023-03-30_13h41.18.274,Main,2022.1.1,59.82335360053602,
positive,blue,1,k,None,,,,,,,,,0,3,3,3,,,,,,,,,,,,,,,,,main,k,k,1,0.749255800001265,211.6778101999953,None,None,0,,,,,,,,,,,,,,106,2023-03-30_13h41.18.274,Main,2022.1.1,59.82335360053602,
negative,yellow,2,k,None,,,,,,,,,0,4,4,4,,,,,,,,,,,,,,,,,main,k,k,1,1.2655793000012636,213.42782889999944,None,None,0,,,,,,,,,,,,,,106,2023-03-30_13h41.18.274,Main,2022.1.1,59.82335360053602,
positive,yellow,2,None,k,,,,,,,,,0,5,5,5,,,,,,,,,,,,,,,,,main,None,None,1,1.4964499000052456,215.69419319999724,None,None,1,,,,,,,,,,,,,,106,2023-03-30_13h41.18.274,Main,2022.1.1,59.82335360053602,
negative,blue,2,None,k,,,,,,,,,0,6,6,6,,,,,,,,,,,,,,,,,main,None,None,1,1.4991348999974434,218.1916648999977,None,None,1,,,,,,,,,,,,,,106,2023-03-30_13h41.18.274,Main,2022.1.1,59.82335360053602,
positive,red,2,None,None,,,,,,,,,0,7,7,7,,,,,,,,,,,,,,,,,main,None,None,1,1.5017608999987715,220.69167899999593,None,None,1,,,,,,,,,,,,,,106,2023-03-30_13h41.18.274,Main,2022.1.1,59.82335360053602,
positive,yellow,1,None,k,,,,,,,,,0,8,8,8,,,,,,,,,,,,,,,,,main,None,None,1,1.499037399997178,223.19419309999648,None,None,1,,,,,,,,,,,,,,106,2023-03-30_13h41.18.274,Main,2022.1.1,59.82335360053602,
negative,red,1,None,None,,,,,,,,,0,9,9,9,,,,,,,,,,,,,,,,,main,None,None,1,1.4964651000045706,225.69394759999705,None,None,1,,,,,,,,,,,,,,106,2023-03-30_13h41.18.274,Main,2022.1.1,59.82335360053602,
positive,yellow,1,None,k,,,,,,,,,0,10,10,10,,,,,,,,,,,,,,,,,main,None,None,1,1.501607199999853,228.19145849999768,None,None,1,,,,,,,,,,,,,,106,2023-03-30_13h41.18.274,Main,2022.1.1,59.82335360053602,
negative,yellow,1,k,None,,,,,,,,,0,11,11,11,,,,,,,,,,,,,,,,,main,k,k,1,0.8825813000003109,230.6940151999952,None,None,0,,,,,,,,,,,,,,106,2023-03-30_13h41.18.274,Main,2022.1.1,59.82335360053602,
negative,yellow,1,k,None,,,,,,,,,0,12,12,12,,,,,,,,,,,,,,,,,main,k,k,1,0.7469614000001457,232.57514169999922,None,None,0,,,,,,,,,,,,,,106,2023-03-30_13h41.18.274,Main,2022.1.1,59.82335360053602,
negative,red,2,None,None,,,,,,,,,0,13,13,13,,,,,,,,,,,,,,,,,main,None,None,1,1.5011136000030092,234.32468829999561,None,None,1,,,,,,,,,,,,,,106,2023-03-30_13h41.18.274,Main,2022.1.1,59.82335360053602,
positive,yellow,2,None,k,,,,,,,,,0,14,14,14,,,,,,,,,,,,,,,,,main,None,k,0,1.1138998000024003,236.82727699999668,None,None,1,,,,,,,,,,,,,,106,2023-03-30_13h41.18.274,Main,2022.1.1,59.82335360053602,
positive,blue,1,k,None,,,,,,,,,0,15,15,15,,,,,,,,,,,,,,,,,main,k,k,1,0.9851230000058422,239.95788280000124,None,None,0,,,,,,,,,,,,,,106,2023-03-30_13h41.18.274,Main,2022.1.1,59.82335360053602,
negative,blue,1,None,k,,,,,,,,,0,16,16,16,,,,,,,,,,,,,,,,,main,None,None,1,1.5006417999975383,241.94399169999815,None,None,1,,,,,,,,,,,,,,106,2023-03-30_13h41.18.274,Main,2022.1.1,59.82335360053602,
positive,blue,2,k,None,,,,,,,,,0,17,17,17,,,,,,,,,,,,,,,,,main,k,k,1,0.8302798000004259,244.4437833999982,None,None,0,,,,,,,,,,,,,,106,2023-03-30_13h41.18.274,Main,2022.1.1,59.82335360053602,
negative,blue,2,None,k,,,,,,,,,0,18,18,18,,,,,,,,,,,,,,,,,main,None,None,1,1.5013126000048942,246.27440809999825,None,None,1,,,,,,,,,,,,,,106,2023-03-30_13h41.18.274,Main,2022.1.1,59.82335360053602,
negative,blue,1,None,k,,,,,,,,,0,19,19,19,,,,,,,,,,,,,,,,,main,None,None,1,1.499417999999423,248.77697199999966,None,None,1,,,,,,,,,,,,,,106,2023-03-30_13h41.18.274,Main,2022.1.1,59.82335360053602,
negative,blue,1,None,k,,,,,,,,,0,20,20,20,,,,,,,,,,,,,,,,,main,None,None,1,1.4963748000009218,251.27700180000102,None,None,1,,,,,,,,,,,,,,106,2023-03-30_13h41.18.274,Main,2022.1.1,59.82335360053602,
negative,blue,2,None,k,,,,,,,,,0,21,21,21,,,,,,,,,,,,,,,,,main,None,None,1,1.5016583999968134,253.7743177999946,None,None,1,,,,,,,,,,,,,,106,2023-03-30_13h41.18.274,Main,2022.1.1,59.82335360053602,
negative,red,1,None,None,,,,,,,,,0,22,22,22,,,,,,,,,,,,,,,,,main,None,None,1,1.499157300000661,256.27687209999567,None,None,1,,,,,,,,,,,,,,106,2023-03-30_13h41.18.274,Main,2022.1.1,59.82335360053602,
positive,red,2,None,None,,,,,,,,,0,23,23,23,,,,,,,,,,,,,,,,,main,None,None,1,1.4978888999976334,258.776658099996,None,None,1,,,,,,,,,,,,,,106,2023-03-30_13h41.18.274,Main,2022.1.1,59.82335360053602,
negative,red,2,None,None,,,,,,,,,0,24,24,24,,,,,,,,,,,,,,,,,main,None,None,1,1.5003272000030847,261.27408399999695,None,None,1,,,,,,,,,,,,,,106,2023-03-30_13h41.18.274,Main,2022.1.1,59.82335360053602,
positive,blue,2,k,None,,,,,,,,,0,25,25,25,,,,,,,,,,,,,,,,,main,k,k,1,1.0827856000032625,263.7766835000002,None,None,0,,,,,,,,,,,,,,106,2023-03-30_13h41.18.274,Main,2022.1.1,59.82335360053602,
negative,yellow,1,k,None,,,,,,,,,0,26,26,26,,,,,,,,,,,,,,,,,main,k,k,1,0.7632405999975163,265.86003060000075,None,None,0,,,,,,,,,,,,,,106,2023-03-30_13h41.18.274,Main,2022.1.1,59.82335360053602,
positive,blue,2,k,None,,,,,,,,,0,27,27,27,,,,,,,,,,,,,,,,,main,k,k,1,0.8517737000001944,267.6239542999974,None,None,0,,,,,,,,,,,,,,106,2023-03-30_13h41.18.274,Main,2022.1.1,59.82335360053602,
negative,blue,2,None,k,,,,,,,,,0,28,28,28,,,,,,,,,,,,,,,,,main,None,None,1,1.498898999998346,269.47434749999957,None,None,1,,,,,,,,,,,,,,106,2023-03-30_13h41.18.274,Main,2022.1.1,59.82335360053602,
positive,red,1,None,None,,,,,,,,,0,29,29,29,,,,,,,,,,,,,,,,,main,None,None,1,1.4966330000024755,271.9765267999974,None,None,1,,,,,,,,,,,,,,106,2023-03-30_13h41.18.274,Main,2022.1.1,59.82335360053602,
positive,blue,1,k,None,,,,,,,,,0,30,30,30,,,,,,,,,,,,,,,,,main,k,k,1,0.7497108000025037,274.47386719999486,None,None,0,,,,,,,,,,,,,,106,2023-03-30_13h41.18.274,Main,2022.1.1,59.82335360053602,
positive,yellow,1,None,k,,,,,,,,,0,31,31,31,,,,,,,,,,,,,,,,,main,None,None,1,1.5009141999980784,276.22640359999787,None,None,1,,,,,,,,,,,,,,106,2023-03-30_13h41.18.274,Main,2022.1.1,59.82335360053602,
negative,yellow,2,k,None,,,,,,,,,0,32,32,32,,,,,,,,,,,,,,,,,main,k,k,1,0.8141026999946916,278.7262260999996,None,None,0,,,,,,,,,,,,,,106,2023-03-30_13h41.18.274,Main,2022.1.1,59.82335360053602,
negative,blue,1,None,k,,,,,,,,,0,33,33,33,,,,,,,,,,,,,,,,,main,None,None,1,1.4986645999961183,280.54064089999883,None,None,1,,,,,,,,,,,,,,106,2023-03-30_13h41.18.274,Main,2022.1.1,59.82335360053602,
positive,blue,1,k,None,,,,,,,,,0,34,34,34,,,,,,,,,,,,,,,,,main,k,k,1,0.5853916000050958,283.040285199997,None,None,0,,,,,,,,,,,,,,106,2023-03-30_13h41.18.274,Main,2022.1.1,59.82335360053602,
negative,yellow,1,k,None,,,,,,,,,0,35,35,35,,,,,,,,,,,,,,,,,main,k,k,1,0.7489734000046155,284.6262385999944,None,None,0,,,,,,,,,,,,,,106,2023-03-30_13h41.18.274,Main,2022.1.1,59.82335360053602,
positive,yellow,2,None,k,,,,,,,,,0,36,36,36,,,,,,,,,,,,,,,,,main,None,None,1,1.4964003000059165,286.3761949999971,None,None,1,,,,,,,,,,,,,,106,2023-03-30_13h41.18.274,Main,2022.1.1,59.82335360053602,
positive,yellow,2,None,k,,,,,,,,,0,37,37,37,,,,,,,,,,,,,,,,,main,None,None,1,1.5016902999996091,288.8734808999943,None,None,1,,,,,,,,,,,,,,106,2023-03-30_13h41.18.274,Main,2022.1.1,59.82335360053602,
negative,yellow,2,k,None,,,,,,,,,0,38,38,38,,,,,,,,,,,,,,,,,main,k,k,1,0.7305800999965868,291.37609939999675,None,None,0,,,,,,,,,,,,,,106,2023-03-30_13h41.18.274,Main,2022.1.1,59.82335360053602,
positive,yellow,1,None,k,,,,,,,,,0,39,39,39,,,,,,,,,,,,,,,,,main,None,None,1,1.498482499999227,293.10936270000093,None,None,1,,,,,,,,,,,,,,106,2023-03-30_13h41.18.274,Main,2022.1.1,59.82335360053602,
negative,yellow,2,k,None,,,,,,,,,0,40,40,40,,,,,,,,,,,,,,,,,main,k,k,1,0.7521292000019457,295.6067466999957,None,None,0,,,,,,,,,,,,,,106,2023-03-30_13h41.18.274,Main,2022.1.1,59.82335360053602,
positive,blue,2,k,None,,,,,,,,,0,41,41,41,,,,,,,,,,,,,,,,,main,k,k,1,0.6826676000055159,297.3592791999981,None,None,0,,,,,,,,,,,,,,106,2023-03-30_13h41.18.274,Main,2022.1.1,59.82335360053602,
positive,blue,2,k,None,,,,,,,,,0,42,42,42,,,,,,,,,,,,,,,,,main,k,k,1,0.6630834000025061,299.040422099999,None,None,0,,,,,,,,,,,,,,106,2023-03-30_13h41.18.274,Main,2022.1.1,59.82335360053602,
negative,blue,2,None,k,,,,,,,,,0,43,43,43,,,,,,,,,,,,,,,,,main,None,None,1,1.5013076000032015,300.70659299999534,None,None,1,,,,,,,,,,,,,,106,2023-03-30_13h41.18.274,Main,2022.1.1,59.82335360053602,
negative,red,1,None,None,,,,,,,,,0,44,44,44,,,,,,,,,,,,,,,,,main,None,None,1,1.5024000000048545,303.2091502999974,None,None,1,,,,,,,,,,,,,,106,2023-03-30_13h41.18.274,Main,2022.1.1,59.82335360053602,
negative,yellow,1,k,None,,,,,,,,,0,45,45,45,,,,,,,,,,,,,,,,,main,k,k,1,0.9961486000029254,305.7103354999999,None,None,0,,,,,,,,,,,,,,106,2023-03-30_13h41.18.274,Main,2022.1.1,59.82335360053602,
negative,yellow,1,k,None,,,,,,,,,0,46,46,46,,,,,,,,,,,,,,,,,main,k,k,1,0.7468766999954823,307.70676470000035,None,None,0,,,,,,,,,,,,,,106,2023-03-30_13h41.18.274,Main,2022.1.1,59.82335360053602,
positive,red,1,None,None,,,,,,,,,0,47,47,47,,,,,,,,,,,,,,,,,main,None,None,1,1.5014109999974607,309.4563921999943,None,None,1,,,,,,,,,,,,,,106,2023-03-30_13h41.18.274,Main,2022.1.1,59.82335360053602,
positive,yellow,1,None,k,,,,,,,,,0,48,48,48,,,,,,,,,,,,,,,,,main,None,None,1,1.498976599999878,311.9591122999991,None,None,1,,,,,,,,,,,,,,106,2023-03-30_13h41.18.274,Main,2022.1.1,59.82335360053602,
negative,blue,1,None,k,,,,,,,,,0,49,49,49,,,,,,,,,,,,,,,,,main,None,k,0,0.5969551000016509,314.4589577000006,None,None,1,,,,,,,,,,,,,,106,2023-03-30_13h41.18.274,Main,2022.1.1,59.82335360053602,
positive,yellow,2,None,k,,,,,,,,,0,50,50,50,,,,,,,,,,,,,,,,,main,None,None,1,1.4870455999989645,317.05627749999985,None,None,1,,,,,,,,,,,,,,106,2023-03-30_13h41.18.274,Main,2022.1.1,59.82335360053602,
negative,blue,1,None,k,,,,,,,,,0,51,51,51,,,,,,,,,,,,,,,,,main,None,None,1,1.4963977000006707,319.54216499999893,None,None,1,,,,,,,,,,,,,,106,2023-03-30_13h41.18.274,Main,2022.1.1,59.82335360053602,
positive,red,2,None,None,,,,,,,,,0,52,52,52,,,,,,,,,,,,,,,,,main,None,None,1,1.5018383999995422,322.0394582999943,None,None,1,,,,,,,,,,,,,,106,2023-03-30_13h41.18.274,Main,2022.1.1,59.82335360053602,
positive,yellow,2,None,k,,,,,,,,,0,53,53,53,,,,,,,,,,,,,,,,,main,None,None,1,1.4989969999951427,324.54213719999825,None,None,1,,,,,,,,,,,,,,106,2023-03-30_13h41.18.274,Main,2022.1.1,59.82335360053602,
negative,red,2,None,None,,,,,,,,,0,54,54,54,,,,,,,,,,,,,,,,,main,None,None,1,1.4991341000059037,327.0418426999968,None,None,1,,,,,,,,,,,,,,106,2023-03-30_13h41.18.274,Main,2022.1.1,59.82335360053602,
positive,yellow,1,None,k,,,,,,,,,0,55,55,55,,,,,,,,,,,,,,,,,main,None,None,1,1.4967118999993545,329.53961569999956,None,None,1,,,,,,,,,,,,,,106,2023-03-30_13h41.18.274,Main,2022.1.1,59.82335360053602,
negative,blue,2,None,k,,,,,,,,,0,56,56,56,,,,,,,,,,,,,,,,,main,None,None,1,1.5017939000026672,332.03930739999487,None,None,1,,,,,,,,,,,,,,106,2023-03-30_13h41.18.274,Main,2022.1.1,59.82335360053602,
positive,blue,1,k,None,,,,,,,,,0,57,57,57,,,,,,,,,,,,,,,,,main,k,k,1,0.6634668000042439,334.54182639999635,None,None,0,,,,,,,,,,,,,,106,2023-03-30_13h41.18.274,Main,2022.1.1,59.82335360053602,
positive,blue,1,k,None,,,,,,,,,0,58,58,58,,,,,,,,,,,,,,,,,main,k,k,1,0.749335799999244,336.20581390000007,None,None,0,,,,,,,,,,,,,,106,2023-03-30_13h41.18.274,Main,2022.1.1,59.82335360053602,
negative,yellow,2,k,None,,,,,,,,,0,59,59,59,,,,,,,,,,,,,,,,,main,k,k,1,0.785033400003158,337.95584999999846,None,None,0,,,,,,,,,,,,,,106,2023-03-30_13h41.18.274,Main,2022.1.1,59.82335360053602,
positive,red,2,None,None,,,,,,,,,0,60,60,60,,,,,,,,,,,,,,,,,main,None,None,1,1.4962321999992128,339.74179490000097,None,None,1,,,,,,,,,,,,,,106,2023-03-30_13h41.18.274,Main,2022.1.1,59.82335360053602,
negative,yellow,1,k,None,,,,,,,,,0,61,61,61,,,,,,,,,,,,,,,,,main,k,k,1,0.7329052999994019,342.2390147999977,None,None,0,,,,,,,,,,,,,,106,2023-03-30_13h41.18.274,Main,2022.1.1,59.82335360053602,
negative,red,1,None,None,,,,,,,,,0,62,62,62,,,,,,,,,,,,,,,,,main,None,None,1,1.5014431000017794,343.97237160000077,None,None,1,,,,,,,,,,,,,,106,2023-03-30_13h41.18.274,Main,2022.1.1,59.82335360053602,
negative,blue,1,None,k,,,,,,,,,0,63,63,63,,,,,,,,,,,,,,,,,main,None,k,0,0.8304416999962996,346.4748754999964,None,None,1,,,,,,,,,,,,,,106,2023-03-30_13h41.18.274,Main,2022.1.1,59.82335360053602,
positive,blue,2,k,None,,,,,,,,,0,64,64,64,,,,,,,,,,,,,,,,,main,k,k,1,0.9822134000060032,349.30803809999634,None,None,0,,,,,,,,,,,,,,106,2023-03-30_13h41.18.274,Main,2022.1.1,59.82335360053602,
negative,yellow,2,k,None,,,,,,,,,0,65,65,65,,,,,,,,,,,,,,,,,main,k,k,1,0.785064900002908,351.2888452999978,None,None,0,,,,,,,,,,,,,,106,2023-03-30_13h41.18.274,Main,2022.1.1,59.82335360053602,
positive,yellow,2,None,k,,,,,,,,,0,66,66,66,,,,,,,,,,,,,,,,,main,None,None,1,1.498437099995499,353.0725753000006,None,None,1,,,,,,,,,,,,,,106,2023-03-30_13h41.18.274,Main,2022.1.1,59.82335360053602,
positive,yellow,2,None,k,,,,,,,,,0,67,67,67,,,,,,,,,,,,,,,,,main,None,None,1,1.4967673999999533,355.57474029999867,None,None,1,,,,,,,,,,,,,,106,2023-03-30_13h41.18.274,Main,2022.1.1,59.82335360053602,
positive,red,1,None,None,,,,,,,,,0,68,68,68,,,,,,,,,,,,,,,,,main,None,None,1,1.4986973999984912,358.07230179999897,None,None,1,,,,,,,,,,,,,,106,2023-03-30_13h41.18.274,Main,2022.1.1,59.82335360053602,
positive,yellow,1,None,k,,,,,,,,,0,69,69,69,,,,,,,,,,,,,,,,,main,None,None,1,1.501876500005892,360.5719669999962,None,None,1,,,,,,,,,,,,,,106,2023-03-30_13h41.18.274,Main,2022.1.1,59.82335360053602,
negative,yellow,2,k,None,,,,,,,,,0,70,70,70,,,,,,,,,,,,,,,,,main,k,k,1,0.6490816000004997,363.0746192000006,None,None,0,,,,,,,,,,,,,,106,2023-03-30_13h41.18.274,Main,2022.1.1,59.82335360053602,
positive,yellow,1,None,k,,,,,,,,,0,71,71,71,,,,,,,,,,,,,,,,,main,None,None,1,1.4988516000012169,364.724567199999,None,None,1,,,,,,,,,,,,,,106,2023-03-30_13h41.18.274,Main,2022.1.1,59.82335360053602,
negative,blue,1,None,k,,,,,,,,,0,72,72,72,,,,,,,,,,,,,,,,,main,None,None,1,1.4994469000012032,367.2242769000004,None,None,1,,,,,,,,,,,,,,106,2023-03-30_13h41.18.274,Main,2022.1.1,59.82335360053602,
negative,red,2,None,None,,,,,,,,,0,73,73,73,,,,,,,,,,,,,,,,,main,None,None,1,1.4966464000026463,369.72437139999965,None,None,1,,,,,,,,,,,,,,106,2023-03-30_13h41.18.274,Main,2022.1.1,59.82335360053602,
positive,blue,2,k,None,,,,,,,,,0,74,74,74,,,,,,,,,,,,,,,,,main,k,k,1,0.701980799996818,372.2217687999946,None,None,0,,,,,,,,,,,,,,106,2023-03-30_13h41.18.274,Main,2022.1.1,59.82335360053602,
negative,blue,2,None,k,,,,,,,,,0,75,75,75,,,,,,,,,,,,,,,,,main,None,None,1,1.4961522000012337,373.92436469999666,None,None,1,,,,,,,,,,,,,,106,2023-03-30_13h41.18.274,Main,2022.1.1,59.82335360053602,
negative,blue,2,None,k,,,,,,,,,0,76,76,76,,,,,,,,,,,,,,,,,main,None,None,1,1.4991818999988027,376.42161869999836,None,None,1,,,,,,,,,,,,,,106,2023-03-30_13h41.18.274,Main,2022.1.1,59.82335360053602,
negative,yellow,1,k,None,,,,,,,,,0,77,77,77,,,,,,,,,,,,,,,,,main,k,k,1,1.035305099998368,378.9216352000003,None,None,0,,,,,,,,,,,,,,106,2023-03-30_13h41.18.274,Main,2022.1.1,59.82335360053602,
positive,blue,1,k,None,,,,,,,,,0,78,78,78,,,,,,,,,,,,,,,,,main,k,k,1,0.765912799994112,380.95750920000137,None,None,0,,,,,,,,,,,,,,106,2023-03-30_13h41.18.274,Main,2022.1.1,59.82335360053602,
positive,blue,1,k,None,,,,,,,,,0,79,79,79,,,,,,,,,,,,,,,,,main,k,k,1,0.629923400003463,382.7219102999952,None,None,0,,,,,,,,,,,,,,106,2023-03-30_13h41.18.274,Main,2022.1.1,59.82335360053602,
positive,red,2,None,None,,,,,,,,,0,80,80,80,,,,,,,,,,,,,,,,,main,None,None,1,1.501373600003717,384.35479979999945,None,None,1,,,,,,,,,,,,,,106,2023-03-30_13h41.18.274,Main,2022.1.1,59.82335360053602,
positive,yellow,2,None,k,,,,,,,,,0,81,81,81,,,,,,,,,,,,,,,,,main,None,None,1,1.4965153000011924,386.85741259999486,None,None,1,,,,,,,,,,,,,,106,2023-03-30_13h41.18.274,Main,2022.1.1,59.82335360053602,
positive,blue,1,k,None,,,,,,,,,0,82,82,82,,,,,,,,,,,,,,,,,main,k,k,1,1.049547700000403,389.3546714999975,None,None,0,,,,,,,,,,,,,,106,2023-03-30_13h41.18.274,Main,2022.1.1,59.82335360053602,
negative,yellow,2,k,None,,,,,,,,,0,83,83,83,,,,,,,,,,,,,,,,,main,k,k,1,0.8160993000055896,391.40470490000007,None,None,0,,,,,,,,,,,,,,106,2023-03-30_13h41.18.274,Main,2022.1.1,59.82335360053602,
positive,blue,2,k,None,,,,,,,,,0,84,84,84,,,,,,,,,,,,,,,,,main,k,k,1,0.7862232999978005,393.22401700000046,None,None,0,,,,,,,,,,,,,,106,2023-03-30_13h41.18.274,Main,2022.1.1,59.82335360053602,
positive,yellow,1,None,k,,,,,,,,,0,85,85,85,,,,,,,,,,,,,,,,,main,None,None,1,1.494880899997952,395.0068825999988,None,None,1,,,,,,,,,,,,,,106,2023-03-30_13h41.18.274,Main,2022.1.1,59.82335360053602,
positive,blue,2,k,None,,,,,,,,,0,86,86,86,,,,,,,,,,,,,,,,,main,k,k,1,0.7187075000038021,397.50456389999454,None,None,0,,,,,,,,,,,,,,106,2023-03-30_13h41.18.274,Main,2022.1.1,59.82335360053602,
positive,blue,1,k,None,,,,,,,,,0,87,87,87,,,,,,,,,,,,,,,,,main,k,k,1,0.831710500002373,399.2238242999956,None,None,0,,,,,,,,,,,,,,106,2023-03-30_13h41.18.274,Main,2022.1.1,59.82335360053602,
negative,yellow,2,k,None,,,,,,,,,0,88,88,88,,,,,,,,,,,,,,,,,main,k,k,1,0.7806522999962908,401.0601539999989,None,None,0,,,,,,,,,,,,,,106,2023-03-30_13h41.18.274,Main,2022.1.1,59.82335360053602,
negative,blue,2,None,k,,,,,,,,,0,89,89,89,,,,,,,,,,,,,,,,,main,None,None,1,1.5016490000052727,402.8377268999975,None,None,1,,,,,,,,,,,,,,106,2023-03-30_13h41.18.274,Main,2022.1.1,59.82335360053602,
positive,yellow,2,None,k,,,,,,,,,0,90,90,90,,,,,,,,,,,,,,,,,main,None,None,1,1.4964371000023675,405.34032540000044,None,None,1,,,,,,,,,,,,,,106,2023-03-30_13h41.18.274,Main,2022.1.1,59.82335360053602,
negative,yellow,1,k,None,,,,,,,,,0,91,91,91,,,,,,,,,,,,,,,,,main,k,k,1,0.8497491000016453,407.83760970000003,None,None,0,,,,,,,,,,,,,,106,2023-03-30_13h41.18.274,Main,2022.1.1,59.82335360053602,
negative,red,2,None,None,,,,,,,,,0,92,92,92,,,,,,,,,,,,,,,,,main,None,None,1,1.501199300000735,409.6876348000005,None,None,1,,,,,,,,,,,,,,106,2023-03-30_13h41.18.274,Main,2022.1.1,59.82335360053602,
negative,blue,2,None,k,,,,,,,,,0,93,93,93,,,,,,,,,,,,,,,,,main,None,None,1,1.4963990000032936,412.19019229999685,None,None,1,,,,,,,,,,,,,,106,2023-03-30_13h41.18.274,Main,2022.1.1,59.82335360053602,
negative,blue,1,None,k,,,,,,,,,0,94,94,94,,,,,,,,,,,,,,,,,main,None,None,1,1.5018543999976828,414.6874785999971,None,None,1,,,,,,,,,,,,,,106,2023-03-30_13h41.18.274,Main,2022.1.1,59.82335360053602,
negative,blue,1,None,k,,,,,,,,,0,95,95,95,,,,,,,,,,,,,,,,,main,None,None,1,1.4989399000041885,417.190079299995,None,None,1,,,,,,,,,,,,,,106,2023-03-30_13h41.18.274,Main,2022.1.1,59.82335360053602,
negative,red,1,None,None,,,,,,,,,0,96,96,96,,,,,,,,,,,,,,,,,main,None,None,1,1.502183700002206,419.68988289999834,None,None,1,,,,,,,,,,,,,,106,2023-03-30_13h41.18.274,Main,2022.1.1,59.82335360053602,
positive,yellow,1,None,k,,,,,,,,,0,97,97,97,,,,,,,,,,,,,,,,,main,None,None,1,1.4938126999986707,422.19052809999994,None,None,1,,,,,,,,,,,,,,106,2023-03-30_13h41.18.274,Main,2022.1.1,59.82335360053602,
negative,yellow,1,k,None,,,,,,,,,0,98,98,98,,,,,,,,,,,,,,,,,main,k,k,1,0.9520505999971647,424.68731919999846,None,None,0,,,,,,,,,,,,,,106,2023-03-30_13h41.18.274,Main,2022.1.1,59.82335360053602,
positive,red,1,None,None,,,,,,,,,0,99,99,99,,,,,,,,,,,,,,,,,main,None,None,1,1.4987819000016316,426.63984559999517,None,None,1,,,,,,,,,,,,,,106,2023-03-30_13h41.18.274,Main,2022.1.1,59.82335360053602,
positive,blue,1,k,None,,,,,,,,,0,100,100,100,,,,,,,,,,,,,,,,,main,k,k,1,0.7328922000015154,429.13978629999474,None,None,0,,,,,,,,,,,,,,106,2023-03-30_13h41.18.274,Main,2022.1.1,59.82335360053602,
negative,yellow,1,k,None,,,,,,,,,0,101,101,101,,,,,,,,,,,,,,,,,main,k,k,1,0.8299576999997953,430.8707754999996,None,None,0,,,,,,,,,,,,,,106,2023-03-30_13h41.18.274,Main,2022.1.1,59.82335360053602,
negative,blue,2,None,k,,,,,,,,,0,102,102,102,,,,,,,,,,,,,,,,,main,None,None,1,1.5014316999950097,432.70374099999754,None,None,1,,,,,,,,,,,,,,106,2023-03-30_13h41.18.274,Main,2022.1.1,59.82335360053602,
negative,yellow,2,k,None,,,,,,,,,0,103,103,103,,,,,,,,,,,,,,,,,main,k,k,1,0.9161173000029521,435.2063820999974,None,None,0,,,,,,,,,,,,,,106,2023-03-30_13h41.18.274,Main,2022.1.1,59.82335360053602,
positive,yellow,2,None,k,,,,,,,,,0,104,104,104,,,,,,,,,,,,,,,,,main,None,None,1,1.4965233999973862,437.1229349999994,None,None,1,,,,,,,,,,,,,,106,2023-03-30_13h41.18.274,Main,2022.1.1,59.82335360053602,
positive,blue,1,k,None,,,,,,,,,0,105,105,105,,,,,,,,,,,,,,,,,main,k,k,1,0.7037010999993072,439.6203161999947,None,None,0,,,,,,,,,,,,,,106,2023-03-30_13h41.18.274,Main,2022.1.1,59.82335360053602,
positive,blue,2,k,None,,,,,,,,,0,106,106,106,,,,,,,,,,,,,,,,,main,k,k,1,1.3278269000002183,441.3229838999978,None,None,0,,,,,,,,,,,,,,106,2023-03-30_13h41.18.274,Main,2022.1.1,59.82335360053602,
negative,blue,1,None,k,,,,,,,,,0,107,107,107,,,,,,,,,,,,,,,,,main,None,None,1,1.501965100003872,443.6535431000011,None,None,1,,,,,,,,,,,,,,106,2023-03-30_13h41.18.274,Main,2022.1.1,59.82335360053602,
positive,yellow,2,None,k,,,,,,,,,0,108,108,108,,,,,,,,,,,,,,,,,main,None,None,1,1.4989497999995365,446.1560399000009,None,None,1,,,,,,,,,,,,,,106,2023-03-30_13h41.18.274,Main,2022.1.1,59.82335360053602,
negative,yellow,1,k,None,,,,,,,,,0,109,109,109,,,,,,,,,,,,,,,,,main,k,k,1,0.8466894000011962,448.65606370000023,None,None,0,,,,,,,,,,,,,,106,2023-03-30_13h41.18.274,Main,2022.1.1,59.82335360053602,
negative,blue,2,None,k,,,,,,,,,0,110,110,110,,,,,,,,,,,,,,,,,main,None,None,1,1.501447199996619,450.5033732000011,None,None,1,,,,,,,,,,,,,,106,2023-03-30_13h41.18.274,Main,2022.1.1,59.82335360053602,
positive,blue,2,k,None,,,,,,,,,0,111,111,111,,,,,,,,,,,,,,,,,main,k,k,1,0.6496819999956642,453.0059693000003,None,None,0,,,,,,,,,,,,,,106,2023-03-30_13h41.18.274,Main,2022.1.1,59.82335360053602,
negative,blue,1,None,k,,,,,,,,,0,112,112,112,,,,,,,,,,,,,,,,,main,None,None,1,1.495981899999606,454.65601199999946,None,None,1,,,,,,,,,,,,,,106,2023-03-30_13h41.18.274,Main,2022.1.1,59.82335360053602,
positive,yellow,1,None,k,,,,,,,,,0,113,113,113,,,,,,,,,,,,,,,,,main,None,None,1,1.501930500002345,457.1532220000008,None,None,1,,,,,,,,,,,,,,106,2023-03-30_13h41.18.274,Main,2022.1.1,59.82335360053602,
negative,red,1,None,None,,,,,,,,,0,114,114,114,,,,,,,,,,,,,,,,,main,None,None,1,1.4964276000027894,459.65574370000104,None,None,1,,,,,,,,,,,,,,106,2023-03-30_13h41.18.274,Main,2022.1.1,59.82335360053602,
positive,red,1,None,None,,,,,,,,,0,115,115,115,,,,,,,,,,,,,,,,,main,None,None,1,1.5020165999958408,462.1531313999949,None,None,1,,,,,,,,,,,,,,106,2023-03-30_13h41.18.274,Main,2022.1.1,59.82335360053602,
negative,red,2,None,None,,,,,,,,,0,116,116,116,,,,,,,,,,,,,,,,,main,None,None,1,1.4990491999997175,464.6557365999979,None,None,1,,,,,,,,,,,,,,106,2023-03-30_13h41.18.274,Main,2022.1.1,59.82335360053602,
negative,yellow,2,k,None,,,,,,,,,0,117,117,117,,,,,,,,,,,,,,,,,main,k,k,1,0.8134953999979189,467.1556307999999,None,None,0,,,,,,,,,,,,,,106,2023-03-30_13h41.18.274,Main,2022.1.1,59.82335360053602,
positive,yellow,1,None,k,,,,,,,,,0,118,118,118,,,,,,,,,,,,,,,,,main,None,None,1,1.5015497999993386,468.9696394999992,None,None,1,,,,,,,,,,,,,,106,2023-03-30_13h41.18.274,Main,2022.1.1,59.82335360053602,
positive,red,2,None,None,,,,,,,,,0,119,119,119,,,,,,,,,,,,,,,,,main,None,None,1,1.4964999000003445,471.47222299999703,None,None,1,,,,,,,,,,,,,,106,2023-03-30_13h41.18.274,Main,2022.1.1,59.82335360053602,
positive,blue,2,k,None,,,,,,,,,0,120,120,120,,,,,,,,,,,,,,,,,main,k,k,1,0.7830355999976746,473.96952690000035,None,None,0,,,,,,,,,,,,,,106,2023-03-30_13h41.18.274,Main,2022.1.1,59.82335360053602,
negative,red,1,None,None,,,,,,,,,0,121,121,121,,,,,,,,,,,,,,,,,main,None,None,1,1.5014102999994066,475.75287709999975,None,None,1,,,,,,,,,,,,,,106,2023-03-30_13h41.18.274,Main,2022.1.1,59.82335360053602,
positive,yellow,2,None,k,,,,,,,,,0,122,122,122,,,,,,,,,,,,,,,,,main,None,None,1,1.496820199994545,478.2561260000002,None,None,1,,,,,,,,,,,,,,106,2023-03-30_13h41.18.274,Main,2022.1.1,59.82335360053602,
negative,red,2,None,None,,,,,,,,,0,123,123,123,,,,,,,,,,,,,,,,,main,None,None,1,1.4988249000016367,480.75522459999775,None,None,1,,,,,,,,,,,,,,106,2023-03-30_13h41.18.274,Main,2022.1.1,59.82335360053602,
negative,yellow,2,k,None,,,,,,,,,0,124,124,124,,,,,,,,,,,,,,,,,main,k,k,1,0.8328499999988708,483.25266569999803,None,None,0,,,,,,,,,,,,,,106,2023-03-30_13h41.18.274,Main,2022.1.1,59.82335360053602,
positive,red,1,None,None,,,,,,,,,0,125,125,125,,,,,,,,,,,,,,,,,main,None,None,1,1.5014424999972107,485.08601429999544,None,None,1,,,,,,,,,,,,,,106,2023-03-30_13h41.18.274,Main,2022.1.1,59.82335360053602,
negative,blue,2,None,k,,,,,,,,,0,126,126,126,,,,,,,,,,,,,,,,,main,None,None,1,1.496701199997915,487.5885457999975,None,None,1,,,,,,,,,,,,,,106,2023-03-30_13h41.18.274,Main,2022.1.1,59.82335360053602,
negative,blue,1,None,k,,,,,,,,,0,127,127,127,,,,,,,,,,,,,,,,,main,None,None,1,1.503256899995904,490.0858456999995,None,None,1,,,,,,,,,,,,,,106,2023-03-30_13h41.18.274,Main,2022.1.1,59.82335360053602,
negative,yellow,1,k,None,,,,,,,,,0,128,128,128,,,,,,,,,,,,,,,,,main,k,k,1,0.9455555000022287,492.5884793000005,None,None,0,,,,,,,,,,,,,,106,2023-03-30_13h41.18.274,Main,2022.1.1,59.82335360053602,
negative,yellow,1,k,None,,,,,,,,,0,129,129,129,,,,,,,,,,,,,,,,,main,k,k,1,0.649972200000775,494.5361860999983,None,None,0,,,,,,,,,,,,,,106,2023-03-30_13h41.18.274,Main,2022.1.1,59.82335360053602,
positive,blue,1,k,None,,,,,,,,,0,130,130,130,,,,,,,,,,,,,,,,,main,k,k,1,0.7504541999951471,496.18603079999593,None,None,0,,,,,,,,,,,,,,106,2023-03-30_13h41.18.274,Main,2022.1.1,59.82335360053602,
negative,blue,1,None,k,,,,,,,,,0,131,131,131,,,,,,,,,,,,,,,,,main,None,None,1,1.4965250999957789,497.93599209999957,None,None,1,,,,,,,,,,,,,,106,2023-03-30_13h41.18.274,Main,2022.1.1,59.82335360053602,
negative,blue,2,None,k,,,,,,,,,0,132,132,132,,,,,,,,,,,,,,,,,main,None,None,1,1.5017499000023236,500.4356217999957,None,None,1,,,,,,,,,,,,,,106,2023-03-30_13h41.18.274,Main,2022.1.1,59.82335360053602,
positive,blue,2,k,None,,,,,,,,,0,133,133,133,,,,,,,,,,,,,,,,,main,k,k,1,0.6807011999990209,502.93821639999805,None,None,0,,,,,,,,,,,,,,106,2023-03-30_13h41.18.274,Main,2022.1.1,59.82335360053602,
positive,red,2,None,None,,,,,,,,,0,134,134,134,,,,,,,,,,,,,,,,,main,None,None,1,1.4987985999978264,504.621527299998,None,None,1,,,,,,,,,,,,,,106,2023-03-30_13h41.18.274,Main,2022.1.1,59.82335360053602,
negative,yellow,2,k,None,,,,,,,,,0,135,135,135,,,,,,,,,,,,,,,,,main,k,k,1,0.5990558999983477,507.1191164999982,None,None,0,,,,,,,,,,,,,,106,2023-03-30_13h41.18.274,Main,2022.1.1,59.82335360053602,
positive,yellow,2,None,k,,,,,,,,,0,136,136,136,,,,,,,,,,,,,,,,,main,None,None,1,1.4987959999998566,508.718767499995,None,None,1,,,,,,,,,,,,,,106,2023-03-30_13h41.18.274,Main,2022.1.1,59.82335360053602,
positive,blue,1,k,None,,,,,,,,,0,137,137,137,,,,,,,,,,,,,,,,,main,k,k,1,0.7356289000017568,511.2187988000005,None,None,0,,,,,,,,,,,,,,106,2023-03-30_13h41.18.274,Main,2022.1.1,59.82335360053602,
positive,yellow,1,None,k,,,,,,,,,0,138,138,138,,,,,,,,,,,,,,,,,main,None,None,1,1.4986439999993308,512.9547209000011,None,None,1,,,,,,,,,,,,,,106,2023-03-30_13h41.18.274,Main,2022.1.1,59.82335360053602,
positive,yellow,1,None,k,,,,,,,,,0,139,139,139,,,,,,,,,,,,,,,,,main,None,None,1,1.4961392000041087,515.4546132999967,None,None,1,,,,,,,,,,,,,,106,2023-03-30_13h41.18.274,Main,2022.1.1,59.82335360053602,
positive,yellow,1,None,k,,,,,,,,,0,140,140,140,,,,,,,,,,,,,,,,,main,None,None,1,1.5016025000004447,517.9519854999962,None,None,1,,,,,,,,,,,,,,106,2023-03-30_13h41.18.274,Main,2022.1.1,59.82335360053602,
positive,blue,1,k,None,,,,,,,,,0,141,141,141,,,,,,,,,,,,,,,,,main,k,k,1,0.8302670999983093,520.4546151999966,None,None,0,,,,,,,,,,,,,,106,2023-03-30_13h41.18.274,Main,2022.1.1,59.82335360053602,
positive,blue,2,k,None,,,,,,,,,0,142,142,142,,,,,,,,,,,,,,,,,main,k,k,1,0.8328049999981886,522.2851637999993,None,None,0,,,,,,,,,,,,,,106,2023-03-30_13h41.18.274,Main,2022.1.1,59.82335360053602,
positive,yellow,2,None,k,,,,,,,,,0,143,143,143,,,,,,,,,,,,,,,,,main,None,None,1,1.5011624999970081,524.1185311000008,None,None,1,,,,,,,,,,,,,,106,2023-03-30_13h41.18.274,Main,2022.1.1,59.82335360053602,
negative,yellow,2,k,None,,,,,,,,,0,144,144,144,,,,,,,,,,,,,,,,,main,k,k,1,0.6302083999980823,526.6210473999963,None,None,0,,,,,,,,,,,,,,106,2023-03-30_13h41.18.274,Main,2022.1.1,59.82335360053602,
negative,blue,2,None,k,,,,,,,,,0,145,145,145,,,,,,,,,,,,,,,,,main,None,k,0,0.9826479000039399,528.2516965999966,None,None,1,,,,,,,,,,,,,,106,2023-03-30_13h41.18.274,Main,2022.1.1,59.82335360053602,
negative,red,1,None,None,,,,,,,,,0,146,146,146,,,,,,,,,,,,,,,,,main,None,None,1,1.501271100001759,531.2375643999985,None,None,1,,,,,,,,,,,,,,106,2023-03-30_13h41.18.274,Main,2022.1.1,59.82335360053602,
positive,blue,1,k,None,,,,,,,,,0,147,147,147,,,,,,,,,,,,,,,,,main,k,k,1,0.7129721000019345,533.7375592999961,None,None,0,,,,,,,,,,,,,,106,2023-03-30_13h41.18.274,Main,2022.1.1,59.82335360053602,
positive,yellow,1,None,k,,,,,,,,,0,148,148,148,,,,,,,,,,,,,,,,,main,None,None,1,1.501530499997898,535.451558599998,None,None,1,,,,,,,,,,,,,,106,2023-03-30_13h41.18.274,Main,2022.1.1,59.82335360053602,
negative,red,2,None,None,,,,,,,,,0,149,149,149,,,,,,,,,,,,,,,,,main,None,None,1,1.496463200004655,537.9541224999994,None,None,1,,,,,,,,,,,,,,106,2023-03-30_13h41.18.274,Main,2022.1.1,59.82335360053602,
negative,blue,1,None,k,,,,,,,,,0,150,150,150,,,,,,,,,,,,,,,,,main,None,None,1,1.501750900002662,540.4514273999957,None,None,1,,,,,,,,,,,,,,106,2023-03-30_13h41.18.274,Main,2022.1.1,59.82335360053602,
negative,yellow,2,k,None,,,,,,,,,0,151,151,151,,,,,,,,,,,,,,,,,main,k,k,1,0.7473945000019739,542.9540558000008,None,None,0,,,,,,,,,,,,,,106,2023-03-30_13h41.18.274,Main,2022.1.1,59.82335360053602,
negative,blue,2,None,k,,,,,,,,,0,152,152,152,,,,,,,,,,,,,,,,,main,None,None,1,1.4999928000033833,544.7041811999952,None,None,1,,,,,,,,,,,,,,106,2023-03-30_13h41.18.274,Main,2022.1.1,59.82335360053602,
negative,yellow,1,k,None,,,,,,,,,0,153,153,153,,,,,,,,,,,,,,,,,main,k,k,1,1.4649088999940432,547.2012972000011,None,None,0,,,,,,,,,,,,,,106,2023-03-30_13h41.18.274,Main,2022.1.1,59.82335360053602,
negative,blue,1,None,k,,,,,,,,,0,154,154,154,,,,,,,,,,,,,,,,,main,None,None,1,1.4986060000010184,549.6706134999986,None,None,1,,,,,,,,,,,,,,106,2023-03-30_13h41.18.274,Main,2022.1.1,59.82335360053602,
positive,yellow,2,None,k,,,,,,,,,0,155,155,155,,,,,,,,,,,,,,,,,main,None,None,1,1.4991536999950767,552.1678974999959,None,None,1,,,,,,,,,,,,,,106,2023-03-30_13h41.18.274,Main,2022.1.1,59.82335360053602,
positive,red,2,None,None,,,,,,,,,0,156,156,156,,,,,,,,,,,,,,,,,main,None,None,1,1.5017972999994527,554.6678561999943,None,None,1,,,,,,,,,,,,,,106,2023-03-30_13h41.18.274,Main,2022.1.1,59.82335360053602,
positive,red,1,None,None,,,,,,,,,0,157,157,157,,,,,,,,,,,,,,,,,main,None,None,1,1.4964604000051622,557.1703994999989,None,None,1,,,,,,,,,,,,,,106,2023-03-30_13h41.18.274,Main,2022.1.1,59.82335360053602,
positive,blue,2,k,None,,,,,,,,,0,158,158,158,,,,,,,,,,,,,,,,,main,k,k,1,0.7500899000006029,559.6676796999964,None,None,0,,,,,,,,,,,,,,106,2023-03-30_13h41.18.274,Main,2022.1.1,59.82335360053602,
negative,yellow,1,k,None,,,,,,,,,0,159,159,159,,,,,,,,,,,,,,,,,main,k,k,1,1.018002400000114,561.4204441999973,None,None,0,,,,,,,,,,,,,,106,2023-03-30_13h41.18.274,Main,2022.1.1,59.82335360053602,
negative,red,2,None,None,,,,,,,,,0,160,160,160,,,,,,,,,,,,,,,,,main,None,None,1,1.4959455999996862,563.4347099000006,None,None,1,,,,,,,,,,,,,,106,2023-03-30_13h41.18.274,Main,2022.1.1,59.82335360053602,
negative,blue,1,None,k,,,,,,,,,0,161,161,161,,,,,,,,,,,,,,,,,main,None,None,1,1.5017907000001287,565.9342292000001,None,None,1,,,,,,,,,,,,,,106,2023-03-30_13h41.18.274,Main,2022.1.1,59.82335360053602,
negative,blue,1,None,k,,,,,,,,,0,162,162,162,,,,,,,,,,,,,,,,,main,None,None,1,1.4965327000027173,568.4367625999948,None,None,1,,,,,,,,,,,,,,106,2023-03-30_13h41.18.274,Main,2022.1.1,59.82335360053602,
negative,yellow,1,k,None,,,,,,,,,0,163,163,163,,,,,,,,,,,,,,,,,main,k,k,1,1.118716000004497,570.934107299996,None,None,0,,,,,,,,,,,,,,106,2023-03-30_13h41.18.274,Main,2022.1.1,59.82335360053602,
negative,yellow,1,k,None,,,,,,,,,0,164,164,164,,,,,,,,,,,,,,,,,main,k,k,1,1.2659290000010515,573.0535063999996,None,None,0,,,,,,,,,,,,,,106,2023-03-30_13h41.18.274,Main,2022.1.1,59.82335360053602,
positive,yellow,1,None,k,,,,,,,,,0,165,165,165,,,,,,,,,,,,,,,,,main,None,None,1,1.4960342000049422,575.3200140999979,None,None,1,,,,,,,,,,,,,,106,2023-03-30_13h41.18.274,Main,2022.1.1,59.82335360053602,
negative,red,1,None,None,,,,,,,,,0,166,166,166,,,,,,,,,,,,,,,,,main,None,None,1,1.5017948999957298,577.8173099999985,None,None,1,,,,,,,,,,,,,,106,2023-03-30_13h41.18.274,Main,2022.1.1,59.82335360053602,
negative,yellow,2,k,None,,,,,,,,,0,167,167,167,,,,,,,,,,,,,,,,,main,k,k,1,1.1468284000002313,580.3199482999989,None,None,0,,,,,,,,,,,,,,106,2023-03-30_13h41.18.274,Main,2022.1.1,59.82335360053602,
positive,blue,2,k,None,,,,,,,,,0,168,168,168,,,,,,,,,,,,,,,,,main,k,k,1,0.6658339000059641,582.4672122999982,None,None,0,,,,,,,,,,,,,,106,2023-03-30_13h41.18.274,Main,2022.1.1,59.82335360053602,
positive,red,2,None,None,,,,,,,,,0,169,169,169,,,,,,,,,,,,,,,,,main,None,None,1,1.5015786000003573,584.133842700001,None,None,1,,,,,,,,,,,,,,106,2023-03-30_13h41.18.274,Main,2022.1.1,59.82335360053602,
positive,red,1,None,None,,,,,,,,,0,170,170,170,,,,,,,,,,,,,,,,,main,None,None,1,1.4964645000000019,586.6364220999967,None,None,1,,,,,,,,,,,,,,106,2023-03-30_13h41.18.274,Main,2022.1.1,59.82335360053602,
negative,blue,2,None,k,,,,,,,,,0,171,171,171,,,,,,,,,,,,,,,,,main,None,None,1,1.501999000000069,589.1338952000006,None,None,1,,,,,,,,,,,,,,106,2023-03-30_13h41.18.274,Main,2022.1.1,59.82335360053602,
positive,blue,2,k,None,,,,,,,,,0,172,172,172,,,,,,,,,,,,,,,,,main,k,k,1,0.66604080000252,591.6364363999965,None,None,0,,,,,,,,,,,,,,106,2023-03-30_13h41.18.274,Main,2022.1.1,59.82335360053602,
negative,yellow,2,k,None,,,,,,,,,0,173,173,173,,,,,,,,,,,,,,,,,main,k,k,1,0.7131680999955279,593.3031064999959,None,None,0,,,,,,,,,,,,,,106,2023-03-30_13h41.18.274,Main,2022.1.1,59.82335360053602,
positive,yellow,2,None,k,,,,,,,,,0,174,174,174,,,,,,,,,,,,,,,,,main,None,None,1,1.500707400002284,595.0169353999954,None,None,1,,,,,,,,,,,,,,106,2023-03-30_13h41.18.274,Main,2022.1.1,59.82335360053602,
negative,blue,2,None,k,,,,,,,,,0,175,175,175,,,,,,,,,,,,,,,,,main,None,None,1,1.4981884000007994,597.5195110999994,None,None,1,,,,,,,,,,,,,,106,2023-03-30_13h41.18.274,Main,2022.1.1,59.82335360053602,
positive,blue,1,k,None,,,,,,,,,0,176,176,176,,,,,,,,,,,,,,,,,main,k,k,1,0.6792185999947833,600.0194871999993,None,None,0,,,,,,,,,,,,,,106,2023-03-30_13h41.18.274,Main,2022.1.1,59.82335360053602,
positive,yellow,1,None,k,,,,,,,,,0,177,177,177,,,,,,,,,,,,,,,,,main,None,None,1,1.501567499995872,601.7001205999986,None,None,1,,,,,,,,,,,,,,106,2023-03-30_13h41.18.274,Main,2022.1.1,59.82335360053602,
positive,blue,1,k,None,,,,,,,,,0,178,178,178,,,,,,,,,,,,,,,,,main,k,k,1,0.7996308000001591,604.2027553000007,None,None,0,,,,,,,,,,,,,,106,2023-03-30_13h41.18.274,Main,2022.1.1,59.82335360053602,
positive,yellow,2,None,k,,,,,,,,,0,179,179,179,,,,,,,,,,,,,,,,,main,None,None,1,1.4962667999934638,606.0027733999959,None,None,1,,,,,,,,,,,,,,106,2023-03-30_13h41.18.274,Main,2022.1.1,59.82335360053602,
positive,blue,1,k,None,,,,,,,,,0,180,180,180,,,,,,,,,,,,,,,,,main,k,k,1,0.8829043000005186,608.5001896999966,None,None,0,,,,,,,,,,,,,,106,2023-03-30_13h41.18.274,Main,2022.1.1,59.82335360053602,
negative,red,1,None,None,,,,,,,,,0,181,181,181,,,,,,,,,,,,,,,,,main,None,None,1,1.4987930999996024,610.3859201000014,None,None,1,,,,,,,,,,,,,,106,2023-03-30_13h41.18.274,Main,2022.1.1,59.82335360053602,
negative,blue,1,None,k,,,,,,,,,0,182,182,182,,,,,,,,,,,,,,,,,main,None,None,1,1.4986766000001808,612.883504999998,None,None,1,,,,,,,,,,,,,,106,2023-03-30_13h41.18.274,Main,2022.1.1,59.82335360053602,
negative,yellow,2,k,None,,,,,,,,,0,183,183,183,,,,,,,,,,,,,,,,,main,k,k,1,0.8856097999960184,615.3831506999995,None,None,0,,,,,,,,,,,,,,106,2023-03-30_13h41.18.274,Main,2022.1.1,59.82335360053602,
positive,yellow,2,None,k,,,,,,,,,0,184,184,184,,,,,,,,,,,,,,,,,main,None,None,1,1.498672699999588,617.2692569999999,None,None,1,,,,,,,,,,,,,,106,2023-03-30_13h41.18.274,Main,2022.1.1,59.82335360053602,
positive,yellow,1,None,k,,,,,,,,,0,185,185,185,,,,,,,,,,,,,,,,,main,None,None,1,1.4991548999969382,619.7691138999944,None,None,1,,,,,,,,,,,,,,106,2023-03-30_13h41.18.274,Main,2022.1.1,59.82335360053602,
positive,red,2,None,None,,,,,,,,,0,186,186,186,,,,,,,,,,,,,,,,,main,None,None,1,1.4968920000028447,622.2688655999955,None,None,1,,,,,,,,,,,,,,106,2023-03-30_13h41.18.274,Main,2022.1.1,59.82335360053602,
positive,blue,1,k,None,,,,,,,,,0,187,187,187,,,,,,,,,,,,,,,,,main,k,k,1,0.7020287999985158,624.7662689999997,None,None,0,,,,,,,,,,,,,,106,2023-03-30_13h41.18.274,Main,2022.1.1,59.82335360053602,
negative,yellow,1,k,None,,,,,,,,,0,188,188,188,,,,,,,,,,,,,,,,,main,k,k,1,0.9657325000007404,626.4688767999978,None,None,0,,,,,,,,,,,,,,106,2023-03-30_13h41.18.274,Main,2022.1.1,59.82335360053602,
positive,yellow,2,None,k,,,,,,,,,0,189,189,189,,,,,,,,,,,,,,,,,main,None,None,1,1.4989716999989469,628.4355265999984,None,None,1,,,,,,,,,,,,,,106,2023-03-30_13h41.18.274,Main,2022.1.1,59.82335360053602,
negative,yellow,2,k,None,,,,,,,,,0,190,190,190,,,,,,,,,,,,,,,,,main,k,k,1,0.9465329999948153,630.933131400001,None,None,0,,,,,,,,,,,,,,106,2023-03-30_13h41.18.274,Main,2022.1.1,59.82335360053602,
negative,yellow,1,k,None,,,,,,,,,0,191,191,191,,,,,,,,,,,,,,,,,main,k,k,1,0.732935300002282,632.8827896000003,None,None,0,,,,,,,,,,,,,,106,2023-03-30_13h41.18.274,Main,2022.1.1,59.82335360053602,
positive,blue,2,k,None,,,,,,,,,0,192,192,192,,,,,,,,,,,,,,,,,main,k,k,1,0.6348597999967751,634.6161385999949,None,None,0,,,,,,,,,,,,,,106,2023-03-30_13h41.18.274,Main,2022.1.1,59.82335360053602,
positive,yellow,1,None,k,,,,,,,,,0,193,193,193,,,,,,,,,,,,,,,,,main,None,k,0,0.649370999999519,636.2519586999988,None,None,1,,,,,,,,,,,,,,106,2023-03-30_13h41.18.274,Main,2022.1.1,59.82335360053602,
negative,red,2,None,None,,,,,,,,,0,194,194,194,,,,,,,,,,,,,,,,,main,None,None,1,1.487700700003188,638.9159677999996,None,None,1,,,,,,,,,,,,,,106,2023-03-30_13h41.18.274,Main,2022.1.1,59.82335360053602,
positive,red,1,None,None,,,,,,,,,0,195,195,195,,,,,,,,,,,,,,,,,main,None,None,1,1.4981341999955475,641.4019129999942,None,None,1,,,,,,,,,,,,,,106,2023-03-30_13h41.18.274,Main,2022.1.1,59.82335360053602,
negative,blue,1,None,k,,,,,,,,,0,196,196,196,,,,,,,,,,,,,,,,,main,None,None,1,1.4963739999948302,643.9019789999948,None,None,1,,,,,,,,,,,,,,106,2023-03-30_13h41.18.274,Main,2022.1.1,59.82335360053602,
positive,blue,2,k,None,,,,,,,,,0,197,197,197,,,,,,,,,,,,,,,,,main,k,k,1,0.566272600000957,646.399135599997,None,None,0,,,,,,,,,,,,,,106,2023-03-30_13h41.18.274,Main,2022.1.1,59.82335360053602,
negative,blue,2,None,k,,,,,,,,,0,198,198,198,,,,,,,,,,,,,,,,,main,None,None,1,1.5015720000010333,647.9658475999968,None,None,1,,,,,,,,,,,,,,106,2023-03-30_13h41.18.274,Main,2022.1.1,59.82335360053602,
negative,blue,2,None,k,,,,,,,,,0,199,199,199,,,,,,,,,,,,,,,,,main,None,None,1,1.496441600000253,650.4684253999949,None,None,1,,,,,,,,,,,,,,106,2023-03-30_13h41.18.274,Main,2022.1.1,59.82335360053602,
positive,blue,2,k,None,,,,,,,,,0,200,200,200,,,,,,,,,,,,,,,,,main,k,k,1,0.6509406000041054,652.9656714000012,None,None,0,,,,,,,,,,,,,,106,2023-03-30_13h41.18.274,Main,2022.1.1,59.82335360053602,
positive,blue,2,k,None,,,,,,,,,0,201,201,201,,,,,,,,,,,,,,,,,main,k,k,1,0.7169863999952213,654.6160604999968,None,None,0,,,,,,,,,,,,,,106,2023-03-30_13h41.18.274,Main,2022.1.1,59.82335360053602,
negative,yellow,2,k,None,,,,,,,,,0,202,202,202,,,,,,,,,,,,,,,,,main,k,k,1,0.7488102999996045,656.3349201999954,None,None,0,,,,,,,,,,,,,,106,2023-03-30_13h41.18.274,Main,2022.1.1,59.82335360053602,
positive,red,1,None,None,,,,,,,,,0,203,203,203,,,,,,,,,,,,,,,,,main,None,None,1,1.4990798999933759,658.0825321000011,None,None,1,,,,,,,,,,,,,,106,2023-03-30_13h41.18.274,Main,2022.1.1,59.82335360053602,
negative,blue,2,None,k,,,,,,,,,0,204,204,204,,,,,,,,,,,,,,,,,main,None,None,1,1.496574500000861,660.5825121999951,None,None,1,,,,,,,,,,,,,,106,2023-03-30_13h41.18.274,Main,2022.1.1,59.82335360053602,
negative,red,1,None,None,,,,,,,,,0,205,205,205,,,,,,,,,,,,,,,,,main,None,None,1,1.5018101000023307,663.0821920999952,None,None,1,,,,,,,,,,,,,,106,2023-03-30_13h41.18.274,Main,2022.1.1,59.82335360053602,
negative,blue,2,None,k,,,,,,,,,0,206,206,206,,,,,,,,,,,,,,,,,main,None,None,1,1.4964629000023706,665.5848349999942,None,None,1,,,,,,,,,,,,,,106,2023-03-30_13h41.18.274,Main,2022.1.1,59.82335360053602,
negative,yellow,2,k,None,,,,,,,,,0,207,207,207,,,,,,,,,,,,,,,,,main,k,k,1,0.8159637999997358,668.0820077999961,None,None,0,,,,,,,,,,,,,,106,2023-03-30_13h41.18.274,Main,2022.1.1,59.82335360053602,
positive,yellow,2,None,k,,,,,,,,,0,208,208,208,,,,,,,,,,,,,,,,,main,None,None,1,1.5016079999986687,669.8987273999956,None,None,1,,,,,,,,,,,,,,106,2023-03-30_13h41.18.274,Main,2022.1.1,59.82335360053602,
negative,yellow,1,k,None,,,,,,,,,0,209,209,209,,,,,,,,,,,,,,,,,main,k,k,1,0.8300194000039482,672.4012040999951,None,None,0,,,,,,,,,,,,,,106,2023-03-30_13h41.18.274,Main,2022.1.1,59.82335360053602,
negative,red,2,None,None,,,,,,,,,0,210,210,210,,,,,,,,,,,,,,,,,main,None,None,1,1.5016792000023997,674.2318799999994,None,None,1,,,,,,,,,,,,,,106,2023-03-30_13h41.18.274,Main,2022.1.1,59.82335360053602,
negative,blue,1,None,k,,,,,,,,,0,211,211,211,,,,,,,,,,,,,,,,,main,None,None,1,1.499104200003785,676.7345241000003,None,None,1,,,,,,,,,,,,,,106,2023-03-30_13h41.18.274,Main,2022.1.1,59.82335360053602,
negative,yellow,1,k,None,,,,,,,,,0,212,212,212,,,,,,,,,,,,,,,,,main,k,k,1,0.7297591000024113,679.2344305000006,None,None,0,,,,,,,,,,,,,,106,2023-03-30_13h41.18.274,Main,2022.1.1,59.82335360053602,
positive,blue,1,k,None,,,,,,,,,0,213,213,213,,,,,,,,,,,,,,,,,main,k,k,1,0.6850071000008029,680.9650691999996,None,None,0,,,,,,,,,,,,,,106,2023-03-30_13h41.18.274,Main,2022.1.1,59.82335360053602,
positive,blue,1,k,None,,,,,,,,,0,214,214,214,,,,,,,,,,,,,,,,,main,k,k,1,0.6485326000038185,682.6511204999988,None,None,0,,,,,,,,,,,,,,106,2023-03-30_13h41.18.274,Main,2022.1.1,59.82335360053602,
positive,yellow,1,None,k,,,,,,,,,0,215,215,215,,,,,,,,,,,,,,,,,main,None,None,1,1.4963175000011688,684.3010333999991,None,None,1,,,,,,,,,,,,,,106,2023-03-30_13h41.18.274,Main,2022.1.1,59.82335360053602,
positive,yellow,1,None,k,,,,,,,,,0,216,216,216,,,,,,,,,,,,,,,,,main,None,None,1,1.501676400002907,686.798280899995,None,None,1,,,,,,,,,,,,,,106,2023-03-30_13h41.18.274,Main,2022.1.1,59.82335360053602,
positive,yellow,2,None,k,,,,,,,,,0,217,217,217,,,,,,,,,,,,,,,,,main,None,None,1,1.4990530000068247,689.3008845000004,None,None,1,,,,,,,,,,,,,,106,2023-03-30_13h41.18.274,Main,2022.1.1,59.82335360053602,
negative,blue,1,None,k,,,,,,,,,0,218,218,218,,,,,,,,,,,,,,,,,main,None,None,1,1.4964958999989904,691.8008451999995,None,None,1,,,,,,,,,,,,,,106,2023-03-30_13h41.18.274,Main,2022.1.1,59.82335360053602,
positive,red,2,None,None,,,,,,,,,0,219,219,219,,,,,,,,,,,,,,,,,main,None,None,1,1.5019209000020055,694.2981858999992,None,None,1,,,,,,,,,,,,,,106,2023-03-30_13h41.18.274,Main,2022.1.1,59.82335360053602,
positive,yellow,1,None,k,,,,,,,,,0,220,220,220,,,,,,,,,,,,,,,,,main,None,None,1,1.4961846000005607,696.8008087999988,None,None,1,,,,,,,,,,,,,,106,2023-03-30_13h41.18.274,Main,2022.1.1,59.82335360053602,
positive,blue,1,k,None,,,,,,,,,0,221,221,221,,,,,,,,,,,,,,,,,main,k,k,1,1.2353501999969012,699.2980334999957,None,None,0,,,,,,,,,,,,,,106,2023-03-30_13h41.18.274,Main,2022.1.1,59.82335360053602,
positive,yellow,2,None,k,,,,,,,,,0,222,222,222,,,,,,,,,,,,,,,,,main,None,None,1,1.4987784000040847,701.5339574999962,None,None,1,,,,,,,,,,,,,,106,2023-03-30_13h41.18.274,Main,2022.1.1,59.82335360053602,
negative,yellow,1,k,None,,,,,,,,,0,223,223,223,,,,,,,,,,,,,,,,,main,k,k,1,0.9300715999997919,704.0339558999985,None,None,0,,,,,,,,,,,,,,106,2023-03-30_13h41.18.274,Main,2022.1.1,59.82335360053602,
positive,yellow,2,None,k,,,,,,,,,0,224,224,224,,,,,,,,,,,,,,,,,main,None,None,1,1.5014542999997502,705.9645597999988,None,None,1,,,,,,,,,,,,,,106,2023-03-30_13h41.18.274,Main,2022.1.1,59.82335360053602,
negative,yellow,2,k,None,,,,,,,,,0,225,225,225,,,,,,,,,,,,,,,,,main,k,k,1,0.9134560000020429,708.4671560999996,None,None,0,,,,,,,,,,,,,,106,2023-03-30_13h41.18.274,Main,2022.1.1,59.82335360053602,
negative,blue,2,None,k,,,,,,,,,0,226,226,226,,,,,,,,,,,,,,,,,main,None,None,1,1.5015400999982376,710.381100300001,None,None,1,,,,,,,,,,,,,,106,2023-03-30_13h41.18.274,Main,2022.1.1,59.82335360053602,
positive,red,2,None,None,,,,,,,,,0,227,227,227,,,,,,,,,,,,,,,,,main,None,None,1,1.4988324000005377,712.8836700999964,None,None,1,,,,,,,,,,,,,,106,2023-03-30_13h41.18.274,Main,2022.1.1,59.82335360053602,
positive,blue,2,k,None,,,,,,,,,0,228,228,228,,,,,,,,,,,,,,,,,main,k,k,1,0.6806279999946128,715.3836831000008,None,None,0,,,,,,,,,,,,,,106,2023-03-30_13h41.18.274,Main,2022.1.1,59.82335360053602,
negative,blue,1,None,k,,,,,,,,,0,229,229,229,,,,,,,,,,,,,,,,,main,None,None,1,1.5039118999993661,717.0645902999968,None,None,1,,,,,,,,,,,,,,106,2023-03-30_13h41.18.274,Main,2022.1.1,59.82335360053602,
positive,yellow,1,None,k,,,,,,,,,0,230,230,230,,,,,,,,,,,,,,,,,main,None,None,1,1.4937083999975584,719.5676227000004,None,None,1,,,,,,,,,,,,,,106,2023-03-30_13h41.18.274,Main,2022.1.1,59.82335360053602,
negative,blue,2,None,k,,,,,,,,,0,231,231,231,,,,,,,,,,,,,,,,,main,None,None,1,1.5018750000017462,722.0642588999981,None,None,1,,,,,,,,,,,,,,106,2023-03-30_13h41.18.274,Main,2022.1.1,59.82335360053602,
negative,red,1,None,None,,,,,,,,,0,232,232,232,,,,,,,,,,,,,,,,,main,None,None,1,1.496389600004477,724.5668325000006,None,None,1,,,,,,,,,,,,,,106,2023-03-30_13h41.18.274,Main,2022.1.1,59.82335360053602,
positive,blue,2,k,None,,,,,,,,,0,233,233,233,,,,,,,,,,,,,,,,,main,k,k,1,0.8026032999987365,727.0641047999961,None,None,0,,,,,,,,,,,,,,106,2023-03-30_13h41.18.274,Main,2022.1.1,59.82335360053602,
negative,yellow,1,k,None,,,,,,,,,0,234,234,234,,,,,,,,,,,,,,,,,main,k,k,1,0.8986322000055225,728.8667085999987,None,None,0,,,,,,,,,,,,,,106,2023-03-30_13h41.18.274,Main,2022.1.1,59.82335360053602,
negative,yellow,2,k,None,,,,,,,,,0,235,235,235,,,,,,,,,,,,,,,,,main,k,k,1,0.6802897000015946,730.7665999999954,None,None,0,,,,,,,,,,,,,,106,2023-03-30_13h41.18.274,Main,2022.1.1,59.82335360053602,
positive,red,1,None,None,,,,,,,,,0,236,236,236,,,,,,,,,,,,,,,,,main,None,None,1,1.5011840000006487,732.4500541999951,None,None,1,,,,,,,,,,,,,,106,2023-03-30_13h41.18.274,Main,2022.1.1,59.82335360053602,
negative,red,2,None,None,,,,,,,,,0,237,237,237,,,,,,,,,,,,,,,,,main,None,None,1,1.4964160999952583,734.9497112999961,None,None,1,,,,,,,,,,,,,,106,2023-03-30_13h41.18.274,Main,2022.1.1,59.82335360053602,
negative,blue,1,None,k,,,,,,,,,0,238,238,238,,,,,,,,,,,,,,,,,main,None,None,1,1.5019162000025972,737.4471878999975,None,None,1,,,,,,,,,,,,,,106,2023-03-30_13h41.18.274,Main,2022.1.1,59.82335360053602,
positive,blue,1,k,None,,,,,,,,,0,239,239,239,,,,,,,,,,,,,,,,,main,k,k,1,0.6661247000010917,739.9497441999993,None,None,0,,,,,,,,,,,,,,106,2023-03-30_13h41.18.274,Main,2022.1.1,59.82335360053602,
,,,,,,,,,,,,,,,,,,,,,,,,,,,,,,,,,,,,,,,,,,,,,,,,,,,,,741.6164183000001,None,,,,,,
