distractor,target,set,ans1,ans2,rep_loop4.thisRepN,rep_loop4.thisTrialN,rep_loop4.thisN,rep_loop4.thisIndex,st2_prac_loop.thisRepN,st2_prac_loop.thisTrialN,st2_prac_loop.thisN,st2_prac_loop.thisIndex,st2_main_loop.thisRepN,st2_main_loop.thisTrialN,st2_main_loop.thisN,st2_main_loop.thisIndex,image_4.started,image_4.stopped,sound_2.started,sound_2.stopped,key_resp_3.keys,key_resp_3.rt,image_5.started,image_5.stopped,st_prac_back.started,st_prac_back.stopped,st_prac_text.started,st_prac_text.stopped,st_fix_back.started,st_fix_back.stopped,st_fix_2.started,st_fix_2.stopped,main_prac,st_ans,st_res,st_corr,st_rt,st_back.started,st_back.stopped,st2_resp.keys,st2_resp.corr,st_main_back.started,st_main_back.stopped,st_main_text.started,st_main_text.stopped,mouse_4.x,mouse_4.y,mouse_4.leftButton,mouse_4.midButton,mouse_4.rightButton,mouse_4.started,mouse_4.stopped,text_2.started,text_2.stopped,id*,date,expName,psychopyVersion,frameRate,
negative,yellow,1,k,None,,,,,0,0,0,0,,,,,31.60005190000811,None,36.00505327001156,None,space,58.06845949999115,94.10176750000392,None,95.55124830000568,None,95.55124830000568,None,97.55374390000361,None,97.55374390000361,None,prac,None,None,1,1.5076573999976972,99.55244130000938,None,None,1,,,,,,,,,,,,,,107,2023-03-30_15h05.14.801,Main,2022.1.1,60.06301811774261,
positive,red,2,None,None,,,,,0,1,1,1,,,,,,,,,,,,,,,,,,,,,prac,None,None,1,1.5019705000013346,102.06780699999945,None,None,1,,,,,,,,,,,,,,107,2023-03-30_15h05.14.801,Main,2022.1.1,60.06301811774261,
negative,blue,2,None,k,,,,,0,2,2,2,,,,,,,,,,,,,,,,,,,,,prac,k,k,1,1.062945400000899,104.57029850000981,None,None,0,,,,,,,,,,,,,,107,2023-03-30_15h05.14.801,Main,2022.1.1,60.06301811774261,
positive,yellow,1,None,k,,,,,0,3,3,3,,,,,,,,,,,,,,,,,,,,,prac,k,k,1,1.2484795999916969,106.63418290000118,None,None,0,,,,,,,,,,,,,,107,2023-03-30_15h05.14.801,Main,2022.1.1,60.06301811774261,
negative,blue,2,None,k,,,,,0,4,4,4,,,,,,,,,,,,,,,,,,,,,prac,k,k,1,1.5183946000033757,108.88418540000566,None,None,0,,,,,,,,,,,,,,107,2023-03-30_15h05.14.801,Main,2022.1.1,60.06301811774261,
negative,blue,1,None,k,,,,,0,5,5,5,,,,,,,,,,,,,,,,,,,,,prac,k,k,1,0.9285232999973232,112.40319110000564,None,None,0,,,,,,,,,,,,,,107,2023-03-30_15h05.14.801,Main,2022.1.1,60.06301811774261,
negative,yellow,2,k,None,,,,,0,6,6,6,,,,,,,,,,,,,,,,,,,,,prac,None,None,1,1.501058900001226,114.33406850000028,None,None,1,,,,,,,,,,,,,,107,2023-03-30_15h05.14.801,Main,2022.1.1,60.06301811774261,
negative,red,1,None,None,,,,,0,7,7,7,,,,,,,,,,,,,,,,,,,,,prac,None,None,1,1.4989642000000458,116.83658730000025,None,None,1,,,,,,,,,,,,,,107,2023-03-30_15h05.14.801,Main,2022.1.1,60.06301811774261,
positive,yellow,2,None,k,,,,,0,8,8,8,,,,,,,,,,,,,,,,,,,,,prac,k,k,1,0.9327639999974053,119.33642289999989,None,None,0,,,,,,,,,,,,,,107,2023-03-30_15h05.14.801,Main,2022.1.1,60.06301811774261,
negative,yellow,1,k,None,,,,,0,9,9,9,,,,,,,,,,,,,,,,,,,,,prac,None,None,1,1.4964215000072727,121.26979550000397,None,None,1,,,,,,,,,,,,,,107,2023-03-30_15h05.14.801,Main,2022.1.1,60.06301811774261,
positive,yellow,2,None,k,,,,,0,10,10,10,,,,,,,,,,,,,,,,,,,,,prac,k,k,1,1.9852309999987483,123.76719340001,None,None,0,,,,,,,,,,,,,,107,2023-03-30_15h05.14.801,Main,2022.1.1,60.06301811774261,
negative,yellow,2,k,None,,,,,0,11,11,11,,,,,,,,,,,,,,,,,,,,,prac,None,None,1,1.4987001999979839,127.75303920000442,None,None,1,,,,,,,,,,,,,,107,2023-03-30_15h05.14.801,Main,2022.1.1,60.06301811774261,
negative,red,2,None,None,,,,,0,12,12,12,,,,,,,,,,,,,,,,,,,,,prac,None,None,1,1.4984410000033677,130.25292550001177,None,None,1,,,,,,,,,,,,,,107,2023-03-30_15h05.14.801,Main,2022.1.1,60.06301811774261,
positive,red,1,None,None,,,,,0,13,13,13,,,,,,,,,,,,,,,,,,,,,prac,None,k,0,0.9853530999971554,132.75028740000562,None,None,1,,,,,,,,,,,,,,107,2023-03-30_15h05.14.801,Main,2022.1.1,60.06301811774261,
positive,blue,2,k,None,,,,,0,14,14,14,,,,,,,,,,,,,,,,,,,,,prac,None,None,1,1.500863199995365,135.7361433000042,None,None,1,,,,,,,,,,,,,,107,2023-03-30_15h05.14.801,Main,2022.1.1,60.06301811774261,
positive,blue,1,k,None,,,,,0,15,15,15,,,,,,,,,,,,,,,,,,,,,prac,None,None,1,1.4960850000061328,138.23600620000798,None,None,1,,,,,,,,,,,,,,107,2023-03-30_15h05.14.801,Main,2022.1.1,60.06301811774261,
negative,blue,1,None,k,,,,,0,16,16,16,,,,,,,,,,,,,,,,,,,,,prac,k,k,1,1.0329918999923393,140.7336198000121,None,None,0,,,,,,,,,,,,,,107,2023-03-30_15h05.14.801,Main,2022.1.1,60.06301811774261,
positive,blue,2,k,None,,,,,0,17,17,17,,,,,,,,,,,,,,,,,,,,,prac,None,None,1,1.501537099989946,142.76678610000818,None,None,1,,,,,,,,,,,,,,107,2023-03-30_15h05.14.801,Main,2022.1.1,60.06301811774261,
positive,blue,1,k,None,,,,,0,18,18,18,,,,,,,,,,,,,,,,,,,,,prac,None,None,1,1.496380800002953,145.2693733000051,None,None,1,,,,,,,,,,,,,,107,2023-03-30_15h05.14.801,Main,2022.1.1,60.06301811774261,
positive,yellow,1,None,k,,,,,0,19,19,19,,,,,,,,,,,,,,,,,,,,,prac,k,k,1,1.3350010000140173,147.76663019999978,None,None,0,,,,,,,,,,,,,,107,2023-03-30_15h05.14.801,Main,2022.1.1,60.06301811774261,
negative,yellow,1,k,None,,,,,1,0,20,0,,,,,,,,,,,,,,,,,,,,,prac,None,None,1,1.4991421999875456,150.1025085000001,None,None,1,,,,,,,,,,,,,,107,2023-03-30_15h05.14.801,Main,2022.1.1,60.06301811774261,
positive,red,2,None,None,,,,,1,1,21,1,,,,,,,,,,,,,,,,,,,,,prac,None,None,1,1.496290000010049,152.6025432000024,None,None,1,,,,,,,,,,,,,,107,2023-03-30_15h05.14.801,Main,2022.1.1,60.06301811774261,
negative,blue,2,None,k,,,,,1,2,22,2,,,,,,,,,,,,,,,,,,,,,prac,k,k,1,1.0686991999973543,155.09982920000039,None,None,0,,,,,,,,,,,,,,107,2023-03-30_15h05.14.801,Main,2022.1.1,60.06301811774261,
positive,yellow,1,None,k,,,,,1,3,23,3,,,,,,,,,,,,,,,,,,,,,prac,k,k,1,1.0630806000117445,157.1690352000005,None,None,0,,,,,,,,,,,,,,107,2023-03-30_15h05.14.801,Main,2022.1.1,60.06301811774261,
negative,blue,2,None,k,,,,,1,4,24,4,,,,,,,,,,,,,,,,,,,,,prac,k,k,1,0.9325325000099838,159.23304500000086,None,None,0,,,,,,,,,,,,,,107,2023-03-30_15h05.14.801,Main,2022.1.1,60.06301811774261,
negative,blue,1,None,k,,,,,1,5,25,5,,,,,,,,,,,,,,,,,,,,,prac,k,k,1,0.835021200007759,161.16639510000823,None,None,0,,,,,,,,,,,,,,107,2023-03-30_15h05.14.801,Main,2022.1.1,60.06301811774261,
negative,yellow,2,k,None,,,,,1,6,26,6,,,,,,,,,,,,,,,,,,,,,prac,None,None,1,1.496339999997872,163.0022525000095,None,None,1,,,,,,,,,,,,,,107,2023-03-30_15h05.14.801,Main,2022.1.1,60.06301811774261,
negative,red,1,None,None,,,,,1,7,27,7,,,,,,,,,,,,,,,,,,,,,prac,None,None,1,1.5018371999904048,165.49964340000588,None,None,1,,,,,,,,,,,,,,107,2023-03-30_15h05.14.801,Main,2022.1.1,60.06301811774261,
positive,yellow,2,None,k,,,,,1,8,28,8,,,,,,,,,,,,,,,,,,,,,prac,k,k,1,0.8161118999996688,168.0020732000121,None,None,0,,,,,,,,,,,,,,107,2023-03-30_15h05.14.801,Main,2022.1.1,60.06301811774261,
negative,yellow,1,k,None,,,,,1,9,29,9,,,,,,,,,,,,,,,,,,,,,prac,None,None,1,1.496212400001241,169.8187966000114,None,None,1,,,,,,,,,,,,,,107,2023-03-30_15h05.14.801,Main,2022.1.1,60.06301811774261,
positive,yellow,2,None,k,,,,,1,10,30,10,,,,,,,,,,,,,,,,,,,,,prac,k,k,1,0.9688119000056759,172.31610419999924,None,None,0,,,,,,,,,,,,,,107,2023-03-30_15h05.14.801,Main,2022.1.1,60.06301811774261,
negative,yellow,2,k,None,,,,,1,11,31,11,,,,,,,,,,,,,,,,,,,,,prac,None,None,1,1.498937999989721,174.28540890000295,None,None,1,,,,,,,,,,,,,,107,2023-03-30_15h05.14.801,Main,2022.1.1,60.06301811774261,
negative,red,2,None,None,,,,,1,12,32,12,,,,,,,,,,,,,,,,,,,,,prac,None,None,1,1.4963488999928813,176.7853529999993,None,None,1,,,,,,,,,,,,,,107,2023-03-30_15h05.14.801,Main,2022.1.1,60.06301811774261,
positive,red,1,None,None,,,,,1,13,33,13,,,,,,,,,,,,,,,,,,,,,prac,None,None,1,1.501952499995241,179.28267580000102,None,None,1,,,,,,,,,,,,,,107,2023-03-30_15h05.14.801,Main,2022.1.1,60.06301811774261,
positive,blue,2,k,None,,,,,1,14,34,14,,,,,,,,,,,,,,,,,,,,,prac,None,None,1,1.4989272999955574,181.7851934000064,None,None,1,,,,,,,,,,,,,,107,2023-03-30_15h05.14.801,Main,2022.1.1,60.06301811774261,
positive,blue,1,k,None,,,,,1,15,35,15,,,,,,,,,,,,,,,,,,,,,prac,None,None,1,1.4962827999988804,184.2850863000058,None,None,1,,,,,,,,,,,,,,107,2023-03-30_15h05.14.801,Main,2022.1.1,60.06301811774261,
negative,blue,1,None,k,,,,,1,16,36,16,,,,,,,,,,,,,,,,,,,,,prac,k,k,1,0.7494932999979937,186.7824527000048,None,None,0,,,,,,,,,,,,,,107,2023-03-30_15h05.14.801,Main,2022.1.1,60.06301811774261,
positive,blue,2,k,None,,,,,1,17,37,17,,,,,,,,,,,,,,,,,,,,,prac,None,None,1,1.5016964999958873,188.5324615999998,None,None,1,,,,,,,,,,,,,,107,2023-03-30_15h05.14.801,Main,2022.1.1,60.06301811774261,
positive,blue,1,k,None,,,,,1,18,38,18,,,,,,,,,,,,,,,,,,,,,prac,None,None,1,1.4966079000005266,191.03504890001204,None,None,1,,,,,,,,,,,,,,107,2023-03-30_15h05.14.801,Main,2022.1.1,60.06301811774261,
positive,yellow,1,None,k,,,,,1,19,39,19,,,,,,,,,,,,,,,,,,,,,prac,k,k,1,0.8324673999886727,193.53480430001218,None,None,0,,,,,,,,,,,,,,107,2023-03-30_15h05.14.801,Main,2022.1.1,60.06301811774261,
,,,,,,,,,,,,,,,,,,,,,,,,,,,,,,,,,,,,,,,,,,195.36821270000655,None,195.36821270000655,None,0.05925926,-0.13518518,0,0,0,0.014272370011894964,None,,,107,2023-03-30_15h05.14.801,Main,2022.1.1,60.06301811774261,
negative,yellow,2,k,None,,,,,,,,,0,0,0,0,,,,,,,,,,,,,198.19888530000753,None,198.19888530000753,None,main,None,None,1,1.503629800005001,200.21965290000662,None,None,1,,,,,,,,,,,,,,107,2023-03-30_15h05.14.801,Main,2022.1.1,60.06301811774261,
positive,red,1,None,None,,,,,,,,,0,1,1,1,,,,,,,,,,,,,,,,,main,None,None,1,1.5016851000109455,202.73210320000362,None,None,1,,,,,,,,,,,,,,107,2023-03-30_15h05.14.801,Main,2022.1.1,60.06301811774261,
positive,blue,2,k,None,,,,,,,,,0,2,2,2,,,,,,,,,,,,,,,,,main,None,None,1,1.4965271999972174,205.2347429000074,None,None,1,,,,,,,,,,,,,,107,2023-03-30_15h05.14.801,Main,2022.1.1,60.06301811774261,
positive,blue,1,k,None,,,,,,,,,0,3,3,3,,,,,,,,,,,,,,,,,main,None,None,1,1.4988569999986794,207.7378441000037,None,None,1,,,,,,,,,,,,,,107,2023-03-30_15h05.14.801,Main,2022.1.1,60.06301811774261,
negative,yellow,2,k,None,,,,,,,,,0,4,4,4,,,,,,,,,,,,,,,,,main,None,None,1,1.4992597999953432,210.23191250000673,None,None,1,,,,,,,,,,,,,,107,2023-03-30_15h05.14.801,Main,2022.1.1,60.06301811774261,
positive,yellow,2,None,k,,,,,,,,,0,5,5,5,,,,,,,,,,,,,,,,,main,k,k,1,0.851947699993616,212.73194830000284,None,None,0,,,,,,,,,,,,,,107,2023-03-30_15h05.14.801,Main,2022.1.1,60.06301811774261,
negative,blue,2,None,k,,,,,,,,,0,6,6,6,,,,,,,,,,,,,,,,,main,k,k,1,0.7465166000038153,214.58452470001066,None,None,0,,,,,,,,,,,,,,107,2023-03-30_15h05.14.801,Main,2022.1.1,60.06301811774261,
positive,red,2,None,None,,,,,,,,,0,7,7,7,,,,,,,,,,,,,,,,,main,None,None,1,1.4990532000083476,216.33178630001203,None,None,1,,,,,,,,,,,,,,107,2023-03-30_15h05.14.801,Main,2022.1.1,60.06301811774261,
positive,yellow,1,None,k,,,,,,,,,0,8,8,8,,,,,,,,,,,,,,,,,main,k,k,1,1.0686920000007376,218.83179320000636,None,None,0,,,,,,,,,,,,,,107,2023-03-30_15h05.14.801,Main,2022.1.1,60.06301811774261,
negative,red,1,None,None,,,,,,,,,0,9,9,9,,,,,,,,,,,,,,,,,main,None,None,1,1.4987968999921577,220.90106590000505,None,None,1,,,,,,,,,,,,,,107,2023-03-30_15h05.14.801,Main,2022.1.1,60.06301811774261,
positive,yellow,1,None,k,,,,,,,,,0,10,10,10,,,,,,,,,,,,,,,,,main,k,k,1,0.8639779000077397,223.4008266000019,None,None,0,,,,,,,,,,,,,,107,2023-03-30_15h05.14.801,Main,2022.1.1,60.06301811774261,
negative,yellow,1,k,None,,,,,,,,,0,11,11,11,,,,,,,,,,,,,,,,,main,None,None,1,1.498422999997274,225.26750080000784,None,None,1,,,,,,,,,,,,,,107,2023-03-30_15h05.14.801,Main,2022.1.1,60.06301811774261,
negative,yellow,1,k,None,,,,,,,,,0,12,12,12,,,,,,,,,,,,,,,,,main,None,None,1,1.501700000007986,227.76494190000813,None,None,1,,,,,,,,,,,,,,107,2023-03-30_15h05.14.801,Main,2022.1.1,60.06301811774261,
negative,red,2,None,None,,,,,,,,,0,13,13,13,,,,,,,,,,,,,,,,,main,None,None,1,1.4988668000005418,230.26743830001215,None,None,1,,,,,,,,,,,,,,107,2023-03-30_15h05.14.801,Main,2022.1.1,60.06301811774261,
positive,yellow,2,None,k,,,,,,,,,0,14,14,14,,,,,,,,,,,,,,,,,main,k,k,1,0.8329291999980342,232.76732660000562,None,None,0,,,,,,,,,,,,,,107,2023-03-30_15h05.14.801,Main,2022.1.1,60.06301811774261,
positive,blue,1,k,None,,,,,,,,,0,15,15,15,,,,,,,,,,,,,,,,,main,None,None,1,1.4963886000041384,234.60061300000234,None,None,1,,,,,,,,,,,,,,107,2023-03-30_15h05.14.801,Main,2022.1.1,60.06301811774261,
negative,blue,1,None,k,,,,,,,,,0,16,16,16,,,,,,,,,,,,,,,,,main,k,k,1,0.7492582999984734,237.0980178000027,None,None,0,,,,,,,,,,,,,,107,2023-03-30_15h05.14.801,Main,2022.1.1,60.06301811774261,
positive,blue,2,k,None,,,,,,,,,0,17,17,17,,,,,,,,,,,,,,,,,main,None,None,1,1.5015591000119457,238.84802370000398,None,None,1,,,,,,,,,,,,,,107,2023-03-30_15h05.14.801,Main,2022.1.1,60.06301811774261,
negative,blue,2,None,k,,,,,,,,,0,18,18,18,,,,,,,,,,,,,,,,,main,k,k,1,0.6661715999944136,241.35059430000547,None,None,0,,,,,,,,,,,,,,107,2023-03-30_15h05.14.801,Main,2022.1.1,60.06301811774261,
negative,blue,1,None,k,,,,,,,,,0,19,19,19,,,,,,,,,,,,,,,,,main,k,k,1,0.6798257999907946,243.01724320001085,None,None,0,,,,,,,,,,,,,,107,2023-03-30_15h05.14.801,Main,2022.1.1,60.06301811774261,
negative,blue,1,None,k,,,,,,,,,0,20,20,20,,,,,,,,,,,,,,,,,main,k,k,1,0.7183842999947956,244.69785950001096,None,None,0,,,,,,,,,,,,,,107,2023-03-30_15h05.14.801,Main,2022.1.1,60.06301811774261,
negative,blue,2,None,k,,,,,,,,,0,21,21,21,,,,,,,,,,,,,,,,,main,k,k,1,0.615743599992129,246.4171170000045,None,None,0,,,,,,,,,,,,,,107,2023-03-30_15h05.14.801,Main,2022.1.1,60.06301811774261,
negative,red,1,None,None,,,,,,,,,0,22,22,22,,,,,,,,,,,,,,,,,main,None,None,1,1.4962297000020044,248.03381040001113,None,None,1,,,,,,,,,,,,,,107,2023-03-30_15h05.14.801,Main,2022.1.1,60.06301811774261,
positive,red,2,None,None,,,,,,,,,0,23,23,23,,,,,,,,,,,,,,,,,main,None,k,0,0.9855269999970915,250.53107480000472,None,None,1,,,,,,,,,,,,,,107,2023-03-30_15h05.14.801,Main,2022.1.1,60.06301811774261,
negative,red,2,None,None,,,,,,,,,0,24,24,24,,,,,,,,,,,,,,,,,main,None,None,1,1.4984223000064958,253.51693130000785,None,None,1,,,,,,,,,,,,,,107,2023-03-30_15h05.14.801,Main,2022.1.1,60.06301811774261,
positive,blue,2,k,None,,,,,,,,,0,25,25,25,,,,,,,,,,,,,,,,,main,None,None,1,1.5017642000020714,256.0142909999995,None,None,1,,,,,,,,,,,,,,107,2023-03-30_15h05.14.801,Main,2022.1.1,60.06301811774261,
negative,yellow,1,k,None,,,,,,,,,0,26,26,26,,,,,,,,,,,,,,,,,main,None,None,1,1.4988823999883607,258.5168900999997,None,None,1,,,,,,,,,,,,,,107,2023-03-30_15h05.14.801,Main,2022.1.1,60.06301811774261,
positive,blue,2,k,None,,,,,,,,,0,27,27,27,,,,,,,,,,,,,,,,,main,None,None,1,1.4963954999984708,261.0168413000065,None,None,1,,,,,,,,,,,,,,107,2023-03-30_15h05.14.801,Main,2022.1.1,60.06301811774261,
negative,blue,2,None,k,,,,,,,,,0,28,28,28,,,,,,,,,,,,,,,,,main,k,k,1,0.8353938999935053,263.51417700000457,None,None,0,,,,,,,,,,,,,,107,2023-03-30_15h05.14.801,Main,2022.1.1,60.06301811774261,
positive,red,1,None,None,,,,,,,,,0,29,29,29,,,,,,,,,,,,,,,,,main,None,None,1,1.4961808000080055,265.3501513000083,None,None,1,,,,,,,,,,,,,,107,2023-03-30_15h05.14.801,Main,2022.1.1,60.06301811774261,
positive,blue,1,k,None,,,,,,,,,0,30,30,30,,,,,,,,,,,,,,,,,main,None,None,1,1.5017812000005506,267.84735470000305,None,None,1,,,,,,,,,,,,,,107,2023-03-30_15h05.14.801,Main,2022.1.1,60.06301811774261,
positive,yellow,1,None,k,,,,,,,,,0,31,31,31,,,,,,,,,,,,,,,,,main,k,k,1,1.0996075000002747,270.3499749000039,None,None,0,,,,,,,,,,,,,,107,2023-03-30_15h05.14.801,Main,2022.1.1,60.06301811774261,
negative,yellow,2,k,None,,,,,,,,,0,32,32,32,,,,,,,,,,,,,,,,,main,None,None,1,1.4961634000064805,272.4500739000068,None,None,1,,,,,,,,,,,,,,107,2023-03-30_15h05.14.801,Main,2022.1.1,60.06301811774261,
negative,blue,1,None,k,,,,,,,,,0,33,33,33,,,,,,,,,,,,,,,,,main,k,k,1,0.7855292000022018,274.94726340001216,None,None,0,,,,,,,,,,,,,,107,2023-03-30_15h05.14.801,Main,2022.1.1,60.06301811774261,
positive,blue,1,k,None,,,,,,,,,0,34,34,34,,,,,,,,,,,,,,,,,main,None,None,1,1.4988959999900544,276.73313330000383,None,None,1,,,,,,,,,,,,,,107,2023-03-30_15h05.14.801,Main,2022.1.1,60.06301811774261,
negative,yellow,1,k,None,,,,,,,,,0,35,35,35,,,,,,,,,,,,,,,,,main,None,None,1,1.496387399995001,279.2331306000124,None,None,1,,,,,,,,,,,,,,107,2023-03-30_15h05.14.801,Main,2022.1.1,60.06301811774261,
positive,yellow,2,None,k,,,,,,,,,0,36,36,36,,,,,,,,,,,,,,,,,main,k,k,1,1.0997308999940287,281.73044520000985,None,None,0,,,,,,,,,,,,,,107,2023-03-30_15h05.14.801,Main,2022.1.1,60.06301811774261,
positive,yellow,2,None,k,,,,,,,,,0,37,37,37,,,,,,,,,,,,,,,,,main,k,k,1,0.7708674000023166,283.8331208000018,None,None,0,,,,,,,,,,,,,,107,2023-03-30_15h05.14.801,Main,2022.1.1,60.06301811774261,
negative,yellow,2,k,None,,,,,,,,,0,38,38,38,,,,,,,,,,,,,,,,,main,None,None,1,1.4960734000051161,285.600506200004,None,None,1,,,,,,,,,,,,,,107,2023-03-30_15h05.14.801,Main,2022.1.1,60.06301811774261,
positive,yellow,1,None,k,,,,,,,,,0,39,39,39,,,,,,,,,,,,,,,,,main,k,k,1,0.8635267999925418,288.0995055000094,None,None,0,,,,,,,,,,,,,,107,2023-03-30_15h05.14.801,Main,2022.1.1,60.06301811774261,
negative,yellow,2,k,None,,,,,,,,,0,40,40,40,,,,,,,,,,,,,,,,,main,None,None,1,1.5015006000030553,289.9634987000027,None,None,1,,,,,,,,,,,,,,107,2023-03-30_15h05.14.801,Main,2022.1.1,60.06301811774261,
positive,blue,2,k,None,,,,,,,,,0,41,41,41,,,,,,,,,,,,,,,,,main,None,None,1,1.4991492000117432,292.46618149999995,None,None,1,,,,,,,,,,,,,,107,2023-03-30_15h05.14.801,Main,2022.1.1,60.06301811774261,
positive,blue,2,k,None,,,,,,,,,0,42,42,42,,,,,,,,,,,,,,,,,main,None,None,1,1.496341800011578,294.96610600000713,None,None,1,,,,,,,,,,,,,,107,2023-03-30_15h05.14.801,Main,2022.1.1,60.06301811774261,
negative,blue,2,None,k,,,,,,,,,0,43,43,43,,,,,,,,,,,,,,,,,main,k,k,1,0.7994597000069916,297.46335309999995,None,None,0,,,,,,,,,,,,,,107,2023-03-30_15h05.14.801,Main,2022.1.1,60.06301811774261,
negative,red,1,None,None,,,,,,,,,0,44,44,44,,,,,,,,,,,,,,,,,main,None,None,1,1.5016543000092497,299.26336480000464,None,None,1,,,,,,,,,,,,,,107,2023-03-30_15h05.14.801,Main,2022.1.1,60.06301811774261,
negative,yellow,1,k,None,,,,,,,,,0,45,45,45,,,,,,,,,,,,,,,,,main,None,None,1,1.5021262999944156,301.7659701000084,None,None,1,,,,,,,,,,,,,,107,2023-03-30_15h05.14.801,Main,2022.1.1,60.06301811774261,
negative,yellow,1,k,None,,,,,,,,,0,46,46,46,,,,,,,,,,,,,,,,,main,None,None,1,1.49352319999889,304.2668001999991,None,None,1,,,,,,,,,,,,,,107,2023-03-30_15h05.14.801,Main,2022.1.1,60.06301811774261,
positive,red,1,None,None,,,,,,,,,0,47,47,47,,,,,,,,,,,,,,,,,main,None,None,1,1.5018697000050452,306.7632175000035,None,None,1,,,,,,,,,,,,,,107,2023-03-30_15h05.14.801,Main,2022.1.1,60.06301811774261,
positive,yellow,1,None,k,,,,,,,,,0,48,48,48,,,,,,,,,,,,,,,,,main,k,k,1,0.9802064999967115,309.2658120000124,None,None,0,,,,,,,,,,,,,,107,2023-03-30_15h05.14.801,Main,2022.1.1,60.06301811774261,
negative,blue,1,None,k,,,,,,,,,0,49,49,49,,,,,,,,,,,,,,,,,main,k,k,1,0.8178665000014007,311.248920500002,None,None,0,,,,,,,,,,,,,,107,2023-03-30_15h05.14.801,Main,2022.1.1,60.06301811774261,
positive,yellow,2,None,k,,,,,,,,,0,50,50,50,,,,,,,,,,,,,,,,,main,k,k,1,1.0466880000021774,313.06557990000874,None,None,0,,,,,,,,,,,,,,107,2023-03-30_15h05.14.801,Main,2022.1.1,60.06301811774261,
negative,blue,1,None,k,,,,,,,,,0,51,51,51,,,,,,,,,,,,,,,,,main,k,k,1,0.8330595000006724,315.112987600005,None,None,0,,,,,,,,,,,,,,107,2023-03-30_15h05.14.801,Main,2022.1.1,60.06301811774261,
positive,red,2,None,None,,,,,,,,,0,52,52,52,,,,,,,,,,,,,,,,,main,None,None,1,1.4984972000092966,316.9490201000008,None,None,1,,,,,,,,,,,,,,107,2023-03-30_15h05.14.801,Main,2022.1.1,60.06301811774261,
positive,yellow,2,None,k,,,,,,,,,0,53,53,53,,,,,,,,,,,,,,,,,main,k,k,1,0.7657951000001049,319.4520149000018,None,None,0,,,,,,,,,,,,,,107,2023-03-30_15h05.14.801,Main,2022.1.1,60.06301811774261,
negative,red,2,None,None,,,,,,,,,0,54,54,54,,,,,,,,,,,,,,,,,main,None,None,1,1.5016035000007832,321.21286320000945,None,None,1,,,,,,,,,,,,,,107,2023-03-30_15h05.14.801,Main,2022.1.1,60.06301811774261,
positive,yellow,1,None,k,,,,,,,,,0,55,55,55,,,,,,,,,,,,,,,,,main,k,k,1,0.7688303000031738,323.71543690000544,None,None,0,,,,,,,,,,,,,,107,2023-03-30_15h05.14.801,Main,2022.1.1,60.06301811774261,
negative,blue,2,None,k,,,,,,,,,0,56,56,56,,,,,,,,,,,,,,,,,main,k,k,1,0.7980078000109643,325.48859430001175,None,None,0,,,,,,,,,,,,,,107,2023-03-30_15h05.14.801,Main,2022.1.1,60.06301811774261,
positive,blue,1,k,None,,,,,,,,,0,57,57,57,,,,,,,,,,,,,,,,,main,None,None,1,1.494658099996741,327.2819424000045,None,None,1,,,,,,,,,,,,,,107,2023-03-30_15h05.14.801,Main,2022.1.1,60.06301811774261,
positive,blue,1,k,None,,,,,,,,,0,58,58,58,,,,,,,,,,,,,,,,,main,None,None,1,1.5018035999964923,329.77933660001145,None,None,1,,,,,,,,,,,,,,107,2023-03-30_15h05.14.801,Main,2022.1.1,60.06301811774261,
negative,yellow,2,k,None,,,,,,,,,0,59,59,59,,,,,,,,,,,,,,,,,main,None,None,1,1.4965154999954393,332.28191610000795,None,None,1,,,,,,,,,,,,,,107,2023-03-30_15h05.14.801,Main,2022.1.1,60.06301811774261,
positive,red,2,None,None,,,,,,,,,0,60,60,60,,,,,,,,,,,,,,,,,main,None,None,1,1.5018853999936255,334.7792182999983,None,None,1,,,,,,,,,,,,,,107,2023-03-30_15h05.14.801,Main,2022.1.1,60.06301811774261,
negative,yellow,1,k,None,,,,,,,,,0,61,61,61,,,,,,,,,,,,,,,,,main,None,None,1,1.4990592999965884,337.28182760000345,None,None,1,,,,,,,,,,,,,,107,2023-03-30_15h05.14.801,Main,2022.1.1,60.06301811774261,
negative,red,1,None,None,,,,,,,,,0,62,62,62,,,,,,,,,,,,,,,,,main,None,None,1,1.497100100008538,339.78176760001224,None,None,1,,,,,,,,,,,,,,107,2023-03-30_15h05.14.801,Main,2022.1.1,60.06301811774261,
negative,blue,1,None,k,,,,,,,,,0,63,63,63,,,,,,,,,,,,,,,,,main,k,k,1,0.7679320000024745,342.27905550001014,None,None,0,,,,,,,,,,,,,,107,2023-03-30_15h05.14.801,Main,2022.1.1,60.06301811774261,
positive,blue,2,k,None,,,,,,,,,0,64,64,64,,,,,,,,,,,,,,,,,main,None,None,1,1.5021647000103258,344.0482908999984,None,None,1,,,,,,,,,,,,,,107,2023-03-30_15h05.14.801,Main,2022.1.1,60.06301811774261,
negative,yellow,2,k,None,,,,,,,,,0,65,65,65,,,,,,,,,,,,,,,,,main,None,None,1,1.4933546999964165,346.5496362000122,None,None,1,,,,,,,,,,,,,,107,2023-03-30_15h05.14.801,Main,2022.1.1,60.06301811774261,
positive,yellow,2,None,k,,,,,,,,,0,66,66,66,,,,,,,,,,,,,,,,,main,k,k,1,0.751951199999894,349.04564799999935,None,None,0,,,,,,,,,,,,,,107,2023-03-30_15h05.14.801,Main,2022.1.1,60.06301811774261,
positive,yellow,2,None,k,,,,,,,,,0,67,67,67,,,,,,,,,,,,,,,,,main,k,k,1,0.7160031999956118,350.7982292000088,None,None,0,,,,,,,,,,,,,,107,2023-03-30_15h05.14.801,Main,2022.1.1,60.06301811774261,
positive,red,1,None,None,,,,,,,,,0,68,68,68,,,,,,,,,,,,,,,,,main,None,None,1,1.4962396999908378,352.51479260000633,None,None,1,,,,,,,,,,,,,,107,2023-03-30_15h05.14.801,Main,2022.1.1,60.06301811774261,
positive,yellow,1,None,k,,,,,,,,,0,69,69,69,,,,,,,,,,,,,,,,,main,k,k,1,0.8020295000023907,355.01217480000923,None,None,0,,,,,,,,,,,,,,107,2023-03-30_15h05.14.801,Main,2022.1.1,60.06301811774261,
negative,yellow,2,k,None,,,,,,,,,0,70,70,70,,,,,,,,,,,,,,,,,main,None,None,1,1.4963081000023521,356.8125041000021,None,None,1,,,,,,,,,,,,,,107,2023-03-30_15h05.14.801,Main,2022.1.1,60.06301811774261,
positive,yellow,1,None,k,,,,,,,,,0,71,71,71,,,,,,,,,,,,,,,,,main,k,k,1,0.7993862999865087,359.3120268000057,None,None,0,,,,,,,,,,,,,,107,2023-03-30_15h05.14.801,Main,2022.1.1,60.06301811774261,
negative,blue,1,None,k,,,,,,,,,0,72,72,72,,,,,,,,,,,,,,,,,main,k,k,1,0.8185093999927631,361.1120560999989,None,None,0,,,,,,,,,,,,,,107,2023-03-30_15h05.14.801,Main,2022.1.1,60.06301811774261,
negative,red,2,None,None,,,,,,,,,0,73,73,73,,,,,,,,,,,,,,,,,main,None,None,1,1.496191500002169,362.9312091000029,None,None,1,,,,,,,,,,,,,,107,2023-03-30_15h05.14.801,Main,2022.1.1,60.06301811774261,
positive,blue,2,k,None,,,,,,,,,0,74,74,74,,,,,,,,,,,,,,,,,main,None,None,1,1.5019358999998076,365.4285608000064,None,None,1,,,,,,,,,,,,,,107,2023-03-30_15h05.14.801,Main,2022.1.1,60.06301811774261,
negative,blue,2,None,k,,,,,,,,,0,75,75,75,,,,,,,,,,,,,,,,,main,k,k,1,0.9991459000011673,367.9311713000061,None,None,0,,,,,,,,,,,,,,107,2023-03-30_15h05.14.801,Main,2022.1.1,60.06301811774261,
negative,blue,2,None,k,,,,,,,,,0,76,76,76,,,,,,,,,,,,,,,,,main,k,k,1,0.646520900001633,369.9310664000077,None,None,0,,,,,,,,,,,,,,107,2023-03-30_15h05.14.801,Main,2022.1.1,60.06301811774261,
negative,yellow,1,k,None,,,,,,,,,0,77,77,77,,,,,,,,,,,,,,,,,main,None,None,1,1.5016782000020612,371.5784160000039,None,None,1,,,,,,,,,,,,,,107,2023-03-30_15h05.14.801,Main,2022.1.1,60.06301811774261,
positive,blue,1,k,None,,,,,,,,,0,78,78,78,,,,,,,,,,,,,,,,,main,None,None,1,1.4991539000038756,374.08104250000906,None,None,1,,,,,,,,,,,,,,107,2023-03-30_15h05.14.801,Main,2022.1.1,60.06301811774261,
positive,blue,1,k,None,,,,,,,,,0,79,79,79,,,,,,,,,,,,,,,,,main,None,None,1,1.4962862000102177,376.5809922000044,None,None,1,,,,,,,,,,,,,,107,2023-03-30_15h05.14.801,Main,2022.1.1,60.06301811774261,
positive,red,2,None,None,,,,,,,,,0,80,80,80,,,,,,,,,,,,,,,,,main,None,None,1,1.5017582000000402,379.07830570000806,None,None,1,,,,,,,,,,,,,,107,2023-03-30_15h05.14.801,Main,2022.1.1,60.06301811774261,
positive,yellow,2,None,k,,,,,,,,,0,81,81,81,,,,,,,,,,,,,,,,,main,k,k,1,1.146732900000643,381.5808823000116,None,None,0,,,,,,,,,,,,,,107,2023-03-30_15h05.14.801,Main,2022.1.1,60.06301811774261,
positive,blue,1,k,None,,,,,,,,,0,82,82,82,,,,,,,,,,,,,,,,,main,None,None,1,1.501812999995309,383.7281587000034,None,None,1,,,,,,,,,,,,,,107,2023-03-30_15h05.14.801,Main,2022.1.1,60.06301811774261,
negative,yellow,2,k,None,,,,,,,,,0,83,83,83,,,,,,,,,,,,,,,,,main,None,None,1,1.4989853000006406,386.2308003000071,None,None,1,,,,,,,,,,,,,,107,2023-03-30_15h05.14.801,Main,2022.1.1,60.06301811774261,
positive,blue,2,k,None,,,,,,,,,0,84,84,84,,,,,,,,,,,,,,,,,main,None,None,1,1.4965236999996705,388.7307598000043,None,None,1,,,,,,,,,,,,,,107,2023-03-30_15h05.14.801,Main,2022.1.1,60.06301811774261,
positive,yellow,1,None,k,,,,,,,,,0,85,85,85,,,,,,,,,,,,,,,,,main,k,k,1,0.8348297000047751,391.2280536000035,None,None,0,,,,,,,,,,,,,,107,2023-03-30_15h05.14.801,Main,2022.1.1,60.06301811774261,
positive,blue,2,k,None,,,,,,,,,0,86,86,86,,,,,,,,,,,,,,,,,main,None,None,1,1.4985423000034643,393.06390350000584,None,None,1,,,,,,,,,,,,,,107,2023-03-30_15h05.14.801,Main,2022.1.1,60.06301811774261,
positive,blue,1,k,None,,,,,,,,,0,87,87,87,,,,,,,,,,,,,,,,,main,None,None,1,1.4967182999971556,395.56150860000344,None,None,1,,,,,,,,,,,,,,107,2023-03-30_15h05.14.801,Main,2022.1.1,60.06301811774261,
negative,yellow,2,k,None,,,,,,,,,0,88,88,88,,,,,,,,,,,,,,,,,main,None,None,1,1.5017353000002913,398.0611859000055,None,None,1,,,,,,,,,,,,,,107,2023-03-30_15h05.14.801,Main,2022.1.1,60.06301811774261,
negative,blue,2,None,k,,,,,,,,,0,89,89,89,,,,,,,,,,,,,,,,,main,k,k,1,0.6828654999990249,400.56377890000294,None,None,0,,,,,,,,,,,,,,107,2023-03-30_15h05.14.801,Main,2022.1.1,60.06301811774261,
positive,yellow,2,None,k,,,,,,,,,0,90,90,90,,,,,,,,,,,,,,,,,main,k,k,1,0.8016334999992978,402.24712480000744,None,None,0,,,,,,,,,,,,,,107,2023-03-30_15h05.14.801,Main,2022.1.1,60.06301811774261,
negative,yellow,1,k,None,,,,,,,,,0,91,91,91,,,,,,,,,,,,,,,,,main,None,None,1,1.4963879999995697,404.0469620000076,None,None,1,,,,,,,,,,,,,,107,2023-03-30_15h05.14.801,Main,2022.1.1,60.06301811774261,
negative,red,2,None,None,,,,,,,,,0,92,92,92,,,,,,,,,,,,,,,,,main,None,None,1,1.4965265000064392,406.54685290000634,None,None,1,,,,,,,,,,,,,,107,2023-03-30_15h05.14.801,Main,2022.1.1,60.06301811774261,
negative,blue,2,None,k,,,,,,,,,0,93,93,93,,,,,,,,,,,,,,,,,main,k,k,1,0.751983599999221,409.0443071000045,None,None,0,,,,,,,,,,,,,,107,2023-03-30_15h05.14.801,Main,2022.1.1,60.06301811774261,
negative,blue,1,None,k,,,,,,,,,0,94,94,94,,,,,,,,,,,,,,,,,main,k,k,1,0.7162574999965727,410.7969307000021,None,None,0,,,,,,,,,,,,,,107,2023-03-30_15h05.14.801,Main,2022.1.1,60.06301811774261,
negative,blue,1,None,k,,,,,,,,,0,95,95,95,,,,,,,,,,,,,,,,,main,k,k,1,0.5962986999948043,412.51364220000687,None,None,0,,,,,,,,,,,,,,107,2023-03-30_15h05.14.801,Main,2022.1.1,60.06301811774261,
negative,red,1,None,None,,,,,,,,,0,96,96,96,,,,,,,,,,,,,,,,,main,None,None,1,1.5015093000110937,414.110826300006,None,None,1,,,,,,,,,,,,,,107,2023-03-30_15h05.14.801,Main,2022.1.1,60.06301811774261,
positive,yellow,1,None,k,,,,,,,,,0,97,97,97,,,,,,,,,,,,,,,,,main,k,k,1,0.7325754999910714,416.6134773000085,None,None,0,,,,,,,,,,,,,,107,2023-03-30_15h05.14.801,Main,2022.1.1,60.06301811774261,
negative,yellow,1,k,None,,,,,,,,,0,98,98,98,,,,,,,,,,,,,,,,,main,None,None,1,1.4961874000000535,418.3467343000084,None,None,1,,,,,,,,,,,,,,107,2023-03-30_15h05.14.801,Main,2022.1.1,60.06301811774261,
positive,red,1,None,None,,,,,,,,,0,99,99,99,,,,,,,,,,,,,,,,,main,None,None,1,1.5017784999945434,420.8440147000074,None,None,1,,,,,,,,,,,,,,107,2023-03-30_15h05.14.801,Main,2022.1.1,60.06301811774261,
positive,blue,1,k,None,,,,,,,,,0,100,100,100,,,,,,,,,,,,,,,,,main,None,None,1,1.4964599999948405,423.34658460000355,None,None,1,,,,,,,,,,,,,,107,2023-03-30_15h05.14.801,Main,2022.1.1,60.06301811774261,
negative,yellow,1,k,None,,,,,,,,,0,101,101,101,,,,,,,,,,,,,,,,,main,None,None,1,1.5019408000080148,425.8438884000061,None,None,1,,,,,,,,,,,,,,107,2023-03-30_15h05.14.801,Main,2022.1.1,60.06301811774261,
negative,blue,2,None,k,,,,,,,,,0,102,102,102,,,,,,,,,,,,,,,,,main,k,k,1,0.7658147999900393,428.3465167000104,None,None,0,,,,,,,,,,,,,,107,2023-03-30_15h05.14.801,Main,2022.1.1,60.06301811774261,
negative,yellow,2,k,None,,,,,,,,,0,103,103,103,,,,,,,,,,,,,,,,,main,None,None,1,1.4990610999957426,430.11316730000544,None,None,1,,,,,,,,,,,,,,107,2023-03-30_15h05.14.801,Main,2022.1.1,60.06301811774261,
positive,yellow,2,None,k,,,,,,,,,0,104,104,104,,,,,,,,,,,,,,,,,main,k,k,1,0.9298692000011215,432.6106989000109,None,None,0,,,,,,,,,,,,,,107,2023-03-30_15h05.14.801,Main,2022.1.1,60.06301811774261,
positive,blue,1,k,None,,,,,,,,,0,105,105,105,,,,,,,,,,,,,,,,,main,None,None,1,1.5016804999904707,434.5437161000009,None,None,1,,,,,,,,,,,,,,107,2023-03-30_15h05.14.801,Main,2022.1.1,60.06301811774261,
positive,blue,2,k,None,,,,,,,,,0,106,106,106,,,,,,,,,,,,,,,,,main,None,None,1,1.499205299987807,437.0463313000073,None,None,1,,,,,,,,,,,,,,107,2023-03-30_15h05.14.801,Main,2022.1.1,60.06301811774261,
negative,blue,1,None,k,,,,,,,,,0,107,107,107,,,,,,,,,,,,,,,,,main,k,k,1,0.6632343999954173,439.5462053000083,None,None,0,,,,,,,,,,,,,,107,2023-03-30_15h05.14.801,Main,2022.1.1,60.06301811774261,
positive,yellow,2,None,k,,,,,,,,,0,108,108,108,,,,,,,,,,,,,,,,,main,k,k,1,0.768565899998066,441.21023570001125,None,None,0,,,,,,,,,,,,,,107,2023-03-30_15h05.14.801,Main,2022.1.1,60.06301811774261,
negative,yellow,1,k,None,,,,,,,,,0,109,109,109,,,,,,,,,,,,,,,,,main,None,None,1,1.4989769000094384,442.97946450000745,None,None,1,,,,,,,,,,,,,,107,2023-03-30_15h05.14.801,Main,2022.1.1,60.06301811774261,
negative,blue,2,None,k,,,,,,,,,0,110,110,110,,,,,,,,,,,,,,,,,main,k,k,1,0.6966630999959307,445.47951900000044,None,None,0,,,,,,,,,,,,,,107,2023-03-30_15h05.14.801,Main,2022.1.1,60.06301811774261,
positive,blue,2,k,None,,,,,,,,,0,111,111,111,,,,,,,,,,,,,,,,,main,None,None,1,1.5037177000049269,447.17678540000634,None,None,1,,,,,,,,,,,,,,107,2023-03-30_15h05.14.801,Main,2022.1.1,60.06301811774261,
negative,blue,1,None,k,,,,,,,,,0,112,112,112,,,,,,,,,,,,,,,,,main,k,k,1,0.8639952000085032,449.6793042000063,None,None,0,,,,,,,,,,,,,,107,2023-03-30_15h05.14.801,Main,2022.1.1,60.06301811774261,
positive,yellow,1,None,k,,,,,,,,,0,113,113,113,,,,,,,,,,,,,,,,,main,k,k,1,0.6297951000015019,451.54604840000684,None,None,0,,,,,,,,,,,,,,107,2023-03-30_15h05.14.801,Main,2022.1.1,60.06301811774261,
negative,red,1,None,None,,,,,,,,,0,114,114,114,,,,,,,,,,,,,,,,,main,None,None,1,1.5018414999940433,453.17664170000353,None,None,1,,,,,,,,,,,,,,107,2023-03-30_15h05.14.801,Main,2022.1.1,60.06301811774261,
positive,red,1,None,None,,,,,,,,,0,115,115,115,,,,,,,,,,,,,,,,,main,None,None,1,1.5018988999945577,455.67928080000274,None,None,1,,,,,,,,,,,,,,107,2023-03-30_15h05.14.801,Main,2022.1.1,60.06301811774261,
negative,red,2,None,None,,,,,,,,,0,116,116,116,,,,,,,,,,,,,,,,,main,None,None,1,1.4966324999986682,458.1805042000051,None,None,1,,,,,,,,,,,,,,107,2023-03-30_15h05.14.801,Main,2022.1.1,60.06301811774261,
negative,yellow,2,k,None,,,,,,,,,0,117,117,117,,,,,,,,,,,,,,,,,main,None,None,1,1.4959231999964686,460.6789865000028,None,None,1,,,,,,,,,,,,,,107,2023-03-30_15h05.14.801,Main,2022.1.1,60.06301811774261,
positive,yellow,1,None,k,,,,,,,,,0,118,118,118,,,,,,,,,,,,,,,,,main,k,k,1,0.7852625000086846,463.1764588000078,None,None,0,,,,,,,,,,,,,,107,2023-03-30_15h05.14.801,Main,2022.1.1,60.06301811774261,
positive,red,2,None,None,,,,,,,,,0,119,119,119,,,,,,,,,,,,,,,,,main,None,None,1,1.496273899989319,464.9623960000026,None,None,1,,,,,,,,,,,,,,107,2023-03-30_15h05.14.801,Main,2022.1.1,60.06301811774261,
positive,blue,2,k,None,,,,,,,,,0,120,120,120,,,,,,,,,,,,,,,,,main,None,None,1,1.5020124000002397,467.4596390000079,None,None,1,,,,,,,,,,,,,,107,2023-03-30_15h05.14.801,Main,2022.1.1,60.06301811774261,
negative,red,1,None,None,,,,,,,,,0,121,121,121,,,,,,,,,,,,,,,,,main,None,None,1,1.4989313000114635,469.9623052000097,None,None,1,,,,,,,,,,,,,,107,2023-03-30_15h05.14.801,Main,2022.1.1,60.06301811774261,
positive,yellow,2,None,k,,,,,,,,,0,122,122,122,,,,,,,,,,,,,,,,,main,k,k,1,0.696487099994556,472.4622331999999,None,None,0,,,,,,,,,,,,,,107,2023-03-30_15h05.14.801,Main,2022.1.1,60.06301811774261,
negative,red,2,None,None,,,,,,,,,0,123,123,123,,,,,,,,,,,,,,,,,main,None,None,1,1.5016802000027383,474.15949390000605,None,None,1,,,,,,,,,,,,,,107,2023-03-30_15h05.14.801,Main,2022.1.1,60.06301811774261,
negative,yellow,2,k,None,,,,,,,,,0,124,124,124,,,,,,,,,,,,,,,,,main,None,None,1,1.4990369000006467,476.6620920999994,None,None,1,,,,,,,,,,,,,,107,2023-03-30_15h05.14.801,Main,2022.1.1,60.06301811774261,
positive,red,1,None,None,,,,,,,,,0,125,125,125,,,,,,,,,,,,,,,,,main,None,None,1,1.4993083000008482,479.1620369000011,None,None,1,,,,,,,,,,,,,,107,2023-03-30_15h05.14.801,Main,2022.1.1,60.06301811774261,
negative,blue,2,None,k,,,,,,,,,0,126,126,126,,,,,,,,,,,,,,,,,main,k,k,1,0.7631101000006311,481.66194090001227,None,None,0,,,,,,,,,,,,,,107,2023-03-30_15h05.14.801,Main,2022.1.1,60.06301811774261,
negative,blue,1,None,k,,,,,,,,,0,127,127,127,,,,,,,,,,,,,,,,,main,k,k,1,0.7329590000008466,483.4259810000076,None,None,0,,,,,,,,,,,,,,107,2023-03-30_15h05.14.801,Main,2022.1.1,60.06301811774261,
negative,yellow,1,k,None,,,,,,,,,0,128,128,128,,,,,,,,,,,,,,,,,main,None,None,1,1.501196199998958,485.1623668000102,None,None,1,,,,,,,,,,,,,,107,2023-03-30_15h05.14.801,Main,2022.1.1,60.06301811774261,
negative,yellow,1,k,None,,,,,,,,,0,129,129,129,,,,,,,,,,,,,,,,,main,None,None,1,1.4964335999975447,487.6619090000022,None,None,1,,,,,,,,,,,,,,107,2023-03-30_15h05.14.801,Main,2022.1.1,60.06301811774261,
positive,blue,1,k,None,,,,,,,,,0,130,130,130,,,,,,,,,,,,,,,,,main,None,None,1,1.501802199985832,490.15916750000906,None,None,1,,,,,,,,,,,,,,107,2023-03-30_15h05.14.801,Main,2022.1.1,60.06301811774261,
negative,blue,1,None,k,,,,,,,,,0,131,131,131,,,,,,,,,,,,,,,,,main,k,k,1,0.6995760999998311,492.6617554000113,None,None,0,,,,,,,,,,,,,,107,2023-03-30_15h05.14.801,Main,2022.1.1,60.06301811774261,
negative,blue,2,None,k,,,,,,,,,0,132,132,132,,,,,,,,,,,,,,,,,main,k,k,1,0.8297435999993468,494.3617654000118,None,None,0,,,,,,,,,,,,,,107,2023-03-30_15h05.14.801,Main,2022.1.1,60.06301811774261,
positive,blue,2,k,None,,,,,,,,,0,133,133,133,,,,,,,,,,,,,,,,,main,None,None,1,1.5017948000022443,496.19236920001276,None,None,1,,,,,,,,,,,,,,107,2023-03-30_15h05.14.801,Main,2022.1.1,60.06301811774261,
positive,red,2,None,None,,,,,,,,,0,134,134,134,,,,,,,,,,,,,,,,,main,None,None,1,1.4989341999898897,498.6949889000098,None,None,1,,,,,,,,,,,,,,107,2023-03-30_15h05.14.801,Main,2022.1.1,60.06301811774261,
negative,yellow,2,k,None,,,,,,,,,0,135,135,135,,,,,,,,,,,,,,,,,main,None,None,1,1.5021181000047363,501.19471870000416,None,None,1,,,,,,,,,,,,,,107,2023-03-30_15h05.14.801,Main,2022.1.1,60.06301811774261,
positive,yellow,2,None,k,,,,,,,,,0,136,136,136,,,,,,,,,,,,,,,,,main,k,k,1,0.8463647000025958,503.69574570000987,None,None,0,,,,,,,,,,,,,,107,2023-03-30_15h05.14.801,Main,2022.1.1,60.06301811774261,
positive,blue,1,k,None,,,,,,,,,0,137,137,137,,,,,,,,,,,,,,,,,main,None,None,1,1.4967719999986002,505.54460580000887,None,None,1,,,,,,,,,,,,,,107,2023-03-30_15h05.14.801,Main,2022.1.1,60.06301811774261,
positive,yellow,1,None,k,,,,,,,,,0,138,138,138,,,,,,,,,,,,,,,,,main,k,k,1,0.9347976999997627,508.0446227000066,None,None,0,,,,,,,,,,,,,,107,2023-03-30_15h05.14.801,Main,2022.1.1,60.06301811774261,
positive,yellow,1,None,k,,,,,,,,,0,139,139,139,,,,,,,,,,,,,,,,,main,k,k,1,0.6467198000027565,509.97797010000795,None,None,0,,,,,,,,,,,,,,107,2023-03-30_15h05.14.801,Main,2022.1.1,60.06301811774261,
positive,yellow,1,None,k,,,,,,,,,0,140,140,140,,,,,,,,,,,,,,,,,main,k,k,1,0.7329612000030465,511.62535030000436,None,None,0,,,,,,,,,,,,,,107,2023-03-30_15h05.14.801,Main,2022.1.1,60.06301811774261,
positive,blue,1,k,None,,,,,,,,,0,141,141,141,,,,,,,,,,,,,,,,,main,None,None,1,1.5012127000081819,513.3614873000042,None,None,1,,,,,,,,,,,,,,107,2023-03-30_15h05.14.801,Main,2022.1.1,60.06301811774261,
positive,blue,2,k,None,,,,,,,,,0,142,142,142,,,,,,,,,,,,,,,,,main,None,None,1,1.4963630999991437,515.8612602000067,None,None,1,,,,,,,,,,,,,,107,2023-03-30_15h05.14.801,Main,2022.1.1,60.06301811774261,
positive,yellow,2,None,k,,,,,,,,,0,143,143,143,,,,,,,,,,,,,,,,,main,k,k,1,0.8688595999992685,518.358533000006,None,None,0,,,,,,,,,,,,,,107,2023-03-30_15h05.14.801,Main,2022.1.1,60.06301811774261,
negative,yellow,2,k,None,,,,,,,,,0,144,144,144,,,,,,,,,,,,,,,,,main,None,None,1,1.498656600000686,520.2278093000059,None,None,1,,,,,,,,,,,,,,107,2023-03-30_15h05.14.801,Main,2022.1.1,60.06301811774261,
negative,blue,2,None,k,,,,,,,,,0,145,145,145,,,,,,,,,,,,,,,,,main,k,k,1,0.7636429999984102,522.727809700009,None,None,0,,,,,,,,,,,,,,107,2023-03-30_15h05.14.801,Main,2022.1.1,60.06301811774261,
negative,red,1,None,None,,,,,,,,,0,146,146,146,,,,,,,,,,,,,,,,,main,None,None,1,1.5016448999958811,524.4917212,None,None,1,,,,,,,,,,,,,,107,2023-03-30_15h05.14.801,Main,2022.1.1,60.06301811774261,
positive,blue,1,k,None,,,,,,,,,0,147,147,147,,,,,,,,,,,,,,,,,main,None,None,1,1.4987048999901162,526.994334300005,None,None,1,,,,,,,,,,,,,,107,2023-03-30_15h05.14.801,Main,2022.1.1,60.06301811774261,
positive,yellow,1,None,k,,,,,,,,,0,148,148,148,,,,,,,,,,,,,,,,,main,k,k,1,0.7659573999990243,529.4941580000013,None,None,0,,,,,,,,,,,,,,107,2023-03-30_15h05.14.801,Main,2022.1.1,60.06301811774261,
negative,red,2,None,None,,,,,,,,,0,149,149,149,,,,,,,,,,,,,,,,,main,None,None,1,1.4964907999965362,531.2608595000056,None,None,1,,,,,,,,,,,,,,107,2023-03-30_15h05.14.801,Main,2022.1.1,60.06301811774261,
negative,blue,1,None,k,,,,,,,,,0,150,150,150,,,,,,,,,,,,,,,,,main,k,k,1,0.8186866000032751,533.7582744000101,None,None,0,,,,,,,,,,,,,,107,2023-03-30_15h05.14.801,Main,2022.1.1,60.06301811774261,
negative,yellow,2,k,None,,,,,,,,,0,151,151,151,,,,,,,,,,,,,,,,,main,None,None,1,1.496436100002029,535.5775078000006,None,None,1,,,,,,,,,,,,,,107,2023-03-30_15h05.14.801,Main,2022.1.1,60.06301811774261,
negative,blue,2,None,k,,,,,,,,,0,152,152,152,,,,,,,,,,,,,,,,,main,k,k,1,0.9351262999989558,538.0772532000119,None,None,0,,,,,,,,,,,,,,107,2023-03-30_15h05.14.801,Main,2022.1.1,60.06301811774261,
negative,yellow,1,k,None,,,,,,,,,0,153,153,153,,,,,,,,,,,,,,,,,main,None,None,1,1.4963856999966083,540.0105570000014,None,None,1,,,,,,,,,,,,,,107,2023-03-30_15h05.14.801,Main,2022.1.1,60.06301811774261,
negative,blue,1,None,k,,,,,,,,,0,154,154,154,,,,,,,,,,,,,,,,,main,k,k,1,0.8522133999940706,542.5080173000024,None,None,0,,,,,,,,,,,,,,107,2023-03-30_15h05.14.801,Main,2022.1.1,60.06301811774261,
positive,yellow,2,None,k,,,,,,,,,0,155,155,155,,,,,,,,,,,,,,,,,main,k,k,1,0.6991768000007141,544.3607468000118,None,None,0,,,,,,,,,,,,,,107,2023-03-30_15h05.14.801,Main,2022.1.1,60.06301811774261,
positive,red,2,None,None,,,,,,,,,0,156,156,156,,,,,,,,,,,,,,,,,main,None,None,1,1.4962452000036137,546.0605391999998,None,None,1,,,,,,,,,,,,,,107,2023-03-30_15h05.14.801,Main,2022.1.1,60.06301811774261,
positive,red,1,None,None,,,,,,,,,0,157,157,157,,,,,,,,,,,,,,,,,main,None,None,1,1.5019215000065742,548.5578857000073,None,None,1,,,,,,,,,,,,,,107,2023-03-30_15h05.14.801,Main,2022.1.1,60.06301811774261,
positive,blue,2,k,None,,,,,,,,,0,158,158,158,,,,,,,,,,,,,,,,,main,None,None,1,1.4990648999955738,551.0605131000048,None,None,1,,,,,,,,,,,,,,107,2023-03-30_15h05.14.801,Main,2022.1.1,60.06301811774261,
negative,yellow,1,k,None,,,,,,,,,0,159,159,159,,,,,,,,,,,,,,,,,main,None,None,1,1.4963353000057396,553.5603649000113,None,None,1,,,,,,,,,,,,,,107,2023-03-30_15h05.14.801,Main,2022.1.1,60.06301811774261,
negative,red,2,None,None,,,,,,,,,0,160,160,160,,,,,,,,,,,,,,,,,main,None,None,1,1.5019190000020899,556.0577150000026,None,None,1,,,,,,,,,,,,,,107,2023-03-30_15h05.14.801,Main,2022.1.1,60.06301811774261,
negative,blue,1,None,k,,,,,,,,,0,161,161,161,,,,,,,,,,,,,,,,,main,k,k,1,0.8521785999910207,558.5603647000098,None,None,0,,,,,,,,,,,,,,107,2023-03-30_15h05.14.801,Main,2022.1.1,60.06301811774261,
negative,blue,1,None,k,,,,,,,,,0,162,162,162,,,,,,,,,,,,,,,,,main,k,k,1,0.6937040000048,560.407597700003,None,None,0,,,,,,,,,,,,,,107,2023-03-30_15h05.14.801,Main,2022.1.1,60.06301811774261,
negative,yellow,1,k,None,,,,,,,,,0,163,163,163,,,,,,,,,,,,,,,,,main,None,None,1,1.5015002000000095,562.1075568000088,None,None,1,,,,,,,,,,,,,,107,2023-03-30_15h05.14.801,Main,2022.1.1,60.06301811774261,
negative,yellow,1,k,None,,,,,,,,,0,164,164,164,,,,,,,,,,,,,,,,,main,None,None,1,1.4988040000025649,564.6102326000109,None,None,1,,,,,,,,,,,,,,107,2023-03-30_15h05.14.801,Main,2022.1.1,60.06301811774261,
positive,yellow,1,None,k,,,,,,,,,0,165,165,165,,,,,,,,,,,,,,,,,main,k,k,1,0.8329978999972809,567.1077709000092,None,None,0,,,,,,,,,,,,,,107,2023-03-30_15h05.14.801,Main,2022.1.1,60.06301811774261,
negative,red,1,None,None,,,,,,,,,0,166,166,166,,,,,,,,,,,,,,,,,main,None,None,1,1.4961775000119815,568.9410934000043,None,None,1,,,,,,,,,,,,,,107,2023-03-30_15h05.14.801,Main,2022.1.1,60.06301811774261,
negative,yellow,2,k,None,,,,,,,,,0,167,167,167,,,,,,,,,,,,,,,,,main,None,None,1,1.501915699991514,571.4407524000126,None,None,1,,,,,,,,,,,,,,107,2023-03-30_15h05.14.801,Main,2022.1.1,60.06301811774261,
positive,blue,2,k,None,,,,,,,,,0,168,168,168,,,,,,,,,,,,,,,,,main,None,None,1,1.496261799999047,573.9432737000025,None,None,1,,,,,,,,,,,,,,107,2023-03-30_15h05.14.801,Main,2022.1.1,60.06301811774261,
positive,red,2,None,None,,,,,,,,,0,169,169,169,,,,,,,,,,,,,,,,,main,None,None,1,1.5016786999913165,576.4405985000049,None,None,1,,,,,,,,,,,,,,107,2023-03-30_15h05.14.801,Main,2022.1.1,60.06301811774261,
positive,red,1,None,None,,,,,,,,,0,170,170,170,,,,,,,,,,,,,,,,,main,None,None,1,1.4966965000057826,578.9432543000003,None,None,1,,,,,,,,,,,,,,107,2023-03-30_15h05.14.801,Main,2022.1.1,60.06301811774261,
negative,blue,2,None,k,,,,,,,,,0,171,171,171,,,,,,,,,,,,,,,,,main,k,k,1,0.7015871000039624,581.4464234000043,None,None,0,,,,,,,,,,,,,,107,2023-03-30_15h05.14.801,Main,2022.1.1,60.06301811774261,
positive,blue,2,k,None,,,,,,,,,0,172,172,172,,,,,,,,,,,,,,,,,main,None,None,1,1.4964752000087174,583.1429695000115,None,None,1,,,,,,,,,,,,,,107,2023-03-30_15h05.14.801,Main,2022.1.1,60.06301811774261,
negative,yellow,2,k,None,,,,,,,,,0,173,173,173,,,,,,,,,,,,,,,,,main,None,None,1,1.5019116000039503,585.6404003000061,None,None,1,,,,,,,,,,,,,,107,2023-03-30_15h05.14.801,Main,2022.1.1,60.06301811774261,
positive,yellow,2,None,k,,,,,,,,,0,174,174,174,,,,,,,,,,,,,,,,,main,k,k,1,0.7658597999979975,588.1430480000126,None,None,0,,,,,,,,,,,,,,107,2023-03-30_15h05.14.801,Main,2022.1.1,60.06301811774261,
negative,blue,2,None,k,,,,,,,,,0,175,175,175,,,,,,,,,,,,,,,,,main,k,k,1,0.832295799991698,589.9096032000089,None,None,0,,,,,,,,,,,,,,107,2023-03-30_15h05.14.801,Main,2022.1.1,60.06301811774261,
positive,blue,1,k,None,,,,,,,,,0,176,176,176,,,,,,,,,,,,,,,,,main,None,None,1,1.4968116999953054,591.7405600000056,None,None,1,,,,,,,,,,,,,,107,2023-03-30_15h05.14.801,Main,2022.1.1,60.06301811774261,
positive,yellow,1,None,k,,,,,,,,,0,177,177,177,,,,,,,,,,,,,,,,,main,k,k,1,0.765985100006219,594.2402024000039,None,None,0,,,,,,,,,,,,,,107,2023-03-30_15h05.14.801,Main,2022.1.1,60.06301811774261,
positive,blue,1,k,None,,,,,,,,,0,178,178,178,,,,,,,,,,,,,,,,,main,None,None,1,1.5015870999923209,596.0068591000017,None,None,1,,,,,,,,,,,,,,107,2023-03-30_15h05.14.801,Main,2022.1.1,60.06301811774261,
positive,yellow,2,None,k,,,,,,,,,0,179,179,179,,,,,,,,,,,,,,,,,main,k,k,1,0.7325947000063024,598.5094710999983,None,None,0,,,,,,,,,,,,,,107,2023-03-30_15h05.14.801,Main,2022.1.1,60.06301811774261,
positive,blue,1,k,None,,,,,,,,,0,180,180,180,,,,,,,,,,,,,,,,,main,None,None,1,1.4962492999911774,600.2428860000073,None,None,1,,,,,,,,,,,,,,107,2023-03-30_15h05.14.801,Main,2022.1.1,60.06301811774261,
negative,red,1,None,None,,,,,,,,,0,181,181,181,,,,,,,,,,,,,,,,,main,None,None,1,1.5019356999982847,602.7400482000085,None,None,1,,,,,,,,,,,,,,107,2023-03-30_15h05.14.801,Main,2022.1.1,60.06301811774261,
negative,blue,1,None,k,,,,,,,,,0,182,182,182,,,,,,,,,,,,,,,,,main,k,k,1,0.7993427999899723,605.2426926000044,None,None,0,,,,,,,,,,,,,,107,2023-03-30_15h05.14.801,Main,2022.1.1,60.06301811774261,
negative,yellow,2,k,None,,,,,,,,,0,183,183,183,,,,,,,,,,,,,,,,,main,None,None,1,1.4960852000076557,607.0425925000018,None,None,1,,,,,,,,,,,,,,107,2023-03-30_15h05.14.801,Main,2022.1.1,60.06301811774261,
positive,yellow,2,None,k,,,,,,,,,0,184,184,184,,,,,,,,,,,,,,,,,main,k,k,1,0.8521192999905907,609.5398897999985,None,None,0,,,,,,,,,,,,,,107,2023-03-30_15h05.14.801,Main,2022.1.1,60.06301811774261,
positive,yellow,1,None,k,,,,,,,,,0,185,185,185,,,,,,,,,,,,,,,,,main,k,k,1,0.7326154000038514,611.392534700004,None,None,0,,,,,,,,,,,,,,107,2023-03-30_15h05.14.801,Main,2022.1.1,60.06301811774261,
positive,red,2,None,None,,,,,,,,,0,186,186,186,,,,,,,,,,,,,,,,,main,None,None,1,1.4986156999948435,613.1259018000128,None,None,1,,,,,,,,,,,,,,107,2023-03-30_15h05.14.801,Main,2022.1.1,60.06301811774261,
positive,blue,1,k,None,,,,,,,,,0,187,187,187,,,,,,,,,,,,,,,,,main,None,None,1,1.4967513999872608,615.6256214000023,None,None,1,,,,,,,,,,,,,,107,2023-03-30_15h05.14.801,Main,2022.1.1,60.06301811774261,
negative,yellow,1,k,None,,,,,,,,,0,188,188,188,,,,,,,,,,,,,,,,,main,None,None,1,1.4991658999933861,618.1230189000053,None,None,1,,,,,,,,,,,,,,107,2023-03-30_15h05.14.801,Main,2022.1.1,60.06301811774261,
positive,yellow,2,None,k,,,,,,,,,0,189,189,189,,,,,,,,,,,,,,,,,main,k,k,1,0.6352920000063023,620.6230225000036,None,None,0,,,,,,,,,,,,,,107,2023-03-30_15h05.14.801,Main,2022.1.1,60.06301811774261,
negative,yellow,2,k,None,,,,,,,,,0,190,190,190,,,,,,,,,,,,,,,,,main,None,None,1,1.4989047999988543,622.25889740001,None,None,1,,,,,,,,,,,,,,107,2023-03-30_15h05.14.801,Main,2022.1.1,60.06301811774261,
negative,yellow,1,k,None,,,,,,,,,0,191,191,191,,,,,,,,,,,,,,,,,main,None,None,1,1.496371300003375,624.7589042000036,None,None,1,,,,,,,,,,,,,,107,2023-03-30_15h05.14.801,Main,2022.1.1,60.06301811774261,
positive,blue,2,k,None,,,,,,,,,0,192,192,192,,,,,,,,,,,,,,,,,main,None,None,1,1.501968399999896,627.2561878000124,None,None,1,,,,,,,,,,,,,,107,2023-03-30_15h05.14.801,Main,2022.1.1,60.06301811774261,
positive,yellow,1,None,k,,,,,,,,,0,193,193,193,,,,,,,,,,,,,,,,,main,k,k,1,0.9659394999907818,629.7587390000117,None,None,0,,,,,,,,,,,,,,107,2023-03-30_15h05.14.801,Main,2022.1.1,60.06301811774261,
negative,red,2,None,None,,,,,,,,,0,194,194,194,,,,,,,,,,,,,,,,,main,None,None,1,1.4986643999873195,631.7261049000081,None,None,1,,,,,,,,,,,,,,107,2023-03-30_15h05.14.801,Main,2022.1.1,60.06301811774261,
positive,red,1,None,None,,,,,,,,,0,195,195,195,,,,,,,,,,,,,,,,,main,None,None,1,1.4967954000021564,634.2252311000047,None,None,1,,,,,,,,,,,,,,107,2023-03-30_15h05.14.801,Main,2022.1.1,60.06301811774261,
negative,blue,1,None,k,,,,,,,,,0,196,196,196,,,,,,,,,,,,,,,,,main,k,k,1,0.7518903000018327,636.7226268000086,None,None,0,,,,,,,,,,,,,,107,2023-03-30_15h05.14.801,Main,2022.1.1,60.06301811774261,
positive,blue,2,k,None,,,,,,,,,0,197,197,197,,,,,,,,,,,,,,,,,main,None,None,1,1.4991482999903383,638.4752199000068,None,None,1,,,,,,,,,,,,,,107,2023-03-30_15h05.14.801,Main,2022.1.1,60.06301811774261,
negative,blue,2,None,k,,,,,,,,,0,198,198,198,,,,,,,,,,,,,,,,,main,k,k,1,0.7465736000012839,640.9752192000014,None,None,0,,,,,,,,,,,,,,107,2023-03-30_15h05.14.801,Main,2022.1.1,60.06301811774261,
negative,blue,2,None,k,,,,,,,,,0,199,199,199,,,,,,,,,,,,,,,,,main,k,k,1,0.6659425999969244,642.7224941000022,None,None,0,,,,,,,,,,,,,,107,2023-03-30_15h05.14.801,Main,2022.1.1,60.06301811774261,
positive,blue,2,k,None,,,,,,,,,0,200,200,200,,,,,,,,,,,,,,,,,main,None,None,1,1.501555599999847,644.3891628999991,None,None,1,,,,,,,,,,,,,,107,2023-03-30_15h05.14.801,Main,2022.1.1,60.06301811774261,
positive,blue,2,k,None,,,,,,,,,0,201,201,201,,,,,,,,,,,,,,,,,main,None,None,1,1.496501099987654,646.8916742000001,None,None,1,,,,,,,,,,,,,,107,2023-03-30_15h05.14.801,Main,2022.1.1,60.06301811774261,
negative,yellow,2,k,None,,,,,,,,,0,202,202,202,,,,,,,,,,,,,,,,,main,None,None,1,1.5026935999921989,649.3889993000048,None,None,1,,,,,,,,,,,,,,107,2023-03-30_15h05.14.801,Main,2022.1.1,60.06301811774261,
positive,red,1,None,None,,,,,,,,,0,203,203,203,,,,,,,,,,,,,,,,,main,None,None,1,1.4955442999926163,651.8915853000071,None,None,1,,,,,,,,,,,,,,107,2023-03-30_15h05.14.801,Main,2022.1.1,60.06301811774261,
negative,blue,2,None,k,,,,,,,,,0,204,204,204,,,,,,,,,,,,,,,,,main,k,k,1,0.7327362999931211,654.3888780999987,None,None,0,,,,,,,,,,,,,,107,2023-03-30_15h05.14.801,Main,2022.1.1,60.06301811774261,
negative,red,1,None,None,,,,,,,,,0,205,205,205,,,,,,,,,,,,,,,,,main,None,None,1,1.501411699995515,656.1222535999987,None,None,1,,,,,,,,,,,,,,107,2023-03-30_15h05.14.801,Main,2022.1.1,60.06301811774261,
negative,blue,2,None,k,,,,,,,,,0,206,206,206,,,,,,,,,,,,,,,,,main,k,k,1,0.6799009999958798,658.6248256000108,None,None,0,,,,,,,,,,,,,,107,2023-03-30_15h05.14.801,Main,2022.1.1,60.06301811774261,
negative,yellow,2,k,None,,,,,,,,,0,207,207,207,,,,,,,,,,,,,,,,,main,None,None,1,1.501599499999429,660.3054375000065,None,None,1,,,,,,,,,,,,,,107,2023-03-30_15h05.14.801,Main,2022.1.1,60.06301811774261,
positive,yellow,2,None,k,,,,,,,,,0,208,208,208,,,,,,,,,,,,,,,,,main,k,k,1,0.7328104999905918,662.808013700007,None,None,0,,,,,,,,,,,,,,107,2023-03-30_15h05.14.801,Main,2022.1.1,60.06301811774261,
negative,yellow,1,k,None,,,,,,,,,0,209,209,209,,,,,,,,,,,,,,,,,main,None,None,1,1.4967927999969106,664.5413151000103,None,None,1,,,,,,,,,,,,,,107,2023-03-30_15h05.14.801,Main,2022.1.1,60.06301811774261,
negative,red,2,None,None,,,,,,,,,0,210,210,210,,,,,,,,,,,,,,,,,main,None,None,1,1.4985742999997456,667.0411599000072,None,None,1,,,,,,,,,,,,,,107,2023-03-30_15h05.14.801,Main,2022.1.1,60.06301811774261,
negative,blue,1,None,k,,,,,,,,,0,211,211,211,,,,,,,,,,,,,,,,,main,k,k,1,0.7494140000053449,669.538552900005,None,None,0,,,,,,,,,,,,,,107,2023-03-30_15h05.14.801,Main,2022.1.1,60.06301811774261,
negative,yellow,1,k,None,,,,,,,,,0,212,212,212,,,,,,,,,,,,,,,,,main,None,None,1,1.5016990000003716,671.2885830000014,None,None,1,,,,,,,,,,,,,,107,2023-03-30_15h05.14.801,Main,2022.1.1,60.06301811774261,
positive,blue,1,k,None,,,,,,,,,0,213,213,213,,,,,,,,,,,,,,,,,main,None,None,1,1.4988226999994367,673.7911530000129,None,None,1,,,,,,,,,,,,,,107,2023-03-30_15h05.14.801,Main,2022.1.1,60.06301811774261,
positive,blue,1,k,None,,,,,,,,,0,214,214,214,,,,,,,,,,,,,,,,,main,None,None,1,1.4965959999972256,676.2909153000073,None,None,1,,,,,,,,,,,,,,107,2023-03-30_15h05.14.801,Main,2022.1.1,60.06301811774261,
positive,yellow,1,None,k,,,,,,,,,0,215,215,215,,,,,,,,,,,,,,,,,main,k,k,1,0.6994361000106437,678.7885120999999,None,None,0,,,,,,,,,,,,,,107,2023-03-30_15h05.14.801,Main,2022.1.1,60.06301811774261,
positive,yellow,1,None,k,,,,,,,,,0,216,216,216,,,,,,,,,,,,,,,,,main,k,k,1,0.6860506999946665,680.4883599000023,None,None,0,,,,,,,,,,,,,,107,2023-03-30_15h05.14.801,Main,2022.1.1,60.06301811774261,
positive,yellow,2,None,k,,,,,,,,,0,217,217,217,,,,,,,,,,,,,,,,,main,k,k,1,0.8149705999967409,682.1742995000095,None,None,0,,,,,,,,,,,,,,107,2023-03-30_15h05.14.801,Main,2022.1.1,60.06301811774261,
negative,blue,1,None,k,,,,,,,,,0,218,218,218,,,,,,,,,,,,,,,,,main,k,k,1,0.8155161000031512,683.9909494000021,None,None,0,,,,,,,,,,,,,,107,2023-03-30_15h05.14.801,Main,2022.1.1,60.06301811774261,
positive,red,2,None,None,,,,,,,,,0,219,219,219,,,,,,,,,,,,,,,,,main,None,None,1,1.49666220000654,685.8073973999999,None,None,1,,,,,,,,,,,,,,107,2023-03-30_15h05.14.801,Main,2022.1.1,60.06301811774261,
positive,yellow,1,None,k,,,,,,,,,0,220,220,220,,,,,,,,,,,,,,,,,main,k,k,1,1.368485500002862,688.3047885000124,None,None,0,,,,,,,,,,,,,,107,2023-03-30_15h05.14.801,Main,2022.1.1,60.06301811774261,
positive,blue,1,k,None,,,,,,,,,0,221,221,221,,,,,,,,,,,,,,,,,main,None,None,1,1.4988451000099303,690.674019099999,None,None,1,,,,,,,,,,,,,,107,2023-03-30_15h05.14.801,Main,2022.1.1,60.06301811774261,
positive,yellow,2,None,k,,,,,,,,,0,222,222,222,,,,,,,,,,,,,,,,,main,k,k,1,0.7132436000101734,693.1740787000017,None,None,0,,,,,,,,,,,,,,107,2023-03-30_15h05.14.801,Main,2022.1.1,60.06301811774261,
negative,yellow,1,k,None,,,,,,,,,0,223,223,223,,,,,,,,,,,,,,,,,main,None,None,1,1.5015070999943418,694.8879959000042,None,None,1,,,,,,,,,,,,,,107,2023-03-30_15h05.14.801,Main,2022.1.1,60.06301811774261,
positive,yellow,2,None,k,,,,,,,,,0,224,224,224,,,,,,,,,,,,,,,,,main,k,k,1,0.6493268999911379,697.3906247000123,None,None,0,,,,,,,,,,,,,,107,2023-03-30_15h05.14.801,Main,2022.1.1,60.06301811774261,
negative,yellow,2,k,None,,,,,,,,,0,225,225,225,,,,,,,,,,,,,,,,,main,None,None,1,1.4960681999946246,699.0406112000055,None,None,1,,,,,,,,,,,,,,107,2023-03-30_15h05.14.801,Main,2022.1.1,60.06301811774261,
negative,blue,2,None,k,,,,,,,,,0,226,226,226,,,,,,,,,,,,,,,,,main,k,k,1,0.6687689000100363,701.5378547,None,None,0,,,,,,,,,,,,,,107,2023-03-30_15h05.14.801,Main,2022.1.1,60.06301811774261,
positive,red,2,None,None,,,,,,,,,0,227,227,227,,,,,,,,,,,,,,,,,main,None,None,1,1.5019363000028534,703.2071725999995,None,None,1,,,,,,,,,,,,,,107,2023-03-30_15h05.14.801,Main,2022.1.1,60.06301811774261,
positive,blue,2,k,None,,,,,,,,,0,228,228,228,,,,,,,,,,,,,,,,,main,None,None,1,1.4960934999980964,705.7087938000041,None,None,1,,,,,,,,,,,,,,107,2023-03-30_15h05.14.801,Main,2022.1.1,60.06301811774261,
negative,blue,1,None,k,,,,,,,,,0,229,229,229,,,,,,,,,,,,,,,,,main,k,k,1,0.6966508000041358,708.2069101000088,None,None,0,,,,,,,,,,,,,,107,2023-03-30_15h05.14.801,Main,2022.1.1,60.06301811774261,
positive,yellow,1,None,k,,,,,,,,,0,230,230,230,,,,,,,,,,,,,,,,,main,k,k,1,0.8017209999961779,709.9043235999998,None,None,0,,,,,,,,,,,,,,107,2023-03-30_15h05.14.801,Main,2022.1.1,60.06301811774261,
negative,blue,2,None,k,,,,,,,,,0,231,231,231,,,,,,,,,,,,,,,,,main,k,k,1,0.7639807999948971,711.7069336999994,None,None,0,,,,,,,,,,,,,,107,2023-03-30_15h05.14.801,Main,2022.1.1,60.06301811774261,
negative,red,1,None,None,,,,,,,,,0,232,232,232,,,,,,,,,,,,,,,,,main,None,None,1,1.500805500007118,713.4737606000126,None,None,1,,,,,,,,,,,,,,107,2023-03-30_15h05.14.801,Main,2022.1.1,60.06301811774261,
positive,blue,2,k,None,,,,,,,,,0,233,233,233,,,,,,,,,,,,,,,,,main,None,None,1,1.4964687999890884,715.9734763000015,None,None,1,,,,,,,,,,,,,,107,2023-03-30_15h05.14.801,Main,2022.1.1,60.06301811774261,
negative,yellow,1,k,None,,,,,,,,,0,234,234,234,,,,,,,,,,,,,,,,,main,None,None,1,1.501768499991158,718.4708329999994,None,None,1,,,,,,,,,,,,,,107,2023-03-30_15h05.14.801,Main,2022.1.1,60.06301811774261,
negative,yellow,2,k,None,,,,,,,,,0,235,235,235,,,,,,,,,,,,,,,,,main,None,None,1,1.4992534999910276,720.9734526000102,None,None,1,,,,,,,,,,,,,,107,2023-03-30_15h05.14.801,Main,2022.1.1,60.06301811774261,
positive,red,1,None,None,,,,,,,,,0,236,236,236,,,,,,,,,,,,,,,,,main,None,None,1,1.4966408000036608,723.4734035000001,None,None,1,,,,,,,,,,,,,,107,2023-03-30_15h05.14.801,Main,2022.1.1,60.06301811774261,
negative,red,2,None,None,,,,,,,,,0,237,237,237,,,,,,,,,,,,,,,,,main,None,None,1,1.4988593000016408,725.973246900001,None,None,1,,,,,,,,,,,,,,107,2023-03-30_15h05.14.801,Main,2022.1.1,60.06301811774261,
negative,blue,1,None,k,,,,,,,,,0,238,238,238,,,,,,,,,,,,,,,,,main,k,k,1,0.7355357999913394,728.4705746000109,None,None,0,,,,,,,,,,,,,,107,2023-03-30_15h05.14.801,Main,2022.1.1,60.06301811774261,
positive,blue,1,k,None,,,,,,,,,0,239,239,239,,,,,,,,,,,,,,,,,main,None,None,1,1.4989170000044396,730.2065655000042,None,None,1,,,,,,,,,,,,,,107,2023-03-30_15h05.14.801,Main,2022.1.1,60.06301811774261,
,,,,,,,,,,,,,,,,,,,,,,,,,,,,,,,,,,,,,,,,,,,,,,,,,,,,,732.7064984000026,None,,,,,,
