distractor,target,set,ans1,ans2,rep_loop4.thisRepN,rep_loop4.thisTrialN,rep_loop4.thisN,rep_loop4.thisIndex,st2_prac_loop.thisRepN,st2_prac_loop.thisTrialN,st2_prac_loop.thisN,st2_prac_loop.thisIndex,st2_main_loop.thisRepN,st2_main_loop.thisTrialN,st2_main_loop.thisN,st2_main_loop.thisIndex,image_4.started,image_4.stopped,sound_2.started,sound_2.stopped,key_resp_3.keys,key_resp_3.rt,image_5.started,image_5.stopped,st_prac_back.started,st_prac_back.stopped,st_prac_text.started,st_prac_text.stopped,st_fix_back.started,st_fix_back.stopped,st_fix_2.started,st_fix_2.stopped,main_prac,st_ans,st_res,st_corr,st_rt,st_back.started,st_back.stopped,st2_resp.keys,st2_resp.corr,st_main_back.started,st_main_back.stopped,st_main_text.started,st_main_text.stopped,mouse_4.x,mouse_4.y,mouse_4.leftButton,mouse_4.midButton,mouse_4.rightButton,mouse_4.started,mouse_4.stopped,text_2.started,text_2.stopped,id*,date,expName,psychopyVersion,frameRate,
negative,yellow,1,k,None,,,,,0,0,0,0,,,,,30.35112669999944,None,38.87297445998702,None,space,57.669194399990374,96.57337830000324,None,97.9566596999939,None,97.9566596999939,None,99.97073099997942,None,99.97073099997942,None,prac,k,k,1,1.4729091000044718,101.9757668999955,None,None,0,,,,,,,,,,,,,,108,2023-03-31_17h33.08.080,Main,2022.1.1,60.027252377437705,
positive,red,2,None,None,,,,,0,1,1,1,,,,,,,,,,,,,,,,,,,,,prac,None,None,1,1.4961383999907412,104.45656219997909,None,None,1,,,,,,,,,,,,,,108,2023-03-31_17h33.08.080,Main,2022.1.1,60.027252377437705,
negative,blue,2,None,k,,,,,0,2,2,2,,,,,,,,,,,,,,,,,,,,,prac,None,None,1,1.5019118999771308,106.95379780000076,None,None,1,,,,,,,,,,,,,,108,2023-03-31_17h33.08.080,Main,2022.1.1,60.027252377437705,
positive,yellow,1,None,k,,,,,0,3,3,3,,,,,,,,,,,,,,,,,,,,,prac,None,None,1,1.4988697999797296,109.4564129000064,None,None,1,,,,,,,,,,,,,,108,2023-03-31_17h33.08.080,Main,2022.1.1,60.027252377437705,
negative,blue,2,None,k,,,,,0,4,4,4,,,,,,,,,,,,,,,,,,,,,prac,None,None,1,1.4970549999852665,111.95615549999638,None,None,1,,,,,,,,,,,,,,108,2023-03-31_17h33.08.080,Main,2022.1.1,60.027252377437705,
negative,blue,1,None,k,,,,,0,5,5,5,,,,,,,,,,,,,,,,,,,,,prac,None,None,1,1.5010929000272881,114.45362409998779,None,None,1,,,,,,,,,,,,,,108,2023-03-31_17h33.08.080,Main,2022.1.1,60.027252377437705,
negative,yellow,2,k,None,,,,,0,6,6,6,,,,,,,,,,,,,,,,,,,,,prac,k,k,1,1.849128199974075,116.95628779998515,None,None,0,,,,,,,,,,,,,,108,2023-03-31_17h33.08.080,Main,2022.1.1,60.027252377437705,
negative,red,1,None,None,,,,,0,7,7,7,,,,,,,,,,,,,,,,,,,,,prac,None,None,1,1.4869608000153676,120.8201507999911,None,None,1,,,,,,,,,,,,,,108,2023-03-31_17h33.08.080,Main,2022.1.1,60.027252377437705,
positive,yellow,2,None,k,,,,,0,8,8,8,,,,,,,,,,,,,,,,,,,,,prac,None,None,1,1.499218999990262,123.30613109999103,None,None,1,,,,,,,,,,,,,,108,2023-03-31_17h33.08.080,Main,2022.1.1,60.027252377437705,
negative,yellow,1,k,None,,,,,0,9,9,9,,,,,,,,,,,,,,,,,,,,,prac,k,k,1,1.0466796999971848,125.80598539998755,None,None,0,,,,,,,,,,,,,,108,2023-03-31_17h33.08.080,Main,2022.1.1,60.027252377437705,
positive,yellow,2,None,k,,,,,0,10,10,10,,,,,,,,,,,,,,,,,,,,,prac,None,None,1,1.501223100000061,127.85332840000046,None,None,1,,,,,,,,,,,,,,108,2023-03-31_17h33.08.080,Main,2022.1.1,60.027252377437705,
negative,yellow,2,k,None,,,,,0,11,11,11,,,,,,,,,,,,,,,,,,,,,prac,k,k,1,1.099352799996268,130.35584400000516,None,None,0,,,,,,,,,,,,,,108,2023-03-31_17h33.08.080,Main,2022.1.1,60.027252377437705,
negative,red,2,None,None,,,,,0,12,12,12,,,,,,,,,,,,,,,,,,,,,prac,None,None,1,1.4963728000002448,132.4558512000076,None,None,1,,,,,,,,,,,,,,108,2023-03-31_17h33.08.080,Main,2022.1.1,60.027252377437705,
positive,red,1,None,None,,,,,0,13,13,13,,,,,,,,,,,,,,,,,,,,,prac,None,None,1,1.5018531999958213,134.95323359998292,None,None,1,,,,,,,,,,,,,,108,2023-03-31_17h33.08.080,Main,2022.1.1,60.027252377437705,
positive,blue,2,k,None,,,,,0,14,14,14,,,,,,,,,,,,,,,,,,,,,prac,k,k,1,0.9490151999925729,137.45580559998052,None,None,0,,,,,,,,,,,,,,108,2023-03-31_17h33.08.080,Main,2022.1.1,60.027252377437705,
positive,blue,1,k,None,,,,,0,15,15,15,,,,,,,,,,,,,,,,,,,,,prac,k,k,1,1.0814339999924414,139.40559949999442,None,None,0,,,,,,,,,,,,,,108,2023-03-31_17h33.08.080,Main,2022.1.1,60.027252377437705,
negative,blue,1,None,k,,,,,0,16,16,16,,,,,,,,,,,,,,,,,,,,,prac,None,None,1,1.496287099987967,141.48893099999987,None,None,1,,,,,,,,,,,,,,108,2023-03-31_17h33.08.080,Main,2022.1.1,60.027252377437705,
positive,blue,2,k,None,,,,,0,17,17,17,,,,,,,,,,,,,,,,,,,,,prac,k,k,1,1.4018369000114035,143.98634169998695,None,None,0,,,,,,,,,,,,,,108,2023-03-31_17h33.08.080,Main,2022.1.1,60.027252377437705,
positive,blue,1,k,None,,,,,0,18,18,18,,,,,,,,,,,,,,,,,,,,,prac,k,k,1,0.9657945999933872,146.3888791000063,None,None,0,,,,,,,,,,,,,,108,2023-03-31_17h33.08.080,Main,2022.1.1,60.027252377437705,
positive,yellow,1,None,k,,,,,0,19,19,19,,,,,,,,,,,,,,,,,,,,,prac,None,None,1,1.4963461000006646,148.35842919998686,None,None,1,,,,,,,,,,,,,,108,2023-03-31_17h33.08.080,Main,2022.1.1,60.027252377437705,
negative,yellow,1,k,None,,,,,1,0,20,0,,,,,,,,,,,,,,,,,,,,,prac,k,k,1,0.7184929999930318,150.85287719999906,None,None,0,,,,,,,,,,,,,,108,2023-03-31_17h33.08.080,Main,2022.1.1,60.027252377437705,
positive,red,2,None,None,,,,,1,1,21,1,,,,,,,,,,,,,,,,,,,,,prac,None,None,1,1.498908500012476,152.57212599998456,None,None,1,,,,,,,,,,,,,,108,2023-03-31_17h33.08.080,Main,2022.1.1,60.027252377437705,
negative,blue,2,None,k,,,,,1,2,22,2,,,,,,,,,,,,,,,,,,,,,prac,None,None,1,1.4962255000136793,155.07206129998667,None,None,1,,,,,,,,,,,,,,108,2023-03-31_17h33.08.080,Main,2022.1.1,60.027252377437705,
positive,yellow,1,None,k,,,,,1,3,23,3,,,,,,,,,,,,,,,,,,,,,prac,None,None,1,1.5018324999837205,157.56933129997924,None,None,1,,,,,,,,,,,,,,108,2023-03-31_17h33.08.080,Main,2022.1.1,60.027252377437705,
negative,blue,2,None,k,,,,,1,4,24,4,,,,,,,,,,,,,,,,,,,,,prac,None,None,1,1.4989648000046145,160.07192519999808,None,None,1,,,,,,,,,,,,,,108,2023-03-31_17h33.08.080,Main,2022.1.1,60.027252377437705,
negative,blue,1,None,k,,,,,1,5,25,5,,,,,,,,,,,,,,,,,,,,,prac,None,None,1,1.498926800006302,162.57188339999993,None,None,1,,,,,,,,,,,,,,108,2023-03-31_17h33.08.080,Main,2022.1.1,60.027252377437705,
negative,yellow,2,k,None,,,,,1,6,26,6,,,,,,,,,,,,,,,,,,,,,prac,k,k,1,0.9134047999978065,165.07178199998452,None,None,0,,,,,,,,,,,,,,108,2023-03-31_17h33.08.080,Main,2022.1.1,60.027252377437705,
negative,red,1,None,None,,,,,1,7,27,7,,,,,,,,,,,,,,,,,,,,,prac,None,None,1,1.5016434999997728,166.98580669998773,None,None,1,,,,,,,,,,,,,,108,2023-03-31_17h33.08.080,Main,2022.1.1,60.027252377437705,
positive,yellow,2,None,k,,,,,1,8,28,8,,,,,,,,,,,,,,,,,,,,,prac,None,None,1,1.501937299995916,169.48594969999976,None,None,1,,,,,,,,,,,,,,108,2023-03-31_17h33.08.080,Main,2022.1.1,60.027252377437705,
negative,yellow,1,k,None,,,,,1,9,29,9,,,,,,,,,,,,,,,,,,,,,prac,k,k,1,0.9269539999950211,171.98972049998702,None,None,0,,,,,,,,,,,,,,108,2023-03-31_17h33.08.080,Main,2022.1.1,60.027252377437705,
positive,yellow,2,None,k,,,,,1,10,30,10,,,,,,,,,,,,,,,,,,,,,prac,None,None,1,1.501633399981074,173.91903669998283,None,None,1,,,,,,,,,,,,,,108,2023-03-31_17h33.08.080,Main,2022.1.1,60.027252377437705,
negative,yellow,2,k,None,,,,,1,11,31,11,,,,,,,,,,,,,,,,,,,,,prac,k,k,1,0.8827087999961805,176.4216075000004,None,None,0,,,,,,,,,,,,,,108,2023-03-31_17h33.08.080,Main,2022.1.1,60.027252377437705,
negative,red,2,None,None,,,,,1,12,32,12,,,,,,,,,,,,,,,,,,,,,prac,None,None,1,1.4966513000254054,178.30474719998892,None,None,1,,,,,,,,,,,,,,108,2023-03-31_17h33.08.080,Main,2022.1.1,60.027252377437705,
positive,red,1,None,None,,,,,1,13,33,13,,,,,,,,,,,,,,,,,,,,,prac,None,None,1,1.4984024000004865,180.80476050000289,None,None,1,,,,,,,,,,,,,,108,2023-03-31_17h33.08.080,Main,2022.1.1,60.027252377437705,
positive,blue,2,k,None,,,,,1,14,34,14,,,,,,,,,,,,,,,,,,,,,prac,k,k,1,0.9353561999741942,183.3021727000014,None,None,0,,,,,,,,,,,,,,108,2023-03-31_17h33.08.080,Main,2022.1.1,60.027252377437705,
positive,blue,1,k,None,,,,,1,15,35,15,,,,,,,,,,,,,,,,,,,,,prac,k,k,1,1.1657135999994352,185.23802369998884,None,None,0,,,,,,,,,,,,,,108,2023-03-31_17h33.08.080,Main,2022.1.1,60.027252377437705,
negative,blue,1,None,k,,,,,1,16,36,16,,,,,,,,,,,,,,,,,,,,,prac,None,None,1,1.4963371999911033,187.40466770000057,None,None,1,,,,,,,,,,,,,,108,2023-03-31_17h33.08.080,Main,2022.1.1,60.027252377437705,
positive,blue,2,k,None,,,,,1,17,37,17,,,,,,,,,,,,,,,,,,,,,prac,k,k,1,1.4661937000055332,189.9019968000066,None,None,0,,,,,,,,,,,,,,108,2023-03-31_17h33.08.080,Main,2022.1.1,60.027252377437705,
positive,blue,1,k,None,,,,,1,18,38,18,,,,,,,,,,,,,,,,,,,,,prac,k,k,1,1.4341102999751456,192.3690115000063,None,None,0,,,,,,,,,,,,,,108,2023-03-31_17h33.08.080,Main,2022.1.1,60.027252377437705,
positive,yellow,1,None,k,,,,,1,19,39,19,,,,,,,,,,,,,,,,,,,,,prac,None,None,1,1.4962866000132635,194.80485089999274,None,None,1,,,,,,,,,,,,,,108,2023-03-31_17h33.08.080,Main,2022.1.1,60.027252377437705,
,,,,,,,,,,,,,,,,,,,,,,,,,,,,,,,,,,,,,,,,,,197.301850799995,None,197.301850799995,None,0.39074075,-0.10555556,0,0,0,0.014274360029958189,None,,,108,2023-03-31_17h33.08.080,Main,2022.1.1,60.027252377437705,
negative,yellow,2,k,None,,,,,,,,,0,0,0,0,,,,,,,,,,,,,198.23768600000767,None,198.23768600000767,None,main,k,k,1,1.0629740000003949,200.26372289998108,None,None,0,,,,,,,,,,,,,,108,2023-03-31_17h33.08.080,Main,2022.1.1,60.027252377437705,
positive,red,1,None,None,,,,,,,,,0,1,1,1,,,,,,,,,,,,,,,,,main,None,None,1,1.5016868999809958,202.33501779998187,None,None,1,,,,,,,,,,,,,,108,2023-03-31_17h33.08.080,Main,2022.1.1,60.027252377437705,
positive,blue,2,k,None,,,,,,,,,0,2,2,2,,,,,,,,,,,,,,,,,main,k,k,1,0.7992799999774434,204.83766230000765,None,None,0,,,,,,,,,,,,,,108,2023-03-31_17h33.08.080,Main,2022.1.1,60.027252377437705,
positive,blue,1,k,None,,,,,,,,,0,3,3,3,,,,,,,,,,,,,,,,,main,k,k,1,0.7654265000019222,206.63773439999204,None,None,0,,,,,,,,,,,,,,108,2023-03-31_17h33.08.080,Main,2022.1.1,60.027252377437705,
negative,yellow,2,k,None,,,,,,,,,0,4,4,4,,,,,,,,,,,,,,,,,main,k,k,1,0.7965930000063963,208.4040807999845,None,None,0,,,,,,,,,,,,,,108,2023-03-31_17h33.08.080,Main,2022.1.1,60.027252377437705,
positive,yellow,2,None,k,,,,,,,,,0,5,5,5,,,,,,,,,,,,,,,,,main,None,None,1,1.49906010000268,210.2015182999894,None,None,1,,,,,,,,,,,,,,108,2023-03-31_17h33.08.080,Main,2022.1.1,60.027252377437705,
negative,blue,2,None,k,,,,,,,,,0,6,6,6,,,,,,,,,,,,,,,,,main,None,None,1,1.503384499985259,212.7015327999834,None,None,1,,,,,,,,,,,,,,108,2023-03-31_17h33.08.080,Main,2022.1.1,60.027252377437705,
positive,red,2,None,None,,,,,,,,,0,7,7,7,,,,,,,,,,,,,,,,,main,None,None,1,1.494605899992166,215.20405649999157,None,None,1,,,,,,,,,,,,,,108,2023-03-31_17h33.08.080,Main,2022.1.1,60.027252377437705,
positive,yellow,1,None,k,,,,,,,,,0,8,8,8,,,,,,,,,,,,,,,,,main,None,None,1,1.5020426000119187,217.70136029997957,None,None,1,,,,,,,,,,,,,,108,2023-03-31_17h33.08.080,Main,2022.1.1,60.027252377437705,
negative,red,1,None,None,,,,,,,,,0,9,9,9,,,,,,,,,,,,,,,,,main,None,None,1,1.4962957999960054,220.20389750000322,None,None,1,,,,,,,,,,,,,,108,2023-03-31_17h33.08.080,Main,2022.1.1,60.027252377437705,
positive,yellow,1,None,k,,,,,,,,,0,10,10,10,,,,,,,,,,,,,,,,,main,None,None,1,1.5015853999939281,222.70125630000257,None,None,1,,,,,,,,,,,,,,108,2023-03-31_17h33.08.080,Main,2022.1.1,60.027252377437705,
negative,yellow,1,k,None,,,,,,,,,0,11,11,11,,,,,,,,,,,,,,,,,main,k,k,1,0.816187299991725,225.20385709998664,None,None,0,,,,,,,,,,,,,,108,2023-03-31_17h33.08.080,Main,2022.1.1,60.027252377437705,
negative,yellow,1,k,None,,,,,,,,,0,12,12,12,,,,,,,,,,,,,,,,,main,k,k,1,0.7488615000038408,227.02053469998646,None,None,0,,,,,,,,,,,,,,108,2023-03-31_17h33.08.080,Main,2022.1.1,60.027252377437705,
negative,red,2,None,None,,,,,,,,,0,13,13,13,,,,,,,,,,,,,,,,,main,None,None,1,1.4989869999990333,228.77026999997906,None,None,1,,,,,,,,,,,,,,108,2023-03-31_17h33.08.080,Main,2022.1.1,60.027252377437705,
positive,yellow,2,None,k,,,,,,,,,0,14,14,14,,,,,,,,,,,,,,,,,main,None,None,1,1.4967154999903869,231.27321569999913,None,None,1,,,,,,,,,,,,,,108,2023-03-31_17h33.08.080,Main,2022.1.1,60.027252377437705,
positive,blue,1,k,None,,,,,,,,,0,15,15,15,,,,,,,,,,,,,,,,,main,k,k,1,0.7853981999796815,233.76772000000346,None,None,0,,,,,,,,,,,,,,108,2023-03-31_17h33.08.080,Main,2022.1.1,60.027252377437705,
negative,blue,1,None,k,,,,,,,,,0,16,16,16,,,,,,,,,,,,,,,,,main,None,None,1,1.4962287000089418,235.55368640000233,None,None,1,,,,,,,,,,,,,,108,2023-03-31_17h33.08.080,Main,2022.1.1,60.027252377437705,
positive,blue,2,k,None,,,,,,,,,0,17,17,17,,,,,,,,,,,,,,,,,main,k,k,1,0.783917399996426,238.0509158000059,None,None,0,,,,,,,,,,,,,,108,2023-03-31_17h33.08.080,Main,2022.1.1,60.027252377437705,
negative,blue,2,None,k,,,,,,,,,0,18,18,18,,,,,,,,,,,,,,,,,main,None,None,1,1.5006645999965258,239.83426719999989,None,None,1,,,,,,,,,,,,,,108,2023-03-31_17h33.08.080,Main,2022.1.1,60.027252377437705,
negative,blue,1,None,k,,,,,,,,,0,19,19,19,,,,,,,,,,,,,,,,,main,None,None,1,1.4963226999971084,242.3368313999963,None,None,1,,,,,,,,,,,,,,108,2023-03-31_17h33.08.080,Main,2022.1.1,60.027252377437705,
negative,blue,1,None,k,,,,,,,,,0,20,20,20,,,,,,,,,,,,,,,,,main,None,None,1,1.5019872999982908,244.8341007999843,None,None,1,,,,,,,,,,,,,,108,2023-03-31_17h33.08.080,Main,2022.1.1,60.027252377437705,
negative,blue,2,None,k,,,,,,,,,0,21,21,21,,,,,,,,,,,,,,,,,main,None,None,1,1.4989062999957241,247.33667610000703,None,None,1,,,,,,,,,,,,,,108,2023-03-31_17h33.08.080,Main,2022.1.1,60.027252377437705,
negative,red,1,None,None,,,,,,,,,0,22,22,22,,,,,,,,,,,,,,,,,main,None,None,1,1.49649779999163,249.83663340000203,None,None,1,,,,,,,,,,,,,,108,2023-03-31_17h33.08.080,Main,2022.1.1,60.027252377437705,
positive,red,2,None,None,,,,,,,,,0,23,23,23,,,,,,,,,,,,,,,,,main,None,None,1,1.5017479000089224,252.33392549998825,None,None,1,,,,,,,,,,,,,,108,2023-03-31_17h33.08.080,Main,2022.1.1,60.027252377437705,
negative,red,2,None,None,,,,,,,,,0,24,24,24,,,,,,,,,,,,,,,,,main,None,None,1,1.4962749000114854,254.83650919998763,None,None,1,,,,,,,,,,,,,,108,2023-03-31_17h33.08.080,Main,2022.1.1,60.027252377437705,
positive,blue,2,k,None,,,,,,,,,0,25,25,25,,,,,,,,,,,,,,,,,main,k,k,1,0.7851993000076618,257.3338176999823,None,None,0,,,,,,,,,,,,,,108,2023-03-31_17h33.08.080,Main,2022.1.1,60.027252377437705,
negative,yellow,1,k,None,,,,,,,,,0,26,26,26,,,,,,,,,,,,,,,,,main,k,k,1,0.8825495000055525,259.11983599999803,None,None,0,,,,,,,,,,,,,,108,2023-03-31_17h33.08.080,Main,2022.1.1,60.027252377437705,
positive,blue,2,k,None,,,,,,,,,0,27,27,27,,,,,,,,,,,,,,,,,main,k,k,1,0.7965351000020746,261.00301919999765,None,None,0,,,,,,,,,,,,,,108,2023-03-31_17h33.08.080,Main,2022.1.1,60.027252377437705,
negative,blue,2,None,k,,,,,,,,,0,28,28,28,,,,,,,,,,,,,,,,,main,None,None,1,1.5016144000110216,262.80036560000735,None,None,1,,,,,,,,,,,,,,108,2023-03-31_17h33.08.080,Main,2022.1.1,60.027252377437705,
positive,red,1,None,None,,,,,,,,,0,29,29,29,,,,,,,,,,,,,,,,,main,None,None,1,1.4987435000075493,265.3029725999804,None,None,1,,,,,,,,,,,,,,108,2023-03-31_17h33.08.080,Main,2022.1.1,60.027252377437705,
positive,blue,1,k,None,,,,,,,,,0,30,30,30,,,,,,,,,,,,,,,,,main,k,k,1,0.963233400019817,267.8028801000037,None,None,0,,,,,,,,,,,,,,108,2023-03-31_17h33.08.080,Main,2022.1.1,60.027252377437705,
positive,yellow,1,None,k,,,,,,,,,0,31,31,31,,,,,,,,,,,,,,,,,main,None,None,1,1.5016513000009581,269.76688739997917,None,None,1,,,,,,,,,,,,,,108,2023-03-31_17h33.08.080,Main,2022.1.1,60.027252377437705,
negative,yellow,2,k,None,,,,,,,,,0,32,32,32,,,,,,,,,,,,,,,,,main,k,k,1,0.8824983999948017,272.2694458999904,None,None,0,,,,,,,,,,,,,,108,2023-03-31_17h33.08.080,Main,2022.1.1,60.027252377437705,
negative,blue,1,None,k,,,,,,,,,0,33,33,33,,,,,,,,,,,,,,,,,main,None,None,1,1.4961653999926057,274.15273709999747,None,None,1,,,,,,,,,,,,,,108,2023-03-31_17h33.08.080,Main,2022.1.1,60.027252377437705,
positive,blue,1,k,None,,,,,,,,,0,34,34,34,,,,,,,,,,,,,,,,,main,k,k,1,0.8522877999930643,276.6501064999902,None,None,0,,,,,,,,,,,,,,108,2023-03-31_17h33.08.080,Main,2022.1.1,60.027252377437705,
negative,yellow,1,k,None,,,,,,,,,0,35,35,35,,,,,,,,,,,,,,,,,main,k,k,1,0.9988224999979138,278.50263659999473,None,None,0,,,,,,,,,,,,,,108,2023-03-31_17h33.08.080,Main,2022.1.1,60.027252377437705,
positive,yellow,2,None,k,,,,,,,,,0,36,36,36,,,,,,,,,,,,,,,,,main,None,None,1,1.4960341000114568,280.5025958000042,None,None,1,,,,,,,,,,,,,,108,2023-03-31_17h33.08.080,Main,2022.1.1,60.027252377437705,
positive,yellow,2,None,k,,,,,,,,,0,37,37,37,,,,,,,,,,,,,,,,,main,None,None,1,1.501482899999246,282.999991699995,None,None,1,,,,,,,,,,,,,,108,2023-03-31_17h33.08.080,Main,2022.1.1,60.027252377437705,
negative,yellow,2,k,None,,,,,,,,,0,38,38,38,,,,,,,,,,,,,,,,,main,k,k,1,1.0130902000237256,285.5024405999866,None,None,0,,,,,,,,,,,,,,108,2023-03-31_17h33.08.080,Main,2022.1.1,60.027252377437705,
positive,yellow,1,None,k,,,,,,,,,0,39,39,39,,,,,,,,,,,,,,,,,main,None,None,1,1.5019016000151169,287.5164963999996,None,None,1,,,,,,,,,,,,,,108,2023-03-31_17h33.08.080,Main,2022.1.1,60.027252377437705,
negative,yellow,2,k,None,,,,,,,,,0,40,40,40,,,,,,,,,,,,,,,,,main,k,k,1,0.8489965000189841,290.01917769998545,None,None,0,,,,,,,,,,,,,,108,2023-03-31_17h33.08.080,Main,2022.1.1,60.027252377437705,
positive,blue,2,k,None,,,,,,,,,0,41,41,41,,,,,,,,,,,,,,,,,main,k,k,1,0.8971077000023797,291.869077499985,None,None,0,,,,,,,,,,,,,,108,2023-03-31_17h33.08.080,Main,2022.1.1,60.027252377437705,
positive,blue,2,k,None,,,,,,,,,0,42,42,42,,,,,,,,,,,,,,,,,main,k,k,1,0.7178832000063267,293.7666345000034,None,None,0,,,,,,,,,,,,,,108,2023-03-31_17h33.08.080,Main,2022.1.1,60.027252377437705,
negative,blue,2,None,k,,,,,,,,,0,43,43,43,,,,,,,,,,,,,,,,,main,None,None,1,1.4964013999851886,295.48556760000065,None,None,1,,,,,,,,,,,,,,108,2023-03-31_17h33.08.080,Main,2022.1.1,60.027252377437705,
negative,red,1,None,None,,,,,,,,,0,44,44,44,,,,,,,,,,,,,,,,,main,None,None,1,1.5018317000067327,297.9829791999946,None,None,1,,,,,,,,,,,,,,108,2023-03-31_17h33.08.080,Main,2022.1.1,60.027252377437705,
negative,yellow,1,k,None,,,,,,,,,0,45,45,45,,,,,,,,,,,,,,,,,main,k,k,1,1.0023567999887746,300.4854997000075,None,None,0,,,,,,,,,,,,,,108,2023-03-31_17h33.08.080,Main,2022.1.1,60.027252377437705,
negative,yellow,1,k,None,,,,,,,,,0,46,46,46,,,,,,,,,,,,,,,,,main,k,k,1,0.7764808000065386,302.48718719999306,None,None,0,,,,,,,,,,,,,,108,2023-03-31_17h33.08.080,Main,2022.1.1,60.027252377437705,
positive,red,1,None,None,,,,,,,,,0,47,47,47,,,,,,,,,,,,,,,,,main,None,None,1,1.5035097999789286,304.26611669998965,None,None,1,,,,,,,,,,,,,,108,2023-03-31_17h33.08.080,Main,2022.1.1,60.027252377437705,
positive,yellow,1,None,k,,,,,,,,,0,48,48,48,,,,,,,,,,,,,,,,,main,None,None,1,1.497370699973544,306.76870109999436,None,None,1,,,,,,,,,,,,,,108,2023-03-31_17h33.08.080,Main,2022.1.1,60.027252377437705,
negative,blue,1,None,k,,,,,,,,,0,49,49,49,,,,,,,,,,,,,,,,,main,None,None,1,1.4963409999909345,309.2686735999887,None,None,1,,,,,,,,,,,,,,108,2023-03-31_17h33.08.080,Main,2022.1.1,60.027252377437705,
positive,yellow,2,None,k,,,,,,,,,0,50,50,50,,,,,,,,,,,,,,,,,main,None,None,1,1.5018458999984432,311.7660063999938,None,None,1,,,,,,,,,,,,,,108,2023-03-31_17h33.08.080,Main,2022.1.1,60.027252377437705,
negative,blue,1,None,k,,,,,,,,,0,51,51,51,,,,,,,,,,,,,,,,,main,None,None,1,1.4989024999958929,314.26853840000695,None,None,1,,,,,,,,,,,,,,108,2023-03-31_17h33.08.080,Main,2022.1.1,60.027252377437705,
positive,red,2,None,None,,,,,,,,,0,52,52,52,,,,,,,,,,,,,,,,,main,None,None,1,1.496342200000072,316.76834869998856,None,None,1,,,,,,,,,,,,,,108,2023-03-31_17h33.08.080,Main,2022.1.1,60.027252377437705,
positive,yellow,2,None,k,,,,,,,,,0,53,53,53,,,,,,,,,,,,,,,,,main,None,None,1,1.5019986999977846,319.2658015000052,None,None,1,,,,,,,,,,,,,,108,2023-03-31_17h33.08.080,Main,2022.1.1,60.027252377437705,
negative,red,2,None,None,,,,,,,,,0,54,54,54,,,,,,,,,,,,,,,,,main,None,None,1,1.496543900022516,321.7683495999954,None,None,1,,,,,,,,,,,,,,108,2023-03-31_17h33.08.080,Main,2022.1.1,60.027252377437705,
positive,yellow,1,None,k,,,,,,,,,0,55,55,55,,,,,,,,,,,,,,,,,main,None,None,1,1.4988546000095084,324.268227499997,None,None,1,,,,,,,,,,,,,,108,2023-03-31_17h33.08.080,Main,2022.1.1,60.027252377437705,
negative,blue,2,None,k,,,,,,,,,0,56,56,56,,,,,,,,,,,,,,,,,main,None,None,1,1.501800700003514,326.76562409999315,None,None,1,,,,,,,,,,,,,,108,2023-03-31_17h33.08.080,Main,2022.1.1,60.027252377437705,
positive,blue,1,k,None,,,,,,,,,0,57,57,57,,,,,,,,,,,,,,,,,main,k,k,1,1.5325854999828152,329.26818519999506,None,None,0,,,,,,,,,,,,,,108,2023-03-31_17h33.08.080,Main,2022.1.1,60.027252377437705,
positive,blue,1,k,None,,,,,,,,,0,58,58,58,,,,,,,,,,,,,,,,,main,k,k,1,0.8514009999926202,332.815457699995,None,None,0,,,,,,,,,,,,,,108,2023-03-31_17h33.08.080,Main,2022.1.1,60.027252377437705,
negative,yellow,2,k,None,,,,,,,,,0,59,59,59,,,,,,,,,,,,,,,,,main,k,k,1,0.8155620000034105,334.66548659998807,None,None,0,,,,,,,,,,,,,,108,2023-03-31_17h33.08.080,Main,2022.1.1,60.027252377437705,
positive,red,2,None,None,,,,,,,,,0,60,60,60,,,,,,,,,,,,,,,,,main,None,None,1,1.5013248000177555,336.4846906999883,None,None,1,,,,,,,,,,,,,,108,2023-03-31_17h33.08.080,Main,2022.1.1,60.027252377437705,
negative,yellow,1,k,None,,,,,,,,,0,61,61,61,,,,,,,,,,,,,,,,,main,k,k,1,0.8462056999851484,338.98461600000155,None,None,0,,,,,,,,,,,,,,108,2023-03-31_17h33.08.080,Main,2022.1.1,60.027252377437705,
negative,red,1,None,None,,,,,,,,,0,62,62,62,,,,,,,,,,,,,,,,,main,None,None,1,1.5015850999916438,340.83197080000537,None,None,1,,,,,,,,,,,,,,108,2023-03-31_17h33.08.080,Main,2022.1.1,60.027252377437705,
negative,blue,1,None,k,,,,,,,,,0,63,63,63,,,,,,,,,,,,,,,,,main,None,None,1,1.5020163000153843,343.3321413999947,None,None,1,,,,,,,,,,,,,,108,2023-03-31_17h33.08.080,Main,2022.1.1,60.027252377437705,
positive,blue,2,k,None,,,,,,,,,0,64,64,64,,,,,,,,,,,,,,,,,main,k,k,1,0.760372400021879,345.8354649999819,None,None,0,,,,,,,,,,,,,,108,2023-03-31_17h33.08.080,Main,2022.1.1,60.027252377437705,
negative,yellow,2,k,None,,,,,,,,,0,65,65,65,,,,,,,,,,,,,,,,,main,k,k,1,0.8184412000118755,347.5984996999905,None,None,0,,,,,,,,,,,,,,108,2023-03-31_17h33.08.080,Main,2022.1.1,60.027252377437705,
positive,yellow,2,None,k,,,,,,,,,0,66,66,66,,,,,,,,,,,,,,,,,main,None,None,1,1.4966473000240512,349.41781210000045,None,None,1,,,,,,,,,,,,,,108,2023-03-31_17h33.08.080,Main,2022.1.1,60.027252377437705,
positive,yellow,2,None,k,,,,,,,,,0,67,67,67,,,,,,,,,,,,,,,,,main,None,None,1,1.4988735000079032,351.9207763999875,None,None,1,,,,,,,,,,,,,,108,2023-03-31_17h33.08.080,Main,2022.1.1,60.027252377437705,
positive,red,1,None,None,,,,,,,,,0,68,68,68,,,,,,,,,,,,,,,,,main,None,None,1,1.5016566000122111,354.4150646000053,None,None,1,,,,,,,,,,,,,,108,2023-03-31_17h33.08.080,Main,2022.1.1,60.027252377437705,
positive,yellow,1,None,k,,,,,,,,,0,69,69,69,,,,,,,,,,,,,,,,,main,None,None,1,1.4982969999837223,356.9175474999938,None,None,1,,,,,,,,,,,,,,108,2023-03-31_17h33.08.080,Main,2022.1.1,60.027252377437705,
negative,yellow,2,k,None,,,,,,,,,0,70,70,70,,,,,,,,,,,,,,,,,main,k,k,1,0.9168784999928903,359.41488169998047,None,None,0,,,,,,,,,,,,,,108,2023-03-31_17h33.08.080,Main,2022.1.1,60.027252377437705,
positive,yellow,1,None,k,,,,,,,,,0,71,71,71,,,,,,,,,,,,,,,,,main,None,None,1,1.499221000005491,361.3342120999878,None,None,1,,,,,,,,,,,,,,108,2023-03-31_17h33.08.080,Main,2022.1.1,60.027252377437705,
negative,blue,1,None,k,,,,,,,,,0,72,72,72,,,,,,,,,,,,,,,,,main,None,None,1,1.4961258999828715,363.8341617999831,None,None,1,,,,,,,,,,,,,,108,2023-03-31_17h33.08.080,Main,2022.1.1,60.027252377437705,
negative,red,2,None,None,,,,,,,,,0,73,73,73,,,,,,,,,,,,,,,,,main,None,None,1,1.5009286999993492,366.3314822999819,None,None,1,,,,,,,,,,,,,,108,2023-03-31_17h33.08.080,Main,2022.1.1,60.027252377437705,
positive,blue,2,k,None,,,,,,,,,0,74,74,74,,,,,,,,,,,,,,,,,main,k,k,1,0.8803212000057101,368.8340634999913,None,None,0,,,,,,,,,,,,,,108,2023-03-31_17h33.08.080,Main,2022.1.1,60.027252377437705,
negative,blue,2,None,k,,,,,,,,,0,75,75,75,,,,,,,,,,,,,,,,,main,None,None,1,1.49854930001311,370.7171515999944,None,None,1,,,,,,,,,,,,,,108,2023-03-31_17h33.08.080,Main,2022.1.1,60.027252377437705,
negative,blue,2,None,k,,,,,,,,,0,76,76,76,,,,,,,,,,,,,,,,,main,None,None,1,1.5018649999983609,373.21460740000475,None,None,1,,,,,,,,,,,,,,108,2023-03-31_17h33.08.080,Main,2022.1.1,60.027252377437705,
negative,yellow,1,k,None,,,,,,,,,0,77,77,77,,,,,,,,,,,,,,,,,main,k,k,1,0.8659974000183865,375.7172353999922,None,None,0,,,,,,,,,,,,,,108,2023-03-31_17h33.08.080,Main,2022.1.1,60.027252377437705,
positive,blue,1,k,None,,,,,,,,,0,78,78,78,,,,,,,,,,,,,,,,,main,k,k,1,1.1656985000008717,377.5838019999792,None,None,0,,,,,,,,,,,,,,108,2023-03-31_17h33.08.080,Main,2022.1.1,60.027252377437705,
positive,blue,1,k,None,,,,,,,,,0,79,79,79,,,,,,,,,,,,,,,,,main,k,k,1,0.7659342999977525,379.7503106999793,None,None,0,,,,,,,,,,,,,,108,2023-03-31_17h33.08.080,Main,2022.1.1,60.027252377437705,
positive,red,2,None,None,,,,,,,,,0,80,80,80,,,,,,,,,,,,,,,,,main,None,None,1,1.4971175999962725,381.51698270000634,None,None,1,,,,,,,,,,,,,,108,2023-03-31_17h33.08.080,Main,2022.1.1,60.027252377437705,
positive,yellow,2,None,k,,,,,,,,,0,81,81,81,,,,,,,,,,,,,,,,,main,None,None,1,1.50089740002295,384.01460939997924,None,None,1,,,,,,,,,,,,,,108,2023-03-31_17h33.08.080,Main,2022.1.1,60.027252377437705,
positive,blue,1,k,None,,,,,,,,,0,82,82,82,,,,,,,,,,,,,,,,,main,k,k,1,0.765969399973983,386.5145845999941,None,None,0,,,,,,,,,,,,,,108,2023-03-31_17h33.08.080,Main,2022.1.1,60.027252377437705,
negative,yellow,2,k,None,,,,,,,,,0,83,83,83,,,,,,,,,,,,,,,,,main,k,k,1,0.8133224000048358,388.2835107999854,None,None,0,,,,,,,,,,,,,,108,2023-03-31_17h33.08.080,Main,2022.1.1,60.027252377437705,
positive,blue,2,k,None,,,,,,,,,0,84,84,84,,,,,,,,,,,,,,,,,main,k,k,1,0.7684082000050694,390.09754849999445,None,None,0,,,,,,,,,,,,,,108,2023-03-31_17h33.08.080,Main,2022.1.1,60.027252377437705,
positive,yellow,1,None,k,,,,,,,,,0,85,85,85,,,,,,,,,,,,,,,,,main,None,None,1,1.4990534000098705,391.866890699981,None,None,1,,,,,,,,,,,,,,108,2023-03-31_17h33.08.080,Main,2022.1.1,60.027252377437705,
positive,blue,2,k,None,,,,,,,,,0,86,86,86,,,,,,,,,,,,,,,,,main,k,k,1,0.8635595999949146,394.366784599988,None,None,0,,,,,,,,,,,,,,108,2023-03-31_17h33.08.080,Main,2022.1.1,60.027252377437705,
positive,blue,1,k,None,,,,,,,,,0,87,87,87,,,,,,,,,,,,,,,,,main,k,k,1,0.8988226000219584,396.2332702999993,None,None,0,,,,,,,,,,,,,,108,2023-03-31_17h33.08.080,Main,2022.1.1,60.027252377437705,
negative,yellow,2,k,None,,,,,,,,,0,88,88,88,,,,,,,,,,,,,,,,,main,k,k,1,0.949261400004616,398.1307240999886,None,None,0,,,,,,,,,,,,,,108,2023-03-31_17h33.08.080,Main,2022.1.1,60.027252377437705,
negative,blue,2,None,k,,,,,,,,,0,89,89,89,,,,,,,,,,,,,,,,,main,None,None,1,1.5016973000019789,400.0807271999947,None,None,1,,,,,,,,,,,,,,108,2023-03-31_17h33.08.080,Main,2022.1.1,60.027252377437705,
positive,yellow,2,None,k,,,,,,,,,0,90,90,90,,,,,,,,,,,,,,,,,main,None,None,1,1.4987365999841131,402.58329340000637,None,None,1,,,,,,,,,,,,,,108,2023-03-31_17h33.08.080,Main,2022.1.1,60.027252377437705,
negative,yellow,1,k,None,,,,,,,,,0,91,91,91,,,,,,,,,,,,,,,,,main,k,k,1,1.1465613000036683,405.0832154999953,None,None,0,,,,,,,,,,,,,,108,2023-03-31_17h33.08.080,Main,2022.1.1,60.027252377437705,
negative,red,2,None,None,,,,,,,,,0,92,92,92,,,,,,,,,,,,,,,,,main,None,None,1,1.5015164999931585,407.2305048999842,None,None,1,,,,,,,,,,,,,,108,2023-03-31_17h33.08.080,Main,2022.1.1,60.027252377437705,
negative,blue,2,None,k,,,,,,,,,0,93,93,93,,,,,,,,,,,,,,,,,main,None,None,1,1.499229600012768,409.7331535999838,None,None,1,,,,,,,,,,,,,,108,2023-03-31_17h33.08.080,Main,2022.1.1,60.027252377437705,
negative,blue,1,None,k,,,,,,,,,0,94,94,94,,,,,,,,,,,,,,,,,main,None,None,1,1.498962700017728,412.23305999999866,None,None,1,,,,,,,,,,,,,,108,2023-03-31_17h33.08.080,Main,2022.1.1,60.027252377437705,
negative,blue,1,None,k,,,,,,,,,0,95,95,95,,,,,,,,,,,,,,,,,main,None,None,1,1.4967144000111148,414.73285929998383,None,None,1,,,,,,,,,,,,,,108,2023-03-31_17h33.08.080,Main,2022.1.1,60.027252377437705,
negative,red,1,None,None,,,,,,,,,0,96,96,96,,,,,,,,,,,,,,,,,main,None,None,1,1.5018620000046212,417.23026469998877,None,None,1,,,,,,,,,,,,,,108,2023-03-31_17h33.08.080,Main,2022.1.1,60.027252377437705,
positive,yellow,1,None,k,,,,,,,,,0,97,97,97,,,,,,,,,,,,,,,,,main,None,None,1,1.4990034999791533,419.7328665999812,None,None,1,,,,,,,,,,,,,,108,2023-03-31_17h33.08.080,Main,2022.1.1,60.027252377437705,
negative,yellow,1,k,None,,,,,,,,,0,98,98,98,,,,,,,,,,,,,,,,,main,k,k,1,1.0990581000223756,422.23285949998535,None,None,0,,,,,,,,,,,,,,108,2023-03-31_17h33.08.080,Main,2022.1.1,60.027252377437705,
positive,red,1,None,None,,,,,,,,,0,99,99,99,,,,,,,,,,,,,,,,,main,None,None,1,1.4963453999953344,424.3327706999844,None,None,1,,,,,,,,,,,,,,108,2023-03-31_17h33.08.080,Main,2022.1.1,60.027252377437705,
positive,blue,1,k,None,,,,,,,,,0,100,100,100,,,,,,,,,,,,,,,,,main,k,k,1,1.2517421999946237,426.8300734999939,None,None,0,,,,,,,,,,,,,,108,2023-03-31_17h33.08.080,Main,2022.1.1,60.027252377437705,
negative,yellow,1,k,None,,,,,,,,,0,101,101,101,,,,,,,,,,,,,,,,,main,k,k,1,-0.034102699981303886,429.0827286999847,None,None,0,,,,,,,,,,,,,,108,2023-03-31_17h33.08.080,Main,2022.1.1,60.027252377437705,
negative,blue,2,None,k,,,,,,,,,0,102,102,102,,,,,,,,,,,,,,,,,main,None,None,1,1.5010565999837127,433.0465964000032,None,None,1,,,,,,,,,,,,,,108,2023-03-31_17h33.08.080,Main,2022.1.1,60.027252377437705,
negative,yellow,2,k,None,,,,,,,,,0,103,103,103,,,,,,,,,,,,,,,,,main,k,k,1,1.084928200027207,435.54662290000124,None,None,0,,,,,,,,,,,,,,108,2023-03-31_17h33.08.080,Main,2022.1.1,60.027252377437705,
positive,yellow,2,None,k,,,,,,,,,0,104,104,104,,,,,,,,,,,,,,,,,main,None,None,1,1.4964116999763064,437.63254789999337,None,None,1,,,,,,,,,,,,,,108,2023-03-31_17h33.08.080,Main,2022.1.1,60.027252377437705,
positive,blue,1,k,None,,,,,,,,,0,105,105,105,,,,,,,,,,,,,,,,,main,k,k,1,0.9354014999989886,440.12980830000015,None,None,0,,,,,,,,,,,,,,108,2023-03-31_17h33.08.080,Main,2022.1.1,60.027252377437705,
positive,blue,2,k,None,,,,,,,,,0,106,106,106,,,,,,,,,,,,,,,,,main,k,k,1,0.8492682999931276,442.06565249999403,None,None,0,,,,,,,,,,,,,,108,2023-03-31_17h33.08.080,Main,2022.1.1,60.027252377437705,
negative,blue,1,None,k,,,,,,,,,0,107,107,107,,,,,,,,,,,,,,,,,main,None,None,1,1.4968797000183258,443.91575240000384,None,None,1,,,,,,,,,,,,,,108,2023-03-31_17h33.08.080,Main,2022.1.1,60.027252377437705,
positive,yellow,2,None,k,,,,,,,,,0,108,108,108,,,,,,,,,,,,,,,,,main,None,None,1,1.4986741000029724,446.4155374999973,None,None,1,,,,,,,,,,,,,,108,2023-03-31_17h33.08.080,Main,2022.1.1,60.027252377437705,
negative,yellow,1,k,None,,,,,,,,,0,109,109,109,,,,,,,,,,,,,,,,,main,k,k,1,0.8850944000005256,448.91293219997897,None,None,0,,,,,,,,,,,,,,108,2023-03-31_17h33.08.080,Main,2022.1.1,60.027252377437705,
negative,blue,2,None,k,,,,,,,,,0,110,110,110,,,,,,,,,,,,,,,,,main,None,None,1,1.499099299981026,450.7988705000025,None,None,1,,,,,,,,,,,,,,108,2023-03-31_17h33.08.080,Main,2022.1.1,60.027252377437705,
positive,blue,2,k,None,,,,,,,,,0,111,111,111,,,,,,,,,,,,,,,,,main,k,k,1,0.8308888000028674,453.29888339998433,None,None,0,,,,,,,,,,,,,,108,2023-03-31_17h33.08.080,Main,2022.1.1,60.027252377437705,
negative,blue,1,None,k,,,,,,,,,0,112,112,112,,,,,,,,,,,,,,,,,main,None,None,1,1.5015220000059344,455.1294629999902,None,None,1,,,,,,,,,,,,,,108,2023-03-31_17h33.08.080,Main,2022.1.1,60.027252377437705,
positive,yellow,1,None,k,,,,,,,,,0,113,113,113,,,,,,,,,,,,,,,,,main,None,None,1,1.4963843000005,457.63210139999865,None,None,1,,,,,,,,,,,,,,108,2023-03-31_17h33.08.080,Main,2022.1.1,60.027252377437705,
negative,red,1,None,None,,,,,,,,,0,114,114,114,,,,,,,,,,,,,,,,,main,None,None,1,1.4991995000164025,460.1293568999972,None,None,1,,,,,,,,,,,,,,108,2023-03-31_17h33.08.080,Main,2022.1.1,60.027252377437705,
positive,red,1,None,None,,,,,,,,,0,115,115,115,,,,,,,,,,,,,,,,,main,None,None,1,1.5017767999961507,462.6293708999874,None,None,1,,,,,,,,,,,,,,108,2023-03-31_17h33.08.080,Main,2022.1.1,60.027252377437705,
negative,red,2,None,None,,,,,,,,,0,116,116,116,,,,,,,,,,,,,,,,,main,None,None,1,1.4962986999889836,465.13195109998924,None,None,1,,,,,,,,,,,,,,108,2023-03-31_17h33.08.080,Main,2022.1.1,60.027252377437705,
negative,yellow,2,k,None,,,,,,,,,0,117,117,117,,,,,,,,,,,,,,,,,main,k,k,1,1.751283899997361,467.6292015000072,None,None,0,,,,,,,,,,,,,,108,2023-03-31_17h33.08.080,Main,2022.1.1,60.027252377437705,
positive,yellow,1,None,k,,,,,,,,,0,118,118,118,,,,,,,,,,,,,,,,,main,None,None,1,1.4983436000184156,471.3818062999926,None,None,1,,,,,,,,,,,,,,108,2023-03-31_17h33.08.080,Main,2022.1.1,60.027252377437705,
positive,red,2,None,None,,,,,,,,,0,119,119,119,,,,,,,,,,,,,,,,,main,None,None,1,1.5014350000128616,473.8790444000042,None,None,1,,,,,,,,,,,,,,108,2023-03-31_17h33.08.080,Main,2022.1.1,60.027252377437705,
positive,blue,2,k,None,,,,,,,,,0,120,120,120,,,,,,,,,,,,,,,,,main,k,k,1,0.7865940000046976,476.3816893000039,None,None,0,,,,,,,,,,,,,,108,2023-03-31_17h33.08.080,Main,2022.1.1,60.027252377437705,
negative,red,1,None,None,,,,,,,,,0,121,121,121,,,,,,,,,,,,,,,,,main,None,None,1,1.4929284999961965,478.1724474999937,None,None,1,,,,,,,,,,,,,,108,2023-03-31_17h33.08.080,Main,2022.1.1,60.027252377437705,
positive,yellow,2,None,k,,,,,,,,,0,122,122,122,,,,,,,,,,,,,,,,,main,None,None,1,1.4982901999901515,480.6647754999867,None,None,1,,,,,,,,,,,,,,108,2023-03-31_17h33.08.080,Main,2022.1.1,60.027252377437705,
negative,red,2,None,None,,,,,,,,,0,123,123,123,,,,,,,,,,,,,,,,,main,None,None,1,1.501864599995315,483.1622448999842,None,None,1,,,,,,,,,,,,,,108,2023-03-31_17h33.08.080,Main,2022.1.1,60.027252377437705,
negative,yellow,2,k,None,,,,,,,,,0,124,124,124,,,,,,,,,,,,,,,,,main,k,k,1,0.8465991000120994,485.66478989997995,None,None,0,,,,,,,,,,,,,,108,2023-03-31_17h33.08.080,Main,2022.1.1,60.027252377437705,
positive,red,1,None,None,,,,,,,,,0,125,125,125,,,,,,,,,,,,,,,,,main,None,None,1,1.501643099996727,487.5120689999894,None,None,1,,,,,,,,,,,,,,108,2023-03-31_17h33.08.080,Main,2022.1.1,60.027252377437705,
negative,blue,2,None,k,,,,,,,,,0,126,126,126,,,,,,,,,,,,,,,,,main,None,None,1,1.499076200008858,490.01469270000234,None,None,1,,,,,,,,,,,,,,108,2023-03-31_17h33.08.080,Main,2022.1.1,60.027252377437705,
negative,blue,1,None,k,,,,,,,,,0,127,127,127,,,,,,,,,,,,,,,,,main,None,None,1,1.4963921000016853,492.5146078999969,None,None,1,,,,,,,,,,,,,,108,2023-03-31_17h33.08.080,Main,2022.1.1,60.027252377437705,
negative,yellow,1,k,None,,,,,,,,,0,128,128,128,,,,,,,,,,,,,,,,,main,k,k,1,1.1021266000170726,495.01192119999905,None,None,0,,,,,,,,,,,,,,108,2023-03-31_17h33.08.080,Main,2022.1.1,60.027252377437705,
negative,yellow,1,k,None,,,,,,,,,0,129,129,129,,,,,,,,,,,,,,,,,main,k,k,1,0.8158470999915153,497.1145443999849,None,None,0,,,,,,,,,,,,,,108,2023-03-31_17h33.08.080,Main,2022.1.1,60.027252377437705,
positive,blue,1,k,None,,,,,,,,,0,130,130,130,,,,,,,,,,,,,,,,,main,k,k,1,1.0462506999901962,498.9311551999999,None,None,0,,,,,,,,,,,,,,108,2023-03-31_17h33.08.080,Main,2022.1.1,60.027252377437705,
negative,blue,1,None,k,,,,,,,,,0,131,131,131,,,,,,,,,,,,,,,,,main,None,None,1,1.5017485999851488,500.9784682999889,None,None,1,,,,,,,,,,,,,,108,2023-03-31_17h33.08.080,Main,2022.1.1,60.027252377437705,
negative,blue,2,None,k,,,,,,,,,0,132,132,132,,,,,,,,,,,,,,,,,main,None,None,1,1.4962506000010762,503.48110410000663,None,None,1,,,,,,,,,,,,,,108,2023-03-31_17h33.08.080,Main,2022.1.1,60.027252377437705,
positive,blue,2,k,None,,,,,,,,,0,133,133,133,,,,,,,,,,,,,,,,,main,k,k,1,0.8494538000086322,505.9783407000068,None,None,0,,,,,,,,,,,,,,108,2023-03-31_17h33.08.080,Main,2022.1.1,60.027252377437705,
positive,red,2,None,None,,,,,,,,,0,134,134,134,,,,,,,,,,,,,,,,,main,None,None,1,1.5016281999996863,507.828405999986,None,None,1,,,,,,,,,,,,,,108,2023-03-31_17h33.08.080,Main,2022.1.1,60.027252377437705,
negative,yellow,2,k,None,,,,,,,,,0,135,135,135,,,,,,,,,,,,,,,,,main,k,k,1,0.9965189000067767,510.3309079000028,None,None,0,,,,,,,,,,,,,,108,2023-03-31_17h33.08.080,Main,2022.1.1,60.027252377437705,
positive,yellow,2,None,k,,,,,,,,,0,136,136,136,,,,,,,,,,,,,,,,,main,None,None,1,1.5017398000054527,512.3281924999901,None,None,1,,,,,,,,,,,,,,108,2023-03-31_17h33.08.080,Main,2022.1.1,60.027252377437705,
positive,blue,1,k,None,,,,,,,,,0,137,137,137,,,,,,,,,,,,,,,,,main,k,k,1,0.9325890000036452,514.830793400004,None,None,0,,,,,,,,,,,,,,108,2023-03-31_17h33.08.080,Main,2022.1.1,60.027252377437705,
positive,yellow,1,None,k,,,,,,,,,0,138,138,138,,,,,,,,,,,,,,,,,main,None,None,1,1.496281599975191,516.7641311000043,None,None,1,,,,,,,,,,,,,,108,2023-03-31_17h33.08.080,Main,2022.1.1,60.027252377437705,
positive,yellow,1,None,k,,,,,,,,,0,139,139,139,,,,,,,,,,,,,,,,,main,None,None,1,1.5015730000159238,519.2614373999822,None,None,1,,,,,,,,,,,,,,108,2023-03-31_17h33.08.080,Main,2022.1.1,60.027252377437705,
positive,yellow,1,None,k,,,,,,,,,0,140,140,140,,,,,,,,,,,,,,,,,main,None,None,1,1.4989858000189997,521.7639557000075,None,None,1,,,,,,,,,,,,,,108,2023-03-31_17h33.08.080,Main,2022.1.1,60.027252377437705,
positive,blue,1,k,None,,,,,,,,,0,141,141,141,,,,,,,,,,,,,,,,,main,k,k,1,0.7302704000030644,524.2638214000035,None,None,0,,,,,,,,,,,,,,108,2023-03-31_17h33.08.080,Main,2022.1.1,60.027252377437705,
positive,blue,2,k,None,,,,,,,,,0,142,142,142,,,,,,,,,,,,,,,,,main,k,k,1,1.0825042999931611,525.9945912999974,None,None,0,,,,,,,,,,,,,,108,2023-03-31_17h33.08.080,Main,2022.1.1,60.027252377437705,
positive,yellow,2,None,k,,,,,,,,,0,143,143,143,,,,,,,,,,,,,,,,,main,None,None,1,1.5017706000071485,528.0778854999808,None,None,1,,,,,,,,,,,,,,108,2023-03-31_17h33.08.080,Main,2022.1.1,60.027252377437705,
negative,yellow,2,k,None,,,,,,,,,0,144,144,144,,,,,,,,,,,,,,,,,main,k,k,1,0.9158176000055391,530.580455599993,None,None,0,,,,,,,,,,,,,,108,2023-03-31_17h33.08.080,Main,2022.1.1,60.027252377437705,
negative,blue,2,None,k,,,,,,,,,0,145,145,145,,,,,,,,,,,,,,,,,main,None,None,1,1.4962495999934617,532.4970755999966,None,None,1,,,,,,,,,,,,,,108,2023-03-31_17h33.08.080,Main,2022.1.1,60.027252377437705,
negative,red,1,None,None,,,,,,,,,0,146,146,146,,,,,,,,,,,,,,,,,main,None,None,1,1.5018942999886349,534.9944388000004,None,None,1,,,,,,,,,,,,,,108,2023-03-31_17h33.08.080,Main,2022.1.1,60.027252377437705,
positive,blue,1,k,None,,,,,,,,,0,147,147,147,,,,,,,,,,,,,,,,,main,k,k,1,0.9492666999867652,537.4969365999859,None,None,0,,,,,,,,,,,,,,108,2023-03-31_17h33.08.080,Main,2022.1.1,60.027252377437705,
positive,yellow,1,None,k,,,,,,,,,0,148,148,148,,,,,,,,,,,,,,,,,main,None,None,1,1.4988060000177938,539.4467831999937,None,None,1,,,,,,,,,,,,,,108,2023-03-31_17h33.08.080,Main,2022.1.1,60.027252377437705,
negative,red,2,None,None,,,,,,,,,0,149,149,149,,,,,,,,,,,,,,,,,main,None,None,1,1.496299899998121,541.9467829999921,None,None,1,,,,,,,,,,,,,,108,2023-03-31_17h33.08.080,Main,2022.1.1,60.027252377437705,
negative,blue,1,None,k,,,,,,,,,0,150,150,150,,,,,,,,,,,,,,,,,main,None,None,1,1.5018410000193398,544.4442239000055,None,None,1,,,,,,,,,,,,,,108,2023-03-31_17h33.08.080,Main,2022.1.1,60.027252377437705,
negative,yellow,2,k,None,,,,,,,,,0,151,151,151,,,,,,,,,,,,,,,,,main,k,k,1,1.1324912999989465,546.9467393999803,None,None,0,,,,,,,,,,,,,,108,2023-03-31_17h33.08.080,Main,2022.1.1,60.027252377437705,
negative,blue,2,None,k,,,,,,,,,0,152,152,152,,,,,,,,,,,,,,,,,main,None,None,1,1.4965825000253972,549.0799122999888,None,None,1,,,,,,,,,,,,,,108,2023-03-31_17h33.08.080,Main,2022.1.1,60.027252377437705,
negative,yellow,1,k,None,,,,,,,,,0,153,153,153,,,,,,,,,,,,,,,,,main,k,k,1,1.0158102000132203,551.5773516999907,None,None,0,,,,,,,,,,,,,,108,2023-03-31_17h33.08.080,Main,2022.1.1,60.027252377437705,
negative,blue,1,None,k,,,,,,,,,0,154,154,154,,,,,,,,,,,,,,,,,main,None,None,1,1.501593099994352,553.5940176000004,None,None,1,,,,,,,,,,,,,,108,2023-03-31_17h33.08.080,Main,2022.1.1,60.027252377437705,
positive,yellow,2,None,k,,,,,,,,,0,155,155,155,,,,,,,,,,,,,,,,,main,None,None,1,1.4993420999962837,556.0965705999988,None,None,1,,,,,,,,,,,,,,108,2023-03-31_17h33.08.080,Main,2022.1.1,60.027252377437705,
positive,red,2,None,None,,,,,,,,,0,156,156,156,,,,,,,,,,,,,,,,,main,None,None,1,1.4984447000024375,558.596403500007,None,None,1,,,,,,,,,,,,,,108,2023-03-31_17h33.08.080,Main,2022.1.1,60.027252377437705,
positive,red,1,None,None,,,,,,,,,0,157,157,157,,,,,,,,,,,,,,,,,main,None,None,1,1.4993103999877349,561.0940270999854,None,None,1,,,,,,,,,,,,,,108,2023-03-31_17h33.08.080,Main,2022.1.1,60.027252377437705,
positive,blue,2,k,None,,,,,,,,,0,158,158,158,,,,,,,,,,,,,,,,,main,k,k,1,1.282575099990936,563.5962103999918,None,None,0,,,,,,,,,,,,,,108,2023-03-31_17h33.08.080,Main,2022.1.1,60.027252377437705,
negative,yellow,1,k,None,,,,,,,,,0,159,159,159,,,,,,,,,,,,,,,,,main,k,k,1,0.7967572000052314,565.8795854999917,None,None,0,,,,,,,,,,,,,,108,2023-03-31_17h33.08.080,Main,2022.1.1,60.027252377437705,
negative,red,2,None,None,,,,,,,,,0,160,160,160,,,,,,,,,,,,,,,,,main,None,None,1,1.501441900007194,567.6769769999955,None,None,1,,,,,,,,,,,,,,108,2023-03-31_17h33.08.080,Main,2022.1.1,60.027252377437705,
negative,blue,1,None,k,,,,,,,,,0,161,161,161,,,,,,,,,,,,,,,,,main,None,None,1,1.4991198999923654,570.1796351999801,None,None,1,,,,,,,,,,,,,,108,2023-03-31_17h33.08.080,Main,2022.1.1,60.027252377437705,
negative,blue,1,None,k,,,,,,,,,0,162,162,162,,,,,,,,,,,,,,,,,main,None,None,1,1.4963200000056531,572.679510099988,None,None,1,,,,,,,,,,,,,,108,2023-03-31_17h33.08.080,Main,2022.1.1,60.027252377437705,
negative,yellow,1,k,None,,,,,,,,,0,163,163,163,,,,,,,,,,,,,,,,,main,k,k,1,0.8687475000042468,575.1768532999849,None,None,0,,,,,,,,,,,,,,108,2023-03-31_17h33.08.080,Main,2022.1.1,60.027252377437705,
negative,yellow,1,k,None,,,,,,,,,0,164,164,164,,,,,,,,,,,,,,,,,main,k,k,1,1.0136562999978196,577.0461294999986,None,None,0,,,,,,,,,,,,,,108,2023-03-31_17h33.08.080,Main,2022.1.1,60.027252377437705,
positive,yellow,1,None,k,,,,,,,,,0,165,165,165,,,,,,,,,,,,,,,,,main,None,None,1,1.4985826000047382,579.0604948999826,None,None,1,,,,,,,,,,,,,,108,2023-03-31_17h33.08.080,Main,2022.1.1,60.027252377437705,
negative,red,1,None,None,,,,,,,,,0,166,166,166,,,,,,,,,,,,,,,,,main,None,None,1,1.501487699977588,581.5600593999843,None,None,1,,,,,,,,,,,,,,108,2023-03-31_17h33.08.080,Main,2022.1.1,60.027252377437705,
negative,yellow,2,k,None,,,,,,,,,0,167,167,167,,,,,,,,,,,,,,,,,main,k,k,1,0.9159923000261188,584.0626016999886,None,None,0,,,,,,,,,,,,,,108,2023-03-31_17h33.08.080,Main,2022.1.1,60.027252377437705,
positive,blue,2,k,None,,,,,,,,,0,168,168,168,,,,,,,,,,,,,,,,,main,k,k,1,0.7490756000042893,585.9791178999876,None,None,0,,,,,,,,,,,,,,108,2023-03-31_17h33.08.080,Main,2022.1.1,60.027252377437705,
positive,red,2,None,None,,,,,,,,,0,169,169,169,,,,,,,,,,,,,,,,,main,None,None,1,1.4956613999966066,587.7291662000061,None,None,1,,,,,,,,,,,,,,108,2023-03-31_17h33.08.080,Main,2022.1.1,60.027252377437705,
positive,red,1,None,None,,,,,,,,,0,170,170,170,,,,,,,,,,,,,,,,,main,None,None,1,1.500917000026675,590.2265530999866,None,None,1,,,,,,,,,,,,,,108,2023-03-31_17h33.08.080,Main,2022.1.1,60.027252377437705,
negative,blue,2,None,k,,,,,,,,,0,171,171,171,,,,,,,,,,,,,,,,,main,None,None,1,1.4956384999968577,592.7290446999832,None,None,1,,,,,,,,,,,,,,108,2023-03-31_17h33.08.080,Main,2022.1.1,60.027252377437705,
positive,blue,2,k,None,,,,,,,,,0,172,172,172,,,,,,,,,,,,,,,,,main,k,k,1,0.8820248999982141,595.2280681999982,None,None,0,,,,,,,,,,,,,,108,2023-03-31_17h33.08.080,Main,2022.1.1,60.027252377437705,
negative,yellow,2,k,None,,,,,,,,,0,173,173,173,,,,,,,,,,,,,,,,,main,k,k,1,1.1173777999938466,597.1096858999808,None,None,0,,,,,,,,,,,,,,108,2023-03-31_17h33.08.080,Main,2022.1.1,60.027252377437705,
positive,yellow,2,None,k,,,,,,,,,0,174,174,174,,,,,,,,,,,,,,,,,main,None,None,1,1.4991350999916904,599.229002099979,None,None,1,,,,,,,,,,,,,,108,2023-03-31_17h33.08.080,Main,2022.1.1,60.027252377437705,
negative,blue,2,None,k,,,,,,,,,0,175,175,175,,,,,,,,,,,,,,,,,main,None,None,1,1.496285600005649,601.728861599986,None,None,1,,,,,,,,,,,,,,108,2023-03-31_17h33.08.080,Main,2022.1.1,60.027252377437705,
positive,blue,1,k,None,,,,,,,,,0,176,176,176,,,,,,,,,,,,,,,,,main,k,k,1,0.7853029000107199,604.2261839999992,None,None,0,,,,,,,,,,,,,,108,2023-03-31_17h33.08.080,Main,2022.1.1,60.027252377437705,
positive,yellow,1,None,k,,,,,,,,,0,177,177,177,,,,,,,,,,,,,,,,,main,None,None,1,1.4961943000089377,606.0120669000025,None,None,1,,,,,,,,,,,,,,108,2023-03-31_17h33.08.080,Main,2022.1.1,60.027252377437705,
positive,blue,1,k,None,,,,,,,,,0,178,178,178,,,,,,,,,,,,,,,,,main,k,k,1,0.7991108999995049,608.5154609000019,None,None,0,,,,,,,,,,,,,,108,2023-03-31_17h33.08.080,Main,2022.1.1,60.027252377437705,
positive,yellow,2,None,k,,,,,,,,,0,179,179,179,,,,,,,,,,,,,,,,,main,None,None,1,1.5017067000153475,610.3093926000001,None,None,1,,,,,,,,,,,,,,108,2023-03-31_17h33.08.080,Main,2022.1.1,60.027252377437705,
positive,blue,1,k,None,,,,,,,,,0,180,180,180,,,,,,,,,,,,,,,,,main,k,k,1,0.9464234999904875,612.811941699998,None,None,0,,,,,,,,,,,,,,108,2023-03-31_17h33.08.080,Main,2022.1.1,60.027252377437705,
negative,red,1,None,None,,,,,,,,,0,181,181,181,,,,,,,,,,,,,,,,,main,None,None,1,1.501682800007984,614.7592972999846,None,None,1,,,,,,,,,,,,,,108,2023-03-31_17h33.08.080,Main,2022.1.1,60.027252377437705,
negative,blue,1,None,k,,,,,,,,,0,182,182,182,,,,,,,,,,,,,,,,,main,None,None,1,1.4990982999734115,617.2618366999959,None,None,1,,,,,,,,,,,,,,108,2023-03-31_17h33.08.080,Main,2022.1.1,60.027252377437705,
negative,yellow,2,k,None,,,,,,,,,0,183,183,183,,,,,,,,,,,,,,,,,main,k,k,1,0.9965122000139672,619.7618284999917,None,None,0,,,,,,,,,,,,,,108,2023-03-31_17h33.08.080,Main,2022.1.1,60.027252377437705,
positive,yellow,2,None,k,,,,,,,,,0,184,184,184,,,,,,,,,,,,,,,,,main,None,None,1,1.5017582000000402,621.7591352000018,None,None,1,,,,,,,,,,,,,,108,2023-03-31_17h33.08.080,Main,2022.1.1,60.027252377437705,
positive,yellow,1,None,k,,,,,,,,,0,185,185,185,,,,,,,,,,,,,,,,,main,None,None,1,1.4963934999832418,624.2617438999878,None,None,1,,,,,,,,,,,,,,108,2023-03-31_17h33.08.080,Main,2022.1.1,60.027252377437705,
positive,red,2,None,None,,,,,,,,,0,186,186,186,,,,,,,,,,,,,,,,,main,None,None,1,1.4990749999997206,626.7590109999874,None,None,1,,,,,,,,,,,,,,108,2023-03-31_17h33.08.080,Main,2022.1.1,60.027252377437705,
positive,blue,1,k,None,,,,,,,,,0,187,187,187,,,,,,,,,,,,,,,,,main,k,k,1,0.7854434000037145,629.2590190999908,None,None,0,,,,,,,,,,,,,,108,2023-03-31_17h33.08.080,Main,2022.1.1,60.027252377437705,
negative,yellow,1,k,None,,,,,,,,,0,188,188,188,,,,,,,,,,,,,,,,,main,k,k,1,0.8486741000087932,631.0449445999984,None,None,0,,,,,,,,,,,,,,108,2023-03-31_17h33.08.080,Main,2022.1.1,60.027252377437705,
positive,yellow,2,None,k,,,,,,,,,0,189,189,189,,,,,,,,,,,,,,,,,main,None,None,1,1.4988084000069648,632.8947494000022,None,None,1,,,,,,,,,,,,,,108,2023-03-31_17h33.08.080,Main,2022.1.1,60.027252377437705,
negative,yellow,2,k,None,,,,,,,,,0,190,190,190,,,,,,,,,,,,,,,,,main,k,k,1,0.8969492000178434,635.3978283999895,None,None,0,,,,,,,,,,,,,,108,2023-03-31_17h33.08.080,Main,2022.1.1,60.027252377437705,
negative,yellow,1,k,None,,,,,,,,,0,191,191,191,,,,,,,,,,,,,,,,,main,k,k,1,0.7018965999886859,637.2921140999824,None,None,0,,,,,,,,,,,,,,108,2023-03-31_17h33.08.080,Main,2022.1.1,60.027252377437705,
positive,blue,2,k,None,,,,,,,,,0,192,192,192,,,,,,,,,,,,,,,,,main,k,k,1,0.9159931000031065,638.9947784999968,None,None,0,,,,,,,,,,,,,,108,2023-03-31_17h33.08.080,Main,2022.1.1,60.027252377437705,
positive,yellow,1,None,k,,,,,,,,,0,193,193,193,,,,,,,,,,,,,,,,,main,None,None,1,1.4963970000098925,640.9115168999997,None,None,1,,,,,,,,,,,,,,108,2023-03-31_17h33.08.080,Main,2022.1.1,60.027252377437705,
negative,red,2,None,None,,,,,,,,,0,194,194,194,,,,,,,,,,,,,,,,,main,None,None,1,1.501707700022962,643.4086630999809,None,None,1,,,,,,,,,,,,,,108,2023-03-31_17h33.08.080,Main,2022.1.1,60.027252377437705,
positive,red,1,None,None,,,,,,,,,0,195,195,195,,,,,,,,,,,,,,,,,main,None,None,1,1.4986687000200618,645.9112760999997,None,None,1,,,,,,,,,,,,,,108,2023-03-31_17h33.08.080,Main,2022.1.1,60.027252377437705,
negative,blue,1,None,k,,,,,,,,,0,196,196,196,,,,,,,,,,,,,,,,,main,None,None,1,1.4967471999989357,648.4110614999954,None,None,1,,,,,,,,,,,,,,108,2023-03-31_17h33.08.080,Main,2022.1.1,60.027252377437705,
positive,blue,2,k,None,,,,,,,,,0,197,197,197,,,,,,,,,,,,,,,,,main,k,k,1,0.8519568999763578,650.9084838999843,None,None,0,,,,,,,,,,,,,,108,2023-03-31_17h33.08.080,Main,2022.1.1,60.027252377437705,
negative,blue,2,None,k,,,,,,,,,0,198,198,198,,,,,,,,,,,,,,,,,main,None,None,1,1.4990364000259433,652.7611318999843,None,None,1,,,,,,,,,,,,,,108,2023-03-31_17h33.08.080,Main,2022.1.1,60.027252377437705,
negative,blue,2,None,k,,,,,,,,,0,199,199,199,,,,,,,,,,,,,,,,,main,None,None,1,1.4963483000174165,655.2609947999881,None,None,1,,,,,,,,,,,,,,108,2023-03-31_17h33.08.080,Main,2022.1.1,60.027252377437705,
positive,blue,2,k,None,,,,,,,,,0,200,200,200,,,,,,,,,,,,,,,,,main,k,k,1,0.7020332000101916,657.758314799983,None,None,0,,,,,,,,,,,,,,108,2023-03-31_17h33.08.080,Main,2022.1.1,60.027252377437705,
positive,blue,2,k,None,,,,,,,,,0,201,201,201,,,,,,,,,,,,,,,,,main,k,k,1,0.7316123000055086,659.4609282999882,None,None,0,,,,,,,,,,,,,,108,2023-03-31_17h33.08.080,Main,2022.1.1,60.027252377437705,
negative,yellow,2,k,None,,,,,,,,,0,202,202,202,,,,,,,,,,,,,,,,,main,k,k,1,0.8657024999847636,661.1942424000008,None,None,0,,,,,,,,,,,,,,108,2023-03-31_17h33.08.080,Main,2022.1.1,60.027252377437705,
positive,red,1,None,None,,,,,,,,,0,203,203,203,,,,,,,,,,,,,,,,,main,None,None,1,1.4965178999991622,663.0607010999811,None,None,1,,,,,,,,,,,,,,108,2023-03-31_17h33.08.080,Main,2022.1.1,60.027252377437705,
negative,blue,2,None,k,,,,,,,,,0,204,204,204,,,,,,,,,,,,,,,,,main,None,None,1,1.501806599990232,665.5581684999925,None,None,1,,,,,,,,,,,,,,108,2023-03-31_17h33.08.080,Main,2022.1.1,60.027252377437705,
negative,red,1,None,None,,,,,,,,,0,205,205,205,,,,,,,,,,,,,,,,,main,None,None,1,1.4990997000131756,668.0607829999935,None,None,1,,,,,,,,,,,,,,108,2023-03-31_17h33.08.080,Main,2022.1.1,60.027252377437705,
negative,blue,2,None,k,,,,,,,,,0,206,206,206,,,,,,,,,,,,,,,,,main,None,None,1,1.4962686000217218,670.5607504000072,None,None,1,,,,,,,,,,,,,,108,2023-03-31_17h33.08.080,Main,2022.1.1,60.027252377437705,
negative,yellow,2,k,None,,,,,,,,,0,207,207,207,,,,,,,,,,,,,,,,,main,k,k,1,0.9353876000095624,673.058004999999,None,None,0,,,,,,,,,,,,,,108,2023-03-31_17h33.08.080,Main,2022.1.1,60.027252377437705,
positive,yellow,2,None,k,,,,,,,,,0,208,208,208,,,,,,,,,,,,,,,,,main,None,None,1,1.496232500008773,674.9939783999871,None,None,1,,,,,,,,,,,,,,108,2023-03-31_17h33.08.080,Main,2022.1.1,60.027252377437705,
negative,yellow,1,k,None,,,,,,,,,0,209,209,209,,,,,,,,,,,,,,,,,main,k,k,1,0.7327671999810264,677.4914397999819,None,None,0,,,,,,,,,,,,,,108,2023-03-31_17h33.08.080,Main,2022.1.1,60.027252377437705,
negative,red,2,None,None,,,,,,,,,0,210,210,210,,,,,,,,,,,,,,,,,main,None,None,1,1.501661000016611,679.2245792000031,None,None,1,,,,,,,,,,,,,,108,2023-03-31_17h33.08.080,Main,2022.1.1,60.027252377437705,
negative,blue,1,None,k,,,,,,,,,0,211,211,211,,,,,,,,,,,,,,,,,main,None,None,1,1.4990581999882124,681.7271444999787,None,None,1,,,,,,,,,,,,,,108,2023-03-31_17h33.08.080,Main,2022.1.1,60.027252377437705,
negative,yellow,1,k,None,,,,,,,,,0,212,212,212,,,,,,,,,,,,,,,,,main,k,k,1,0.6496237000101246,684.2270203999942,None,None,0,,,,,,,,,,,,,,108,2023-03-31_17h33.08.080,Main,2022.1.1,60.027252377437705,
positive,blue,1,k,None,,,,,,,,,0,213,213,213,,,,,,,,,,,,,,,,,main,k,k,1,0.6794500999967568,685.874539499986,None,None,0,,,,,,,,,,,,,,108,2023-03-31_17h33.08.080,Main,2022.1.1,60.027252377437705,
positive,blue,1,k,None,,,,,,,,,0,214,214,214,,,,,,,,,,,,,,,,,main,k,k,1,0.751709000003757,687.5576807000034,None,None,0,,,,,,,,,,,,,,108,2023-03-31_17h33.08.080,Main,2022.1.1,60.027252377437705,
positive,yellow,1,None,k,,,,,,,,,0,215,215,215,,,,,,,,,,,,,,,,,main,None,None,1,1.4990534999815281,689.3102529000025,None,None,1,,,,,,,,,,,,,,108,2023-03-31_17h33.08.080,Main,2022.1.1,60.027252377437705,
positive,yellow,1,None,k,,,,,,,,,0,216,216,216,,,,,,,,,,,,,,,,,main,None,None,1,1.496317499986617,691.8102412000007,None,None,1,,,,,,,,,,,,,,108,2023-03-31_17h33.08.080,Main,2022.1.1,60.027252377437705,
positive,yellow,2,None,k,,,,,,,,,0,217,217,217,,,,,,,,,,,,,,,,,main,None,None,1,1.501870800013421,694.3075776000042,None,None,1,,,,,,,,,,,,,,108,2023-03-31_17h33.08.080,Main,2022.1.1,60.027252377437705,
negative,blue,1,None,k,,,,,,,,,0,218,218,218,,,,,,,,,,,,,,,,,main,None,None,1,1.4987870999902952,696.8100940999866,None,None,1,,,,,,,,,,,,,,108,2023-03-31_17h33.08.080,Main,2022.1.1,60.027252377437705,
positive,red,2,None,None,,,,,,,,,0,219,219,219,,,,,,,,,,,,,,,,,main,None,None,1,1.4965610000072047,699.3077051999862,None,None,1,,,,,,,,,,,,,,108,2023-03-31_17h33.08.080,Main,2022.1.1,60.027252377437705,
positive,yellow,1,None,k,,,,,,,,,0,220,220,220,,,,,,,,,,,,,,,,,main,None,None,1,1.5019731000065804,701.8073636000045,None,None,1,,,,,,,,,,,,,,108,2023-03-31_17h33.08.080,Main,2022.1.1,60.027252377437705,
positive,blue,1,k,None,,,,,,,,,0,221,221,221,,,,,,,,,,,,,,,,,main,k,k,1,1.0825248999753967,704.3100021999853,None,None,0,,,,,,,,,,,,,,108,2023-03-31_17h33.08.080,Main,2022.1.1,60.027252377437705,
positive,yellow,2,None,k,,,,,,,,,0,222,222,222,,,,,,,,,,,,,,,,,main,None,None,1,1.4965268000087235,706.3931842999882,None,None,1,,,,,,,,,,,,,,108,2023-03-31_17h33.08.080,Main,2022.1.1,60.027252377437705,
negative,yellow,1,k,None,,,,,,,,,0,223,223,223,,,,,,,,,,,,,,,,,main,k,k,1,1.0156119000166655,708.8930861999979,None,None,0,,,,,,,,,,,,,,108,2023-03-31_17h33.08.080,Main,2022.1.1,60.027252377437705,
positive,yellow,2,None,k,,,,,,,,,0,224,224,224,,,,,,,,,,,,,,,,,main,None,None,1,1.5016351999947801,710.9071629999962,None,None,1,,,,,,,,,,,,,,108,2023-03-31_17h33.08.080,Main,2022.1.1,60.027252377437705,
negative,yellow,2,k,None,,,,,,,,,0,225,225,225,,,,,,,,,,,,,,,,,main,k,k,1,0.9492855999851599,713.4097584999981,None,None,0,,,,,,,,,,,,,,108,2023-03-31_17h33.08.080,Main,2022.1.1,60.027252377437705,
negative,blue,2,None,k,,,,,,,,,0,226,226,226,,,,,,,,,,,,,,,,,main,None,None,1,1.498825399990892,715.3597559999907,None,None,1,,,,,,,,,,,,,,108,2023-03-31_17h33.08.080,Main,2022.1.1,60.027252377437705,
positive,red,2,None,None,,,,,,,,,0,227,227,227,,,,,,,,,,,,,,,,,main,None,None,1,1.496766900003422,717.8594798999839,None,None,1,,,,,,,,,,,,,,108,2023-03-31_17h33.08.080,Main,2022.1.1,60.027252377437705,
positive,blue,2,k,None,,,,,,,,,0,228,228,228,,,,,,,,,,,,,,,,,main,k,k,1,0.7156632000114769,720.3626165000023,None,None,0,,,,,,,,,,,,,,108,2023-03-31_17h33.08.080,Main,2022.1.1,60.027252377437705,
negative,blue,1,None,k,,,,,,,,,0,229,229,229,,,,,,,,,,,,,,,,,main,None,None,1,1.5015820999979042,722.0735778999806,None,None,1,,,,,,,,,,,,,,108,2023-03-31_17h33.08.080,Main,2022.1.1,60.027252377437705,
positive,yellow,1,None,k,,,,,,,,,0,230,230,230,,,,,,,,,,,,,,,,,main,None,None,1,1.4963894999818876,724.5762023999996,None,None,1,,,,,,,,,,,,,,108,2023-03-31_17h33.08.080,Main,2022.1.1,60.027252377437705,
negative,blue,2,None,k,,,,,,,,,0,231,231,231,,,,,,,,,,,,,,,,,main,None,None,1,1.5016351999947801,727.0734626000049,None,None,1,,,,,,,,,,,,,,108,2023-03-31_17h33.08.080,Main,2022.1.1,60.027252377437705,
negative,red,1,None,None,,,,,,,,,0,232,232,232,,,,,,,,,,,,,,,,,main,None,None,1,1.4992056000046432,729.5760793999943,None,None,1,,,,,,,,,,,,,,108,2023-03-31_17h33.08.080,Main,2022.1.1,60.027252377437705,
positive,blue,2,k,None,,,,,,,,,0,233,233,233,,,,,,,,,,,,,,,,,main,k,k,1,0.8493639999942388,732.0760097999882,None,None,0,,,,,,,,,,,,,,108,2023-03-31_17h33.08.080,Main,2022.1.1,60.027252377437705,
negative,yellow,1,k,None,,,,,,,,,0,234,234,234,,,,,,,,,,,,,,,,,main,k,k,1,0.9158928999968339,733.9258096999838,None,None,0,,,,,,,,,,,,,,108,2023-03-31_17h33.08.080,Main,2022.1.1,60.027252377437705,
negative,yellow,2,k,None,,,,,,,,,0,235,235,235,,,,,,,,,,,,,,,,,main,k,k,1,0.8964973999827635,735.8424924999999,None,None,0,,,,,,,,,,,,,,108,2023-03-31_17h33.08.080,Main,2022.1.1,60.027252377437705,
positive,red,1,None,None,,,,,,,,,0,236,236,236,,,,,,,,,,,,,,,,,main,None,None,1,1.501635599997826,737.7399011999951,None,None,1,,,,,,,,,,,,,,108,2023-03-31_17h33.08.080,Main,2022.1.1,60.027252377437705,
negative,red,2,None,None,,,,,,,,,0,237,237,237,,,,,,,,,,,,,,,,,main,None,None,1,1.4990298000047915,740.2424947999825,None,None,1,,,,,,,,,,,,,,108,2023-03-31_17h33.08.080,Main,2022.1.1,60.027252377437705,
negative,blue,1,None,k,,,,,,,,,0,238,238,238,,,,,,,,,,,,,,,,,main,None,None,1,1.4956636000133585,742.7424052999995,None,None,1,,,,,,,,,,,,,,108,2023-03-31_17h33.08.080,Main,2022.1.1,60.027252377437705,
positive,blue,1,k,None,,,,,,,,,0,239,239,239,,,,,,,,,,,,,,,,,main,k,k,1,0.8353900999936741,745.2397510999872,None,None,0,,,,,,,,,,,,,,108,2023-03-31_17h33.08.080,Main,2022.1.1,60.027252377437705,
,,,,,,,,,,,,,,,,,,,,,,,,,,,,,,,,,,,,,,,,,,,,,,,,,,,,,747.0756689999835,None,,,,,,
