distractor,target,set,ans1,ans2,rep_loop4.thisRepN,rep_loop4.thisTrialN,rep_loop4.thisN,rep_loop4.thisIndex,st2_prac_loop.thisRepN,st2_prac_loop.thisTrialN,st2_prac_loop.thisN,st2_prac_loop.thisIndex,st2_main_loop.thisRepN,st2_main_loop.thisTrialN,st2_main_loop.thisN,st2_main_loop.thisIndex,image_4.started,image_4.stopped,sound_2.started,sound_2.stopped,key_resp_3.keys,key_resp_3.rt,image_5.started,image_5.stopped,st_prac_back.started,st_prac_back.stopped,st_prac_text.started,st_prac_text.stopped,st_fix_back.started,st_fix_back.stopped,st_fix_2.started,st_fix_2.stopped,main_prac,st_ans,st_res,st_corr,st_rt,st_back.started,st_back.stopped,st2_resp.keys,st2_resp.corr,st_main_back.started,st_main_back.stopped,st_main_text.started,st_main_text.stopped,mouse_4.x,mouse_4.y,mouse_4.leftButton,mouse_4.midButton,mouse_4.rightButton,mouse_4.started,mouse_4.stopped,text_2.started,text_2.stopped,id*,date,expName,psychopyVersion,frameRate,
negative,yellow,1,k,None,,,,,0,0,0,0,,,,,31.012552100000903,None,34.220949910004855,None,space,58.142045599990524,92.38592790003167,None,94.05574490001891,None,94.05574490001891,None,96.06706780003151,None,96.06706780003151,None,prac,None,None,1,1.5027251000283286,98.07558930001687,None,None,1,,,,,,,,,,,,,,109,2023-04-03_16h21.13.803,Main,2022.1.1,61.125516353236534,
positive,red,2,None,None,,,,,0,1,1,1,,,,,,,,,,,,,,,,,,,,,prac,None,None,1,1.4963088000076823,100.58617310004774,None,None,1,,,,,,,,,,,,,,109,2023-04-03_16h21.13.803,Main,2022.1.1,61.125516353236534,
negative,blue,2,None,k,,,,,0,2,2,2,,,,,,,,,,,,,,,,,,,,,prac,k,k,1,0.8520233000162989,103.08349490002729,None,None,0,,,,,,,,,,,,,,109,2023-04-03_16h21.13.803,Main,2022.1.1,61.125516353236534,
positive,yellow,1,None,k,,,,,0,3,3,3,,,,,,,,,,,,,,,,,,,,,prac,k,k,1,0.7857122999848798,104.936079600011,None,None,0,,,,,,,,,,,,,,109,2023-04-03_16h21.13.803,Main,2022.1.1,61.125516353236534,
negative,blue,2,None,k,,,,,0,4,4,4,,,,,,,,,,,,,,,,,,,,,prac,k,k,1,0.7100310000241734,106.72222330002114,None,None,0,,,,,,,,,,,,,,109,2023-04-03_16h21.13.803,Main,2022.1.1,61.125516353236534,
negative,blue,1,None,k,,,,,0,5,5,5,,,,,,,,,,,,,,,,,,,,,prac,k,k,1,0.8850177999702282,108.43329320003977,None,None,0,,,,,,,,,,,,,,109,2023-04-03_16h21.13.803,Main,2022.1.1,61.125516353236534,
negative,yellow,2,k,None,,,,,0,6,6,6,,,,,,,,,,,,,,,,,,,,,prac,None,None,1,1.5020328999962658,110.31927470001392,None,None,1,,,,,,,,,,,,,,109,2023-04-03_16h21.13.803,Main,2022.1.1,61.125516353236534,
negative,red,1,None,None,,,,,0,7,7,7,,,,,,,,,,,,,,,,,,,,,prac,None,None,1,1.4935603000340052,112.82017550000455,None,None,1,,,,,,,,,,,,,,109,2023-04-03_16h21.13.803,Main,2022.1.1,61.125516353236534,
positive,yellow,2,None,k,,,,,0,8,8,8,,,,,,,,,,,,,,,,,,,,,prac,k,k,1,0.8520901000010781,115.31912050000392,None,None,0,,,,,,,,,,,,,,109,2023-04-03_16h21.13.803,Main,2022.1.1,61.125516353236534,
negative,yellow,1,k,None,,,,,0,9,9,9,,,,,,,,,,,,,,,,,,,,,prac,None,None,1,1.4959953000070527,117.16910150001058,None,None,1,,,,,,,,,,,,,,109,2023-04-03_16h21.13.803,Main,2022.1.1,61.125516353236534,
positive,yellow,2,None,k,,,,,0,10,10,10,,,,,,,,,,,,,,,,,,,,,prac,k,k,1,0.7688750000088476,119.66639560001204,None,None,0,,,,,,,,,,,,,,109,2023-04-03_16h21.13.803,Main,2022.1.1,61.125516353236534,
negative,yellow,2,k,None,,,,,0,11,11,11,,,,,,,,,,,,,,,,,,,,,prac,None,None,1,1.4988432999816723,121.43569220002973,None,None,1,,,,,,,,,,,,,,109,2023-04-03_16h21.13.803,Main,2022.1.1,61.125516353236534,
negative,red,2,None,None,,,,,0,12,12,12,,,,,,,,,,,,,,,,,,,,,prac,None,None,1,1.4963535999995656,123.9356002000277,None,None,1,,,,,,,,,,,,,,109,2023-04-03_16h21.13.803,Main,2022.1.1,61.125516353236534,
positive,red,1,None,None,,,,,0,13,13,13,,,,,,,,,,,,,,,,,,,,,prac,None,None,1,1.50189810001757,126.4329071000102,None,None,1,,,,,,,,,,,,,,109,2023-04-03_16h21.13.803,Main,2022.1.1,61.125516353236534,
positive,blue,2,k,None,,,,,0,14,14,14,,,,,,,,,,,,,,,,,,,,,prac,None,None,1,1.4964266000315547,128.93552240001736,None,None,1,,,,,,,,,,,,,,109,2023-04-03_16h21.13.803,Main,2022.1.1,61.125516353236534,
positive,blue,1,k,None,,,,,0,15,15,15,,,,,,,,,,,,,,,,,,,,,prac,None,k,0,0.7662085999618284,131.43277920002583,None,None,1,,,,,,,,,,,,,,109,2023-04-03_16h21.13.803,Main,2022.1.1,61.125516353236534,
negative,blue,1,None,k,,,,,0,16,16,16,,,,,,,,,,,,,,,,,,,,,prac,k,k,1,0.9014581000083126,134.20208200003253,None,None,0,,,,,,,,,,,,,,109,2023-04-03_16h21.13.803,Main,2022.1.1,61.125516353236534,
positive,blue,2,k,None,,,,,0,17,17,17,,,,,,,,,,,,,,,,,,,,,prac,None,None,1,1.4974520999821834,136.1020525000058,None,None,1,,,,,,,,,,,,,,109,2023-04-03_16h21.13.803,Main,2022.1.1,61.125516353236534,
positive,blue,1,k,None,,,,,0,18,18,18,,,,,,,,,,,,,,,,,,,,,prac,None,None,1,1.5002268999814987,138.59930310002528,None,None,1,,,,,,,,,,,,,,109,2023-04-03_16h21.13.803,Main,2022.1.1,61.125516353236534,
positive,yellow,1,None,k,,,,,0,19,19,19,,,,,,,,,,,,,,,,,,,,,prac,k,k,1,0.9523816000437364,141.10198560002027,None,None,0,,,,,,,,,,,,,,109,2023-04-03_16h21.13.803,Main,2022.1.1,61.125516353236534,
negative,yellow,1,k,None,,,,,1,0,20,0,,,,,,,,,,,,,,,,,,,,,prac,None,None,1,1.493008799967356,143.05875660001766,None,None,1,,,,,,,,,,,,,,109,2023-04-03_16h21.13.803,Main,2022.1.1,61.125516353236534,
positive,red,2,None,None,,,,,1,1,21,1,,,,,,,,,,,,,,,,,,,,,prac,None,None,1,1.5019393999828026,145.54916390002472,None,None,1,,,,,,,,,,,,,,109,2023-04-03_16h21.13.803,Main,2022.1.1,61.125516353236534,
negative,blue,2,None,k,,,,,1,2,22,2,,,,,,,,,,,,,,,,,,,,,prac,k,k,1,0.8824962000362575,148.05175350001082,None,None,0,,,,,,,,,,,,,,109,2023-04-03_16h21.13.803,Main,2022.1.1,61.125516353236534,
positive,yellow,1,None,k,,,,,1,3,23,3,,,,,,,,,,,,,,,,,,,,,prac,k,k,1,0.7966259000240825,149.93510850000894,None,None,0,,,,,,,,,,,,,,109,2023-04-03_16h21.13.803,Main,2022.1.1,61.125516353236534,
negative,blue,2,None,k,,,,,1,4,24,4,,,,,,,,,,,,,,,,,,,,,prac,k,k,1,0.7826134000206366,151.73232940002345,None,None,0,,,,,,,,,,,,,,109,2023-04-03_16h21.13.803,Main,2022.1.1,61.125516353236534,
negative,blue,1,None,k,,,,,1,5,25,5,,,,,,,,,,,,,,,,,,,,,prac,k,k,1,0.9018386999960057,153.51568519999273,None,None,0,,,,,,,,,,,,,,109,2023-04-03_16h21.13.803,Main,2022.1.1,61.125516353236534,
negative,yellow,2,k,None,,,,,1,6,26,6,,,,,,,,,,,,,,,,,,,,,prac,None,None,1,1.4988664999837056,155.41825740004424,None,None,1,,,,,,,,,,,,,,109,2023-04-03_16h21.13.803,Main,2022.1.1,61.125516353236534,
negative,red,1,None,None,,,,,1,7,27,7,,,,,,,,,,,,,,,,,,,,,prac,None,None,1,1.499053500010632,157.9182437999989,None,None,1,,,,,,,,,,,,,,109,2023-04-03_16h21.13.803,Main,2022.1.1,61.125516353236534,
positive,yellow,2,None,k,,,,,1,8,28,8,,,,,,,,,,,,,,,,,,,,,prac,k,k,1,0.6967281999532133,160.41801580000902,None,None,0,,,,,,,,,,,,,,109,2023-04-03_16h21.13.803,Main,2022.1.1,61.125516353236534,
negative,yellow,1,k,None,,,,,1,9,29,9,,,,,,,,,,,,,,,,,,,,,prac,None,None,1,1.501631700026337,162.1154666999937,None,None,1,,,,,,,,,,,,,,109,2023-04-03_16h21.13.803,Main,2022.1.1,61.125516353236534,
positive,yellow,2,None,k,,,,,1,10,30,10,,,,,,,,,,,,,,,,,,,,,prac,k,k,1,1.9964519999921322,164.6180341000436,None,None,0,,,,,,,,,,,,,,109,2023-04-03_16h21.13.803,Main,2022.1.1,61.125516353236534,
negative,yellow,2,k,None,,,,,1,11,31,11,,,,,,,,,,,,,,,,,,,,,prac,None,None,1,1.4870509000029415,168.6153027000255,None,None,1,,,,,,,,,,,,,,109,2023-04-03_16h21.13.803,Main,2022.1.1,61.125516353236534,
negative,red,2,None,None,,,,,1,12,32,12,,,,,,,,,,,,,,,,,,,,,prac,None,None,1,1.498776100052055,171.10128860000987,None,None,1,,,,,,,,,,,,,,109,2023-04-03_16h21.13.803,Main,2022.1.1,61.125516353236534,
positive,red,1,None,None,,,,,1,13,33,13,,,,,,,,,,,,,,,,,,,,,prac,None,None,1,1.4990567999775521,173.5987807000056,None,None,1,,,,,,,,,,,,,,109,2023-04-03_16h21.13.803,Main,2022.1.1,61.125516353236534,
positive,blue,2,k,None,,,,,1,14,34,14,,,,,,,,,,,,,,,,,,,,,prac,None,None,1,1.4966787999728695,176.09889550000662,None,None,1,,,,,,,,,,,,,,109,2023-04-03_16h21.13.803,Main,2022.1.1,61.125516353236534,
positive,blue,1,k,None,,,,,1,15,35,15,,,,,,,,,,,,,,,,,,,,,prac,None,None,1,1.501751100004185,178.59849730000133,None,None,1,,,,,,,,,,,,,,109,2023-04-03_16h21.13.803,Main,2022.1.1,61.125516353236534,
negative,blue,1,None,k,,,,,1,16,36,16,,,,,,,,,,,,,,,,,,,,,prac,k,k,1,0.6625990999746136,181.10108759999275,None,None,0,,,,,,,,,,,,,,109,2023-04-03_16h21.13.803,Main,2022.1.1,61.125516353236534,
positive,blue,2,k,None,,,,,1,17,37,17,,,,,,,,,,,,,,,,,,,,,prac,None,None,1,1.5050793000264093,182.75711010000668,None,None,1,,,,,,,,,,,,,,109,2023-04-03_16h21.13.803,Main,2022.1.1,61.125516353236534,
positive,blue,1,k,None,,,,,1,18,38,18,,,,,,,,,,,,,,,,,,,,,prac,None,None,1,1.4962521999841556,185.26853530004155,None,None,1,,,,,,,,,,,,,,109,2023-04-03_16h21.13.803,Main,2022.1.1,61.125516353236534,
positive,yellow,1,None,k,,,,,1,19,39,19,,,,,,,,,,,,,,,,,,,,,prac,k,k,1,0.4827596000395715,187.76755079999566,None,None,0,,,,,,,,,,,,,,109,2023-04-03_16h21.13.803,Main,2022.1.1,61.125516353236534,
,,,,,,,,,,,,,,,,,,,,,,,,,,,,,,,,,,,,,,,,,,189.25082489999477,None,189.25082489999477,None,0.019444445,-0.0037037036,0,0,0,0.014161409984808415,None,,,109,2023-04-03_16h21.13.803,Main,2022.1.1,61.125516353236534,
negative,yellow,2,k,None,,,,,,,,,0,0,0,0,,,,,,,,,,,,,189.50079050002387,None,189.50079050002387,None,main,None,None,1,1.4958516000187956,191.54374400002416,None,None,1,,,,,,,,,,,,,,109,2023-04-03_16h21.13.803,Main,2022.1.1,61.125516353236534,
positive,red,1,None,None,,,,,,,,,0,1,1,1,,,,,,,,,,,,,,,,,main,None,None,1,1.499100599961821,194.05077590001747,None,None,1,,,,,,,,,,,,,,109,2023-04-03_16h21.13.803,Main,2022.1.1,61.125516353236534,
positive,blue,2,k,None,,,,,,,,,0,2,2,2,,,,,,,,,,,,,,,,,main,None,None,1,1.4990688999532722,196.55072530003963,None,None,1,,,,,,,,,,,,,,109,2023-04-03_16h21.13.803,Main,2022.1.1,61.125516353236534,
positive,blue,1,k,None,,,,,,,,,0,3,3,3,,,,,,,,,,,,,,,,,main,None,None,1,1.496489199984353,199.05049910000525,None,None,1,,,,,,,,,,,,,,109,2023-04-03_16h21.13.803,Main,2022.1.1,61.125516353236534,
negative,yellow,2,k,None,,,,,,,,,0,4,4,4,,,,,,,,,,,,,,,,,main,None,None,1,1.5017557000392117,201.54790460004006,None,None,1,,,,,,,,,,,,,,109,2023-04-03_16h21.13.803,Main,2022.1.1,61.125516353236534,
positive,yellow,2,None,k,,,,,,,,,0,5,5,5,,,,,,,,,,,,,,,,,main,k,k,1,0.7163146999664605,204.05054560001008,None,None,0,,,,,,,,,,,,,,109,2023-04-03_16h21.13.803,Main,2022.1.1,61.125516353236534,
negative,blue,2,None,k,,,,,,,,,0,6,6,6,,,,,,,,,,,,,,,,,main,k,k,1,0.6796427000081167,205.76717110001482,None,None,0,,,,,,,,,,,,,,109,2023-04-03_16h21.13.803,Main,2022.1.1,61.125516353236534,
positive,red,2,None,None,,,,,,,,,0,7,7,7,,,,,,,,,,,,,,,,,main,None,None,1,1.5007779999868944,207.44778650003718,None,None,1,,,,,,,,,,,,,,109,2023-04-03_16h21.13.803,Main,2022.1.1,61.125516353236534,
positive,yellow,1,None,k,,,,,,,,,0,8,8,8,,,,,,,,,,,,,,,,,main,k,k,1,0.7820810999837704,209.95038049999857,None,None,0,,,,,,,,,,,,,,109,2023-04-03_16h21.13.803,Main,2022.1.1,61.125516353236534,
negative,red,1,None,None,,,,,,,,,0,9,9,9,,,,,,,,,,,,,,,,,main,None,None,1,1.4959276000154205,211.7336516000214,None,None,1,,,,,,,,,,,,,,109,2023-04-03_16h21.13.803,Main,2022.1.1,61.125516353236534,
positive,yellow,1,None,k,,,,,,,,,0,10,10,10,,,,,,,,,,,,,,,,,main,k,k,1,0.6357408000039868,214.23097030003555,None,None,0,,,,,,,,,,,,,,109,2023-04-03_16h21.13.803,Main,2022.1.1,61.125516353236534,
negative,yellow,1,k,None,,,,,,,,,0,11,11,11,,,,,,,,,,,,,,,,,main,None,None,1,1.5018290000152774,215.8669218000141,None,None,1,,,,,,,,,,,,,,109,2023-04-03_16h21.13.803,Main,2022.1.1,61.125516353236534,
negative,yellow,1,k,None,,,,,,,,,0,12,12,12,,,,,,,,,,,,,,,,,main,None,None,1,1.4934708999935538,218.36811640002998,None,None,1,,,,,,,,,,,,,,109,2023-04-03_16h21.13.803,Main,2022.1.1,61.125516353236534,
negative,red,2,None,None,,,,,,,,,0,13,13,13,,,,,,,,,,,,,,,,,main,None,None,1,1.5018658000044525,220.864219900046,None,None,1,,,,,,,,,,,,,,109,2023-04-03_16h21.13.803,Main,2022.1.1,61.125516353236534,
positive,yellow,2,None,k,,,,,,,,,0,14,14,14,,,,,,,,,,,,,,,,,main,k,k,1,0.7299422000069171,223.36674980004318,None,None,0,,,,,,,,,,,,,,109,2023-04-03_16h21.13.803,Main,2022.1.1,61.125516353236534,
positive,blue,1,k,None,,,,,,,,,0,15,15,15,,,,,,,,,,,,,,,,,main,None,None,1,1.501289000036195,225.0973872000468,None,None,1,,,,,,,,,,,,,,109,2023-04-03_16h21.13.803,Main,2022.1.1,61.125516353236534,
negative,blue,1,None,k,,,,,,,,,0,16,16,16,,,,,,,,,,,,,,,,,main,k,k,1,1.199528100027237,227.5999615000328,None,None,0,,,,,,,,,,,,,,109,2023-04-03_16h21.13.803,Main,2022.1.1,61.125516353236534,
positive,blue,2,k,None,,,,,,,,,0,17,17,17,,,,,,,,,,,,,,,,,main,None,None,1,1.4962238000007346,229.7999545999919,None,None,1,,,,,,,,,,,,,,109,2023-04-03_16h21.13.803,Main,2022.1.1,61.125516353236534,
negative,blue,2,None,k,,,,,,,,,0,18,18,18,,,,,,,,,,,,,,,,,main,k,k,1,0.7522709000040777,232.29721590003464,None,None,0,,,,,,,,,,,,,,109,2023-04-03_16h21.13.803,Main,2022.1.1,61.125516353236534,
negative,blue,1,None,k,,,,,,,,,0,19,19,19,,,,,,,,,,,,,,,,,main,k,k,1,0.7990218999912031,234.04992940003285,None,None,0,,,,,,,,,,,,,,109,2023-04-03_16h21.13.803,Main,2022.1.1,61.125516353236534,
negative,blue,1,None,k,,,,,,,,,0,20,20,20,,,,,,,,,,,,,,,,,main,k,k,1,0.6965536000207067,235.8497856000322,None,None,0,,,,,,,,,,,,,,109,2023-04-03_16h21.13.803,Main,2022.1.1,61.125516353236534,
negative,blue,2,None,k,,,,,,,,,0,21,21,21,,,,,,,,,,,,,,,,,main,k,k,1,0.7351660000276752,237.54711400001543,None,None,0,,,,,,,,,,,,,,109,2023-04-03_16h21.13.803,Main,2022.1.1,61.125516353236534,
negative,red,1,None,None,,,,,,,,,0,22,22,22,,,,,,,,,,,,,,,,,main,None,None,1,1.499468700028956,239.28301930002635,None,None,1,,,,,,,,,,,,,,109,2023-04-03_16h21.13.803,Main,2022.1.1,61.125516353236534,
positive,red,2,None,None,,,,,,,,,0,23,23,23,,,,,,,,,,,,,,,,,main,None,None,1,1.4960121999611147,241.7831068999949,None,None,1,,,,,,,,,,,,,,109,2023-04-03_16h21.13.803,Main,2022.1.1,61.125516353236534,
negative,red,2,None,None,,,,,,,,,0,24,24,24,,,,,,,,,,,,,,,,,main,None,None,1,1.5015476999687962,244.28028970002197,None,None,1,,,,,,,,,,,,,,109,2023-04-03_16h21.13.803,Main,2022.1.1,61.125516353236534,
positive,blue,2,k,None,,,,,,,,,0,25,25,25,,,,,,,,,,,,,,,,,main,None,None,1,1.4990543000167236,246.7829364000354,None,None,1,,,,,,,,,,,,,,109,2023-04-03_16h21.13.803,Main,2022.1.1,61.125516353236534,
negative,yellow,1,k,None,,,,,,,,,0,26,26,26,,,,,,,,,,,,,,,,,main,None,None,1,1.4966439999989234,249.28272590000415,None,None,1,,,,,,,,,,,,,,109,2023-04-03_16h21.13.803,Main,2022.1.1,61.125516353236534,
positive,blue,2,k,None,,,,,,,,,0,27,27,27,,,,,,,,,,,,,,,,,main,None,None,1,1.5020409999997355,251.78016810002737,None,None,1,,,,,,,,,,,,,,109,2023-04-03_16h21.13.803,Main,2022.1.1,61.125516353236534,
negative,blue,2,None,k,,,,,,,,,0,28,28,28,,,,,,,,,,,,,,,,,main,k,k,1,0.7324688999797218,254.28271250001853,None,None,0,,,,,,,,,,,,,,109,2023-04-03_16h21.13.803,Main,2022.1.1,61.125516353236534,
positive,red,1,None,None,,,,,,,,,0,29,29,29,,,,,,,,,,,,,,,,,main,None,None,1,1.4963699000072666,256.01605310000014,None,None,1,,,,,,,,,,,,,,109,2023-04-03_16h21.13.803,Main,2022.1.1,61.125516353236534,
positive,blue,1,k,None,,,,,,,,,0,30,30,30,,,,,,,,,,,,,,,,,main,None,None,1,1.5017800999921747,258.51330130000133,None,None,1,,,,,,,,,,,,,,109,2023-04-03_16h21.13.803,Main,2022.1.1,61.125516353236534,
positive,yellow,1,None,k,,,,,,,,,0,31,31,31,,,,,,,,,,,,,,,,,main,k,k,1,0.6827604999998584,261.0159252000158,None,None,0,,,,,,,,,,,,,,109,2023-04-03_16h21.13.803,Main,2022.1.1,61.125516353236534,
negative,yellow,2,k,None,,,,,,,,,0,32,32,32,,,,,,,,,,,,,,,,,main,None,None,1,1.4961945999530144,262.69915580004454,None,None,1,,,,,,,,,,,,,,109,2023-04-03_16h21.13.803,Main,2022.1.1,61.125516353236534,
negative,blue,1,None,k,,,,,,,,,0,33,33,33,,,,,,,,,,,,,,,,,main,k,k,1,0.7854086000006646,265.1964954000432,None,None,0,,,,,,,,,,,,,,109,2023-04-03_16h21.13.803,Main,2022.1.1,61.125516353236534,
positive,blue,1,k,None,,,,,,,,,0,34,34,34,,,,,,,,,,,,,,,,,main,None,None,1,1.4990390000166371,266.982461000036,None,None,1,,,,,,,,,,,,,,109,2023-04-03_16h21.13.803,Main,2022.1.1,61.125516353236534,
negative,yellow,1,k,None,,,,,,,,,0,35,35,35,,,,,,,,,,,,,,,,,main,None,None,1,1.4964566000271589,269.4824229000369,None,None,1,,,,,,,,,,,,,,109,2023-04-03_16h21.13.803,Main,2022.1.1,61.125516353236534,
positive,yellow,2,None,k,,,,,,,,,0,36,36,36,,,,,,,,,,,,,,,,,main,k,k,1,0.6686860999907367,271.97973640001146,None,None,0,,,,,,,,,,,,,,109,2023-04-03_16h21.13.803,Main,2022.1.1,61.125516353236534,
positive,yellow,2,None,k,,,,,,,,,0,37,37,37,,,,,,,,,,,,,,,,,main,k,k,1,0.6493580999667756,273.648966800014,None,None,0,,,,,,,,,,,,,,109,2023-04-03_16h21.13.803,Main,2022.1.1,61.125516353236534,
negative,yellow,2,k,None,,,,,,,,,0,38,38,38,,,,,,,,,,,,,,,,,main,None,None,1,1.4959789999993518,275.298955700011,None,None,1,,,,,,,,,,,,,,109,2023-04-03_16h21.13.803,Main,2022.1.1,61.125516353236534,
positive,yellow,1,None,k,,,,,,,,,0,39,39,39,,,,,,,,,,,,,,,,,main,k,k,1,0.8166167000308633,277.79631030000746,None,None,0,,,,,,,,,,,,,,109,2023-04-03_16h21.13.803,Main,2022.1.1,61.125516353236534,
negative,yellow,2,k,None,,,,,,,,,0,40,40,40,,,,,,,,,,,,,,,,,main,None,None,1,1.4994044000050053,279.61552920000395,None,None,1,,,,,,,,,,,,,,109,2023-04-03_16h21.13.803,Main,2022.1.1,61.125516353236534,
positive,blue,2,k,None,,,,,,,,,0,41,41,41,,,,,,,,,,,,,,,,,main,None,None,1,1.5007659000111744,282.11279909999575,None,None,1,,,,,,,,,,,,,,109,2023-04-03_16h21.13.803,Main,2022.1.1,61.125516353236534,
positive,blue,2,k,None,,,,,,,,,0,42,42,42,,,,,,,,,,,,,,,,,main,None,None,1,1.5006229000282474,284.6154688000097,None,None,1,,,,,,,,,,,,,,109,2023-04-03_16h21.13.803,Main,2022.1.1,61.125516353236534,
negative,blue,2,None,k,,,,,,,,,0,43,43,43,,,,,,,,,,,,,,,,,main,k,k,1,0.7122018999652937,287.11540450004395,None,None,0,,,,,,,,,,,,,,109,2023-04-03_16h21.13.803,Main,2022.1.1,61.125516353236534,
negative,red,1,None,None,,,,,,,,,0,44,44,44,,,,,,,,,,,,,,,,,main,None,None,1,1.501109800010454,288.82933390000835,None,None,1,,,,,,,,,,,,,,109,2023-04-03_16h21.13.803,Main,2022.1.1,61.125516353236534,
negative,yellow,1,k,None,,,,,,,,,0,45,45,45,,,,,,,,,,,,,,,,,main,None,None,1,1.5020044000120834,291.33194649999496,None,None,1,,,,,,,,,,,,,,109,2023-04-03_16h21.13.803,Main,2022.1.1,61.125516353236534,
negative,yellow,1,k,None,,,,,,,,,0,46,46,46,,,,,,,,,,,,,,,,,main,None,None,1,1.493639299995266,293.8328418000019,None,None,1,,,,,,,,,,,,,,109,2023-04-03_16h21.13.803,Main,2022.1.1,61.125516353236534,
positive,red,1,None,None,,,,,,,,,0,47,47,47,,,,,,,,,,,,,,,,,main,None,None,1,1.5016190000460483,296.3292333999998,None,None,1,,,,,,,,,,,,,,109,2023-04-03_16h21.13.803,Main,2022.1.1,61.125516353236534,
positive,yellow,1,None,k,,,,,,,,,0,48,48,48,,,,,,,,,,,,,,,,,main,k,k,1,0.6969000000390224,298.8317847000435,None,None,0,,,,,,,,,,,,,,109,2023-04-03_16h21.13.803,Main,2022.1.1,61.125516353236534,
negative,blue,1,None,k,,,,,,,,,0,49,49,49,,,,,,,,,,,,,,,,,main,k,k,1,0.7657281000283547,300.5290646000067,None,None,0,,,,,,,,,,,,,,109,2023-04-03_16h21.13.803,Main,2022.1.1,61.125516353236534,
positive,yellow,2,None,k,,,,,,,,,0,50,50,50,,,,,,,,,,,,,,,,,main,k,k,1,0.7517258999869227,302.2957573000458,None,None,0,,,,,,,,,,,,,,109,2023-04-03_16h21.13.803,Main,2022.1.1,61.125516353236534,
negative,blue,1,None,k,,,,,,,,,0,51,51,51,,,,,,,,,,,,,,,,,main,k,k,1,0.7160223000100814,304.04832430003444,None,None,0,,,,,,,,,,,,,,109,2023-04-03_16h21.13.803,Main,2022.1.1,61.125516353236534,
positive,red,2,None,None,,,,,,,,,0,52,52,52,,,,,,,,,,,,,,,,,main,None,None,1,1.4962562000146136,305.7649601000012,None,None,1,,,,,,,,,,,,,,109,2023-04-03_16h21.13.803,Main,2022.1.1,61.125516353236534,
positive,yellow,2,None,k,,,,,,,,,0,53,53,53,,,,,,,,,,,,,,,,,main,k,k,1,0.7354481000220403,308.2622909999918,None,None,0,,,,,,,,,,,,,,109,2023-04-03_16h21.13.803,Main,2022.1.1,61.125516353236534,
negative,red,2,None,None,,,,,,,,,0,54,54,54,,,,,,,,,,,,,,,,,main,None,None,1,1.496088299958501,309.99816240003565,None,None,1,,,,,,,,,,,,,,109,2023-04-03_16h21.13.803,Main,2022.1.1,61.125516353236534,
positive,yellow,1,None,k,,,,,,,,,0,55,55,55,,,,,,,,,,,,,,,,,main,k,k,1,0.6827577000367455,312.495440800034,None,None,0,,,,,,,,,,,,,,109,2023-04-03_16h21.13.803,Main,2022.1.1,61.125516353236534,
negative,blue,2,None,k,,,,,,,,,0,56,56,56,,,,,,,,,,,,,,,,,main,k,k,1,0.7526891999877989,314.1788360000355,None,None,0,,,,,,,,,,,,,,109,2023-04-03_16h21.13.803,Main,2022.1.1,61.125516353236534,
positive,blue,1,k,None,,,,,,,,,0,57,57,57,,,,,,,,,,,,,,,,,main,None,None,1,1.4984161000465974,315.93139370001154,None,None,1,,,,,,,,,,,,,,109,2023-04-03_16h21.13.803,Main,2022.1.1,61.125516353236534,
positive,blue,1,k,None,,,,,,,,,0,58,58,58,,,,,,,,,,,,,,,,,main,None,None,1,1.4991475999704562,318.4313073999947,None,None,1,,,,,,,,,,,,,,109,2023-04-03_16h21.13.803,Main,2022.1.1,61.125516353236534,
negative,yellow,2,k,None,,,,,,,,,0,59,59,59,,,,,,,,,,,,,,,,,main,None,None,1,1.4989102000254206,320.9288302999921,None,None,1,,,,,,,,,,,,,,109,2023-04-03_16h21.13.803,Main,2022.1.1,61.125516353236534,
positive,red,2,None,None,,,,,,,,,0,60,60,60,,,,,,,,,,,,,,,,,main,None,None,1,1.4993649999960326,323.42883410002105,None,None,1,,,,,,,,,,,,,,109,2023-04-03_16h21.13.803,Main,2022.1.1,61.125516353236534,
negative,yellow,1,k,None,,,,,,,,,0,61,61,61,,,,,,,,,,,,,,,,,main,None,None,1,1.496448900026735,325.9310383000411,None,None,1,,,,,,,,,,,,,,109,2023-04-03_16h21.13.803,Main,2022.1.1,61.125516353236534,
negative,red,1,None,None,,,,,,,,,0,62,62,62,,,,,,,,,,,,,,,,,main,None,None,1,1.5020265000057407,328.42843960004393,None,None,1,,,,,,,,,,,,,,109,2023-04-03_16h21.13.803,Main,2022.1.1,61.125516353236534,
negative,blue,1,None,k,,,,,,,,,0,63,63,63,,,,,,,,,,,,,,,,,main,k,k,1,0.9983376000309363,330.93108290003147,None,None,0,,,,,,,,,,,,,,109,2023-04-03_16h21.13.803,Main,2022.1.1,61.125516353236534,
positive,blue,2,k,None,,,,,,,,,0,64,64,64,,,,,,,,,,,,,,,,,main,None,None,1,1.496242799970787,332.93099010002334,None,None,1,,,,,,,,,,,,,,109,2023-04-03_16h21.13.803,Main,2022.1.1,61.125516353236534,
negative,yellow,2,k,None,,,,,,,,,0,65,65,65,,,,,,,,,,,,,,,,,main,None,None,1,1.501808599976357,335.42829130002065,None,None,1,,,,,,,,,,,,,,109,2023-04-03_16h21.13.803,Main,2022.1.1,61.125516353236534,
positive,yellow,2,None,k,,,,,,,,,0,66,66,66,,,,,,,,,,,,,,,,,main,k,k,1,0.5995670999982394,337.93089670001063,None,None,0,,,,,,,,,,,,,,109,2023-04-03_16h21.13.803,Main,2022.1.1,61.125516353236534,
positive,yellow,2,None,k,,,,,,,,,0,67,67,67,,,,,,,,,,,,,,,,,main,k,k,1,0.7965109999640845,339.5308728000382,None,None,0,,,,,,,,,,,,,,109,2023-04-03_16h21.13.803,Main,2022.1.1,61.125516353236534,
positive,red,1,None,None,,,,,,,,,0,68,68,68,,,,,,,,,,,,,,,,,main,None,None,1,1.5015869999770075,341.3281442000298,None,None,1,,,,,,,,,,,,,,109,2023-04-03_16h21.13.803,Main,2022.1.1,61.125516353236534,
positive,yellow,1,None,k,,,,,,,,,0,69,69,69,,,,,,,,,,,,,,,,,main,k,k,1,0.7671162000042386,343.8307544999989,None,None,0,,,,,,,,,,,,,,109,2023-04-03_16h21.13.803,Main,2022.1.1,61.125516353236534,
negative,yellow,2,k,None,,,,,,,,,0,70,70,70,,,,,,,,,,,,,,,,,main,None,None,1,1.4953013000194915,345.59740980004426,None,None,1,,,,,,,,,,,,,,109,2023-04-03_16h21.13.803,Main,2022.1.1,61.125516353236534,
positive,yellow,1,None,k,,,,,,,,,0,71,71,71,,,,,,,,,,,,,,,,,main,k,k,1,0.616091099975165,348.09465230000205,None,None,0,,,,,,,,,,,,,,109,2023-04-03_16h21.13.803,Main,2022.1.1,61.125516353236534,
negative,blue,1,None,k,,,,,,,,,0,72,72,72,,,,,,,,,,,,,,,,,main,k,k,1,0.7183541999547742,349.71392280003056,None,None,0,,,,,,,,,,,,,,109,2023-04-03_16h21.13.803,Main,2022.1.1,61.125516353236534,
negative,red,2,None,None,,,,,,,,,0,73,73,73,,,,,,,,,,,,,,,,,main,None,None,1,1.496451499988325,351.43056730000535,None,None,1,,,,,,,,,,,,,,109,2023-04-03_16h21.13.803,Main,2022.1.1,61.125516353236534,
positive,blue,2,k,None,,,,,,,,,0,74,74,74,,,,,,,,,,,,,,,,,main,None,None,1,1.502592500008177,353.92787220003083,None,None,1,,,,,,,,,,,,,,109,2023-04-03_16h21.13.803,Main,2022.1.1,61.125516353236534,
negative,blue,2,None,k,,,,,,,,,0,75,75,75,,,,,,,,,,,,,,,,,main,k,k,1,0.7318123999866657,356.4304697000189,None,None,0,,,,,,,,,,,,,,109,2023-04-03_16h21.13.803,Main,2022.1.1,61.125516353236534,
negative,blue,2,None,k,,,,,,,,,0,76,76,76,,,,,,,,,,,,,,,,,main,k,k,1,0.746411900036037,358.16371799999615,None,None,0,,,,,,,,,,,,,,109,2023-04-03_16h21.13.803,Main,2022.1.1,61.125516353236534,
negative,yellow,1,k,None,,,,,,,,,0,77,77,77,,,,,,,,,,,,,,,,,main,None,None,1,1.5012608999968506,359.9110584000009,None,None,1,,,,,,,,,,,,,,109,2023-04-03_16h21.13.803,Main,2022.1.1,61.125516353236534,
positive,blue,1,k,None,,,,,,,,,0,78,78,78,,,,,,,,,,,,,,,,,main,None,None,1,1.4994379000272602,362.41370430000825,None,None,1,,,,,,,,,,,,,,109,2023-04-03_16h21.13.803,Main,2022.1.1,61.125516353236534,
positive,blue,1,k,None,,,,,,,,,0,79,79,79,,,,,,,,,,,,,,,,,main,None,None,1,1.496674299996812,364.9136550000403,None,None,1,,,,,,,,,,,,,,109,2023-04-03_16h21.13.803,Main,2022.1.1,61.125516353236534,
positive,red,2,None,None,,,,,,,,,0,80,80,80,,,,,,,,,,,,,,,,,main,None,None,1,1.5017882999964058,367.41096930002095,None,None,1,,,,,,,,,,,,,,109,2023-04-03_16h21.13.803,Main,2022.1.1,61.125516353236534,
positive,yellow,2,None,k,,,,,,,,,0,81,81,81,,,,,,,,,,,,,,,,,main,k,k,1,1.1824373000417836,369.91357289999723,None,None,0,,,,,,,,,,,,,,109,2023-04-03_16h21.13.803,Main,2022.1.1,61.125516353236534,
positive,blue,1,k,None,,,,,,,,,0,82,82,82,,,,,,,,,,,,,,,,,main,None,None,1,1.4987772000022233,372.0966353000258,None,None,1,,,,,,,,,,,,,,109,2023-04-03_16h21.13.803,Main,2022.1.1,61.125516353236534,
negative,yellow,2,k,None,,,,,,,,,0,83,83,83,,,,,,,,,,,,,,,,,main,None,None,1,1.4990554999676533,374.59462150000036,None,None,1,,,,,,,,,,,,,,109,2023-04-03_16h21.13.803,Main,2022.1.1,61.125516353236534,
positive,blue,2,k,None,,,,,,,,,0,84,84,84,,,,,,,,,,,,,,,,,main,None,None,1,1.4992397999740206,377.0965484000044,None,None,1,,,,,,,,,,,,,,109,2023-04-03_16h21.13.803,Main,2022.1.1,61.125516353236534,
positive,yellow,1,None,k,,,,,,,,,0,85,85,85,,,,,,,,,,,,,,,,,main,k,k,1,0.7188926999806426,379.59428340004524,None,None,0,,,,,,,,,,,,,,109,2023-04-03_16h21.13.803,Main,2022.1.1,61.125516353236534,
positive,blue,2,k,None,,,,,,,,,0,86,86,86,,,,,,,,,,,,,,,,,main,None,None,1,1.4933815999538638,381.3142153000226,None,None,1,,,,,,,,,,,,,,109,2023-04-03_16h21.13.803,Main,2022.1.1,61.125516353236534,
positive,blue,1,k,None,,,,,,,,,0,87,87,87,,,,,,,,,,,,,,,,,main,None,None,1,1.5018857999821194,383.8105964999995,None,None,1,,,,,,,,,,,,,,109,2023-04-03_16h21.13.803,Main,2022.1.1,61.125516353236534,
negative,yellow,2,k,None,,,,,,,,,0,88,88,88,,,,,,,,,,,,,,,,,main,None,None,1,1.4963912999955937,386.31317199999467,None,None,1,,,,,,,,,,,,,,109,2023-04-03_16h21.13.803,Main,2022.1.1,61.125516353236534,
negative,blue,2,None,k,,,,,,,,,0,89,89,89,,,,,,,,,,,,,,,,,main,k,k,1,0.7688465000246651,388.8104149000137,None,None,0,,,,,,,,,,,,,,109,2023-04-03_16h21.13.803,Main,2022.1.1,61.125516353236534,
positive,yellow,2,None,k,,,,,,,,,0,90,90,90,,,,,,,,,,,,,,,,,main,k,k,1,0.6827395999571308,390.5797211000463,None,None,0,,,,,,,,,,,,,,109,2023-04-03_16h21.13.803,Main,2022.1.1,61.125516353236534,
negative,yellow,1,k,None,,,,,,,,,0,91,91,91,,,,,,,,,,,,,,,,,main,None,None,1,1.4984911999781616,392.26319309999235,None,None,1,,,,,,,,,,,,,,109,2023-04-03_16h21.13.803,Main,2022.1.1,61.125516353236534,
negative,red,2,None,None,,,,,,,,,0,92,92,92,,,,,,,,,,,,,,,,,main,None,None,1,1.4966188999824226,394.76280240004417,None,None,1,,,,,,,,,,,,,,109,2023-04-03_16h21.13.803,Main,2022.1.1,61.125516353236534,
negative,blue,2,None,k,,,,,,,,,0,93,93,93,,,,,,,,,,,,,,,,,main,k,k,1,0.7661758000031114,397.2602313000243,None,None,0,,,,,,,,,,,,,,109,2023-04-03_16h21.13.803,Main,2022.1.1,61.125516353236534,
negative,blue,1,None,k,,,,,,,,,0,94,94,94,,,,,,,,,,,,,,,,,main,k,k,1,0.735258899978362,399.0295117000351,None,None,0,,,,,,,,,,,,,,109,2023-04-03_16h21.13.803,Main,2022.1.1,61.125516353236534,
negative,blue,1,None,k,,,,,,,,,0,95,95,95,,,,,,,,,,,,,,,,,main,k,k,1,0.7316304999985732,400.76276910002343,None,None,0,,,,,,,,,,,,,,109,2023-04-03_16h21.13.803,Main,2022.1.1,61.125516353236534,
negative,red,1,None,None,,,,,,,,,0,96,96,96,,,,,,,,,,,,,,,,,main,None,None,1,1.4969555999850854,402.4991486000363,None,None,1,,,,,,,,,,,,,,109,2023-04-03_16h21.13.803,Main,2022.1.1,61.125516353236534,
positive,yellow,1,None,k,,,,,,,,,0,97,97,97,,,,,,,,,,,,,,,,,main,k,k,1,0.7202890000189655,404.99345120001817,None,None,0,,,,,,,,,,,,,,109,2023-04-03_16h21.13.803,Main,2022.1.1,61.125516353236534,
negative,yellow,1,k,None,,,,,,,,,0,98,98,98,,,,,,,,,,,,,,,,,main,None,None,1,1.49460919998819,406.7127134000184,None,None,1,,,,,,,,,,,,,,109,2023-04-03_16h21.13.803,Main,2022.1.1,61.125516353236534,
positive,red,1,None,None,,,,,,,,,0,99,99,99,,,,,,,,,,,,,,,,,main,None,None,1,1.5018342999974266,409.2099795000395,None,None,1,,,,,,,,,,,,,,109,2023-04-03_16h21.13.803,Main,2022.1.1,61.125516353236534,
positive,blue,1,k,None,,,,,,,,,0,100,100,100,,,,,,,,,,,,,,,,,main,None,None,1,1.4992020999779925,411.7126266999985,None,None,1,,,,,,,,,,,,,,109,2023-04-03_16h21.13.803,Main,2022.1.1,61.125516353236534,
negative,yellow,1,k,None,,,,,,,,,0,101,101,101,,,,,,,,,,,,,,,,,main,None,None,1,1.4967130000004545,414.2125763000222,None,None,1,,,,,,,,,,,,,,109,2023-04-03_16h21.13.803,Main,2022.1.1,61.125516353236534,
negative,blue,2,None,k,,,,,,,,,0,102,102,102,,,,,,,,,,,,,,,,,main,k,k,1,0.7352194000268355,416.70987200003583,None,None,0,,,,,,,,,,,,,,109,2023-04-03_16h21.13.803,Main,2022.1.1,61.125516353236534,
negative,yellow,2,k,None,,,,,,,,,0,103,103,103,,,,,,,,,,,,,,,,,main,None,None,1,1.496211699966807,418.44577140000183,None,None,1,,,,,,,,,,,,,,109,2023-04-03_16h21.13.803,Main,2022.1.1,61.125516353236534,
positive,yellow,2,None,k,,,,,,,,,0,104,104,104,,,,,,,,,,,,,,,,,main,k,k,1,0.7164936000481248,420.94302210002206,None,None,0,,,,,,,,,,,,,,109,2023-04-03_16h21.13.803,Main,2022.1.1,61.125516353236534,
positive,blue,1,k,None,,,,,,,,,0,105,105,105,,,,,,,,,,,,,,,,,main,None,None,1,1.5011957000242546,422.65974190004636,None,None,1,,,,,,,,,,,,,,109,2023-04-03_16h21.13.803,Main,2022.1.1,61.125516353236534,
positive,blue,2,k,None,,,,,,,,,0,106,106,106,,,,,,,,,,,,,,,,,main,None,None,1,1.4990111999795772,425.162319199997,None,None,1,,,,,,,,,,,,,,109,2023-04-03_16h21.13.803,Main,2022.1.1,61.125516353236534,
negative,blue,1,None,k,,,,,,,,,0,107,107,107,,,,,,,,,,,,,,,,,main,k,k,1,0.5967631000094116,427.65987620002124,None,None,0,,,,,,,,,,,,,,109,2023-04-03_16h21.13.803,Main,2022.1.1,61.125516353236534,
positive,yellow,2,None,k,,,,,,,,,0,108,108,108,,,,,,,,,,,,,,,,,main,k,k,1,0.615971699997317,429.2595346000162,None,None,0,,,,,,,,,,,,,,109,2023-04-03_16h21.13.803,Main,2022.1.1,61.125516353236534,
negative,yellow,1,k,None,,,,,,,,,0,109,109,109,,,,,,,,,,,,,,,,,main,None,None,1,1.5015595000004396,430.876210300019,None,None,1,,,,,,,,,,,,,,109,2023-04-03_16h21.13.803,Main,2022.1.1,61.125516353236534,
negative,blue,2,None,k,,,,,,,,,0,110,110,110,,,,,,,,,,,,,,,,,main,k,k,1,0.580543799966108,433.37883780000266,None,None,0,,,,,,,,,,,,,,109,2023-04-03_16h21.13.803,Main,2022.1.1,61.125516353236534,
positive,blue,2,k,None,,,,,,,,,0,111,111,111,,,,,,,,,,,,,,,,,main,None,None,1,1.4985519000329077,434.9620100000175,None,None,1,,,,,,,,,,,,,,109,2023-04-03_16h21.13.803,Main,2022.1.1,61.125516353236534,
negative,blue,1,None,k,,,,,,,,,0,112,112,112,,,,,,,,,,,,,,,,,main,k,k,1,0.9020006999489851,437.45941860001767,None,None,0,,,,,,,,,,,,,,109,2023-04-03_16h21.13.803,Main,2022.1.1,61.125516353236534,
positive,yellow,1,None,k,,,,,,,,,0,113,113,113,,,,,,,,,,,,,,,,,main,k,k,1,0.6824131999746896,439.36199060000945,None,None,0,,,,,,,,,,,,,,109,2023-04-03_16h21.13.803,Main,2022.1.1,61.125516353236534,
negative,red,1,None,None,,,,,,,,,0,114,114,114,,,,,,,,,,,,,,,,,main,None,None,1,1.4963371999911033,441.0453075999976,None,None,1,,,,,,,,,,,,,,109,2023-04-03_16h21.13.803,Main,2022.1.1,61.125516353236534,
positive,red,1,None,None,,,,,,,,,0,115,115,115,,,,,,,,,,,,,,,,,main,None,None,1,1.5017110999906436,443.5425356000196,None,None,1,,,,,,,,,,,,,,109,2023-04-03_16h21.13.803,Main,2022.1.1,61.125516353236534,
negative,red,2,None,None,,,,,,,,,0,116,116,116,,,,,,,,,,,,,,,,,main,None,None,1,1.497852000000421,446.04517679999117,None,None,1,,,,,,,,,,,,,,109,2023-04-03_16h21.13.803,Main,2022.1.1,61.125516353236534,
negative,yellow,2,k,None,,,,,,,,,0,117,117,117,,,,,,,,,,,,,,,,,main,None,None,1,1.5003554000286385,448.5424192000064,None,None,1,,,,,,,,,,,,,,109,2023-04-03_16h21.13.803,Main,2022.1.1,61.125516353236534,
positive,yellow,1,None,k,,,,,,,,,0,118,118,118,,,,,,,,,,,,,,,,,main,k,k,1,0.6164662999799475,451.0451509000268,None,None,0,,,,,,,,,,,,,,109,2023-04-03_16h21.13.803,Main,2022.1.1,61.125516353236534,
positive,red,2,None,None,,,,,,,,,0,119,119,119,,,,,,,,,,,,,,,,,main,None,None,1,1.4962322000064887,452.661642400024,None,None,1,,,,,,,,,,,,,,109,2023-04-03_16h21.13.803,Main,2022.1.1,61.125516353236534,
positive,blue,2,k,None,,,,,,,,,0,120,120,120,,,,,,,,,,,,,,,,,main,None,None,1,1.5015964999911375,455.1589254999999,None,None,1,,,,,,,,,,,,,,109,2023-04-03_16h21.13.803,Main,2022.1.1,61.125516353236534,
negative,red,1,None,None,,,,,,,,,0,121,121,121,,,,,,,,,,,,,,,,,main,None,None,1,1.4993181999889202,457.6615699999966,None,None,1,,,,,,,,,,,,,,109,2023-04-03_16h21.13.803,Main,2022.1.1,61.125516353236534,
positive,yellow,2,None,k,,,,,,,,,0,122,122,122,,,,,,,,,,,,,,,,,main,k,k,1,0.6137727000168525,460.1591152000474,None,None,0,,,,,,,,,,,,,,109,2023-04-03_16h21.13.803,Main,2022.1.1,61.125516353236534,
negative,red,2,None,None,,,,,,,,,0,123,123,123,,,,,,,,,,,,,,,,,main,None,None,1,1.4984018999966793,461.7779484000057,None,None,1,,,,,,,,,,,,,,109,2023-04-03_16h21.13.803,Main,2022.1.1,61.125516353236534,
negative,yellow,2,k,None,,,,,,,,,0,124,124,124,,,,,,,,,,,,,,,,,main,None,None,1,1.5018481999868527,464.27543159999186,None,None,1,,,,,,,,,,,,,,109,2023-04-03_16h21.13.803,Main,2022.1.1,61.125516353236534,
positive,red,1,None,None,,,,,,,,,0,125,125,125,,,,,,,,,,,,,,,,,main,None,None,1,1.4966148999519646,466.77798170002643,None,None,1,,,,,,,,,,,,,,109,2023-04-03_16h21.13.803,Main,2022.1.1,61.125516353236534,
negative,blue,2,None,k,,,,,,,,,0,126,126,126,,,,,,,,,,,,,,,,,main,k,k,1,0.7659132999833673,469.2753182000015,None,None,0,,,,,,,,,,,,,,109,2023-04-03_16h21.13.803,Main,2022.1.1,61.125516353236534,
negative,blue,1,None,k,,,,,,,,,0,127,127,127,,,,,,,,,,,,,,,,,main,k,k,1,0.7188132000155747,471.0419884000439,None,None,0,,,,,,,,,,,,,,109,2023-04-03_16h21.13.803,Main,2022.1.1,61.125516353236534,
negative,yellow,1,k,None,,,,,,,,,0,128,128,128,,,,,,,,,,,,,,,,,main,None,None,1,1.4958937999908812,472.7611796000274,None,None,1,,,,,,,,,,,,,,109,2023-04-03_16h21.13.803,Main,2022.1.1,61.125516353236534,
negative,yellow,1,k,None,,,,,,,,,0,129,129,129,,,,,,,,,,,,,,,,,main,None,None,1,1.501961099973414,475.2585097000119,None,None,1,,,,,,,,,,,,,,109,2023-04-03_16h21.13.803,Main,2022.1.1,61.125516353236534,
positive,blue,1,k,None,,,,,,,,,0,130,130,130,,,,,,,,,,,,,,,,,main,None,None,1,1.4991511999978684,477.76114790001884,None,None,1,,,,,,,,,,,,,,109,2023-04-03_16h21.13.803,Main,2022.1.1,61.125516353236534,
negative,blue,1,None,k,,,,,,,,,0,131,131,131,,,,,,,,,,,,,,,,,main,k,k,1,0.8316174999927171,480.261009800015,None,None,0,,,,,,,,,,,,,,109,2023-04-03_16h21.13.803,Main,2022.1.1,61.125516353236534,
negative,blue,2,None,k,,,,,,,,,0,132,132,132,,,,,,,,,,,,,,,,,main,k,k,1,0.7001919000176713,482.09168700000737,None,None,0,,,,,,,,,,,,,,109,2023-04-03_16h21.13.803,Main,2022.1.1,61.125516353236534,
positive,blue,2,k,None,,,,,,,,,0,133,133,133,,,,,,,,,,,,,,,,,main,None,None,1,1.498789699980989,483.79431319999276,None,None,1,,,,,,,,,,,,,,109,2023-04-03_16h21.13.803,Main,2022.1.1,61.125516353236534,
positive,red,2,None,None,,,,,,,,,0,134,134,134,,,,,,,,,,,,,,,,,main,None,None,1,1.4965287999948487,486.2942746000481,None,None,1,,,,,,,,,,,,,,109,2023-04-03_16h21.13.803,Main,2022.1.1,61.125516353236534,
negative,yellow,2,k,None,,,,,,,,,0,135,135,135,,,,,,,,,,,,,,,,,main,None,None,1,1.5018272000015713,488.7915520000388,None,None,1,,,,,,,,,,,,,,109,2023-04-03_16h21.13.803,Main,2022.1.1,61.125516353236534,
positive,yellow,2,None,k,,,,,,,,,0,136,136,136,,,,,,,,,,,,,,,,,main,k,k,1,0.5827820000122301,491.2941909999936,None,None,0,,,,,,,,,,,,,,109,2023-04-03_16h21.13.803,Main,2022.1.1,61.125516353236534,
positive,blue,1,k,None,,,,,,,,,0,137,137,137,,,,,,,,,,,,,,,,,main,None,None,1,1.496364300022833,492.8774157000007,None,None,1,,,,,,,,,,,,,,109,2023-04-03_16h21.13.803,Main,2022.1.1,61.125516353236534,
positive,yellow,1,None,k,,,,,,,,,0,138,138,138,,,,,,,,,,,,,,,,,main,k,k,1,0.7853358999709599,495.3747936,None,None,0,,,,,,,,,,,,,,109,2023-04-03_16h21.13.803,Main,2022.1.1,61.125516353236534,
positive,yellow,1,None,k,,,,,,,,,0,139,139,139,,,,,,,,,,,,,,,,,main,k,k,1,0.6992230999749154,497.16065309999976,None,None,0,,,,,,,,,,,,,,109,2023-04-03_16h21.13.803,Main,2022.1.1,61.125516353236534,
positive,yellow,1,None,k,,,,,,,,,0,140,140,140,,,,,,,,,,,,,,,,,main,k,k,1,0.6799060999765061,498.86061750003137,None,None,0,,,,,,,,,,,,,,109,2023-04-03_16h21.13.803,Main,2022.1.1,61.125516353236534,
positive,blue,1,k,None,,,,,,,,,0,141,141,141,,,,,,,,,,,,,,,,,main,None,None,1,1.501467699999921,500.5412588000181,None,None,1,,,,,,,,,,,,,,109,2023-04-03_16h21.13.803,Main,2022.1.1,61.125516353236534,
positive,blue,2,k,None,,,,,,,,,0,142,142,142,,,,,,,,,,,,,,,,,main,None,None,1,1.496571000025142,503.0438839000417,None,None,1,,,,,,,,,,,,,,109,2023-04-03_16h21.13.803,Main,2022.1.1,61.125516353236534,
positive,yellow,2,None,k,,,,,,,,,0,143,143,143,,,,,,,,,,,,,,,,,main,k,k,1,0.7845489999745041,505.54116710001836,None,None,0,,,,,,,,,,,,,,109,2023-04-03_16h21.13.803,Main,2022.1.1,61.125516353236534,
negative,yellow,2,k,None,,,,,,,,,0,144,144,144,,,,,,,,,,,,,,,,,main,None,None,1,1.4998775999993086,507.32453320000786,None,None,1,,,,,,,,,,,,,,109,2023-04-03_16h21.13.803,Main,2022.1.1,61.125516353236534,
negative,blue,2,None,k,,,,,,,,,0,145,145,145,,,,,,,,,,,,,,,,,main,k,k,1,0.6966451000189409,509.82704619999276,None,None,0,,,,,,,,,,,,,,109,2023-04-03_16h21.13.803,Main,2022.1.1,61.125516353236534,
negative,red,1,None,None,,,,,,,,,0,146,146,146,,,,,,,,,,,,,,,,,main,None,None,1,1.501517899974715,511.5243819000316,None,None,1,,,,,,,,,,,,,,109,2023-04-03_16h21.13.803,Main,2022.1.1,61.125516353236534,
positive,blue,1,k,None,,,,,,,,,0,147,147,147,,,,,,,,,,,,,,,,,main,None,None,1,1.4990452000056393,514.0269500000286,None,None,1,,,,,,,,,,,,,,109,2023-04-03_16h21.13.803,Main,2022.1.1,61.125516353236534,
positive,yellow,1,None,k,,,,,,,,,0,148,148,148,,,,,,,,,,,,,,,,,main,k,k,1,0.613321500015445,516.5269260000205,None,None,0,,,,,,,,,,,,,,109,2023-04-03_16h21.13.803,Main,2022.1.1,61.125516353236534,
negative,red,2,None,None,,,,,,,,,0,149,149,149,,,,,,,,,,,,,,,,,main,None,None,1,1.5016547000268474,518.1408724000212,None,None,1,,,,,,,,,,,,,,109,2023-04-03_16h21.13.803,Main,2022.1.1,61.125516353236534,
negative,blue,1,None,k,,,,,,,,,0,150,150,150,,,,,,,,,,,,,,,,,main,k,k,1,0.7493338999920525,520.6434298999957,None,None,0,,,,,,,,,,,,,,109,2023-04-03_16h21.13.803,Main,2022.1.1,61.125516353236534,
negative,yellow,2,k,None,,,,,,,,,0,151,151,151,,,,,,,,,,,,,,,,,main,None,None,1,1.4962314000003971,522.3933983000461,None,None,1,,,,,,,,,,,,,,109,2023-04-03_16h21.13.803,Main,2022.1.1,61.125516353236534,
negative,blue,2,None,k,,,,,,,,,0,152,152,152,,,,,,,,,,,,,,,,,main,k,k,1,0.8687741000321694,524.8907079999917,None,None,0,,,,,,,,,,,,,,109,2023-04-03_16h21.13.803,Main,2022.1.1,61.125516353236534,
negative,yellow,1,k,None,,,,,,,,,0,153,153,153,,,,,,,,,,,,,,,,,main,None,None,1,1.4962028000154532,526.7600330000278,None,None,1,,,,,,,,,,,,,,109,2023-04-03_16h21.13.803,Main,2022.1.1,61.125516353236534,
negative,blue,1,None,k,,,,,,,,,0,154,154,154,,,,,,,,,,,,,,,,,main,k,k,1,0.8992644000099972,529.2630774000427,None,None,0,,,,,,,,,,,,,,109,2023-04-03_16h21.13.803,Main,2022.1.1,61.125516353236534,
positive,yellow,2,None,k,,,,,,,,,0,155,155,155,,,,,,,,,,,,,,,,,main,k,k,1,0.5684463999932632,531.157246000017,None,None,0,,,,,,,,,,,,,,109,2023-04-03_16h21.13.803,Main,2022.1.1,61.125516353236534,
positive,red,2,None,None,,,,,,,,,0,156,156,156,,,,,,,,,,,,,,,,,main,None,None,1,1.497815200011246,532.7265896000317,None,None,1,,,,,,,,,,,,,,109,2023-04-03_16h21.13.803,Main,2022.1.1,61.125516353236534,
positive,red,1,None,None,,,,,,,,,0,157,157,157,,,,,,,,,,,,,,,,,main,None,None,1,1.4957967000082135,535.2265492000151,None,None,1,,,,,,,,,,,,,,109,2023-04-03_16h21.13.803,Main,2022.1.1,61.125516353236534,
positive,blue,2,k,None,,,,,,,,,0,158,158,158,,,,,,,,,,,,,,,,,main,None,None,1,1.501402300025802,537.7238364000223,None,None,1,,,,,,,,,,,,,,109,2023-04-03_16h21.13.803,Main,2022.1.1,61.125516353236534,
negative,yellow,1,k,None,,,,,,,,,0,159,159,159,,,,,,,,,,,,,,,,,main,None,None,1,1.4976304000010714,540.226383900037,None,None,1,,,,,,,,,,,,,,109,2023-04-03_16h21.13.803,Main,2022.1.1,61.125516353236534,
negative,red,2,None,None,,,,,,,,,0,160,160,160,,,,,,,,,,,,,,,,,main,None,None,1,1.4957973000127822,542.7239370000316,None,None,1,,,,,,,,,,,,,,109,2023-04-03_16h21.13.803,Main,2022.1.1,61.125516353236534,
negative,blue,1,None,k,,,,,,,,,0,161,161,161,,,,,,,,,,,,,,,,,main,k,k,1,1.2679022999946028,545.2236266999971,None,None,0,,,,,,,,,,,,,,109,2023-04-03_16h21.13.803,Main,2022.1.1,61.125516353236534,
negative,blue,1,None,k,,,,,,,,,0,162,162,162,,,,,,,,,,,,,,,,,main,k,k,1,0.8824788000201806,547.49280800001,None,None,0,,,,,,,,,,,,,,109,2023-04-03_16h21.13.803,Main,2022.1.1,61.125516353236534,
negative,yellow,1,k,None,,,,,,,,,0,163,163,163,,,,,,,,,,,,,,,,,main,None,None,1,1.4985512000275776,549.3762096000137,None,None,1,,,,,,,,,,,,,,109,2023-04-03_16h21.13.803,Main,2022.1.1,61.125516353236534,
negative,yellow,1,k,None,,,,,,,,,0,164,164,164,,,,,,,,,,,,,,,,,main,None,None,1,1.4970536000328138,551.8759761000401,None,None,1,,,,,,,,,,,,,,109,2023-04-03_16h21.13.803,Main,2022.1.1,61.125516353236534,
positive,yellow,1,None,k,,,,,,,,,0,165,165,165,,,,,,,,,,,,,,,,,main,k,k,1,0.685152999998536,554.3734323999961,None,None,0,,,,,,,,,,,,,,109,2023-04-03_16h21.13.803,Main,2022.1.1,61.125516353236534,
negative,red,1,None,None,,,,,,,,,0,166,166,166,,,,,,,,,,,,,,,,,main,None,None,1,1.4989532000035979,556.0593377000187,None,None,1,,,,,,,,,,,,,,109,2023-04-03_16h21.13.803,Main,2022.1.1,61.125516353236534,
negative,yellow,2,k,None,,,,,,,,,0,167,167,167,,,,,,,,,,,,,,,,,main,None,None,1,1.4962447000434622,558.5593137000105,None,None,1,,,,,,,,,,,,,,109,2023-04-03_16h21.13.803,Main,2022.1.1,61.125516353236534,
positive,blue,2,k,None,,,,,,,,,0,168,168,168,,,,,,,,,,,,,,,,,main,None,None,1,1.5020131000201218,561.056593700021,None,None,1,,,,,,,,,,,,,,109,2023-04-03_16h21.13.803,Main,2022.1.1,61.125516353236534,
positive,red,2,None,None,,,,,,,,,0,169,169,169,,,,,,,,,,,,,,,,,main,None,None,1,1.4963372999918647,563.5591920000152,None,None,1,,,,,,,,,,,,,,109,2023-04-03_16h21.13.803,Main,2022.1.1,61.125516353236534,
positive,red,1,None,None,,,,,,,,,0,170,170,170,,,,,,,,,,,,,,,,,main,None,None,1,1.5018365000141785,566.0564654000336,None,None,1,,,,,,,,,,,,,,109,2023-04-03_16h21.13.803,Main,2022.1.1,61.125516353236534,
negative,blue,2,None,k,,,,,,,,,0,171,171,171,,,,,,,,,,,,,,,,,main,k,k,1,0.8662239999976009,568.559107500012,None,None,0,,,,,,,,,,,,,,109,2023-04-03_16h21.13.803,Main,2022.1.1,61.125516353236534,
positive,blue,2,k,None,,,,,,,,,0,172,172,172,,,,,,,,,,,,,,,,,main,None,None,1,1.496177799999714,570.425695300044,None,None,1,,,,,,,,,,,,,,109,2023-04-03_16h21.13.803,Main,2022.1.1,61.125516353236534,
negative,yellow,2,k,None,,,,,,,,,0,173,173,173,,,,,,,,,,,,,,,,,main,None,None,1,1.5017363000079058,572.9230029000319,None,None,1,,,,,,,,,,,,,,109,2023-04-03_16h21.13.803,Main,2022.1.1,61.125516353236534,
positive,yellow,2,None,k,,,,,,,,,0,174,174,174,,,,,,,,,,,,,,,,,main,k,k,1,0.616239900002256,575.4256346000475,None,None,0,,,,,,,,,,,,,,109,2023-04-03_16h21.13.803,Main,2022.1.1,61.125516353236534,
negative,blue,2,None,k,,,,,,,,,0,175,175,175,,,,,,,,,,,,,,,,,main,k,k,1,0.5800281999981962,577.0422079000273,None,None,0,,,,,,,,,,,,,,109,2023-04-03_16h21.13.803,Main,2022.1.1,61.125516353236534,
positive,blue,1,k,None,,,,,,,,,0,176,176,176,,,,,,,,,,,,,,,,,main,None,None,1,1.501307700003963,578.6228972999961,None,None,1,,,,,,,,,,,,,,109,2023-04-03_16h21.13.803,Main,2022.1.1,61.125516353236534,
positive,yellow,1,None,k,,,,,,,,,0,177,177,177,,,,,,,,,,,,,,,,,main,k,k,1,0.6680398000171408,581.1254427999957,None,None,0,,,,,,,,,,,,,,109,2023-04-03_16h21.13.803,Main,2022.1.1,61.125516353236534,
positive,blue,1,k,None,,,,,,,,,0,178,178,178,,,,,,,,,,,,,,,,,main,None,None,1,1.4940111000323668,582.7921437000041,None,None,1,,,,,,,,,,,,,,109,2023-04-03_16h21.13.803,Main,2022.1.1,61.125516353236534,
positive,yellow,2,None,k,,,,,,,,,0,179,179,179,,,,,,,,,,,,,,,,,main,k,k,1,0.6852702000178397,585.2893857000163,None,None,0,,,,,,,,,,,,,,109,2023-04-03_16h21.13.803,Main,2022.1.1,61.125516353236534,
positive,blue,1,k,None,,,,,,,,,0,180,180,180,,,,,,,,,,,,,,,,,main,None,None,1,1.4993900999543257,586.9753236999968,None,None,1,,,,,,,,,,,,,,109,2023-04-03_16h21.13.803,Main,2022.1.1,61.125516353236534,
negative,red,1,None,None,,,,,,,,,0,181,181,181,,,,,,,,,,,,,,,,,main,None,None,1,1.496157800022047,589.4753318000003,None,None,1,,,,,,,,,,,,,,109,2023-04-03_16h21.13.803,Main,2022.1.1,61.125516353236534,
negative,blue,1,None,k,,,,,,,,,0,182,182,182,,,,,,,,,,,,,,,,,main,k,k,1,0.8521178999799304,591.9726429000148,None,None,0,,,,,,,,,,,,,,109,2023-04-03_16h21.13.803,Main,2022.1.1,61.125516353236534,
negative,yellow,2,k,None,,,,,,,,,0,183,183,183,,,,,,,,,,,,,,,,,main,None,None,1,1.4961888000252657,593.8251983000082,None,None,1,,,,,,,,,,,,,,109,2023-04-03_16h21.13.803,Main,2022.1.1,61.125516353236534,
positive,yellow,2,None,k,,,,,,,,,0,184,184,184,,,,,,,,,,,,,,,,,main,k,k,1,0.6997968999785371,596.3224730000366,None,None,0,,,,,,,,,,,,,,109,2023-04-03_16h21.13.803,Main,2022.1.1,61.125516353236534,
positive,yellow,1,None,k,,,,,,,,,0,185,185,185,,,,,,,,,,,,,,,,,main,k,k,1,0.7016666000126861,598.0225218000123,None,None,0,,,,,,,,,,,,,,109,2023-04-03_16h21.13.803,Main,2022.1.1,61.125516353236534,
positive,red,2,None,None,,,,,,,,,0,186,186,186,,,,,,,,,,,,,,,,,main,None,None,1,1.4960790000041015,599.7250493000029,None,None,1,,,,,,,,,,,,,,109,2023-04-03_16h21.13.803,Main,2022.1.1,61.125516353236534,
positive,blue,1,k,None,,,,,,,,,0,187,187,187,,,,,,,,,,,,,,,,,main,None,None,1,1.5019051000126638,602.2223355000024,None,None,1,,,,,,,,,,,,,,109,2023-04-03_16h21.13.803,Main,2022.1.1,61.125516353236534,
negative,yellow,1,k,None,,,,,,,,,0,188,188,188,,,,,,,,,,,,,,,,,main,None,None,1,1.4990003000129946,604.7249137000181,None,None,1,,,,,,,,,,,,,,109,2023-04-03_16h21.13.803,Main,2022.1.1,61.125516353236534,
positive,yellow,2,None,k,,,,,,,,,0,189,189,189,,,,,,,,,,,,,,,,,main,k,k,1,0.5811518999980763,607.2248712000437,None,None,0,,,,,,,,,,,,,,109,2023-04-03_16h21.13.803,Main,2022.1.1,61.125516353236534,
negative,yellow,2,k,None,,,,,,,,,0,190,190,190,,,,,,,,,,,,,,,,,main,None,None,1,1.501745099958498,608.8055249000317,None,None,1,,,,,,,,,,,,,,109,2023-04-03_16h21.13.803,Main,2022.1.1,61.125516353236534,
negative,yellow,1,k,None,,,,,,,,,0,191,191,191,,,,,,,,,,,,,,,,,main,None,None,1,1.5017418999923393,611.3081960999989,None,None,1,,,,,,,,,,,,,,109,2023-04-03_16h21.13.803,Main,2022.1.1,61.125516353236534,
positive,blue,2,k,None,,,,,,,,,0,192,192,192,,,,,,,,,,,,,,,,,main,None,None,1,1.4937588999746367,613.8100900000427,None,None,1,,,,,,,,,,,,,,109,2023-04-03_16h21.13.803,Main,2022.1.1,61.125516353236534,
positive,yellow,1,None,k,,,,,,,,,0,193,193,193,,,,,,,,,,,,,,,,,main,k,k,1,0.7344121999922208,616.3054097000277,None,None,0,,,,,,,,,,,,,,109,2023-04-03_16h21.13.803,Main,2022.1.1,61.125516353236534,
negative,red,2,None,None,,,,,,,,,0,194,194,194,,,,,,,,,,,,,,,,,main,None,None,1,1.4958754000253975,618.0413089999929,None,None,1,,,,,,,,,,,,,,109,2023-04-03_16h21.13.803,Main,2022.1.1,61.125516353236534,
positive,red,1,None,None,,,,,,,,,0,195,195,195,,,,,,,,,,,,,,,,,main,None,None,1,1.5019150999723934,620.5385870000464,None,None,1,,,,,,,,,,,,,,109,2023-04-03_16h21.13.803,Main,2022.1.1,61.125516353236534,
negative,blue,1,None,k,,,,,,,,,0,196,196,196,,,,,,,,,,,,,,,,,main,k,k,1,0.8327056000125594,623.0412139000255,None,None,0,,,,,,,,,,,,,,109,2023-04-03_16h21.13.803,Main,2022.1.1,61.125516353236534,
positive,blue,2,k,None,,,,,,,,,0,197,197,197,,,,,,,,,,,,,,,,,main,None,None,1,1.4985933999996632,624.8745003000367,None,None,1,,,,,,,,,,,,,,109,2023-04-03_16h21.13.803,Main,2022.1.1,61.125516353236534,
negative,blue,2,None,k,,,,,,,,,0,198,198,198,,,,,,,,,,,,,,,,,main,k,k,1,0.7350338000105694,627.3720231000334,None,None,0,,,,,,,,,,,,,,109,2023-04-03_16h21.13.803,Main,2022.1.1,61.125516353236534,
negative,blue,2,None,k,,,,,,,,,0,199,199,199,,,,,,,,,,,,,,,,,main,k,k,1,0.6110320999869145,629.1124168999959,None,None,0,,,,,,,,,,,,,,109,2023-04-03_16h21.13.803,Main,2022.1.1,61.125516353236534,
positive,blue,2,k,None,,,,,,,,,0,200,200,200,,,,,,,,,,,,,,,,,main,None,None,1,1.5015463999588974,630.7217166000046,None,None,1,,,,,,,,,,,,,,109,2023-04-03_16h21.13.803,Main,2022.1.1,61.125516353236534,
positive,blue,2,k,None,,,,,,,,,0,201,201,201,,,,,,,,,,,,,,,,,main,None,None,1,1.502504299976863,633.2243106000242,None,None,1,,,,,,,,,,,,,,109,2023-04-03_16h21.13.803,Main,2022.1.1,61.125516353236534,
negative,yellow,2,k,None,,,,,,,,,0,202,202,202,,,,,,,,,,,,,,,,,main,None,None,1,1.4931535000214353,635.7240955000161,None,None,1,,,,,,,,,,,,,,109,2023-04-03_16h21.13.803,Main,2022.1.1,61.125516353236534,
positive,red,1,None,None,,,,,,,,,0,203,203,203,,,,,,,,,,,,,,,,,main,None,None,1,1.5019600000232458,638.2215329000028,None,None,1,,,,,,,,,,,,,,109,2023-04-03_16h21.13.803,Main,2022.1.1,61.125516353236534,
negative,blue,2,None,k,,,,,,,,,0,204,204,204,,,,,,,,,,,,,,,,,main,k,k,1,0.7174984000157565,640.7241083999979,None,None,0,,,,,,,,,,,,,,109,2023-04-03_16h21.13.803,Main,2022.1.1,61.125516353236534,
negative,red,1,None,None,,,,,,,,,0,205,205,205,,,,,,,,,,,,,,,,,main,None,None,1,1.4946550999884494,642.4407132000197,None,None,1,,,,,,,,,,,,,,109,2023-04-03_16h21.13.803,Main,2022.1.1,61.125516353236534,
negative,blue,2,None,k,,,,,,,,,0,206,206,206,,,,,,,,,,,,,,,,,main,k,k,1,0.6830048000556417,644.9380520000122,None,None,0,,,,,,,,,,,,,,109,2023-04-03_16h21.13.803,Main,2022.1.1,61.125516353236534,
negative,yellow,2,k,None,,,,,,,,,0,207,207,207,,,,,,,,,,,,,,,,,main,None,None,1,1.501480300037656,646.6213934000116,None,None,1,,,,,,,,,,,,,,109,2023-04-03_16h21.13.803,Main,2022.1.1,61.125516353236534,
positive,yellow,2,None,k,,,,,,,,,0,208,208,208,,,,,,,,,,,,,,,,,main,k,k,1,0.5303547000512481,649.1240126000484,None,None,0,,,,,,,,,,,,,,109,2023-04-03_16h21.13.803,Main,2022.1.1,61.125516353236534,
negative,yellow,1,k,None,,,,,,,,,0,209,209,209,,,,,,,,,,,,,,,,,main,None,None,1,1.5011376999900676,650.657237300009,None,None,1,,,,,,,,,,,,,,109,2023-04-03_16h21.13.803,Main,2022.1.1,61.125516353236534,
negative,red,2,None,None,,,,,,,,,0,210,210,210,,,,,,,,,,,,,,,,,main,None,None,1,1.4965651000384241,653.1548239000258,None,None,1,,,,,,,,,,,,,,109,2023-04-03_16h21.13.803,Main,2022.1.1,61.125516353236534,
negative,blue,1,None,k,,,,,,,,,0,211,211,211,,,,,,,,,,,,,,,,,main,k,k,1,0.6327952000428922,655.6544585000374,None,None,0,,,,,,,,,,,,,,109,2023-04-03_16h21.13.803,Main,2022.1.1,61.125516353236534,
negative,yellow,1,k,None,,,,,,,,,0,212,212,212,,,,,,,,,,,,,,,,,main,None,None,1,1.503118600056041,657.2878324000048,None,None,1,,,,,,,,,,,,,,109,2023-04-03_16h21.13.803,Main,2022.1.1,61.125516353236534,
positive,blue,1,k,None,,,,,,,,,0,213,213,213,,,,,,,,,,,,,,,,,main,None,None,1,1.4974797000177205,659.7903569000191,None,None,1,,,,,,,,,,,,,,109,2023-04-03_16h21.13.803,Main,2022.1.1,61.125516353236534,
positive,blue,1,k,None,,,,,,,,,0,214,214,214,,,,,,,,,,,,,,,,,main,None,None,1,1.496549999981653,662.2901846000459,None,None,1,,,,,,,,,,,,,,109,2023-04-03_16h21.13.803,Main,2022.1.1,61.125516353236534,
positive,yellow,1,None,k,,,,,,,,,0,215,215,215,,,,,,,,,,,,,,,,,main,k,k,1,0.7495335999992676,664.7875874000019,None,None,0,,,,,,,,,,,,,,109,2023-04-03_16h21.13.803,Main,2022.1.1,61.125516353236534,
positive,yellow,1,None,k,,,,,,,,,0,216,216,216,,,,,,,,,,,,,,,,,main,k,k,1,0.7017155000357889,666.5376147000352,None,None,0,,,,,,,,,,,,,,109,2023-04-03_16h21.13.803,Main,2022.1.1,61.125516353236534,
positive,yellow,2,None,k,,,,,,,,,0,217,217,217,,,,,,,,,,,,,,,,,main,k,k,1,0.6339411999797449,668.2401573000243,None,None,0,,,,,,,,,,,,,,109,2023-04-03_16h21.13.803,Main,2022.1.1,61.125516353236534,
negative,blue,1,None,k,,,,,,,,,0,218,218,218,,,,,,,,,,,,,,,,,main,k,k,1,0.7283876999863423,669.873523599992,None,None,0,,,,,,,,,,,,,,109,2023-04-03_16h21.13.803,Main,2022.1.1,61.125516353236534,
positive,red,2,None,None,,,,,,,,,0,219,219,219,,,,,,,,,,,,,,,,,main,None,None,1,1.5016302000149153,671.6041368000442,None,None,1,,,,,,,,,,,,,,109,2023-04-03_16h21.13.803,Main,2022.1.1,61.125516353236534,
positive,yellow,1,None,k,,,,,,,,,0,220,220,220,,,,,,,,,,,,,,,,,main,k,k,1,0.7163525000214577,674.1066936000134,None,None,0,,,,,,,,,,,,,,109,2023-04-03_16h21.13.803,Main,2022.1.1,61.125516353236534,
positive,blue,1,k,None,,,,,,,,,0,221,221,221,,,,,,,,,,,,,,,,,main,None,None,1,1.496058200020343,675.8234399000066,None,None,1,,,,,,,,,,,,,,109,2023-04-03_16h21.13.803,Main,2022.1.1,61.125516353236534,
positive,yellow,2,None,k,,,,,,,,,0,222,222,222,,,,,,,,,,,,,,,,,main,k,k,1,0.6334489000146277,678.3206110000028,None,None,0,,,,,,,,,,,,,,109,2023-04-03_16h21.13.803,Main,2022.1.1,61.125516353236534,
negative,yellow,1,k,None,,,,,,,,,0,223,223,223,,,,,,,,,,,,,,,,,main,None,None,1,1.5009383999858983,679.956542400003,None,None,1,,,,,,,,,,,,,,109,2023-04-03_16h21.13.803,Main,2022.1.1,61.125516353236534,
positive,yellow,2,None,k,,,,,,,,,0,224,224,224,,,,,,,,,,,,,,,,,main,k,k,1,0.5801613999647088,682.4565611000289,None,None,0,,,,,,,,,,,,,,109,2023-04-03_16h21.13.803,Main,2022.1.1,61.125516353236534,
negative,yellow,2,k,None,,,,,,,,,0,225,225,225,,,,,,,,,,,,,,,,,main,None,None,1,1.5014554999652319,684.0371657999931,None,None,1,,,,,,,,,,,,,,109,2023-04-03_16h21.13.803,Main,2022.1.1,61.125516353236534,
negative,blue,2,None,k,,,,,,,,,0,226,226,226,,,,,,,,,,,,,,,,,main,k,k,1,0.6828589999931864,686.5398013000377,None,None,0,,,,,,,,,,,,,,109,2023-04-03_16h21.13.803,Main,2022.1.1,61.125516353236534,
positive,red,2,None,None,,,,,,,,,0,227,227,227,,,,,,,,,,,,,,,,,main,None,None,1,1.4960340000106953,688.2230478000129,None,None,1,,,,,,,,,,,,,,109,2023-04-03_16h21.13.803,Main,2022.1.1,61.125516353236534,
positive,blue,2,k,None,,,,,,,,,0,228,228,228,,,,,,,,,,,,,,,,,main,None,None,1,1.5018903999589384,690.7203731000191,None,None,1,,,,,,,,,,,,,,109,2023-04-03_16h21.13.803,Main,2022.1.1,61.125516353236534,
negative,blue,1,None,k,,,,,,,,,0,229,229,229,,,,,,,,,,,,,,,,,main,k,k,1,0.7995730999973603,693.2229765999946,None,None,0,,,,,,,,,,,,,,109,2023-04-03_16h21.13.803,Main,2022.1.1,61.125516353236534,
positive,yellow,1,None,k,,,,,,,,,0,230,230,230,,,,,,,,,,,,,,,,,main,k,k,1,0.679553699970711,695.0229338000063,None,None,0,,,,,,,,,,,,,,109,2023-04-03_16h21.13.803,Main,2022.1.1,61.125516353236534,
negative,blue,2,None,k,,,,,,,,,0,231,231,231,,,,,,,,,,,,,,,,,main,k,k,1,0.7863287999643944,696.7035604999983,None,None,0,,,,,,,,,,,,,,109,2023-04-03_16h21.13.803,Main,2022.1.1,61.125516353236534,
negative,red,1,None,None,,,,,,,,,0,232,232,232,,,,,,,,,,,,,,,,,main,None,None,1,1.4987012000055984,698.4872129000141,None,None,1,,,,,,,,,,,,,,109,2023-04-03_16h21.13.803,Main,2022.1.1,61.125516353236534,
positive,blue,2,k,None,,,,,,,,,0,233,233,233,,,,,,,,,,,,,,,,,main,None,None,1,1.4971929000457749,700.9894433000009,None,None,1,,,,,,,,,,,,,,109,2023-04-03_16h21.13.803,Main,2022.1.1,61.125516353236534,
negative,yellow,1,k,None,,,,,,,,,0,234,234,234,,,,,,,,,,,,,,,,,main,None,None,1,1.5011581999715418,703.4867932000197,None,None,1,,,,,,,,,,,,,,109,2023-04-03_16h21.13.803,Main,2022.1.1,61.125516353236534,
negative,yellow,2,k,None,,,,,,,,,0,235,235,235,,,,,,,,,,,,,,,,,main,None,None,1,1.4989871000288986,705.9894975000061,None,None,1,,,,,,,,,,,,,,109,2023-04-03_16h21.13.803,Main,2022.1.1,61.125516353236534,
positive,red,1,None,None,,,,,,,,,0,236,236,236,,,,,,,,,,,,,,,,,main,None,None,1,1.4966222000075504,708.4869334000396,None,None,1,,,,,,,,,,,,,,109,2023-04-03_16h21.13.803,Main,2022.1.1,61.125516353236534,
negative,red,2,None,None,,,,,,,,,0,237,237,237,,,,,,,,,,,,,,,,,main,None,None,1,1.5018898000125773,710.9865775000071,None,None,1,,,,,,,,,,,,,,109,2023-04-03_16h21.13.803,Main,2022.1.1,61.125516353236534,
negative,blue,1,None,k,,,,,,,,,0,238,238,238,,,,,,,,,,,,,,,,,main,k,k,1,0.817687799979467,713.4892422000412,None,None,0,,,,,,,,,,,,,,109,2023-04-03_16h21.13.803,Main,2022.1.1,61.125516353236534,
positive,blue,1,k,None,,,,,,,,,0,239,239,239,,,,,,,,,,,,,,,,,main,None,None,1,1.496272400021553,715.3121008000453,None,None,1,,,,,,,,,,,,,,109,2023-04-03_16h21.13.803,Main,2022.1.1,61.125516353236534,
,,,,,,,,,,,,,,,,,,,,,,,,,,,,,,,,,,,,,,,,,,,,,,,,,,,,,717.805649899994,None,,,,,,
