distractor,target,set,ans1,ans2,rep_loop4.thisRepN,rep_loop4.thisTrialN,rep_loop4.thisN,rep_loop4.thisIndex,st2_prac_loop.thisRepN,st2_prac_loop.thisTrialN,st2_prac_loop.thisN,st2_prac_loop.thisIndex,st2_main_loop.thisRepN,st2_main_loop.thisTrialN,st2_main_loop.thisN,st2_main_loop.thisIndex,image_4.started,image_4.stopped,sound_2.started,sound_2.stopped,key_resp_3.keys,key_resp_3.rt,image_5.started,image_5.stopped,st_prac_back.started,st_prac_back.stopped,st_prac_text.started,st_prac_text.stopped,st_fix_back.started,st_fix_back.stopped,st_fix_2.started,st_fix_2.stopped,main_prac,st_ans,st_res,st_corr,st_rt,st_back.started,st_back.stopped,st2_resp.keys,st2_resp.corr,st_main_back.started,st_main_back.stopped,st_main_text.started,st_main_text.stopped,mouse_4.x,mouse_4.y,mouse_4.leftButton,mouse_4.midButton,mouse_4.rightButton,mouse_4.started,mouse_4.stopped,text_2.started,text_2.stopped,id*,date,expName,psychopyVersion,frameRate,
negative,yellow,1,k,None,,,,,0,0,0,0,,,,,31.440978800004814,None,35.832801950001155,None,space,56.64306980004767,92.49817140004598,None,95.16265670000575,None,95.16265670000575,None,97.16230590001214,None,97.16230590001214,None,prac,k,k,1,3.3694269000552595,99.17245240003103,None,None,0,,,,,,,,,,,,,,110,2023-04-04_14h58.19.650,Main,2022.1.1,61.37729421927179,
positive,red,2,None,None,,,,,0,1,1,1,,,,,,,,,,,,,,,,,,,,,prac,None,None,1,1.5021261000074446,104.54767560004257,None,None,1,,,,,,,,,,,,,,110,2023-04-04_14h58.19.650,Main,2022.1.1,61.37729421927179,
negative,blue,2,None,k,,,,,0,2,2,2,,,,,,,,,,,,,,,,,,,,,prac,None,k,0,0.8458703000214882,107.045511000033,None,None,1,,,,,,,,,,,,,,110,2023-04-04_14h58.19.650,Main,2022.1.1,61.37729421927179,
positive,yellow,1,None,k,,,,,0,3,3,3,,,,,,,,,,,,,,,,,,,,,prac,None,None,1,1.4870502999983728,109.91178790002596,None,None,1,,,,,,,,,,,,,,110,2023-04-04_14h58.19.650,Main,2022.1.1,61.37729421927179,
negative,blue,2,None,k,,,,,0,4,4,4,,,,,,,,,,,,,,,,,,,,,prac,None,k,0,0.7824401999823749,112.39776240003994,None,None,1,,,,,,,,,,,,,,110,2023-04-04_14h58.19.650,Main,2022.1.1,61.37729421927179,
negative,blue,1,None,k,,,,,0,5,5,5,,,,,,,,,,,,,,,,,,,,,prac,None,None,1,1.4981919000274502,115.18097079999279,None,None,1,,,,,,,,,,,,,,110,2023-04-04_14h58.19.650,Main,2022.1.1,61.37729421927179,
negative,yellow,2,k,None,,,,,0,6,6,6,,,,,,,,,,,,,,,,,,,,,prac,k,k,1,1.6849470000015572,117.67835000000196,None,None,0,,,,,,,,,,,,,,110,2023-04-04_14h58.19.650,Main,2022.1.1,61.37729421927179,
negative,red,1,None,None,,,,,0,7,7,7,,,,,,,,,,,,,,,,,,,,,prac,None,None,1,1.4991906000068411,121.36422049999237,None,None,1,,,,,,,,,,,,,,110,2023-04-04_14h58.19.650,Main,2022.1.1,61.37729421927179,
positive,yellow,2,None,k,,,,,0,8,8,8,,,,,,,,,,,,,,,,,,,,,prac,None,k,0,1.2509023000020534,123.86157700000331,None,None,1,,,,,,,,,,,,,,110,2023-04-04_14h58.19.650,Main,2022.1.1,61.37729421927179,
negative,yellow,1,k,None,,,,,0,9,9,9,,,,,,,,,,,,,,,,,,,,,prac,k,k,1,0.7321388000273146,127.11406530003296,None,None,0,,,,,,,,,,,,,,110,2023-04-04_14h58.19.650,Main,2022.1.1,61.37729421927179,
positive,yellow,2,None,k,,,,,0,10,10,10,,,,,,,,,,,,,,,,,,,,,prac,None,None,1,1.5010509999701753,128.84473260003142,None,None,1,,,,,,,,,,,,,,110,2023-04-04_14h58.19.650,Main,2022.1.1,61.37729421927179,
negative,yellow,2,k,None,,,,,0,11,11,11,,,,,,,,,,,,,,,,,,,,,prac,k,k,1,0.8327621000353247,131.34738039999502,None,None,0,,,,,,,,,,,,,,110,2023-04-04_14h58.19.650,Main,2022.1.1,61.37729421927179,
negative,red,2,None,None,,,,,0,12,12,12,,,,,,,,,,,,,,,,,,,,,prac,None,None,1,1.4961926999967545,133.18062940001255,None,None,1,,,,,,,,,,,,,,110,2023-04-04_14h58.19.650,Main,2022.1.1,61.37729421927179,
positive,red,1,None,None,,,,,0,13,13,13,,,,,,,,,,,,,,,,,,,,,prac,None,None,1,1.5018871999927796,135.6779794000322,None,None,1,,,,,,,,,,,,,,110,2023-04-04_14h58.19.650,Main,2022.1.1,61.37729421927179,
positive,blue,2,k,None,,,,,0,14,14,14,,,,,,,,,,,,,,,,,,,,,prac,k,k,1,0.6821808000095189,138.18049769999925,None,None,0,,,,,,,,,,,,,,110,2023-04-04_14h58.19.650,Main,2022.1.1,61.37729421927179,
positive,blue,1,k,None,,,,,0,15,15,15,,,,,,,,,,,,,,,,,,,,,prac,k,k,1,0.8492313000024296,139.86367109999992,None,None,0,,,,,,,,,,,,,,110,2023-04-04_14h58.19.650,Main,2022.1.1,61.37729421927179,
negative,blue,1,None,k,,,,,0,16,16,16,,,,,,,,,,,,,,,,,,,,,prac,None,None,1,1.4962642999598756,141.71368450002046,None,None,1,,,,,,,,,,,,,,110,2023-04-04_14h58.19.650,Main,2022.1.1,61.37729421927179,
positive,blue,2,k,None,,,,,0,17,17,17,,,,,,,,,,,,,,,,,,,,,prac,k,k,1,5.835284199973103,144.21107290004147,None,None,0,,,,,,,,,,,,,,110,2023-04-04_14h58.19.650,Main,2022.1.1,61.37729421927179,
positive,blue,1,k,None,,,,,0,18,18,18,,,,,,,,,,,,,,,,,,,,,prac,k,k,1,0.9678031000075862,152.06087839999236,None,None,0,,,,,,,,,,,,,,110,2023-04-04_14h58.19.650,Main,2022.1.1,61.37729421927179,
positive,yellow,1,None,k,,,,,0,19,19,19,,,,,,,,,,,,,,,,,,,,,prac,None,None,1,1.5012253999593668,154.0275571999955,None,None,1,,,,,,,,,,,,,,110,2023-04-04_14h58.19.650,Main,2022.1.1,61.37729421927179,
negative,yellow,1,k,None,,,,,1,0,20,0,,,,,,,,,,,,,,,,,,,,,prac,k,k,1,1.132410800026264,156.53012599999784,None,None,0,,,,,,,,,,,,,,110,2023-04-04_14h58.19.650,Main,2022.1.1,61.37729421927179,
positive,red,2,None,None,,,,,1,1,21,1,,,,,,,,,,,,,,,,,,,,,prac,None,None,1,1.496490299992729,158.66329960001167,None,None,1,,,,,,,,,,,,,,110,2023-04-04_14h58.19.650,Main,2022.1.1,61.37729421927179,
negative,blue,2,None,k,,,,,1,2,22,2,,,,,,,,,,,,,,,,,,,,,prac,None,k,0,0.7328131999820471,161.1606864000205,None,None,1,,,,,,,,,,,,,,110,2023-04-04_14h58.19.650,Main,2022.1.1,61.37729421927179,
positive,yellow,1,None,k,,,,,1,3,23,3,,,,,,,,,,,,,,,,,,,,,prac,None,None,1,1.5010605999850668,163.89663430000655,None,None,1,,,,,,,,,,,,,,110,2023-04-04_14h58.19.650,Main,2022.1.1,61.37729421927179,
negative,blue,2,None,k,,,,,1,4,24,4,,,,,,,,,,,,,,,,,,,,,prac,None,None,1,1.4961078999913298,166.39656840002863,None,None,1,,,,,,,,,,,,,,110,2023-04-04_14h58.19.650,Main,2022.1.1,61.37729421927179,
negative,blue,1,None,k,,,,,1,5,25,5,,,,,,,,,,,,,,,,,,,,,prac,None,None,1,1.5021342999534681,168.89390890003415,None,None,1,,,,,,,,,,,,,,110,2023-04-04_14h58.19.650,Main,2022.1.1,61.37729421927179,
negative,yellow,2,k,None,,,,,1,6,26,6,,,,,,,,,,,,,,,,,,,,,prac,k,k,1,0.9127896999707446,171.39648330002092,None,None,0,,,,,,,,,,,,,,110,2023-04-04_14h58.19.650,Main,2022.1.1,61.37729421927179,
negative,red,1,None,None,,,,,1,7,27,7,,,,,,,,,,,,,,,,,,,,,prac,None,None,1,1.5016411000397056,173.31045340001583,None,None,1,,,,,,,,,,,,,,110,2023-04-04_14h58.19.650,Main,2022.1.1,61.37729421927179,
positive,yellow,2,None,k,,,,,1,8,28,8,,,,,,,,,,,,,,,,,,,,,prac,None,None,1,1.4991251000319608,175.8129908000119,None,None,1,,,,,,,,,,,,,,110,2023-04-04_14h58.19.650,Main,2022.1.1,61.37729421927179,
negative,yellow,1,k,None,,,,,1,9,29,9,,,,,,,,,,,,,,,,,,,,,prac,k,k,1,0.8297477000160143,178.31304650002858,None,None,0,,,,,,,,,,,,,,110,2023-04-04_14h58.19.650,Main,2022.1.1,61.37729421927179,
positive,yellow,2,None,k,,,,,1,10,30,10,,,,,,,,,,,,,,,,,,,,,prac,None,None,1,1.5018293000175618,180.14360950002447,None,None,1,,,,,,,,,,,,,,110,2023-04-04_14h58.19.650,Main,2022.1.1,61.37729421927179,
negative,yellow,2,k,None,,,,,1,11,31,11,,,,,,,,,,,,,,,,,,,,,prac,k,k,1,0.7490246999659576,182.64628330001142,None,None,0,,,,,,,,,,,,,,110,2023-04-04_14h58.19.650,Main,2022.1.1,61.37729421927179,
negative,red,2,None,None,,,,,1,12,32,12,,,,,,,,,,,,,,,,,,,,,prac,None,None,1,1.4988343000295572,184.39622699999018,None,None,1,,,,,,,,,,,,,,110,2023-04-04_14h58.19.650,Main,2022.1.1,61.37729421927179,
positive,red,1,None,None,,,,,1,13,33,13,,,,,,,,,,,,,,,,,,,,,prac,None,None,1,1.4992628999752924,186.89353400003165,None,None,1,,,,,,,,,,,,,,110,2023-04-04_14h58.19.650,Main,2022.1.1,61.37729421927179,
positive,blue,2,k,None,,,,,1,14,34,14,,,,,,,,,,,,,,,,,,,,,prac,k,k,1,0.9303110000328161,189.39610720000928,None,None,0,,,,,,,,,,,,,,110,2023-04-04_14h58.19.650,Main,2022.1.1,61.37729421927179,
positive,blue,1,k,None,,,,,1,15,35,15,,,,,,,,,,,,,,,,,,,,,prac,k,k,1,0.5659176999470219,191.32932700001402,None,None,0,,,,,,,,,,,,,,110,2023-04-04_14h58.19.650,Main,2022.1.1,61.37729421927179,
negative,blue,1,None,k,,,,,1,16,36,16,,,,,,,,,,,,,,,,,,,,,prac,None,None,1,1.4984192000119947,192.89584940002533,None,None,1,,,,,,,,,,,,,,110,2023-04-04_14h58.19.650,Main,2022.1.1,61.37729421927179,
positive,blue,2,k,None,,,,,1,17,37,17,,,,,,,,,,,,,,,,,,,,,prac,k,k,1,1.018374200037215,195.39337559998967,None,None,0,,,,,,,,,,,,,,110,2023-04-04_14h58.19.650,Main,2022.1.1,61.37729421927179,
positive,blue,1,k,None,,,,,1,18,38,18,,,,,,,,,,,,,,,,,,,,,prac,k,k,1,0.6659392999717966,197.41257240000414,None,None,0,,,,,,,,,,,,,,110,2023-04-04_14h58.19.650,Main,2022.1.1,61.37729421927179,
positive,yellow,1,None,k,,,,,1,19,39,19,,,,,,,,,,,,,,,,,,,,,prac,None,None,1,1.4961636000080034,199.07937690004474,None,None,1,,,,,,,,,,,,,,110,2023-04-04_14h58.19.650,Main,2022.1.1,61.37729421927179,
,,,,,,,,,,,,,,,,,,,,,,,,,,,,,,,,,,,,,,,,,,201.57651630003238,None,201.57651630003238,None,-0.8888889,-0.048148148,0,0,0,0.01451894995989278,None,,,110,2023-04-04_14h58.19.650,Main,2022.1.1,61.37729421927179,
negative,yellow,2,k,None,,,,,,,,,0,0,0,0,,,,,,,,,,,,,212.72888230002718,None,212.72888230002718,None,main,k,k,1,1.085921399993822,214.76526790001662,None,None,0,,,,,,,,,,,,,,110,2023-04-04_14h58.19.650,Main,2022.1.1,61.37729421927179,
positive,red,1,None,None,,,,,,,,,0,1,1,1,,,,,,,,,,,,,,,,,main,None,None,1,1.4961522000376135,216.86219730001176,None,None,1,,,,,,,,,,,,,,110,2023-04-04_14h58.19.650,Main,2022.1.1,61.37729421927179,
positive,blue,2,k,None,,,,,,,,,0,2,2,2,,,,,,,,,,,,,,,,,main,k,k,1,1.2658018000074662,219.36527390003903,None,None,0,,,,,,,,,,,,,,110,2023-04-04_14h58.19.650,Main,2022.1.1,61.37729421927179,
positive,blue,1,k,None,,,,,,,,,0,3,3,3,,,,,,,,,,,,,,,,,main,k,k,1,0.8185329000116326,221.62613540003076,None,None,0,,,,,,,,,,,,,,110,2023-04-04_14h58.19.650,Main,2022.1.1,61.37729421927179,
negative,yellow,2,k,None,,,,,,,,,0,4,4,4,,,,,,,,,,,,,,,,,main,k,k,1,0.7824240999761969,223.44525260000955,None,None,0,,,,,,,,,,,,,,110,2023-04-04_14h58.19.650,Main,2022.1.1,61.37729421927179,
positive,yellow,2,None,k,,,,,,,,,0,5,5,5,,,,,,,,,,,,,,,,,main,None,None,1,1.4963685999973677,225.22867570002563,None,None,1,,,,,,,,,,,,,,110,2023-04-04_14h58.19.650,Main,2022.1.1,61.37729421927179,
negative,blue,2,None,k,,,,,,,,,0,6,6,6,,,,,,,,,,,,,,,,,main,None,None,1,1.5018978000152856,227.7259969000006,None,None,1,,,,,,,,,,,,,,110,2023-04-04_14h58.19.650,Main,2022.1.1,61.37729421927179,
positive,red,2,None,None,,,,,,,,,0,7,7,7,,,,,,,,,,,,,,,,,main,None,None,1,1.4989789000246674,230.22857189999195,None,None,1,,,,,,,,,,,,,,110,2023-04-04_14h58.19.650,Main,2022.1.1,61.37729421927179,
positive,yellow,1,None,k,,,,,,,,,0,8,8,8,,,,,,,,,,,,,,,,,main,None,None,1,1.4962964999722317,232.72847510001156,None,None,1,,,,,,,,,,,,,,110,2023-04-04_14h58.19.650,Main,2022.1.1,61.37729421927179,
negative,red,1,None,None,,,,,,,,,0,9,9,9,,,,,,,,,,,,,,,,,main,None,None,1,1.5018978000152856,235.2257615000126,None,None,1,,,,,,,,,,,,,,110,2023-04-04_14h58.19.650,Main,2022.1.1,61.37729421927179,
positive,yellow,1,None,k,,,,,,,,,0,10,10,10,,,,,,,,,,,,,,,,,main,None,None,1,1.4962653000256978,237.72841380001046,None,None,1,,,,,,,,,,,,,,110,2023-04-04_14h58.19.650,Main,2022.1.1,61.37729421927179,
negative,yellow,1,k,None,,,,,,,,,0,11,11,11,,,,,,,,,,,,,,,,,main,k,k,1,0.6159452000283636,240.22566510003526,None,None,0,,,,,,,,,,,,,,110,2023-04-04_14h58.19.650,Main,2022.1.1,61.37729421927179,
negative,yellow,1,k,None,,,,,,,,,0,12,12,12,,,,,,,,,,,,,,,,,main,k,k,1,0.6517815999686718,241.8423565000412,None,None,0,,,,,,,,,,,,,,110,2023-04-04_14h58.19.650,Main,2022.1.1,61.37729421927179,
negative,red,2,None,None,,,,,,,,,0,13,13,13,,,,,,,,,,,,,,,,,main,None,None,1,1.4991990000125952,243.49490940000396,None,None,1,,,,,,,,,,,,,,110,2023-04-04_14h58.19.650,Main,2022.1.1,61.37729421927179,
positive,yellow,2,None,k,,,,,,,,,0,14,14,14,,,,,,,,,,,,,,,,,main,None,None,1,1.4962123000295833,245.9948656000197,None,None,1,,,,,,,,,,,,,,110,2023-04-04_14h58.19.650,Main,2022.1.1,61.37729421927179,
positive,blue,1,k,None,,,,,,,,,0,15,15,15,,,,,,,,,,,,,,,,,main,k,k,1,0.9520454999874346,248.4922139000264,None,None,0,,,,,,,,,,,,,,110,2023-04-04_14h58.19.650,Main,2022.1.1,61.37729421927179,
negative,blue,1,None,k,,,,,,,,,0,16,16,16,,,,,,,,,,,,,,,,,main,None,k,0,0.632495200028643,250.4447080999962,None,None,1,,,,,,,,,,,,,,110,2023-04-04_14h58.19.650,Main,2022.1.1,61.37729421927179,
positive,blue,2,k,None,,,,,,,,,0,17,17,17,,,,,,,,,,,,,,,,,main,k,k,1,0.93466890003765,253.0920546000125,None,None,0,,,,,,,,,,,,,,110,2023-04-04_14h58.19.650,Main,2022.1.1,61.37729421927179,
negative,blue,2,None,k,,,,,,,,,0,18,18,18,,,,,,,,,,,,,,,,,main,None,None,1,1.5013289999915287,255.02538990002358,None,None,1,,,,,,,,,,,,,,110,2023-04-04_14h58.19.650,Main,2022.1.1,61.37729421927179,
negative,blue,1,None,k,,,,,,,,,0,19,19,19,,,,,,,,,,,,,,,,,main,None,None,1,1.4963458999991417,257.52792339998996,None,None,1,,,,,,,,,,,,,,110,2023-04-04_14h58.19.650,Main,2022.1.1,61.37729421927179,
negative,blue,1,None,k,,,,,,,,,0,20,20,20,,,,,,,,,,,,,,,,,main,None,None,1,1.5017701999749988,260.0252468000399,None,None,1,,,,,,,,,,,,,,110,2023-04-04_14h58.19.650,Main,2022.1.1,61.37729421927179,
negative,blue,2,None,k,,,,,,,,,0,21,21,21,,,,,,,,,,,,,,,,,main,None,None,1,1.4964622000115924,262.5278345000115,None,None,1,,,,,,,,,,,,,,110,2023-04-04_14h58.19.650,Main,2022.1.1,61.37729421927179,
negative,red,1,None,None,,,,,,,,,0,22,22,22,,,,,,,,,,,,,,,,,main,None,None,1,1.501954499981366,265.0251263999962,None,None,1,,,,,,,,,,,,,,110,2023-04-04_14h58.19.650,Main,2022.1.1,61.37729421927179,
positive,red,2,None,None,,,,,,,,,0,23,23,23,,,,,,,,,,,,,,,,,main,None,None,1,1.4991780999698676,267.5277720000013,None,None,1,,,,,,,,,,,,,,110,2023-04-04_14h58.19.650,Main,2022.1.1,61.37729421927179,
negative,red,2,None,None,,,,,,,,,0,24,24,24,,,,,,,,,,,,,,,,,main,None,None,1,1.496159699978307,270.0276581000071,None,None,1,,,,,,,,,,,,,,110,2023-04-04_14h58.19.650,Main,2022.1.1,61.37729421927179,
positive,blue,2,k,None,,,,,,,,,0,25,25,25,,,,,,,,,,,,,,,,,main,k,k,1,0.9354633999755606,272.5249635000364,None,None,0,,,,,,,,,,,,,,110,2023-04-04_14h58.19.650,Main,2022.1.1,61.37729421927179,
negative,yellow,1,k,None,,,,,,,,,0,26,26,26,,,,,,,,,,,,,,,,,main,k,k,1,1.0325796999968588,274.460904400039,None,None,0,,,,,,,,,,,,,,110,2023-04-04_14h58.19.650,Main,2022.1.1,61.37729421927179,
positive,blue,2,k,None,,,,,,,,,0,27,27,27,,,,,,,,,,,,,,,,,main,k,k,1,0.912998299987521,276.4941303000087,None,None,0,,,,,,,,,,,,,,110,2023-04-04_14h58.19.650,Main,2022.1.1,61.37729421927179,
negative,blue,2,None,k,,,,,,,,,0,28,28,28,,,,,,,,,,,,,,,,,main,None,None,1,1.503024000034202,278.4081702000112,None,None,1,,,,,,,,,,,,,,110,2023-04-04_14h58.19.650,Main,2022.1.1,61.37729421927179,
positive,red,1,None,None,,,,,,,,,0,29,29,29,,,,,,,,,,,,,,,,,main,None,None,1,1.4950512999785133,280.9107900999952,None,None,1,,,,,,,,,,,,,,110,2023-04-04_14h58.19.650,Main,2022.1.1,61.37729421927179,
positive,blue,1,k,None,,,,,,,,,0,30,30,30,,,,,,,,,,,,,,,,,main,k,k,1,0.7994936999748461,283.4080753000453,None,None,0,,,,,,,,,,,,,,110,2023-04-04_14h58.19.650,Main,2022.1.1,61.37729421927179,
positive,yellow,1,None,k,,,,,,,,,0,31,31,31,,,,,,,,,,,,,,,,,main,None,None,1,1.5016082000220194,285.2080830000341,None,None,1,,,,,,,,,,,,,,110,2023-04-04_14h58.19.650,Main,2022.1.1,61.37729421927179,
negative,yellow,2,k,None,,,,,,,,,0,32,32,32,,,,,,,,,,,,,,,,,main,k,k,1,0.8490373999811709,287.71060019999277,None,None,0,,,,,,,,,,,,,,110,2023-04-04_14h58.19.650,Main,2022.1.1,61.37729421927179,
negative,blue,1,None,k,,,,,,,,,0,33,33,33,,,,,,,,,,,,,,,,,main,None,None,1,1.4963695000042208,289.56047590001253,None,None,1,,,,,,,,,,,,,,110,2023-04-04_14h58.19.650,Main,2022.1.1,61.37729421927179,
positive,blue,1,k,None,,,,,,,,,0,34,34,34,,,,,,,,,,,,,,,,,main,k,k,1,0.7661788000259548,292.0578746999963,None,None,0,,,,,,,,,,,,,,110,2023-04-04_14h58.19.650,Main,2022.1.1,61.37729421927179,
negative,yellow,1,k,None,,,,,,,,,0,35,35,35,,,,,,,,,,,,,,,,,main,k,k,1,0.9351250000181608,293.82456510001794,None,None,0,,,,,,,,,,,,,,110,2023-04-04_14h58.19.650,Main,2022.1.1,61.37729421927179,
positive,yellow,2,None,k,,,,,,,,,0,36,36,36,,,,,,,,,,,,,,,,,main,None,None,1,1.4989098999649286,295.76050030003535,None,None,1,,,,,,,,,,,,,,110,2023-04-04_14h58.19.650,Main,2022.1.1,61.37729421927179,
positive,yellow,2,None,k,,,,,,,,,0,37,37,37,,,,,,,,,,,,,,,,,main,None,None,1,1.4991997999604791,298.2580352000077,None,None,1,,,,,,,,,,,,,,110,2023-04-04_14h58.19.650,Main,2022.1.1,61.37729421927179,
negative,yellow,2,k,None,,,,,,,,,0,38,38,38,,,,,,,,,,,,,,,,,main,k,k,1,0.7799070000182837,300.7602421999909,None,None,0,,,,,,,,,,,,,,110,2023-04-04_14h58.19.650,Main,2022.1.1,61.37729421927179,
positive,yellow,1,None,k,,,,,,,,,0,39,39,39,,,,,,,,,,,,,,,,,main,None,None,1,1.5016814999980852,302.54098240000894,None,None,1,,,,,,,,,,,,,,110,2023-04-04_14h58.19.650,Main,2022.1.1,61.37729421927179,
negative,yellow,2,k,None,,,,,,,,,0,40,40,40,,,,,,,,,,,,,,,,,main,k,k,1,0.7159849000163376,305.04355440003565,None,None,0,,,,,,,,,,,,,,110,2023-04-04_14h58.19.650,Main,2022.1.1,61.37729421927179,
positive,blue,2,k,None,,,,,,,,,0,41,41,41,,,,,,,,,,,,,,,,,main,k,k,1,1.0488940000068396,306.76023660000646,None,None,0,,,,,,,,,,,,,,110,2023-04-04_14h58.19.650,Main,2022.1.1,61.37729421927179,
positive,blue,2,k,None,,,,,,,,,0,42,42,42,,,,,,,,,,,,,,,,,main,k,k,1,0.7136115000466816,308.80779370001983,None,None,0,,,,,,,,,,,,,,110,2023-04-04_14h58.19.650,Main,2022.1.1,61.37729421927179,
negative,blue,2,None,k,,,,,,,,,0,43,43,43,,,,,,,,,,,,,,,,,main,None,None,1,1.4987205999786966,310.52410360000795,None,None,1,,,,,,,,,,,,,,110,2023-04-04_14h58.19.650,Main,2022.1.1,61.37729421927179,
negative,red,1,None,None,,,,,,,,,0,44,44,44,,,,,,,,,,,,,,,,,main,None,None,1,1.5016906000091694,313.0267842000467,None,None,1,,,,,,,,,,,,,,110,2023-04-04_14h58.19.650,Main,2022.1.1,61.37729421927179,
negative,yellow,1,k,None,,,,,,,,,0,45,45,45,,,,,,,,,,,,,,,,,main,k,k,1,0.9302596999914385,315.52671559999,None,None,0,,,,,,,,,,,,,,110,2023-04-04_14h58.19.650,Main,2022.1.1,61.37729421927179,
negative,yellow,1,k,None,,,,,,,,,0,46,46,46,,,,,,,,,,,,,,,,,main,k,k,1,0.6516047000186518,317.45730980002554,None,None,0,,,,,,,,,,,,,,110,2023-04-04_14h58.19.650,Main,2022.1.1,61.37729421927179,
positive,red,1,None,None,,,,,,,,,0,47,47,47,,,,,,,,,,,,,,,,,main,None,None,1,1.4991903000045568,319.1099760000361,None,None,1,,,,,,,,,,,,,,110,2023-04-04_14h58.19.650,Main,2022.1.1,61.37729421927179,
positive,yellow,1,None,k,,,,,,,,,0,48,48,48,,,,,,,,,,,,,,,,,main,None,None,1,1.4988337000249885,321.6098291000235,None,None,1,,,,,,,,,,,,,,110,2023-04-04_14h58.19.650,Main,2022.1.1,61.37729421927179,
negative,blue,1,None,k,,,,,,,,,0,49,49,49,,,,,,,,,,,,,,,,,main,None,None,1,1.496420199982822,324.10970220004674,None,None,1,,,,,,,,,,,,,,110,2023-04-04_14h58.19.650,Main,2022.1.1,61.37729421927179,
positive,yellow,2,None,k,,,,,,,,,0,50,50,50,,,,,,,,,,,,,,,,,main,None,None,1,1.5019411999965087,326.6070920000202,None,None,1,,,,,,,,,,,,,,110,2023-04-04_14h58.19.650,Main,2022.1.1,61.37729421927179,
negative,blue,1,None,k,,,,,,,,,0,51,51,51,,,,,,,,,,,,,,,,,main,None,None,1,1.4990195999853313,329.10750580002787,None,None,1,,,,,,,,,,,,,,110,2023-04-04_14h58.19.650,Main,2022.1.1,61.37729421927179,
positive,red,2,None,None,,,,,,,,,0,52,52,52,,,,,,,,,,,,,,,,,main,None,None,1,1.4964257999672554,331.6096849000314,None,None,1,,,,,,,,,,,,,,110,2023-04-04_14h58.19.650,Main,2022.1.1,61.37729421927179,
positive,yellow,2,None,k,,,,,,,,,0,53,53,53,,,,,,,,,,,,,,,,,main,None,None,1,1.5018279000069015,334.10696120001376,None,None,1,,,,,,,,,,,,,,110,2023-04-04_14h58.19.650,Main,2022.1.1,61.37729421927179,
negative,red,2,None,None,,,,,,,,,0,54,54,54,,,,,,,,,,,,,,,,,main,None,None,1,1.4992066000122577,336.6096122000017,None,None,1,,,,,,,,,,,,,,110,2023-04-04_14h58.19.650,Main,2022.1.1,61.37729421927179,
positive,yellow,1,None,k,,,,,,,,,0,55,55,55,,,,,,,,,,,,,,,,,main,None,None,1,1.4963177000172436,339.10955130000366,None,None,1,,,,,,,,,,,,,,110,2023-04-04_14h58.19.650,Main,2022.1.1,61.37729421927179,
negative,blue,2,None,k,,,,,,,,,0,56,56,56,,,,,,,,,,,,,,,,,main,None,None,1,1.50192229996901,341.6067939000204,None,None,1,,,,,,,,,,,,,,110,2023-04-04_14h58.19.650,Main,2022.1.1,61.37729421927179,
positive,blue,1,k,None,,,,,,,,,0,57,57,57,,,,,,,,,,,,,,,,,main,k,k,1,1.9130469000083394,344.10944210004527,None,None,0,,,,,,,,,,,,,,110,2023-04-04_14h58.19.650,Main,2022.1.1,61.37729421927179,
positive,blue,1,k,None,,,,,,,,,0,58,58,58,,,,,,,,,,,,,,,,,main,k,k,1,0.8038693999988027,348.0233700000099,None,None,0,,,,,,,,,,,,,,110,2023-04-04_14h58.19.650,Main,2022.1.1,61.37729421927179,
negative,yellow,2,k,None,,,,,,,,,0,59,59,59,,,,,,,,,,,,,,,,,main,k,k,1,1.015315999975428,349.82604860002175,None,None,0,,,,,,,,,,,,,,110,2023-04-04_14h58.19.650,Main,2022.1.1,61.37729421927179,
positive,red,2,None,None,,,,,,,,,0,60,60,60,,,,,,,,,,,,,,,,,main,None,None,1,1.496403899975121,351.8426271000062,None,None,1,,,,,,,,,,,,,,110,2023-04-04_14h58.19.650,Main,2022.1.1,61.37729421927179,
negative,yellow,1,k,None,,,,,,,,,0,61,61,61,,,,,,,,,,,,,,,,,main,k,k,1,1.0187384999589995,354.33991320000496,None,None,0,,,,,,,,,,,,,,110,2023-04-04_14h58.19.650,Main,2022.1.1,61.37729421927179,
negative,red,1,None,None,,,,,,,,,0,62,62,62,,,,,,,,,,,,,,,,,main,None,None,1,1.4961415999568999,356.3591517000459,None,None,1,,,,,,,,,,,,,,110,2023-04-04_14h58.19.650,Main,2022.1.1,61.37729421927179,
negative,blue,1,None,k,,,,,,,,,0,63,63,63,,,,,,,,,,,,,,,,,main,None,None,1,1.5017962999991141,358.8564144000411,None,None,1,,,,,,,,,,,,,,110,2023-04-04_14h58.19.650,Main,2022.1.1,61.37729421927179,
positive,blue,2,k,None,,,,,,,,,0,64,64,64,,,,,,,,,,,,,,,,,main,k,k,1,0.8162736000376754,361.35899510001764,None,None,0,,,,,,,,,,,,,,110,2023-04-04_14h58.19.650,Main,2022.1.1,61.37729421927179,
negative,yellow,2,k,None,,,,,,,,,0,65,65,65,,,,,,,,,,,,,,,,,main,k,k,1,1.0800588999991305,363.17564269999275,None,None,0,,,,,,,,,,,,,,110,2023-04-04_14h58.19.650,Main,2022.1.1,61.37729421927179,
positive,yellow,2,None,k,,,,,,,,,0,66,66,66,,,,,,,,,,,,,,,,,main,None,None,1,1.498464900010731,365.2565854000277,None,None,1,,,,,,,,,,,,,,110,2023-04-04_14h58.19.650,Main,2022.1.1,61.37729421927179,
positive,yellow,2,None,k,,,,,,,,,0,67,67,67,,,,,,,,,,,,,,,,,main,None,None,1,1.5017305000219494,367.75622740003746,None,None,1,,,,,,,,,,,,,,110,2023-04-04_14h58.19.650,Main,2022.1.1,61.37729421927179,
positive,red,1,None,None,,,,,,,,,0,68,68,68,,,,,,,,,,,,,,,,,main,None,None,1,1.4992093999753706,370.2588169000228,None,None,1,,,,,,,,,,,,,,110,2023-04-04_14h58.19.650,Main,2022.1.1,61.37729421927179,
positive,yellow,1,None,k,,,,,,,,,0,69,69,69,,,,,,,,,,,,,,,,,main,None,None,1,1.4962433999753557,372.7587452000007,None,None,1,,,,,,,,,,,,,,110,2023-04-04_14h58.19.650,Main,2022.1.1,61.37729421927179,
negative,yellow,2,k,None,,,,,,,,,0,70,70,70,,,,,,,,,,,,,,,,,main,k,k,1,0.7163929999805987,375.2561034000246,None,None,0,,,,,,,,,,,,,,110,2023-04-04_14h58.19.650,Main,2022.1.1,61.37729421927179,
positive,yellow,1,None,k,,,,,,,,,0,71,71,71,,,,,,,,,,,,,,,,,main,None,None,1,1.4987070000497624,376.97540450003,None,None,1,,,,,,,,,,,,,,110,2023-04-04_14h58.19.650,Main,2022.1.1,61.37729421927179,
negative,blue,1,None,k,,,,,,,,,0,72,72,72,,,,,,,,,,,,,,,,,main,None,None,1,1.501566199993249,379.47262170002796,None,None,1,,,,,,,,,,,,,,110,2023-04-04_14h58.19.650,Main,2022.1.1,61.37729421927179,
negative,red,2,None,None,,,,,,,,,0,73,73,73,,,,,,,,,,,,,,,,,main,None,None,1,1.4994045000057667,381.9752422000165,None,None,1,,,,,,,,,,,,,,110,2023-04-04_14h58.19.650,Main,2022.1.1,61.37729421927179,
positive,blue,2,k,None,,,,,,,,,0,74,74,74,,,,,,,,,,,,,,,,,main,k,k,1,0.9989762000041083,384.4751705999952,None,None,0,,,,,,,,,,,,,,110,2023-04-04_14h58.19.650,Main,2022.1.1,61.37729421927179,
negative,blue,2,None,k,,,,,,,,,0,75,75,75,,,,,,,,,,,,,,,,,main,None,None,1,1.4962642000173219,386.4727730000159,None,None,1,,,,,,,,,,,,,,110,2023-04-04_14h58.19.650,Main,2022.1.1,61.37729421927179,
negative,blue,2,None,k,,,,,,,,,0,76,76,76,,,,,,,,,,,,,,,,,main,None,None,1,1.5019988999702036,388.97242480004206,None,None,1,,,,,,,,,,,,,,110,2023-04-04_14h58.19.650,Main,2022.1.1,61.37729421927179,
negative,yellow,1,k,None,,,,,,,,,0,77,77,77,,,,,,,,,,,,,,,,,main,k,k,1,0.8991480999975465,391.47503460000735,None,None,0,,,,,,,,,,,,,,110,2023-04-04_14h58.19.650,Main,2022.1.1,61.37729421927179,
positive,blue,1,k,None,,,,,,,,,0,78,78,78,,,,,,,,,,,,,,,,,main,k,k,1,0.8314800999942236,393.37492219998967,None,None,0,,,,,,,,,,,,,,110,2023-04-04_14h58.19.650,Main,2022.1.1,61.37729421927179,
positive,blue,1,k,None,,,,,,,,,0,79,79,79,,,,,,,,,,,,,,,,,main,k,k,1,0.7642951000016183,395.20559080003295,None,None,0,,,,,,,,,,,,,,110,2023-04-04_14h58.19.650,Main,2022.1.1,61.37729421927179,
positive,red,2,None,None,,,,,,,,,0,80,80,80,,,,,,,,,,,,,,,,,main,None,None,1,1.5019919000333175,396.97229000000516,None,None,1,,,,,,,,,,,,,,110,2023-04-04_14h58.19.650,Main,2022.1.1,61.37729421927179,
positive,yellow,2,None,k,,,,,,,,,0,81,81,81,,,,,,,,,,,,,,,,,main,None,None,1,1.4962905999855138,399.4748780000373,None,None,1,,,,,,,,,,,,,,110,2023-04-04_14h58.19.650,Main,2022.1.1,61.37729421927179,
positive,blue,1,k,None,,,,,,,,,0,82,82,82,,,,,,,,,,,,,,,,,main,k,k,1,1.032134799985215,401.9745830000029,None,None,0,,,,,,,,,,,,,,110,2023-04-04_14h58.19.650,Main,2022.1.1,61.37729421927179,
negative,yellow,2,k,None,,,,,,,,,0,83,83,83,,,,,,,,,,,,,,,,,main,k,k,1,1.0194029999547638,404.0054232000257,None,None,0,,,,,,,,,,,,,,110,2023-04-04_14h58.19.650,Main,2022.1.1,61.37729421927179,
positive,blue,2,k,None,,,,,,,,,0,84,84,84,,,,,,,,,,,,,,,,,main,k,k,1,0.9816276999772526,406.0247070000041,None,None,0,,,,,,,,,,,,,,110,2023-04-04_14h58.19.650,Main,2022.1.1,61.37729421927179,
positive,yellow,1,None,k,,,,,,,,,0,85,85,85,,,,,,,,,,,,,,,,,main,None,None,1,1.4963914999971166,408.0079964000033,None,None,1,,,,,,,,,,,,,,110,2023-04-04_14h58.19.650,Main,2022.1.1,61.37729421927179,
positive,blue,2,k,None,,,,,,,,,0,86,86,86,,,,,,,,,,,,,,,,,main,k,k,1,1.6187371999840252,410.50528640003176,None,None,0,,,,,,,,,,,,,,110,2023-04-04_14h58.19.650,Main,2022.1.1,61.37729421927179,
positive,blue,1,k,None,,,,,,,,,0,87,87,87,,,,,,,,,,,,,,,,,main,k,k,1,0.7513014000141993,414.1245273000095,None,None,0,,,,,,,,,,,,,,110,2023-04-04_14h58.19.650,Main,2022.1.1,61.37729421927179,
negative,yellow,2,k,None,,,,,,,,,0,88,88,88,,,,,,,,,,,,,,,,,main,k,k,1,0.9390096999704838,415.8743912000209,None,None,0,,,,,,,,,,,,,,110,2023-04-04_14h58.19.650,Main,2022.1.1,61.37729421927179,
negative,blue,2,None,k,,,,,,,,,0,89,89,89,,,,,,,,,,,,,,,,,main,None,None,1,1.4892519999993965,417.81844820000697,None,None,1,,,,,,,,,,,,,,110,2023-04-04_14h58.19.650,Main,2022.1.1,61.37729421927179,
positive,yellow,2,None,k,,,,,,,,,0,90,90,90,,,,,,,,,,,,,,,,,main,None,None,1,1.5018138000159524,420.30514400004176,None,None,1,,,,,,,,,,,,,,110,2023-04-04_14h58.19.650,Main,2022.1.1,61.37729421927179,
negative,yellow,1,k,None,,,,,,,,,0,91,91,91,,,,,,,,,,,,,,,,,main,k,k,1,0.6823087999946438,422.8077314000111,None,None,0,,,,,,,,,,,,,,110,2023-04-04_14h58.19.650,Main,2022.1.1,61.37729421927179,
negative,red,2,None,None,,,,,,,,,0,92,92,92,,,,,,,,,,,,,,,,,main,None,None,1,1.4963409000192769,424.4886026000022,None,None,1,,,,,,,,,,,,,,110,2023-04-04_14h58.19.650,Main,2022.1.1,61.37729421927179,
negative,blue,2,None,k,,,,,,,,,0,93,93,93,,,,,,,,,,,,,,,,,main,None,None,1,1.4992976000066847,426.98824490001425,None,None,1,,,,,,,,,,,,,,110,2023-04-04_14h58.19.650,Main,2022.1.1,61.37729421927179,
negative,blue,1,None,k,,,,,,,,,0,94,94,94,,,,,,,,,,,,,,,,,main,None,None,1,1.5017591000068933,429.4882689000224,None,None,1,,,,,,,,,,,,,,110,2023-04-04_14h58.19.650,Main,2022.1.1,61.37729421927179,
negative,blue,1,None,k,,,,,,,,,0,95,95,95,,,,,,,,,,,,,,,,,main,None,None,1,1.4987747000413947,431.9908029999933,None,None,1,,,,,,,,,,,,,,110,2023-04-04_14h58.19.650,Main,2022.1.1,61.37729421927179,
negative,red,1,None,None,,,,,,,,,0,96,96,96,,,,,,,,,,,,,,,,,main,None,None,1,1.4966668999986723,434.49073670001235,None,None,1,,,,,,,,,,,,,,110,2023-04-04_14h58.19.650,Main,2022.1.1,61.37729421927179,
positive,yellow,1,None,k,,,,,,,,,0,97,97,97,,,,,,,,,,,,,,,,,main,None,None,1,1.5020224999752827,436.98803090001456,None,None,1,,,,,,,,,,,,,,110,2023-04-04_14h58.19.650,Main,2022.1.1,61.37729421927179,
negative,yellow,1,k,None,,,,,,,,,0,98,98,98,,,,,,,,,,,,,,,,,main,k,k,1,0.8991585999610834,439.49065729998983,None,None,0,,,,,,,,,,,,,,110,2023-04-04_14h58.19.650,Main,2022.1.1,61.37729421927179,
positive,red,1,None,None,,,,,,,,,0,99,99,99,,,,,,,,,,,,,,,,,main,None,None,1,1.4962147999904118,441.3883788000094,None,None,1,,,,,,,,,,,,,,110,2023-04-04_14h58.19.650,Main,2022.1.1,61.37729421927179,
positive,blue,1,k,None,,,,,,,,,0,100,100,100,,,,,,,,,,,,,,,,,main,k,k,1,1.1688403000007384,443.88790070003597,None,None,0,,,,,,,,,,,,,,110,2023-04-04_14h58.19.650,Main,2022.1.1,61.37729421927179,
negative,yellow,1,k,None,,,,,,,,,0,101,101,101,,,,,,,,,,,,,,,,,main,k,k,1,0.9801066999789327,446.05734270001994,None,None,0,,,,,,,,,,,,,,110,2023-04-04_14h58.19.650,Main,2022.1.1,61.37729421927179,
negative,blue,2,None,k,,,,,,,,,0,102,102,102,,,,,,,,,,,,,,,,,main,None,None,1,1.5010204000282101,448.0406374000013,None,None,1,,,,,,,,,,,,,,110,2023-04-04_14h58.19.650,Main,2022.1.1,61.37729421927179,
negative,yellow,2,k,None,,,,,,,,,0,103,103,103,,,,,,,,,,,,,,,,,main,k,k,1,1.013534699974116,450.53805100003956,None,None,0,,,,,,,,,,,,,,110,2023-04-04_14h58.19.650,Main,2022.1.1,61.37729421927179,
positive,yellow,2,None,k,,,,,,,,,0,104,104,104,,,,,,,,,,,,,,,,,main,None,None,1,1.5017175000393763,452.55437950004125,None,None,1,,,,,,,,,,,,,,110,2023-04-04_14h58.19.650,Main,2022.1.1,61.37729421927179,
positive,blue,1,k,None,,,,,,,,,0,105,105,105,,,,,,,,,,,,,,,,,main,k,k,1,1.3825532999471761,455.05700010003056,None,None,0,,,,,,,,,,,,,,110,2023-04-04_14h58.19.650,Main,2022.1.1,61.37729421927179,
positive,blue,2,k,None,,,,,,,,,0,106,106,106,,,,,,,,,,,,,,,,,main,k,k,1,0.7631590999662876,457.4380236000288,None,None,0,,,,,,,,,,,,,,110,2023-04-04_14h58.19.650,Main,2022.1.1,61.37729421927179,
negative,blue,1,None,k,,,,,,,,,0,107,107,107,,,,,,,,,,,,,,,,,main,None,None,1,1.5017650000518188,459.20419499999844,None,None,1,,,,,,,,,,,,,,110,2023-04-04_14h58.19.650,Main,2022.1.1,61.37729421927179,
positive,yellow,2,None,k,,,,,,,,,0,108,108,108,,,,,,,,,,,,,,,,,main,None,None,1,1.4987579999724403,461.70686969999224,None,None,1,,,,,,,,,,,,,,110,2023-04-04_14h58.19.650,Main,2022.1.1,61.37729421927179,
negative,yellow,1,k,None,,,,,,,,,0,109,109,109,,,,,,,,,,,,,,,,,main,k,k,1,0.7138374000205658,464.2067173999967,None,None,0,,,,,,,,,,,,,,110,2023-04-04_14h58.19.650,Main,2022.1.1,61.37729421927179,
negative,blue,2,None,k,,,,,,,,,0,110,110,110,,,,,,,,,,,,,,,,,main,None,None,1,1.4986533999908715,465.92330460000085,None,None,1,,,,,,,,,,,,,,110,2023-04-04_14h58.19.650,Main,2022.1.1,61.37729421927179,
positive,blue,2,k,None,,,,,,,,,0,111,111,111,,,,,,,,,,,,,,,,,main,k,k,1,1.0687933000153862,468.42070080002304,None,None,0,,,,,,,,,,,,,,110,2023-04-04_14h58.19.650,Main,2022.1.1,61.37729421927179,
negative,blue,1,None,k,,,,,,,,,0,112,112,112,,,,,,,,,,,,,,,,,main,None,None,1,1.498900699953083,470.49001230002614,None,None,1,,,,,,,,,,,,,,110,2023-04-04_14h58.19.650,Main,2022.1.1,61.37729421927179,
positive,yellow,1,None,k,,,,,,,,,0,113,113,113,,,,,,,,,,,,,,,,,main,None,None,1,1.4965081999544054,472.98994450003374,None,None,1,,,,,,,,,,,,,,110,2023-04-04_14h58.19.650,Main,2022.1.1,61.37729421927179,
negative,red,1,None,None,,,,,,,,,0,114,114,114,,,,,,,,,,,,,,,,,main,None,None,1,1.5014500999823213,475.4872402000474,None,None,1,,,,,,,,,,,,,,110,2023-04-04_14h58.19.650,Main,2022.1.1,61.37729421927179,
positive,red,1,None,None,,,,,,,,,0,115,115,115,,,,,,,,,,,,,,,,,main,None,None,1,1.4965207999921404,477.9897956000059,None,None,1,,,,,,,,,,,,,,110,2023-04-04_14h58.19.650,Main,2022.1.1,61.37729421927179,
negative,red,2,None,None,,,,,,,,,0,116,116,116,,,,,,,,,,,,,,,,,main,None,None,1,1.5019423000048846,480.4870926000294,None,None,1,,,,,,,,,,,,,,110,2023-04-04_14h58.19.650,Main,2022.1.1,61.37729421927179,
negative,yellow,2,k,None,,,,,,,,,0,117,117,117,,,,,,,,,,,,,,,,,main,k,k,1,1.0161018999642693,482.98976339999354,None,None,0,,,,,,,,,,,,,,110,2023-04-04_14h58.19.650,Main,2022.1.1,61.37729421927179,
positive,yellow,1,None,k,,,,,,,,,0,118,118,118,,,,,,,,,,,,,,,,,main,None,None,1,1.4963311999454163,485.0063877000357,None,None,1,,,,,,,,,,,,,,110,2023-04-04_14h58.19.650,Main,2022.1.1,61.37729421927179,
positive,red,2,None,None,,,,,,,,,0,119,119,119,,,,,,,,,,,,,,,,,main,None,None,1,1.5016844000201672,487.5036721000215,None,None,1,,,,,,,,,,,,,,110,2023-04-04_14h58.19.650,Main,2022.1.1,61.37729421927179,
positive,blue,2,k,None,,,,,,,,,0,120,120,120,,,,,,,,,,,,,,,,,main,k,k,1,1.9297202000161633,490.0062746999902,None,None,0,,,,,,,,,,,,,,110,2023-04-04_14h58.19.650,Main,2022.1.1,61.37729421927179,
negative,red,1,None,None,,,,,,,,,0,121,121,121,,,,,,,,,,,,,,,,,main,None,None,1,1.486912399996072,493.9368519000127,None,None,1,,,,,,,,,,,,,,110,2023-04-04_14h58.19.650,Main,2022.1.1,61.37729421927179,
positive,yellow,2,None,k,,,,,,,,,0,122,122,122,,,,,,,,,,,,,,,,,main,None,None,1,1.4961645000148565,496.42344220000086,None,None,1,,,,,,,,,,,,,,110,2023-04-04_14h58.19.650,Main,2022.1.1,61.37729421927179,
negative,red,2,None,None,,,,,,,,,0,123,123,123,,,,,,,,,,,,,,,,,main,None,None,1,1.5018519000150263,498.92002499999944,None,None,1,,,,,,,,,,,,,,110,2023-04-04_14h58.19.650,Main,2022.1.1,61.37729421927179,
negative,yellow,2,k,None,,,,,,,,,0,124,124,124,,,,,,,,,,,,,,,,,main,k,k,1,0.9969696000334807,501.4226178000099,None,None,0,,,,,,,,,,,,,,110,2023-04-04_14h58.19.650,Main,2022.1.1,61.37729421927179,
positive,red,1,None,None,,,,,,,,,0,125,125,125,,,,,,,,,,,,,,,,,main,None,None,1,1.4977607000037096,503.4203305999981,None,None,1,,,,,,,,,,,,,,110,2023-04-04_14h58.19.650,Main,2022.1.1,61.37729421927179,
negative,blue,2,None,k,,,,,,,,,0,126,126,126,,,,,,,,,,,,,,,,,main,None,None,1,1.5009420000133105,505.91993550001644,None,None,1,,,,,,,,,,,,,,110,2023-04-04_14h58.19.650,Main,2022.1.1,61.37729421927179,
negative,blue,1,None,k,,,,,,,,,0,127,127,127,,,,,,,,,,,,,,,,,main,None,None,1,1.4958849999820814,508.4225045000203,None,None,1,,,,,,,,,,,,,,110,2023-04-04_14h58.19.650,Main,2022.1.1,61.37729421927179,
negative,yellow,1,k,None,,,,,,,,,0,128,128,128,,,,,,,,,,,,,,,,,main,k,k,1,0.9872036000015214,510.9223508000141,None,None,0,,,,,,,,,,,,,,110,2023-04-04_14h58.19.650,Main,2022.1.1,61.37729421927179,
negative,yellow,1,k,None,,,,,,,,,0,129,129,129,,,,,,,,,,,,,,,,,main,k,k,1,0.7932291000033729,512.9117534999968,None,None,0,,,,,,,,,,,,,,110,2023-04-04_14h58.19.650,Main,2022.1.1,61.37729421927179,
positive,blue,1,k,None,,,,,,,,,0,130,130,130,,,,,,,,,,,,,,,,,main,k,k,1,0.8852714999811724,514.7029944999958,None,None,0,,,,,,,,,,,,,,110,2023-04-04_14h58.19.650,Main,2022.1.1,61.37729421927179,
negative,blue,1,None,k,,,,,,,,,0,131,131,131,,,,,,,,,,,,,,,,,main,None,None,1,1.498731100000441,516.5891072000377,None,None,1,,,,,,,,,,,,,,110,2023-04-04_14h58.19.650,Main,2022.1.1,61.37729421927179,
negative,blue,2,None,k,,,,,,,,,0,132,132,132,,,,,,,,,,,,,,,,,main,None,None,1,1.496749699988868,519.0888894000091,None,None,1,,,,,,,,,,,,,,110,2023-04-04_14h58.19.650,Main,2022.1.1,61.37729421927179,
positive,blue,2,k,None,,,,,,,,,0,133,133,133,,,,,,,,,,,,,,,,,main,k,k,1,2.285273799963761,521.5862124999985,None,None,0,,,,,,,,,,,,,,110,2023-04-04_14h58.19.650,Main,2022.1.1,61.37729421927179,
positive,red,2,None,None,,,,,,,,,0,134,134,134,,,,,,,,,,,,,,,,,main,None,None,1,1.498267200018745,525.8720665000146,None,None,1,,,,,,,,,,,,,,110,2023-04-04_14h58.19.650,Main,2022.1.1,61.37729421927179,
negative,yellow,2,k,None,,,,,,,,,0,135,135,135,,,,,,,,,,,,,,,,,main,k,k,1,1.1352181999827735,528.3693759000162,None,None,0,,,,,,,,,,,,,,110,2023-04-04_14h58.19.650,Main,2022.1.1,61.37729421927179,
positive,yellow,2,None,k,,,,,,,,,0,136,136,136,,,,,,,,,,,,,,,,,main,None,None,1,1.498822099994868,530.5030760000227,None,None,1,,,,,,,,,,,,,,110,2023-04-04_14h58.19.650,Main,2022.1.1,61.37729421927179,
positive,blue,1,k,None,,,,,,,,,0,137,137,137,,,,,,,,,,,,,,,,,main,k,k,1,1.0798760000034235,533.0052350999904,None,None,0,,,,,,,,,,,,,,110,2023-04-04_14h58.19.650,Main,2022.1.1,61.37729421927179,
positive,yellow,1,None,k,,,,,,,,,0,138,138,138,,,,,,,,,,,,,,,,,main,None,None,1,1.503752999997232,535.0858955000294,None,None,1,,,,,,,,,,,,,,110,2023-04-04_14h58.19.650,Main,2022.1.1,61.37729421927179,
positive,yellow,1,None,k,,,,,,,,,0,139,139,139,,,,,,,,,,,,,,,,,main,None,None,1,1.4966898999991827,537.5885655000457,None,None,1,,,,,,,,,,,,,,110,2023-04-04_14h58.19.650,Main,2022.1.1,61.37729421927179,
positive,yellow,1,None,k,,,,,,,,,0,140,140,140,,,,,,,,,,,,,,,,,main,None,None,1,1.4967876999871805,540.0883365999907,None,None,1,,,,,,,,,,,,,,110,2023-04-04_14h58.19.650,Main,2022.1.1,61.37729421927179,
positive,blue,1,k,None,,,,,,,,,0,141,141,141,,,,,,,,,,,,,,,,,main,k,k,1,1.0326764000346884,542.5857326000114,None,None,0,,,,,,,,,,,,,,110,2023-04-04_14h58.19.650,Main,2022.1.1,61.37729421927179,
positive,blue,2,k,None,,,,,,,,,0,142,142,142,,,,,,,,,,,,,,,,,main,k,k,1,0.8353044999530539,544.6190882000374,None,None,0,,,,,,,,,,,,,,110,2023-04-04_14h58.19.650,Main,2022.1.1,61.37729421927179,
positive,yellow,2,None,k,,,,,,,,,0,143,143,143,,,,,,,,,,,,,,,,,main,None,None,1,1.4986413999577053,546.4551619000267,None,None,1,,,,,,,,,,,,,,110,2023-04-04_14h58.19.650,Main,2022.1.1,61.37729421927179,
negative,yellow,2,k,None,,,,,,,,,0,144,144,144,,,,,,,,,,,,,,,,,main,k,k,1,0.7326697999960743,548.9547866000212,None,None,0,,,,,,,,,,,,,,110,2023-04-04_14h58.19.650,Main,2022.1.1,61.37729421927179,
negative,blue,2,None,k,,,,,,,,,0,145,145,145,,,,,,,,,,,,,,,,,main,None,None,1,1.496075400034897,550.6859083000454,None,None,1,,,,,,,,,,,,,,110,2023-04-04_14h58.19.650,Main,2022.1.1,61.37729421927179,
negative,red,1,None,None,,,,,,,,,0,146,146,146,,,,,,,,,,,,,,,,,main,None,None,1,1.501462999964133,553.185544500011,None,None,1,,,,,,,,,,,,,,110,2023-04-04_14h58.19.650,Main,2022.1.1,61.37729421927179,
positive,blue,1,k,None,,,,,,,,,0,147,147,147,,,,,,,,,,,,,,,,,main,k,k,1,1.2634904000442475,555.6881037999992,None,None,0,,,,,,,,,,,,,,110,2023-04-04_14h58.19.650,Main,2022.1.1,61.37729421927179,
positive,yellow,1,None,k,,,,,,,,,0,148,148,148,,,,,,,,,,,,,,,,,main,None,None,1,1.5018070000223815,557.9520470999996,None,None,1,,,,,,,,,,,,,,110,2023-04-04_14h58.19.650,Main,2022.1.1,61.37729421927179,
negative,red,2,None,None,,,,,,,,,0,149,149,149,,,,,,,,,,,,,,,,,main,None,None,1,1.4989596999948844,560.454720400041,None,None,1,,,,,,,,,,,,,,110,2023-04-04_14h58.19.650,Main,2022.1.1,61.37729421927179,
negative,blue,1,None,k,,,,,,,,,0,150,150,150,,,,,,,,,,,,,,,,,main,None,None,1,1.4963081000023521,562.954631200002,None,None,1,,,,,,,,,,,,,,110,2023-04-04_14h58.19.650,Main,2022.1.1,61.37729421927179,
negative,yellow,2,k,None,,,,,,,,,0,151,151,151,,,,,,,,,,,,,,,,,main,k,k,1,0.935216500016395,565.4519517000299,None,None,0,,,,,,,,,,,,,,110,2023-04-04_14h58.19.650,Main,2022.1.1,61.37729421927179,
negative,blue,2,None,k,,,,,,,,,0,152,152,152,,,,,,,,,,,,,,,,,main,None,None,1,1.4961007999954745,567.3879041000037,None,None,1,,,,,,,,,,,,,,110,2023-04-04_14h58.19.650,Main,2022.1.1,61.37729421927179,
negative,yellow,1,k,None,,,,,,,,,0,153,153,153,,,,,,,,,,,,,,,,,main,k,k,1,0.9498059999896213,569.8851398000261,None,None,0,,,,,,,,,,,,,,110,2023-04-04_14h58.19.650,Main,2022.1.1,61.37729421927179,
negative,blue,1,None,k,,,,,,,,,0,154,154,154,,,,,,,,,,,,,,,,,main,None,None,1,1.2690542999771424,571.8351474000374,None,None,1,,,,,,,,,,,,,,110,2023-04-04_14h58.19.650,Main,2022.1.1,61.37729421927179,
positive,yellow,2,None,k,,,,,,,,,0,155,155,155,,,,,,,,,,,,,,,,,main,None,k,0,1.4977026999695227,574.1022082000272,None,None,1,,,,,,,,,,,,,,110,2023-04-04_14h58.19.650,Main,2022.1.1,61.37729421927179,
positive,red,2,None,None,,,,,,,,,0,156,156,156,,,,,,,,,,,,,,,,,main,None,None,1,1.4986771999974735,577.6042332000216,None,None,1,,,,,,,,,,,,,,110,2023-04-04_14h58.19.650,Main,2022.1.1,61.37729421927179,
positive,red,1,None,None,,,,,,,,,0,157,157,157,,,,,,,,,,,,,,,,,main,None,None,1,1.501411899982486,580.1016431000317,None,None,1,,,,,,,,,,,,,,110,2023-04-04_14h58.19.650,Main,2022.1.1,61.37729421927179,
positive,blue,2,k,None,,,,,,,,,0,158,158,158,,,,,,,,,,,,,,,,,main,k,k,1,1.363557500008028,582.6042318000109,None,None,0,,,,,,,,,,,,,,110,2023-04-04_14h58.19.650,Main,2022.1.1,61.37729421927179,
negative,yellow,1,k,None,,,,,,,,,0,159,159,159,,,,,,,,,,,,,,,,,main,k,k,1,0.9323602999793366,584.9707734000403,None,None,0,,,,,,,,,,,,,,110,2023-04-04_14h58.19.650,Main,2022.1.1,61.37729421927179,
negative,red,2,None,None,,,,,,,,,0,160,160,160,,,,,,,,,,,,,,,,,main,None,None,1,1.501320100040175,586.9039518000209,None,None,1,,,,,,,,,,,,,,110,2023-04-04_14h58.19.650,Main,2022.1.1,61.37729421927179,
negative,blue,1,None,k,,,,,,,,,0,161,161,161,,,,,,,,,,,,,,,,,main,None,None,1,1.4991775000235066,589.4038352000061,None,None,1,,,,,,,,,,,,,,110,2023-04-04_14h58.19.650,Main,2022.1.1,61.37729421927179,
negative,blue,1,None,k,,,,,,,,,0,162,162,162,,,,,,,,,,,,,,,,,main,None,None,1,1.4965684000053443,591.9038833000232,None,None,1,,,,,,,,,,,,,,110,2023-04-04_14h58.19.650,Main,2022.1.1,61.37729421927179,
negative,yellow,1,k,None,,,,,,,,,0,163,163,163,,,,,,,,,,,,,,,,,main,k,k,1,1.5329986999859102,594.401245200017,None,None,0,,,,,,,,,,,,,,110,2023-04-04_14h58.19.650,Main,2022.1.1,61.37729421927179,
negative,yellow,1,k,None,,,,,,,,,0,164,164,164,,,,,,,,,,,,,,,,,main,k,k,1,0.7335172999883071,597.9372075000429,None,None,0,,,,,,,,,,,,,,110,2023-04-04_14h58.19.650,Main,2022.1.1,61.37729421927179,
positive,yellow,1,None,k,,,,,,,,,0,165,165,165,,,,,,,,,,,,,,,,,main,None,None,1,1.4976364000467584,599.6681203999906,None,None,1,,,,,,,,,,,,,,110,2023-04-04_14h58.19.650,Main,2022.1.1,61.37729421927179,
negative,red,1,None,None,,,,,,,,,0,166,166,166,,,,,,,,,,,,,,,,,main,None,None,1,1.501971899997443,602.1677678000415,None,None,1,,,,,,,,,,,,,,110,2023-04-04_14h58.19.650,Main,2022.1.1,61.37729421927179,
negative,yellow,2,k,None,,,,,,,,,0,167,167,167,,,,,,,,,,,,,,,,,main,k,k,1,0.9148233999731019,604.6704089000123,None,None,0,,,,,,,,,,,,,,110,2023-04-04_14h58.19.650,Main,2022.1.1,61.37729421927179,
positive,blue,2,k,None,,,,,,,,,0,168,168,168,,,,,,,,,,,,,,,,,main,k,k,1,1.26319379999768,606.5870270000305,None,None,0,,,,,,,,,,,,,,110,2023-04-04_14h58.19.650,Main,2022.1.1,61.37729421927179,
positive,red,2,None,None,,,,,,,,,0,169,169,169,,,,,,,,,,,,,,,,,main,None,None,1,1.501572799985297,608.8510824000114,None,None,1,,,,,,,,,,,,,,110,2023-04-04_14h58.19.650,Main,2022.1.1,61.37729421927179,
positive,red,1,None,None,,,,,,,,,0,170,170,170,,,,,,,,,,,,,,,,,main,None,None,1,1.4965194000396878,611.3535449000192,None,None,1,,,,,,,,,,,,,,110,2023-04-04_14h58.19.650,Main,2022.1.1,61.37729421927179,
negative,blue,2,None,k,,,,,,,,,0,171,171,171,,,,,,,,,,,,,,,,,main,None,None,1,1.499177499965299,613.8507811000454,None,None,1,,,,,,,,,,,,,,110,2023-04-04_14h58.19.650,Main,2022.1.1,61.37729421927179,
positive,blue,2,k,None,,,,,,,,,0,172,172,172,,,,,,,,,,,,,,,,,main,k,k,1,0.851922600006219,616.3508417000412,None,None,0,,,,,,,,,,,,,,110,2023-04-04_14h58.19.650,Main,2022.1.1,61.37729421927179,
negative,yellow,2,k,None,,,,,,,,,0,173,173,173,,,,,,,,,,,,,,,,,main,k,k,1,0.9155459000030532,618.2035599999945,None,None,0,,,,,,,,,,,,,,110,2023-04-04_14h58.19.650,Main,2022.1.1,61.37729421927179,
positive,yellow,2,None,k,,,,,,,,,0,174,174,174,,,,,,,,,,,,,,,,,main,None,None,1,1.496209800010547,620.1176730000298,None,None,1,,,,,,,,,,,,,,110,2023-04-04_14h58.19.650,Main,2022.1.1,61.37729421927179,
negative,blue,2,None,k,,,,,,,,,0,175,175,175,,,,,,,,,,,,,,,,,main,None,None,1,1.501948299992364,622.6172938999953,None,None,1,,,,,,,,,,,,,,110,2023-04-04_14h58.19.650,Main,2022.1.1,61.37729421927179,
positive,blue,1,k,None,,,,,,,,,0,176,176,176,,,,,,,,,,,,,,,,,main,k,k,1,0.7490137999993749,625.119957500021,None,None,0,,,,,,,,,,,,,,110,2023-04-04_14h58.19.650,Main,2022.1.1,61.37729421927179,
positive,yellow,1,None,k,,,,,,,,,0,177,177,177,,,,,,,,,,,,,,,,,main,None,None,1,1.496429499995429,626.8700620000018,None,None,1,,,,,,,,,,,,,,110,2023-04-04_14h58.19.650,Main,2022.1.1,61.37729421927179,
positive,blue,1,k,None,,,,,,,,,0,178,178,178,,,,,,,,,,,,,,,,,main,k,k,1,1.46647220000159,629.3672219000291,None,None,0,,,,,,,,,,,,,,110,2023-04-04_14h58.19.650,Main,2022.1.1,61.37729421927179,
positive,yellow,2,None,k,,,,,,,,,0,179,179,179,,,,,,,,,,,,,,,,,main,None,None,1,1.5008557999972254,631.8365778000443,None,None,1,,,,,,,,,,,,,,110,2023-04-04_14h58.19.650,Main,2022.1.1,61.37729421927179,
positive,blue,1,k,None,,,,,,,,,0,180,180,180,,,,,,,,,,,,,,,,,main,k,k,1,1.1299920000019483,634.3363457000232,None,None,0,,,,,,,,,,,,,,110,2023-04-04_14h58.19.650,Main,2022.1.1,61.37729421927179,
negative,red,1,None,None,,,,,,,,,0,181,181,181,,,,,,,,,,,,,,,,,main,None,None,1,1.5026130999904126,636.4670195000363,None,None,1,,,,,,,,,,,,,,110,2023-04-04_14h58.19.650,Main,2022.1.1,61.37729421927179,
negative,blue,1,None,k,,,,,,,,,0,182,182,182,,,,,,,,,,,,,,,,,main,None,None,1,1.4981976000126451,638.9670146999997,None,None,1,,,,,,,,,,,,,,110,2023-04-04_14h58.19.650,Main,2022.1.1,61.37729421927179,
negative,yellow,2,k,None,,,,,,,,,0,183,183,183,,,,,,,,,,,,,,,,,main,k,k,1,0.9334594999672845,641.4695715000271,None,None,0,,,,,,,,,,,,,,110,2023-04-04_14h58.19.650,Main,2022.1.1,61.37729421927179,
positive,yellow,2,None,k,,,,,,,,,0,184,184,184,,,,,,,,,,,,,,,,,main,None,None,1,1.4948461000458337,643.4026635999908,None,None,1,,,,,,,,,,,,,,110,2023-04-04_14h58.19.650,Main,2022.1.1,61.37729421927179,
positive,yellow,1,None,k,,,,,,,,,0,185,185,185,,,,,,,,,,,,,,,,,main,None,None,1,1.5017862999811769,645.9001402000431,None,None,1,,,,,,,,,,,,,,110,2023-04-04_14h58.19.650,Main,2022.1.1,61.37729421927179,
positive,red,2,None,None,,,,,,,,,0,186,186,186,,,,,,,,,,,,,,,,,main,None,None,1,1.4994292000192218,648.402746900043,None,None,1,,,,,,,,,,,,,,110,2023-04-04_14h58.19.650,Main,2022.1.1,61.37729421927179,
positive,blue,1,k,None,,,,,,,,,0,187,187,187,,,,,,,,,,,,,,,,,main,k,k,1,0.8315831000218168,650.9027093999903,None,None,0,,,,,,,,,,,,,,110,2023-04-04_14h58.19.650,Main,2022.1.1,61.37729421927179,
negative,yellow,1,k,None,,,,,,,,,0,188,188,188,,,,,,,,,,,,,,,,,main,k,k,1,0.9138594000251032,652.7358762000222,None,None,0,,,,,,,,,,,,,,110,2023-04-04_14h58.19.650,Main,2022.1.1,61.37729421927179,
positive,yellow,2,None,k,,,,,,,,,0,189,189,189,,,,,,,,,,,,,,,,,main,None,None,1,1.5016745000029914,654.6499410000397,None,None,1,,,,,,,,,,,,,,110,2023-04-04_14h58.19.650,Main,2022.1.1,61.37729421927179,
negative,yellow,2,k,None,,,,,,,,,0,190,190,190,,,,,,,,,,,,,,,,,main,k,k,1,0.6159615999786183,657.1530349000241,None,None,0,,,,,,,,,,,,,,110,2023-04-04_14h58.19.650,Main,2022.1.1,61.37729421927179,
negative,yellow,1,k,None,,,,,,,,,0,191,191,191,,,,,,,,,,,,,,,,,main,k,k,1,1.0131920999847353,658.7692241000477,None,None,0,,,,,,,,,,,,,,110,2023-04-04_14h58.19.650,Main,2022.1.1,61.37729421927179,
positive,blue,2,k,None,,,,,,,,,0,192,192,192,,,,,,,,,,,,,,,,,main,k,k,1,1.4683660000446253,660.7831267000292,None,None,0,,,,,,,,,,,,,,110,2023-04-04_14h58.19.650,Main,2022.1.1,61.37729421927179,
positive,yellow,1,None,k,,,,,,,,,0,193,193,193,,,,,,,,,,,,,,,,,main,None,None,1,1.4991107999812812,663.2531437000143,None,None,1,,,,,,,,,,,,,,110,2023-04-04_14h58.19.650,Main,2022.1.1,61.37729421927179,
negative,red,2,None,None,,,,,,,,,0,194,194,194,,,,,,,,,,,,,,,,,main,None,None,1,1.4961374999838881,665.7523096000077,None,None,1,,,,,,,,,,,,,,110,2023-04-04_14h58.19.650,Main,2022.1.1,61.37729421927179,
positive,red,1,None,None,,,,,,,,,0,195,195,195,,,,,,,,,,,,,,,,,main,None,None,1,1.5019352999515831,668.2496555999969,None,None,1,,,,,,,,,,,,,,110,2023-04-04_14h58.19.650,Main,2022.1.1,61.37729421927179,
negative,blue,1,None,k,,,,,,,,,0,196,196,196,,,,,,,,,,,,,,,,,main,None,None,1,1.4962786000105552,670.7522124000243,None,None,1,,,,,,,,,,,,,,110,2023-04-04_14h58.19.650,Main,2022.1.1,61.37729421927179,
positive,blue,2,k,None,,,,,,,,,0,197,197,197,,,,,,,,,,,,,,,,,main,k,k,1,0.8161318000056781,673.2495432000142,None,None,0,,,,,,,,,,,,,,110,2023-04-04_14h58.19.650,Main,2022.1.1,61.37729421927179,
negative,blue,2,None,k,,,,,,,,,0,198,198,198,,,,,,,,,,,,,,,,,main,None,None,1,1.5018026999896392,675.0662155000027,None,None,1,,,,,,,,,,,,,,110,2023-04-04_14h58.19.650,Main,2022.1.1,61.37729421927179,
negative,blue,2,None,k,,,,,,,,,0,199,199,199,,,,,,,,,,,,,,,,,main,None,None,1,1.4961000999901444,677.5687559000216,None,None,1,,,,,,,,,,,,,,110,2023-04-04_14h58.19.650,Main,2022.1.1,61.37729421927179,
positive,blue,2,k,None,,,,,,,,,0,200,200,200,,,,,,,,,,,,,,,,,main,k,k,1,0.6021308000199497,680.066038799996,None,None,0,,,,,,,,,,,,,,110,2023-04-04_14h58.19.650,Main,2022.1.1,61.37729421927179,
positive,blue,2,k,None,,,,,,,,,0,201,201,201,,,,,,,,,,,,,,,,,main,k,k,1,0.5658247999963351,681.6686445000232,None,None,0,,,,,,,,,,,,,,110,2023-04-04_14h58.19.650,Main,2022.1.1,61.37729421927179,
negative,yellow,2,k,None,,,,,,,,,0,202,202,202,,,,,,,,,,,,,,,,,main,k,k,1,0.8456875000265427,683.2330682000029,None,None,0,,,,,,,,,,,,,,110,2023-04-04_14h58.19.650,Main,2022.1.1,61.37729421927179,
positive,red,1,None,None,,,,,,,,,0,203,203,203,,,,,,,,,,,,,,,,,main,None,None,1,1.5013722000294365,685.0826164000318,None,None,1,,,,,,,,,,,,,,110,2023-04-04_14h58.19.650,Main,2022.1.1,61.37729421927179,
negative,blue,2,None,k,,,,,,,,,0,204,204,204,,,,,,,,,,,,,,,,,main,None,None,1,1.499403199995868,687.5852411999949,None,None,1,,,,,,,,,,,,,,110,2023-04-04_14h58.19.650,Main,2022.1.1,61.37729421927179,
negative,red,1,None,None,,,,,,,,,0,205,205,205,,,,,,,,,,,,,,,,,main,None,None,1,1.496159600035753,690.0851517000119,None,None,1,,,,,,,,,,,,,,110,2023-04-04_14h58.19.650,Main,2022.1.1,61.37729421927179,
negative,blue,2,None,k,,,,,,,,,0,206,206,206,,,,,,,,,,,,,,,,,main,None,k,0,0.7855311000021175,692.582447200024,None,None,1,,,,,,,,,,,,,,110,2023-04-04_14h58.19.650,Main,2022.1.1,61.37729421927179,
negative,yellow,2,k,None,,,,,,,,,0,207,207,207,,,,,,,,,,,,,,,,,main,k,k,1,0.8157696999842301,695.368314500025,None,None,0,,,,,,,,,,,,,,110,2023-04-04_14h58.19.650,Main,2022.1.1,61.37729421927179,
positive,yellow,2,None,k,,,,,,,,,0,208,208,208,,,,,,,,,,,,,,,,,main,None,None,1,1.50088099995628,697.1823350000195,None,None,1,,,,,,,,,,,,,,110,2023-04-04_14h58.19.650,Main,2022.1.1,61.37729421927179,
negative,yellow,1,k,None,,,,,,,,,0,209,209,209,,,,,,,,,,,,,,,,,main,k,k,1,0.699312100012321,699.6849241000018,None,None,0,,,,,,,,,,,,,,110,2023-04-04_14h58.19.650,Main,2022.1.1,61.37729421927179,
negative,red,2,None,None,,,,,,,,,0,210,210,210,,,,,,,,,,,,,,,,,main,None,None,1,1.496230499993544,701.3850802000379,None,None,1,,,,,,,,,,,,,,110,2023-04-04_14h58.19.650,Main,2022.1.1,61.37729421927179,
negative,blue,1,None,k,,,,,,,,,0,211,211,211,,,,,,,,,,,,,,,,,main,None,None,1,1.5018710999866016,703.8821993000456,None,None,1,,,,,,,,,,,,,,110,2023-04-04_14h58.19.650,Main,2022.1.1,61.37729421927179,
negative,yellow,1,k,None,,,,,,,,,0,212,212,212,,,,,,,,,,,,,,,,,main,k,k,1,0.8660331999999471,706.3847898000386,None,None,0,,,,,,,,,,,,,,110,2023-04-04_14h58.19.650,Main,2022.1.1,61.37729421927179,
positive,blue,1,k,None,,,,,,,,,0,213,213,213,,,,,,,,,,,,,,,,,main,k,k,1,0.7632306999876164,708.2515069000074,None,None,0,,,,,,,,,,,,,,110,2023-04-04_14h58.19.650,Main,2022.1.1,61.37729421927179,
positive,blue,1,k,None,,,,,,,,,0,214,214,214,,,,,,,,,,,,,,,,,main,k,k,1,0.7018110000062734,710.0153792999918,None,None,0,,,,,,,,,,,,,,110,2023-04-04_14h58.19.650,Main,2022.1.1,61.37729421927179,
positive,yellow,1,None,k,,,,,,,,,0,215,215,215,,,,,,,,,,,,,,,,,main,None,None,1,1.4988716000225395,711.7181092000101,None,None,1,,,,,,,,,,,,,,110,2023-04-04_14h58.19.650,Main,2022.1.1,61.37729421927179,
positive,yellow,1,None,k,,,,,,,,,0,216,216,216,,,,,,,,,,,,,,,,,main,None,None,1,1.4961734000244178,714.2179988000426,None,None,1,,,,,,,,,,,,,,110,2023-04-04_14h58.19.650,Main,2022.1.1,61.37729421927179,
positive,yellow,2,None,k,,,,,,,,,0,217,217,217,,,,,,,,,,,,,,,,,main,None,None,1,1.5020263000042178,716.7152059000218,None,None,1,,,,,,,,,,,,,,110,2023-04-04_14h58.19.650,Main,2022.1.1,61.37729421927179,
negative,blue,1,None,k,,,,,,,,,0,218,218,218,,,,,,,,,,,,,,,,,main,None,None,1,1.4963215999887325,719.2178316999925,None,None,1,,,,,,,,,,,,,,110,2023-04-04_14h58.19.650,Main,2022.1.1,61.37729421927179,
positive,red,2,None,None,,,,,,,,,0,219,219,219,,,,,,,,,,,,,,,,,main,None,None,1,1.50194059999194,721.7151364000165,None,None,1,,,,,,,,,,,,,,110,2023-04-04_14h58.19.650,Main,2022.1.1,61.37729421927179,
positive,yellow,1,None,k,,,,,,,,,0,220,220,220,,,,,,,,,,,,,,,,,main,None,None,1,1.4989973999909125,724.2177166000474,None,None,1,,,,,,,,,,,,,,110,2023-04-04_14h58.19.650,Main,2022.1.1,61.37729421927179,
positive,blue,1,k,None,,,,,,,,,0,221,221,221,,,,,,,,,,,,,,,,,main,k,k,1,0.8799466999480501,726.7176896000165,None,None,0,,,,,,,,,,,,,,110,2023-04-04_14h58.19.650,Main,2022.1.1,61.37729421927179,
positive,yellow,2,None,k,,,,,,,,,0,222,222,222,,,,,,,,,,,,,,,,,main,None,None,1,1.5016300000133924,728.5983222000068,None,None,1,,,,,,,,,,,,,,110,2023-04-04_14h58.19.650,Main,2022.1.1,61.37729421927179,
negative,yellow,1,k,None,,,,,,,,,0,223,223,223,,,,,,,,,,,,,,,,,main,k,k,1,0.7640580000006594,731.1009670000058,None,None,0,,,,,,,,,,,,,,110,2023-04-04_14h58.19.650,Main,2022.1.1,61.37729421927179,
positive,yellow,2,None,k,,,,,,,,,0,224,224,224,,,,,,,,,,,,,,,,,main,None,None,1,1.4983074000338092,732.8675993999932,None,None,1,,,,,,,,,,,,,,110,2023-04-04_14h58.19.650,Main,2022.1.1,61.37729421927179,
negative,yellow,2,k,None,,,,,,,,,0,225,225,225,,,,,,,,,,,,,,,,,main,k,k,1,0.7018920999835245,735.3648600000306,None,None,0,,,,,,,,,,,,,,110,2023-04-04_14h58.19.650,Main,2022.1.1,61.37729421927179,
negative,blue,2,None,k,,,,,,,,,0,226,226,226,,,,,,,,,,,,,,,,,main,None,None,1,1.4962204999756068,737.0675362000475,None,None,1,,,,,,,,,,,,,,110,2023-04-04_14h58.19.650,Main,2022.1.1,61.37729421927179,
positive,red,2,None,None,,,,,,,,,0,227,227,227,,,,,,,,,,,,,,,,,main,None,None,1,1.5019419000018388,739.5647424000199,None,None,1,,,,,,,,,,,,,,110,2023-04-04_14h58.19.650,Main,2022.1.1,61.37729421927179,
positive,blue,2,k,None,,,,,,,,,0,228,228,228,,,,,,,,,,,,,,,,,main,k,k,1,0.8491315999999642,742.0673387999996,None,None,0,,,,,,,,,,,,,,110,2023-04-04_14h58.19.650,Main,2022.1.1,61.37729421927179,
negative,blue,1,None,k,,,,,,,,,0,229,229,229,,,,,,,,,,,,,,,,,main,None,None,1,1.4962306000525132,743.9150842000381,None,None,1,,,,,,,,,,,,,,110,2023-04-04_14h58.19.650,Main,2022.1.1,61.37729421927179,
positive,yellow,1,None,k,,,,,,,,,0,230,230,230,,,,,,,,,,,,,,,,,main,None,None,1,1.5018887000042014,746.4145934000262,None,None,1,,,,,,,,,,,,,,110,2023-04-04_14h58.19.650,Main,2022.1.1,61.37729421927179,
negative,blue,2,None,k,,,,,,,,,0,231,231,231,,,,,,,,,,,,,,,,,main,None,None,1,1.496570800023619,748.917185200029,None,None,1,,,,,,,,,,,,,,110,2023-04-04_14h58.19.650,Main,2022.1.1,61.37729421927179,
negative,red,1,None,None,,,,,,,,,0,232,232,232,,,,,,,,,,,,,,,,,main,None,None,1,1.5015789999742992,751.4144724000362,None,None,1,,,,,,,,,,,,,,110,2023-04-04_14h58.19.650,Main,2022.1.1,61.37729421927179,
positive,blue,2,k,None,,,,,,,,,0,233,233,233,,,,,,,,,,,,,,,,,main,k,k,1,1.0303959000157192,753.9171112000477,None,None,0,,,,,,,,,,,,,,110,2023-04-04_14h58.19.650,Main,2022.1.1,61.37729421927179,
negative,yellow,1,k,None,,,,,,,,,0,234,234,234,,,,,,,,,,,,,,,,,main,k,k,1,0.9153135999804363,755.9504665000131,None,None,0,,,,,,,,,,,,,,110,2023-04-04_14h58.19.650,Main,2022.1.1,61.37729421927179,
negative,yellow,2,k,None,,,,,,,,,0,235,235,235,,,,,,,,,,,,,,,,,main,k,k,1,0.732221300015226,757.8643428999931,None,None,0,,,,,,,,,,,,,,110,2023-04-04_14h58.19.650,Main,2022.1.1,61.37729421927179,
positive,red,1,None,None,,,,,,,,,0,236,236,236,,,,,,,,,,,,,,,,,main,None,None,1,1.5016564999823458,759.5977062000311,None,None,1,,,,,,,,,,,,,,110,2023-04-04_14h58.19.650,Main,2022.1.1,61.37729421927179,
negative,red,2,None,None,,,,,,,,,0,237,237,237,,,,,,,,,,,,,,,,,main,None,None,1,1.4988833999959752,762.1002081999904,None,None,1,,,,,,,,,,,,,,110,2023-04-04_14h58.19.650,Main,2022.1.1,61.37729421927179,
negative,blue,1,None,k,,,,,,,,,0,238,238,238,,,,,,,,,,,,,,,,,main,None,None,1,1.4964025999652222,764.6000082000392,None,None,1,,,,,,,,,,,,,,110,2023-04-04_14h58.19.650,Main,2022.1.1,61.37729421927179,
positive,blue,1,k,None,,,,,,,,,0,239,239,239,,,,,,,,,,,,,,,,,main,k,k,1,0.8021758999675512,767.0974767000298,None,None,0,,,,,,,,,,,,,,110,2023-04-04_14h58.19.650,Main,2022.1.1,61.37729421927179,
,,,,,,,,,,,,,,,,,,,,,,,,,,,,,,,,,,,,,,,,,,,,,,,,,,,,,768.8978389000404,None,,,,,,
