distractor,target,set,ans1,ans2,rep_loop4.thisRepN,rep_loop4.thisTrialN,rep_loop4.thisN,rep_loop4.thisIndex,st2_prac_loop.thisRepN,st2_prac_loop.thisTrialN,st2_prac_loop.thisN,st2_prac_loop.thisIndex,st2_main_loop.thisRepN,st2_main_loop.thisTrialN,st2_main_loop.thisN,st2_main_loop.thisIndex,image_4.started,image_4.stopped,sound_2.started,sound_2.stopped,key_resp_3.keys,key_resp_3.rt,image_5.started,image_5.stopped,st_prac_back.started,st_prac_back.stopped,st_prac_text.started,st_prac_text.stopped,st_fix_back.started,st_fix_back.stopped,st_fix_2.started,st_fix_2.stopped,main_prac,st_ans,st_res,st_corr,st_rt,st_back.started,st_back.stopped,st2_resp.keys,st2_resp.corr,st_main_back.started,st_main_back.stopped,st_main_text.started,st_main_text.stopped,mouse_4.x,mouse_4.y,mouse_4.leftButton,mouse_4.midButton,mouse_4.rightButton,mouse_4.started,mouse_4.stopped,text_2.started,text_2.stopped,id*,date,expName,psychopyVersion,frameRate,
negative,yellow,1,k,None,,,,,0,0,0,0,,,,,35.40747710003052,None,38.82002080999664,None,space,75.50316309998743,114.34859240002697,None,116.53196860000025,None,116.53196860000025,None,118.53437390003819,None,118.53437390003819,None,prac,None,None,1,1.4966650999849662,120.54848810000112,None,None,1,,,,,,,,,,,,,,111,2023-04-04_17h23.17.523,Main,2022.1.1,60.03125228427555,
positive,red,2,None,None,,,,,0,1,1,1,,,,,,,,,,,,,,,,,,,,,prac,None,None,1,1.499095400038641,123.0509471000405,None,None,1,,,,,,,,,,,,,,111,2023-04-04_17h23.17.523,Main,2022.1.1,60.03125228427555,
negative,blue,2,None,k,,,,,0,2,2,2,,,,,,,,,,,,,,,,,,,,,prac,k,k,1,0.8631562999798916,125.55084760003956,None,None,0,,,,,,,,,,,,,,111,2023-04-04_17h23.17.523,Main,2022.1.1,60.03125228427555,
positive,yellow,1,None,k,,,,,0,3,3,3,,,,,,,,,,,,,,,,,,,,,prac,k,k,1,0.9494045999599621,127.41486070002429,None,None,0,,,,,,,,,,,,,,111,2023-04-04_17h23.17.523,Main,2022.1.1,60.03125228427555,
negative,blue,2,None,k,,,,,0,4,4,4,,,,,,,,,,,,,,,,,,,,,prac,k,k,1,1.7516028000391088,129.36486420000438,None,None,0,,,,,,,,,,,,,,111,2023-04-04_17h23.17.523,Main,2022.1.1,60.03125228427555,
negative,blue,1,None,k,,,,,0,5,5,5,,,,,,,,,,,,,,,,,,,,,prac,k,k,1,1.0848770000156946,133.11525680002524,None,None,0,,,,,,,,,,,,,,111,2023-04-04_17h23.17.523,Main,2022.1.1,60.03125228427555,
negative,yellow,2,k,None,,,,,0,6,6,6,,,,,,,,,,,,,,,,,,,,,prac,None,None,1,1.5008649000083096,135.19806359999347,None,None,1,,,,,,,,,,,,,,111,2023-04-04_17h23.17.523,Main,2022.1.1,60.03125228427555,
negative,red,1,None,None,,,,,0,7,7,7,,,,,,,,,,,,,,,,,,,,,prac,None,None,1,1.4989710999652743,137.70059870003024,None,None,1,,,,,,,,,,,,,,111,2023-04-04_17h23.17.523,Main,2022.1.1,60.03125228427555,
positive,yellow,2,None,k,,,,,0,8,8,8,,,,,,,,,,,,,,,,,,,,,prac,k,k,1,0.9496721000177786,140.19823280000128,None,None,0,,,,,,,,,,,,,,111,2023-04-04_17h23.17.523,Main,2022.1.1,60.03125228427555,
negative,yellow,1,k,None,,,,,0,9,9,9,,,,,,,,,,,,,,,,,,,,,prac,None,None,1,1.4956837000208907,142.15046870004153,None,None,1,,,,,,,,,,,,,,111,2023-04-04_17h23.17.523,Main,2022.1.1,60.03125228427555,
positive,yellow,2,None,k,,,,,0,10,10,10,,,,,,,,,,,,,,,,,,,,,prac,k,k,1,0.8520916999550536,144.64786329999333,None,None,0,,,,,,,,,,,,,,111,2023-04-04_17h23.17.523,Main,2022.1.1,60.03125228427555,
negative,yellow,2,k,None,,,,,0,11,11,11,,,,,,,,,,,,,,,,,,,,,prac,None,None,1,1.4960111000109464,146.50047720002476,None,None,1,,,,,,,,,,,,,,111,2023-04-04_17h23.17.523,Main,2022.1.1,60.03125228427555,
negative,red,2,None,None,,,,,0,12,12,12,,,,,,,,,,,,,,,,,,,,,prac,None,None,1,1.4992954999906942,148.997723700013,None,None,1,,,,,,,,,,,,,,111,2023-04-04_17h23.17.523,Main,2022.1.1,60.03125228427555,
positive,red,1,None,None,,,,,0,13,13,13,,,,,,,,,,,,,,,,,,,,,prac,None,None,1,1.5014807000407018,151.49769930000184,None,None,1,,,,,,,,,,,,,,111,2023-04-04_17h23.17.523,Main,2022.1.1,60.03125228427555,
positive,blue,2,k,None,,,,,0,14,14,14,,,,,,,,,,,,,,,,,,,,,prac,None,None,1,1.5019961999496445,154.00025730003836,None,None,1,,,,,,,,,,,,,,111,2023-04-04_17h23.17.523,Main,2022.1.1,60.03125228427555,
positive,blue,1,k,None,,,,,0,15,15,15,,,,,,,,,,,,,,,,,,,,,prac,None,None,1,1.4937662999727763,156.50102700002026,None,None,1,,,,,,,,,,,,,,111,2023-04-04_17h23.17.523,Main,2022.1.1,60.03125228427555,
negative,blue,1,None,k,,,,,0,16,16,16,,,,,,,,,,,,,,,,,,,,,prac,k,k,1,0.8352254999917932,158.99755820003338,None,None,0,,,,,,,,,,,,,,111,2023-04-04_17h23.17.523,Main,2022.1.1,60.03125228427555,
positive,blue,2,k,None,,,,,0,17,17,17,,,,,,,,,,,,,,,,,,,,,prac,None,None,1,1.498799599998165,160.83347270003287,None,None,1,,,,,,,,,,,,,,111,2023-04-04_17h23.17.523,Main,2022.1.1,60.03125228427555,
positive,blue,1,k,None,,,,,0,18,18,18,,,,,,,,,,,,,,,,,,,,,prac,None,None,1,1.4989253000239842,163.33325570001034,None,None,1,,,,,,,,,,,,,,111,2023-04-04_17h23.17.523,Main,2022.1.1,60.03125228427555,
positive,yellow,1,None,k,,,,,0,19,19,19,,,,,,,,,,,,,,,,,,,,,prac,k,k,1,1.2811645999900065,165.83323180000298,None,None,0,,,,,,,,,,,,,,111,2023-04-04_17h23.17.523,Main,2022.1.1,60.03125228427555,
negative,yellow,1,k,None,,,,,1,0,20,0,,,,,,,,,,,,,,,,,,,,,prac,None,None,1,1.5015396000235341,168.1140313000069,None,None,1,,,,,,,,,,,,,,111,2023-04-04_17h23.17.523,Main,2022.1.1,60.03125228427555,
positive,red,2,None,None,,,,,1,1,21,1,,,,,,,,,,,,,,,,,,,,,prac,None,None,1,1.4967026999802329,170.6165611000033,None,None,1,,,,,,,,,,,,,,111,2023-04-04_17h23.17.523,Main,2022.1.1,60.03125228427555,
negative,blue,2,None,k,,,,,1,2,22,2,,,,,,,,,,,,,,,,,,,,,prac,k,k,1,0.9346210000221618,173.11386380001204,None,None,0,,,,,,,,,,,,,,111,2023-04-04_17h23.17.523,Main,2022.1.1,60.03125228427555,
positive,yellow,1,None,k,,,,,1,3,23,3,,,,,,,,,,,,,,,,,,,,,prac,k,k,1,1.180355700023938,175.04977710003732,None,None,0,,,,,,,,,,,,,,111,2023-04-04_17h23.17.523,Main,2022.1.1,60.03125228427555,
negative,blue,2,None,k,,,,,1,4,24,4,,,,,,,,,,,,,,,,,,,,,prac,k,k,1,1.0980216999887489,177.22451319999527,None,None,0,,,,,,,,,,,,,,111,2023-04-04_17h23.17.523,Main,2022.1.1,60.03125228427555,
negative,blue,1,None,k,,,,,1,5,25,5,,,,,,,,,,,,,,,,,,,,,prac,k,k,1,1.0844648000202142,179.33049530000426,None,None,0,,,,,,,,,,,,,,111,2023-04-04_17h23.17.523,Main,2022.1.1,60.03125228427555,
negative,yellow,2,k,None,,,,,1,6,26,6,,,,,,,,,,,,,,,,,,,,,prac,None,None,1,1.4986947000143118,181.4162883000099,None,None,1,,,,,,,,,,,,,,111,2023-04-04_17h23.17.523,Main,2022.1.1,60.03125228427555,
negative,red,1,None,None,,,,,1,7,27,7,,,,,,,,,,,,,,,,,,,,,prac,None,None,1,1.4967261999845505,183.9162446000264,None,None,1,,,,,,,,,,,,,,111,2023-04-04_17h23.17.523,Main,2022.1.1,60.03125228427555,
positive,yellow,2,None,k,,,,,1,8,28,8,,,,,,,,,,,,,,,,,,,,,prac,k,k,1,0.852403900003992,186.413643900014,None,None,0,,,,,,,,,,,,,,111,2023-04-04_17h23.17.523,Main,2022.1.1,60.03125228427555,
negative,yellow,1,k,None,,,,,1,9,29,9,,,,,,,,,,,,,,,,,,,,,prac,None,None,1,1.4959336000028998,188.26613050000742,None,None,1,,,,,,,,,,,,,,111,2023-04-04_17h23.17.523,Main,2022.1.1,60.03125228427555,
positive,yellow,2,None,k,,,,,1,10,30,10,,,,,,,,,,,,,,,,,,,,,prac,k,k,1,0.8360180999734439,190.7634912999929,None,None,0,,,,,,,,,,,,,,111,2023-04-04_17h23.17.523,Main,2022.1.1,60.03125228427555,
negative,yellow,2,k,None,,,,,1,11,31,11,,,,,,,,,,,,,,,,,,,,,prac,None,None,1,1.4982880999450572,192.5968547000084,None,None,1,,,,,,,,,,,,,,111,2023-04-04_17h23.17.523,Main,2022.1.1,60.03125228427555,
negative,red,2,None,None,,,,,1,12,32,12,,,,,,,,,,,,,,,,,,,,,prac,None,None,1,1.4965847000130452,195.0993781000143,None,None,1,,,,,,,,,,,,,,111,2023-04-04_17h23.17.523,Main,2022.1.1,60.03125228427555,
positive,red,1,None,None,,,,,1,13,33,13,,,,,,,,,,,,,,,,,,,,,prac,None,None,1,1.5017240000306629,197.5966806000215,None,None,1,,,,,,,,,,,,,,111,2023-04-04_17h23.17.523,Main,2022.1.1,60.03125228427555,
positive,blue,2,k,None,,,,,1,14,34,14,,,,,,,,,,,,,,,,,,,,,prac,None,None,1,1.4991734999930486,200.0992150999955,None,None,1,,,,,,,,,,,,,,111,2023-04-04_17h23.17.523,Main,2022.1.1,60.03125228427555,
positive,blue,1,k,None,,,,,1,15,35,15,,,,,,,,,,,,,,,,,,,,,prac,None,None,1,1.4992681000148878,202.5990340000135,None,None,1,,,,,,,,,,,,,,111,2023-04-04_17h23.17.523,Main,2022.1.1,60.03125228427555,
negative,blue,1,None,k,,,,,1,16,36,16,,,,,,,,,,,,,,,,,,,,,prac,k,k,1,0.9137282999581657,205.0990684000426,None,None,0,,,,,,,,,,,,,,111,2023-04-04_17h23.17.523,Main,2022.1.1,60.03125228427555,
positive,blue,2,k,None,,,,,1,17,37,17,,,,,,,,,,,,,,,,,,,,,prac,None,None,1,1.49872360000154,207.01314699999057,None,None,1,,,,,,,,,,,,,,111,2023-04-04_17h23.17.523,Main,2022.1.1,60.03125228427555,
positive,blue,1,k,None,,,,,1,18,38,18,,,,,,,,,,,,,,,,,,,,,prac,None,None,1,1.501494999974966,209.51574160001474,None,None,1,,,,,,,,,,,,,,111,2023-04-04_17h23.17.523,Main,2022.1.1,60.03125228427555,
positive,yellow,1,None,k,,,,,1,19,39,19,,,,,,,,,,,,,,,,,,,,,prac,k,k,1,0.8827980000060052,212.01571930001955,None,None,0,,,,,,,,,,,,,,111,2023-04-04_17h23.17.523,Main,2022.1.1,60.03125228427555,
,,,,,,,,,,,,,,,,,,,,,,,,,,,,,,,,,,,,,,,,,,213.8988080000272,None,213.8988080000272,None,0.075925924,0.022222223,0,0,0,0.013920010009314865,None,,,111,2023-04-04_17h23.17.523,Main,2022.1.1,60.03125228427555,
negative,yellow,2,k,None,,,,,,,,,0,0,0,0,,,,,,,,,,,,,218.86310890002642,None,218.86310890002642,None,main,None,None,1,1.502601899963338,220.8855615000357,None,None,1,,,,,,,,,,,,,,111,2023-04-04_17h23.17.523,Main,2022.1.1,60.03125228427555,
positive,red,1,None,None,,,,,,,,,0,1,1,1,,,,,,,,,,,,,,,,,main,None,None,1,1.5011666000355035,223.39611590001732,None,None,1,,,,,,,,,,,,,,111,2023-04-04_17h23.17.523,Main,2022.1.1,60.03125228427555,
positive,blue,2,k,None,,,,,,,,,0,2,2,2,,,,,,,,,,,,,,,,,main,None,None,1,1.498950999986846,225.89867260004394,None,None,1,,,,,,,,,,,,,,111,2023-04-04_17h23.17.523,Main,2022.1.1,60.03125228427555,
positive,blue,1,k,None,,,,,,,,,0,3,3,3,,,,,,,,,,,,,,,,,main,None,None,1,1.4966367000015453,228.39868079998996,None,None,1,,,,,,,,,,,,,,111,2023-04-04_17h23.17.523,Main,2022.1.1,60.03125228427555,
negative,yellow,2,k,None,,,,,,,,,0,4,4,4,,,,,,,,,,,,,,,,,main,None,None,1,1.5018796999938786,230.89601910003694,None,None,1,,,,,,,,,,,,,,111,2023-04-04_17h23.17.523,Main,2022.1.1,60.03125228427555,
positive,yellow,2,None,k,,,,,,,,,0,5,5,5,,,,,,,,,,,,,,,,,main,k,k,1,0.7659811000339687,233.398579300032,None,None,0,,,,,,,,,,,,,,111,2023-04-04_17h23.17.523,Main,2022.1.1,60.03125228427555,
negative,blue,2,None,k,,,,,,,,,0,6,6,6,,,,,,,,,,,,,,,,,main,k,k,1,0.9464910999522544,235.1652296000393,None,None,0,,,,,,,,,,,,,,111,2023-04-04_17h23.17.523,Main,2022.1.1,60.03125228427555,
positive,red,2,None,None,,,,,,,,,0,7,7,7,,,,,,,,,,,,,,,,,main,None,None,1,1.5015555000281893,237.112532500003,None,None,1,,,,,,,,,,,,,,111,2023-04-04_17h23.17.523,Main,2022.1.1,60.03125228427555,
positive,yellow,1,None,k,,,,,,,,,0,8,8,8,,,,,,,,,,,,,,,,,main,k,k,1,0.987045899964869,239.61512900004163,None,None,0,,,,,,,,,,,,,,111,2023-04-04_17h23.17.523,Main,2022.1.1,60.03125228427555,
negative,red,1,None,None,,,,,,,,,0,9,9,9,,,,,,,,,,,,,,,,,main,None,None,1,1.4916616000118665,241.6069884999888,None,None,1,,,,,,,,,,,,,,111,2023-04-04_17h23.17.523,Main,2022.1.1,60.03125228427555,
positive,yellow,1,None,k,,,,,,,,,0,10,10,10,,,,,,,,,,,,,,,,,main,k,k,1,0.735152899986133,244.09837650001282,None,None,0,,,,,,,,,,,,,,111,2023-04-04_17h23.17.523,Main,2022.1.1,60.03125228427555,
negative,yellow,1,k,None,,,,,,,,,0,11,11,11,,,,,,,,,,,,,,,,,main,None,None,1,1.4962387999985367,245.83158930001082,None,None,1,,,,,,,,,,,,,,111,2023-04-04_17h23.17.523,Main,2022.1.1,60.03125228427555,
negative,yellow,1,k,None,,,,,,,,,0,12,12,12,,,,,,,,,,,,,,,,,main,None,None,1,1.5020587999606505,248.32892709999578,None,None,1,,,,,,,,,,,,,,111,2023-04-04_17h23.17.523,Main,2022.1.1,60.03125228427555,
negative,red,2,None,None,,,,,,,,,0,13,13,13,,,,,,,,,,,,,,,,,main,None,None,1,1.4990921000135131,250.83151160000125,None,None,1,,,,,,,,,,,,,,111,2023-04-04_17h23.17.523,Main,2022.1.1,60.03125228427555,
positive,yellow,2,None,k,,,,,,,,,0,14,14,14,,,,,,,,,,,,,,,,,main,k,k,1,0.8468595000449568,253.33154089999152,None,None,0,,,,,,,,,,,,,,111,2023-04-04_17h23.17.523,Main,2022.1.1,60.03125228427555,
positive,blue,1,k,None,,,,,,,,,0,15,15,15,,,,,,,,,,,,,,,,,main,None,None,1,1.501162500004284,255.17878280003788,None,None,1,,,,,,,,,,,,,,111,2023-04-04_17h23.17.523,Main,2022.1.1,60.03125228427555,
negative,blue,1,None,k,,,,,,,,,0,16,16,16,,,,,,,,,,,,,,,,,main,k,k,1,0.8825087999575771,257.6813819000381,None,None,0,,,,,,,,,,,,,,111,2023-04-04_17h23.17.523,Main,2022.1.1,60.03125228427555,
positive,blue,2,k,None,,,,,,,,,0,17,17,17,,,,,,,,,,,,,,,,,main,None,None,1,1.4960932999965735,259.5647470999975,None,None,1,,,,,,,,,,,,,,111,2023-04-04_17h23.17.523,Main,2022.1.1,60.03125228427555,
negative,blue,2,None,k,,,,,,,,,0,18,18,18,,,,,,,,,,,,,,,,,main,k,k,1,1.6354503000038676,262.0620144000277,None,None,0,,,,,,,,,,,,,,111,2023-04-04_17h23.17.523,Main,2022.1.1,60.03125228427555,
negative,blue,1,None,k,,,,,,,,,0,19,19,19,,,,,,,,,,,,,,,,,main,k,k,1,0.8787615000037476,265.6975857000216,None,None,0,,,,,,,,,,,,,,111,2023-04-04_17h23.17.523,Main,2022.1.1,60.03125228427555,
negative,blue,1,None,k,,,,,,,,,0,20,20,20,,,,,,,,,,,,,,,,,main,k,k,1,0.8180378999677487,267.5785472000134,None,None,0,,,,,,,,,,,,,,111,2023-04-04_17h23.17.523,Main,2022.1.1,60.03125228427555,
negative,blue,2,None,k,,,,,,,,,0,21,21,21,,,,,,,,,,,,,,,,,main,k,k,1,0.8326487999875098,269.39778150001075,None,None,0,,,,,,,,,,,,,,111,2023-04-04_17h23.17.523,Main,2022.1.1,60.03125228427555,
negative,red,1,None,None,,,,,,,,,0,22,22,22,,,,,,,,,,,,,,,,,main,None,None,1,1.4963675999897532,271.2310390000348,None,None,1,,,,,,,,,,,,,,111,2023-04-04_17h23.17.523,Main,2022.1.1,60.03125228427555,
positive,red,2,None,None,,,,,,,,,0,23,23,23,,,,,,,,,,,,,,,,,main,None,None,1,1.5016746000037529,273.7284498999943,None,None,1,,,,,,,,,,,,,,111,2023-04-04_17h23.17.523,Main,2022.1.1,60.03125228427555,
negative,red,2,None,None,,,,,,,,,0,24,24,24,,,,,,,,,,,,,,,,,main,None,None,1,1.4968609000206925,276.2309818000067,None,None,1,,,,,,,,,,,,,,111,2023-04-04_17h23.17.523,Main,2022.1.1,60.03125228427555,
positive,blue,2,k,None,,,,,,,,,0,25,25,25,,,,,,,,,,,,,,,,,main,None,None,1,1.5015080999583006,278.72826870001154,None,None,1,,,,,,,,,,,,,,111,2023-04-04_17h23.17.523,Main,2022.1.1,60.03125228427555,
negative,yellow,1,k,None,,,,,,,,,0,26,26,26,,,,,,,,,,,,,,,,,main,None,None,1,1.4984170999960043,281.23088520002784,None,None,1,,,,,,,,,,,,,,111,2023-04-04_17h23.17.523,Main,2022.1.1,60.03125228427555,
positive,blue,2,k,None,,,,,,,,,0,27,27,27,,,,,,,,,,,,,,,,,main,None,None,1,1.4968272999976762,283.7312261000043,None,None,1,,,,,,,,,,,,,,111,2023-04-04_17h23.17.523,Main,2022.1.1,60.03125228427555,
negative,blue,2,None,k,,,,,,,,,0,28,28,28,,,,,,,,,,,,,,,,,main,k,k,1,1.0183087000041269,286.2281782000209,None,None,0,,,,,,,,,,,,,,111,2023-04-04_17h23.17.523,Main,2022.1.1,60.03125228427555,
positive,red,1,None,None,,,,,,,,,0,29,29,29,,,,,,,,,,,,,,,,,main,None,None,1,1.496561300009489,288.24732080003014,None,None,1,,,,,,,,,,,,,,111,2023-04-04_17h23.17.523,Main,2022.1.1,60.03125228427555,
positive,blue,1,k,None,,,,,,,,,0,30,30,30,,,,,,,,,,,,,,,,,main,None,None,1,1.501776000019163,290.7447022999986,None,None,1,,,,,,,,,,,,,,111,2023-04-04_17h23.17.523,Main,2022.1.1,60.03125228427555,
positive,yellow,1,None,k,,,,,,,,,0,31,31,31,,,,,,,,,,,,,,,,,main,k,k,1,1.1163276999723166,293.24726720002946,None,None,0,,,,,,,,,,,,,,111,2023-04-04_17h23.17.523,Main,2022.1.1,60.03125228427555,
negative,yellow,2,k,None,,,,,,,,,0,32,32,32,,,,,,,,,,,,,,,,,main,None,None,1,1.4986084999982268,295.36386270000366,None,None,1,,,,,,,,,,,,,,111,2023-04-04_17h23.17.523,Main,2022.1.1,60.03125228427555,
negative,blue,1,None,k,,,,,,,,,0,33,33,33,,,,,,,,,,,,,,,,,main,k,k,1,0.7996406000456773,297.86143099999754,None,None,0,,,,,,,,,,,,,,111,2023-04-04_17h23.17.523,Main,2022.1.1,60.03125228427555,
positive,blue,1,k,None,,,,,,,,,0,34,34,34,,,,,,,,,,,,,,,,,main,None,None,1,1.4985090999980457,299.6638530000346,None,None,1,,,,,,,,,,,,,,111,2023-04-04_17h23.17.523,Main,2022.1.1,60.03125228427555,
negative,yellow,1,k,None,,,,,,,,,0,35,35,35,,,,,,,,,,,,,,,,,main,None,None,1,1.499206000007689,302.16363140003523,None,None,1,,,,,,,,,,,,,,111,2023-04-04_17h23.17.523,Main,2022.1.1,60.03125228427555,
positive,yellow,2,None,k,,,,,,,,,0,36,36,36,,,,,,,,,,,,,,,,,main,k,k,1,0.7806226999964565,304.6636054000119,None,None,0,,,,,,,,,,,,,,111,2023-04-04_17h23.17.523,Main,2022.1.1,60.03125228427555,
positive,yellow,2,None,k,,,,,,,,,0,37,37,37,,,,,,,,,,,,,,,,,main,k,k,1,0.7487168000079691,306.4445476999972,None,None,0,,,,,,,,,,,,,,111,2023-04-04_17h23.17.523,Main,2022.1.1,60.03125228427555,
negative,yellow,2,k,None,,,,,,,,,0,38,38,38,,,,,,,,,,,,,,,,,main,None,None,1,1.5015642000362277,308.19452170003206,None,None,1,,,,,,,,,,,,,,111,2023-04-04_17h23.17.523,Main,2022.1.1,60.03125228427555,
positive,yellow,1,None,k,,,,,,,,,0,39,39,39,,,,,,,,,,,,,,,,,main,k,k,1,0.9502788999816403,310.69693560001906,None,None,0,,,,,,,,,,,,,,111,2023-04-04_17h23.17.523,Main,2022.1.1,60.03125228427555,
negative,yellow,2,k,None,,,,,,,,,0,40,40,40,,,,,,,,,,,,,,,,,main,None,None,1,1.4964375999988988,312.64686199999414,None,None,1,,,,,,,,,,,,,,111,2023-04-04_17h23.17.523,Main,2022.1.1,60.03125228427555,
positive,blue,2,k,None,,,,,,,,,0,41,41,41,,,,,,,,,,,,,,,,,main,None,None,1,1.5018766000284813,315.1444855000009,None,None,1,,,,,,,,,,,,,,111,2023-04-04_17h23.17.523,Main,2022.1.1,60.03125228427555,
positive,blue,2,k,None,,,,,,,,,0,42,42,42,,,,,,,,,,,,,,,,,main,None,None,1,1.496239300002344,317.64680839999346,None,None,1,,,,,,,,,,,,,,111,2023-04-04_17h23.17.523,Main,2022.1.1,60.03125228427555,
negative,blue,2,None,k,,,,,,,,,0,43,43,43,,,,,,,,,,,,,,,,,main,k,k,1,0.8345619000028819,320.14420310000423,None,None,0,,,,,,,,,,,,,,111,2023-04-04_17h23.17.523,Main,2022.1.1,60.03125228427555,
negative,red,1,None,None,,,,,,,,,0,44,44,44,,,,,,,,,,,,,,,,,main,None,None,1,1.4987395000061952,321.9800099999993,None,None,1,,,,,,,,,,,,,,111,2023-04-04_17h23.17.523,Main,2022.1.1,60.03125228427555,
negative,yellow,1,k,None,,,,,,,,,0,45,45,45,,,,,,,,,,,,,,,,,main,None,None,1,1.4964972999878228,324.4799411999993,None,None,1,,,,,,,,,,,,,,111,2023-04-04_17h23.17.523,Main,2022.1.1,60.03125228427555,
negative,yellow,1,k,None,,,,,,,,,0,46,46,46,,,,,,,,,,,,,,,,,main,None,None,1,1.501720000000205,326.97730830003275,None,None,1,,,,,,,,,,,,,,111,2023-04-04_17h23.17.523,Main,2022.1.1,60.03125228427555,
positive,red,1,None,None,,,,,,,,,0,47,47,47,,,,,,,,,,,,,,,,,main,None,None,1,1.4969283999525942,329.4798302000272,None,None,1,,,,,,,,,,,,,,111,2023-04-04_17h23.17.523,Main,2022.1.1,60.03125228427555,
positive,yellow,1,None,k,,,,,,,,,0,48,48,48,,,,,,,,,,,,,,,,,main,k,k,1,1.0017388999694958,331.97713469999144,None,None,0,,,,,,,,,,,,,,111,2023-04-04_17h23.17.523,Main,2022.1.1,60.03125228427555,
negative,blue,1,None,k,,,,,,,,,0,49,49,49,,,,,,,,,,,,,,,,,main,k,k,1,1.1822787999990396,333.9797824000125,None,None,0,,,,,,,,,,,,,,111,2023-04-04_17h23.17.523,Main,2022.1.1,60.03125228427555,
positive,yellow,2,None,k,,,,,,,,,0,50,50,50,,,,,,,,,,,,,,,,,main,k,k,1,1.3630348999868147,336.16309010004625,None,None,0,,,,,,,,,,,,,,111,2023-04-04_17h23.17.523,Main,2022.1.1,60.03125228427555,
negative,blue,1,None,k,,,,,,,,,0,51,51,51,,,,,,,,,,,,,,,,,main,k,k,1,1.151750200020615,338.5270177000202,None,None,0,,,,,,,,,,,,,,111,2023-04-04_17h23.17.523,Main,2022.1.1,60.03125228427555,
positive,red,2,None,None,,,,,,,,,0,52,52,52,,,,,,,,,,,,,,,,,main,None,None,1,1.4960919999866746,340.6795429000049,None,None,1,,,,,,,,,,,,,,111,2023-04-04_17h23.17.523,Main,2022.1.1,60.03125228427555,
positive,yellow,2,None,k,,,,,,,,,0,53,53,53,,,,,,,,,,,,,,,,,main,k,k,1,0.9330384000204504,343.17690449999645,None,None,0,,,,,,,,,,,,,,111,2023-04-04_17h23.17.523,Main,2022.1.1,60.03125228427555,
negative,red,2,None,None,,,,,,,,,0,54,54,54,,,,,,,,,,,,,,,,,main,None,None,1,1.5011886999709532,345.1102746000397,None,None,1,,,,,,,,,,,,,,111,2023-04-04_17h23.17.523,Main,2022.1.1,60.03125228427555,
positive,yellow,1,None,k,,,,,,,,,0,55,55,55,,,,,,,,,,,,,,,,,main,k,k,1,0.7967920000082813,347.6128158000065,None,None,0,,,,,,,,,,,,,,111,2023-04-04_17h23.17.523,Main,2022.1.1,60.03125228427555,
negative,blue,2,None,k,,,,,,,,,0,56,56,56,,,,,,,,,,,,,,,,,main,k,k,1,0.9160678000189364,349.410105500021,None,None,0,,,,,,,,,,,,,,111,2023-04-04_17h23.17.523,Main,2022.1.1,60.03125228427555,
positive,blue,1,k,None,,,,,,,,,0,57,57,57,,,,,,,,,,,,,,,,,main,None,None,1,1.5009849999914877,351.3267590000178,None,None,1,,,,,,,,,,,,,,111,2023-04-04_17h23.17.523,Main,2022.1.1,60.03125228427555,
positive,blue,1,k,None,,,,,,,,,0,58,58,58,,,,,,,,,,,,,,,,,main,None,None,1,1.4966235000174493,353.8293238999904,None,None,1,,,,,,,,,,,,,,111,2023-04-04_17h23.17.523,Main,2022.1.1,60.03125228427555,
negative,yellow,2,k,None,,,,,,,,,0,59,59,59,,,,,,,,,,,,,,,,,main,None,None,1,1.503013799956534,356.3266272000037,None,None,1,,,,,,,,,,,,,,111,2023-04-04_17h23.17.523,Main,2022.1.1,60.03125228427555,
positive,red,2,None,None,,,,,,,,,0,60,60,60,,,,,,,,,,,,,,,,,main,None,None,1,1.4954128000536002,358.82915669999784,None,None,1,,,,,,,,,,,,,,111,2023-04-04_17h23.17.523,Main,2022.1.1,60.03125228427555,
negative,yellow,1,k,None,,,,,,,,,0,61,61,61,,,,,,,,,,,,,,,,,main,None,None,1,1.5014179999707267,361.3265112999943,None,None,1,,,,,,,,,,,,,,111,2023-04-04_17h23.17.523,Main,2022.1.1,60.03125228427555,
negative,red,1,None,None,,,,,,,,,0,62,62,62,,,,,,,,,,,,,,,,,main,None,None,1,1.5011138999834657,363.8291229000315,None,None,1,,,,,,,,,,,,,,111,2023-04-04_17h23.17.523,Main,2022.1.1,60.03125228427555,
negative,blue,1,None,k,,,,,,,,,0,63,63,63,,,,,,,,,,,,,,,,,main,k,k,1,0.9109824000042863,366.32919760001823,None,None,0,,,,,,,,,,,,,,111,2023-04-04_17h23.17.523,Main,2022.1.1,60.03125228427555,
positive,blue,2,k,None,,,,,,,,,0,64,64,64,,,,,,,,,,,,,,,,,main,None,None,1,1.5015534999547526,368.2430309000192,None,None,1,,,,,,,,,,,,,,111,2023-04-04_17h23.17.523,Main,2022.1.1,60.03125228427555,
negative,yellow,2,k,None,,,,,,,,,0,65,65,65,,,,,,,,,,,,,,,,,main,None,None,1,1.501739399973303,370.7455836000154,None,None,1,,,,,,,,,,,,,,111,2023-04-04_17h23.17.523,Main,2022.1.1,60.03125228427555,
positive,yellow,2,None,k,,,,,,,,,0,66,66,66,,,,,,,,,,,,,,,,,main,k,k,1,0.8941046999534592,373.24667520000366,None,None,0,,,,,,,,,,,,,,111,2023-04-04_17h23.17.523,Main,2022.1.1,60.03125228427555,
positive,yellow,2,None,k,,,,,,,,,0,67,67,67,,,,,,,,,,,,,,,,,main,k,k,1,0.7318999999552034,375.1454642000026,None,None,0,,,,,,,,,,,,,,111,2023-04-04_17h23.17.523,Main,2022.1.1,60.03125228427555,
positive,red,1,None,None,,,,,,,,,0,68,68,68,,,,,,,,,,,,,,,,,main,None,None,1,1.50156160001643,376.8761769999983,None,None,1,,,,,,,,,,,,,,111,2023-04-04_17h23.17.523,Main,2022.1.1,60.03125228427555,
positive,yellow,1,None,k,,,,,,,,,0,69,69,69,,,,,,,,,,,,,,,,,main,k,k,1,0.7662239000201225,379.3787252000184,None,None,0,,,,,,,,,,,,,,111,2023-04-04_17h23.17.523,Main,2022.1.1,60.03125228427555,
negative,yellow,2,k,None,,,,,,,,,0,70,70,70,,,,,,,,,,,,,,,,,main,None,None,1,1.4964495999738574,381.1454148000339,None,None,1,,,,,,,,,,,,,,111,2023-04-04_17h23.17.523,Main,2022.1.1,60.03125228427555,
positive,yellow,1,None,k,,,,,,,,,0,71,71,71,,,,,,,,,,,,,,,,,main,k,k,1,0.9517466999823228,383.64275990001624,None,None,0,,,,,,,,,,,,,,111,2023-04-04_17h23.17.523,Main,2022.1.1,60.03125228427555,
negative,blue,1,None,k,,,,,,,,,0,72,72,72,,,,,,,,,,,,,,,,,main,k,k,1,0.8158647999516688,385.5953208000283,None,None,0,,,,,,,,,,,,,,111,2023-04-04_17h23.17.523,Main,2022.1.1,60.03125228427555,
negative,red,2,None,None,,,,,,,,,0,73,73,73,,,,,,,,,,,,,,,,,main,None,None,1,1.496230499993544,387.411940400023,None,None,1,,,,,,,,,,,,,,111,2023-04-04_17h23.17.523,Main,2022.1.1,60.03125228427555,
positive,blue,2,k,None,,,,,,,,,0,74,74,74,,,,,,,,,,,,,,,,,main,None,None,1,1.5018146999645978,389.91164740000386,None,None,1,,,,,,,,,,,,,,111,2023-04-04_17h23.17.523,Main,2022.1.1,60.03125228427555,
negative,blue,2,None,k,,,,,,,,,0,75,75,75,,,,,,,,,,,,,,,,,main,k,k,1,0.7801929999841377,392.41182929999195,None,None,0,,,,,,,,,,,,,,111,2023-04-04_17h23.17.523,Main,2022.1.1,60.03125228427555,
negative,blue,2,None,k,,,,,,,,,0,76,76,76,,,,,,,,,,,,,,,,,main,k,k,1,0.8490482000051998,394.1924895000411,None,None,0,,,,,,,,,,,,,,111,2023-04-04_17h23.17.523,Main,2022.1.1,60.03125228427555,
negative,yellow,1,k,None,,,,,,,,,0,77,77,77,,,,,,,,,,,,,,,,,main,None,None,1,1.501678200031165,396.0424736000132,None,None,1,,,,,,,,,,,,,,111,2023-04-04_17h23.17.523,Main,2022.1.1,60.03125228427555,
positive,blue,1,k,None,,,,,,,,,0,78,78,78,,,,,,,,,,,,,,,,,main,None,None,1,1.4988436000421643,398.54506969999056,None,None,1,,,,,,,,,,,,,,111,2023-04-04_17h23.17.523,Main,2022.1.1,60.03125228427555,
positive,blue,1,k,None,,,,,,,,,0,79,79,79,,,,,,,,,,,,,,,,,main,None,None,1,1.4973728000186384,401.0447887000046,None,None,1,,,,,,,,,,,,,,111,2023-04-04_17h23.17.523,Main,2022.1.1,60.03125228427555,
positive,red,2,None,None,,,,,,,,,0,80,80,80,,,,,,,,,,,,,,,,,main,None,None,1,1.4982267000013962,403.54227650002576,None,None,1,,,,,,,,,,,,,,111,2023-04-04_17h23.17.523,Main,2022.1.1,60.03125228427555,
positive,yellow,2,None,k,,,,,,,,,0,81,81,81,,,,,,,,,,,,,,,,,main,k,k,1,1.0686665000393987,406.0422705000383,None,None,0,,,,,,,,,,,,,,111,2023-04-04_17h23.17.523,Main,2022.1.1,60.03125228427555,
positive,blue,1,k,None,,,,,,,,,0,82,82,82,,,,,,,,,,,,,,,,,main,None,None,1,1.498768999997992,408.1115579000325,None,None,1,,,,,,,,,,,,,,111,2023-04-04_17h23.17.523,Main,2022.1.1,60.03125228427555,
negative,yellow,2,k,None,,,,,,,,,0,83,83,83,,,,,,,,,,,,,,,,,main,None,None,1,1.496295300021302,410.6112865000032,None,None,1,,,,,,,,,,,,,,111,2023-04-04_17h23.17.523,Main,2022.1.1,60.03125228427555,
positive,blue,2,k,None,,,,,,,,,0,84,84,84,,,,,,,,,,,,,,,,,main,None,None,1,1.50190069997916,413.1093441999983,None,None,1,,,,,,,,,,,,,,111,2023-04-04_17h23.17.523,Main,2022.1.1,60.03125228427555,
positive,yellow,1,None,k,,,,,,,,,0,85,85,85,,,,,,,,,,,,,,,,,main,k,k,1,1.0661316000041552,415.6112865000032,None,None,0,,,,,,,,,,,,,,111,2023-04-04_17h23.17.523,Main,2022.1.1,60.03125228427555,
positive,blue,2,k,None,,,,,,,,,0,86,86,86,,,,,,,,,,,,,,,,,main,None,None,1,1.4966461999574676,417.6779466000153,None,None,1,,,,,,,,,,,,,,111,2023-04-04_17h23.17.523,Main,2022.1.1,60.03125228427555,
positive,blue,1,k,None,,,,,,,,,0,87,87,87,,,,,,,,,,,,,,,,,main,None,None,1,1.501167600043118,420.17578160000267,None,None,1,,,,,,,,,,,,,,111,2023-04-04_17h23.17.523,Main,2022.1.1,60.03125228427555,
negative,yellow,2,k,None,,,,,,,,,0,88,88,88,,,,,,,,,,,,,,,,,main,None,None,1,1.4990832000039518,422.6778275000397,None,None,1,,,,,,,,,,,,,,111,2023-04-04_17h23.17.523,Main,2022.1.1,60.03125228427555,
negative,blue,2,None,k,,,,,,,,,0,89,89,89,,,,,,,,,,,,,,,,,main,k,k,1,0.7637718000332825,425.1778043000377,None,None,0,,,,,,,,,,,,,,111,2023-04-04_17h23.17.523,Main,2022.1.1,60.03125228427555,
positive,yellow,2,None,k,,,,,,,,,0,90,90,90,,,,,,,,,,,,,,,,,main,k,k,1,0.8683868999942206,426.94178719999036,None,None,0,,,,,,,,,,,,,,111,2023-04-04_17h23.17.523,Main,2022.1.1,60.03125228427555,
negative,yellow,1,k,None,,,,,,,,,0,91,91,91,,,,,,,,,,,,,,,,,main,None,None,1,1.49833440000657,428.81098579999525,None,None,1,,,,,,,,,,,,,,111,2023-04-04_17h23.17.523,Main,2022.1.1,60.03125228427555,
negative,red,2,None,None,,,,,,,,,0,92,92,92,,,,,,,,,,,,,,,,,main,None,None,1,1.4965415999758989,431.3109133000253,None,None,1,,,,,,,,,,,,,,111,2023-04-04_17h23.17.523,Main,2022.1.1,60.03125228427555,
negative,blue,2,None,k,,,,,,,,,0,93,93,93,,,,,,,,,,,,,,,,,main,k,k,1,0.9020898999879137,433.8083334999974,None,None,0,,,,,,,,,,,,,,111,2023-04-04_17h23.17.523,Main,2022.1.1,60.03125228427555,
negative,blue,1,None,k,,,,,,,,,0,94,94,94,,,,,,,,,,,,,,,,,main,k,k,1,0.8988157999701798,435.7108825999894,None,None,0,,,,,,,,,,,,,,111,2023-04-04_17h23.17.523,Main,2022.1.1,60.03125228427555,
negative,blue,1,None,k,,,,,,,,,0,95,95,95,,,,,,,,,,,,,,,,,main,k,k,1,0.7965717000188306,437.6107991000172,None,None,0,,,,,,,,,,,,,,111,2023-04-04_17h23.17.523,Main,2022.1.1,60.03125228427555,
negative,red,1,None,None,,,,,,,,,0,96,96,96,,,,,,,,,,,,,,,,,main,None,None,1,1.5015695000183769,439.40815000003204,None,None,1,,,,,,,,,,,,,,111,2023-04-04_17h23.17.523,Main,2022.1.1,60.03125228427555,
positive,yellow,1,None,k,,,,,,,,,0,97,97,97,,,,,,,,,,,,,,,,,main,k,k,1,0.715913099993486,441.91082600003574,None,None,0,,,,,,,,,,,,,,111,2023-04-04_17h23.17.523,Main,2022.1.1,60.03125228427555,
negative,yellow,1,k,None,,,,,,,,,0,98,98,98,,,,,,,,,,,,,,,,,main,None,None,1,1.4964202999835834,443.6274068999919,None,None,1,,,,,,,,,,,,,,111,2023-04-04_17h23.17.523,Main,2022.1.1,60.03125228427555,
positive,red,1,None,None,,,,,,,,,0,99,99,99,,,,,,,,,,,,,,,,,main,None,None,1,1.501678799977526,446.1247483000043,None,None,1,,,,,,,,,,,,,,111,2023-04-04_17h23.17.523,Main,2022.1.1,60.03125228427555,
positive,blue,1,k,None,,,,,,,,,0,100,100,100,,,,,,,,,,,,,,,,,main,None,None,1,1.498789899982512,448.62733380001737,None,None,1,,,,,,,,,,,,,,111,2023-04-04_17h23.17.523,Main,2022.1.1,60.03125228427555,
negative,yellow,1,k,None,,,,,,,,,0,101,101,101,,,,,,,,,,,,,,,,,main,None,None,1,1.4967354999971576,451.1271078000427,None,None,1,,,,,,,,,,,,,,111,2023-04-04_17h23.17.523,Main,2022.1.1,60.03125228427555,
negative,blue,2,None,k,,,,,,,,,0,102,102,102,,,,,,,,,,,,,,,,,main,k,k,1,0.818515999999363,453.6245423000073,None,None,0,,,,,,,,,,,,,,111,2023-04-04_17h23.17.523,Main,2022.1.1,60.03125228427555,
negative,yellow,2,k,None,,,,,,,,,0,103,103,103,,,,,,,,,,,,,,,,,main,None,None,1,1.4980774000287056,455.4437605999992,None,None,1,,,,,,,,,,,,,,111,2023-04-04_17h23.17.523,Main,2022.1.1,60.03125228427555,
positive,yellow,2,None,k,,,,,,,,,0,104,104,104,,,,,,,,,,,,,,,,,main,k,k,1,0.7293857999611646,457.94374970003264,None,None,0,,,,,,,,,,,,,,111,2023-04-04_17h23.17.523,Main,2022.1.1,60.03125228427555,
positive,blue,1,k,None,,,,,,,,,0,105,105,105,,,,,,,,,,,,,,,,,main,None,None,1,1.501514000003226,459.67440370004624,None,None,1,,,,,,,,,,,,,,111,2023-04-04_17h23.17.523,Main,2022.1.1,60.03125228427555,
positive,blue,2,k,None,,,,,,,,,0,106,106,106,,,,,,,,,,,,,,,,,main,None,None,1,1.4993399999802932,462.1769681000151,None,None,1,,,,,,,,,,,,,,111,2023-04-04_17h23.17.523,Main,2022.1.1,60.03125228427555,
negative,blue,1,None,k,,,,,,,,,0,107,107,107,,,,,,,,,,,,,,,,,main,k,k,1,0.7469259999925271,464.67700850003166,None,None,0,,,,,,,,,,,,,,111,2023-04-04_17h23.17.523,Main,2022.1.1,60.03125228427555,
positive,yellow,2,None,k,,,,,,,,,0,108,108,108,,,,,,,,,,,,,,,,,main,k,k,1,0.8866164999781176,466.42422950000037,None,None,0,,,,,,,,,,,,,,111,2023-04-04_17h23.17.523,Main,2022.1.1,60.03125228427555,
negative,yellow,1,k,None,,,,,,,,,0,109,109,109,,,,,,,,,,,,,,,,,main,None,None,1,1.4968893000041135,468.3100905000465,None,None,1,,,,,,,,,,,,,,111,2023-04-04_17h23.17.523,Main,2022.1.1,60.03125228427555,
negative,blue,2,None,k,,,,,,,,,0,110,110,110,,,,,,,,,,,,,,,,,main,k,k,1,0.8470055000507273,470.8101214999915,None,None,0,,,,,,,,,,,,,,111,2023-04-04_17h23.17.523,Main,2022.1.1,60.03125228427555,
positive,blue,2,k,None,,,,,,,,,0,111,111,111,,,,,,,,,,,,,,,,,main,None,None,1,1.5016561000375077,472.6574383000261,None,None,1,,,,,,,,,,,,,,111,2023-04-04_17h23.17.523,Main,2022.1.1,60.03125228427555,
negative,blue,1,None,k,,,,,,,,,0,112,112,112,,,,,,,,,,,,,,,,,main,k,k,1,1.346495900012087,475.1600027999957,None,None,0,,,,,,,,,,,,,,111,2023-04-04_17h23.17.523,Main,2022.1.1,60.03125228427555,
positive,yellow,1,None,k,,,,,,,,,0,113,113,113,,,,,,,,,,,,,,,,,main,k,k,1,0.6992839999729767,477.50736610003514,None,None,0,,,,,,,,,,,,,,111,2023-04-04_17h23.17.523,Main,2022.1.1,60.03125228427555,
negative,red,1,None,None,,,,,,,,,0,114,114,114,,,,,,,,,,,,,,,,,main,None,None,1,1.5015499999863096,479.207369700016,None,None,1,,,,,,,,,,,,,,111,2023-04-04_17h23.17.523,Main,2022.1.1,60.03125228427555,
positive,red,1,None,None,,,,,,,,,0,115,115,115,,,,,,,,,,,,,,,,,main,None,None,1,1.498795599967707,481.70990890002577,None,None,1,,,,,,,,,,,,,,111,2023-04-04_17h23.17.523,Main,2022.1.1,60.03125228427555,
negative,red,2,None,None,,,,,,,,,0,116,116,116,,,,,,,,,,,,,,,,,main,None,None,1,1.4964494000305422,484.2097125000437,None,None,1,,,,,,,,,,,,,,111,2023-04-04_17h23.17.523,Main,2022.1.1,60.03125228427555,
negative,yellow,2,k,None,,,,,,,,,0,117,117,117,,,,,,,,,,,,,,,,,main,None,None,1,1.5018002999713644,486.7071443000459,None,None,1,,,,,,,,,,,,,,111,2023-04-04_17h23.17.523,Main,2022.1.1,60.03125228427555,
positive,yellow,1,None,k,,,,,,,,,0,118,118,118,,,,,,,,,,,,,,,,,main,k,k,1,0.9664532999740914,489.2097179000266,None,None,0,,,,,,,,,,,,,,111,2023-04-04_17h23.17.523,Main,2022.1.1,60.03125228427555,
positive,red,2,None,None,,,,,,,,,0,119,119,119,,,,,,,,,,,,,,,,,main,None,None,1,1.4997597000328824,491.1763981000404,None,None,1,,,,,,,,,,,,,,111,2023-04-04_17h23.17.523,Main,2022.1.1,60.03125228427555,
positive,blue,2,k,None,,,,,,,,,0,120,120,120,,,,,,,,,,,,,,,,,main,None,None,1,1.4951800999697298,493.6761306000408,None,None,1,,,,,,,,,,,,,,111,2023-04-04_17h23.17.523,Main,2022.1.1,60.03125228427555,
negative,red,1,None,None,,,,,,,,,0,121,121,121,,,,,,,,,,,,,,,,,main,None,None,1,1.4993088000337593,496.1737693999894,None,None,1,,,,,,,,,,,,,,111,2023-04-04_17h23.17.523,Main,2022.1.1,60.03125228427555,
positive,yellow,2,None,k,,,,,,,,,0,122,122,122,,,,,,,,,,,,,,,,,main,k,k,1,0.8518166999565437,498.6736196000129,None,None,0,,,,,,,,,,,,,,111,2023-04-04_17h23.17.523,Main,2022.1.1,60.03125228427555,
negative,red,2,None,None,,,,,,,,,0,123,123,123,,,,,,,,,,,,,,,,,main,None,None,1,1.5025130999856628,500.52615450002486,None,None,1,,,,,,,,,,,,,,111,2023-04-04_17h23.17.523,Main,2022.1.1,60.03125228427555,
negative,yellow,2,k,None,,,,,,,,,0,124,124,124,,,,,,,,,,,,,,,,,main,None,None,1,1.4929504000465386,503.0278064000304,None,None,1,,,,,,,,,,,,,,111,2023-04-04_17h23.17.523,Main,2022.1.1,60.03125228427555,
positive,red,1,None,None,,,,,,,,,0,125,125,125,,,,,,,,,,,,,,,,,main,None,None,1,1.5017255999846384,505.5234487000271,None,None,1,,,,,,,,,,,,,,111,2023-04-04_17h23.17.523,Main,2022.1.1,60.03125228427555,
negative,blue,2,None,k,,,,,,,,,0,126,126,126,,,,,,,,,,,,,,,,,main,k,k,1,0.7800985000212677,508.0267024000059,None,None,0,,,,,,,,,,,,,,111,2023-04-04_17h23.17.523,Main,2022.1.1,60.03125228427555,
negative,blue,1,None,k,,,,,,,,,0,127,127,127,,,,,,,,,,,,,,,,,main,k,k,1,1.1018502000370063,509.8067449000082,None,None,0,,,,,,,,,,,,,,111,2023-04-04_17h23.17.523,Main,2022.1.1,60.03125228427555,
negative,yellow,1,k,None,,,,,,,,,0,128,128,128,,,,,,,,,,,,,,,,,main,None,None,1,1.4988802000298165,511.90930410003057,None,None,1,,,,,,,,,,,,,,111,2023-04-04_17h23.17.523,Main,2022.1.1,60.03125228427555,
negative,yellow,1,k,None,,,,,,,,,0,129,129,129,,,,,,,,,,,,,,,,,main,None,None,1,1.4964140999945812,514.4091223000432,None,None,1,,,,,,,,,,,,,,111,2023-04-04_17h23.17.523,Main,2022.1.1,60.03125228427555,
positive,blue,1,k,None,,,,,,,,,0,130,130,130,,,,,,,,,,,,,,,,,main,None,None,1,1.5019869999960065,516.9064823000226,None,None,1,,,,,,,,,,,,,,111,2023-04-04_17h23.17.523,Main,2022.1.1,60.03125228427555,
negative,blue,1,None,k,,,,,,,,,0,131,131,131,,,,,,,,,,,,,,,,,main,k,k,1,0.7687700999667868,519.4090918000438,None,None,0,,,,,,,,,,,,,,111,2023-04-04_17h23.17.523,Main,2022.1.1,60.03125228427555,
negative,blue,2,None,k,,,,,,,,,0,132,132,132,,,,,,,,,,,,,,,,,main,k,k,1,0.7794075999991037,521.1771600000211,None,None,0,,,,,,,,,,,,,,111,2023-04-04_17h23.17.523,Main,2022.1.1,60.03125228427555,
positive,blue,2,k,None,,,,,,,,,0,133,133,133,,,,,,,,,,,,,,,,,main,None,None,1,1.4966238999622874,522.9588213000097,None,None,1,,,,,,,,,,,,,,111,2023-04-04_17h23.17.523,Main,2022.1.1,60.03125228427555,
positive,red,2,None,None,,,,,,,,,0,134,134,134,,,,,,,,,,,,,,,,,main,None,None,1,1.501713200006634,525.4563013000297,None,None,1,,,,,,,,,,,,,,111,2023-04-04_17h23.17.523,Main,2022.1.1,60.03125228427555,
negative,yellow,2,k,None,,,,,,,,,0,135,135,135,,,,,,,,,,,,,,,,,main,None,None,1,1.4990244999644347,527.9589218000183,None,None,1,,,,,,,,,,,,,,111,2023-04-04_17h23.17.523,Main,2022.1.1,60.03125228427555,
positive,yellow,2,None,k,,,,,,,,,0,136,136,136,,,,,,,,,,,,,,,,,main,k,k,1,0.7133520999923348,530.4587852000259,None,None,0,,,,,,,,,,,,,,111,2023-04-04_17h23.17.523,Main,2022.1.1,60.03125228427555,
positive,blue,1,k,None,,,,,,,,,0,137,137,137,,,,,,,,,,,,,,,,,main,None,None,1,1.502257100015413,532.1728445999906,None,None,1,,,,,,,,,,,,,,111,2023-04-04_17h23.17.523,Main,2022.1.1,60.03125228427555,
positive,yellow,1,None,k,,,,,,,,,0,138,138,138,,,,,,,,,,,,,,,,,main,k,k,1,1.3820158999878913,534.6753499000333,None,None,0,,,,,,,,,,,,,,111,2023-04-04_17h23.17.523,Main,2022.1.1,60.03125228427555,
positive,yellow,1,None,k,,,,,,,,,0,139,139,139,,,,,,,,,,,,,,,,,main,k,k,1,0.8801828000578098,537.0588321000105,None,None,0,,,,,,,,,,,,,,111,2023-04-04_17h23.17.523,Main,2022.1.1,60.03125228427555,
positive,yellow,1,None,k,,,,,,,,,0,140,140,140,,,,,,,,,,,,,,,,,main,k,k,1,0.8012049999670126,538.9393509000074,None,None,0,,,,,,,,,,,,,,111,2023-04-04_17h23.17.523,Main,2022.1.1,60.03125228427555,
positive,blue,1,k,None,,,,,,,,,0,141,141,141,,,,,,,,,,,,,,,,,main,None,None,1,1.498724500008393,540.7420715999906,None,None,1,,,,,,,,,,,,,,111,2023-04-04_17h23.17.523,Main,2022.1.1,60.03125228427555,
positive,blue,2,k,None,,,,,,,,,0,142,142,142,,,,,,,,,,,,,,,,,main,None,None,1,1.4964484999654815,543.2419279000023,None,None,1,,,,,,,,,,,,,,111,2023-04-04_17h23.17.523,Main,2022.1.1,60.03125228427555,
positive,yellow,2,None,k,,,,,,,,,0,143,143,143,,,,,,,,,,,,,,,,,main,k,k,1,0.7857749999966472,545.7392636000295,None,None,0,,,,,,,,,,,,,,111,2023-04-04_17h23.17.523,Main,2022.1.1,60.03125228427555,
negative,yellow,2,k,None,,,,,,,,,0,144,144,144,,,,,,,,,,,,,,,,,main,None,None,1,1.4959109000046737,547.5251553000417,None,None,1,,,,,,,,,,,,,,111,2023-04-04_17h23.17.523,Main,2022.1.1,60.03125228427555,
negative,blue,2,None,k,,,,,,,,,0,145,145,145,,,,,,,,,,,,,,,,,main,k,k,1,0.8996644000289962,550.0224593000021,None,None,0,,,,,,,,,,,,,,111,2023-04-04_17h23.17.523,Main,2022.1.1,60.03125228427555,
negative,red,1,None,None,,,,,,,,,0,146,146,146,,,,,,,,,,,,,,,,,main,None,None,1,1.5013010000111535,551.9224719000049,None,None,1,,,,,,,,,,,,,,111,2023-04-04_17h23.17.523,Main,2022.1.1,60.03125228427555,
positive,blue,1,k,None,,,,,,,,,0,147,147,147,,,,,,,,,,,,,,,,,main,None,None,1,1.496440300019458,554.425055700005,None,None,1,,,,,,,,,,,,,,111,2023-04-04_17h23.17.523,Main,2022.1.1,60.03125228427555,
positive,yellow,1,None,k,,,,,,,,,0,148,148,148,,,,,,,,,,,,,,,,,main,k,k,1,0.8687352000270039,556.922281200008,None,None,0,,,,,,,,,,,,,,111,2023-04-04_17h23.17.523,Main,2022.1.1,60.03125228427555,
negative,red,2,None,None,,,,,,,,,0,149,149,149,,,,,,,,,,,,,,,,,main,None,None,1,1.4989514999906532,558.7915176000097,None,None,1,,,,,,,,,,,,,,111,2023-04-04_17h23.17.523,Main,2022.1.1,60.03125228427555,
negative,blue,1,None,k,,,,,,,,,0,150,150,150,,,,,,,,,,,,,,,,,main,k,k,1,1.1629908000468276,561.2915254000109,None,None,0,,,,,,,,,,,,,,111,2023-04-04_17h23.17.523,Main,2022.1.1,60.03125228427555,
negative,yellow,2,k,None,,,,,,,,,0,151,151,151,,,,,,,,,,,,,,,,,main,None,None,1,1.5012994999997318,563.4555379000376,None,None,1,,,,,,,,,,,,,,111,2023-04-04_17h23.17.523,Main,2022.1.1,60.03125228427555,
negative,blue,2,None,k,,,,,,,,,0,152,152,152,,,,,,,,,,,,,,,,,main,k,k,1,0.7298356000101194,565.9581055000308,None,None,0,,,,,,,,,,,,,,111,2023-04-04_17h23.17.523,Main,2022.1.1,60.03125228427555,
negative,yellow,1,k,None,,,,,,,,,0,153,153,153,,,,,,,,,,,,,,,,,main,None,None,1,1.5017086999723688,567.6887119000312,None,None,1,,,,,,,,,,,,,,111,2023-04-04_17h23.17.523,Main,2022.1.1,60.03125228427555,
negative,blue,1,None,k,,,,,,,,,0,154,154,154,,,,,,,,,,,,,,,,,main,k,k,1,0.8161053000367247,570.1913359000464,None,None,0,,,,,,,,,,,,,,111,2023-04-04_17h23.17.523,Main,2022.1.1,60.03125228427555,
positive,yellow,2,None,k,,,,,,,,,0,155,155,155,,,,,,,,,,,,,,,,,main,k,k,1,0.7015025999862701,572.0079091000371,None,None,0,,,,,,,,,,,,,,111,2023-04-04_17h23.17.523,Main,2022.1.1,60.03125228427555,
positive,red,2,None,None,,,,,,,,,0,156,156,156,,,,,,,,,,,,,,,,,main,None,None,1,1.4963167000096291,573.7072941000224,None,None,1,,,,,,,,,,,,,,111,2023-04-04_17h23.17.523,Main,2022.1.1,60.03125228427555,
positive,red,1,None,None,,,,,,,,,0,157,157,157,,,,,,,,,,,,,,,,,main,None,None,1,1.4989988000015728,576.2078484999947,None,None,1,,,,,,,,,,,,,,111,2023-04-04_17h23.17.523,Main,2022.1.1,60.03125228427555,
positive,blue,2,k,None,,,,,,,,,0,158,158,158,,,,,,,,,,,,,,,,,main,None,None,1,1.4963106000213884,578.7077945999918,None,None,1,,,,,,,,,,,,,,111,2023-04-04_17h23.17.523,Main,2022.1.1,60.03125228427555,
negative,yellow,1,k,None,,,,,,,,,0,159,159,159,,,,,,,,,,,,,,,,,main,None,None,1,1.5017671000096016,581.2050844000187,None,None,1,,,,,,,,,,,,,,111,2023-04-04_17h23.17.523,Main,2022.1.1,60.03125228427555,
negative,red,2,None,None,,,,,,,,,0,160,160,160,,,,,,,,,,,,,,,,,main,None,None,1,1.4966859999694861,583.7076758000185,None,None,1,,,,,,,,,,,,,,111,2023-04-04_17h23.17.523,Main,2022.1.1,60.03125228427555,
negative,blue,1,None,k,,,,,,,,,0,161,161,161,,,,,,,,,,,,,,,,,main,k,k,1,0.7508529999759048,586.2049771000165,None,None,0,,,,,,,,,,,,,,111,2023-04-04_17h23.17.523,Main,2022.1.1,60.03125228427555,
negative,blue,1,None,k,,,,,,,,,0,162,162,162,,,,,,,,,,,,,,,,,main,k,k,1,0.6334048999706283,587.9550025000353,None,None,0,,,,,,,,,,,,,,111,2023-04-04_17h23.17.523,Main,2022.1.1,60.03125228427555,
negative,yellow,1,k,None,,,,,,,,,0,163,163,163,,,,,,,,,,,,,,,,,main,None,None,1,1.496115199988708,589.5908775000134,None,None,1,,,,,,,,,,,,,,111,2023-04-04_17h23.17.523,Main,2022.1.1,60.03125228427555,
negative,yellow,1,k,None,,,,,,,,,0,164,164,164,,,,,,,,,,,,,,,,,main,None,None,1,1.5016936999745667,592.088201400009,None,None,1,,,,,,,,,,,,,,111,2023-04-04_17h23.17.523,Main,2022.1.1,60.03125228427555,
positive,yellow,1,None,k,,,,,,,,,0,165,165,165,,,,,,,,,,,,,,,,,main,k,k,1,0.6829002000158653,594.5907434000401,None,None,0,,,,,,,,,,,,,,111,2023-04-04_17h23.17.523,Main,2022.1.1,60.03125228427555,
negative,red,1,None,None,,,,,,,,,0,166,166,166,,,,,,,,,,,,,,,,,main,None,None,1,1.4960206000250764,596.2741088999901,None,None,1,,,,,,,,,,,,,,111,2023-04-04_17h23.17.523,Main,2022.1.1,60.03125228427555,
negative,yellow,2,k,None,,,,,,,,,0,167,167,167,,,,,,,,,,,,,,,,,main,None,None,1,1.501656299980823,598.7720438000397,None,None,1,,,,,,,,,,,,,,111,2023-04-04_17h23.17.523,Main,2022.1.1,60.03125228427555,
positive,blue,2,k,None,,,,,,,,,0,168,168,168,,,,,,,,,,,,,,,,,main,None,None,1,1.502070399990771,601.2739408999914,None,None,1,,,,,,,,,,,,,,111,2023-04-04_17h23.17.523,Main,2022.1.1,60.03125228427555,
positive,red,2,None,None,,,,,,,,,0,169,169,169,,,,,,,,,,,,,,,,,main,None,None,1,1.49617080000462,603.7745573000284,None,None,1,,,,,,,,,,,,,,111,2023-04-04_17h23.17.523,Main,2022.1.1,60.03125228427555,
positive,red,1,None,None,,,,,,,,,0,170,170,170,,,,,,,,,,,,,,,,,main,None,None,1,1.496670600026846,606.2737518000067,None,None,1,,,,,,,,,,,,,,111,2023-04-04_17h23.17.523,Main,2022.1.1,60.03125228427555,
negative,blue,2,None,k,,,,,,,,,0,171,171,171,,,,,,,,,,,,,,,,,main,k,k,1,0.9520559000084177,608.7711657999898,None,None,0,,,,,,,,,,,,,,111,2023-04-04_17h23.17.523,Main,2022.1.1,60.03125228427555,
positive,blue,2,k,None,,,,,,,,,0,172,172,172,,,,,,,,,,,,,,,,,main,None,None,1,1.4991462999605574,610.7238043000107,None,None,1,,,,,,,,,,,,,,111,2023-04-04_17h23.17.523,Main,2022.1.1,60.03125228427555,
negative,yellow,2,k,None,,,,,,,,,0,173,173,173,,,,,,,,,,,,,,,,,main,None,None,1,1.4965343000367284,613.2238748000236,None,None,1,,,,,,,,,,,,,,111,2023-04-04_17h23.17.523,Main,2022.1.1,60.03125228427555,
positive,yellow,2,None,k,,,,,,,,,0,174,174,174,,,,,,,,,,,,,,,,,main,k,k,1,0.7022667999844998,615.7210783000337,None,None,0,,,,,,,,,,,,,,111,2023-04-04_17h23.17.523,Main,2022.1.1,60.03125228427555,
negative,blue,2,None,k,,,,,,,,,0,175,175,175,,,,,,,,,,,,,,,,,main,k,k,1,0.7971643999917433,617.4237101000035,None,None,0,,,,,,,,,,,,,,111,2023-04-04_17h23.17.523,Main,2022.1.1,60.03125228427555,
positive,blue,1,k,None,,,,,,,,,0,176,176,176,,,,,,,,,,,,,,,,,main,None,None,1,1.4975842999992892,619.2235980000114,None,None,1,,,,,,,,,,,,,,111,2023-04-04_17h23.17.523,Main,2022.1.1,60.03125228427555,
positive,yellow,1,None,k,,,,,,,,,0,177,177,177,,,,,,,,,,,,,,,,,main,k,k,1,0.9351078000036068,621.7209112000419,None,None,0,,,,,,,,,,,,,,111,2023-04-04_17h23.17.523,Main,2022.1.1,60.03125228427555,
positive,blue,1,k,None,,,,,,,,,0,178,178,178,,,,,,,,,,,,,,,,,main,None,None,1,1.4992888999986462,623.6568248000112,None,None,1,,,,,,,,,,,,,,111,2023-04-04_17h23.17.523,Main,2022.1.1,60.03125228427555,
positive,yellow,2,None,k,,,,,,,,,0,179,179,179,,,,,,,,,,,,,,,,,main,k,k,1,0.6631675999960862,626.156775600044,None,None,0,,,,,,,,,,,,,,111,2023-04-04_17h23.17.523,Main,2022.1.1,60.03125228427555,
positive,blue,1,k,None,,,,,,,,,0,180,180,180,,,,,,,,,,,,,,,,,main,None,None,1,1.5013174000196159,627.8207770000445,None,None,1,,,,,,,,,,,,,,111,2023-04-04_17h23.17.523,Main,2022.1.1,60.03125228427555,
negative,red,1,None,None,,,,,,,,,0,181,181,181,,,,,,,,,,,,,,,,,main,None,None,1,1.5023541999980807,630.324061500025,None,None,1,,,,,,,,,,,,,,111,2023-04-04_17h23.17.523,Main,2022.1.1,60.03125228427555,
negative,blue,1,None,k,,,,,,,,,0,182,182,182,,,,,,,,,,,,,,,,,main,k,k,1,0.793610799999442,632.8245696999948,None,None,0,,,,,,,,,,,,,,111,2023-04-04_17h23.17.523,Main,2022.1.1,60.03125228427555,
negative,yellow,2,k,None,,,,,,,,,0,183,183,183,,,,,,,,,,,,,,,,,main,None,None,1,1.5012931000092067,634.6206347999978,None,None,1,,,,,,,,,,,,,,111,2023-04-04_17h23.17.523,Main,2022.1.1,60.03125228427555,
positive,yellow,2,None,k,,,,,,,,,0,184,184,184,,,,,,,,,,,,,,,,,main,k,k,1,0.752089099958539,637.1231497999979,None,None,0,,,,,,,,,,,,,,111,2023-04-04_17h23.17.523,Main,2022.1.1,60.03125228427555,
positive,yellow,1,None,k,,,,,,,,,0,185,185,185,,,,,,,,,,,,,,,,,main,k,k,1,0.7464978999923915,638.8795869000023,None,None,0,,,,,,,,,,,,,,111,2023-04-04_17h23.17.523,Main,2022.1.1,60.03125228427555,
positive,red,2,None,None,,,,,,,,,0,186,186,186,,,,,,,,,,,,,,,,,main,None,None,1,1.4972402999992482,640.6230210000067,None,None,1,,,,,,,,,,,,,,111,2023-04-04_17h23.17.523,Main,2022.1.1,60.03125228427555,
positive,blue,1,k,None,,,,,,,,,0,187,187,187,,,,,,,,,,,,,,,,,main,None,None,1,1.5003375000087544,643.1205730999936,None,None,1,,,,,,,,,,,,,,111,2023-04-04_17h23.17.523,Main,2022.1.1,60.03125228427555,
negative,yellow,1,k,None,,,,,,,,,0,188,188,188,,,,,,,,,,,,,,,,,main,None,None,1,1.497139499988407,645.6230241000303,None,None,1,,,,,,,,,,,,,,111,2023-04-04_17h23.17.523,Main,2022.1.1,60.03125228427555,
positive,yellow,2,None,k,,,,,,,,,0,189,189,189,,,,,,,,,,,,,,,,,main,k,k,1,0.6650229999795556,648.1203671999974,None,None,0,,,,,,,,,,,,,,111,2023-04-04_17h23.17.523,Main,2022.1.1,60.03125228427555,
negative,yellow,2,k,None,,,,,,,,,0,190,190,190,,,,,,,,,,,,,,,,,main,None,None,1,1.5017020999803208,649.7869963000412,None,None,1,,,,,,,,,,,,,,111,2023-04-04_17h23.17.523,Main,2022.1.1,60.03125228427555,
negative,yellow,1,k,None,,,,,,,,,0,191,191,191,,,,,,,,,,,,,,,,,main,None,None,1,1.4965266000363044,652.2896004000213,None,None,1,,,,,,,,,,,,,,111,2023-04-04_17h23.17.523,Main,2022.1.1,60.03125228427555,
positive,blue,2,k,None,,,,,,,,,0,192,192,192,,,,,,,,,,,,,,,,,main,None,None,1,1.501489699992817,654.7868476000149,None,None,1,,,,,,,,,,,,,,111,2023-04-04_17h23.17.523,Main,2022.1.1,60.03125228427555,
positive,yellow,1,None,k,,,,,,,,,0,193,193,193,,,,,,,,,,,,,,,,,main,k,k,1,0.7162100999848917,657.2894243000192,None,None,0,,,,,,,,,,,,,,111,2023-04-04_17h23.17.523,Main,2022.1.1,60.03125228427555,
negative,red,2,None,None,,,,,,,,,0,194,194,194,,,,,,,,,,,,,,,,,main,None,None,1,1.4960364999715239,659.0036447000457,None,None,1,,,,,,,,,,,,,,111,2023-04-04_17h23.17.523,Main,2022.1.1,60.03125228427555,
positive,red,1,None,None,,,,,,,,,0,195,195,195,,,,,,,,,,,,,,,,,main,None,None,1,1.5016195999924093,661.5034329000046,None,None,1,,,,,,,,,,,,,,111,2023-04-04_17h23.17.523,Main,2022.1.1,60.03125228427555,
negative,blue,1,None,k,,,,,,,,,0,196,196,196,,,,,,,,,,,,,,,,,main,k,k,1,0.8493820000439882,664.0059214000357,None,None,0,,,,,,,,,,,,,,111,2023-04-04_17h23.17.523,Main,2022.1.1,60.03125228427555,
positive,blue,2,k,None,,,,,,,,,0,197,197,197,,,,,,,,,,,,,,,,,main,None,None,1,1.4990967000485398,665.8557707000291,None,None,1,,,,,,,,,,,,,,111,2023-04-04_17h23.17.523,Main,2022.1.1,60.03125228427555,
negative,blue,2,None,k,,,,,,,,,0,198,198,198,,,,,,,,,,,,,,,,,main,k,k,1,0.7801855999859981,668.3557355999947,None,None,0,,,,,,,,,,,,,,111,2023-04-04_17h23.17.523,Main,2022.1.1,60.03125228427555,
negative,blue,2,None,k,,,,,,,,,0,199,199,199,,,,,,,,,,,,,,,,,main,k,k,1,0.6350440999958664,670.1365367000108,None,None,0,,,,,,,,,,,,,,111,2023-04-04_17h23.17.523,Main,2022.1.1,60.03125228427555,
positive,blue,2,k,None,,,,,,,,,0,200,200,200,,,,,,,,,,,,,,,,,main,None,None,1,1.4987627999507822,671.7724514000001,None,None,1,,,,,,,,,,,,,,111,2023-04-04_17h23.17.523,Main,2022.1.1,60.03125228427555,
positive,blue,2,k,None,,,,,,,,,0,201,201,201,,,,,,,,,,,,,,,,,main,None,None,1,1.4963070999947377,674.2723908000044,None,None,1,,,,,,,,,,,,,,111,2023-04-04_17h23.17.523,Main,2022.1.1,60.03125228427555,
negative,yellow,2,k,None,,,,,,,,,0,202,202,202,,,,,,,,,,,,,,,,,main,None,None,1,1.5025247000157833,676.7697036000318,None,None,1,,,,,,,,,,,,,,111,2023-04-04_17h23.17.523,Main,2022.1.1,60.03125228427555,
positive,red,1,None,None,,,,,,,,,0,203,203,203,,,,,,,,,,,,,,,,,main,None,None,1,1.4955203999998048,679.2723021000274,None,None,1,,,,,,,,,,,,,,111,2023-04-04_17h23.17.523,Main,2022.1.1,60.03125228427555,
negative,blue,2,None,k,,,,,,,,,0,204,204,204,,,,,,,,,,,,,,,,,main,k,k,1,0.8162471000105143,681.7696144999936,None,None,0,,,,,,,,,,,,,,111,2023-04-04_17h23.17.523,Main,2022.1.1,60.03125228427555,
negative,red,1,None,None,,,,,,,,,0,205,205,205,,,,,,,,,,,,,,,,,main,None,None,1,1.5015603000065312,683.5862771000247,None,None,1,,,,,,,,,,,,,,111,2023-04-04_17h23.17.523,Main,2022.1.1,60.03125228427555,
negative,blue,2,None,k,,,,,,,,,0,206,206,206,,,,,,,,,,,,,,,,,main,k,k,1,0.7465775000164285,686.0889042000053,None,None,0,,,,,,,,,,,,,,111,2023-04-04_17h23.17.523,Main,2022.1.1,60.03125228427555,
negative,yellow,2,k,None,,,,,,,,,0,207,207,207,,,,,,,,,,,,,,,,,main,None,None,1,1.501626200042665,687.8361117999884,None,None,1,,,,,,,,,,,,,,111,2023-04-04_17h23.17.523,Main,2022.1.1,60.03125228427555,
positive,yellow,2,None,k,,,,,,,,,0,208,208,208,,,,,,,,,,,,,,,,,main,k,k,1,0.6802855000132695,690.3386949000414,None,None,0,,,,,,,,,,,,,,111,2023-04-04_17h23.17.523,Main,2022.1.1,60.03125228427555,
negative,yellow,1,k,None,,,,,,,,,0,209,209,209,,,,,,,,,,,,,,,,,main,None,None,1,1.4987669000402093,692.0219635000103,None,None,1,,,,,,,,,,,,,,111,2023-04-04_17h23.17.523,Main,2022.1.1,60.03125228427555,
negative,red,2,None,None,,,,,,,,,0,210,210,210,,,,,,,,,,,,,,,,,main,None,None,1,1.5018595000146888,694.5199404000305,None,None,1,,,,,,,,,,,,,,111,2023-04-04_17h23.17.523,Main,2022.1.1,60.03125228427555,
negative,blue,1,None,k,,,,,,,,,0,211,211,211,,,,,,,,,,,,,,,,,main,k,k,1,1.135299900022801,697.0218739000265,None,None,0,,,,,,,,,,,,,,111,2023-04-04_17h23.17.523,Main,2022.1.1,60.03125228427555,
negative,yellow,1,k,None,,,,,,,,,0,212,212,212,,,,,,,,,,,,,,,,,main,None,None,1,1.4961309999926016,699.1617851000046,None,None,1,,,,,,,,,,,,,,111,2023-04-04_17h23.17.523,Main,2022.1.1,60.03125228427555,
positive,blue,1,k,None,,,,,,,,,0,213,213,213,,,,,,,,,,,,,,,,,main,None,None,1,1.496502700028941,701.6550516000134,None,None,1,,,,,,,,,,,,,,111,2023-04-04_17h23.17.523,Main,2022.1.1,60.03125228427555,
positive,blue,1,k,None,,,,,,,,,0,214,214,214,,,,,,,,,,,,,,,,,main,None,None,1,1.5019781999872066,704.1524492000462,None,None,1,,,,,,,,,,,,,,111,2023-04-04_17h23.17.523,Main,2022.1.1,60.03125228427555,
positive,yellow,1,None,k,,,,,,,,,0,215,215,215,,,,,,,,,,,,,,,,,main,k,k,1,0.7160096999723464,706.655031900038,None,None,0,,,,,,,,,,,,,,111,2023-04-04_17h23.17.523,Main,2022.1.1,60.03125228427555,
positive,yellow,1,None,k,,,,,,,,,0,216,216,216,,,,,,,,,,,,,,,,,main,k,k,1,0.6184024999965914,708.3717565000406,None,None,0,,,,,,,,,,,,,,111,2023-04-04_17h23.17.523,Main,2022.1.1,60.03125228427555,
positive,yellow,2,None,k,,,,,,,,,0,217,217,217,,,,,,,,,,,,,,,,,main,k,k,1,0.8435835999553092,709.9894198999973,None,None,0,,,,,,,,,,,,,,111,2023-04-04_17h23.17.523,Main,2022.1.1,60.03125228427555,
negative,blue,1,None,k,,,,,,,,,0,218,218,218,,,,,,,,,,,,,,,,,main,k,k,1,0.7184660999919288,711.8356332000112,None,None,0,,,,,,,,,,,,,,111,2023-04-04_17h23.17.523,Main,2022.1.1,60.03125228427555,
positive,red,2,None,None,,,,,,,,,0,219,219,219,,,,,,,,,,,,,,,,,main,None,None,1,1.4987988999928348,713.5549276000238,None,None,1,,,,,,,,,,,,,,111,2023-04-04_17h23.17.523,Main,2022.1.1,60.03125228427555,
positive,yellow,1,None,k,,,,,,,,,0,220,220,220,,,,,,,,,,,,,,,,,main,k,k,1,0.7969736999948509,716.0548213000293,None,None,0,,,,,,,,,,,,,,111,2023-04-04_17h23.17.523,Main,2022.1.1,60.03125228427555,
positive,blue,1,k,None,,,,,,,,,0,221,221,221,,,,,,,,,,,,,,,,,main,None,None,1,1.501454500015825,717.8521527000121,None,None,1,,,,,,,,,,,,,,111,2023-04-04_17h23.17.523,Main,2022.1.1,60.03125228427555,
positive,yellow,2,None,k,,,,,,,,,0,222,222,222,,,,,,,,,,,,,,,,,main,k,k,1,0.7494174999883398,720.3547655000002,None,None,0,,,,,,,,,,,,,,111,2023-04-04_17h23.17.523,Main,2022.1.1,60.03125228427555,
negative,yellow,1,k,None,,,,,,,,,0,223,223,223,,,,,,,,,,,,,,,,,main,None,None,1,1.496323700004723,722.1046772000263,None,None,1,,,,,,,,,,,,,,111,2023-04-04_17h23.17.523,Main,2022.1.1,60.03125228427555,
positive,yellow,2,None,k,,,,,,,,,0,224,224,224,,,,,,,,,,,,,,,,,main,k,k,1,0.7019002999877557,724.6019912000047,None,None,0,,,,,,,,,,,,,,111,2023-04-04_17h23.17.523,Main,2022.1.1,60.03125228427555,
negative,yellow,2,k,None,,,,,,,,,0,225,225,225,,,,,,,,,,,,,,,,,main,None,None,1,1.4986918999929912,726.3046104999958,None,None,1,,,,,,,,,,,,,,111,2023-04-04_17h23.17.523,Main,2022.1.1,60.03125228427555,
negative,blue,2,None,k,,,,,,,,,0,226,226,226,,,,,,,,,,,,,,,,,main,k,k,1,0.6635759000200778,728.804495999997,None,None,0,,,,,,,,,,,,,,111,2023-04-04_17h23.17.523,Main,2022.1.1,60.03125228427555,
positive,red,2,None,None,,,,,,,,,0,227,227,227,,,,,,,,,,,,,,,,,main,None,None,1,1.5016702999710105,730.4685524000088,None,None,1,,,,,,,,,,,,,,111,2023-04-04_17h23.17.523,Main,2022.1.1,60.03125228427555,
positive,blue,2,k,None,,,,,,,,,0,228,228,228,,,,,,,,,,,,,,,,,main,None,None,1,1.496131099993363,732.971143200004,None,None,1,,,,,,,,,,,,,,111,2023-04-04_17h23.17.523,Main,2022.1.1,60.03125228427555,
negative,blue,1,None,k,,,,,,,,,0,229,229,229,,,,,,,,,,,,,,,,,main,k,k,1,0.8518880000337958,735.4740751000354,None,None,0,,,,,,,,,,,,,,111,2023-04-04_17h23.17.523,Main,2022.1.1,60.03125228427555,
positive,yellow,1,None,k,,,,,,,,,0,230,230,230,,,,,,,,,,,,,,,,,main,k,k,1,0.7962167999939993,737.3208738000249,None,None,0,,,,,,,,,,,,,,111,2023-04-04_17h23.17.523,Main,2022.1.1,60.03125228427555,
negative,blue,2,None,k,,,,,,,,,0,231,231,231,,,,,,,,,,,,,,,,,main,k,k,1,0.7646829999866895,739.1183552000439,None,None,0,,,,,,,,,,,,,,111,2023-04-04_17h23.17.523,Main,2022.1.1,60.03125228427555,
negative,red,1,None,None,,,,,,,,,0,232,232,232,,,,,,,,,,,,,,,,,main,None,None,1,1.5015274999896064,740.8850328000262,None,None,1,,,,,,,,,,,,,,111,2023-04-04_17h23.17.523,Main,2022.1.1,60.03125228427555,
positive,blue,2,k,None,,,,,,,,,0,233,233,233,,,,,,,,,,,,,,,,,main,None,None,1,1.4992479999782518,743.3875903000007,None,None,1,,,,,,,,,,,,,,111,2023-04-04_17h23.17.523,Main,2022.1.1,60.03125228427555,
negative,yellow,1,k,None,,,,,,,,,0,234,234,234,,,,,,,,,,,,,,,,,main,None,None,1,1.4964436000445858,745.8874190000352,None,None,1,,,,,,,,,,,,,,111,2023-04-04_17h23.17.523,Main,2022.1.1,60.03125228427555,
negative,yellow,2,k,None,,,,,,,,,0,235,235,235,,,,,,,,,,,,,,,,,main,None,None,1,1.501551199995447,748.3848101000185,None,None,1,,,,,,,,,,,,,,111,2023-04-04_17h23.17.523,Main,2022.1.1,60.03125228427555,
positive,red,1,None,None,,,,,,,,,0,236,236,236,,,,,,,,,,,,,,,,,main,None,None,1,1.4992790999822319,750.8874337000307,None,None,1,,,,,,,,,,,,,,111,2023-04-04_17h23.17.523,Main,2022.1.1,60.03125228427555,
negative,red,2,None,None,,,,,,,,,0,237,237,237,,,,,,,,,,,,,,,,,main,None,None,1,1.4966149000101723,753.3904430000111,None,None,1,,,,,,,,,,,,,,111,2023-04-04_17h23.17.523,Main,2022.1.1,60.03125228427555,
negative,blue,1,None,k,,,,,,,,,0,238,238,238,,,,,,,,,,,,,,,,,main,k,k,1,1.0020208999630995,755.8848868000205,None,None,0,,,,,,,,,,,,,,111,2023-04-04_17h23.17.523,Main,2022.1.1,60.03125228427555,
positive,blue,1,k,None,,,,,,,,,0,239,239,239,,,,,,,,,,,,,,,,,main,None,None,1,1.4960885000182316,757.8872650000267,None,None,1,,,,,,,,,,,,,,111,2023-04-04_17h23.17.523,Main,2022.1.1,60.03125228427555,
,,,,,,,,,,,,,,,,,,,,,,,,,,,,,,,,,,,,,,,,,,,,,,,,,,,,,760.384557900019,None,,,,,,
