distractor,target,set,ans1,ans2,rep_loop4.thisRepN,rep_loop4.thisTrialN,rep_loop4.thisN,rep_loop4.thisIndex,st2_prac_loop.thisRepN,st2_prac_loop.thisTrialN,st2_prac_loop.thisN,st2_prac_loop.thisIndex,st2_main_loop.thisRepN,st2_main_loop.thisTrialN,st2_main_loop.thisN,st2_main_loop.thisIndex,image_4.started,image_4.stopped,sound_2.started,sound_2.stopped,key_resp_3.keys,key_resp_3.rt,image_5.started,image_5.stopped,st_prac_back.started,st_prac_back.stopped,st_prac_text.started,st_prac_text.stopped,st_fix_back.started,st_fix_back.stopped,st_fix_2.started,st_fix_2.stopped,main_prac,st_ans,st_res,st_corr,st_rt,st_back.started,st_back.stopped,st2_resp.keys,st2_resp.corr,st_main_back.started,st_main_back.stopped,st_main_text.started,st_main_text.stopped,mouse_4.x,mouse_4.y,mouse_4.leftButton,mouse_4.midButton,mouse_4.rightButton,mouse_4.started,mouse_4.stopped,text_2.started,text_2.stopped,id*,date,expName,psychopyVersion,frameRate,
negative,yellow,1,k,None,,,,,0,0,0,0,,,,,29.8631118000485,None,34.5186284000054,None,space,58.00941509997938,92.55055679997895,None,94.16499249998014,None,94.16499249998014,None,96.16754000005312,None,96.16754000005312,None,prac,k,k,1,6.818504600087181,98.17448530008551,None,None,0,,,,,,,,,,,,,,112,2023-04-06_13h57.19.207,Main,2022.1.1,60.90215582100127,
positive,red,2,None,None,,,,,0,1,1,1,,,,,,,,,,,,,,,,,,,,,prac,None,None,1,1.49977889994625,107.00042040005792,None,None,1,,,,,,,,,,,,,,112,2023-04-06_13h57.19.207,Main,2022.1.1,60.90215582100127,
negative,blue,2,None,k,,,,,0,2,2,2,,,,,,,,,,,,,,,,,,,,,prac,None,None,1,1.500425499980338,109.49789020000026,None,None,1,,,,,,,,,,,,,,112,2023-04-06_13h57.19.207,Main,2022.1.1,60.90215582100127,
positive,yellow,1,None,k,,,,,0,3,3,3,,,,,,,,,,,,,,,,,,,,,prac,None,None,1,1.4990701000206172,112.00049130001571,None,None,1,,,,,,,,,,,,,,112,2023-04-06_13h57.19.207,Main,2022.1.1,60.90215582100127,
negative,blue,2,None,k,,,,,0,4,4,4,,,,,,,,,,,,,,,,,,,,,prac,None,None,1,1.497468600049615,114.50044099998195,None,None,1,,,,,,,,,,,,,,112,2023-04-06_13h57.19.207,Main,2022.1.1,60.90215582100127,
negative,blue,1,None,k,,,,,0,5,5,5,,,,,,,,,,,,,,,,,,,,,prac,None,None,1,1.501809100038372,116.99775370000862,None,None,1,,,,,,,,,,,,,,112,2023-04-06_13h57.19.207,Main,2022.1.1,60.90215582100127,
negative,yellow,2,k,None,,,,,0,6,6,6,,,,,,,,,,,,,,,,,,,,,prac,k,k,1,1.0485476999310777,119.50036090007052,None,None,0,,,,,,,,,,,,,,112,2023-04-06_13h57.19.207,Main,2022.1.1,60.90215582100127,
negative,red,1,None,None,,,,,0,7,7,7,,,,,,,,,,,,,,,,,,,,,prac,None,None,1,1.4961303999880329,121.55047350004315,None,None,1,,,,,,,,,,,,,,112,2023-04-06_13h57.19.207,Main,2022.1.1,60.90215582100127,
positive,yellow,2,None,k,,,,,0,8,8,8,,,,,,,,,,,,,,,,,,,,,prac,None,None,1,1.501805300009437,124.04760310007259,None,None,1,,,,,,,,,,,,,,112,2023-04-06_13h57.19.207,Main,2022.1.1,60.90215582100127,
negative,yellow,1,k,None,,,,,0,9,9,9,,,,,,,,,,,,,,,,,,,,,prac,k,k,1,0.9827891000313684,126.55017599998973,None,None,0,,,,,,,,,,,,,,112,2023-04-06_13h57.19.207,Main,2022.1.1,60.90215582100127,
positive,yellow,2,None,k,,,,,0,10,10,10,,,,,,,,,,,,,,,,,,,,,prac,None,None,1,1.496277799946256,128.53346980002243,None,None,1,,,,,,,,,,,,,,112,2023-04-06_13h57.19.207,Main,2022.1.1,60.90215582100127,
negative,yellow,2,k,None,,,,,0,11,11,11,,,,,,,,,,,,,,,,,,,,,prac,k,k,1,0.8189182999776676,131.0307768000057,None,None,0,,,,,,,,,,,,,,112,2023-04-06_13h57.19.207,Main,2022.1.1,60.90215582100127,
negative,red,2,None,None,,,,,0,12,12,12,,,,,,,,,,,,,,,,,,,,,prac,None,None,1,1.4987680999329314,132.85079260007478,None,None,1,,,,,,,,,,,,,,112,2023-04-06_13h57.19.207,Main,2022.1.1,60.90215582100127,
positive,red,1,None,None,,,,,0,13,13,13,,,,,,,,,,,,,,,,,,,,,prac,None,None,1,1.4989984000567347,135.3500451000873,None,None,1,,,,,,,,,,,,,,112,2023-04-06_13h57.19.207,Main,2022.1.1,60.90215582100127,
positive,blue,2,k,None,,,,,0,14,14,14,,,,,,,,,,,,,,,,,,,,,prac,k,k,1,0.5467751000542194,137.84991630003788,None,None,0,,,,,,,,,,,,,,112,2023-04-06_13h57.19.207,Main,2022.1.1,60.90215582100127,
positive,blue,1,k,None,,,,,0,15,15,15,,,,,,,,,,,,,,,,,,,,,prac,k,k,1,0.8327089000958949,139.3972739999881,None,None,0,,,,,,,,,,,,,,112,2023-04-06_13h57.19.207,Main,2022.1.1,60.90215582100127,
negative,blue,1,None,k,,,,,0,16,16,16,,,,,,,,,,,,,,,,,,,,,prac,None,None,1,1.5013800000306219,141.23066660005134,None,None,1,,,,,,,,,,,,,,112,2023-04-06_13h57.19.207,Main,2022.1.1,60.90215582100127,
positive,blue,2,k,None,,,,,0,17,17,17,,,,,,,,,,,,,,,,,,,,,prac,k,k,1,0.915946300025098,143.73321119998582,None,None,0,,,,,,,,,,,,,,112,2023-04-06_13h57.19.207,Main,2022.1.1,60.90215582100127,
positive,blue,1,k,None,,,,,0,18,18,18,,,,,,,,,,,,,,,,,,,,,prac,k,k,1,0.9132138999411836,145.64745120005682,None,None,0,,,,,,,,,,,,,,112,2023-04-06_13h57.19.207,Main,2022.1.1,60.90215582100127,
positive,yellow,1,None,k,,,,,0,19,19,19,,,,,,,,,,,,,,,,,,,,,prac,None,None,1,1.5019679000834003,147.56377650005743,None,None,1,,,,,,,,,,,,,,112,2023-04-06_13h57.19.207,Main,2022.1.1,60.90215582100127,
negative,yellow,1,k,None,,,,,1,0,20,0,,,,,,,,,,,,,,,,,,,,,prac,k,k,1,0.632510400027968,150.066396899987,None,None,0,,,,,,,,,,,,,,112,2023-04-06_13h57.19.207,Main,2022.1.1,60.90215582100127,
positive,red,2,None,None,,,,,1,1,21,1,,,,,,,,,,,,,,,,,,,,,prac,None,None,1,1.496170200058259,151.6997543000616,None,None,1,,,,,,,,,,,,,,112,2023-04-06_13h57.19.207,Main,2022.1.1,60.90215582100127,
negative,blue,2,None,k,,,,,1,2,22,2,,,,,,,,,,,,,,,,,,,,,prac,None,None,1,1.5016694999067113,154.19700669997837,None,None,1,,,,,,,,,,,,,,112,2023-04-06_13h57.19.207,Main,2022.1.1,60.90215582100127,
positive,yellow,1,None,k,,,,,1,3,23,3,,,,,,,,,,,,,,,,,,,,,prac,None,None,1,1.499320000060834,156.69965450000018,None,None,1,,,,,,,,,,,,,,112,2023-04-06_13h57.19.207,Main,2022.1.1,60.90215582100127,
negative,blue,2,None,k,,,,,1,4,24,4,,,,,,,,,,,,,,,,,,,,,prac,None,k,0,0.6466206999029964,159.1996420000214,None,None,1,,,,,,,,,,,,,,112,2023-04-06_13h57.19.207,Main,2022.1.1,60.90215582100127,
negative,blue,1,None,k,,,,,1,5,25,5,,,,,,,,,,,,,,,,,,,,,prac,None,None,1,1.4870577999390662,161.84691459999885,None,None,1,,,,,,,,,,,,,,112,2023-04-06_13h57.19.207,Main,2022.1.1,60.90215582100127,
negative,yellow,2,k,None,,,,,1,6,26,6,,,,,,,,,,,,,,,,,,,,,prac,k,k,1,0.8131183000514284,164.3330351000186,None,None,0,,,,,,,,,,,,,,112,2023-04-06_13h57.19.207,Main,2022.1.1,60.90215582100127,
negative,red,1,None,None,,,,,1,7,27,7,,,,,,,,,,,,,,,,,,,,,prac,None,None,1,1.5015433999942616,166.14677530003246,None,None,1,,,,,,,,,,,,,,112,2023-04-06_13h57.19.207,Main,2022.1.1,60.90215582100127,
positive,yellow,2,None,k,,,,,1,8,28,8,,,,,,,,,,,,,,,,,,,,,prac,None,None,1,1.4991246999707073,168.64938359998632,None,None,1,,,,,,,,,,,,,,112,2023-04-06_13h57.19.207,Main,2022.1.1,60.90215582100127,
negative,yellow,1,k,None,,,,,1,9,29,9,,,,,,,,,,,,,,,,,,,,,prac,k,k,1,0.8635407999390736,171.1493710000068,None,None,0,,,,,,,,,,,,,,112,2023-04-06_13h57.19.207,Main,2022.1.1,60.90215582100127,
positive,yellow,2,None,k,,,,,1,10,30,10,,,,,,,,,,,,,,,,,,,,,prac,None,k,0,0.5688192000379786,173.0133029000135,None,None,1,,,,,,,,,,,,,,112,2023-04-06_13h57.19.207,Main,2022.1.1,60.90215582100127,
negative,yellow,2,k,None,,,,,1,11,31,11,,,,,,,,,,,,,,,,,,,,,prac,k,k,1,0.851431000046432,175.582549200044,None,None,0,,,,,,,,,,,,,,112,2023-04-06_13h57.19.207,Main,2022.1.1,60.90215582100127,
negative,red,2,None,None,,,,,1,12,32,12,,,,,,,,,,,,,,,,,,,,,prac,None,None,1,1.4966970999957994,177.43252700008452,None,None,1,,,,,,,,,,,,,,112,2023-04-06_13h57.19.207,Main,2022.1.1,60.90215582100127,
positive,red,1,None,None,,,,,1,13,33,13,,,,,,,,,,,,,,,,,,,,,prac,None,None,1,1.5017963000573218,179.92990410001948,None,None,1,,,,,,,,,,,,,,112,2023-04-06_13h57.19.207,Main,2022.1.1,60.90215582100127,
positive,blue,2,k,None,,,,,1,14,34,14,,,,,,,,,,,,,,,,,,,,,prac,k,k,1,0.8124398000072688,182.43021340004634,None,None,0,,,,,,,,,,,,,,112,2023-04-06_13h57.19.207,Main,2022.1.1,60.90215582100127,
positive,blue,1,k,None,,,,,1,15,35,15,,,,,,,,,,,,,,,,,,,,,prac,k,k,1,1.3687867999542505,184.24641390005127,None,None,0,,,,,,,,,,,,,,112,2023-04-06_13h57.19.207,Main,2022.1.1,60.90215582100127,
negative,blue,1,None,k,,,,,1,16,36,16,,,,,,,,,,,,,,,,,,,,,prac,None,None,1,1.49888580001425,186.61576199997216,None,None,1,,,,,,,,,,,,,,112,2023-04-06_13h57.19.207,Main,2022.1.1,60.90215582100127,
positive,blue,2,k,None,,,,,1,17,37,17,,,,,,,,,,,,,,,,,,,,,prac,k,k,1,1.1991831000195816,189.11558179999702,None,None,0,,,,,,,,,,,,,,112,2023-04-06_13h57.19.207,Main,2022.1.1,60.90215582100127,
positive,blue,1,k,None,,,,,1,18,38,18,,,,,,,,,,,,,,,,,,,,,prac,k,k,1,0.7002073000185192,191.313235300011,None,None,0,,,,,,,,,,,,,,112,2023-04-06_13h57.19.207,Main,2022.1.1,60.90215582100127,
positive,yellow,1,None,k,,,,,1,19,39,19,,,,,,,,,,,,,,,,,,,,,prac,None,None,1,1.4966170000843704,193.0154113000026,None,None,1,,,,,,,,,,,,,,112,2023-04-06_13h57.19.207,Main,2022.1.1,60.90215582100127,
,,,,,,,,,,,,,,,,,,,,,,,,,,,,,,,,,,,,,,,,,,195.5129102000501,None,195.5129102000501,None,0.25555557,-0.035185184,0,0,0,0.012998200138099492,None,,,112,2023-04-06_13h57.19.207,Main,2022.1.1,60.90215582100127,
negative,yellow,2,k,None,,,,,,,,,0,0,0,0,,,,,,,,,,,,,196.68209750007372,None,196.68209750007372,None,main,k,k,1,0.7304530999390408,198.70997000008356,None,None,0,,,,,,,,,,,,,,112,2023-04-06_13h57.19.207,Main,2022.1.1,60.90215582100127,
positive,red,1,None,None,,,,,,,,,0,1,1,1,,,,,,,,,,,,,,,,,main,None,None,1,1.4962656000861898,200.4486403000774,None,None,1,,,,,,,,,,,,,,112,2023-04-06_13h57.19.207,Main,2022.1.1,60.90215582100127,
positive,blue,2,k,None,,,,,,,,,0,2,2,2,,,,,,,,,,,,,,,,,main,k,k,1,1.2855628000106663,202.94603270001244,None,None,0,,,,,,,,,,,,,,112,2023-04-06_13h57.19.207,Main,2022.1.1,60.90215582100127,
positive,blue,1,k,None,,,,,,,,,0,3,3,3,,,,,,,,,,,,,,,,,main,k,k,1,0.6155707000289112,205.2320299000712,None,None,0,,,,,,,,,,,,,,112,2023-04-06_13h57.19.207,Main,2022.1.1,60.90215582100127,
negative,yellow,2,k,None,,,,,,,,,0,4,4,4,,,,,,,,,,,,,,,,,main,k,k,1,0.7685090000741184,206.8486777000362,None,None,0,,,,,,,,,,,,,,112,2023-04-06_13h57.19.207,Main,2022.1.1,60.90215582100127,
positive,yellow,2,None,k,,,,,,,,,0,5,5,5,,,,,,,,,,,,,,,,,main,None,None,1,1.4936801000731066,208.62146980001125,None,None,1,,,,,,,,,,,,,,112,2023-04-06_13h57.19.207,Main,2022.1.1,60.90215582100127,
negative,blue,2,None,k,,,,,,,,,0,6,6,6,,,,,,,,,,,,,,,,,main,None,None,1,1.5018130999524146,211.1125460000476,None,None,1,,,,,,,,,,,,,,112,2023-04-06_13h57.19.207,Main,2022.1.1,60.90215582100127,
positive,red,2,None,None,,,,,,,,,0,7,7,7,,,,,,,,,,,,,,,,,main,None,None,1,1.4993206000654027,213.61511920008343,None,None,1,,,,,,,,,,,,,,112,2023-04-06_13h57.19.207,Main,2022.1.1,60.90215582100127,
positive,yellow,1,None,k,,,,,,,,,0,8,8,8,,,,,,,,,,,,,,,,,main,None,None,1,1.498996099922806,216.11510340007953,None,None,1,,,,,,,,,,,,,,112,2023-04-06_13h57.19.207,Main,2022.1.1,60.90215582100127,
negative,red,1,None,None,,,,,,,,,0,9,9,9,,,,,,,,,,,,,,,,,main,None,None,1,1.4965621000155807,218.61273000005167,None,None,1,,,,,,,,,,,,,,112,2023-04-06_13h57.19.207,Main,2022.1.1,60.90215582100127,
positive,yellow,1,None,k,,,,,,,,,0,10,10,10,,,,,,,,,,,,,,,,,main,None,None,1,1.5017521999543533,221.11231690004934,None,None,1,,,,,,,,,,,,,,112,2023-04-06_13h57.19.207,Main,2022.1.1,60.90215582100127,
negative,yellow,1,k,None,,,,,,,,,0,11,11,11,,,,,,,,,,,,,,,,,main,k,k,1,0.7494418000569567,223.61493649997283,None,None,0,,,,,,,,,,,,,,112,2023-04-06_13h57.19.207,Main,2022.1.1,60.90215582100127,
negative,yellow,1,k,None,,,,,,,,,0,12,12,12,,,,,,,,,,,,,,,,,main,k,k,1,0.6087242000503466,225.36490779998712,None,None,0,,,,,,,,,,,,,,112,2023-04-06_13h57.19.207,Main,2022.1.1,60.90215582100127,
negative,red,2,None,None,,,,,,,,,0,13,13,13,,,,,,,,,,,,,,,,,main,None,None,1,1.489288399927318,226.96434499998577,None,None,1,,,,,,,,,,,,,,112,2023-04-06_13h57.19.207,Main,2022.1.1,60.90215582100127,
positive,yellow,2,None,k,,,,,,,,,0,14,14,14,,,,,,,,,,,,,,,,,main,None,None,1,1.4993027000455186,229.46483740000986,None,None,1,,,,,,,,,,,,,,112,2023-04-06_13h57.19.207,Main,2022.1.1,60.90215582100127,
positive,blue,1,k,None,,,,,,,,,0,15,15,15,,,,,,,,,,,,,,,,,main,k,k,1,0.7467729999916628,231.9648122000508,None,None,0,,,,,,,,,,,,,,112,2023-04-06_13h57.19.207,Main,2022.1.1,60.90215582100127,
negative,blue,1,None,k,,,,,,,,,0,16,16,16,,,,,,,,,,,,,,,,,main,None,None,1,1.5015814000507817,233.7121031000279,None,None,1,,,,,,,,,,,,,,112,2023-04-06_13h57.19.207,Main,2022.1.1,60.90215582100127,
positive,blue,2,k,None,,,,,,,,,0,17,17,17,,,,,,,,,,,,,,,,,main,k,k,1,0.6495923000620678,236.21476450003684,None,None,0,,,,,,,,,,,,,,112,2023-04-06_13h57.19.207,Main,2022.1.1,60.90215582100127,
negative,blue,2,None,k,,,,,,,,,0,18,18,18,,,,,,,,,,,,,,,,,main,None,None,1,1.496039199992083,237.86475690000225,None,None,1,,,,,,,,,,,,,,112,2023-04-06_13h57.19.207,Main,2022.1.1,60.90215582100127,
negative,blue,1,None,k,,,,,,,,,0,19,19,19,,,,,,,,,,,,,,,,,main,None,None,1,1.501887600054033,240.36203149997164,None,None,1,,,,,,,,,,,,,,112,2023-04-06_13h57.19.207,Main,2022.1.1,60.90215582100127,
negative,blue,1,None,k,,,,,,,,,0,20,20,20,,,,,,,,,,,,,,,,,main,None,None,1,1.4964195999782532,242.86462400003802,None,None,1,,,,,,,,,,,,,,112,2023-04-06_13h57.19.207,Main,2022.1.1,60.90215582100127,
negative,blue,2,None,k,,,,,,,,,0,21,21,21,,,,,,,,,,,,,,,,,main,None,None,1,1.501730200019665,245.36185820004903,None,None,1,,,,,,,,,,,,,,112,2023-04-06_13h57.19.207,Main,2022.1.1,60.90215582100127,
negative,red,1,None,None,,,,,,,,,0,22,22,22,,,,,,,,,,,,,,,,,main,None,None,1,1.4990043999860063,247.86445049999747,None,None,1,,,,,,,,,,,,,,112,2023-04-06_13h57.19.207,Main,2022.1.1,60.90215582100127,
positive,red,2,None,None,,,,,,,,,0,23,23,23,,,,,,,,,,,,,,,,,main,None,None,1,1.4991636000340804,250.36426840000786,None,None,1,,,,,,,,,,,,,,112,2023-04-06_13h57.19.207,Main,2022.1.1,60.90215582100127,
negative,red,2,None,None,,,,,,,,,0,24,24,24,,,,,,,,,,,,,,,,,main,None,None,1,1.4965884999837726,252.8620293000713,None,None,1,,,,,,,,,,,,,,112,2023-04-06_13h57.19.207,Main,2022.1.1,60.90215582100127,
positive,blue,2,k,None,,,,,,,,,0,25,25,25,,,,,,,,,,,,,,,,,main,k,k,1,0.835312100010924,255.36171069997363,None,None,0,,,,,,,,,,,,,,112,2023-04-06_13h57.19.207,Main,2022.1.1,60.90215582100127,
negative,yellow,1,k,None,,,,,,,,,0,26,26,26,,,,,,,,,,,,,,,,,main,k,k,1,0.8156765000894666,257.19768700003624,None,None,0,,,,,,,,,,,,,,112,2023-04-06_13h57.19.207,Main,2022.1.1,60.90215582100127,
positive,blue,2,k,None,,,,,,,,,0,27,27,27,,,,,,,,,,,,,,,,,main,k,k,1,0.696589499944821,259.01426089997403,None,None,0,,,,,,,,,,,,,,112,2023-04-06_13h57.19.207,Main,2022.1.1,60.90215582100127,
negative,blue,2,None,k,,,,,,,,,0,28,28,28,,,,,,,,,,,,,,,,,main,None,None,1,1.5016227000160143,260.7115582000697,None,None,1,,,,,,,,,,,,,,112,2023-04-06_13h57.19.207,Main,2022.1.1,60.90215582100127,
positive,red,1,None,None,,,,,,,,,0,29,29,29,,,,,,,,,,,,,,,,,main,None,None,1,1.4966410000342876,263.21417970000766,None,None,1,,,,,,,,,,,,,,112,2023-04-06_13h57.19.207,Main,2022.1.1,60.90215582100127,
positive,blue,1,k,None,,,,,,,,,0,30,30,30,,,,,,,,,,,,,,,,,main,k,k,1,0.6518101999536157,265.71397789998446,None,None,0,,,,,,,,,,,,,,112,2023-04-06_13h57.19.207,Main,2022.1.1,60.90215582100127,
positive,yellow,1,None,k,,,,,,,,,0,31,31,31,,,,,,,,,,,,,,,,,main,None,None,1,1.496395800029859,267.36391040007584,None,None,1,,,,,,,,,,,,,,112,2023-04-06_13h57.19.207,Main,2022.1.1,60.90215582100127,
negative,yellow,2,k,None,,,,,,,,,0,32,32,32,,,,,,,,,,,,,,,,,main,k,k,1,0.7160433999961242,269.86136600002646,None,None,0,,,,,,,,,,,,,,112,2023-04-06_13h57.19.207,Main,2022.1.1,60.90215582100127,
negative,blue,1,None,k,,,,,,,,,0,33,33,33,,,,,,,,,,,,,,,,,main,None,None,1,1.5016346999909729,271.57807470008265,None,None,1,,,,,,,,,,,,,,112,2023-04-06_13h57.19.207,Main,2022.1.1,60.90215582100127,
positive,blue,1,k,None,,,,,,,,,0,34,34,34,,,,,,,,,,,,,,,,,main,k,k,1,0.8494263000320643,274.08068550005555,None,None,0,,,,,,,,,,,,,,112,2023-04-06_13h57.19.207,Main,2022.1.1,60.90215582100127,
negative,yellow,1,k,None,,,,,,,,,0,35,35,35,,,,,,,,,,,,,,,,,main,k,k,1,0.7965327999554574,275.9306515000062,None,None,0,,,,,,,,,,,,,,112,2023-04-06_13h57.19.207,Main,2022.1.1,60.90215582100127,
positive,yellow,2,None,k,,,,,,,,,0,36,36,36,,,,,,,,,,,,,,,,,main,None,None,1,1.501586899976246,277.7279032000806,None,None,1,,,,,,,,,,,,,,112,2023-04-06_13h57.19.207,Main,2022.1.1,60.90215582100127,
positive,yellow,2,None,k,,,,,,,,,0,37,37,37,,,,,,,,,,,,,,,,,main,None,None,1,1.4968428999418393,280.23055920004845,None,None,1,,,,,,,,,,,,,,112,2023-04-06_13h57.19.207,Main,2022.1.1,60.90215582100127,
negative,yellow,2,k,None,,,,,,,,,0,38,38,38,,,,,,,,,,,,,,,,,main,k,k,1,0.882420500041917,282.72778900002595,None,None,0,,,,,,,,,,,,,,112,2023-04-06_13h57.19.207,Main,2022.1.1,60.90215582100127,
positive,yellow,1,None,k,,,,,,,,,0,39,39,39,,,,,,,,,,,,,,,,,main,None,None,1,1.5016216000076383,284.61114689998794,None,None,1,,,,,,,,,,,,,,112,2023-04-06_13h57.19.207,Main,2022.1.1,60.90215582100127,
negative,yellow,2,k,None,,,,,,,,,0,40,40,40,,,,,,,,,,,,,,,,,main,k,k,1,0.8968595000915229,287.11365650000516,None,None,0,,,,,,,,,,,,,,112,2023-04-06_13h57.19.207,Main,2022.1.1,60.90215582100127,
positive,blue,2,k,None,,,,,,,,,0,41,41,41,,,,,,,,,,,,,,,,,main,k,k,1,0.7326219999231398,289.0110109000234,None,None,0,,,,,,,,,,,,,,112,2023-04-06_13h57.19.207,Main,2022.1.1,60.90215582100127,
positive,blue,2,k,None,,,,,,,,,0,42,42,42,,,,,,,,,,,,,,,,,main,k,k,1,1.1351351999910548,290.7443820000626,None,None,0,,,,,,,,,,,,,,112,2023-04-06_13h57.19.207,Main,2022.1.1,60.90215582100127,
negative,blue,2,None,k,,,,,,,,,0,43,43,43,,,,,,,,,,,,,,,,,main,None,None,1,1.498660600045696,292.8802695000777,None,None,1,,,,,,,,,,,,,,112,2023-04-06_13h57.19.207,Main,2022.1.1,60.90215582100127,
negative,red,1,None,None,,,,,,,,,0,44,44,44,,,,,,,,,,,,,,,,,main,None,None,1,1.4967215999495238,295.3778170000296,None,None,1,,,,,,,,,,,,,,112,2023-04-06_13h57.19.207,Main,2022.1.1,60.90215582100127,
negative,yellow,1,k,None,,,,,,,,,0,45,45,45,,,,,,,,,,,,,,,,,main,k,k,1,0.7660310999490321,297.87750070006587,None,None,0,,,,,,,,,,,,,,112,2023-04-06_13h57.19.207,Main,2022.1.1,60.90215582100127,
negative,yellow,1,k,None,,,,,,,,,0,46,46,46,,,,,,,,,,,,,,,,,main,k,k,1,0.6686414000578225,299.644184099976,None,None,0,,,,,,,,,,,,,,112,2023-04-06_13h57.19.207,Main,2022.1.1,60.90215582100127,
positive,red,1,None,None,,,,,,,,,0,47,47,47,,,,,,,,,,,,,,,,,main,None,None,1,1.4960556000005454,301.3134076000424,None,None,1,,,,,,,,,,,,,,112,2023-04-06_13h57.19.207,Main,2022.1.1,60.90215582100127,
positive,yellow,1,None,k,,,,,,,,,0,48,48,48,,,,,,,,,,,,,,,,,main,None,None,1,1.5019315000390634,303.81069760001265,None,None,1,,,,,,,,,,,,,,112,2023-04-06_13h57.19.207,Main,2022.1.1,60.90215582100127,
negative,blue,1,None,k,,,,,,,,,0,49,49,49,,,,,,,,,,,,,,,,,main,None,k,0,0.6658834000118077,306.31327100005,None,None,1,,,,,,,,,,,,,,112,2023-04-06_13h57.19.207,Main,2022.1.1,60.90215582100127,
positive,yellow,2,None,k,,,,,,,,,0,50,50,50,,,,,,,,,,,,,,,,,main,None,None,1,1.4986388999968767,308.97991210001055,None,None,1,,,,,,,,,,,,,,112,2023-04-06_13h57.19.207,Main,2022.1.1,60.90215582100127,
negative,blue,1,None,k,,,,,,,,,0,51,51,51,,,,,,,,,,,,,,,,,main,None,None,1,1.5018328999867663,311.4772675000131,None,None,1,,,,,,,,,,,,,,112,2023-04-06_13h57.19.207,Main,2022.1.1,60.90215582100127,
positive,red,2,None,None,,,,,,,,,0,52,52,52,,,,,,,,,,,,,,,,,main,None,None,1,1.4964427000377327,313.97987100004684,None,None,1,,,,,,,,,,,,,,112,2023-04-06_13h57.19.207,Main,2022.1.1,60.90215582100127,
positive,yellow,2,None,k,,,,,,,,,0,53,53,53,,,,,,,,,,,,,,,,,main,None,None,1,1.5013815000420436,316.47712639998645,None,None,1,,,,,,,,,,,,,,112,2023-04-06_13h57.19.207,Main,2022.1.1,60.90215582100127,
negative,red,2,None,None,,,,,,,,,0,54,54,54,,,,,,,,,,,,,,,,,main,None,None,1,1.502737700007856,318.9798761000857,None,None,1,,,,,,,,,,,,,,112,2023-04-06_13h57.19.207,Main,2022.1.1,60.90215582100127,
positive,yellow,1,None,k,,,,,,,,,0,55,55,55,,,,,,,,,,,,,,,,,main,None,None,1,1.4936752999201417,321.48197550000623,None,None,1,,,,,,,,,,,,,,112,2023-04-06_13h57.19.207,Main,2022.1.1,60.90215582100127,
negative,blue,2,None,k,,,,,,,,,0,56,56,56,,,,,,,,,,,,,,,,,main,None,None,1,1.5010317000560462,323.9770448000636,None,None,1,,,,,,,,,,,,,,112,2023-04-06_13h57.19.207,Main,2022.1.1,60.90215582100127,
positive,blue,1,k,None,,,,,,,,,0,57,57,57,,,,,,,,,,,,,,,,,main,k,k,1,0.8800998999504372,326.4796726000495,None,None,0,,,,,,,,,,,,,,112,2023-04-06_13h57.19.207,Main,2022.1.1,60.90215582100127,
positive,blue,1,k,None,,,,,,,,,0,58,58,58,,,,,,,,,,,,,,,,,main,k,k,1,0.7531622999813408,328.36267240007874,None,None,0,,,,,,,,,,,,,,112,2023-04-06_13h57.19.207,Main,2022.1.1,60.90215582100127,
negative,yellow,2,k,None,,,,,,,,,0,59,59,59,,,,,,,,,,,,,,,,,main,k,k,1,0.6780494999838993,330.11678070004564,None,None,0,,,,,,,,,,,,,,112,2023-04-06_13h57.19.207,Main,2022.1.1,60.90215582100127,
positive,red,2,None,None,,,,,,,,,0,60,60,60,,,,,,,,,,,,,,,,,main,None,None,1,1.5019888000097126,331.79348840005696,None,None,1,,,,,,,,,,,,,,112,2023-04-06_13h57.19.207,Main,2022.1.1,60.90215582100127,
negative,yellow,1,k,None,,,,,,,,,0,61,61,61,,,,,,,,,,,,,,,,,main,k,k,1,0.849422900006175,334.29612269997597,None,None,0,,,,,,,,,,,,,,112,2023-04-06_13h57.19.207,Main,2022.1.1,60.90215582100127,
negative,red,1,None,None,,,,,,,,,0,62,62,62,,,,,,,,,,,,,,,,,main,None,None,1,1.4961710999486968,336.146050499985,None,None,1,,,,,,,,,,,,,,112,2023-04-06_13h57.19.207,Main,2022.1.1,60.90215582100127,
negative,blue,1,None,k,,,,,,,,,0,63,63,63,,,,,,,,,,,,,,,,,main,None,None,1,1.4990399000234902,338.6458754000487,None,None,1,,,,,,,,,,,,,,112,2023-04-06_13h57.19.207,Main,2022.1.1,60.90215582100127,
positive,blue,2,k,None,,,,,,,,,0,64,64,64,,,,,,,,,,,,,,,,,main,k,k,1,0.9019498000852764,341.1433502000291,None,None,0,,,,,,,,,,,,,,112,2023-04-06_13h57.19.207,Main,2022.1.1,60.90215582100127,
negative,yellow,2,k,None,,,,,,,,,0,65,65,65,,,,,,,,,,,,,,,,,main,k,k,1,0.868745099985972,343.04596830008086,None,None,0,,,,,,,,,,,,,,112,2023-04-06_13h57.19.207,Main,2022.1.1,60.90215582100127,
positive,yellow,2,None,k,,,,,,,,,0,66,66,66,,,,,,,,,,,,,,,,,main,None,None,1,1.4933790999930352,344.91375339997467,None,None,1,,,,,,,,,,,,,,112,2023-04-06_13h57.19.207,Main,2022.1.1,60.90215582100127,
positive,yellow,2,None,k,,,,,,,,,0,67,67,67,,,,,,,,,,,,,,,,,main,None,None,1,1.50186079996638,347.4098900000099,None,None,1,,,,,,,,,,,,,,112,2023-04-06_13h57.19.207,Main,2022.1.1,60.90215582100127,
positive,red,1,None,None,,,,,,,,,0,68,68,68,,,,,,,,,,,,,,,,,main,None,None,1,1.496569100068882,349.9124752000207,None,None,1,,,,,,,,,,,,,,112,2023-04-06_13h57.19.207,Main,2022.1.1,60.90215582100127,
positive,yellow,1,None,k,,,,,,,,,0,69,69,69,,,,,,,,,,,,,,,,,main,None,None,1,1.4990254000294954,352.41004960006103,None,None,1,,,,,,,,,,,,,,112,2023-04-06_13h57.19.207,Main,2022.1.1,60.90215582100127,
negative,yellow,2,k,None,,,,,,,,,0,70,70,70,,,,,,,,,,,,,,,,,main,k,k,1,0.8021603000815958,354.9096879999852,None,None,0,,,,,,,,,,,,,,112,2023-04-06_13h57.19.207,Main,2022.1.1,60.90215582100127,
positive,yellow,1,None,k,,,,,,,,,0,71,71,71,,,,,,,,,,,,,,,,,main,None,None,1,1.4988725000293925,356.71237429999746,None,None,1,,,,,,,,,,,,,,112,2023-04-06_13h57.19.207,Main,2022.1.1,60.90215582100127,
negative,blue,1,None,k,,,,,,,,,0,72,72,72,,,,,,,,,,,,,,,,,main,None,None,1,1.4961906999815255,359.2123248000862,None,None,1,,,,,,,,,,,,,,112,2023-04-06_13h57.19.207,Main,2022.1.1,60.90215582100127,
negative,red,2,None,None,,,,,,,,,0,73,73,73,,,,,,,,,,,,,,,,,main,None,None,1,1.5022805000189692,361.7095481000142,None,None,1,,,,,,,,,,,,,,112,2023-04-06_13h57.19.207,Main,2022.1.1,60.90215582100127,
positive,blue,2,k,None,,,,,,,,,0,74,74,74,,,,,,,,,,,,,,,,,main,k,k,1,0.9355921000242233,364.21213090000674,None,None,0,,,,,,,,,,,,,,112,2023-04-06_13h57.19.207,Main,2022.1.1,60.90215582100127,
negative,blue,2,None,k,,,,,,,,,0,75,75,75,,,,,,,,,,,,,,,,,main,None,None,1,1.4930930000264198,366.1523146000691,None,None,1,,,,,,,,,,,,,,112,2023-04-06_13h57.19.207,Main,2022.1.1,60.90215582100127,
negative,blue,2,None,k,,,,,,,,,0,76,76,76,,,,,,,,,,,,,,,,,main,None,None,1,1.5016384000191465,368.6428167000413,None,None,1,,,,,,,,,,,,,,112,2023-04-06_13h57.19.207,Main,2022.1.1,60.90215582100127,
negative,yellow,1,k,None,,,,,,,,,0,77,77,77,,,,,,,,,,,,,,,,,main,k,k,1,0.813948400085792,371.1453859000467,None,None,0,,,,,,,,,,,,,,112,2023-04-06_13h57.19.207,Main,2022.1.1,60.90215582100127,
positive,blue,1,k,None,,,,,,,,,0,78,78,78,,,,,,,,,,,,,,,,,main,k,k,1,1.0153572000563145,372.96183540008496,None,None,0,,,,,,,,,,,,,,112,2023-04-06_13h57.19.207,Main,2022.1.1,60.90215582100127,
positive,blue,1,k,None,,,,,,,,,0,79,79,79,,,,,,,,,,,,,,,,,main,k,k,1,0.7492314000846818,374.97595900006127,None,None,0,,,,,,,,,,,,,,112,2023-04-06_13h57.19.207,Main,2022.1.1,60.90215582100127,
positive,red,2,None,None,,,,,,,,,0,80,80,80,,,,,,,,,,,,,,,,,main,None,None,1,1.5015631000278518,376.7259838000173,None,None,1,,,,,,,,,,,,,,112,2023-04-06_13h57.19.207,Main,2022.1.1,60.90215582100127,
positive,yellow,2,None,k,,,,,,,,,0,81,81,81,,,,,,,,,,,,,,,,,main,None,None,1,1.4991142000071704,379.2285236000316,None,None,1,,,,,,,,,,,,,,112,2023-04-06_13h57.19.207,Main,2022.1.1,60.90215582100127,
positive,blue,1,k,None,,,,,,,,,0,82,82,82,,,,,,,,,,,,,,,,,main,k,k,1,0.8990775001002476,381.7261141000781,None,None,0,,,,,,,,,,,,,,112,2023-04-06_13h57.19.207,Main,2022.1.1,60.90215582100127,
negative,yellow,2,k,None,,,,,,,,,0,83,83,83,,,,,,,,,,,,,,,,,main,k,k,1,0.6967506000073627,383.6284136000322,None,None,0,,,,,,,,,,,,,,112,2023-04-06_13h57.19.207,Main,2022.1.1,60.90215582100127,
positive,blue,2,k,None,,,,,,,,,0,84,84,84,,,,,,,,,,,,,,,,,main,k,k,1,0.885201400029473,385.3257572000148,None,None,0,,,,,,,,,,,,,,112,2023-04-06_13h57.19.207,Main,2022.1.1,60.90215582100127,
positive,yellow,1,None,k,,,,,,,,,0,85,85,85,,,,,,,,,,,,,,,,,main,None,None,1,1.4990722999209538,387.2116717000026,None,None,1,,,,,,,,,,,,,,112,2023-04-06_13h57.19.207,Main,2022.1.1,60.90215582100127,
positive,blue,2,k,None,,,,,,,,,0,86,86,86,,,,,,,,,,,,,,,,,main,k,k,1,0.9134246000321582,389.7116177000571,None,None,0,,,,,,,,,,,,,,112,2023-04-06_13h57.19.207,Main,2022.1.1,60.90215582100127,
positive,blue,1,k,None,,,,,,,,,0,87,87,87,,,,,,,,,,,,,,,,,main,k,k,1,0.9352570000337437,391.6258266000077,None,None,0,,,,,,,,,,,,,,112,2023-04-06_13h57.19.207,Main,2022.1.1,60.90215582100127,
negative,yellow,2,k,None,,,,,,,,,0,88,88,88,,,,,,,,,,,,,,,,,main,k,k,1,0.8822126999730244,393.56154810008593,None,None,0,,,,,,,,,,,,,,112,2023-04-06_13h57.19.207,Main,2022.1.1,60.90215582100127,
negative,blue,2,None,k,,,,,,,,,0,89,89,89,,,,,,,,,,,,,,,,,main,None,None,1,1.4962975999806076,395.44489400007296,None,None,1,,,,,,,,,,,,,,112,2023-04-06_13h57.19.207,Main,2022.1.1,60.90215582100127,
positive,yellow,2,None,k,,,,,,,,,0,90,90,90,,,,,,,,,,,,,,,,,main,None,k,0,0.8189969999948516,397.942143100081,None,None,1,,,,,,,,,,,,,,112,2023-04-06_13h57.19.207,Main,2022.1.1,60.90215582100127,
negative,yellow,1,k,None,,,,,,,,,0,91,91,91,,,,,,,,,,,,,,,,,main,k,k,1,0.9843708999687806,400.7614203999983,None,None,0,,,,,,,,,,,,,,112,2023-04-06_13h57.19.207,Main,2022.1.1,60.90215582100127,
negative,red,2,None,None,,,,,,,,,0,92,92,92,,,,,,,,,,,,,,,,,main,None,None,1,1.4960090999957174,402.74458290007897,None,None,1,,,,,,,,,,,,,,112,2023-04-06_13h57.19.207,Main,2022.1.1,60.90215582100127,
negative,blue,2,None,k,,,,,,,,,0,93,93,93,,,,,,,,,,,,,,,,,main,None,None,1,1.5016147999558598,405.2420203000074,None,None,1,,,,,,,,,,,,,,112,2023-04-06_13h57.19.207,Main,2022.1.1,60.90215582100127,
negative,blue,1,None,k,,,,,,,,,0,94,94,94,,,,,,,,,,,,,,,,,main,None,None,1,1.5023403000086546,407.7446369000245,None,None,1,,,,,,,,,,,,,,112,2023-04-06_13h57.19.207,Main,2022.1.1,60.90215582100127,
negative,blue,1,None,k,,,,,,,,,0,95,95,95,,,,,,,,,,,,,,,,,main,None,None,1,1.4960389999905601,410.2458609000314,None,None,1,,,,,,,,,,,,,,112,2023-04-06_13h57.19.207,Main,2022.1.1,60.90215582100127,
negative,red,1,None,None,,,,,,,,,0,96,96,96,,,,,,,,,,,,,,,,,main,None,None,1,1.4988228000001982,412.7445468000369,None,None,1,,,,,,,,,,,,,,112,2023-04-06_13h57.19.207,Main,2022.1.1,60.90215582100127,
positive,yellow,1,None,k,,,,,,,,,0,97,97,97,,,,,,,,,,,,,,,,,main,None,None,1,1.4970663000131026,415.2445189000573,None,None,1,,,,,,,,,,,,,,112,2023-04-06_13h57.19.207,Main,2022.1.1,60.90215582100127,
negative,yellow,1,k,None,,,,,,,,,0,98,98,98,,,,,,,,,,,,,,,,,main,k,k,1,1.7326069000409916,417.742081400007,None,None,0,,,,,,,,,,,,,,112,2023-04-06_13h57.19.207,Main,2022.1.1,60.90215582100127,
positive,red,1,None,None,,,,,,,,,0,99,99,99,,,,,,,,,,,,,,,,,main,None,None,1,1.5011006999993697,421.4753165000584,None,None,1,,,,,,,,,,,,,,112,2023-04-06_13h57.19.207,Main,2022.1.1,60.90215582100127,
positive,blue,1,k,None,,,,,,,,,0,100,100,100,,,,,,,,,,,,,,,,,main,k,k,1,0.9799296000273898,423.97532020008657,None,None,0,,,,,,,,,,,,,,112,2023-04-06_13h57.19.207,Main,2022.1.1,60.90215582100127,
negative,yellow,1,k,None,,,,,,,,,0,101,101,101,,,,,,,,,,,,,,,,,main,k,k,1,0.7660075000021607,425.9582731000846,None,None,0,,,,,,,,,,,,,,112,2023-04-06_13h57.19.207,Main,2022.1.1,60.90215582100127,
negative,blue,2,None,k,,,,,,,,,0,102,102,102,,,,,,,,,,,,,,,,,main,None,None,1,1.5016015999717638,427.7249788000481,None,None,1,,,,,,,,,,,,,,112,2023-04-06_13h57.19.207,Main,2022.1.1,60.90215582100127,
negative,yellow,2,k,None,,,,,,,,,0,103,103,103,,,,,,,,,,,,,,,,,main,k,k,1,0.9966213000006974,430.22747390007135,None,None,0,,,,,,,,,,,,,,112,2023-04-06_13h57.19.207,Main,2022.1.1,60.90215582100127,
positive,yellow,2,None,k,,,,,,,,,0,104,104,104,,,,,,,,,,,,,,,,,main,None,None,1,1.4990571000380442,432.2248326999834,None,None,1,,,,,,,,,,,,,,112,2023-04-06_13h57.19.207,Main,2022.1.1,60.90215582100127,
positive,blue,1,k,None,,,,,,,,,0,105,105,105,,,,,,,,,,,,,,,,,main,k,k,1,0.8498175999848172,434.7248291000724,None,None,0,,,,,,,,,,,,,,112,2023-04-06_13h57.19.207,Main,2022.1.1,60.90215582100127,
positive,blue,2,k,None,,,,,,,,,0,106,106,106,,,,,,,,,,,,,,,,,main,k,k,1,0.9346956999506801,436.5774727000389,None,None,0,,,,,,,,,,,,,,112,2023-04-06_13h57.19.207,Main,2022.1.1,60.90215582100127,
negative,blue,1,None,k,,,,,,,,,0,107,107,107,,,,,,,,,,,,,,,,,main,None,None,1,1.4963589999824762,438.51071070006583,None,None,1,,,,,,,,,,,,,,112,2023-04-06_13h57.19.207,Main,2022.1.1,60.90215582100127,
positive,yellow,2,None,k,,,,,,,,,0,108,108,108,,,,,,,,,,,,,,,,,main,None,None,1,1.5018867999315262,441.0079893000657,None,None,1,,,,,,,,,,,,,,112,2023-04-06_13h57.19.207,Main,2022.1.1,60.90215582100127,
negative,yellow,1,k,None,,,,,,,,,0,109,109,109,,,,,,,,,,,,,,,,,main,k,k,1,1.0801010000286624,443.5106750000268,None,None,0,,,,,,,,,,,,,,112,2023-04-06_13h57.19.207,Main,2022.1.1,60.90215582100127,
negative,blue,2,None,k,,,,,,,,,0,110,110,110,,,,,,,,,,,,,,,,,main,None,None,1,1.5012937999563292,445.59123010002077,None,None,1,,,,,,,,,,,,,,112,2023-04-06_13h57.19.207,Main,2022.1.1,60.90215582100127,
positive,blue,2,k,None,,,,,,,,,0,111,111,111,,,,,,,,,,,,,,,,,main,k,k,1,0.69953089999035,448.09381510003004,None,None,0,,,,,,,,,,,,,,112,2023-04-06_13h57.19.207,Main,2022.1.1,60.90215582100127,
negative,blue,1,None,k,,,,,,,,,0,112,112,112,,,,,,,,,,,,,,,,,main,None,None,1,1.4988124000374228,449.79386930004694,None,None,1,,,,,,,,,,,,,,112,2023-04-06_13h57.19.207,Main,2022.1.1,60.90215582100127,
positive,yellow,1,None,k,,,,,,,,,0,113,113,113,,,,,,,,,,,,,,,,,main,None,None,1,1.4966651999857277,452.2935778000392,None,None,1,,,,,,,,,,,,,,112,2023-04-06_13h57.19.207,Main,2022.1.1,60.90215582100127,
negative,red,1,None,None,,,,,,,,,0,114,114,114,,,,,,,,,,,,,,,,,main,None,None,1,1.502109199995175,454.79101530008484,None,None,1,,,,,,,,,,,,,,112,2023-04-06_13h57.19.207,Main,2022.1.1,60.90215582100127,
positive,red,1,None,None,,,,,,,,,0,115,115,115,,,,,,,,,,,,,,,,,main,None,None,1,1.498863699962385,457.2936997000361,None,None,1,,,,,,,,,,,,,,112,2023-04-06_13h57.19.207,Main,2022.1.1,60.90215582100127,
negative,red,2,None,None,,,,,,,,,0,116,116,116,,,,,,,,,,,,,,,,,main,None,None,1,1.4990902000572532,459.79357790003996,None,None,1,,,,,,,,,,,,,,112,2023-04-06_13h57.19.207,Main,2022.1.1,60.90215582100127,
negative,yellow,2,k,None,,,,,,,,,0,117,117,117,,,,,,,,,,,,,,,,,main,k,k,1,0.8305267000105232,462.29339600005187,None,None,0,,,,,,,,,,,,,,112,2023-04-06_13h57.19.207,Main,2022.1.1,60.90215582100127,
positive,yellow,1,None,k,,,,,,,,,0,118,118,118,,,,,,,,,,,,,,,,,main,None,None,1,1.5014985000016168,464.1241701000836,None,None,1,,,,,,,,,,,,,,112,2023-04-06_13h57.19.207,Main,2022.1.1,60.90215582100127,
positive,red,2,None,None,,,,,,,,,0,119,119,119,,,,,,,,,,,,,,,,,main,None,None,1,1.4989957000361755,466.624363000039,None,None,1,,,,,,,,,,,,,,112,2023-04-06_13h57.19.207,Main,2022.1.1,60.90215582100127,
positive,blue,2,k,None,,,,,,,,,0,120,120,120,,,,,,,,,,,,,,,,,main,k,k,1,0.7327712000114843,469.12672609998845,None,None,0,,,,,,,,,,,,,,112,2023-04-06_13h57.19.207,Main,2022.1.1,60.90215582100127,
negative,red,1,None,None,,,,,,,,,0,121,121,121,,,,,,,,,,,,,,,,,main,None,None,1,1.496361400000751,470.85989800002426,None,None,1,,,,,,,,,,,,,,112,2023-04-06_13h57.19.207,Main,2022.1.1,60.90215582100127,
positive,yellow,2,None,k,,,,,,,,,0,122,122,122,,,,,,,,,,,,,,,,,main,None,k,0,0.7496226999210194,473.35735549998935,None,None,1,,,,,,,,,,,,,,112,2023-04-06_13h57.19.207,Main,2022.1.1,60.90215582100127,
negative,red,2,None,None,,,,,,,,,0,123,123,123,,,,,,,,,,,,,,,,,main,None,None,1,1.501120299915783,476.10993240005337,None,None,1,,,,,,,,,,,,,,112,2023-04-06_13h57.19.207,Main,2022.1.1,60.90215582100127,
negative,yellow,2,k,None,,,,,,,,,0,124,124,124,,,,,,,,,,,,,,,,,main,k,k,1,0.763133900007233,478.6099615000421,None,None,0,,,,,,,,,,,,,,112,2023-04-06_13h57.19.207,Main,2022.1.1,60.90215582100127,
positive,red,1,None,None,,,,,,,,,0,125,125,125,,,,,,,,,,,,,,,,,main,None,None,1,1.5015611000126228,480.3738516999874,None,None,1,,,,,,,,,,,,,,112,2023-04-06_13h57.19.207,Main,2022.1.1,60.90215582100127,
negative,blue,2,None,k,,,,,,,,,0,126,126,126,,,,,,,,,,,,,,,,,main,None,None,1,1.499154399964027,482.8764455000637,None,None,1,,,,,,,,,,,,,,112,2023-04-06_13h57.19.207,Main,2022.1.1,60.90215582100127,
negative,blue,1,None,k,,,,,,,,,0,127,127,127,,,,,,,,,,,,,,,,,main,None,None,1,1.4965820999350399,485.3764569000341,None,None,1,,,,,,,,,,,,,,112,2023-04-06_13h57.19.207,Main,2022.1.1,60.90215582100127,
negative,yellow,1,k,None,,,,,,,,,0,128,128,128,,,,,,,,,,,,,,,,,main,k,k,1,0.9186595999635756,487.8737688000547,None,None,0,,,,,,,,,,,,,,112,2023-04-06_13h57.19.207,Main,2022.1.1,60.90215582100127,
negative,yellow,1,k,None,,,,,,,,,0,129,129,129,,,,,,,,,,,,,,,,,main,k,k,1,0.7491789000341669,489.7929859000724,None,None,0,,,,,,,,,,,,,,112,2023-04-06_13h57.19.207,Main,2022.1.1,60.90215582100127,
positive,blue,1,k,None,,,,,,,,,0,130,130,130,,,,,,,,,,,,,,,,,main,k,k,1,0.9648080000188202,491.5430027000839,None,None,0,,,,,,,,,,,,,,112,2023-04-06_13h57.19.207,Main,2022.1.1,60.90215582100127,
negative,blue,1,None,k,,,,,,,,,0,131,131,131,,,,,,,,,,,,,,,,,main,None,None,1,1.4997789000626653,493.50692960002925,None,None,1,,,,,,,,,,,,,,112,2023-04-06_13h57.19.207,Main,2022.1.1,60.90215582100127,
negative,blue,2,None,k,,,,,,,,,0,132,132,132,,,,,,,,,,,,,,,,,main,None,None,1,1.4966000000713393,496.0094842000399,None,None,1,,,,,,,,,,,,,,112,2023-04-06_13h57.19.207,Main,2022.1.1,60.90215582100127,
positive,blue,2,k,None,,,,,,,,,0,133,133,133,,,,,,,,,,,,,,,,,main,k,k,1,0.8020377999637276,498.5068188000005,None,None,0,,,,,,,,,,,,,,112,2023-04-06_13h57.19.207,Main,2022.1.1,60.90215582100127,
positive,red,2,None,None,,,,,,,,,0,134,134,134,,,,,,,,,,,,,,,,,main,None,None,1,1.4988397000124678,500.309488400002,None,None,1,,,,,,,,,,,,,,112,2023-04-06_13h57.19.207,Main,2022.1.1,60.90215582100127,
negative,yellow,2,k,None,,,,,,,,,0,135,135,135,,,,,,,,,,,,,,,,,main,k,k,1,0.7812386000296101,502.80933750001714,None,None,0,,,,,,,,,,,,,,112,2023-04-06_13h57.19.207,Main,2022.1.1,60.90215582100127,
positive,yellow,2,None,k,,,,,,,,,0,136,136,136,,,,,,,,,,,,,,,,,main,None,None,1,1.5006338000530377,504.59004639997147,None,None,1,,,,,,,,,,,,,,112,2023-04-06_13h57.19.207,Main,2022.1.1,60.90215582100127,
positive,blue,1,k,None,,,,,,,,,0,137,137,137,,,,,,,,,,,,,,,,,main,k,k,1,0.7656944999471307,507.09262160002254,None,None,0,,,,,,,,,,,,,,112,2023-04-06_13h57.19.207,Main,2022.1.1,60.90215582100127,
positive,yellow,1,None,k,,,,,,,,,0,138,138,138,,,,,,,,,,,,,,,,,main,None,None,1,1.4989138999953866,508.85939840006176,None,None,1,,,,,,,,,,,,,,112,2023-04-06_13h57.19.207,Main,2022.1.1,60.90215582100127,
positive,yellow,1,None,k,,,,,,,,,0,139,139,139,,,,,,,,,,,,,,,,,main,None,None,1,1.496459599933587,511.35911640000995,None,None,1,,,,,,,,,,,,,,112,2023-04-06_13h57.19.207,Main,2022.1.1,60.90215582100127,
positive,yellow,1,None,k,,,,,,,,,0,140,140,140,,,,,,,,,,,,,,,,,main,None,None,1,1.501785600092262,513.8565188000211,None,None,1,,,,,,,,,,,,,,112,2023-04-06_13h57.19.207,Main,2022.1.1,60.90215582100127,
positive,blue,1,k,None,,,,,,,,,0,141,141,141,,,,,,,,,,,,,,,,,main,k,k,1,0.7495634000515565,516.3591507000383,None,None,0,,,,,,,,,,,,,,112,2023-04-06_13h57.19.207,Main,2022.1.1,60.90215582100127,
positive,blue,2,k,None,,,,,,,,,0,142,142,142,,,,,,,,,,,,,,,,,main,k,k,1,0.9133315999060869,518.109123100061,None,None,0,,,,,,,,,,,,,,112,2023-04-06_13h57.19.207,Main,2022.1.1,60.90215582100127,
positive,yellow,2,None,k,,,,,,,,,0,143,143,143,,,,,,,,,,,,,,,,,main,None,None,1,1.5015895999968052,520.0230716000078,None,None,1,,,,,,,,,,,,,,112,2023-04-06_13h57.19.207,Main,2022.1.1,60.90215582100127,
negative,yellow,2,k,None,,,,,,,,,0,144,144,144,,,,,,,,,,,,,,,,,main,k,k,1,0.8827624999685213,522.5256267000223,None,None,0,,,,,,,,,,,,,,112,2023-04-06_13h57.19.207,Main,2022.1.1,60.90215582100127,
negative,blue,2,None,k,,,,,,,,,0,145,145,145,,,,,,,,,,,,,,,,,main,None,None,1,1.4988155999453738,524.4090033000102,None,None,1,,,,,,,,,,,,,,112,2023-04-06_13h57.19.207,Main,2022.1.1,60.90215582100127,
negative,red,1,None,None,,,,,,,,,0,146,146,146,,,,,,,,,,,,,,,,,main,None,None,1,1.4964708000188693,526.9089016000507,None,None,1,,,,,,,,,,,,,,112,2023-04-06_13h57.19.207,Main,2022.1.1,60.90215582100127,
positive,blue,1,k,None,,,,,,,,,0,147,147,147,,,,,,,,,,,,,,,,,main,k,k,1,0.902206200058572,529.4062144000782,None,None,0,,,,,,,,,,,,,,112,2023-04-06_13h57.19.207,Main,2022.1.1,60.90215582100127,
positive,yellow,1,None,k,,,,,,,,,0,148,148,148,,,,,,,,,,,,,,,,,main,None,None,1,1.4988275999203324,531.3088326000143,None,None,1,,,,,,,,,,,,,,112,2023-04-06_13h57.19.207,Main,2022.1.1,60.90215582100127,
negative,red,2,None,None,,,,,,,,,0,149,149,149,,,,,,,,,,,,,,,,,main,None,None,1,1.4965165000176057,533.8087707000086,None,None,1,,,,,,,,,,,,,,112,2023-04-06_13h57.19.207,Main,2022.1.1,60.90215582100127,
negative,blue,1,None,k,,,,,,,,,0,150,150,150,,,,,,,,,,,,,,,,,main,None,None,1,1.501808900036849,536.3061255000066,None,None,1,,,,,,,,,,,,,,112,2023-04-06_13h57.19.207,Main,2022.1.1,60.90215582100127,
negative,yellow,2,k,None,,,,,,,,,0,151,151,151,,,,,,,,,,,,,,,,,main,k,k,1,0.8801601999439299,538.8087291000411,None,None,0,,,,,,,,,,,,,,112,2023-04-06_13h57.19.207,Main,2022.1.1,60.90215582100127,
negative,blue,2,None,k,,,,,,,,,0,152,152,152,,,,,,,,,,,,,,,,,main,None,None,1,1.5015479000285268,540.689334900002,None,None,1,,,,,,,,,,,,,,112,2023-04-06_13h57.19.207,Main,2022.1.1,60.90215582100127,
negative,yellow,1,k,None,,,,,,,,,0,153,153,153,,,,,,,,,,,,,,,,,main,k,k,1,1.1660804999992251,543.191919600009,None,None,0,,,,,,,,,,,,,,112,2023-04-06_13h57.19.207,Main,2022.1.1,60.90215582100127,
negative,blue,1,None,k,,,,,,,,,0,154,154,154,,,,,,,,,,,,,,,,,main,None,None,1,1.496253399993293,545.3585385000333,None,None,1,,,,,,,,,,,,,,112,2023-04-06_13h57.19.207,Main,2022.1.1,60.90215582100127,
positive,yellow,2,None,k,,,,,,,,,0,155,155,155,,,,,,,,,,,,,,,,,main,None,None,1,1.5018479999853298,547.8558440000052,None,None,1,,,,,,,,,,,,,,112,2023-04-06_13h57.19.207,Main,2022.1.1,60.90215582100127,
positive,red,2,None,None,,,,,,,,,0,156,156,156,,,,,,,,,,,,,,,,,main,None,None,1,1.4967306000180542,550.3584833000787,None,None,1,,,,,,,,,,,,,,112,2023-04-06_13h57.19.207,Main,2022.1.1,60.90215582100127,
positive,red,1,None,None,,,,,,,,,0,157,157,157,,,,,,,,,,,,,,,,,main,None,None,1,1.4990654999855906,552.8582770000212,None,None,1,,,,,,,,,,,,,,112,2023-04-06_13h57.19.207,Main,2022.1.1,60.90215582100127,
positive,blue,2,k,None,,,,,,,,,0,158,158,158,,,,,,,,,,,,,,,,,main,k,k,1,0.7493440000107512,555.3617067000596,None,None,0,,,,,,,,,,,,,,112,2023-04-06_13h57.19.207,Main,2022.1.1,60.90215582100127,
negative,yellow,1,k,None,,,,,,,,,0,159,159,159,,,,,,,,,,,,,,,,,main,k,k,1,1.0516906999982893,557.105680000037,None,None,0,,,,,,,,,,,,,,112,2023-04-06_13h57.19.207,Main,2022.1.1,60.90215582100127,
negative,red,2,None,None,,,,,,,,,0,160,160,160,,,,,,,,,,,,,,,,,main,None,None,1,1.501844499958679,559.1582457000623,None,None,1,,,,,,,,,,,,,,112,2023-04-06_13h57.19.207,Main,2022.1.1,60.90215582100127,
negative,blue,1,None,k,,,,,,,,,0,161,161,161,,,,,,,,,,,,,,,,,main,None,None,1,1.4939498999156058,561.6592544000596,None,None,1,,,,,,,,,,,,,,112,2023-04-06_13h57.19.207,Main,2022.1.1,60.90215582100127,
negative,blue,1,None,k,,,,,,,,,0,162,162,162,,,,,,,,,,,,,,,,,main,None,None,1,1.4987781000090763,564.1558347999817,None,None,1,,,,,,,,,,,,,,112,2023-04-06_13h57.19.207,Main,2022.1.1,60.90215582100127,
negative,yellow,1,k,None,,,,,,,,,0,163,163,163,,,,,,,,,,,,,,,,,main,k,k,1,0.7855276999762282,566.6555018000072,None,None,0,,,,,,,,,,,,,,112,2023-04-06_13h57.19.207,Main,2022.1.1,60.90215582100127,
negative,yellow,1,k,None,,,,,,,,,0,164,164,164,,,,,,,,,,,,,,,,,main,k,k,1,0.8324659001082182,568.4415427000495,None,None,0,,,,,,,,,,,,,,112,2023-04-06_13h57.19.207,Main,2022.1.1,60.90215582100127,
positive,yellow,1,None,k,,,,,,,,,0,165,165,165,,,,,,,,,,,,,,,,,main,None,None,1,1.4960141000337899,570.2747598000569,None,None,1,,,,,,,,,,,,,,112,2023-04-06_13h57.19.207,Main,2022.1.1,60.90215582100127,
negative,red,1,None,None,,,,,,,,,0,166,166,166,,,,,,,,,,,,,,,,,main,None,None,1,1.5019984999671578,572.7720029000193,None,None,1,,,,,,,,,,,,,,112,2023-04-06_13h57.19.207,Main,2022.1.1,60.90215582100127,
negative,yellow,2,k,None,,,,,,,,,0,167,167,167,,,,,,,,,,,,,,,,,main,k,k,1,0.8658970000687987,575.2746650000336,None,None,0,,,,,,,,,,,,,,112,2023-04-06_13h57.19.207,Main,2022.1.1,60.90215582100127,
positive,blue,2,k,None,,,,,,,,,0,168,168,168,,,,,,,,,,,,,,,,,main,k,k,1,0.8993135000346228,577.1412593000568,None,None,0,,,,,,,,,,,,,,112,2023-04-06_13h57.19.207,Main,2022.1.1,60.90215582100127,
positive,red,2,None,None,,,,,,,,,0,169,169,169,,,,,,,,,,,,,,,,,main,None,None,1,1.496296999976039,579.0410547000356,None,None,1,,,,,,,,,,,,,,112,2023-04-06_13h57.19.207,Main,2022.1.1,60.90215582100127,
positive,red,1,None,None,,,,,,,,,0,170,170,170,,,,,,,,,,,,,,,,,main,None,None,1,1.5017897000070661,581.538502200041,None,None,1,,,,,,,,,,,,,,112,2023-04-06_13h57.19.207,Main,2022.1.1,60.90215582100127,
negative,blue,2,None,k,,,,,,,,,0,171,171,171,,,,,,,,,,,,,,,,,main,None,None,1,1.4992170999757946,584.0411235999782,None,None,1,,,,,,,,,,,,,,112,2023-04-06_13h57.19.207,Main,2022.1.1,60.90215582100127,
positive,blue,2,k,None,,,,,,,,,0,172,172,172,,,,,,,,,,,,,,,,,main,k,k,1,0.8134968000231311,586.5409993000794,None,None,0,,,,,,,,,,,,,,112,2023-04-06_13h57.19.207,Main,2022.1.1,60.90215582100127,
negative,yellow,2,k,None,,,,,,,,,0,173,173,173,,,,,,,,,,,,,,,,,main,k,k,1,0.7194165999535471,588.355022200034,None,None,0,,,,,,,,,,,,,,112,2023-04-06_13h57.19.207,Main,2022.1.1,60.90215582100127,
positive,yellow,2,None,k,,,,,,,,,0,174,174,174,,,,,,,,,,,,,,,,,main,None,None,1,1.4977804999798536,590.0744314000476,None,None,1,,,,,,,,,,,,,,112,2023-04-06_13h57.19.207,Main,2022.1.1,60.90215582100127,
negative,blue,2,None,k,,,,,,,,,0,175,175,175,,,,,,,,,,,,,,,,,main,None,None,1,1.4972376000368968,592.5742605000269,None,None,1,,,,,,,,,,,,,,112,2023-04-06_13h57.19.207,Main,2022.1.1,60.90215582100127,
positive,blue,1,k,None,,,,,,,,,0,176,176,176,,,,,,,,,,,,,,,,,main,k,k,1,1.2011325999628752,595.0716206000652,None,None,0,,,,,,,,,,,,,,112,2023-04-06_13h57.19.207,Main,2022.1.1,60.90215582100127,
positive,yellow,1,None,k,,,,,,,,,0,177,177,177,,,,,,,,,,,,,,,,,main,None,k,0,-0.7673751999391243,597.2741972000804,None,None,1,,,,,,,,,,,,,,112,2023-04-06_13h57.19.207,Main,2022.1.1,60.90215582100127,
positive,blue,1,k,None,,,,,,,,,0,178,178,178,,,,,,,,,,,,,,,,,main,k,k,1,0.887302799965255,600.5047944000689,None,None,0,,,,,,,,,,,,,,112,2023-04-06_13h57.19.207,Main,2022.1.1,60.90215582100127,
positive,yellow,2,None,k,,,,,,,,,0,179,179,179,,,,,,,,,,,,,,,,,main,None,None,1,1.498286599991843,602.3907360000303,None,None,1,,,,,,,,,,,,,,112,2023-04-06_13h57.19.207,Main,2022.1.1,60.90215582100127,
positive,blue,1,k,None,,,,,,,,,0,180,180,180,,,,,,,,,,,,,,,,,main,k,k,1,0.7475565000204369,604.8907753999811,None,None,0,,,,,,,,,,,,,,112,2023-04-06_13h57.19.207,Main,2022.1.1,60.90215582100127,
negative,red,1,None,None,,,,,,,,,0,181,181,181,,,,,,,,,,,,,,,,,main,None,None,1,1.4982136000180617,606.6405427000718,None,None,1,,,,,,,,,,,,,,112,2023-04-06_13h57.19.207,Main,2022.1.1,60.90215582100127,
negative,blue,1,None,k,,,,,,,,,0,182,182,182,,,,,,,,,,,,,,,,,main,None,k,0,0.8510428000008687,609.1379589000717,None,None,1,,,,,,,,,,,,,,112,2023-04-06_13h57.19.207,Main,2022.1.1,60.90215582100127,
negative,yellow,2,k,None,,,,,,,,,0,183,183,183,,,,,,,,,,,,,,,,,main,k,k,1,0.7680681999772787,611.9905315000797,None,None,0,,,,,,,,,,,,,,112,2023-04-06_13h57.19.207,Main,2022.1.1,60.90215582100127,
positive,yellow,2,None,k,,,,,,,,,0,184,184,184,,,,,,,,,,,,,,,,,main,None,None,1,1.496026000007987,613.757230999996,None,None,1,,,,,,,,,,,,,,112,2023-04-06_13h57.19.207,Main,2022.1.1,60.90215582100127,
positive,yellow,1,None,k,,,,,,,,,0,185,185,185,,,,,,,,,,,,,,,,,main,None,None,1,1.5016930000856519,616.2545408000005,None,None,1,,,,,,,,,,,,,,112,2023-04-06_13h57.19.207,Main,2022.1.1,60.90215582100127,
positive,red,2,None,None,,,,,,,,,0,186,186,186,,,,,,,,,,,,,,,,,main,None,None,1,1.4988684999989346,618.7570965000195,None,None,1,,,,,,,,,,,,,,112,2023-04-06_13h57.19.207,Main,2022.1.1,60.90215582100127,
positive,blue,1,k,None,,,,,,,,,0,187,187,187,,,,,,,,,,,,,,,,,main,k,k,1,0.9973961999639869,621.2546494000126,None,None,0,,,,,,,,,,,,,,112,2023-04-06_13h57.19.207,Main,2022.1.1,60.90215582100127,
negative,yellow,1,k,None,,,,,,,,,0,188,188,188,,,,,,,,,,,,,,,,,main,k,k,1,0.9320978000760078,623.2568558000494,None,None,0,,,,,,,,,,,,,,112,2023-04-06_13h57.19.207,Main,2022.1.1,60.90215582100127,
positive,yellow,2,None,k,,,,,,,,,0,189,189,189,,,,,,,,,,,,,,,,,main,None,None,1,1.5014698000159115,625.1876506999834,None,None,1,,,,,,,,,,,,,,112,2023-04-06_13h57.19.207,Main,2022.1.1,60.90215582100127,
negative,yellow,2,k,None,,,,,,,,,0,190,190,190,,,,,,,,,,,,,,,,,main,k,k,1,0.7162856000941247,627.6902675000019,None,None,0,,,,,,,,,,,,,,112,2023-04-06_13h57.19.207,Main,2022.1.1,60.90215582100127,
negative,yellow,1,k,None,,,,,,,,,0,191,191,191,,,,,,,,,,,,,,,,,main,k,k,1,0.7466751999454573,629.4069070999976,None,None,0,,,,,,,,,,,,,,112,2023-04-06_13h57.19.207,Main,2022.1.1,60.90215582100127,
positive,blue,2,k,None,,,,,,,,,0,192,192,192,,,,,,,,,,,,,,,,,main,k,k,1,0.6489634000463411,631.1567201999715,None,None,0,,,,,,,,,,,,,,112,2023-04-06_13h57.19.207,Main,2022.1.1,60.90215582100127,
positive,yellow,1,None,k,,,,,,,,,0,193,193,193,,,,,,,,,,,,,,,,,main,None,None,1,1.501425200025551,632.8043417000445,None,None,1,,,,,,,,,,,,,,112,2023-04-06_13h57.19.207,Main,2022.1.1,60.90215582100127,
negative,red,2,None,None,,,,,,,,,0,194,194,194,,,,,,,,,,,,,,,,,main,None,None,1,1.4991185000399128,635.3068054000614,None,None,1,,,,,,,,,,,,,,112,2023-04-06_13h57.19.207,Main,2022.1.1,60.90215582100127,
positive,red,1,None,None,,,,,,,,,0,195,195,195,,,,,,,,,,,,,,,,,main,None,None,1,1.4963236000621691,637.8067203999963,None,None,1,,,,,,,,,,,,,,112,2023-04-06_13h57.19.207,Main,2022.1.1,60.90215582100127,
negative,blue,1,None,k,,,,,,,,,0,196,196,196,,,,,,,,,,,,,,,,,main,None,None,1,1.50187219993677,640.3040073000593,None,None,1,,,,,,,,,,,,,,112,2023-04-06_13h57.19.207,Main,2022.1.1,60.90215582100127,
positive,blue,2,k,None,,,,,,,,,0,197,197,197,,,,,,,,,,,,,,,,,main,k,k,1,1.3300444000633433,642.8066081000725,None,None,0,,,,,,,,,,,,,,112,2023-04-06_13h57.19.207,Main,2022.1.1,60.90215582100127,
negative,blue,2,None,k,,,,,,,,,0,198,198,198,,,,,,,,,,,,,,,,,main,None,None,1,1.5012701000086963,645.137221800047,None,None,1,,,,,,,,,,,,,,112,2023-04-06_13h57.19.207,Main,2022.1.1,60.90215582100127,
negative,blue,2,None,k,,,,,,,,,0,199,199,199,,,,,,,,,,,,,,,,,main,None,None,1,1.4992939999792725,647.6398539000656,None,None,1,,,,,,,,,,,,,,112,2023-04-06_13h57.19.207,Main,2022.1.1,60.90215582100127,
positive,blue,2,k,None,,,,,,,,,0,200,200,200,,,,,,,,,,,,,,,,,main,k,k,1,0.6636343999998644,650.1398651000345,None,None,0,,,,,,,,,,,,,,112,2023-04-06_13h57.19.207,Main,2022.1.1,60.90215582100127,
positive,blue,2,k,None,,,,,,,,,0,201,201,201,,,,,,,,,,,,,,,,,main,k,k,1,0.7851109000621364,651.8037652000785,None,None,0,,,,,,,,,,,,,,112,2023-04-06_13h57.19.207,Main,2022.1.1,60.90215582100127,
negative,yellow,2,k,None,,,,,,,,,0,202,202,202,,,,,,,,,,,,,,,,,main,k,k,1,0.6487994999624789,653.5896829999983,None,None,0,,,,,,,,,,,,,,112,2023-04-06_13h57.19.207,Main,2022.1.1,60.90215582100127,
positive,red,1,None,None,,,,,,,,,0,203,203,203,,,,,,,,,,,,,,,,,main,None,None,1,1.4963100999593735,655.23970070004,None,None,1,,,,,,,,,,,,,,112,2023-04-06_13h57.19.207,Main,2022.1.1,60.90215582100127,
negative,blue,2,None,k,,,,,,,,,0,204,204,204,,,,,,,,,,,,,,,,,main,None,None,1,1.501944699906744,657.7369940000353,None,None,1,,,,,,,,,,,,,,112,2023-04-06_13h57.19.207,Main,2022.1.1,60.90215582100127,
negative,red,1,None,None,,,,,,,,,0,205,205,205,,,,,,,,,,,,,,,,,main,None,None,1,1.4967964000534266,660.2395879999967,None,None,1,,,,,,,,,,,,,,112,2023-04-06_13h57.19.207,Main,2022.1.1,60.90215582100127,
negative,blue,2,None,k,,,,,,,,,0,206,206,206,,,,,,,,,,,,,,,,,main,None,None,1,1.5012461999431252,662.7371757000219,None,None,1,,,,,,,,,,,,,,112,2023-04-06_13h57.19.207,Main,2022.1.1,60.90215582100127,
negative,yellow,2,k,None,,,,,,,,,0,207,207,207,,,,,,,,,,,,,,,,,main,k,k,1,0.8469882999779657,665.2394799999893,None,None,0,,,,,,,,,,,,,,112,2023-04-06_13h57.19.207,Main,2022.1.1,60.90215582100127,
positive,yellow,2,None,k,,,,,,,,,0,208,208,208,,,,,,,,,,,,,,,,,main,None,None,1,1.501458999933675,667.0868421000196,None,None,1,,,,,,,,,,,,,,112,2023-04-06_13h57.19.207,Main,2022.1.1,60.90215582100127,
negative,yellow,1,k,None,,,,,,,,,0,209,209,209,,,,,,,,,,,,,,,,,main,k,k,1,0.7161461999639869,669.5894052999793,None,None,0,,,,,,,,,,,,,,112,2023-04-06_13h57.19.207,Main,2022.1.1,60.90215582100127,
negative,red,2,None,None,,,,,,,,,0,210,210,210,,,,,,,,,,,,,,,,,main,None,None,1,1.4964174000779167,671.3060914999805,None,None,1,,,,,,,,,,,,,,112,2023-04-06_13h57.19.207,Main,2022.1.1,60.90215582100127,
negative,blue,1,None,k,,,,,,,,,0,211,211,211,,,,,,,,,,,,,,,,,main,None,None,1,1.501769999973476,673.8033896000125,None,None,1,,,,,,,,,,,,,,112,2023-04-06_13h57.19.207,Main,2022.1.1,60.90215582100127,
negative,yellow,1,k,None,,,,,,,,,0,212,212,212,,,,,,,,,,,,,,,,,main,k,k,1,0.7991073000011966,676.3059399999911,None,None,0,,,,,,,,,,,,,,112,2023-04-06_13h57.19.207,Main,2022.1.1,60.90215582100127,
positive,blue,1,k,None,,,,,,,,,0,213,213,213,,,,,,,,,,,,,,,,,main,k,k,1,0.716243700007908,678.1057492999826,None,None,0,,,,,,,,,,,,,,112,2023-04-06_13h57.19.207,Main,2022.1.1,60.90215582100127,
positive,blue,1,k,None,,,,,,,,,0,214,214,214,,,,,,,,,,,,,,,,,main,k,k,1,0.6631232999498025,679.8202049999963,None,None,0,,,,,,,,,,,,,,112,2023-04-06_13h57.19.207,Main,2022.1.1,60.90215582100127,
positive,yellow,1,None,k,,,,,,,,,0,215,215,215,,,,,,,,,,,,,,,,,main,None,None,1,1.5014939000830054,681.4865075000562,None,None,1,,,,,,,,,,,,,,112,2023-04-06_13h57.19.207,Main,2022.1.1,60.90215582100127,
positive,yellow,1,None,k,,,,,,,,,0,216,216,216,,,,,,,,,,,,,,,,,main,None,None,1,1.4992194001097232,683.9890844000038,None,None,1,,,,,,,,,,,,,,112,2023-04-06_13h57.19.207,Main,2022.1.1,60.90215582100127,
positive,yellow,2,None,k,,,,,,,,,0,217,217,217,,,,,,,,,,,,,,,,,main,None,None,1,1.496566400048323,686.4890984999947,None,None,1,,,,,,,,,,,,,,112,2023-04-06_13h57.19.207,Main,2022.1.1,60.90215582100127,
negative,blue,1,None,k,,,,,,,,,0,218,218,218,,,,,,,,,,,,,,,,,main,None,None,1,1.5017010000301525,688.9864149000496,None,None,1,,,,,,,,,,,,,,112,2023-04-06_13h57.19.207,Main,2022.1.1,60.90215582100127,
positive,red,2,None,None,,,,,,,,,0,219,219,219,,,,,,,,,,,,,,,,,main,None,None,1,1.499013900058344,691.488949200022,None,None,1,,,,,,,,,,,,,,112,2023-04-06_13h57.19.207,Main,2022.1.1,60.90215582100127,
positive,yellow,1,None,k,,,,,,,,,0,220,220,220,,,,,,,,,,,,,,,,,main,None,None,1,1.4964504000963643,693.988734100014,None,None,1,,,,,,,,,,,,,,112,2023-04-06_13h57.19.207,Main,2022.1.1,60.90215582100127,
positive,blue,1,k,None,,,,,,,,,0,221,221,221,,,,,,,,,,,,,,,,,main,k,k,1,0.8993705000029877,696.486204600078,None,None,0,,,,,,,,,,,,,,112,2023-04-06_13h57.19.207,Main,2022.1.1,60.90215582100127,
positive,yellow,2,None,k,,,,,,,,,0,222,222,222,,,,,,,,,,,,,,,,,main,None,None,1,1.5011009000008926,698.3862434000475,None,None,1,,,,,,,,,,,,,,112,2023-04-06_13h57.19.207,Main,2022.1.1,60.90215582100127,
negative,yellow,1,k,None,,,,,,,,,0,223,223,223,,,,,,,,,,,,,,,,,main,k,k,1,1.2633625000016764,700.8887906000018,None,None,0,,,,,,,,,,,,,,112,2023-04-06_13h57.19.207,Main,2022.1.1,60.90215582100127,
positive,yellow,2,None,k,,,,,,,,,0,224,224,224,,,,,,,,,,,,,,,,,main,None,None,1,1.5014155999524519,703.1527619999833,None,None,1,,,,,,,,,,,,,,112,2023-04-06_13h57.19.207,Main,2022.1.1,60.90215582100127,
negative,yellow,2,k,None,,,,,,,,,0,225,225,225,,,,,,,,,,,,,,,,,main,k,k,1,0.8973106000339612,705.6553362000268,None,None,0,,,,,,,,,,,,,,112,2023-04-06_13h57.19.207,Main,2022.1.1,60.90215582100127,
negative,blue,2,None,k,,,,,,,,,0,226,226,226,,,,,,,,,,,,,,,,,main,None,None,1,1.4985233000479639,707.5553063000552,None,None,1,,,,,,,,,,,,,,112,2023-04-06_13h57.19.207,Main,2022.1.1,60.90215582100127,
positive,red,2,None,None,,,,,,,,,0,227,227,227,,,,,,,,,,,,,,,,,main,None,None,1,1.5017149999039248,710.0526606000494,None,None,1,,,,,,,,,,,,,,112,2023-04-06_13h57.19.207,Main,2022.1.1,60.90215582100127,
positive,blue,2,k,None,,,,,,,,,0,228,228,228,,,,,,,,,,,,,,,,,main,k,k,1,0.8634343000594527,712.5551864000736,None,None,0,,,,,,,,,,,,,,112,2023-04-06_13h57.19.207,Main,2022.1.1,60.90215582100127,
negative,blue,1,None,k,,,,,,,,,0,229,229,229,,,,,,,,,,,,,,,,,main,None,None,1,1.5015322000253946,714.4191725000273,None,None,1,,,,,,,,,,,,,,112,2023-04-06_13h57.19.207,Main,2022.1.1,60.90215582100127,
positive,yellow,1,None,k,,,,,,,,,0,230,230,230,,,,,,,,,,,,,,,,,main,None,None,1,1.4990197999868542,716.921743700048,None,None,1,,,,,,,,,,,,,,112,2023-04-06_13h57.19.207,Main,2022.1.1,60.90215582100127,
negative,blue,2,None,k,,,,,,,,,0,231,231,231,,,,,,,,,,,,,,,,,main,None,None,1,1.498977500014007,719.4217821999919,None,None,1,,,,,,,,,,,,,,112,2023-04-06_13h57.19.207,Main,2022.1.1,60.90215582100127,
negative,red,1,None,None,,,,,,,,,0,232,232,232,,,,,,,,,,,,,,,,,main,None,None,1,1.4968084000283852,721.9193252000259,None,None,1,,,,,,,,,,,,,,112,2023-04-06_13h57.19.207,Main,2022.1.1,60.90215582100127,
positive,blue,2,k,None,,,,,,,,,0,233,233,233,,,,,,,,,,,,,,,,,main,k,k,1,0.7189090000465512,724.4189786000643,None,None,0,,,,,,,,,,,,,,112,2023-04-06_13h57.19.207,Main,2022.1.1,60.90215582100127,
negative,yellow,1,k,None,,,,,,,,,0,234,234,234,,,,,,,,,,,,,,,,,main,k,k,1,0.8158741999650374,726.1382753000362,None,None,0,,,,,,,,,,,,,,112,2023-04-06_13h57.19.207,Main,2022.1.1,60.90215582100127,
negative,yellow,2,k,None,,,,,,,,,0,235,235,235,,,,,,,,,,,,,,,,,main,k,k,1,0.863170100026764,727.9549394000787,None,None,0,,,,,,,,,,,,,,112,2023-04-06_13h57.19.207,Main,2022.1.1,60.90215582100127,
positive,red,1,None,None,,,,,,,,,0,236,236,236,,,,,,,,,,,,,,,,,main,None,None,1,1.5026170999044552,729.8188909000019,None,None,1,,,,,,,,,,,,,,112,2023-04-06_13h57.19.207,Main,2022.1.1,60.90215582100127,
negative,red,2,None,None,,,,,,,,,0,237,237,237,,,,,,,,,,,,,,,,,main,None,None,1,1.4981199000030756,732.3214900000021,None,None,1,,,,,,,,,,,,,,112,2023-04-06_13h57.19.207,Main,2022.1.1,60.90215582100127,
negative,blue,1,None,k,,,,,,,,,0,238,238,238,,,,,,,,,,,,,,,,,main,None,None,1,1.4974581999704242,734.8214563999791,None,None,1,,,,,,,,,,,,,,112,2023-04-06_13h57.19.207,Main,2022.1.1,60.90215582100127,
positive,blue,1,k,None,,,,,,,,,0,239,239,239,,,,,,,,,,,,,,,,,main,k,k,1,0.7674607000080869,737.3187811999815,None,None,0,,,,,,,,,,,,,,112,2023-04-06_13h57.19.207,Main,2022.1.1,60.90215582100127,
,,,,,,,,,,,,,,,,,,,,,,,,,,,,,,,,,,,,,,,,,,,,,,,,,,,,,739.0880015000002,None,,,,,,
