distractor,target,set,ans1,ans2,rep_loop4.thisRepN,rep_loop4.thisTrialN,rep_loop4.thisN,rep_loop4.thisIndex,st2_prac_loop.thisRepN,st2_prac_loop.thisTrialN,st2_prac_loop.thisN,st2_prac_loop.thisIndex,st2_main_loop.thisRepN,st2_main_loop.thisTrialN,st2_main_loop.thisN,st2_main_loop.thisIndex,image_4.started,image_4.stopped,sound_2.started,sound_2.stopped,key_resp_3.keys,key_resp_3.rt,image_5.started,image_5.stopped,st_prac_back.started,st_prac_back.stopped,st_prac_text.started,st_prac_text.stopped,st_fix_back.started,st_fix_back.stopped,st_fix_2.started,st_fix_2.stopped,main_prac,st_ans,st_res,st_corr,st_rt,st_back.started,st_back.stopped,st2_resp.keys,st2_resp.corr,st_main_back.started,st_main_back.stopped,st_main_text.started,st_main_text.stopped,mouse_4.x,mouse_4.y,mouse_4.leftButton,mouse_4.midButton,mouse_4.rightButton,mouse_4.started,mouse_4.stopped,text_2.started,text_2.stopped,id*,date,expName,psychopyVersion,frameRate,
negative,yellow,1,k,None,,,,,0,0,0,0,,,,,32.364312099991366,None,36.117143920063974,None,space,56.14664630009793,92.28256669989787,None,93.83256520004943,None,93.83256520004943,None,95.83242979994975,None,95.83242979994975,None,prac,None,None,1,1.4943397999741137,97.83016519993544,None,None,1,,,,,,,,,,,,,,201,2023-03-27_13h09.13.236,Main,2022.1.1,59.897204457781655,
positive,red,2,None,None,,,,,0,1,1,1,,,,,,,,,,,,,,,,,,,,,prac,None,None,1,1.4957488998770714,100.32948930002749,None,None,1,,,,,,,,,,,,,,201,2023-03-27_13h09.13.236,Main,2022.1.1,59.897204457781655,
negative,blue,2,None,k,,,,,0,2,2,2,,,,,,,,,,,,,,,,,,,,,prac,k,k,1,0.9327622000128031,102.82919059996493,None,None,0,,,,,,,,,,,,,,201,2023-03-27_13h09.13.236,Main,2022.1.1,59.897204457781655,
positive,yellow,1,None,k,,,,,0,3,3,3,,,,,,,,,,,,,,,,,,,,,prac,k,k,1,0.9352847000118345,104.76570190000348,None,None,0,,,,,,,,,,,,,,201,2023-03-27_13h09.13.236,Main,2022.1.1,59.897204457781655,
negative,blue,2,None,k,,,,,0,4,4,4,,,,,,,,,,,,,,,,,,,,,prac,k,k,1,0.9628077000379562,106.69623770006001,None,None,0,,,,,,,,,,,,,,201,2023-03-27_13h09.13.236,Main,2022.1.1,59.897204457781655,
negative,blue,1,None,k,,,,,0,5,5,5,,,,,,,,,,,,,,,,,,,,,prac,k,k,1,1.2824677000753582,108.66272410005331,None,None,0,,,,,,,,,,,,,,201,2023-03-27_13h09.13.236,Main,2022.1.1,59.897204457781655,
negative,yellow,2,k,None,,,,,0,6,6,6,,,,,,,,,,,,,,,,,,,,,prac,None,None,1,1.4990836000069976,110.94587989989668,None,None,1,,,,,,,,,,,,,,201,2023-03-27_13h09.13.236,Main,2022.1.1,59.897204457781655,
negative,red,1,None,None,,,,,0,7,7,7,,,,,,,,,,,,,,,,,,,,,prac,None,None,1,1.501806299900636,113.44586029998027,None,None,1,,,,,,,,,,,,,,201,2023-03-27_13h09.13.236,Main,2022.1.1,59.897204457781655,
positive,yellow,2,None,k,,,,,0,8,8,8,,,,,,,,,,,,,,,,,,,,,prac,k,k,1,0.8491553999483585,115.94874590006657,None,None,0,,,,,,,,,,,,,,201,2023-03-27_13h09.13.236,Main,2022.1.1,59.897204457781655,
negative,yellow,1,k,None,,,,,0,9,9,9,,,,,,,,,,,,,,,,,,,,,prac,None,None,1,1.495687099872157,117.79577980004251,None,None,1,,,,,,,,,,,,,,201,2023-03-27_13h09.13.236,Main,2022.1.1,59.897204457781655,
positive,yellow,2,None,k,,,,,0,10,10,10,,,,,,,,,,,,,,,,,,,,,prac,k,k,1,0.7837485999334604,120.29548219987191,None,None,0,,,,,,,,,,,,,,201,2023-03-27_13h09.13.236,Main,2022.1.1,59.897204457781655,
negative,yellow,2,k,None,,,,,0,11,11,11,,,,,,,,,,,,,,,,,,,,,prac,None,None,1,1.4984091999940574,122.08198580006137,None,None,1,,,,,,,,,,,,,,201,2023-03-27_13h09.13.236,Main,2022.1.1,59.897204457781655,
negative,red,2,None,None,,,,,0,12,12,12,,,,,,,,,,,,,,,,,,,,,prac,None,None,1,1.490077800117433,124.57922139996663,None,None,1,,,,,,,,,,,,,,201,2023-03-27_13h09.13.236,Main,2022.1.1,59.897204457781655,
positive,red,1,None,None,,,,,0,13,13,13,,,,,,,,,,,,,,,,,,,,,prac,None,None,1,1.491613799938932,127.06865009991452,None,None,1,,,,,,,,,,,,,,201,2023-03-27_13h09.13.236,Main,2022.1.1,59.897204457781655,
positive,blue,2,k,None,,,,,0,14,14,14,,,,,,,,,,,,,,,,,,,,,prac,None,k,0,0.8991666999645531,129.56195960007608,None,None,1,,,,,,,,,,,,,,201,2023-03-27_13h09.13.236,Main,2022.1.1,59.897204457781655,
positive,blue,1,k,None,,,,,0,15,15,15,,,,,,,,,,,,,,,,,,,,,prac,None,k,0,0.8650048000272363,132.46521930000745,None,None,1,,,,,,,,,,,,,,201,2023-03-27_13h09.13.236,Main,2022.1.1,59.897204457781655,
negative,blue,1,None,k,,,,,0,16,16,16,,,,,,,,,,,,,,,,,,,,,prac,k,k,1,0.8651945001911372,135.33172839996405,None,None,0,,,,,,,,,,,,,,201,2023-03-27_13h09.13.236,Main,2022.1.1,59.897204457781655,
positive,blue,2,k,None,,,,,0,17,17,17,,,,,,,,,,,,,,,,,,,,,prac,None,None,1,1.4980617999099195,137.19837359990925,None,None,1,,,,,,,,,,,,,,201,2023-03-27_13h09.13.236,Main,2022.1.1,59.897204457781655,
positive,blue,1,k,None,,,,,0,18,18,18,,,,,,,,,,,,,,,,,,,,,prac,None,None,1,1.5025026998482645,139.69509739987552,None,None,1,,,,,,,,,,,,,,201,2023-03-27_13h09.13.236,Main,2022.1.1,59.897204457781655,
positive,yellow,1,None,k,,,,,0,19,19,19,,,,,,,,,,,,,,,,,,,,,prac,k,k,1,0.9628932999912649,142.19539820007049,None,None,0,,,,,,,,,,,,,,201,2023-03-27_13h09.13.236,Main,2022.1.1,59.897204457781655,
negative,yellow,1,k,None,,,,,1,0,20,0,,,,,,,,,,,,,,,,,,,,,prac,None,None,1,1.5016938999760896,144.16479480010457,None,None,1,,,,,,,,,,,,,,201,2023-03-27_13h09.13.236,Main,2022.1.1,59.897204457781655,
positive,red,2,None,None,,,,,1,1,21,1,,,,,,,,,,,,,,,,,,,,,prac,None,None,1,1.4991646001581103,146.66180759994313,None,None,1,,,,,,,,,,,,,,201,2023-03-27_13h09.13.236,Main,2022.1.1,59.897204457781655,
negative,blue,2,None,k,,,,,1,2,22,2,,,,,,,,,,,,,,,,,,,,,prac,k,k,1,0.979679899988696,149.1617870000191,None,None,0,,,,,,,,,,,,,,201,2023-03-27_13h09.13.236,Main,2022.1.1,59.897204457781655,
positive,yellow,1,None,k,,,,,1,3,23,3,,,,,,,,,,,,,,,,,,,,,prac,k,k,1,0.9022529998328537,151.1451121000573,None,None,0,,,,,,,,,,,,,,201,2023-03-27_13h09.13.236,Main,2022.1.1,59.897204457781655,
negative,blue,2,None,k,,,,,1,4,24,4,,,,,,,,,,,,,,,,,,,,,prac,k,k,1,0.8793845998588949,153.0450559000019,None,None,0,,,,,,,,,,,,,,201,2023-03-27_13h09.13.236,Main,2022.1.1,59.897204457781655,
negative,blue,1,None,k,,,,,1,5,25,5,,,,,,,,,,,,,,,,,,,,,prac,k,k,1,0.9186942998785526,154.93124770000577,None,None,0,,,,,,,,,,,,,,201,2023-03-27_13h09.13.236,Main,2022.1.1,59.897204457781655,
negative,yellow,2,k,None,,,,,1,6,26,6,,,,,,,,,,,,,,,,,,,,,prac,None,None,1,1.49562649987638,156.8450531999115,None,None,1,,,,,,,,,,,,,,201,2023-03-27_13h09.13.236,Main,2022.1.1,59.897204457781655,
negative,red,1,None,None,,,,,1,7,27,7,,,,,,,,,,,,,,,,,,,,,prac,None,None,1,1.5025027999654412,159.34463439998217,None,None,1,,,,,,,,,,,,,,201,2023-03-27_13h09.13.236,Main,2022.1.1,59.897204457781655,
positive,yellow,2,None,k,,,,,1,8,28,8,,,,,,,,,,,,,,,,,,,,,prac,k,k,1,1.5296533000655472,161.84502670005895,None,None,0,,,,,,,,,,,,,,201,2023-03-27_13h09.13.236,Main,2022.1.1,59.897204457781655,
negative,yellow,1,k,None,,,,,1,9,29,9,,,,,,,,,,,,,,,,,,,,,prac,None,None,1,1.500999600160867,165.37827180000022,None,None,1,,,,,,,,,,,,,,201,2023-03-27_13h09.13.236,Main,2022.1.1,59.897204457781655,
positive,yellow,2,None,k,,,,,1,10,30,10,,,,,,,,,,,,,,,,,,,,,prac,k,k,1,0.7461209001485258,167.87807080009952,None,None,0,,,,,,,,,,,,,,201,2023-03-27_13h09.13.236,Main,2022.1.1,59.897204457781655,
negative,yellow,2,k,None,,,,,1,11,31,11,,,,,,,,,,,,,,,,,,,,,prac,None,None,1,1.4988742999266833,169.62812320003286,None,None,1,,,,,,,,,,,,,,201,2023-03-27_13h09.13.236,Main,2022.1.1,59.897204457781655,
negative,red,2,None,None,,,,,1,12,32,12,,,,,,,,,,,,,,,,,,,,,prac,None,None,1,1.5019097002223134,172.1281055000145,None,None,1,,,,,,,,,,,,,,201,2023-03-27_13h09.13.236,Main,2022.1.1,59.897204457781655,
positive,red,1,None,None,,,,,1,13,33,13,,,,,,,,,,,,,,,,,,,,,prac,None,None,1,1.499242699937895,174.62797749997117,None,None,1,,,,,,,,,,,,,,201,2023-03-27_13h09.13.236,Main,2022.1.1,59.897204457781655,
positive,blue,2,k,None,,,,,1,14,34,14,,,,,,,,,,,,,,,,,,,,,prac,None,None,1,1.4957808998879045,177.12796889990568,None,None,1,,,,,,,,,,,,,,201,2023-03-27_13h09.13.236,Main,2022.1.1,59.897204457781655,
positive,blue,1,k,None,,,,,1,15,35,15,,,,,,,,,,,,,,,,,,,,,prac,None,None,1,1.502460600109771,179.62758670002222,None,None,1,,,,,,,,,,,,,,201,2023-03-27_13h09.13.236,Main,2022.1.1,59.897204457781655,
negative,blue,1,None,k,,,,,1,16,36,16,,,,,,,,,,,,,,,,,,,,,prac,k,k,1,0.7825831999070942,182.13082080008462,None,None,0,,,,,,,,,,,,,,201,2023-03-27_13h09.13.236,Main,2022.1.1,59.897204457781655,
positive,blue,2,k,None,,,,,1,17,37,17,,,,,,,,,,,,,,,,,,,,,prac,None,None,1,1.495816599810496,183.91408829996362,None,None,1,,,,,,,,,,,,,,201,2023-03-27_13h09.13.236,Main,2022.1.1,59.897204457781655,
positive,blue,1,k,None,,,,,1,18,38,18,,,,,,,,,,,,,,,,,,,,,prac,None,None,1,1.4988036002032459,186.41113030002452,None,None,1,,,,,,,,,,,,,,201,2023-03-27_13h09.13.236,Main,2022.1.1,59.897204457781655,
positive,yellow,1,None,k,,,,,1,19,39,19,,,,,,,,,,,,,,,,,,,,,prac,k,k,1,0.8970315000042319,188.9109698999673,None,None,0,,,,,,,,,,,,,,201,2023-03-27_13h09.13.236,Main,2022.1.1,59.897204457781655,
,,,,,,,,,,,,,,,,,,,,,,,,,,,,,,,,,,,,,,,,,,190.80043750000186,None,190.80043750000186,None,0.009259259,0.042592593,0,0,0,0.01329212007112801,None,,,201,2023-03-27_13h09.13.236,Main,2022.1.1,59.897204457781655,
negative,yellow,2,k,None,,,,,,,,,0,0,0,0,,,,,,,,,,,,,196.69386809994467,None,196.69386809994467,None,main,None,None,1,1.5034996999893337,198.7165075999219,None,None,1,,,,,,,,,,,,,,201,2023-03-27_13h09.13.236,Main,2022.1.1,59.897204457781655,
positive,red,1,None,None,,,,,,,,,0,1,1,1,,,,,,,,,,,,,,,,,main,None,None,1,1.4988201998639852,201.2275811000727,None,None,1,,,,,,,,,,,,,,201,2023-03-27_13h09.13.236,Main,2022.1.1,59.897204457781655,
positive,blue,2,k,None,,,,,,,,,0,2,2,2,,,,,,,,,,,,,,,,,main,None,None,1,1.4990460998378694,203.7303077999968,None,None,1,,,,,,,,,,,,,,201,2023-03-27_13h09.13.236,Main,2022.1.1,59.897204457781655,
positive,blue,1,k,None,,,,,,,,,0,3,3,3,,,,,,,,,,,,,,,,,main,None,None,1,1.4956988000776619,206.22744620009325,None,None,1,,,,,,,,,,,,,,201,2023-03-27_13h09.13.236,Main,2022.1.1,59.897204457781655,
negative,yellow,2,k,None,,,,,,,,,0,4,4,4,,,,,,,,,,,,,,,,,main,None,None,1,1.5022915999870747,208.72698700008914,None,None,1,,,,,,,,,,,,,,201,2023-03-27_13h09.13.236,Main,2022.1.1,59.897204457781655,
positive,yellow,2,None,k,,,,,,,,,0,5,5,5,,,,,,,,,,,,,,,,,main,k,k,1,0.6465789000503719,211.23021900001913,None,None,0,,,,,,,,,,,,,,201,2023-03-27_13h09.13.236,Main,2022.1.1,59.897204457781655,
negative,blue,2,None,k,,,,,,,,,0,6,6,6,,,,,,,,,,,,,,,,,main,k,k,1,0.7157021998427808,212.88012650003657,None,None,0,,,,,,,,,,,,,,201,2023-03-27_13h09.13.236,Main,2022.1.1,59.897204457781655,
positive,red,2,None,None,,,,,,,,,0,7,7,7,,,,,,,,,,,,,,,,,main,None,None,1,1.4982761000283062,214.59679169999436,None,None,1,,,,,,,,,,,,,,201,2023-03-27_13h09.13.236,Main,2022.1.1,59.897204457781655,
positive,yellow,1,None,k,,,,,,,,,0,8,8,8,,,,,,,,,,,,,,,,,main,k,k,1,0.8994990999344736,217.09348660008982,None,None,0,,,,,,,,,,,,,,201,2023-03-27_13h09.13.236,Main,2022.1.1,59.897204457781655,
negative,red,1,None,None,,,,,,,,,0,9,9,9,,,,,,,,,,,,,,,,,main,None,None,1,1.4984818999655545,218.99350859993137,None,None,1,,,,,,,,,,,,,,201,2023-03-27_13h09.13.236,Main,2022.1.1,59.897204457781655,
positive,yellow,1,None,k,,,,,,,,,0,10,10,10,,,,,,,,,,,,,,,,,main,k,k,1,0.8485927998553962,221.49379640002735,None,None,0,,,,,,,,,,,,,,201,2023-03-27_13h09.13.236,Main,2022.1.1,59.897204457781655,
negative,yellow,1,k,None,,,,,,,,,0,11,11,11,,,,,,,,,,,,,,,,,main,None,None,1,1.4986333998385817,223.34667519992217,None,None,1,,,,,,,,,,,,,,201,2023-03-27_13h09.13.236,Main,2022.1.1,59.897204457781655,
negative,yellow,1,k,None,,,,,,,,,0,12,12,12,,,,,,,,,,,,,,,,,main,None,None,1,1.4993461000267416,225.84366320003755,None,None,1,,,,,,,,,,,,,,201,2023-03-27_13h09.13.236,Main,2022.1.1,59.897204457781655,
negative,red,2,None,None,,,,,,,,,0,13,13,13,,,,,,,,,,,,,,,,,main,None,None,1,1.5017432998865843,228.3435482000932,None,None,1,,,,,,,,,,,,,,201,2023-03-27_13h09.13.236,Main,2022.1.1,59.897204457781655,
positive,yellow,2,None,k,,,,,,,,,0,14,14,14,,,,,,,,,,,,,,,,,main,k,k,1,1.0963862999342382,230.84355510002933,None,None,0,,,,,,,,,,,,,,201,2023-03-27_13h09.13.236,Main,2022.1.1,59.897204457781655,
positive,blue,1,k,None,,,,,,,,,0,15,15,15,,,,,,,,,,,,,,,,,main,None,None,1,1.5017133997753263,232.94639550009742,None,None,1,,,,,,,,,,,,,,201,2023-03-27_13h09.13.236,Main,2022.1.1,59.897204457781655,
negative,blue,1,None,k,,,,,,,,,0,16,16,16,,,,,,,,,,,,,,,,,main,k,k,1,0.7126607000827789,235.44346429989673,None,None,0,,,,,,,,,,,,,,201,2023-03-27_13h09.13.236,Main,2022.1.1,59.897204457781655,
positive,blue,2,k,None,,,,,,,,,0,17,17,17,,,,,,,,,,,,,,,,,main,None,None,1,1.5023016999475658,237.15974500006996,None,None,1,,,,,,,,,,,,,,201,2023-03-27_13h09.13.236,Main,2022.1.1,59.897204457781655,
negative,blue,2,None,k,,,,,,,,,0,18,18,18,,,,,,,,,,,,,,,,,main,k,k,1,0.9297511000186205,239.6601203000173,None,None,0,,,,,,,,,,,,,,201,2023-03-27_13h09.13.236,Main,2022.1.1,59.897204457781655,
negative,blue,1,None,k,,,,,,,,,0,19,19,19,,,,,,,,,,,,,,,,,main,k,k,1,0.8350913999602199,241.5962290999014,None,None,0,,,,,,,,,,,,,,201,2023-03-27_13h09.13.236,Main,2022.1.1,59.897204457781655,
negative,blue,1,None,k,,,,,,,,,0,20,20,20,,,,,,,,,,,,,,,,,main,k,k,1,0.6992679999675602,243.4266762000043,None,None,0,,,,,,,,,,,,,,201,2023-03-27_13h09.13.236,Main,2022.1.1,59.897204457781655,
negative,blue,2,None,k,,,,,,,,,0,21,21,21,,,,,,,,,,,,,,,,,main,k,k,1,0.6961167000699788,245.1295479000546,None,None,0,,,,,,,,,,,,,,201,2023-03-27_13h09.13.236,Main,2022.1.1,59.897204457781655,
negative,red,1,None,None,,,,,,,,,0,22,22,22,,,,,,,,,,,,,,,,,main,None,None,1,1.498859299812466,246.82646490004845,None,None,1,,,,,,,,,,,,,,201,2023-03-27_13h09.13.236,Main,2022.1.1,59.897204457781655,
positive,red,2,None,None,,,,,,,,,0,23,23,23,,,,,,,,,,,,,,,,,main,None,None,1,1.4992412000428885,249.32642859988846,None,None,1,,,,,,,,,,,,,,201,2023-03-27_13h09.13.236,Main,2022.1.1,59.897204457781655,
negative,red,2,None,None,,,,,,,,,0,24,24,24,,,,,,,,,,,,,,,,,main,None,None,1,1.5019322999287397,251.82638849993236,None,None,1,,,,,,,,,,,,,,201,2023-03-27_13h09.13.236,Main,2022.1.1,59.897204457781655,
positive,blue,2,k,None,,,,,,,,,0,25,25,25,,,,,,,,,,,,,,,,,main,None,None,1,1.4991665999405086,254.3263701000251,None,None,1,,,,,,,,,,,,,,201,2023-03-27_13h09.13.236,Main,2022.1.1,59.897204457781655,
negative,yellow,1,k,None,,,,,,,,,0,26,26,26,,,,,,,,,,,,,,,,,main,None,None,1,1.496242999797687,256.82631919998676,None,None,1,,,,,,,,,,,,,,201,2023-03-27_13h09.13.236,Main,2022.1.1,59.897204457781655,
positive,blue,2,k,None,,,,,,,,,0,27,27,27,,,,,,,,,,,,,,,,,main,None,None,1,1.5019505999516696,259.3259999998845,None,None,1,,,,,,,,,,,,,,201,2023-03-27_13h09.13.236,Main,2022.1.1,59.897204457781655,
negative,blue,2,None,k,,,,,,,,,0,28,28,28,,,,,,,,,,,,,,,,,main,k,k,1,0.9629622001666576,261.8262805000413,None,None,0,,,,,,,,,,,,,,201,2023-03-27_13h09.13.236,Main,2022.1.1,59.897204457781655,
positive,red,1,None,None,,,,,,,,,0,29,29,29,,,,,,,,,,,,,,,,,main,None,None,1,1.5016570000443608,263.79594419989735,None,None,1,,,,,,,,,,,,,,201,2023-03-27_13h09.13.236,Main,2022.1.1,59.897204457781655,
positive,blue,1,k,None,,,,,,,,,0,30,30,30,,,,,,,,,,,,,,,,,main,None,None,1,1.4962265999056399,266.29274639999494,None,None,1,,,,,,,,,,,,,,201,2023-03-27_13h09.13.236,Main,2022.1.1,59.897204457781655,
positive,yellow,1,None,k,,,,,,,,,0,31,31,31,,,,,,,,,,,,,,,,,main,k,k,1,0.6495035998523235,268.7956038999837,None,None,0,,,,,,,,,,,,,,201,2023-03-27_13h09.13.236,Main,2022.1.1,59.897204457781655,
negative,yellow,2,k,None,,,,,,,,,0,32,32,32,,,,,,,,,,,,,,,,,main,None,None,1,1.4988694000057876,270.4455365999602,None,None,1,,,,,,,,,,,,,,201,2023-03-27_13h09.13.236,Main,2022.1.1,59.897204457781655,
negative,blue,1,None,k,,,,,,,,,0,33,33,33,,,,,,,,,,,,,,,,,main,k,k,1,0.7329402999021113,272.942631599959,None,None,0,,,,,,,,,,,,,,201,2023-03-27_13h09.13.236,Main,2022.1.1,59.897204457781655,
positive,blue,1,k,None,,,,,,,,,0,34,34,34,,,,,,,,,,,,,,,,,main,None,None,1,1.5054279998876154,274.67593170003965,None,None,1,,,,,,,,,,,,,,201,2023-03-27_13h09.13.236,Main,2022.1.1,59.897204457781655,
negative,yellow,1,k,None,,,,,,,,,0,35,35,35,,,,,,,,,,,,,,,,,main,None,None,1,1.492551299976185,277.18093129992485,None,None,1,,,,,,,,,,,,,,201,2023-03-27_13h09.13.236,Main,2022.1.1,59.897204457781655,
positive,yellow,2,None,k,,,,,,,,,0,36,36,36,,,,,,,,,,,,,,,,,main,k,k,1,0.9687036999966949,279.6755764000118,None,None,0,,,,,,,,,,,,,,201,2023-03-27_13h09.13.236,Main,2022.1.1,59.897204457781655,
positive,yellow,2,None,k,,,,,,,,,0,37,37,37,,,,,,,,,,,,,,,,,main,k,k,1,0.6461189999245107,281.6425687998999,None,None,0,,,,,,,,,,,,,,201,2023-03-27_13h09.13.236,Main,2022.1.1,59.897204457781655,
negative,yellow,2,k,None,,,,,,,,,0,38,38,38,,,,,,,,,,,,,,,,,main,None,None,1,1.5018877000547945,283.29532820009626,None,None,1,,,,,,,,,,,,,,201,2023-03-27_13h09.13.236,Main,2022.1.1,59.897204457781655,
positive,yellow,1,None,k,,,,,,,,,0,39,39,39,,,,,,,,,,,,,,,,,main,k,k,1,1.2630389002151787,285.79542129999027,None,None,0,,,,,,,,,,,,,,201,2023-03-27_13h09.13.236,Main,2022.1.1,59.897204457781655,
negative,yellow,2,k,None,,,,,,,,,0,40,40,40,,,,,,,,,,,,,,,,,main,None,None,1,1.5016695000231266,288.0589775000699,None,None,1,,,,,,,,,,,,,,201,2023-03-27_13h09.13.236,Main,2022.1.1,59.897204457781655,
positive,blue,2,k,None,,,,,,,,,0,41,41,41,,,,,,,,,,,,,,,,,main,None,None,1,1.4962168999481946,290.5590413999744,None,None,1,,,,,,,,,,,,,,201,2023-03-27_13h09.13.236,Main,2022.1.1,59.897204457781655,
positive,blue,2,k,None,,,,,,,,,0,42,42,42,,,,,,,,,,,,,,,,,main,None,None,1,1.4996251000557095,293.06179740000516,None,None,1,,,,,,,,,,,,,,201,2023-03-27_13h09.13.236,Main,2022.1.1,59.897204457781655,
negative,blue,2,None,k,,,,,,,,,0,43,43,43,,,,,,,,,,,,,,,,,main,k,k,1,0.6654812998604029,295.558952299878,None,None,0,,,,,,,,,,,,,,201,2023-03-27_13h09.13.236,Main,2022.1.1,59.897204457781655,
negative,red,1,None,None,,,,,,,,,0,44,44,44,,,,,,,,,,,,,,,,,main,None,None,1,1.4981701001524925,297.22547860001214,None,None,1,,,,,,,,,,,,,,201,2023-03-27_13h09.13.236,Main,2022.1.1,59.897204457781655,
negative,yellow,1,k,None,,,,,,,,,0,45,45,45,,,,,,,,,,,,,,,,,main,None,None,1,1.5022591000888497,299.72518830001354,None,None,1,,,,,,,,,,,,,,201,2023-03-27_13h09.13.236,Main,2022.1.1,59.897204457781655,
negative,yellow,1,k,None,,,,,,,,,0,46,46,46,,,,,,,,,,,,,,,,,main,None,None,1,1.49686469999142,302.2254508000333,None,None,1,,,,,,,,,,,,,,201,2023-03-27_13h09.13.236,Main,2022.1.1,59.897204457781655,
positive,red,1,None,None,,,,,,,,,0,47,47,47,,,,,,,,,,,,,,,,,main,None,None,1,1.5010281999129802,304.72825550008565,None,None,1,,,,,,,,,,,,,,201,2023-03-27_13h09.13.236,Main,2022.1.1,59.897204457781655,
positive,yellow,1,None,k,,,,,,,,,0,48,48,48,,,,,,,,,,,,,,,,,main,k,k,1,0.8966904000844806,307.22520969994366,None,None,0,,,,,,,,,,,,,,201,2023-03-27_13h09.13.236,Main,2022.1.1,59.897204457781655,
negative,blue,1,None,k,,,,,,,,,0,49,49,49,,,,,,,,,,,,,,,,,main,k,k,1,0.7655244001653045,309.1251985998824,None,None,0,,,,,,,,,,,,,,201,2023-03-27_13h09.13.236,Main,2022.1.1,59.897204457781655,
positive,yellow,2,None,k,,,,,,,,,0,50,50,50,,,,,,,,,,,,,,,,,main,k,k,1,0.8659280999563634,310.8918474998791,None,None,0,,,,,,,,,,,,,,201,2023-03-27_13h09.13.236,Main,2022.1.1,59.897204457781655,
negative,blue,1,None,k,,,,,,,,,0,51,51,51,,,,,,,,,,,,,,,,,main,k,k,1,0.7159528001211584,312.761396399932,None,None,0,,,,,,,,,,,,,,201,2023-03-27_13h09.13.236,Main,2022.1.1,59.897204457781655,
positive,red,2,None,None,,,,,,,,,0,52,52,52,,,,,,,,,,,,,,,,,main,None,None,1,1.5017410998698324,314.4751396998763,None,None,1,,,,,,,,,,,,,,201,2023-03-27_13h09.13.236,Main,2022.1.1,59.897204457781655,
positive,yellow,2,None,k,,,,,,,,,0,53,53,53,,,,,,,,,,,,,,,,,main,k,k,1,0.754632500000298,316.97521209996194,None,None,0,,,,,,,,,,,,,,201,2023-03-27_13h09.13.236,Main,2022.1.1,59.897204457781655,
negative,red,2,None,None,,,,,,,,,0,54,54,54,,,,,,,,,,,,,,,,,main,None,None,1,1.4903376000002027,318.738625299884,None,None,1,,,,,,,,,,,,,,201,2023-03-27_13h09.13.236,Main,2022.1.1,59.897204457781655,
positive,yellow,1,None,k,,,,,,,,,0,55,55,55,,,,,,,,,,,,,,,,,main,k,k,1,0.8165531000122428,321.2279407000169,None,None,0,,,,,,,,,,,,,,201,2023-03-27_13h09.13.236,Main,2022.1.1,59.897204457781655,
negative,blue,2,None,k,,,,,,,,,0,56,56,56,,,,,,,,,,,,,,,,,main,k,k,1,0.7850393999833614,323.0417754999362,None,None,0,,,,,,,,,,,,,,201,2023-03-27_13h09.13.236,Main,2022.1.1,59.897204457781655,
positive,blue,1,k,None,,,,,,,,,0,57,57,57,,,,,,,,,,,,,,,,,main,None,None,1,1.4994622999802232,324.8249927998986,None,None,1,,,,,,,,,,,,,,201,2023-03-27_13h09.13.236,Main,2022.1.1,59.897204457781655,
positive,blue,1,k,None,,,,,,,,,0,58,58,58,,,,,,,,,,,,,,,,,main,None,None,1,1.4953739999327809,327.32493250002153,None,None,1,,,,,,,,,,,,,,201,2023-03-27_13h09.13.236,Main,2022.1.1,59.897204457781655,
negative,yellow,2,k,None,,,,,,,,,0,59,59,59,,,,,,,,,,,,,,,,,main,None,None,1,1.5022662000264972,329.8245763001032,None,None,1,,,,,,,,,,,,,,201,2023-03-27_13h09.13.236,Main,2022.1.1,59.897204457781655,
positive,red,2,None,None,,,,,,,,,0,60,60,60,,,,,,,,,,,,,,,,,main,None,None,1,1.4963751998730004,332.3277344000526,None,None,1,,,,,,,,,,,,,,201,2023-03-27_13h09.13.236,Main,2022.1.1,59.897204457781655,
negative,yellow,1,k,None,,,,,,,,,0,61,61,61,,,,,,,,,,,,,,,,,main,None,None,1,1.498763999901712,334.82482840004377,None,None,1,,,,,,,,,,,,,,201,2023-03-27_13h09.13.236,Main,2022.1.1,59.897204457781655,
negative,red,1,None,None,,,,,,,,,0,62,62,62,,,,,,,,,,,,,,,,,main,None,None,1,1.5017392998561263,337.32464580005035,None,None,1,,,,,,,,,,,,,,201,2023-03-27_13h09.13.236,Main,2022.1.1,59.897204457781655,
negative,blue,1,None,k,,,,,,,,,0,63,63,63,,,,,,,,,,,,,,,,,main,k,k,1,0.7634068001061678,339.82457179995254,None,None,0,,,,,,,,,,,,,,201,2023-03-27_13h09.13.236,Main,2022.1.1,59.897204457781655,
positive,blue,2,k,None,,,,,,,,,0,64,64,64,,,,,,,,,,,,,,,,,main,None,None,1,1.4987920001149178,341.59121820004657,None,None,1,,,,,,,,,,,,,,201,2023-03-27_13h09.13.236,Main,2022.1.1,59.897204457781655,
negative,yellow,2,k,None,,,,,,,,,0,65,65,65,,,,,,,,,,,,,,,,,main,None,None,1,1.5021710000000894,344.09120919997804,None,None,1,,,,,,,,,,,,,,201,2023-03-27_13h09.13.236,Main,2022.1.1,59.897204457781655,
positive,yellow,2,None,k,,,,,,,,,0,66,66,66,,,,,,,,,,,,,,,,,main,k,k,1,0.7959779999218881,346.59116320009343,None,None,0,,,,,,,,,,,,,,201,2023-03-27_13h09.13.236,Main,2022.1.1,59.897204457781655,
positive,yellow,2,None,k,,,,,,,,,0,67,67,67,,,,,,,,,,,,,,,,,main,k,k,1,0.6826271000318229,348.390789499972,None,None,0,,,,,,,,,,,,,,201,2023-03-27_13h09.13.236,Main,2022.1.1,59.897204457781655,
positive,red,1,None,None,,,,,,,,,0,68,68,68,,,,,,,,,,,,,,,,,main,None,None,1,1.502131000161171,350.07412580004893,None,None,1,,,,,,,,,,,,,,201,2023-03-27_13h09.13.236,Main,2022.1.1,59.897204457781655,
positive,yellow,1,None,k,,,,,,,,,0,69,69,69,,,,,,,,,,,,,,,,,main,k,k,1,0.7131080999970436,352.5773434001021,None,None,0,,,,,,,,,,,,,,201,2023-03-27_13h09.13.236,Main,2022.1.1,59.897204457781655,
negative,yellow,2,k,None,,,,,,,,,0,70,70,70,,,,,,,,,,,,,,,,,main,None,None,1,1.5016091000288725,354.2939927999396,None,None,1,,,,,,,,,,,,,,201,2023-03-27_13h09.13.236,Main,2022.1.1,59.897204457781655,
positive,yellow,1,None,k,,,,,,,,,0,71,71,71,,,,,,,,,,,,,,,,,main,k,k,1,0.6963288001716137,356.79103199997917,None,None,0,,,,,,,,,,,,,,201,2023-03-27_13h09.13.236,Main,2022.1.1,59.897204457781655,
negative,blue,1,None,k,,,,,,,,,0,72,72,72,,,,,,,,,,,,,,,,,main,k,k,1,0.7325865998864174,358.49087080010213,None,None,0,,,,,,,,,,,,,,201,2023-03-27_13h09.13.236,Main,2022.1.1,59.897204457781655,
negative,red,2,None,None,,,,,,,,,0,73,73,73,,,,,,,,,,,,,,,,,main,None,None,1,1.4983828000258654,360.2241581999697,None,None,1,,,,,,,,,,,,,,201,2023-03-27_13h09.13.236,Main,2022.1.1,59.897204457781655,
positive,blue,2,k,None,,,,,,,,,0,74,74,74,,,,,,,,,,,,,,,,,main,None,None,1,1.4990330999717116,362.72414659988135,None,None,1,,,,,,,,,,,,,,201,2023-03-27_13h09.13.236,Main,2022.1.1,59.897204457781655,
negative,blue,2,None,k,,,,,,,,,0,75,75,75,,,,,,,,,,,,,,,,,main,k,k,1,0.7686509999912232,365.2241193000227,None,None,0,,,,,,,,,,,,,,201,2023-03-27_13h09.13.236,Main,2022.1.1,59.897204457781655,
negative,blue,2,None,k,,,,,,,,,0,76,76,76,,,,,,,,,,,,,,,,,main,k,k,1,0.7298490998800844,366.9907269999385,None,None,0,,,,,,,,,,,,,,201,2023-03-27_13h09.13.236,Main,2022.1.1,59.897204457781655,
negative,yellow,1,k,None,,,,,,,,,0,77,77,77,,,,,,,,,,,,,,,,,main,None,None,1,1.4982278000097722,368.7241177998949,None,None,1,,,,,,,,,,,,,,201,2023-03-27_13h09.13.236,Main,2022.1.1,59.897204457781655,
positive,blue,1,k,None,,,,,,,,,0,78,78,78,,,,,,,,,,,,,,,,,main,None,None,1,1.5025238001253456,371.2236866999883,None,None,1,,,,,,,,,,,,,,201,2023-03-27_13h09.13.236,Main,2022.1.1,59.897204457781655,
positive,blue,1,k,None,,,,,,,,,0,79,79,79,,,,,,,,,,,,,,,,,main,None,None,1,1.498895299853757,373.7268878999166,None,None,1,,,,,,,,,,,,,,201,2023-03-27_13h09.13.236,Main,2022.1.1,59.897204457781655,
positive,red,2,None,None,,,,,,,,,0,80,80,80,,,,,,,,,,,,,,,,,main,None,None,1,1.4960313998162746,376.22396790003404,None,None,1,,,,,,,,,,,,,,201,2023-03-27_13h09.13.236,Main,2022.1.1,59.897204457781655,
positive,yellow,2,None,k,,,,,,,,,0,81,81,81,,,,,,,,,,,,,,,,,main,k,k,1,0.9325159001164138,378.72377169993706,None,None,0,,,,,,,,,,,,,,201,2023-03-27_13h09.13.236,Main,2022.1.1,59.897204457781655,
positive,blue,1,k,None,,,,,,,,,0,82,82,82,,,,,,,,,,,,,,,,,main,None,None,1,1.4988973999861628,380.65709150000475,None,None,1,,,,,,,,,,,,,,201,2023-03-27_13h09.13.236,Main,2022.1.1,59.897204457781655,
negative,yellow,2,k,None,,,,,,,,,0,83,83,83,,,,,,,,,,,,,,,,,main,None,None,1,1.5019672999624163,383.1570586001035,None,None,1,,,,,,,,,,,,,,201,2023-03-27_13h09.13.236,Main,2022.1.1,59.897204457781655,
positive,blue,2,k,None,,,,,,,,,0,84,84,84,,,,,,,,,,,,,,,,,main,None,None,1,1.4990846998989582,385.65707469987683,None,None,1,,,,,,,,,,,,,,201,2023-03-27_13h09.13.236,Main,2022.1.1,59.897204457781655,
positive,yellow,1,None,k,,,,,,,,,0,85,85,85,,,,,,,,,,,,,,,,,main,k,k,1,0.9625379999633878,388.1569840000011,None,None,0,,,,,,,,,,,,,,201,2023-03-27_13h09.13.236,Main,2022.1.1,59.897204457781655,
positive,blue,2,k,None,,,,,,,,,0,86,86,86,,,,,,,,,,,,,,,,,main,None,None,1,1.5021965999621898,390.12329609994777,None,None,1,,,,,,,,,,,,,,201,2023-03-27_13h09.13.236,Main,2022.1.1,59.897204457781655,
positive,blue,1,k,None,,,,,,,,,0,87,87,87,,,,,,,,,,,,,,,,,main,None,None,1,1.4991446998901665,392.6265213000588,None,None,1,,,,,,,,,,,,,,201,2023-03-27_13h09.13.236,Main,2022.1.1,59.897204457781655,
negative,yellow,2,k,None,,,,,,,,,0,88,88,88,,,,,,,,,,,,,,,,,main,None,None,1,1.4990050999913365,395.1235972000286,None,None,1,,,,,,,,,,,,,,201,2023-03-27_13h09.13.236,Main,2022.1.1,59.897204457781655,
negative,blue,2,None,k,,,,,,,,,0,89,89,89,,,,,,,,,,,,,,,,,main,k,k,1,0.7130259999539703,397.62354679987766,None,None,0,,,,,,,,,,,,,,201,2023-03-27_13h09.13.236,Main,2022.1.1,59.897204457781655,
positive,yellow,2,None,k,,,,,,,,,0,90,90,90,,,,,,,,,,,,,,,,,main,k,k,1,0.8157569000031799,399.3400304999668,None,None,0,,,,,,,,,,,,,,201,2023-03-27_13h09.13.236,Main,2022.1.1,59.897204457781655,
negative,yellow,1,k,None,,,,,,,,,0,91,91,91,,,,,,,,,,,,,,,,,main,None,None,1,1.5014694998972118,401.1566713999491,None,None,1,,,,,,,,,,,,,,201,2023-03-27_13h09.13.236,Main,2022.1.1,59.897204457781655,
negative,red,2,None,None,,,,,,,,,0,92,92,92,,,,,,,,,,,,,,,,,main,None,None,1,1.499226599931717,403.6566542999353,None,None,1,,,,,,,,,,,,,,201,2023-03-27_13h09.13.236,Main,2022.1.1,59.897204457781655,
negative,blue,2,None,k,,,,,,,,,0,93,93,93,,,,,,,,,,,,,,,,,main,k,k,1,0.8634461001493037,406.1566745999735,None,None,0,,,,,,,,,,,,,,201,2023-03-27_13h09.13.236,Main,2022.1.1,59.897204457781655,
negative,blue,1,None,k,,,,,,,,,0,94,94,94,,,,,,,,,,,,,,,,,main,k,k,1,0.8819587999023497,408.0232130000368,None,None,0,,,,,,,,,,,,,,201,2023-03-27_13h09.13.236,Main,2022.1.1,59.897204457781655,
negative,blue,1,None,k,,,,,,,,,0,95,95,95,,,,,,,,,,,,,,,,,main,k,k,1,0.7493036000523716,409.9062318999786,None,None,0,,,,,,,,,,,,,,201,2023-03-27_13h09.13.236,Main,2022.1.1,59.897204457781655,
negative,red,1,None,None,,,,,,,,,0,96,96,96,,,,,,,,,,,,,,,,,main,None,None,1,1.502151499968022,411.6562489999924,None,None,1,,,,,,,,,,,,,,201,2023-03-27_13h09.13.236,Main,2022.1.1,59.897204457781655,
positive,yellow,1,None,k,,,,,,,,,0,97,97,97,,,,,,,,,,,,,,,,,main,k,k,1,0.6826200999785215,414.1565352000762,None,None,0,,,,,,,,,,,,,,201,2023-03-27_13h09.13.236,Main,2022.1.1,59.897204457781655,
negative,yellow,1,k,None,,,,,,,,,0,98,98,98,,,,,,,,,,,,,,,,,main,None,None,1,1.4954380001872778,415.84272770001553,None,None,1,,,,,,,,,,,,,,201,2023-03-27_13h09.13.236,Main,2022.1.1,59.897204457781655,
positive,red,1,None,None,,,,,,,,,0,99,99,99,,,,,,,,,,,,,,,,,main,None,None,1,1.5020516000222415,418.33964290004224,None,None,1,,,,,,,,,,,,,,201,2023-03-27_13h09.13.236,Main,2022.1.1,59.897204457781655,
positive,blue,1,k,None,,,,,,,,,0,100,100,100,,,,,,,,,,,,,,,,,main,None,None,1,1.4990318999625742,420.8396006000694,None,None,1,,,,,,,,,,,,,,201,2023-03-27_13h09.13.236,Main,2022.1.1,59.897204457781655,
negative,yellow,1,k,None,,,,,,,,,0,101,101,101,,,,,,,,,,,,,,,,,main,None,None,1,1.4989461000077426,423.33969839988276,None,None,1,,,,,,,,,,,,,,201,2023-03-27_13h09.13.236,Main,2022.1.1,59.897204457781655,
negative,blue,2,None,k,,,,,,,,,0,102,102,102,,,,,,,,,,,,,,,,,main,k,k,1,0.8299046000465751,425.8395342999138,None,None,0,,,,,,,,,,,,,,201,2023-03-27_13h09.13.236,Main,2022.1.1,59.897204457781655,
negative,yellow,2,k,None,,,,,,,,,0,103,103,103,,,,,,,,,,,,,,,,,main,None,None,1,1.4988369999919087,427.67283779988065,None,None,1,,,,,,,,,,,,,,201,2023-03-27_13h09.13.236,Main,2022.1.1,59.897204457781655,
positive,yellow,2,None,k,,,,,,,,,0,104,104,104,,,,,,,,,,,,,,,,,main,k,k,1,0.916662200121209,430.172935300041,None,None,0,,,,,,,,,,,,,,201,2023-03-27_13h09.13.236,Main,2022.1.1,59.897204457781655,
positive,blue,1,k,None,,,,,,,,,0,105,105,105,,,,,,,,,,,,,,,,,main,None,None,1,1.4990723000373691,432.08908120007254,None,None,1,,,,,,,,,,,,,,201,2023-03-27_13h09.13.236,Main,2022.1.1,59.897204457781655,
positive,blue,2,k,None,,,,,,,,,0,106,106,106,,,,,,,,,,,,,,,,,main,None,None,1,1.5021582001354545,434.5894704000093,None,None,1,,,,,,,,,,,,,,201,2023-03-27_13h09.13.236,Main,2022.1.1,59.897204457781655,
negative,blue,1,None,k,,,,,,,,,0,107,107,107,,,,,,,,,,,,,,,,,main,k,k,1,0.731626900145784,437.0894206999801,None,None,0,,,,,,,,,,,,,,201,2023-03-27_13h09.13.236,Main,2022.1.1,59.897204457781655,
positive,yellow,2,None,k,,,,,,,,,0,108,108,108,,,,,,,,,,,,,,,,,main,k,k,1,0.84610589989461,438.8255841000937,None,None,0,,,,,,,,,,,,,,201,2023-03-27_13h09.13.236,Main,2022.1.1,59.897204457781655,
negative,yellow,1,k,None,,,,,,,,,0,109,109,109,,,,,,,,,,,,,,,,,main,None,None,1,1.499071099795401,440.6754161999561,None,None,1,,,,,,,,,,,,,,201,2023-03-27_13h09.13.236,Main,2022.1.1,59.897204457781655,
negative,blue,2,None,k,,,,,,,,,0,110,110,110,,,,,,,,,,,,,,,,,main,k,k,1,0.6827494001481682,443.17246480006725,None,None,0,,,,,,,,,,,,,,201,2023-03-27_13h09.13.236,Main,2022.1.1,59.897204457781655,
positive,blue,2,k,None,,,,,,,,,0,111,111,111,,,,,,,,,,,,,,,,,main,None,None,1,1.5019902000203729,444.8557857000269,None,None,1,,,,,,,,,,,,,,201,2023-03-27_13h09.13.236,Main,2022.1.1,59.897204457781655,
negative,blue,1,None,k,,,,,,,,,0,112,112,112,,,,,,,,,,,,,,,,,main,k,k,1,0.7629205000121146,447.35577829997055,None,None,0,,,,,,,,,,,,,,201,2023-03-27_13h09.13.236,Main,2022.1.1,59.897204457781655,
positive,yellow,1,None,k,,,,,,,,,0,113,113,113,,,,,,,,,,,,,,,,,main,k,k,1,0.7658832999877632,449.12239419994876,None,None,0,,,,,,,,,,,,,,201,2023-03-27_13h09.13.236,Main,2022.1.1,59.897204457781655,
negative,red,1,None,None,,,,,,,,,0,114,114,114,,,,,,,,,,,,,,,,,main,None,None,1,1.49849020014517,450.88902490003966,None,None,1,,,,,,,,,,,,,,201,2023-03-27_13h09.13.236,Main,2022.1.1,59.897204457781655,
positive,red,1,None,None,,,,,,,,,0,115,115,115,,,,,,,,,,,,,,,,,main,None,None,1,1.5042747000698,453.3887090999633,None,None,1,,,,,,,,,,,,,,201,2023-03-27_13h09.13.236,Main,2022.1.1,59.897204457781655,
negative,red,2,None,None,,,,,,,,,0,116,116,116,,,,,,,,,,,,,,,,,main,None,None,1,1.4971710999961942,455.8918463999871,None,None,1,,,,,,,,,,,,,,201,2023-03-27_13h09.13.236,Main,2022.1.1,59.897204457781655,
negative,yellow,2,k,None,,,,,,,,,0,117,117,117,,,,,,,,,,,,,,,,,main,None,None,1,1.4960183000657707,458.38906319998205,None,None,1,,,,,,,,,,,,,,201,2023-03-27_13h09.13.236,Main,2022.1.1,59.897204457781655,
positive,yellow,1,None,k,,,,,,,,,0,118,118,118,,,,,,,,,,,,,,,,,main,k,k,1,1.235669800080359,460.88880990003236,None,None,0,,,,,,,,,,,,,,201,2023-03-27_13h09.13.236,Main,2022.1.1,59.897204457781655,
positive,red,2,None,None,,,,,,,,,0,119,119,119,,,,,,,,,,,,,,,,,main,None,None,1,1.4986894999165088,463.12209199997596,None,None,1,,,,,,,,,,,,,,201,2023-03-27_13h09.13.236,Main,2022.1.1,59.897204457781655,
positive,blue,2,k,None,,,,,,,,,0,120,120,120,,,,,,,,,,,,,,,,,main,None,None,1,1.4989967998117208,465.62212780001573,None,None,1,,,,,,,,,,,,,,201,2023-03-27_13h09.13.236,Main,2022.1.1,59.897204457781655,
negative,red,1,None,None,,,,,,,,,0,121,121,121,,,,,,,,,,,,,,,,,main,None,None,1,1.4990936000831425,468.1220249000471,None,None,1,,,,,,,,,,,,,,201,2023-03-27_13h09.13.236,Main,2022.1.1,59.897204457781655,
positive,yellow,2,None,k,,,,,,,,,0,122,122,122,,,,,,,,,,,,,,,,,main,k,k,1,0.712945100152865,470.62489020009525,None,None,0,,,,,,,,,,,,,,201,2023-03-27_13h09.13.236,Main,2022.1.1,59.897204457781655,
negative,red,2,None,None,,,,,,,,,0,123,123,123,,,,,,,,,,,,,,,,,main,None,None,1,1.501915599917993,472.33828060003,None,None,1,,,,,,,,,,,,,,201,2023-03-27_13h09.13.236,Main,2022.1.1,59.897204457781655,
negative,yellow,2,k,None,,,,,,,,,0,124,124,124,,,,,,,,,,,,,,,,,main,None,None,1,1.498947599902749,474.8415125000756,None,None,1,,,,,,,,,,,,,,201,2023-03-27_13h09.13.236,Main,2022.1.1,59.897204457781655,
positive,red,1,None,None,,,,,,,,,0,125,125,125,,,,,,,,,,,,,,,,,main,None,None,1,1.4992172999773175,477.3414368000813,None,None,1,,,,,,,,,,,,,,201,2023-03-27_13h09.13.236,Main,2022.1.1,59.897204457781655,
negative,blue,2,None,k,,,,,,,,,0,126,126,126,,,,,,,,,,,,,,,,,main,k,k,1,0.8158793998882174,479.8385334000923,None,None,0,,,,,,,,,,,,,,201,2023-03-27_13h09.13.236,Main,2022.1.1,59.897204457781655,
negative,blue,1,None,k,,,,,,,,,0,127,127,127,,,,,,,,,,,,,,,,,main,k,k,1,0.765821099979803,481.65513499989174,None,None,0,,,,,,,,,,,,,,201,2023-03-27_13h09.13.236,Main,2022.1.1,59.897204457781655,
negative,yellow,1,k,None,,,,,,,,,0,128,128,128,,,,,,,,,,,,,,,,,main,None,None,1,1.4989154001232237,483.42166920006275,None,None,1,,,,,,,,,,,,,,201,2023-03-27_13h09.13.236,Main,2022.1.1,59.897204457781655,
negative,yellow,1,k,None,,,,,,,,,0,129,129,129,,,,,,,,,,,,,,,,,main,None,None,1,1.4989124001003802,485.9245398999192,None,None,1,,,,,,,,,,,,,,201,2023-03-27_13h09.13.236,Main,2022.1.1,59.897204457781655,
positive,blue,1,k,None,,,,,,,,,0,130,130,130,,,,,,,,,,,,,,,,,main,None,None,1,1.5032374998554587,488.42160269990563,None,None,1,,,,,,,,,,,,,,201,2023-03-27_13h09.13.236,Main,2022.1.1,59.897204457781655,
negative,blue,1,None,k,,,,,,,,,0,131,131,131,,,,,,,,,,,,,,,,,main,k,k,1,0.6925107000861317,490.921213200083,None,None,0,,,,,,,,,,,,,,201,2023-03-27_13h09.13.236,Main,2022.1.1,59.897204457781655,
negative,blue,2,None,k,,,,,,,,,0,132,132,132,,,,,,,,,,,,,,,,,main,k,k,1,0.8158116999547929,492.6212094000075,None,None,0,,,,,,,,,,,,,,201,2023-03-27_13h09.13.236,Main,2022.1.1,59.897204457781655,
positive,blue,2,k,None,,,,,,,,,0,133,133,133,,,,,,,,,,,,,,,,,main,None,None,1,1.501883699791506,494.4383344000671,None,None,1,,,,,,,,,,,,,,201,2023-03-27_13h09.13.236,Main,2022.1.1,59.897204457781655,
positive,red,2,None,None,,,,,,,,,0,134,134,134,,,,,,,,,,,,,,,,,main,None,None,1,1.4989440999925137,496.9381506999489,None,None,1,,,,,,,,,,,,,,201,2023-03-27_13h09.13.236,Main,2022.1.1,59.897204457781655,
negative,yellow,2,k,None,,,,,,,,,0,135,135,135,,,,,,,,,,,,,,,,,main,None,None,1,1.495838699862361,499.43811589991674,None,None,1,,,,,,,,,,,,,,201,2023-03-27_13h09.13.236,Main,2022.1.1,59.897204457781655,
positive,yellow,2,None,k,,,,,,,,,0,136,136,136,,,,,,,,,,,,,,,,,main,k,k,1,0.8661538998130709,501.93794359988533,None,None,0,,,,,,,,,,,,,,201,2023-03-27_13h09.13.236,Main,2022.1.1,59.897204457781655,
positive,blue,1,k,None,,,,,,,,,0,137,137,137,,,,,,,,,,,,,,,,,main,None,None,1,1.5015747998841107,503.80470749991946,None,None,1,,,,,,,,,,,,,,201,2023-03-27_13h09.13.236,Main,2022.1.1,59.897204457781655,
positive,yellow,1,None,k,,,,,,,,,0,138,138,138,,,,,,,,,,,,,,,,,main,k,k,1,0.9799399999901652,506.30470500001684,None,None,0,,,,,,,,,,,,,,201,2023-03-27_13h09.13.236,Main,2022.1.1,59.897204457781655,
positive,yellow,1,None,k,,,,,,,,,0,139,139,139,,,,,,,,,,,,,,,,,main,k,k,1,0.7996910000219941,508.2878888999112,None,None,0,,,,,,,,,,,,,,201,2023-03-27_13h09.13.236,Main,2022.1.1,59.897204457781655,
positive,yellow,1,None,k,,,,,,,,,0,140,140,140,,,,,,,,,,,,,,,,,main,k,k,1,0.6650773000437766,510.08783279987983,None,None,0,,,,,,,,,,,,,,201,2023-03-27_13h09.13.236,Main,2022.1.1,59.897204457781655,
positive,blue,1,k,None,,,,,,,,,0,141,141,141,,,,,,,,,,,,,,,,,main,None,None,1,1.498840200016275,511.75414459989406,None,None,1,,,,,,,,,,,,,,201,2023-03-27_13h09.13.236,Main,2022.1.1,59.897204457781655,
positive,blue,2,k,None,,,,,,,,,0,142,142,142,,,,,,,,,,,,,,,,,main,None,None,1,1.5024965999182314,514.2541501000524,None,None,1,,,,,,,,,,,,,,201,2023-03-27_13h09.13.236,Main,2022.1.1,59.897204457781655,
positive,yellow,2,None,k,,,,,,,,,0,143,143,143,,,,,,,,,,,,,,,,,main,k,k,1,0.7632414000108838,516.7574221999384,None,None,0,,,,,,,,,,,,,,201,2023-03-27_13h09.13.236,Main,2022.1.1,59.897204457781655,
negative,yellow,2,k,None,,,,,,,,,0,144,144,144,,,,,,,,,,,,,,,,,main,None,None,1,1.498703199904412,518.5211163000204,None,None,1,,,,,,,,,,,,,,201,2023-03-27_13h09.13.236,Main,2022.1.1,59.897204457781655,
negative,blue,2,None,k,,,,,,,,,0,145,145,145,,,,,,,,,,,,,,,,,main,k,k,1,0.7993852000217885,521.0208628999535,None,None,0,,,,,,,,,,,,,,201,2023-03-27_13h09.13.236,Main,2022.1.1,59.897204457781655,
negative,red,1,None,None,,,,,,,,,0,146,146,146,,,,,,,,,,,,,,,,,main,None,None,1,1.498603800078854,522.820866300026,None,None,1,,,,,,,,,,,,,,201,2023-03-27_13h09.13.236,Main,2022.1.1,59.897204457781655,
positive,blue,1,k,None,,,,,,,,,0,147,147,147,,,,,,,,,,,,,,,,,main,None,None,1,1.5019111998844892,525.3208586000837,None,None,1,,,,,,,,,,,,,,201,2023-03-27_13h09.13.236,Main,2022.1.1,59.897204457781655,
positive,yellow,1,None,k,,,,,,,,,0,148,148,148,,,,,,,,,,,,,,,,,main,k,k,1,0.7631651998963207,527.8207819999661,None,None,0,,,,,,,,,,,,,,201,2023-03-27_13h09.13.236,Main,2022.1.1,59.897204457781655,
negative,red,2,None,None,,,,,,,,,0,149,149,149,,,,,,,,,,,,,,,,,main,None,None,1,1.49849470006302,529.5875148000196,None,None,1,,,,,,,,,,,,,,201,2023-03-27_13h09.13.236,Main,2022.1.1,59.897204457781655,
negative,blue,1,None,k,,,,,,,,,0,150,150,150,,,,,,,,,,,,,,,,,main,k,k,1,0.8161154999397695,532.0870826998726,None,None,0,,,,,,,,,,,,,,201,2023-03-27_13h09.13.236,Main,2022.1.1,59.897204457781655,
negative,yellow,2,k,None,,,,,,,,,0,151,151,151,,,,,,,,,,,,,,,,,main,None,None,1,1.4993960000574589,533.9037677000742,None,None,1,,,,,,,,,,,,,,201,2023-03-27_13h09.13.236,Main,2022.1.1,59.897204457781655,
negative,blue,2,None,k,,,,,,,,,0,152,152,152,,,,,,,,,,,,,,,,,main,k,k,1,1.068825599970296,536.4040570000652,None,None,0,,,,,,,,,,,,,,201,2023-03-27_13h09.13.236,Main,2022.1.1,59.897204457781655,
negative,yellow,1,k,None,,,,,,,,,0,153,153,153,,,,,,,,,,,,,,,,,main,None,None,1,1.4959344000089914,538.4706647000276,None,None,1,,,,,,,,,,,,,,201,2023-03-27_13h09.13.236,Main,2022.1.1,59.897204457781655,
negative,blue,1,None,k,,,,,,,,,0,154,154,154,,,,,,,,,,,,,,,,,main,k,k,1,0.7326728999614716,540.9733184999786,None,None,0,,,,,,,,,,,,,,201,2023-03-27_13h09.13.236,Main,2022.1.1,59.897204457781655,
positive,yellow,2,None,k,,,,,,,,,0,155,155,155,,,,,,,,,,,,,,,,,main,k,k,1,0.6990539999678731,542.7037734000478,None,None,0,,,,,,,,,,,,,,201,2023-03-27_13h09.13.236,Main,2022.1.1,59.897204457781655,
positive,red,2,None,None,,,,,,,,,0,156,156,156,,,,,,,,,,,,,,,,,main,None,None,1,1.4988525998778641,544.4037681000773,None,None,1,,,,,,,,,,,,,,201,2023-03-27_13h09.13.236,Main,2022.1.1,59.897204457781655,
positive,red,1,None,None,,,,,,,,,0,157,157,157,,,,,,,,,,,,,,,,,main,None,None,1,1.5022376000415534,546.9037516999524,None,None,1,,,,,,,,,,,,,,201,2023-03-27_13h09.13.236,Main,2022.1.1,59.897204457781655,
positive,blue,2,k,None,,,,,,,,,0,158,158,158,,,,,,,,,,,,,,,,,main,None,None,1,1.4956529000774026,549.4037051999476,None,None,1,,,,,,,,,,,,,,201,2023-03-27_13h09.13.236,Main,2022.1.1,59.897204457781655,
negative,yellow,1,k,None,,,,,,,,,0,159,159,159,,,,,,,,,,,,,,,,,main,None,None,1,1.4997162001673132,551.9033329000231,None,None,1,,,,,,,,,,,,,,201,2023-03-27_13h09.13.236,Main,2022.1.1,59.897204457781655,
negative,red,2,None,None,,,,,,,,,0,160,160,160,,,,,,,,,,,,,,,,,main,None,None,1,1.5017258999869227,554.403761500027,None,None,1,,,,,,,,,,,,,,201,2023-03-27_13h09.13.236,Main,2022.1.1,59.897204457781655,
negative,blue,1,None,k,,,,,,,,,0,161,161,161,,,,,,,,,,,,,,,,,main,k,k,1,0.6963593000546098,556.906545399921,None,None,0,,,,,,,,,,,,,,201,2023-03-27_13h09.13.236,Main,2022.1.1,59.897204457781655,
negative,blue,1,None,k,,,,,,,,,0,162,162,162,,,,,,,,,,,,,,,,,main,k,k,1,0.7324284000787884,558.6064184999559,None,None,0,,,,,,,,,,,,,,201,2023-03-27_13h09.13.236,Main,2022.1.1,59.897204457781655,
negative,yellow,1,k,None,,,,,,,,,0,163,163,163,,,,,,,,,,,,,,,,,main,None,None,1,1.5019651998300105,560.3369338000193,None,None,1,,,,,,,,,,,,,,201,2023-03-27_13h09.13.236,Main,2022.1.1,59.897204457781655,
negative,yellow,1,k,None,,,,,,,,,0,164,164,164,,,,,,,,,,,,,,,,,main,None,None,1,1.4993362999521196,562.8367117000744,None,None,1,,,,,,,,,,,,,,201,2023-03-27_13h09.13.236,Main,2022.1.1,59.897204457781655,
positive,yellow,1,None,k,,,,,,,,,0,165,165,165,,,,,,,,,,,,,,,,,main,k,k,1,0.845790000166744,565.3366874998901,None,None,0,,,,,,,,,,,,,,201,2023-03-27_13h09.13.236,Main,2022.1.1,59.897204457781655,
negative,red,1,None,None,,,,,,,,,0,166,166,166,,,,,,,,,,,,,,,,,main,None,None,1,1.5019288000185043,567.1894970999565,None,None,1,,,,,,,,,,,,,,201,2023-03-27_13h09.13.236,Main,2022.1.1,59.897204457781655,
negative,yellow,2,k,None,,,,,,,,,0,167,167,167,,,,,,,,,,,,,,,,,main,None,None,1,1.495612099999562,569.6866216999479,None,None,1,,,,,,,,,,,,,,201,2023-03-27_13h09.13.236,Main,2022.1.1,59.897204457781655,
positive,blue,2,k,None,,,,,,,,,0,168,168,168,,,,,,,,,,,,,,,,,main,None,None,1,1.4997042999602854,572.1862619000021,None,None,1,,,,,,,,,,,,,,201,2023-03-27_13h09.13.236,Main,2022.1.1,59.897204457781655,
positive,red,2,None,None,,,,,,,,,0,169,169,169,,,,,,,,,,,,,,,,,main,None,None,1,1.5018729001749307,574.6866099000908,None,None,1,,,,,,,,,,,,,,201,2023-03-27_13h09.13.236,Main,2022.1.1,59.897204457781655,
positive,red,1,None,None,,,,,,,,,0,170,170,170,,,,,,,,,,,,,,,,,main,None,None,1,1.4989972999319434,577.1894259999972,None,None,1,,,,,,,,,,,,,,201,2023-03-27_13h09.13.236,Main,2022.1.1,59.897204457781655,
negative,blue,2,None,k,,,,,,,,,0,171,171,171,,,,,,,,,,,,,,,,,main,k,k,1,0.7128673999104649,579.689357599942,None,None,0,,,,,,,,,,,,,,201,2023-03-27_13h09.13.236,Main,2022.1.1,59.897204457781655,
positive,blue,2,k,None,,,,,,,,,0,172,172,172,,,,,,,,,,,,,,,,,main,None,None,1,1.5018488001078367,581.4029842999298,None,None,1,,,,,,,,,,,,,,201,2023-03-27_13h09.13.236,Main,2022.1.1,59.897204457781655,
negative,yellow,2,k,None,,,,,,,,,0,173,173,173,,,,,,,,,,,,,,,,,main,None,None,1,1.4963591999839991,583.9029449000955,None,None,1,,,,,,,,,,,,,,201,2023-03-27_13h09.13.236,Main,2022.1.1,59.897204457781655,
positive,yellow,2,None,k,,,,,,,,,0,174,174,174,,,,,,,,,,,,,,,,,main,k,k,1,0.7659597001038492,586.4029327000026,None,None,0,,,,,,,,,,,,,,201,2023-03-27_13h09.13.236,Main,2022.1.1,59.897204457781655,
negative,blue,2,None,k,,,,,,,,,0,175,175,175,,,,,,,,,,,,,,,,,main,k,k,1,0.8321997998282313,588.1724193999544,None,None,0,,,,,,,,,,,,,,201,2023-03-27_13h09.13.236,Main,2022.1.1,59.897204457781655,
positive,blue,1,k,None,,,,,,,,,0,176,176,176,,,,,,,,,,,,,,,,,main,None,None,1,1.4985393998213112,590.0057425000705,None,None,1,,,,,,,,,,,,,,201,2023-03-27_13h09.13.236,Main,2022.1.1,59.897204457781655,
positive,yellow,1,None,k,,,,,,,,,0,177,177,177,,,,,,,,,,,,,,,,,main,k,k,1,0.699730799999088,592.5025063999929,None,None,0,,,,,,,,,,,,,,201,2023-03-27_13h09.13.236,Main,2022.1.1,59.897204457781655,
positive,blue,1,k,None,,,,,,,,,0,178,178,178,,,,,,,,,,,,,,,,,main,None,None,1,1.5024063000455499,594.205690999981,None,None,1,,,,,,,,,,,,,,201,2023-03-27_13h09.13.236,Main,2022.1.1,59.897204457781655,
positive,yellow,2,None,k,,,,,,,,,0,179,179,179,,,,,,,,,,,,,,,,,main,k,k,1,0.7487580999732018,596.7029039000627,None,None,0,,,,,,,,,,,,,,201,2023-03-27_13h09.13.236,Main,2022.1.1,59.897204457781655,
positive,blue,1,k,None,,,,,,,,,0,180,180,180,,,,,,,,,,,,,,,,,main,None,None,1,1.4956497999373823,598.4557211999781,None,None,1,,,,,,,,,,,,,,201,2023-03-27_13h09.13.236,Main,2022.1.1,59.897204457781655,
negative,red,1,None,None,,,,,,,,,0,181,181,181,,,,,,,,,,,,,,,,,main,None,None,1,1.502329200040549,600.952323500067,None,None,1,,,,,,,,,,,,,,201,2023-03-27_13h09.13.236,Main,2022.1.1,59.897204457781655,
negative,blue,1,None,k,,,,,,,,,0,182,182,182,,,,,,,,,,,,,,,,,main,k,k,1,0.8466042000800371,603.4526841000188,None,None,0,,,,,,,,,,,,,,201,2023-03-27_13h09.13.236,Main,2022.1.1,59.897204457781655,
negative,yellow,2,k,None,,,,,,,,,0,183,183,183,,,,,,,,,,,,,,,,,main,None,None,1,1.5016403999179602,605.3055716000963,None,None,1,,,,,,,,,,,,,,201,2023-03-27_13h09.13.236,Main,2022.1.1,59.897204457781655,
positive,yellow,2,None,k,,,,,,,,,0,184,184,184,,,,,,,,,,,,,,,,,main,k,k,1,0.9627910000272095,607.8025871999562,None,None,0,,,,,,,,,,,,,,201,2023-03-27_13h09.13.236,Main,2022.1.1,59.897204457781655,
positive,yellow,1,None,k,,,,,,,,,0,185,185,185,,,,,,,,,,,,,,,,,main,k,k,1,0.7161916000768542,609.7688219998963,None,None,0,,,,,,,,,,,,,,201,2023-03-27_13h09.13.236,Main,2022.1.1,59.897204457781655,
positive,red,2,None,None,,,,,,,,,0,186,186,186,,,,,,,,,,,,,,,,,main,None,None,1,1.5019976999610662,611.4854921000078,None,None,1,,,,,,,,,,,,,,201,2023-03-27_13h09.13.236,Main,2022.1.1,59.897204457781655,
positive,blue,1,k,None,,,,,,,,,0,187,187,187,,,,,,,,,,,,,,,,,main,None,None,1,1.4987580999732018,613.9857975998893,None,None,1,,,,,,,,,,,,,,201,2023-03-27_13h09.13.236,Main,2022.1.1,59.897204457781655,
negative,yellow,1,k,None,,,,,,,,,0,188,188,188,,,,,,,,,,,,,,,,,main,None,None,1,1.4959328998811543,616.4857351998799,None,None,1,,,,,,,,,,,,,,201,2023-03-27_13h09.13.236,Main,2022.1.1,59.897204457781655,
positive,yellow,2,None,k,,,,,,,,,0,189,189,189,,,,,,,,,,,,,,,,,main,k,k,1,0.6830025999806821,618.9855418999214,None,None,0,,,,,,,,,,,,,,201,2023-03-27_13h09.13.236,Main,2022.1.1,59.897204457781655,
negative,yellow,2,k,None,,,,,,,,,0,190,190,190,,,,,,,,,,,,,,,,,main,None,None,1,1.5015381001867354,620.6688455000985,None,None,1,,,,,,,,,,,,,,201,2023-03-27_13h09.13.236,Main,2022.1.1,59.897204457781655,
negative,yellow,1,k,None,,,,,,,,,0,191,191,191,,,,,,,,,,,,,,,,,main,None,None,1,1.4988709001336247,623.1688472998794,None,None,1,,,,,,,,,,,,,,201,2023-03-27_13h09.13.236,Main,2022.1.1,59.897204457781655,
positive,blue,2,k,None,,,,,,,,,0,192,192,192,,,,,,,,,,,,,,,,,main,None,None,1,1.4992695001419634,625.668881099904,None,None,1,,,,,,,,,,,,,,201,2023-03-27_13h09.13.236,Main,2022.1.1,59.897204457781655,
positive,yellow,1,None,k,,,,,,,,,0,193,193,193,,,,,,,,,,,,,,,,,main,k,k,1,0.7794888999778777,628.1716980000492,None,None,0,,,,,,,,,,,,,,201,2023-03-27_13h09.13.236,Main,2022.1.1,59.897204457781655,
negative,red,2,None,None,,,,,,,,,0,194,194,194,,,,,,,,,,,,,,,,,main,None,None,1,1.5025846001226455,629.9517482998781,None,None,1,,,,,,,,,,,,,,201,2023-03-27_13h09.13.236,Main,2022.1.1,59.897204457781655,
positive,red,1,None,None,,,,,,,,,0,195,195,195,,,,,,,,,,,,,,,,,main,None,None,1,1.499124500202015,632.4520944000687,None,None,1,,,,,,,,,,,,,,201,2023-03-27_13h09.13.236,Main,2022.1.1,59.897204457781655,
negative,blue,1,None,k,,,,,,,,,0,196,196,196,,,,,,,,,,,,,,,,,main,k,k,1,0.7826052999589592,634.9520064000972,None,None,0,,,,,,,,,,,,,,201,2023-03-27_13h09.13.236,Main,2022.1.1,59.897204457781655,
positive,blue,2,k,None,,,,,,,,,0,197,197,197,,,,,,,,,,,,,,,,,main,None,None,1,1.498832399956882,636.7354768998921,None,None,1,,,,,,,,,,,,,,201,2023-03-27_13h09.13.236,Main,2022.1.1,59.897204457781655,
negative,blue,2,None,k,,,,,,,,,0,198,198,198,,,,,,,,,,,,,,,,,main,k,k,1,0.912975300103426,639.23513679998,None,None,0,,,,,,,,,,,,,,201,2023-03-27_13h09.13.236,Main,2022.1.1,59.897204457781655,
negative,blue,2,None,k,,,,,,,,,0,199,199,199,,,,,,,,,,,,,,,,,main,k,k,1,0.7170015000738204,641.1518667000346,None,None,0,,,,,,,,,,,,,,201,2023-03-27_13h09.13.236,Main,2022.1.1,59.897204457781655,
positive,blue,2,k,None,,,,,,,,,0,200,200,200,,,,,,,,,,,,,,,,,main,None,None,1,1.5015448001213372,642.8685029000044,None,None,1,,,,,,,,,,,,,,201,2023-03-27_13h09.13.236,Main,2022.1.1,59.897204457781655,
positive,blue,2,k,None,,,,,,,,,0,201,201,201,,,,,,,,,,,,,,,,,main,None,None,1,1.4990513001102954,645.3684024999384,None,None,1,,,,,,,,,,,,,,201,2023-03-27_13h09.13.236,Main,2022.1.1,59.897204457781655,
negative,yellow,2,k,None,,,,,,,,,0,202,202,202,,,,,,,,,,,,,,,,,main,None,None,1,1.4960773000493646,647.8683658000082,None,None,1,,,,,,,,,,,,,,201,2023-03-27_13h09.13.236,Main,2022.1.1,59.897204457781655,
positive,red,1,None,None,,,,,,,,,0,203,203,203,,,,,,,,,,,,,,,,,main,None,None,1,1.5024820000398904,650.368003099924,None,None,1,,,,,,,,,,,,,,201,2023-03-27_13h09.13.236,Main,2022.1.1,59.897204457781655,
negative,blue,2,None,k,,,,,,,,,0,204,204,204,,,,,,,,,,,,,,,,,main,k,k,1,0.6818170000333339,652.8684598000254,None,None,0,,,,,,,,,,,,,,201,2023-03-27_13h09.13.236,Main,2022.1.1,59.897204457781655,
negative,red,1,None,None,,,,,,,,,0,205,205,205,,,,,,,,,,,,,,,,,main,None,None,1,1.4986330999527127,654.5545844000299,None,None,1,,,,,,,,,,,,,,201,2023-03-27_13h09.13.236,Main,2022.1.1,59.897204457781655,
negative,blue,2,None,k,,,,,,,,,0,206,206,206,,,,,,,,,,,,,,,,,main,k,k,1,0.7464799000881612,657.0516099999659,None,None,0,,,,,,,,,,,,,,201,2023-03-27_13h09.13.236,Main,2022.1.1,59.897204457781655,
negative,yellow,2,k,None,,,,,,,,,0,207,207,207,,,,,,,,,,,,,,,,,main,None,None,1,1.498827600153163,658.8014062999282,None,None,1,,,,,,,,,,,,,,201,2023-03-27_13h09.13.236,Main,2022.1.1,59.897204457781655,
positive,yellow,2,None,k,,,,,,,,,0,208,208,208,,,,,,,,,,,,,,,,,main,k,k,1,0.6662395000457764,661.301364999963,None,None,0,,,,,,,,,,,,,,201,2023-03-27_13h09.13.236,Main,2022.1.1,59.897204457781655,
negative,yellow,1,k,None,,,,,,,,,0,209,209,209,,,,,,,,,,,,,,,,,main,None,None,1,1.498808499891311,662.9680093000643,None,None,1,,,,,,,,,,,,,,201,2023-03-27_13h09.13.236,Main,2022.1.1,59.897204457781655,
negative,red,2,None,None,,,,,,,,,0,210,210,210,,,,,,,,,,,,,,,,,main,None,None,1,1.4989277999848127,665.4680029998999,None,None,1,,,,,,,,,,,,,,201,2023-03-27_13h09.13.236,Main,2022.1.1,59.897204457781655,
negative,blue,1,None,k,,,,,,,,,0,211,211,211,,,,,,,,,,,,,,,,,main,k,k,1,0.7329086000099778,667.9679399000015,None,None,0,,,,,,,,,,,,,,201,2023-03-27_13h09.13.236,Main,2022.1.1,59.897204457781655,
negative,yellow,1,k,None,,,,,,,,,0,212,212,212,,,,,,,,,,,,,,,,,main,None,None,1,1.498610899783671,669.7012334000319,None,None,1,,,,,,,,,,,,,,201,2023-03-27_13h09.13.236,Main,2022.1.1,59.897204457781655,
positive,blue,1,k,None,,,,,,,,,0,213,213,213,,,,,,,,,,,,,,,,,main,None,None,1,1.5023207000922412,672.2009439000394,None,None,1,,,,,,,,,,,,,,201,2023-03-27_13h09.13.236,Main,2022.1.1,59.897204457781655,
positive,blue,1,k,None,,,,,,,,,0,214,214,214,,,,,,,,,,,,,,,,,main,None,None,1,1.4963905999902636,674.7041289000772,None,None,1,,,,,,,,,,,,,,201,2023-03-27_13h09.13.236,Main,2022.1.1,59.897204457781655,
positive,yellow,1,None,k,,,,,,,,,0,215,215,215,,,,,,,,,,,,,,,,,main,k,k,1,0.7730078001040965,677.2041124999523,None,None,0,,,,,,,,,,,,,,201,2023-03-27_13h09.13.236,Main,2022.1.1,59.897204457781655,
positive,yellow,1,None,k,,,,,,,,,0,216,216,216,,,,,,,,,,,,,,,,,main,k,k,1,0.7078718999400735,678.9805067998823,None,None,0,,,,,,,,,,,,,,201,2023-03-27_13h09.13.236,Main,2022.1.1,59.897204457781655,
positive,yellow,2,None,k,,,,,,,,,0,217,217,217,,,,,,,,,,,,,,,,,main,k,k,1,1.516158200101927,680.6840341000352,None,None,0,,,,,,,,,,,,,,201,2023-03-27_13h09.13.236,Main,2022.1.1,59.897204457781655,
negative,blue,1,None,k,,,,,,,,,0,218,218,218,,,,,,,,,,,,,,,,,main,k,k,1,0.7514883000403643,684.2039204998873,None,None,0,,,,,,,,,,,,,,201,2023-03-27_13h09.13.236,Main,2022.1.1,59.897204457781655,
positive,red,2,None,None,,,,,,,,,0,219,219,219,,,,,,,,,,,,,,,,,main,None,None,1,1.4956880998797715,685.9510083999485,None,None,1,,,,,,,,,,,,,,201,2023-03-27_13h09.13.236,Main,2022.1.1,59.897204457781655,
positive,yellow,1,None,k,,,,,,,,,0,220,220,220,,,,,,,,,,,,,,,,,main,k,k,1,0.8493270999751985,688.450816199882,None,None,0,,,,,,,,,,,,,,201,2023-03-27_13h09.13.236,Main,2022.1.1,59.897204457781655,
positive,blue,1,k,None,,,,,,,,,0,221,221,221,,,,,,,,,,,,,,,,,main,None,None,1,1.5018074000254273,690.3008483001031,None,None,1,,,,,,,,,,,,,,201,2023-03-27_13h09.13.236,Main,2022.1.1,59.897204457781655,
positive,yellow,2,None,k,,,,,,,,,0,222,222,222,,,,,,,,,,,,,,,,,main,k,k,1,0.879636500030756,692.8036952000111,None,None,0,,,,,,,,,,,,,,201,2023-03-27_13h09.13.236,Main,2022.1.1,59.897204457781655,
negative,yellow,1,k,None,,,,,,,,,0,223,223,223,,,,,,,,,,,,,,,,,main,None,None,1,1.5018508001230657,694.6840681000613,None,None,1,,,,,,,,,,,,,,201,2023-03-27_13h09.13.236,Main,2022.1.1,59.897204457781655,
positive,yellow,2,None,k,,,,,,,,,0,224,224,224,,,,,,,,,,,,,,,,,main,k,k,1,0.7965410000178963,697.1840468000155,None,None,0,,,,,,,,,,,,,,201,2023-03-27_13h09.13.236,Main,2022.1.1,59.897204457781655,
negative,yellow,2,k,None,,,,,,,,,0,225,225,225,,,,,,,,,,,,,,,,,main,None,None,1,1.498442400014028,698.9839916999917,None,None,1,,,,,,,,,,,,,,201,2023-03-27_13h09.13.236,Main,2022.1.1,59.897204457781655,
negative,blue,2,None,k,,,,,,,,,0,226,226,226,,,,,,,,,,,,,,,,,main,k,k,1,0.5997812999412417,701.4836806000676,None,None,0,,,,,,,,,,,,,,201,2023-03-27_13h09.13.236,Main,2022.1.1,59.897204457781655,
positive,red,2,None,None,,,,,,,,,0,227,227,227,,,,,,,,,,,,,,,,,main,None,None,1,1.5016179999802262,703.0868160000537,None,None,1,,,,,,,,,,,,,,201,2023-03-27_13h09.13.236,Main,2022.1.1,59.897204457781655,
positive,blue,2,k,None,,,,,,,,,0,228,228,228,,,,,,,,,,,,,,,,,main,None,None,1,1.5034761000424623,705.5839160999749,None,None,1,,,,,,,,,,,,,,201,2023-03-27_13h09.13.236,Main,2022.1.1,59.897204457781655,
negative,blue,1,None,k,,,,,,,,,0,229,229,229,,,,,,,,,,,,,,,,,main,k,k,1,0.8256395999342203,708.0893973999191,None,None,0,,,,,,,,,,,,,,201,2023-03-27_13h09.13.236,Main,2022.1.1,59.897204457781655,
positive,yellow,1,None,k,,,,,,,,,0,230,230,230,,,,,,,,,,,,,,,,,main,k,k,1,0.6819734999444336,709.9170266999863,None,None,0,,,,,,,,,,,,,,201,2023-03-27_13h09.13.236,Main,2022.1.1,59.897204457781655,
negative,blue,2,None,k,,,,,,,,,0,231,231,231,,,,,,,,,,,,,,,,,main,k,k,1,0.9686663998290896,711.6003626000602,None,None,0,,,,,,,,,,,,,,201,2023-03-27_13h09.13.236,Main,2022.1.1,59.897204457781655,
negative,red,1,None,None,,,,,,,,,0,232,232,232,,,,,,,,,,,,,,,,,main,None,None,1,1.4990243997890502,713.5671407999471,None,None,1,,,,,,,,,,,,,,201,2023-03-27_13h09.13.236,Main,2022.1.1,59.897204457781655,
positive,blue,2,k,None,,,,,,,,,0,233,233,233,,,,,,,,,,,,,,,,,main,None,None,1,1.4990431999322027,716.0670328999404,None,None,1,,,,,,,,,,,,,,201,2023-03-27_13h09.13.236,Main,2022.1.1,59.897204457781655,
negative,yellow,1,k,None,,,,,,,,,0,234,234,234,,,,,,,,,,,,,,,,,main,None,None,1,1.4957481999881566,718.5699183000252,None,None,1,,,,,,,,,,,,,,201,2023-03-27_13h09.13.236,Main,2022.1.1,59.897204457781655,
negative,yellow,2,k,None,,,,,,,,,0,235,235,235,,,,,,,,,,,,,,,,,main,None,None,1,1.4994252000469714,721.0665676998906,None,None,1,,,,,,,,,,,,,,201,2023-03-27_13h09.13.236,Main,2022.1.1,59.897204457781655,
positive,red,1,None,None,,,,,,,,,0,236,236,236,,,,,,,,,,,,,,,,,main,None,None,1,1.5016268000472337,723.5668875998817,None,None,1,,,,,,,,,,,,,,201,2023-03-27_13h09.13.236,Main,2022.1.1,59.897204457781655,
negative,red,2,None,None,,,,,,,,,0,237,237,237,,,,,,,,,,,,,,,,,main,None,None,1,1.4990048999898136,726.0669855999295,None,None,1,,,,,,,,,,,,,,201,2023-03-27_13h09.13.236,Main,2022.1.1,59.897204457781655,
negative,blue,1,None,k,,,,,,,,,0,238,238,238,,,,,,,,,,,,,,,,,main,k,k,1,0.762875699903816,728.5743601999711,None,None,0,,,,,,,,,,,,,,201,2023-03-27_13h09.13.236,Main,2022.1.1,59.897204457781655,
positive,blue,1,k,None,,,,,,,,,0,239,239,239,,,,,,,,,,,,,,,,,main,None,None,1,1.499431800097227,730.3330230999272,None,None,1,,,,,,,,,,,,,,201,2023-03-27_13h09.13.236,Main,2022.1.1,59.897204457781655,
,,,,,,,,,,,,,,,,,,,,,,,,,,,,,,,,,,,,,,,,,,,,,,,,,,,,,732.8361714000348,None,,,,,,
