distractor,target,set,ans1,ans2,rep_loop4.thisRepN,rep_loop4.thisTrialN,rep_loop4.thisN,rep_loop4.thisIndex,st2_prac_loop.thisRepN,st2_prac_loop.thisTrialN,st2_prac_loop.thisN,st2_prac_loop.thisIndex,st2_main_loop.thisRepN,st2_main_loop.thisTrialN,st2_main_loop.thisN,st2_main_loop.thisIndex,image_4.started,image_4.stopped,sound_2.started,sound_2.stopped,key_resp_3.keys,key_resp_3.rt,image_5.started,image_5.stopped,st_prac_back.started,st_prac_back.stopped,st_prac_text.started,st_prac_text.stopped,st_fix_back.started,st_fix_back.stopped,st_fix_2.started,st_fix_2.stopped,main_prac,st_ans,st_res,st_corr,st_rt,st_back.started,st_back.stopped,st2_resp.keys,st2_resp.corr,st_main_back.started,st_main_back.stopped,st_main_text.started,st_main_text.stopped,mouse_4.x,mouse_4.y,mouse_4.leftButton,mouse_4.midButton,mouse_4.rightButton,mouse_4.started,mouse_4.stopped,text_2.started,text_2.stopped,id*,date,expName,psychopyVersion,frameRate,
negative,yellow,1,k,None,,,,,0,0,0,0,,,,,32.013883700128645,None,38.04028706001118,None,space,62.84532839991152,100.9055957000237,None,103.95554560003802,None,103.95554560003802,None,105.95540739991702,None,105.95540739991702,None,prac,k,k,1,1.1449270001612604,107.96888309996575,None,None,0,,,,,,,,,,,,,,202,2023-03-27_15h34.31.799,Main,2022.1.1,59.88188901083835,
positive,red,2,None,None,,,,,0,1,1,1,,,,,,,,,,,,,,,,,,,,,prac,None,None,1,1.501652400009334,110.11898080003448,None,None,1,,,,,,,,,,,,,,202,2023-03-27_15h34.31.799,Main,2022.1.1,59.88188901083835,
negative,blue,2,None,k,,,,,0,2,2,2,,,,,,,,,,,,,,,,,,,,,prac,None,None,1,1.4987343000248075,112.62214299989864,None,None,1,,,,,,,,,,,,,,202,2023-03-27_15h34.31.799,Main,2022.1.1,59.88188901083835,
positive,yellow,1,None,k,,,,,0,3,3,3,,,,,,,,,,,,,,,,,,,,,prac,None,None,1,1.4961665000300854,115.11910720006563,None,None,1,,,,,,,,,,,,,,202,2023-03-27_15h34.31.799,Main,2022.1.1,59.88188901083835,
negative,blue,2,None,k,,,,,0,4,4,4,,,,,,,,,,,,,,,,,,,,,prac,None,None,1,1.5016816998831928,117.61889929999597,None,None,1,,,,,,,,,,,,,,202,2023-03-27_15h34.31.799,Main,2022.1.1,59.88188901083835,
negative,blue,1,None,k,,,,,0,5,5,5,,,,,,,,,,,,,,,,,,,,,prac,None,None,1,1.4963497000280768,120.1217525000684,None,None,1,,,,,,,,,,,,,,202,2023-03-27_15h34.31.799,Main,2022.1.1,59.88188901083835,
negative,yellow,2,k,None,,,,,0,6,6,6,,,,,,,,,,,,,,,,,,,,,prac,k,k,1,0.949453700101003,122.61883260007016,None,None,0,,,,,,,,,,,,,,202,2023-03-27_15h34.31.799,Main,2022.1.1,59.88188901083835,
negative,red,1,None,None,,,,,0,7,7,7,,,,,,,,,,,,,,,,,,,,,prac,None,None,1,1.4986509999725968,124.57178690005094,None,None,1,,,,,,,,,,,,,,202,2023-03-27_15h34.31.799,Main,2022.1.1,59.88188901083835,
positive,yellow,2,None,k,,,,,0,8,8,8,,,,,,,,,,,,,,,,,,,,,prac,None,None,1,1.5037056000437587,127.0684255999513,None,None,1,,,,,,,,,,,,,,202,2023-03-27_15h34.31.799,Main,2022.1.1,59.88188901083835,
negative,yellow,1,k,None,,,,,0,9,9,9,,,,,,,,,,,,,,,,,,,,,prac,k,k,1,0.6447620000690222,129.5716093000956,None,None,0,,,,,,,,,,,,,,202,2023-03-27_15h34.31.799,Main,2022.1.1,59.88188901083835,
positive,yellow,2,None,k,,,,,0,10,10,10,,,,,,,,,,,,,,,,,,,,,prac,None,None,1,1.5015952000394464,131.2216397000011,None,None,1,,,,,,,,,,,,,,202,2023-03-27_15h34.31.799,Main,2022.1.1,59.88188901083835,
negative,yellow,2,k,None,,,,,0,11,11,11,,,,,,,,,,,,,,,,,,,,,prac,k,k,1,1.162846599938348,133.71868990012445,None,None,0,,,,,,,,,,,,,,202,2023-03-27_15h34.31.799,Main,2022.1.1,59.88188901083835,
negative,red,2,None,None,,,,,0,12,12,12,,,,,,,,,,,,,,,,,,,,,prac,None,None,1,1.4987150998786092,135.8851858000271,None,None,1,,,,,,,,,,,,,,202,2023-03-27_15h34.31.799,Main,2022.1.1,59.88188901083835,
positive,red,1,None,None,,,,,0,13,13,13,,,,,,,,,,,,,,,,,,,,,prac,None,None,1,1.5018640998750925,138.3851475000847,None,None,1,,,,,,,,,,,,,,202,2023-03-27_15h34.31.799,Main,2022.1.1,59.88188901083835,
positive,blue,2,k,None,,,,,0,14,14,14,,,,,,,,,,,,,,,,,,,,,prac,k,k,1,1.0132822999730706,140.88798350002617,None,None,0,,,,,,,,,,,,,,202,2023-03-27_15h34.31.799,Main,2022.1.1,59.88188901083835,
positive,blue,1,k,None,,,,,0,15,15,15,,,,,,,,,,,,,,,,,,,,,prac,k,k,1,1.1657831999473274,142.90175070008263,None,None,0,,,,,,,,,,,,,,202,2023-03-27_15h34.31.799,Main,2022.1.1,59.88188901083835,
negative,blue,1,None,k,,,,,0,16,16,16,,,,,,,,,,,,,,,,,,,,,prac,None,None,1,1.4988494999706745,145.06837309990078,None,None,1,,,,,,,,,,,,,,202,2023-03-27_15h34.31.799,Main,2022.1.1,59.88188901083835,
positive,blue,2,k,None,,,,,0,17,17,17,,,,,,,,,,,,,,,,,,,,,prac,k,k,1,1.0190799999982119,147.56800809991546,None,None,0,,,,,,,,,,,,,,202,2023-03-27_15h34.31.799,Main,2022.1.1,59.88188901083835,
positive,blue,1,k,None,,,,,0,18,18,18,,,,,,,,,,,,,,,,,,,,,prac,k,k,1,0.9131543999537826,149.58794050011784,None,None,0,,,,,,,,,,,,,,202,2023-03-27_15h34.31.799,Main,2022.1.1,59.88188901083835,
positive,yellow,1,None,k,,,,,0,19,19,19,,,,,,,,,,,,,,,,,,,,,prac,None,None,1,1.5015141000039876,151.50451070000418,None,None,1,,,,,,,,,,,,,,202,2023-03-27_15h34.31.799,Main,2022.1.1,59.88188901083835,
negative,yellow,1,k,None,,,,,1,0,20,0,,,,,,,,,,,,,,,,,,,,,prac,k,k,1,1.0797323998995125,154.00161119992845,None,None,0,,,,,,,,,,,,,,202,2023-03-27_15h34.31.799,Main,2022.1.1,59.88188901083835,
positive,red,2,None,None,,,,,1,1,21,1,,,,,,,,,,,,,,,,,,,,,prac,None,None,1,1.5021847998723388,156.0848224000074,None,None,1,,,,,,,,,,,,,,202,2023-03-27_15h34.31.799,Main,2022.1.1,59.88188901083835,
negative,blue,2,None,k,,,,,1,2,22,2,,,,,,,,,,,,,,,,,,,,,prac,None,None,1,1.4989400999620557,158.58770929998718,None,None,1,,,,,,,,,,,,,,202,2023-03-27_15h34.31.799,Main,2022.1.1,59.88188901083835,
positive,yellow,1,None,k,,,,,1,3,23,3,,,,,,,,,,,,,,,,,,,,,prac,None,None,1,1.4992984000127763,161.08765890006907,None,None,1,,,,,,,,,,,,,,202,2023-03-27_15h34.31.799,Main,2022.1.1,59.88188901083835,
negative,blue,2,None,k,,,,,1,4,24,4,,,,,,,,,,,,,,,,,,,,,prac,None,None,1,1.4958971000742167,163.58752749999985,None,None,1,,,,,,,,,,,,,,202,2023-03-27_15h34.31.799,Main,2022.1.1,59.88188901083835,
negative,blue,1,None,k,,,,,1,5,25,5,,,,,,,,,,,,,,,,,,,,,prac,None,None,1,1.502405600156635,166.08454969990999,None,None,1,,,,,,,,,,,,,,202,2023-03-27_15h34.31.799,Main,2022.1.1,59.88188901083835,
negative,yellow,2,k,None,,,,,1,6,26,6,,,,,,,,,,,,,,,,,,,,,prac,k,k,1,1.1495438001584262,168.5875182999298,None,None,0,,,,,,,,,,,,,,202,2023-03-27_15h34.31.799,Main,2022.1.1,59.88188901083835,
negative,red,1,None,None,,,,,1,7,27,7,,,,,,,,,,,,,,,,,,,,,prac,None,None,1,1.5001548000145704,170.7374162999913,None,None,1,,,,,,,,,,,,,,202,2023-03-27_15h34.31.799,Main,2022.1.1,59.88188901083835,
positive,yellow,2,None,k,,,,,1,8,28,8,,,,,,,,,,,,,,,,,,,,,prac,None,None,1,1.4940780999604613,173.23734230012633,None,None,1,,,,,,,,,,,,,,202,2023-03-27_15h34.31.799,Main,2022.1.1,59.88188901083835,
negative,yellow,1,k,None,,,,,1,9,29,9,,,,,,,,,,,,,,,,,,,,,prac,k,k,1,1.0027004999574274,175.73429629998282,None,None,0,,,,,,,,,,,,,,202,2023-03-27_15h34.31.799,Main,2022.1.1,59.88188901083835,
positive,yellow,2,None,k,,,,,1,10,30,10,,,,,,,,,,,,,,,,,,,,,prac,None,None,1,1.4988218999933451,177.73444780008867,None,None,1,,,,,,,,,,,,,,202,2023-03-27_15h34.31.799,Main,2022.1.1,59.88188901083835,
negative,yellow,2,k,None,,,,,1,11,31,11,,,,,,,,,,,,,,,,,,,,,prac,k,k,1,0.9830338000319898,180.23726759990677,None,None,0,,,,,,,,,,,,,,202,2023-03-27_15h34.31.799,Main,2022.1.1,59.88188901083835,
negative,red,2,None,None,,,,,1,12,32,12,,,,,,,,,,,,,,,,,,,,,prac,None,None,1,1.4954919000156224,182.22057199990377,None,None,1,,,,,,,,,,,,,,202,2023-03-27_15h34.31.799,Main,2022.1.1,59.88188901083835,
positive,red,1,None,None,,,,,1,13,33,13,,,,,,,,,,,,,,,,,,,,,prac,None,None,1,1.502580099971965,184.71723640011624,None,None,1,,,,,,,,,,,,,,202,2023-03-27_15h34.31.799,Main,2022.1.1,59.88188901083835,
positive,blue,2,k,None,,,,,1,14,34,14,,,,,,,,,,,,,,,,,,,,,prac,k,k,1,0.9327487000264227,187.22037210012786,None,None,0,,,,,,,,,,,,,,202,2023-03-27_15h34.31.799,Main,2022.1.1,59.88188901083835,
positive,blue,1,k,None,,,,,1,15,35,15,,,,,,,,,,,,,,,,,,,,,prac,k,k,1,1.2461967999115586,189.15368119999766,None,None,0,,,,,,,,,,,,,,202,2023-03-27_15h34.31.799,Main,2022.1.1,59.88188901083835,
negative,blue,1,None,k,,,,,1,16,36,16,,,,,,,,,,,,,,,,,,,,,prac,None,None,1,1.498411700129509,191.4008023000788,None,None,1,,,,,,,,,,,,,,202,2023-03-27_15h34.31.799,Main,2022.1.1,59.88188901083835,
positive,blue,2,k,None,,,,,1,17,37,17,,,,,,,,,,,,,,,,,,,,,prac,k,k,1,2.9497970000375062,193.90037779998966,None,None,0,,,,,,,,,,,,,,202,2023-03-27_15h34.31.799,Main,2022.1.1,59.88188901083835,
positive,blue,1,k,None,,,,,1,18,38,18,,,,,,,,,,,,,,,,,,,,,prac,k,k,1,0.8348526998888701,198.85353550012223,None,None,0,,,,,,,,,,,,,,202,2023-03-27_15h34.31.799,Main,2022.1.1,59.88188901083835,
positive,yellow,1,None,k,,,,,1,19,39,19,,,,,,,,,,,,,,,,,,,,,prac,None,None,1,1.4957969998940825,200.6868483000435,None,None,1,,,,,,,,,,,,,,202,2023-03-27_15h34.31.799,Main,2022.1.1,59.88188901083835,
,,,,,,,,,,,,,,,,,,,,,,,,,,,,,,,,,,,,,,,,,,203.1837891000323,None,203.1837891000323,None,0.05,-0.36944443,0,0,0,0.014130059629678726,None,,,202,2023-03-27_15h34.31.799,Main,2022.1.1,59.88188901083835,
negative,yellow,2,k,None,,,,,,,,,0,0,0,0,,,,,,,,,,,,,205.63669690000825,None,205.63669690000825,None,main,k,k,1,1.5195209998637438,207.65720000001602,None,None,0,,,,,,,,,,,,,,202,2023-03-27_15h34.31.799,Main,2022.1.1,59.88188901083835,
positive,red,1,None,None,,,,,,,,,0,1,1,1,,,,,,,,,,,,,,,,,main,None,None,1,1.4979203999973834,211.1836872000713,None,None,1,,,,,,,,,,,,,,202,2023-03-27_15h34.31.799,Main,2022.1.1,59.88188901083835,
positive,blue,2,k,None,,,,,,,,,0,2,2,2,,,,,,,,,,,,,,,,,main,k,k,1,1.0189980999566615,213.68337159999646,None,None,0,,,,,,,,,,,,,,202,2023-03-27_15h34.31.799,Main,2022.1.1,59.88188901083835,
positive,blue,1,k,None,,,,,,,,,0,3,3,3,,,,,,,,,,,,,,,,,main,k,k,1,0.7795522001106292,215.7032713999506,None,None,0,,,,,,,,,,,,,,202,2023-03-27_15h34.31.799,Main,2022.1.1,59.88188901083835,
negative,yellow,2,k,None,,,,,,,,,0,4,4,4,,,,,,,,,,,,,,,,,main,k,k,1,0.8521541999652982,217.48643669998273,None,None,0,,,,,,,,,,,,,,202,2023-03-27_15h34.31.799,Main,2022.1.1,59.88188901083835,
positive,yellow,2,None,k,,,,,,,,,0,5,5,5,,,,,,,,,,,,,,,,,main,None,None,1,1.4959912998601794,219.33641549991444,None,None,1,,,,,,,,,,,,,,202,2023-03-27_15h34.31.799,Main,2022.1.1,59.88188901083835,
negative,blue,2,None,k,,,,,,,,,0,6,6,6,,,,,,,,,,,,,,,,,main,None,None,1,1.4991315000224859,221.8334033000283,None,None,1,,,,,,,,,,,,,,202,2023-03-27_15h34.31.799,Main,2022.1.1,59.88188901083835,
positive,red,2,None,None,,,,,,,,,0,7,7,7,,,,,,,,,,,,,,,,,main,None,None,1,1.5021203001961112,224.33336689998396,None,None,1,,,,,,,,,,,,,,202,2023-03-27_15h34.31.799,Main,2022.1.1,59.88188901083835,
positive,yellow,1,None,k,,,,,,,,,0,8,8,8,,,,,,,,,,,,,,,,,main,None,None,1,1.4989556998480111,226.83337459992617,None,None,1,,,,,,,,,,,,,,202,2023-03-27_15h34.31.799,Main,2022.1.1,59.88188901083835,
negative,red,1,None,None,,,,,,,,,0,9,9,9,,,,,,,,,,,,,,,,,main,None,None,1,1.499374299775809,229.333304699976,None,None,1,,,,,,,,,,,,,,202,2023-03-27_15h34.31.799,Main,2022.1.1,59.88188901083835,
positive,yellow,1,None,k,,,,,,,,,0,10,10,10,,,,,,,,,,,,,,,,,main,None,None,1,1.4957189001142979,231.8332567999605,None,None,1,,,,,,,,,,,,,,202,2023-03-27_15h34.31.799,Main,2022.1.1,59.88188901083835,
negative,yellow,1,k,None,,,,,,,,,0,11,11,11,,,,,,,,,,,,,,,,,main,k,k,1,1.0298405999783427,234.33294379990548,None,None,0,,,,,,,,,,,,,,202,2023-03-27_15h34.31.799,Main,2022.1.1,59.88188901083835,
negative,yellow,1,k,None,,,,,,,,,0,12,12,12,,,,,,,,,,,,,,,,,main,k,k,1,0.8357443998102099,236.3565090999473,None,None,0,,,,,,,,,,,,,,202,2023-03-27_15h34.31.799,Main,2022.1.1,59.88188901083835,
negative,red,2,None,None,,,,,,,,,0,13,13,13,,,,,,,,,,,,,,,,,main,None,None,1,1.5016282999422401,238.20274819992483,None,None,1,,,,,,,,,,,,,,202,2023-03-27_15h34.31.799,Main,2022.1.1,59.88188901083835,
positive,yellow,2,None,k,,,,,,,,,0,14,14,14,,,,,,,,,,,,,,,,,main,None,None,1,1.4963750001043081,240.69976689992473,None,None,1,,,,,,,,,,,,,,202,2023-03-27_15h34.31.799,Main,2022.1.1,59.88188901083835,
positive,blue,1,k,None,,,,,,,,,0,15,15,15,,,,,,,,,,,,,,,,,main,k,k,1,1.0660897998604923,243.19964300002903,None,None,0,,,,,,,,,,,,,,202,2023-03-27_15h34.31.799,Main,2022.1.1,59.88188901083835,
negative,blue,1,None,k,,,,,,,,,0,16,16,16,,,,,,,,,,,,,,,,,main,None,k,0,0.9826611999887973,245.26629530009814,None,None,1,,,,,,,,,,,,,,202,2023-03-27_15h34.31.799,Main,2022.1.1,59.88188901083835,
positive,blue,2,k,None,,,,,,,,,0,17,17,17,,,,,,,,,,,,,,,,,main,k,k,1,1.5681269001215696,248.2496500001289,None,None,0,,,,,,,,,,,,,,202,2023-03-27_15h34.31.799,Main,2022.1.1,59.88188901083835,
negative,blue,2,None,k,,,,,,,,,0,18,18,18,,,,,,,,,,,,,,,,,main,None,None,1,1.4979505999945104,251.81618510000408,None,None,1,,,,,,,,,,,,,,202,2023-03-27_15h34.31.799,Main,2022.1.1,59.88188901083835,
negative,blue,1,None,k,,,,,,,,,0,19,19,19,,,,,,,,,,,,,,,,,main,None,None,1,1.5020193001255393,254.31581770000048,None,None,1,,,,,,,,,,,,,,202,2023-03-27_15h34.31.799,Main,2022.1.1,59.88188901083835,
negative,blue,1,None,k,,,,,,,,,0,20,20,20,,,,,,,,,,,,,,,,,main,None,None,1,1.4990741999354213,256.8190381999593,None,None,1,,,,,,,,,,,,,,202,2023-03-27_15h34.31.799,Main,2022.1.1,59.88188901083835,
negative,blue,2,None,k,,,,,,,,,0,21,21,21,,,,,,,,,,,,,,,,,main,None,None,1,1.495955599937588,259.3161178000737,None,None,1,,,,,,,,,,,,,,202,2023-03-27_15h34.31.799,Main,2022.1.1,59.88188901083835,
negative,red,1,None,None,,,,,,,,,0,22,22,22,,,,,,,,,,,,,,,,,main,None,None,1,1.4993595001287758,261.81872610002756,None,None,1,,,,,,,,,,,,,,202,2023-03-27_15h34.31.799,Main,2022.1.1,59.88188901083835,
positive,red,2,None,None,,,,,,,,,0,23,23,23,,,,,,,,,,,,,,,,,main,None,None,1,1.5017367000691593,264.3159173000604,None,None,1,,,,,,,,,,,,,,202,2023-03-27_15h34.31.799,Main,2022.1.1,59.88188901083835,
negative,red,2,None,None,,,,,,,,,0,24,24,24,,,,,,,,,,,,,,,,,main,None,None,1,1.4991623999085277,266.8158668000251,None,None,1,,,,,,,,,,,,,,202,2023-03-27_15h34.31.799,Main,2022.1.1,59.88188901083835,
positive,blue,2,k,None,,,,,,,,,0,25,25,25,,,,,,,,,,,,,,,,,main,k,k,1,2.379674500087276,269.315789999906,None,None,0,,,,,,,,,,,,,,202,2023-03-27_15h34.31.799,Main,2022.1.1,59.88188901083835,
negative,yellow,1,k,None,,,,,,,,,0,26,26,26,,,,,,,,,,,,,,,,,main,k,k,1,0.9709658999927342,273.69880910008214,None,None,0,,,,,,,,,,,,,,202,2023-03-27_15h34.31.799,Main,2022.1.1,59.88188901083835,
positive,blue,2,k,None,,,,,,,,,0,27,27,27,,,,,,,,,,,,,,,,,main,k,k,1,0.84903319994919,275.668581899954,None,None,0,,,,,,,,,,,,,,202,2023-03-27_15h34.31.799,Main,2022.1.1,59.88188901083835,
negative,blue,2,None,k,,,,,,,,,0,28,28,28,,,,,,,,,,,,,,,,,main,None,None,1,1.4988327999599278,277.51571619999595,None,None,1,,,,,,,,,,,,,,202,2023-03-27_15h34.31.799,Main,2022.1.1,59.88188901083835,
positive,red,1,None,None,,,,,,,,,0,29,29,29,,,,,,,,,,,,,,,,,main,None,None,1,1.495930900098756,280.01853220001794,None,None,1,,,,,,,,,,,,,,202,2023-03-27_15h34.31.799,Main,2022.1.1,59.88188901083835,
positive,blue,1,k,None,,,,,,,,,0,30,30,30,,,,,,,,,,,,,,,,,main,k,k,1,1.9694767999462783,282.5151873999275,None,None,0,,,,,,,,,,,,,,202,2023-03-27_15h34.31.799,Main,2022.1.1,59.88188901083835,
positive,yellow,1,None,k,,,,,,,,,0,31,31,31,,,,,,,,,,,,,,,,,main,None,None,1,1.5010856001172215,286.48498519998975,None,None,1,,,,,,,,,,,,,,202,2023-03-27_15h34.31.799,Main,2022.1.1,59.88188901083835,
negative,yellow,2,k,None,,,,,,,,,0,32,32,32,,,,,,,,,,,,,,,,,main,k,k,1,0.7962503000162542,288.9822283999529,None,None,0,,,,,,,,,,,,,,202,2023-03-27_15h34.31.799,Main,2022.1.1,59.88188901083835,
negative,blue,1,None,k,,,,,,,,,0,33,33,33,,,,,,,,,,,,,,,,,main,None,None,1,1.4991106998641044,290.78197839995846,None,None,1,,,,,,,,,,,,,,202,2023-03-27_15h34.31.799,Main,2022.1.1,59.88188901083835,
positive,blue,1,k,None,,,,,,,,,0,34,34,34,,,,,,,,,,,,,,,,,main,k,k,1,1.1992038001772016,293.28482079994865,None,None,0,,,,,,,,,,,,,,202,2023-03-27_15h34.31.799,Main,2022.1.1,59.88188901083835,
negative,yellow,1,k,None,,,,,,,,,0,35,35,35,,,,,,,,,,,,,,,,,main,k,k,1,0.9852645001374185,295.48475810000673,None,None,0,,,,,,,,,,,,,,202,2023-03-27_15h34.31.799,Main,2022.1.1,59.88188901083835,
positive,yellow,2,None,k,,,,,,,,,0,36,36,36,,,,,,,,,,,,,,,,,main,None,None,1,1.4956857000943273,297.4652253999375,None,None,1,,,,,,,,,,,,,,202,2023-03-27_15h34.31.799,Main,2022.1.1,59.88188901083835,
positive,yellow,2,None,k,,,,,,,,,0,37,37,37,,,,,,,,,,,,,,,,,main,None,None,1,1.5024633000139147,299.9648559000343,None,None,1,,,,,,,,,,,,,,202,2023-03-27_15h34.31.799,Main,2022.1.1,59.88188901083835,
negative,yellow,2,k,None,,,,,,,,,0,38,38,38,,,,,,,,,,,,,,,,,main,k,k,1,1.5633390999864787,302.46804219996557,None,None,0,,,,,,,,,,,,,,202,2023-03-27_15h34.31.799,Main,2022.1.1,59.88188901083835,
positive,yellow,1,None,k,,,,,,,,,0,39,39,39,,,,,,,,,,,,,,,,,main,None,None,1,1.4984995999839157,306.03462940012105,None,None,1,,,,,,,,,,,,,,202,2023-03-27_15h34.31.799,Main,2022.1.1,59.88188901083835,
negative,yellow,2,k,None,,,,,,,,,0,40,40,40,,,,,,,,,,,,,,,,,main,k,k,1,0.9153134000953287,308.5386322999839,None,None,0,,,,,,,,,,,,,,202,2023-03-27_15h34.31.799,Main,2022.1.1,59.88188901083835,
positive,blue,2,k,None,,,,,,,,,0,41,41,41,,,,,,,,,,,,,,,,,main,k,k,1,0.9826192001346499,310.4481309999246,None,None,0,,,,,,,,,,,,,,202,2023-03-27_15h34.31.799,Main,2022.1.1,59.88188901083835,
positive,blue,2,k,None,,,,,,,,,0,42,42,42,,,,,,,,,,,,,,,,,main,k,k,1,0.7035570000298321,312.4315734000411,None,None,0,,,,,,,,,,,,,,202,2023-03-27_15h34.31.799,Main,2022.1.1,59.88188901083835,
negative,blue,2,None,k,,,,,,,,,0,43,43,43,,,,,,,,,,,,,,,,,main,None,None,1,1.4957594000734389,314.134486499941,None,None,1,,,,,,,,,,,,,,202,2023-03-27_15h34.31.799,Main,2022.1.1,59.88188901083835,
negative,red,1,None,None,,,,,,,,,0,44,44,44,,,,,,,,,,,,,,,,,main,None,None,1,1.4989779000170529,316.6315593000036,None,None,1,,,,,,,,,,,,,,202,2023-03-27_15h34.31.799,Main,2022.1.1,59.88188901083835,
negative,yellow,1,k,None,,,,,,,,,0,45,45,45,,,,,,,,,,,,,,,,,main,k,k,1,0.9655161998234689,319.1319003999233,None,None,0,,,,,,,,,,,,,,202,2023-03-27_15h34.31.799,Main,2022.1.1,59.88188901083835,
negative,yellow,1,k,None,,,,,,,,,0,46,46,46,,,,,,,,,,,,,,,,,main,k,k,1,0.6488532999064773,321.10092180012725,None,None,0,,,,,,,,,,,,,,202,2023-03-27_15h34.31.799,Main,2022.1.1,59.88188901083835,
positive,red,1,None,None,,,,,,,,,0,47,47,47,,,,,,,,,,,,,,,,,main,None,None,1,1.5016729000490159,322.74799910001457,None,None,1,,,,,,,,,,,,,,202,2023-03-27_15h34.31.799,Main,2022.1.1,59.88188901083835,
positive,yellow,1,None,k,,,,,,,,,0,48,48,48,,,,,,,,,,,,,,,,,main,None,None,1,1.4967700999695808,325.2508350000717,None,None,1,,,,,,,,,,,,,,202,2023-03-27_15h34.31.799,Main,2022.1.1,59.88188901083835,
negative,blue,1,None,k,,,,,,,,,0,49,49,49,,,,,,,,,,,,,,,,,main,None,None,1,1.4982743000146002,327.74809850007296,None,None,1,,,,,,,,,,,,,,202,2023-03-27_15h34.31.799,Main,2022.1.1,59.88188901083835,
positive,yellow,2,None,k,,,,,,,,,0,50,50,50,,,,,,,,,,,,,,,,,main,None,None,1,1.5023413999006152,330.2475703000091,None,None,1,,,,,,,,,,,,,,202,2023-03-27_15h34.31.799,Main,2022.1.1,59.88188901083835,
negative,blue,1,None,k,,,,,,,,,0,51,51,51,,,,,,,,,,,,,,,,,main,None,None,1,1.499353599967435,332.7507545000408,None,None,1,,,,,,,,,,,,,,202,2023-03-27_15h34.31.799,Main,2022.1.1,59.88188901083835,
positive,red,2,None,None,,,,,,,,,0,52,52,52,,,,,,,,,,,,,,,,,main,None,None,1,1.4988823998719454,335.25086300005205,None,None,1,,,,,,,,,,,,,,202,2023-03-27_15h34.31.799,Main,2022.1.1,59.88188901083835,
positive,yellow,2,None,k,,,,,,,,,0,53,53,53,,,,,,,,,,,,,,,,,main,None,None,1,1.496226199902594,337.7506959999446,None,None,1,,,,,,,,,,,,,,202,2023-03-27_15h34.31.799,Main,2022.1.1,59.88188901083835,
negative,red,2,None,None,,,,,,,,,0,54,54,54,,,,,,,,,,,,,,,,,main,None,None,1,1.5022462999913841,340.2475342999678,None,None,1,,,,,,,,,,,,,,202,2023-03-27_15h34.31.799,Main,2022.1.1,59.88188901083835,
positive,yellow,1,None,k,,,,,,,,,0,55,55,55,,,,,,,,,,,,,,,,,main,None,None,1,1.4992834001313895,342.74769410002045,None,None,1,,,,,,,,,,,,,,202,2023-03-27_15h34.31.799,Main,2022.1.1,59.88188901083835,
negative,blue,2,None,k,,,,,,,,,0,56,56,56,,,,,,,,,,,,,,,,,main,None,None,1,1.4990363998804241,345.2505729999393,None,None,1,,,,,,,,,,,,,,202,2023-03-27_15h34.31.799,Main,2022.1.1,59.88188901083835,
positive,blue,1,k,None,,,,,,,,,0,57,57,57,,,,,,,,,,,,,,,,,main,k,k,1,0.863058099988848,347.75049040000886,None,None,0,,,,,,,,,,,,,,202,2023-03-27_15h34.31.799,Main,2022.1.1,59.88188901083835,
positive,blue,1,k,None,,,,,,,,,0,58,58,58,,,,,,,,,,,,,,,,,main,k,k,1,0.8157105001155287,349.6170145000797,None,None,0,,,,,,,,,,,,,,202,2023-03-27_15h34.31.799,Main,2022.1.1,59.88188901083835,
negative,yellow,2,k,None,,,,,,,,,0,59,59,59,,,,,,,,,,,,,,,,,main,k,k,1,0.8019880999345332,351.43074380001053,None,None,0,,,,,,,,,,,,,,202,2023-03-27_15h34.31.799,Main,2022.1.1,59.88188901083835,
positive,red,2,None,None,,,,,,,,,0,60,60,60,,,,,,,,,,,,,,,,,main,None,None,1,1.4989496001508087,353.23073099995963,None,None,1,,,,,,,,,,,,,,202,2023-03-27_15h34.31.799,Main,2022.1.1,59.88188901083835,
negative,yellow,1,k,None,,,,,,,,,0,61,61,61,,,,,,,,,,,,,,,,,main,k,k,1,1.063202500110492,355.73353679990396,None,None,0,,,,,,,,,,,,,,202,2023-03-27_15h34.31.799,Main,2022.1.1,59.88188901083835,
negative,red,1,None,None,,,,,,,,,0,62,62,62,,,,,,,,,,,,,,,,,main,None,None,1,1.4978578998707235,357.79731940012425,None,None,1,,,,,,,,,,,,,,202,2023-03-27_15h34.31.799,Main,2022.1.1,59.88188901083835,
negative,blue,1,None,k,,,,,,,,,0,63,63,63,,,,,,,,,,,,,,,,,main,None,None,1,1.501420099986717,360.2971069999039,None,None,1,,,,,,,,,,,,,,202,2023-03-27_15h34.31.799,Main,2022.1.1,59.88188901083835,
positive,blue,2,k,None,,,,,,,,,0,64,64,64,,,,,,,,,,,,,,,,,main,k,k,1,1.4461352000944316,362.79729010001756,None,None,0,,,,,,,,,,,,,,202,2023-03-27_15h34.31.799,Main,2022.1.1,59.88188901083835,
negative,yellow,2,k,None,,,,,,,,,0,65,65,65,,,,,,,,,,,,,,,,,main,k,k,1,1.1183241000398993,365.24723169999197,None,None,0,,,,,,,,,,,,,,202,2023-03-27_15h34.31.799,Main,2022.1.1,59.88188901083835,
positive,yellow,2,None,k,,,,,,,,,0,66,66,66,,,,,,,,,,,,,,,,,main,None,None,1,1.4957771000918,367.36673750006594,None,None,1,,,,,,,,,,,,,,202,2023-03-27_15h34.31.799,Main,2022.1.1,59.88188901083835,
positive,yellow,2,None,k,,,,,,,,,0,67,67,67,,,,,,,,,,,,,,,,,main,None,None,1,1.5023841999936849,369.86347260000184,None,None,1,,,,,,,,,,,,,,202,2023-03-27_15h34.31.799,Main,2022.1.1,59.88188901083835,
positive,red,1,None,None,,,,,,,,,0,68,68,68,,,,,,,,,,,,,,,,,main,None,None,1,1.4990903998259455,372.36656120000407,None,None,1,,,,,,,,,,,,,,202,2023-03-27_15h34.31.799,Main,2022.1.1,59.88188901083835,
positive,yellow,1,None,k,,,,,,,,,0,69,69,69,,,,,,,,,,,,,,,,,main,None,None,1,1.495648399926722,374.8665171000175,None,None,1,,,,,,,,,,,,,,202,2023-03-27_15h34.31.799,Main,2022.1.1,59.88188901083835,
negative,yellow,2,k,None,,,,,,,,,0,70,70,70,,,,,,,,,,,,,,,,,main,k,k,1,1.2029529998544604,377.36325860000215,None,None,0,,,,,,,,,,,,,,202,2023-03-27_15h34.31.799,Main,2022.1.1,59.88188901083835,
positive,yellow,1,None,k,,,,,,,,,0,71,71,71,,,,,,,,,,,,,,,,,main,None,None,1,1.4988345999736339,379.56642140005715,None,None,1,,,,,,,,,,,,,,202,2023-03-27_15h34.31.799,Main,2022.1.1,59.88188901083835,
negative,blue,1,None,k,,,,,,,,,0,72,72,72,,,,,,,,,,,,,,,,,main,None,None,1,1.4989881999790668,382.06642129994,None,None,1,,,,,,,,,,,,,,202,2023-03-27_15h34.31.799,Main,2022.1.1,59.88188901083835,
negative,red,2,None,None,,,,,,,,,0,73,73,73,,,,,,,,,,,,,,,,,main,None,None,1,1.4958926001563668,384.5663111000322,None,None,1,,,,,,,,,,,,,,202,2023-03-27_15h34.31.799,Main,2022.1.1,59.88188901083835,
positive,blue,2,k,None,,,,,,,,,0,74,74,74,,,,,,,,,,,,,,,,,main,k,k,1,3.9027456000912935,387.0630544000305,None,None,0,,,,,,,,,,,,,,202,2023-03-27_15h34.31.799,Main,2022.1.1,59.88188901083835,
negative,blue,2,None,k,,,,,,,,,0,75,75,75,,,,,,,,,,,,,,,,,main,None,None,1,1.498106700135395,392.9633744000457,None,None,1,,,,,,,,,,,,,,202,2023-03-27_15h34.31.799,Main,2022.1.1,59.88188901083835,
negative,blue,2,None,k,,,,,,,,,0,76,76,76,,,,,,,,,,,,,,,,,main,None,None,1,1.5018482999876142,395.4631328000687,None,None,1,,,,,,,,,,,,,,202,2023-03-27_15h34.31.799,Main,2022.1.1,59.88188901083835,
negative,yellow,1,k,None,,,,,,,,,0,77,77,77,,,,,,,,,,,,,,,,,main,k,k,1,1.7494564999360591,397.96315210009925,None,None,0,,,,,,,,,,,,,,202,2023-03-27_15h34.31.799,Main,2022.1.1,59.88188901083835,
positive,blue,1,k,None,,,,,,,,,0,78,78,78,,,,,,,,,,,,,,,,,main,k,k,1,1.0488475000020117,401.71308559994213,None,None,0,,,,,,,,,,,,,,202,2023-03-27_15h34.31.799,Main,2022.1.1,59.88188901083835,
positive,blue,1,k,None,,,,,,,,,0,79,79,79,,,,,,,,,,,,,,,,,main,k,k,1,0.6891666001174599,403.7630282000173,None,None,0,,,,,,,,,,,,,,202,2023-03-27_15h34.31.799,Main,2022.1.1,59.88188901083835,
positive,red,2,None,None,,,,,,,,,0,80,80,80,,,,,,,,,,,,,,,,,main,None,None,1,1.4913453999906778,405.4587580000516,None,None,1,,,,,,,,,,,,,,202,2023-03-27_15h34.31.799,Main,2022.1.1,59.88188901083835,
positive,yellow,2,None,k,,,,,,,,,0,81,81,81,,,,,,,,,,,,,,,,,main,None,None,1,1.5024111999664456,407.9460072000511,None,None,1,,,,,,,,,,,,,,202,2023-03-27_15h34.31.799,Main,2022.1.1,59.88188901083835,
positive,blue,1,k,None,,,,,,,,,0,82,82,82,,,,,,,,,,,,,,,,,main,k,k,1,2.746359500102699,410.4490982000716,None,None,0,,,,,,,,,,,,,,202,2023-03-27_15h34.31.799,Main,2022.1.1,59.88188901083835,
negative,yellow,2,k,None,,,,,,,,,0,83,83,83,,,,,,,,,,,,,,,,,main,k,k,1,1.033870399929583,415.2124705000315,None,None,0,,,,,,,,,,,,,,202,2023-03-27_15h34.31.799,Main,2022.1.1,59.88188901083835,
positive,blue,2,k,None,,,,,,,,,0,84,84,84,,,,,,,,,,,,,,,,,main,k,k,1,1.635214600013569,417.2460338999517,None,None,0,,,,,,,,,,,,,,202,2023-03-27_15h34.31.799,Main,2022.1.1,59.88188901083835,
positive,yellow,1,None,k,,,,,,,,,0,85,85,85,,,,,,,,,,,,,,,,,main,None,None,1,1.501099499873817,420.88239430007525,None,None,1,,,,,,,,,,,,,,202,2023-03-27_15h34.31.799,Main,2022.1.1,59.88188901083835,
positive,blue,2,k,None,,,,,,,,,0,86,86,86,,,,,,,,,,,,,,,,,main,k,k,1,0.8959949999116361,423.3822314001154,None,None,0,,,,,,,,,,,,,,202,2023-03-27_15h34.31.799,Main,2022.1.1,59.88188901083835,
positive,blue,1,k,None,,,,,,,,,0,87,87,87,,,,,,,,,,,,,,,,,main,k,k,1,3.6353391997981817,425.2820975999348,None,None,0,,,,,,,,,,,,,,202,2023-03-27_15h34.31.799,Main,2022.1.1,59.88188901083835,
negative,yellow,2,k,None,,,,,,,,,0,88,88,88,,,,,,,,,,,,,,,,,main,k,k,1,1.0986822999548167,430.91253260010853,None,None,0,,,,,,,,,,,,,,202,2023-03-27_15h34.31.799,Main,2022.1.1,59.88188901083835,
negative,blue,2,None,k,,,,,,,,,0,89,89,89,,,,,,,,,,,,,,,,,main,None,None,1,1.4985694999340922,433.01242260006256,None,None,1,,,,,,,,,,,,,,202,2023-03-27_15h34.31.799,Main,2022.1.1,59.88188901083835,
positive,yellow,2,None,k,,,,,,,,,0,90,90,90,,,,,,,,,,,,,,,,,main,None,None,1,1.5023503999691457,435.512059800094,None,None,1,,,,,,,,,,,,,,202,2023-03-27_15h34.31.799,Main,2022.1.1,59.88188901083835,
negative,yellow,1,k,None,,,,,,,,,0,91,91,91,,,,,,,,,,,,,,,,,main,k,k,1,0.832523399963975,438.0153230999131,None,None,0,,,,,,,,,,,,,,202,2023-03-27_15h34.31.799,Main,2022.1.1,59.88188901083835,
negative,red,2,None,None,,,,,,,,,0,92,92,92,,,,,,,,,,,,,,,,,main,None,k,0,0.8157058998476714,439.84849749994464,None,None,1,,,,,,,,,,,,,,202,2023-03-27_15h34.31.799,Main,2022.1.1,59.88188901083835,
negative,blue,2,None,k,,,,,,,,,0,93,93,93,,,,,,,,,,,,,,,,,main,None,None,1,1.4941830998286605,442.6820574000012,None,None,1,,,,,,,,,,,,,,202,2023-03-27_15h34.31.799,Main,2022.1.1,59.88188901083835,
negative,blue,1,None,k,,,,,,,,,0,94,94,94,,,,,,,,,,,,,,,,,main,None,None,1,1.5018437001854181,445.1787714001257,None,None,1,,,,,,,,,,,,,,202,2023-03-27_15h34.31.799,Main,2022.1.1,59.88188901083835,
negative,blue,1,None,k,,,,,,,,,0,95,95,95,,,,,,,,,,,,,,,,,main,None,None,1,1.4991005000192672,447.68178019998595,None,None,1,,,,,,,,,,,,,,202,2023-03-27_15h34.31.799,Main,2022.1.1,59.88188901083835,
negative,red,1,None,None,,,,,,,,,0,96,96,96,,,,,,,,,,,,,,,,,main,None,None,1,1.4962343000806868,450.1816658000462,None,None,1,,,,,,,,,,,,,,202,2023-03-27_15h34.31.799,Main,2022.1.1,59.88188901083835,
positive,yellow,1,None,k,,,,,,,,,0,97,97,97,,,,,,,,,,,,,,,,,main,None,None,1,1.5021299000363797,452.6788630001247,None,None,1,,,,,,,,,,,,,,202,2023-03-27_15h34.31.799,Main,2022.1.1,59.88188901083835,
negative,yellow,1,k,None,,,,,,,,,0,98,98,98,,,,,,,,,,,,,,,,,main,k,k,1,1.8631110000424087,455.178603899898,None,None,0,,,,,,,,,,,,,,202,2023-03-27_15h34.31.799,Main,2022.1.1,59.88188901083835,
positive,red,1,None,None,,,,,,,,,0,99,99,99,,,,,,,,,,,,,,,,,main,None,None,1,1.5012111000251025,459.04820959991775,None,None,1,,,,,,,,,,,,,,202,2023-03-27_15h34.31.799,Main,2022.1.1,59.88188901083835,
positive,blue,1,k,None,,,,,,,,,0,100,100,100,,,,,,,,,,,,,,,,,main,k,k,1,1.0462404999416322,461.54517560009845,None,None,0,,,,,,,,,,,,,,202,2023-03-27_15h34.31.799,Main,2022.1.1,59.88188901083835,
negative,yellow,1,k,None,,,,,,,,,0,101,101,101,,,,,,,,,,,,,,,,,main,k,k,1,0.8188578998669982,463.5949655000586,None,None,0,,,,,,,,,,,,,,202,2023-03-27_15h34.31.799,Main,2022.1.1,59.88188901083835,
negative,blue,2,None,k,,,,,,,,,0,102,102,102,,,,,,,,,,,,,,,,,main,None,None,1,1.4988281999249011,465.41189970006235,None,None,1,,,,,,,,,,,,,,202,2023-03-27_15h34.31.799,Main,2022.1.1,59.88188901083835,
negative,yellow,2,k,None,,,,,,,,,0,103,103,103,,,,,,,,,,,,,,,,,main,k,k,1,1.2133003000635654,467.9146012000274,None,None,0,,,,,,,,,,,,,,202,2023-03-27_15h34.31.799,Main,2022.1.1,59.88188901083835,
positive,yellow,2,None,k,,,,,,,,,0,104,104,104,,,,,,,,,,,,,,,,,main,None,None,1,1.5016447000671178,470.1313646999188,None,None,1,,,,,,,,,,,,,,202,2023-03-27_15h34.31.799,Main,2022.1.1,59.88188901083835,
positive,blue,1,k,None,,,,,,,,,0,105,105,105,,,,,,,,,,,,,,,,,main,k,k,1,0.9799940001685172,472.628221699968,None,None,0,,,,,,,,,,,,,,202,2023-03-27_15h34.31.799,Main,2022.1.1,59.88188901083835,
positive,blue,2,k,None,,,,,,,,,0,106,106,106,,,,,,,,,,,,,,,,,main,k,k,1,0.715800599893555,474.61153290001675,None,None,0,,,,,,,,,,,,,,202,2023-03-27_15h34.31.799,Main,2022.1.1,59.88188901083835,
negative,blue,1,None,k,,,,,,,,,0,107,107,107,,,,,,,,,,,,,,,,,main,None,None,1,1.5017450000159442,476.328183399979,None,None,1,,,,,,,,,,,,,,202,2023-03-27_15h34.31.799,Main,2022.1.1,59.88188901083835,
positive,yellow,2,None,k,,,,,,,,,0,108,108,108,,,,,,,,,,,,,,,,,main,None,None,1,1.496195500018075,478.8281459000427,None,None,1,,,,,,,,,,,,,,202,2023-03-27_15h34.31.799,Main,2022.1.1,59.88188901083835,
negative,yellow,1,k,None,,,,,,,,,0,109,109,109,,,,,,,,,,,,,,,,,main,k,k,1,1.9326194999739528,481.3277835000772,None,None,0,,,,,,,,,,,,,,202,2023-03-27_15h34.31.799,Main,2022.1.1,59.88188901083835,
negative,blue,2,None,k,,,,,,,,,0,110,110,110,,,,,,,,,,,,,,,,,main,None,None,1,1.5011305001098663,485.2643035000656,None,None,1,,,,,,,,,,,,,,202,2023-03-27_15h34.31.799,Main,2022.1.1,59.88188901083835,
positive,blue,2,k,None,,,,,,,,,0,111,111,111,,,,,,,,,,,,,,,,,main,k,k,1,1.4128731000237167,487.76140510011464,None,None,0,,,,,,,,,,,,,,202,2023-03-27_15h34.31.799,Main,2022.1.1,59.88188901083835,
negative,blue,1,None,k,,,,,,,,,0,112,112,112,,,,,,,,,,,,,,,,,main,None,None,1,1.4985246998257935,490.18079470004886,None,None,1,,,,,,,,,,,,,,202,2023-03-27_15h34.31.799,Main,2022.1.1,59.88188901083835,
positive,yellow,1,None,k,,,,,,,,,0,113,113,113,,,,,,,,,,,,,,,,,main,None,None,1,1.50244259997271,492.6777143999934,None,None,1,,,,,,,,,,,,,,202,2023-03-27_15h34.31.799,Main,2022.1.1,59.88188901083835,
negative,red,1,None,None,,,,,,,,,0,114,114,114,,,,,,,,,,,,,,,,,main,None,None,1,1.4991586999967694,495.180714600021,None,None,1,,,,,,,,,,,,,,202,2023-03-27_15h34.31.799,Main,2022.1.1,59.88188901083835,
positive,red,1,None,None,,,,,,,,,0,115,115,115,,,,,,,,,,,,,,,,,main,None,None,1,1.496011900017038,497.6807138000149,None,None,1,,,,,,,,,,,,,,202,2023-03-27_15h34.31.799,Main,2022.1.1,59.88188901083835,
negative,red,2,None,None,,,,,,,,,0,116,116,116,,,,,,,,,,,,,,,,,main,None,None,1,1.4991136000026017,500.1775750000961,None,None,1,,,,,,,,,,,,,,202,2023-03-27_15h34.31.799,Main,2022.1.1,59.88188901083835,
negative,yellow,2,k,None,,,,,,,,,0,117,117,117,,,,,,,,,,,,,,,,,main,k,k,1,2.0830308001022786,502.6773958001286,None,None,0,,,,,,,,,,,,,,202,2023-03-27_15h34.31.799,Main,2022.1.1,59.88188901083835,
positive,yellow,1,None,k,,,,,,,,,0,118,118,118,,,,,,,,,,,,,,,,,main,None,None,1,1.4976236000657082,506.76376780006103,None,None,1,,,,,,,,,,,,,,202,2023-03-27_15h34.31.799,Main,2022.1.1,59.88188901083835,
positive,red,2,None,None,,,,,,,,,0,119,119,119,,,,,,,,,,,,,,,,,main,None,None,1,1.5022291999775916,509.260541500058,None,None,1,,,,,,,,,,,,,,202,2023-03-27_15h34.31.799,Main,2022.1.1,59.88188901083835,
positive,blue,2,k,None,,,,,,,,,0,120,120,120,,,,,,,,,,,,,,,,,main,k,k,1,0.8801176000852138,511.7608964999672,None,None,0,,,,,,,,,,,,,,202,2023-03-27_15h34.31.799,Main,2022.1.1,59.88188901083835,
negative,red,1,None,None,,,,,,,,,0,121,121,121,,,,,,,,,,,,,,,,,main,None,None,1,1.5021422000136226,513.6441784999333,None,None,1,,,,,,,,,,,,,,202,2023-03-27_15h34.31.799,Main,2022.1.1,59.88188901083835,
positive,yellow,2,None,k,,,,,,,,,0,122,122,122,,,,,,,,,,,,,,,,,main,None,None,1,1.4947844999842346,516.1469755000435,None,None,1,,,,,,,,,,,,,,202,2023-03-27_15h34.31.799,Main,2022.1.1,59.88188901083835,
negative,red,2,None,None,,,,,,,,,0,123,123,123,,,,,,,,,,,,,,,,,main,None,None,1,1.5020312999840826,518.6436554000247,None,None,1,,,,,,,,,,,,,,202,2023-03-27_15h34.31.799,Main,2022.1.1,59.88188901083835,
negative,yellow,2,k,None,,,,,,,,,0,124,124,124,,,,,,,,,,,,,,,,,main,k,k,1,1.2134697001893073,521.1469026000705,None,None,0,,,,,,,,,,,,,,202,2023-03-27_15h34.31.799,Main,2022.1.1,59.88188901083835,
positive,red,1,None,None,,,,,,,,,0,125,125,125,,,,,,,,,,,,,,,,,main,None,None,1,1.5017808000557125,523.3635247999337,None,None,1,,,,,,,,,,,,,,202,2023-03-27_15h34.31.799,Main,2022.1.1,59.88188901083835,
negative,blue,2,None,k,,,,,,,,,0,126,126,126,,,,,,,,,,,,,,,,,main,None,None,1,1.4958677000831813,525.8633797999937,None,None,1,,,,,,,,,,,,,,202,2023-03-27_15h34.31.799,Main,2022.1.1,59.88188901083835,
negative,blue,1,None,k,,,,,,,,,0,127,127,127,,,,,,,,,,,,,,,,,main,None,None,1,1.5022797000128776,528.3601377001032,None,None,1,,,,,,,,,,,,,,202,2023-03-27_15h34.31.799,Main,2022.1.1,59.88188901083835,
negative,yellow,1,k,None,,,,,,,,,0,128,128,128,,,,,,,,,,,,,,,,,main,k,k,1,0.9466682998463511,530.8633892999496,None,None,0,,,,,,,,,,,,,,202,2023-03-27_15h34.31.799,Main,2022.1.1,59.88188901083835,
negative,yellow,1,k,None,,,,,,,,,0,129,129,129,,,,,,,,,,,,,,,,,main,k,k,1,0.865838099969551,532.810434400104,None,None,0,,,,,,,,,,,,,,202,2023-03-27_15h34.31.799,Main,2022.1.1,59.88188901083835,
positive,blue,1,k,None,,,,,,,,,0,130,130,130,,,,,,,,,,,,,,,,,main,k,k,1,0.8990158000960946,534.6799117000774,None,None,0,,,,,,,,,,,,,,202,2023-03-27_15h34.31.799,Main,2022.1.1,59.88188901083835,
negative,blue,1,None,k,,,,,,,,,0,131,131,131,,,,,,,,,,,,,,,,,main,None,k,0,0.6825800999067724,536.5797625000123,None,None,1,,,,,,,,,,,,,,202,2023-03-27_15h34.31.799,Main,2022.1.1,59.88188901083835,
negative,blue,2,None,k,,,,,,,,,0,132,132,132,,,,,,,,,,,,,,,,,main,None,None,1,1.501203800085932,539.260369299911,None,None,1,,,,,,,,,,,,,,202,2023-03-27_15h34.31.799,Main,2022.1.1,59.88188901083835,
positive,blue,2,k,None,,,,,,,,,0,133,133,133,,,,,,,,,,,,,,,,,main,k,k,1,0.8459852999076247,541.7601417000405,None,None,0,,,,,,,,,,,,,,202,2023-03-27_15h34.31.799,Main,2022.1.1,59.88188901083835,
positive,red,2,None,None,,,,,,,,,0,134,134,134,,,,,,,,,,,,,,,,,main,None,None,1,1.5017854000907391,543.6101790000685,None,None,1,,,,,,,,,,,,,,202,2023-03-27_15h34.31.799,Main,2022.1.1,59.88188901083835,
negative,yellow,2,k,None,,,,,,,,,0,135,135,135,,,,,,,,,,,,,,,,,main,k,k,1,0.8561235000379384,546.110069300048,None,None,0,,,,,,,,,,,,,,202,2023-03-27_15h34.31.799,Main,2022.1.1,59.88188901083835,
positive,yellow,2,None,k,,,,,,,,,0,136,136,136,,,,,,,,,,,,,,,,,main,None,k,0,0.7221528999507427,547.9754574999679,None,None,1,,,,,,,,,,,,,,202,2023-03-27_15h34.31.799,Main,2022.1.1,59.88188901083835,
positive,blue,1,k,None,,,,,,,,,0,137,137,137,,,,,,,,,,,,,,,,,main,k,k,1,1.451695900177583,550.6934378000442,None,None,0,,,,,,,,,,,,,,202,2023-03-27_15h34.31.799,Main,2022.1.1,59.88188901083835,
positive,yellow,1,None,k,,,,,,,,,0,138,138,138,,,,,,,,,,,,,,,,,main,None,None,1,1.4982578000053763,553.1433679000475,None,None,1,,,,,,,,,,,,,,202,2023-03-27_15h34.31.799,Main,2022.1.1,59.88188901083835,
positive,yellow,1,None,k,,,,,,,,,0,139,139,139,,,,,,,,,,,,,,,,,main,None,None,1,1.4962274001445621,555.6433785001282,None,None,1,,,,,,,,,,,,,,202,2023-03-27_15h34.31.799,Main,2022.1.1,59.88188901083835,
positive,yellow,1,None,k,,,,,,,,,0,140,140,140,,,,,,,,,,,,,,,,,main,None,None,1,1.502062200102955,558.1428789999336,None,None,1,,,,,,,,,,,,,,202,2023-03-27_15h34.31.799,Main,2022.1.1,59.88188901083835,
positive,blue,1,k,None,,,,,,,,,0,141,141,141,,,,,,,,,,,,,,,,,main,k,k,1,2.146824800176546,560.6461287999991,None,None,0,,,,,,,,,,,,,,202,2023-03-27_15h34.31.799,Main,2022.1.1,59.88188901083835,
positive,blue,2,k,None,,,,,,,,,0,142,142,142,,,,,,,,,,,,,,,,,main,k,k,1,1.8347026000265032,564.7959863001015,None,None,0,,,,,,,,,,,,,,202,2023-03-27_15h34.31.799,Main,2022.1.1,59.88188901083835,
positive,yellow,2,None,k,,,,,,,,,0,143,143,143,,,,,,,,,,,,,,,,,main,None,None,1,1.5013483001384884,568.6262433000375,None,None,1,,,,,,,,,,,,,,202,2023-03-27_15h34.31.799,Main,2022.1.1,59.88188901083835,
negative,yellow,2,k,None,,,,,,,,,0,144,144,144,,,,,,,,,,,,,,,,,main,k,k,1,0.8293817997910082,571.1290661001112,None,None,0,,,,,,,,,,,,,,202,2023-03-27_15h34.31.799,Main,2022.1.1,59.88188901083835,
negative,blue,2,None,k,,,,,,,,,0,145,145,145,,,,,,,,,,,,,,,,,main,None,None,1,1.4990230998955667,572.9624050001148,None,None,1,,,,,,,,,,,,,,202,2023-03-27_15h34.31.799,Main,2022.1.1,59.88188901083835,
negative,red,1,None,None,,,,,,,,,0,146,146,146,,,,,,,,,,,,,,,,,main,None,None,1,1.498604099964723,575.4624195999932,None,None,1,,,,,,,,,,,,,,202,2023-03-27_15h34.31.799,Main,2022.1.1,59.88188901083835,
positive,blue,1,k,None,,,,,,,,,0,147,147,147,,,,,,,,,,,,,,,,,main,k,k,1,0.7663042000494897,577.9591197001282,None,None,0,,,,,,,,,,,,,,202,2023-03-27_15h34.31.799,Main,2022.1.1,59.88188901083835,
positive,yellow,1,None,k,,,,,,,,,0,148,148,148,,,,,,,,,,,,,,,,,main,None,None,1,1.502018100116402,579.7257978999987,None,None,1,,,,,,,,,,,,,,202,2023-03-27_15h34.31.799,Main,2022.1.1,59.88188901083835,
negative,red,2,None,None,,,,,,,,,0,149,149,149,,,,,,,,,,,,,,,,,main,None,None,1,1.4993503999430686,582.228977400111,None,None,1,,,,,,,,,,,,,,202,2023-03-27_15h34.31.799,Main,2022.1.1,59.88188901083835,
negative,blue,1,None,k,,,,,,,,,0,150,150,150,,,,,,,,,,,,,,,,,main,None,None,1,1.4989952999167144,584.7288599000312,None,None,1,,,,,,,,,,,,,,202,2023-03-27_15h34.31.799,Main,2022.1.1,59.88188901083835,
negative,yellow,2,k,None,,,,,,,,,0,151,151,151,,,,,,,,,,,,,,,,,main,k,k,1,1.0133036999031901,587.2287500000093,None,None,0,,,,,,,,,,,,,,202,2023-03-27_15h34.31.799,Main,2022.1.1,59.88188901083835,
negative,blue,2,None,k,,,,,,,,,0,152,152,152,,,,,,,,,,,,,,,,,main,None,None,1,1.5002154000103474,589.2424826999195,None,None,1,,,,,,,,,,,,,,202,2023-03-27_15h34.31.799,Main,2022.1.1,59.88188901083835,
negative,yellow,1,k,None,,,,,,,,,0,153,153,153,,,,,,,,,,,,,,,,,main,k,k,1,0.9148558999877423,591.7424469001126,None,None,0,,,,,,,,,,,,,,202,2023-03-27_15h34.31.799,Main,2022.1.1,59.88188901083835,
negative,blue,1,None,k,,,,,,,,,0,154,154,154,,,,,,,,,,,,,,,,,main,None,None,1,1.5014693001285195,593.6590885000769,None,None,1,,,,,,,,,,,,,,202,2023-03-27_15h34.31.799,Main,2022.1.1,59.88188901083835,
positive,yellow,2,None,k,,,,,,,,,0,155,155,155,,,,,,,,,,,,,,,,,main,None,k,0,0.9134066000115126,596.1619671001099,None,None,1,,,,,,,,,,,,,,202,2023-03-27_15h34.31.799,Main,2022.1.1,59.88188901083835,
positive,red,2,None,None,,,,,,,,,0,156,156,156,,,,,,,,,,,,,,,,,main,None,None,1,1.4878978999331594,599.0753421001136,None,None,1,,,,,,,,,,,,,,202,2023-03-27_15h34.31.799,Main,2022.1.1,59.88188901083835,
positive,red,1,None,None,,,,,,,,,0,157,157,157,,,,,,,,,,,,,,,,,main,None,None,1,1.4957952999975532,601.5619902999606,None,None,1,,,,,,,,,,,,,,202,2023-03-27_15h34.31.799,Main,2022.1.1,59.88188901083835,
positive,blue,2,k,None,,,,,,,,,0,158,158,158,,,,,,,,,,,,,,,,,main,k,k,1,1.6662876000627875,604.0617518001236,None,None,0,,,,,,,,,,,,,,202,2023-03-27_15h34.31.799,Main,2022.1.1,59.88188901083835,
negative,yellow,1,k,None,,,,,,,,,0,159,159,159,,,,,,,,,,,,,,,,,main,k,k,1,1.6181162998545915,607.7253586000297,None,None,0,,,,,,,,,,,,,,202,2023-03-27_15h34.31.799,Main,2022.1.1,59.88188901083835,
negative,red,2,None,None,,,,,,,,,0,160,160,160,,,,,,,,,,,,,,,,,main,None,None,1,1.4876522000413388,611.3418181000743,None,None,1,,,,,,,,,,,,,,202,2023-03-27_15h34.31.799,Main,2022.1.1,59.88188901083835,
negative,blue,1,None,k,,,,,,,,,0,161,161,161,,,,,,,,,,,,,,,,,main,None,None,1,1.4989640999119729,613.8282566000707,None,None,1,,,,,,,,,,,,,,202,2023-03-27_15h34.31.799,Main,2022.1.1,59.88188901083835,
negative,blue,1,None,k,,,,,,,,,0,162,162,162,,,,,,,,,,,,,,,,,main,None,None,1,1.4958655000664294,616.3282749000937,None,None,1,,,,,,,,,,,,,,202,2023-03-27_15h34.31.799,Main,2022.1.1,59.88188901083835,
negative,yellow,1,k,None,,,,,,,,,0,163,163,163,,,,,,,,,,,,,,,,,main,k,k,1,1.2832679999992251,618.8249355000444,None,None,0,,,,,,,,,,,,,,202,2023-03-27_15h34.31.799,Main,2022.1.1,59.88188901083835,
negative,yellow,1,k,None,,,,,,,,,0,164,164,164,,,,,,,,,,,,,,,,,main,k,k,1,0.7520440998487175,621.1114322000649,None,None,0,,,,,,,,,,,,,,202,2023-03-27_15h34.31.799,Main,2022.1.1,59.88188901083835,
positive,yellow,1,None,k,,,,,,,,,0,165,165,165,,,,,,,,,,,,,,,,,main,None,None,1,1.4959881000686437,622.8614203000907,None,None,1,,,,,,,,,,,,,,202,2023-03-27_15h34.31.799,Main,2022.1.1,59.88188901083835,
negative,red,1,None,None,,,,,,,,,0,166,166,166,,,,,,,,,,,,,,,,,main,None,None,1,1.4989706000778824,625.3613416999578,None,None,1,,,,,,,,,,,,,,202,2023-03-27_15h34.31.799,Main,2022.1.1,59.88188901083835,
negative,yellow,2,k,None,,,,,,,,,0,167,167,167,,,,,,,,,,,,,,,,,main,k,k,1,2.866005700081587,627.85841659992,None,None,0,,,,,,,,,,,,,,202,2023-03-27_15h34.31.799,Main,2022.1.1,59.88188901083835,
positive,blue,2,k,None,,,,,,,,,0,168,168,168,,,,,,,,,,,,,,,,,main,k,k,1,1.0820756999310106,632.7278010000009,None,None,0,,,,,,,,,,,,,,202,2023-03-27_15h34.31.799,Main,2022.1.1,59.88188901083835,
positive,red,2,None,None,,,,,,,,,0,169,169,169,,,,,,,,,,,,,,,,,main,None,None,1,1.4983412001747638,634.8111475999467,None,None,1,,,,,,,,,,,,,,202,2023-03-27_15h34.31.799,Main,2022.1.1,59.88188901083835,
positive,red,1,None,None,,,,,,,,,0,170,170,170,,,,,,,,,,,,,,,,,main,None,None,1,1.4994795999955386,637.3079101000912,None,None,1,,,,,,,,,,,,,,202,2023-03-27_15h34.31.799,Main,2022.1.1,59.88188901083835,
negative,blue,2,None,k,,,,,,,,,0,171,171,171,,,,,,,,,,,,,,,,,main,None,None,1,1.5016505001112819,639.8110698000528,None,None,1,,,,,,,,,,,,,,202,2023-03-27_15h34.31.799,Main,2022.1.1,59.88188901083835,
positive,blue,2,k,None,,,,,,,,,0,172,172,172,,,,,,,,,,,,,,,,,main,k,k,1,1.1830931999720633,642.3110698000528,None,None,0,,,,,,,,,,,,,,202,2023-03-27_15h34.31.799,Main,2022.1.1,59.88188901083835,
negative,yellow,2,k,None,,,,,,,,,0,173,173,173,,,,,,,,,,,,,,,,,main,k,k,1,0.8458044999279082,644.4942727000453,None,None,0,,,,,,,,,,,,,,202,2023-03-27_15h34.31.799,Main,2022.1.1,59.88188901083835,
positive,yellow,2,None,k,,,,,,,,,0,174,174,174,,,,,,,,,,,,,,,,,main,None,k,0,0.1822644998319447,646.3410577999894,None,None,1,,,,,,,,,,,,,,202,2023-03-27_15h34.31.799,Main,2022.1.1,59.88188901083835,
negative,blue,2,None,k,,,,,,,,,0,175,175,175,,,,,,,,,,,,,,,,,main,None,None,1,1.5021048998460174,648.5249183000997,None,None,1,,,,,,,,,,,,,,202,2023-03-27_15h34.31.799,Main,2022.1.1,59.88188901083835,
positive,blue,1,k,None,,,,,,,,,0,176,176,176,,,,,,,,,,,,,,,,,main,k,k,1,3.4121155000757426,651.0247035000939,None,None,0,,,,,,,,,,,,,,202,2023-03-27_15h34.31.799,Main,2022.1.1,59.88188901083835,
positive,yellow,1,None,k,,,,,,,,,0,177,177,177,,,,,,,,,,,,,,,,,main,None,None,1,1.5012401000130922,656.4413113000337,None,None,1,,,,,,,,,,,,,,202,2023-03-27_15h34.31.799,Main,2022.1.1,59.88188901083835,
positive,blue,1,k,None,,,,,,,,,0,178,178,178,,,,,,,,,,,,,,,,,main,k,k,1,1.713208300061524,658.9410663999151,None,None,0,,,,,,,,,,,,,,202,2023-03-27_15h34.31.799,Main,2022.1.1,59.88188901083835,
positive,yellow,2,None,k,,,,,,,,,0,179,179,179,,,,,,,,,,,,,,,,,main,None,None,1,1.498387800063938,662.6606064001098,None,None,1,,,,,,,,,,,,,,202,2023-03-27_15h34.31.799,Main,2022.1.1,59.88188901083835,
positive,blue,1,k,None,,,,,,,,,0,180,180,180,,,,,,,,,,,,,,,,,main,k,k,1,1.4352764999493957,665.1573443999514,None,None,0,,,,,,,,,,,,,,202,2023-03-27_15h34.31.799,Main,2022.1.1,59.88188901083835,
negative,red,1,None,None,,,,,,,,,0,181,181,181,,,,,,,,,,,,,,,,,main,None,None,1,1.4989219999406487,667.5938436000142,None,None,1,,,,,,,,,,,,,,202,2023-03-27_15h34.31.799,Main,2022.1.1,59.88188901083835,
negative,blue,1,None,k,,,,,,,,,0,182,182,182,,,,,,,,,,,,,,,,,main,None,None,1,1.4991667999420315,670.093816800043,None,None,1,,,,,,,,,,,,,,202,2023-03-27_15h34.31.799,Main,2022.1.1,59.88188901083835,
negative,yellow,2,k,None,,,,,,,,,0,183,183,183,,,,,,,,,,,,,,,,,main,k,k,1,0.7297453000210226,672.5937956999987,None,None,0,,,,,,,,,,,,,,202,2023-03-27_15h34.31.799,Main,2022.1.1,59.88188901083835,
positive,yellow,2,None,k,,,,,,,,,0,184,184,184,,,,,,,,,,,,,,,,,main,None,None,1,1.5018468000926077,674.3240461000241,None,None,1,,,,,,,,,,,,,,202,2023-03-27_15h34.31.799,Main,2022.1.1,59.88188901083835,
positive,yellow,1,None,k,,,,,,,,,0,185,185,185,,,,,,,,,,,,,,,,,main,None,None,1,1.4990884000435472,676.8269205999095,None,None,1,,,,,,,,,,,,,,202,2023-03-27_15h34.31.799,Main,2022.1.1,59.88188901083835,
positive,red,2,None,None,,,,,,,,,0,186,186,186,,,,,,,,,,,,,,,,,main,None,None,1,1.4991164999082685,679.3239983001258,None,None,1,,,,,,,,,,,,,,202,2023-03-27_15h34.31.799,Main,2022.1.1,59.88188901083835,
positive,blue,1,k,None,,,,,,,,,0,187,187,187,,,,,,,,,,,,,,,,,main,k,k,1,1.9973748000338674,681.8239718000405,None,None,0,,,,,,,,,,,,,,202,2023-03-27_15h34.31.799,Main,2022.1.1,59.88188901083835,
negative,yellow,1,k,None,,,,,,,,,0,188,188,188,,,,,,,,,,,,,,,,,main,k,k,1,1.017798600019887,685.8235538001172,None,None,0,,,,,,,,,,,,,,202,2023-03-27_15h34.31.799,Main,2022.1.1,59.88188901083835,
positive,yellow,2,None,k,,,,,,,,,0,189,189,189,,,,,,,,,,,,,,,,,main,None,None,1,1.5016998001374304,687.8402376000304,None,None,1,,,,,,,,,,,,,,202,2023-03-27_15h34.31.799,Main,2022.1.1,59.88188901083835,
negative,yellow,2,k,None,,,,,,,,,0,190,190,190,,,,,,,,,,,,,,,,,main,k,k,1,0.8798382000532001,690.3405283999164,None,None,0,,,,,,,,,,,,,,202,2023-03-27_15h34.31.799,Main,2022.1.1,59.88188901083835,
negative,yellow,1,k,None,,,,,,,,,0,191,191,191,,,,,,,,,,,,,,,,,main,k,k,1,1.052032900042832,692.2266828999855,None,None,0,,,,,,,,,,,,,,202,2023-03-27_15h34.31.799,Main,2022.1.1,59.88188901083835,
positive,blue,2,k,None,,,,,,,,,0,192,192,192,,,,,,,,,,,,,,,,,main,k,k,1,5.279750199988484,694.2737672000658,None,None,0,,,,,,,,,,,,,,202,2023-03-27_15h34.31.799,Main,2022.1.1,59.88188901083835,
positive,yellow,1,None,k,,,,,,,,,0,193,193,193,,,,,,,,,,,,,,,,,main,None,None,1,1.5014763998333365,701.5598577000201,None,None,1,,,,,,,,,,,,,,202,2023-03-27_15h34.31.799,Main,2022.1.1,59.88188901083835,
negative,red,2,None,None,,,,,,,,,0,194,194,194,,,,,,,,,,,,,,,,,main,None,None,1,1.4983848999254405,704.0568383999635,None,None,1,,,,,,,,,,,,,,202,2023-03-27_15h34.31.799,Main,2022.1.1,59.88188901083835,
positive,red,1,None,None,,,,,,,,,0,195,195,195,,,,,,,,,,,,,,,,,main,None,None,1,1.4993864998687059,706.5567711000331,None,None,1,,,,,,,,,,,,,,202,2023-03-27_15h34.31.799,Main,2022.1.1,59.88188901083835,
negative,blue,1,None,k,,,,,,,,,0,196,196,196,,,,,,,,,,,,,,,,,main,None,None,1,1.4990208998788148,709.05673140008,None,None,1,,,,,,,,,,,,,,202,2023-03-27_15h34.31.799,Main,2022.1.1,59.88188901083835,
positive,blue,2,k,None,,,,,,,,,0,197,197,197,,,,,,,,,,,,,,,,,main,k,k,1,0.8128206999972463,711.5566748001147,None,None,0,,,,,,,,,,,,,,202,2023-03-27_15h34.31.799,Main,2022.1.1,59.88188901083835,
negative,blue,2,None,k,,,,,,,,,0,198,198,198,,,,,,,,,,,,,,,,,main,None,None,1,1.4989810001570731,713.3729976001196,None,None,1,,,,,,,,,,,,,,202,2023-03-27_15h34.31.799,Main,2022.1.1,59.88188901083835,
negative,blue,2,None,k,,,,,,,,,0,199,199,199,,,,,,,,,,,,,,,,,main,None,None,1,1.5023449000436813,715.873037399957,None,None,1,,,,,,,,,,,,,,202,2023-03-27_15h34.31.799,Main,2022.1.1,59.88188901083835,
positive,blue,2,k,None,,,,,,,,,0,200,200,200,,,,,,,,,,,,,,,,,main,k,k,1,0.9966385001316667,718.3732841000892,None,None,0,,,,,,,,,,,,,,202,2023-03-27_15h34.31.799,Main,2022.1.1,59.88188901083835,
positive,blue,2,k,None,,,,,,,,,0,201,201,201,,,,,,,,,,,,,,,,,main,k,k,1,0.785399200161919,720.3760458999313,None,None,0,,,,,,,,,,,,,,202,2023-03-27_15h34.31.799,Main,2022.1.1,59.88188901083835,
negative,yellow,2,k,None,,,,,,,,,0,202,202,202,,,,,,,,,,,,,,,,,main,k,k,1,4.815692400094122,722.159452999942,None,None,0,,,,,,,,,,,,,,202,2023-03-27_15h34.31.799,Main,2022.1.1,59.88188901083835,
positive,red,1,None,None,,,,,,,,,0,203,203,203,,,,,,,,,,,,,,,,,main,None,None,1,1.5014735001605004,728.9729522000998,None,None,1,,,,,,,,,,,,,,202,2023-03-27_15h34.31.799,Main,2022.1.1,59.88188901083835,
negative,blue,2,None,k,,,,,,,,,0,204,204,204,,,,,,,,,,,,,,,,,main,None,None,1,1.4954669999424368,731.4729724999052,None,None,1,,,,,,,,,,,,,,202,2023-03-27_15h34.31.799,Main,2022.1.1,59.88188901083835,
negative,red,1,None,None,,,,,,,,,0,205,205,205,,,,,,,,,,,,,,,,,main,None,None,1,1.5022714999504387,733.9725782999303,None,None,1,,,,,,,,,,,,,,202,2023-03-27_15h34.31.799,Main,2022.1.1,59.88188901083835,
negative,blue,2,None,k,,,,,,,,,0,206,206,206,,,,,,,,,,,,,,,,,main,None,None,1,1.4993298000190407,736.4757421000395,None,None,1,,,,,,,,,,,,,,202,2023-03-27_15h34.31.799,Main,2022.1.1,59.88188901083835,
negative,yellow,2,k,None,,,,,,,,,0,207,207,207,,,,,,,,,,,,,,,,,main,k,k,1,0.763374499976635,738.9757344000973,None,None,0,,,,,,,,,,,,,,202,2023-03-27_15h34.31.799,Main,2022.1.1,59.88188901083835,
positive,yellow,2,None,k,,,,,,,,,0,208,208,208,,,,,,,,,,,,,,,,,main,None,k,0,-0.7175891001243144,740.7423288000282,None,None,1,,,,,,,,,,,,,,202,2023-03-27_15h34.31.799,Main,2022.1.1,59.88188901083835,
negative,yellow,1,k,None,,,,,,,,,0,209,209,209,,,,,,,,,,,,,,,,,main,k,k,1,1.0351244998164475,744.0224216000643,None,None,0,,,,,,,,,,,,,,202,2023-03-27_15h34.31.799,Main,2022.1.1,59.88188901083835,
negative,red,2,None,None,,,,,,,,,0,210,210,210,,,,,,,,,,,,,,,,,main,None,k,0,-0.7639069999568164,746.0589864000212,None,None,1,,,,,,,,,,,,,,202,2023-03-27_15h34.31.799,Main,2022.1.1,59.88188901083835,
negative,blue,1,None,k,,,,,,,,,0,211,211,211,,,,,,,,,,,,,,,,,main,None,None,1,1.4981761001981795,749.2921830001287,None,None,1,,,,,,,,,,,,,,202,2023-03-27_15h34.31.799,Main,2022.1.1,59.88188901083835,
negative,yellow,1,k,None,,,,,,,,,0,212,212,212,,,,,,,,,,,,,,,,,main,k,k,1,0.7822914000134915,751.7919995998964,None,None,0,,,,,,,,,,,,,,202,2023-03-27_15h34.31.799,Main,2022.1.1,59.88188901083835,
positive,blue,1,k,None,,,,,,,,,0,213,213,213,,,,,,,,,,,,,,,,,main,k,k,1,0.8492210998665541,753.5724569999147,None,None,0,,,,,,,,,,,,,,202,2023-03-27_15h34.31.799,Main,2022.1.1,59.88188901083835,
positive,blue,1,k,None,,,,,,,,,0,214,214,214,,,,,,,,,,,,,,,,,main,k,k,1,4.982378200162202,755.4224487000611,None,None,0,,,,,,,,,,,,,,202,2023-03-27_15h34.31.799,Main,2022.1.1,59.88188901083835,
positive,yellow,1,None,k,,,,,,,,,0,215,215,215,,,,,,,,,,,,,,,,,main,None,None,1,1.4878050000406802,762.40536720003,None,None,1,,,,,,,,,,,,,,202,2023-03-27_15h34.31.799,Main,2022.1.1,59.88188901083835,
positive,yellow,1,None,k,,,,,,,,,0,216,216,216,,,,,,,,,,,,,,,,,main,None,None,1,1.4987105999607593,764.8890410000458,None,None,1,,,,,,,,,,,,,,202,2023-03-27_15h34.31.799,Main,2022.1.1,59.88188901083835,
positive,yellow,2,None,k,,,,,,,,,0,217,217,217,,,,,,,,,,,,,,,,,main,None,None,1,1.4994904000777751,767.391762400046,None,None,1,,,,,,,,,,,,,,202,2023-03-27_15h34.31.799,Main,2022.1.1,59.88188901083835,
negative,blue,1,None,k,,,,,,,,,0,218,218,218,,,,,,,,,,,,,,,,,main,None,None,1,1.5004521999508142,769.8887726999819,None,None,1,,,,,,,,,,,,,,202,2023-03-27_15h34.31.799,Main,2022.1.1,59.88188901083835,
positive,red,2,None,None,,,,,,,,,0,219,219,219,,,,,,,,,,,,,,,,,main,None,None,1,1.497171999886632,772.391536799958,None,None,1,,,,,,,,,,,,,,202,2023-03-27_15h34.31.799,Main,2022.1.1,59.88188901083835,
positive,yellow,1,None,k,,,,,,,,,0,220,220,220,,,,,,,,,,,,,,,,,main,None,None,1,1.498863800195977,774.891579200048,None,None,1,,,,,,,,,,,,,,202,2023-03-27_15h34.31.799,Main,2022.1.1,59.88188901083835,
positive,blue,1,k,None,,,,,,,,,0,221,221,221,,,,,,,,,,,,,,,,,main,k,k,1,1.4964070999994874,777.3886742000468,None,None,0,,,,,,,,,,,,,,202,2023-03-27_15h34.31.799,Main,2022.1.1,59.88188901083835,
positive,yellow,2,None,k,,,,,,,,,0,222,222,222,,,,,,,,,,,,,,,,,main,None,None,1,1.5023006000556052,779.8886114000343,None,None,1,,,,,,,,,,,,,,202,2023-03-27_15h34.31.799,Main,2022.1.1,59.88188901083835,
negative,yellow,1,k,None,,,,,,,,,0,223,223,223,,,,,,,,,,,,,,,,,main,k,k,1,1.3992542000487447,782.3914413000457,None,None,0,,,,,,,,,,,,,,202,2023-03-27_15h34.31.799,Main,2022.1.1,59.88188901083835,
positive,yellow,2,None,k,,,,,,,,,0,224,224,224,,,,,,,,,,,,,,,,,main,None,None,1,1.4989946000277996,784.7914001001045,None,None,1,,,,,,,,,,,,,,202,2023-03-27_15h34.31.799,Main,2022.1.1,59.88188901083835,
negative,yellow,2,k,None,,,,,,,,,0,225,225,225,,,,,,,,,,,,,,,,,main,k,k,1,1.3462078000884503,787.2891385999974,None,None,0,,,,,,,,,,,,,,202,2023-03-27_15h34.31.799,Main,2022.1.1,59.88188901083835,
negative,blue,2,None,k,,,,,,,,,0,226,226,226,,,,,,,,,,,,,,,,,main,None,None,1,1.5021923000458628,789.6380970999599,None,None,1,,,,,,,,,,,,,,202,2023-03-27_15h34.31.799,Main,2022.1.1,59.88188901083835,
positive,red,2,None,None,,,,,,,,,0,227,227,227,,,,,,,,,,,,,,,,,main,None,None,1,1.4991295000072569,792.1412748999428,None,None,1,,,,,,,,,,,,,,202,2023-03-27_15h34.31.799,Main,2022.1.1,59.88188901083835,
positive,blue,2,k,None,,,,,,,,,0,228,228,228,,,,,,,,,,,,,,,,,main,k,k,1,2.996480699861422,794.6413555000909,None,None,0,,,,,,,,,,,,,,202,2023-03-27_15h34.31.799,Main,2022.1.1,59.88188901083835,
negative,blue,1,None,k,,,,,,,,,0,229,229,229,,,,,,,,,,,,,,,,,main,None,None,1,1.4872303002048284,799.6410207001027,None,None,1,,,,,,,,,,,,,,202,2023-03-27_15h34.31.799,Main,2022.1.1,59.88188901083835,
positive,yellow,1,None,k,,,,,,,,,0,230,230,230,,,,,,,,,,,,,,,,,main,None,None,1,1.4988582998048514,802.1214888000395,None,None,1,,,,,,,,,,,,,,202,2023-03-27_15h34.31.799,Main,2022.1.1,59.88188901083835,
negative,blue,2,None,k,,,,,,,,,0,231,231,231,,,,,,,,,,,,,,,,,main,None,None,1,1.496098400093615,804.624294300098,None,None,1,,,,,,,,,,,,,,202,2023-03-27_15h34.31.799,Main,2022.1.1,59.88188901083835,
negative,red,1,None,None,,,,,,,,,0,232,232,232,,,,,,,,,,,,,,,,,main,None,None,1,1.502377500059083,807.1212246001232,None,None,1,,,,,,,,,,,,,,202,2023-03-27_15h34.31.799,Main,2022.1.1,59.88188901083835,
positive,blue,2,k,None,,,,,,,,,0,233,233,233,,,,,,,,,,,,,,,,,main,k,k,1,1.1661787000484765,809.6242975001223,None,None,0,,,,,,,,,,,,,,202,2023-03-27_15h34.31.799,Main,2022.1.1,59.88188901083835,
negative,yellow,1,k,None,,,,,,,,,0,234,234,234,,,,,,,,,,,,,,,,,main,k,k,1,0.8475366001948714,811.790870900033,None,None,0,,,,,,,,,,,,,,202,2023-03-27_15h34.31.799,Main,2022.1.1,59.88188901083835,
negative,yellow,2,k,None,,,,,,,,,0,235,235,235,,,,,,,,,,,,,,,,,main,k,k,1,0.8476934998761863,813.6408430999145,None,None,0,,,,,,,,,,,,,,202,2023-03-27_15h34.31.799,Main,2022.1.1,59.88188901083835,
positive,red,1,None,None,,,,,,,,,0,236,236,236,,,,,,,,,,,,,,,,,main,None,None,1,1.4991276999935508,815.4875568998978,None,None,1,,,,,,,,,,,,,,202,2023-03-27_15h34.31.799,Main,2022.1.1,59.88188901083835,
negative,red,2,None,None,,,,,,,,,0,237,237,237,,,,,,,,,,,,,,,,,main,None,None,1,1.502202599775046,817.9877434000373,None,None,1,,,,,,,,,,,,,,202,2023-03-27_15h34.31.799,Main,2022.1.1,59.88188901083835,
negative,blue,1,None,k,,,,,,,,,0,238,238,238,,,,,,,,,,,,,,,,,main,None,None,1,1.4991804000455886,820.4907460999675,None,None,1,,,,,,,,,,,,,,202,2023-03-27_15h34.31.799,Main,2022.1.1,59.88188901083835,
positive,blue,1,k,None,,,,,,,,,0,239,239,239,,,,,,,,,,,,,,,,,main,k,k,1,1.6633089000824839,822.9878203000408,None,None,0,,,,,,,,,,,,,,202,2023-03-27_15h34.31.799,Main,2022.1.1,59.88188901083835,
,,,,,,,,,,,,,,,,,,,,,,,,,,,,,,,,,,,,,,,,,,,,,,,,,,,,,826.6570474000182,None,,,,,,
