distractor,target,set,ans1,ans2,rep_loop4.thisRepN,rep_loop4.thisTrialN,rep_loop4.thisN,rep_loop4.thisIndex,st2_prac_loop.thisRepN,st2_prac_loop.thisTrialN,st2_prac_loop.thisN,st2_prac_loop.thisIndex,st2_main_loop.thisRepN,st2_main_loop.thisTrialN,st2_main_loop.thisN,st2_main_loop.thisIndex,image_4.started,image_4.stopped,sound_2.started,sound_2.stopped,key_resp_3.keys,key_resp_3.rt,image_5.started,image_5.stopped,st_prac_back.started,st_prac_back.stopped,st_prac_text.started,st_prac_text.stopped,st_fix_back.started,st_fix_back.stopped,st_fix_2.started,st_fix_2.stopped,main_prac,st_ans,st_res,st_corr,st_rt,st_back.started,st_back.stopped,st2_resp.keys,st2_resp.corr,st_main_back.started,st_main_back.stopped,st_main_text.started,st_main_text.stopped,mouse_4.x,mouse_4.y,mouse_4.leftButton,mouse_4.midButton,mouse_4.rightButton,mouse_4.started,mouse_4.stopped,text_2.started,text_2.stopped,id*,date,expName,psychopyVersion,frameRate,
negative,yellow,1,k,None,,,,,0,0,0,0,,,,,33.60575039987452,None,37.930999290011826,None,space,56.60312710003927,94.56008540000767,None,96.16013119998388,None,96.16013119998388,None,98.1631690999493,None,98.1631690999493,None,prac,None,None,1,1.4945550002157688,100.16095339995809,None,None,1,,,,,,,,,,,,,,203,2023-03-27_17h26.24.888,Main,2022.1.1,60.02721636544846,
positive,red,2,None,None,,,,,0,1,1,1,,,,,,,,,,,,,,,,,,,,,prac,None,None,1,1.495488899992779,102.66304609994404,None,None,1,,,,,,,,,,,,,,203,2023-03-27_17h26.24.888,Main,2022.1.1,60.02721636544846,
negative,blue,2,None,k,,,,,0,2,2,2,,,,,,,,,,,,,,,,,,,,,prac,k,k,1,0.8663991999346763,105.16277639986947,None,None,0,,,,,,,,,,,,,,203,2023-03-27_17h26.24.888,Main,2022.1.1,60.02721636544846,
positive,yellow,1,None,k,,,,,0,3,3,3,,,,,,,,,,,,,,,,,,,,,prac,k,k,1,0.8183259000070393,107.02662690007128,None,None,0,,,,,,,,,,,,,,203,2023-03-27_17h26.24.888,Main,2022.1.1,60.02721636544846,
negative,blue,2,None,k,,,,,0,4,4,4,,,,,,,,,,,,,,,,,,,,,prac,k,k,1,0.8157239998690784,108.84614409995265,None,None,0,,,,,,,,,,,,,,203,2023-03-27_17h26.24.888,Main,2022.1.1,60.02721636544846,
negative,blue,1,None,k,,,,,0,5,5,5,,,,,,,,,,,,,,,,,,,,,prac,k,k,1,4.8291993997991085,110.66044789995067,None,None,0,,,,,,,,,,,,,,203,2023-03-27_17h26.24.888,Main,2022.1.1,60.02721636544846,
negative,yellow,2,k,None,,,,,0,6,6,6,,,,,,,,,,,,,,,,,,,,,prac,None,None,1,1.5016512998845428,117.49602309986949,None,None,1,,,,,,,,,,,,,,203,2023-03-27_17h26.24.888,Main,2022.1.1,60.02721636544846,
negative,red,1,None,None,,,,,0,7,7,7,,,,,,,,,,,,,,,,,,,,,prac,None,None,1,1.4981745001859963,119.99595150002278,None,None,1,,,,,,,,,,,,,,203,2023-03-27_17h26.24.888,Main,2022.1.1,60.02721636544846,
positive,yellow,2,None,k,,,,,0,8,8,8,,,,,,,,,,,,,,,,,,,,,prac,k,k,1,0.9824175999965519,122.4959710999392,None,None,0,,,,,,,,,,,,,,203,2023-03-27_17h26.24.888,Main,2022.1.1,60.02721636544846,
negative,yellow,1,k,None,,,,,0,9,9,9,,,,,,,,,,,,,,,,,,,,,prac,None,None,1,1.4989988999441266,124.47908569988795,None,None,1,,,,,,,,,,,,,,203,2023-03-27_17h26.24.888,Main,2022.1.1,60.02721636544846,
positive,yellow,2,None,k,,,,,0,10,10,10,,,,,,,,,,,,,,,,,,,,,prac,k,k,1,0.9159307999070734,126.9762206999585,None,None,0,,,,,,,,,,,,,,203,2023-03-27_17h26.24.888,Main,2022.1.1,60.02721636544846,
negative,yellow,2,k,None,,,,,0,11,11,11,,,,,,,,,,,,,,,,,,,,,prac,None,None,1,1.4988611999433488,128.89574519987218,None,None,1,,,,,,,,,,,,,,203,2023-03-27_17h26.24.888,Main,2022.1.1,60.02721636544846,
negative,red,2,None,None,,,,,0,12,12,12,,,,,,,,,,,,,,,,,,,,,prac,None,None,1,1.4994906999636441,131.39576289989054,None,None,1,,,,,,,,,,,,,,203,2023-03-27_17h26.24.888,Main,2022.1.1,60.02721636544846,
positive,red,1,None,None,,,,,0,13,13,13,,,,,,,,,,,,,,,,,,,,,prac,None,None,1,1.495799999916926,133.89562219986692,None,None,1,,,,,,,,,,,,,,203,2023-03-27_17h26.24.888,Main,2022.1.1,60.02721636544846,
positive,blue,2,k,None,,,,,0,14,14,14,,,,,,,,,,,,,,,,,,,,,prac,None,None,1,1.4985370999202132,136.39275259990245,None,None,1,,,,,,,,,,,,,,203,2023-03-27_17h26.24.888,Main,2022.1.1,60.02721636544846,
positive,blue,1,k,None,,,,,0,15,15,15,,,,,,,,,,,,,,,,,,,,,prac,None,None,1,1.5024959000293165,138.89239759999327,None,None,1,,,,,,,,,,,,,,203,2023-03-27_17h26.24.888,Main,2022.1.1,60.02721636544846,
negative,blue,1,None,k,,,,,0,16,16,16,,,,,,,,,,,,,,,,,,,,,prac,k,k,1,0.8159358000848442,141.39566330006346,None,None,0,,,,,,,,,,,,,,203,2023-03-27_17h26.24.888,Main,2022.1.1,60.02721636544846,
positive,blue,2,k,None,,,,,0,17,17,17,,,,,,,,,,,,,,,,,,,,,prac,None,None,1,1.495759799843654,143.21219219989143,None,None,1,,,,,,,,,,,,,,203,2023-03-27_17h26.24.888,Main,2022.1.1,60.02721636544846,
positive,blue,1,k,None,,,,,0,18,18,18,,,,,,,,,,,,,,,,,,,,,prac,None,None,1,1.5018566001672298,145.71224709996022,None,None,1,,,,,,,,,,,,,,203,2023-03-27_17h26.24.888,Main,2022.1.1,60.02721636544846,
positive,yellow,1,None,k,,,,,0,19,19,19,,,,,,,,,,,,,,,,,,,,,prac,k,k,1,0.9493462999816984,148.20909709995613,None,None,0,,,,,,,,,,,,,,203,2023-03-27_17h26.24.888,Main,2022.1.1,60.02721636544846,
negative,yellow,1,k,None,,,,,1,0,20,0,,,,,,,,,,,,,,,,,,,,,prac,None,None,1,1.4961036001332104,150.16207399987616,None,None,1,,,,,,,,,,,,,,203,2023-03-27_17h26.24.888,Main,2022.1.1,60.02721636544846,
positive,red,2,None,None,,,,,1,1,21,1,,,,,,,,,,,,,,,,,,,,,prac,None,None,1,1.5017570999916643,152.66186470002867,None,None,1,,,,,,,,,,,,,,203,2023-03-27_17h26.24.888,Main,2022.1.1,60.02721636544846,
negative,blue,2,None,k,,,,,1,2,22,2,,,,,,,,,,,,,,,,,,,,,prac,k,k,1,0.813477500109002,155.1618490999099,None,None,0,,,,,,,,,,,,,,203,2023-03-27_17h26.24.888,Main,2022.1.1,60.02721636544846,
positive,yellow,1,None,k,,,,,1,3,23,3,,,,,,,,,,,,,,,,,,,,,prac,k,k,1,0.8661080000456423,156.97587439999916,None,None,0,,,,,,,,,,,,,,203,2023-03-27_17h26.24.888,Main,2022.1.1,60.02721636544846,
negative,blue,2,None,k,,,,,1,4,24,4,,,,,,,,,,,,,,,,,,,,,prac,k,k,1,0.9182983001228422,158.84196470002644,None,None,0,,,,,,,,,,,,,,203,2023-03-27_17h26.24.888,Main,2022.1.1,60.02721636544846,
negative,blue,1,None,k,,,,,1,5,25,5,,,,,,,,,,,,,,,,,,,,,prac,k,k,1,1.532090499997139,160.76180289988406,None,None,0,,,,,,,,,,,,,,203,2023-03-27_17h26.24.888,Main,2022.1.1,60.02721636544846,
negative,yellow,2,k,None,,,,,1,6,26,6,,,,,,,,,,,,,,,,,,,,,prac,None,None,1,1.501187999965623,164.2950943999458,None,None,1,,,,,,,,,,,,,,203,2023-03-27_17h26.24.888,Main,2022.1.1,60.02721636544846,
negative,red,1,None,None,,,,,1,7,27,7,,,,,,,,,,,,,,,,,,,,,prac,None,None,1,1.4987558000721037,166.79491399996914,None,None,1,,,,,,,,,,,,,,203,2023-03-27_17h26.24.888,Main,2022.1.1,60.02721636544846,
positive,yellow,2,None,k,,,,,1,8,28,8,,,,,,,,,,,,,,,,,,,,,prac,k,k,1,0.9621872999705374,169.29203359992243,None,None,0,,,,,,,,,,,,,,203,2023-03-27_17h26.24.888,Main,2022.1.1,60.02721636544846,
negative,yellow,1,k,None,,,,,1,9,29,9,,,,,,,,,,,,,,,,,,,,,prac,None,None,1,1.4990348999854177,171.25866380007938,None,None,1,,,,,,,,,,,,,,203,2023-03-27_17h26.24.888,Main,2022.1.1,60.02721636544846,
positive,yellow,2,None,k,,,,,1,10,30,10,,,,,,,,,,,,,,,,,,,,,prac,k,k,1,0.9494890999048948,173.7586604000535,None,None,0,,,,,,,,,,,,,,203,2023-03-27_17h26.24.888,Main,2022.1.1,60.02721636544846,
negative,yellow,2,k,None,,,,,1,11,31,11,,,,,,,,,,,,,,,,,,,,,prac,None,None,1,1.50148699991405,175.70898890006356,None,None,1,,,,,,,,,,,,,,203,2023-03-27_17h26.24.888,Main,2022.1.1,60.02721636544846,
negative,red,2,None,None,,,,,1,12,32,12,,,,,,,,,,,,,,,,,,,,,prac,None,None,1,1.4960017998237163,178.21142109995708,None,None,1,,,,,,,,,,,,,,203,2023-03-27_17h26.24.888,Main,2022.1.1,60.02721636544846,
positive,red,1,None,None,,,,,1,13,33,13,,,,,,,,,,,,,,,,,,,,,prac,None,None,1,1.5025221998803318,180.70820569992065,None,None,1,,,,,,,,,,,,,,203,2023-03-27_17h26.24.888,Main,2022.1.1,60.02721636544846,
positive,blue,2,k,None,,,,,1,14,34,14,,,,,,,,,,,,,,,,,,,,,prac,None,None,1,1.4989834998268634,183.2113763000816,None,None,1,,,,,,,,,,,,,,203,2023-03-27_17h26.24.888,Main,2022.1.1,60.02721636544846,
positive,blue,1,k,None,,,,,1,15,35,15,,,,,,,,,,,,,,,,,,,,,prac,None,None,1,1.4987238000612706,185.71133510000072,None,None,1,,,,,,,,,,,,,,203,2023-03-27_17h26.24.888,Main,2022.1.1,60.02721636544846,
negative,blue,1,None,k,,,,,1,16,36,16,,,,,,,,,,,,,,,,,,,,,prac,k,k,1,0.8131047999486327,188.21596909989603,None,None,0,,,,,,,,,,,,,,203,2023-03-27_17h26.24.888,Main,2022.1.1,60.02721636544846,
positive,blue,2,k,None,,,,,1,17,37,17,,,,,,,,,,,,,,,,,,,,,prac,None,None,1,1.5022181998938322,190.02465540007688,None,None,1,,,,,,,,,,,,,,203,2023-03-27_17h26.24.888,Main,2022.1.1,60.02721636544846,
positive,blue,1,k,None,,,,,1,18,38,18,,,,,,,,,,,,,,,,,,,,,prac,None,None,1,1.4990165000781417,192.5249830998946,None,None,1,,,,,,,,,,,,,,203,2023-03-27_17h26.24.888,Main,2022.1.1,60.02721636544846,
positive,yellow,1,None,k,,,,,1,19,39,19,,,,,,,,,,,,,,,,,,,,,prac,k,k,1,0.9992586001753807,195.0278439000249,None,None,0,,,,,,,,,,,,,,203,2023-03-27_17h26.24.888,Main,2022.1.1,60.02721636544846,
,,,,,,,,,,,,,,,,,,,,,,,,,,,,,,,,,,,,,,,,,,197.0277726999484,None,197.0277726999484,None,-0.055555556,0.037962962,0,0,0,0.014069289900362492,None,,,203,2023-03-27_17h26.24.888,Main,2022.1.1,60.02721636544846,
negative,yellow,2,k,None,,,,,,,,,0,0,0,0,,,,,,,,,,,,,207.7941862998996,None,207.7941862998996,None,main,None,None,1,1.5049539001192898,209.81371179991402,None,None,1,,,,,,,,,,,,,,203,2023-03-27_17h26.24.888,Main,2022.1.1,60.02721636544846,
positive,red,1,None,None,,,,,,,,,0,1,1,1,,,,,,,,,,,,,,,,,main,None,None,1,1.4988977999892086,212.32746930001304,None,None,1,,,,,,,,,,,,,,203,2023-03-27_17h26.24.888,Main,2022.1.1,60.02721636544846,
positive,blue,2,k,None,,,,,,,,,0,2,2,2,,,,,,,,,,,,,,,,,main,None,None,1,1.4958401001058519,214.82739969994873,None,None,1,,,,,,,,,,,,,,203,2023-03-27_17h26.24.888,Main,2022.1.1,60.02721636544846,
positive,blue,1,k,None,,,,,,,,,0,3,3,3,,,,,,,,,,,,,,,,,main,None,None,1,1.5023550000041723,217.32424029987305,None,None,1,,,,,,,,,,,,,,203,2023-03-27_17h26.24.888,Main,2022.1.1,60.02721636544846,
negative,yellow,2,k,None,,,,,,,,,0,4,4,4,,,,,,,,,,,,,,,,,main,None,None,1,1.4991033000405878,219.82734269998036,None,None,1,,,,,,,,,,,,,,203,2023-03-27_17h26.24.888,Main,2022.1.1,60.02721636544846,
positive,yellow,2,None,k,,,,,,,,,0,5,5,5,,,,,,,,,,,,,,,,,main,k,k,1,0.8860810999758542,222.3273553000763,None,None,0,,,,,,,,,,,,,,203,2023-03-27_17h26.24.888,Main,2022.1.1,60.02721636544846,
negative,blue,2,None,k,,,,,,,,,0,6,6,6,,,,,,,,,,,,,,,,,main,k,k,1,0.7287649000063539,224.2087240999099,None,None,0,,,,,,,,,,,,,,203,2023-03-27_17h26.24.888,Main,2022.1.1,60.02721636544846,
positive,red,2,None,None,,,,,,,,,0,7,7,7,,,,,,,,,,,,,,,,,main,None,None,1,1.4985148999840021,225.94383580004796,None,None,1,,,,,,,,,,,,,,203,2023-03-27_17h26.24.888,Main,2022.1.1,60.02721636544846,
positive,yellow,1,None,k,,,,,,,,,0,8,8,8,,,,,,,,,,,,,,,,,main,k,k,1,0.8297149001155049,228.44369399989955,None,None,0,,,,,,,,,,,,,,203,2023-03-27_17h26.24.888,Main,2022.1.1,60.02721636544846,
negative,red,1,None,None,,,,,,,,,0,9,9,9,,,,,,,,,,,,,,,,,main,None,None,1,1.4990326999686658,230.2770722999703,None,None,1,,,,,,,,,,,,,,203,2023-03-27_17h26.24.888,Main,2022.1.1,60.02721636544846,
positive,yellow,1,None,k,,,,,,,,,0,10,10,10,,,,,,,,,,,,,,,,,main,k,k,1,0.8994451998732984,232.7741054999642,None,None,0,,,,,,,,,,,,,,203,2023-03-27_17h26.24.888,Main,2022.1.1,60.02721636544846,
negative,yellow,1,k,None,,,,,,,,,0,11,11,11,,,,,,,,,,,,,,,,,main,None,None,1,1.501666999887675,234.67409530002624,None,None,1,,,,,,,,,,,,,,203,2023-03-27_17h26.24.888,Main,2022.1.1,60.02721636544846,
negative,yellow,1,k,None,,,,,,,,,0,12,12,12,,,,,,,,,,,,,,,,,main,None,None,1,1.4958116000052541,237.1769172998611,None,None,1,,,,,,,,,,,,,,203,2023-03-27_17h26.24.888,Main,2022.1.1,60.02721636544846,
negative,red,2,None,None,,,,,,,,,0,13,13,13,,,,,,,,,,,,,,,,,main,None,None,1,1.5026134999934584,239.67368080001324,None,None,1,,,,,,,,,,,,,,203,2023-03-27_17h26.24.888,Main,2022.1.1,60.02721636544846,
positive,yellow,2,None,k,,,,,,,,,0,14,14,14,,,,,,,,,,,,,,,,,main,k,k,1,0.882585900137201,242.17697379994206,None,None,0,,,,,,,,,,,,,,203,2023-03-27_17h26.24.888,Main,2022.1.1,60.02721636544846,
positive,blue,1,k,None,,,,,,,,,0,15,15,15,,,,,,,,,,,,,,,,,main,None,None,1,1.498705100035295,244.06015380006284,None,None,1,,,,,,,,,,,,,,203,2023-03-27_17h26.24.888,Main,2022.1.1,60.02721636544846,
negative,blue,1,None,k,,,,,,,,,0,16,16,16,,,,,,,,,,,,,,,,,main,k,k,1,0.8490961000788957,246.5572587000206,None,None,0,,,,,,,,,,,,,,203,2023-03-27_17h26.24.888,Main,2022.1.1,60.02721636544846,
positive,blue,2,k,None,,,,,,,,,0,17,17,17,,,,,,,,,,,,,,,,,main,None,None,1,1.4990982001181692,248.40991390007548,None,None,1,,,,,,,,,,,,,,203,2023-03-27_17h26.24.888,Main,2022.1.1,60.02721636544846,
negative,blue,2,None,k,,,,,,,,,0,18,18,18,,,,,,,,,,,,,,,,,main,k,k,1,0.9159556000959128,250.90986449993216,None,None,0,,,,,,,,,,,,,,203,2023-03-27_17h26.24.888,Main,2022.1.1,60.02721636544846,
negative,blue,1,None,k,,,,,,,,,0,19,19,19,,,,,,,,,,,,,,,,,main,k,k,1,0.8322999000083655,252.82375189987943,None,None,0,,,,,,,,,,,,,,203,2023-03-27_17h26.24.888,Main,2022.1.1,60.02721636544846,
negative,blue,1,None,k,,,,,,,,,0,20,20,20,,,,,,,,,,,,,,,,,main,k,k,1,0.8493761999998242,254.65978650003672,None,None,0,,,,,,,,,,,,,,203,2023-03-27_17h26.24.888,Main,2022.1.1,60.02721636544846,
negative,blue,2,None,k,,,,,,,,,0,21,21,21,,,,,,,,,,,,,,,,,main,k,k,1,0.8297156000044197,256.5097608999349,None,None,0,,,,,,,,,,,,,,203,2023-03-27_17h26.24.888,Main,2022.1.1,60.02721636544846,
negative,red,1,None,None,,,,,,,,,0,22,22,22,,,,,,,,,,,,,,,,,main,None,None,1,1.4983691000379622,258.34031550004147,None,None,1,,,,,,,,,,,,,,203,2023-03-27_17h26.24.888,Main,2022.1.1,60.02721636544846,
positive,red,2,None,None,,,,,,,,,0,23,23,23,,,,,,,,,,,,,,,,,main,None,None,1,1.5027117999270558,260.83991870004684,None,None,1,,,,,,,,,,,,,,203,2023-03-27_17h26.24.888,Main,2022.1.1,60.02721636544846,
negative,red,2,None,None,,,,,,,,,0,24,24,24,,,,,,,,,,,,,,,,,main,None,None,1,1.4960795999504626,263.34319949988276,None,None,1,,,,,,,,,,,,,,203,2023-03-27_17h26.24.888,Main,2022.1.1,60.02721636544846,
positive,blue,2,k,None,,,,,,,,,0,25,25,25,,,,,,,,,,,,,,,,,main,None,None,1,1.5019567001145333,265.8436809000559,None,None,1,,,,,,,,,,,,,,203,2023-03-27_17h26.24.888,Main,2022.1.1,60.02721636544846,
negative,yellow,1,k,None,,,,,,,,,0,26,26,26,,,,,,,,,,,,,,,,,main,None,None,1,1.4960142001509666,268.34304820001125,None,None,1,,,,,,,,,,,,,,203,2023-03-27_17h26.24.888,Main,2022.1.1,60.02721636544846,
positive,blue,2,k,None,,,,,,,,,0,27,27,27,,,,,,,,,,,,,,,,,main,None,None,1,1.499098600121215,270.8429302999284,None,None,1,,,,,,,,,,,,,,203,2023-03-27_17h26.24.888,Main,2022.1.1,60.02721636544846,
negative,blue,2,None,k,,,,,,,,,0,28,28,28,,,,,,,,,,,,,,,,,main,k,k,1,0.885430800030008,273.3399773000274,None,None,0,,,,,,,,,,,,,,203,2023-03-27_17h26.24.888,Main,2022.1.1,60.02721636544846,
positive,red,1,None,None,,,,,,,,,0,29,29,29,,,,,,,,,,,,,,,,,main,None,None,1,1.4988981001079082,275.22329119988717,None,None,1,,,,,,,,,,,,,,203,2023-03-27_17h26.24.888,Main,2022.1.1,60.02721636544846,
positive,blue,1,k,None,,,,,,,,,0,30,30,30,,,,,,,,,,,,,,,,,main,None,None,1,1.498934900155291,277.7232220999431,None,None,1,,,,,,,,,,,,,,203,2023-03-27_17h26.24.888,Main,2022.1.1,60.02721636544846,
positive,yellow,1,None,k,,,,,,,,,0,31,31,31,,,,,,,,,,,,,,,,,main,k,k,1,0.9629049999639392,280.2260829999577,None,None,0,,,,,,,,,,,,,,203,2023-03-27_17h26.24.888,Main,2022.1.1,60.02721636544846,
negative,yellow,2,k,None,,,,,,,,,0,32,32,32,,,,,,,,,,,,,,,,,main,None,None,1,1.502036200137809,282.18973009986803,None,None,1,,,,,,,,,,,,,,203,2023-03-27_17h26.24.888,Main,2022.1.1,60.02721636544846,
negative,blue,1,None,k,,,,,,,,,0,33,33,33,,,,,,,,,,,,,,,,,main,k,k,1,0.8325559000950307,284.69264069991186,None,None,0,,,,,,,,,,,,,,203,2023-03-27_17h26.24.888,Main,2022.1.1,60.02721636544846,
positive,blue,1,k,None,,,,,,,,,0,34,34,34,,,,,,,,,,,,,,,,,main,None,None,1,1.49912070017308,286.52607350004837,None,None,1,,,,,,,,,,,,,,203,2023-03-27_17h26.24.888,Main,2022.1.1,60.02721636544846,
negative,yellow,1,k,None,,,,,,,,,0,35,35,35,,,,,,,,,,,,,,,,,main,None,None,1,1.499050399987027,289.0260471000802,None,None,1,,,,,,,,,,,,,,203,2023-03-27_17h26.24.888,Main,2022.1.1,60.02721636544846,
positive,yellow,2,None,k,,,,,,,,,0,36,36,36,,,,,,,,,,,,,,,,,main,k,k,1,0.8157361999619752,291.5258432999253,None,None,0,,,,,,,,,,,,,,203,2023-03-27_17h26.24.888,Main,2022.1.1,60.02721636544846,
positive,yellow,2,None,k,,,,,,,,,0,37,37,37,,,,,,,,,,,,,,,,,main,k,k,1,0.8491385001689196,293.34252219996415,None,None,0,,,,,,,,,,,,,,203,2023-03-27_17h26.24.888,Main,2022.1.1,60.02721636544846,
negative,yellow,2,k,None,,,,,,,,,0,38,38,38,,,,,,,,,,,,,,,,,main,None,None,1,1.4963175000157207,295.19237919989973,None,None,1,,,,,,,,,,,,,,203,2023-03-27_17h26.24.888,Main,2022.1.1,60.02721636544846,
positive,yellow,1,None,k,,,,,,,,,0,39,39,39,,,,,,,,,,,,,,,,,main,k,k,1,1.0826637998688966,297.6924234998878,None,None,0,,,,,,,,,,,,,,203,2023-03-27_17h26.24.888,Main,2022.1.1,60.02721636544846,
negative,yellow,2,k,None,,,,,,,,,0,40,40,40,,,,,,,,,,,,,,,,,main,None,None,1,1.4985137998592108,299.77566560008563,None,None,1,,,,,,,,,,,,,,203,2023-03-27_17h26.24.888,Main,2022.1.1,60.02721636544846,
positive,blue,2,k,None,,,,,,,,,0,41,41,41,,,,,,,,,,,,,,,,,main,None,None,1,1.5023001998197287,302.27351389988326,None,None,1,,,,,,,,,,,,,,203,2023-03-27_17h26.24.888,Main,2022.1.1,60.02721636544846,
positive,blue,2,k,None,,,,,,,,,0,42,42,42,,,,,,,,,,,,,,,,,main,None,None,1,1.4990949998609722,304.7757174000144,None,None,1,,,,,,,,,,,,,,203,2023-03-27_17h26.24.888,Main,2022.1.1,60.02721636544846,
negative,blue,2,None,k,,,,,,,,,0,43,43,43,,,,,,,,,,,,,,,,,main,k,k,1,0.7963698001112789,307.27565129986033,None,None,0,,,,,,,,,,,,,,203,2023-03-27_17h26.24.888,Main,2022.1.1,60.02721636544846,
negative,red,1,None,None,,,,,,,,,0,44,44,44,,,,,,,,,,,,,,,,,main,None,None,1,1.5015092000830919,309.07551399990916,None,None,1,,,,,,,,,,,,,,203,2023-03-27_17h26.24.888,Main,2022.1.1,60.02721636544846,
negative,yellow,1,k,None,,,,,,,,,0,45,45,45,,,,,,,,,,,,,,,,,main,None,None,1,1.499169599963352,311.57531969994307,None,None,1,,,,,,,,,,,,,,203,2023-03-27_17h26.24.888,Main,2022.1.1,60.02721636544846,
negative,yellow,1,k,None,,,,,,,,,0,46,46,46,,,,,,,,,,,,,,,,,main,None,None,1,1.4968538000248373,314.0724750000518,None,None,1,,,,,,,,,,,,,,203,2023-03-27_17h26.24.888,Main,2022.1.1,60.02721636544846,
positive,red,1,None,None,,,,,,,,,0,47,47,47,,,,,,,,,,,,,,,,,main,None,None,1,1.5015744999982417,316.5754002998583,None,None,1,,,,,,,,,,,,,,203,2023-03-27_17h26.24.888,Main,2022.1.1,60.02721636544846,
positive,yellow,1,None,k,,,,,,,,,0,48,48,48,,,,,,,,,,,,,,,,,main,k,k,1,0.966212400002405,319.075266599888,None,None,0,,,,,,,,,,,,,,203,2023-03-27_17h26.24.888,Main,2022.1.1,60.02721636544846,
negative,blue,1,None,k,,,,,,,,,0,49,49,49,,,,,,,,,,,,,,,,,main,k,k,1,0.8792189999949187,321.039043399971,None,None,0,,,,,,,,,,,,,,203,2023-03-27_17h26.24.888,Main,2022.1.1,60.02721636544846,
positive,yellow,2,None,k,,,,,,,,,0,50,50,50,,,,,,,,,,,,,,,,,main,k,k,1,0.8492419000249356,322.9220590000041,None,None,0,,,,,,,,,,,,,,203,2023-03-27_17h26.24.888,Main,2022.1.1,60.02721636544846,
negative,blue,1,None,k,,,,,,,,,0,51,51,51,,,,,,,,,,,,,,,,,main,k,k,1,0.7661188000347465,324.7720609998796,None,None,0,,,,,,,,,,,,,,203,2023-03-27_17h26.24.888,Main,2022.1.1,60.02721636544846,
positive,red,2,None,None,,,,,,,,,0,52,52,52,,,,,,,,,,,,,,,,,main,None,None,1,1.5016314999666065,326.5391635999549,None,None,1,,,,,,,,,,,,,,203,2023-03-27_17h26.24.888,Main,2022.1.1,60.02721636544846,
positive,yellow,2,None,k,,,,,,,,,0,53,53,53,,,,,,,,,,,,,,,,,main,k,k,1,0.7632404000032693,329.0389948000666,None,None,0,,,,,,,,,,,,,,203,2023-03-27_17h26.24.888,Main,2022.1.1,60.02721636544846,
negative,red,2,None,None,,,,,,,,,0,54,54,54,,,,,,,,,,,,,,,,,main,None,None,1,1.5013970001600683,330.808406899916,None,None,1,,,,,,,,,,,,,,203,2023-03-27_17h26.24.888,Main,2022.1.1,60.02721636544846,
positive,yellow,1,None,k,,,,,,,,,0,55,55,55,,,,,,,,,,,,,,,,,main,k,k,1,0.816215300001204,333.3082741999533,None,None,0,,,,,,,,,,,,,,203,2023-03-27_17h26.24.888,Main,2022.1.1,60.02721636544846,
negative,blue,2,None,k,,,,,,,,,0,56,56,56,,,,,,,,,,,,,,,,,main,k,k,1,0.6794706000946462,335.12498899991624,None,None,0,,,,,,,,,,,,,,203,2023-03-27_17h26.24.888,Main,2022.1.1,60.02721636544846,
positive,blue,1,k,None,,,,,,,,,0,57,57,57,,,,,,,,,,,,,,,,,main,None,None,1,1.501909099984914,336.80546379997395,None,None,1,,,,,,,,,,,,,,203,2023-03-27_17h26.24.888,Main,2022.1.1,60.02721636544846,
positive,blue,1,k,None,,,,,,,,,0,58,58,58,,,,,,,,,,,,,,,,,main,None,None,1,1.4991039999295026,339.30828309990466,None,None,1,,,,,,,,,,,,,,203,2023-03-27_17h26.24.888,Main,2022.1.1,60.02721636544846,
negative,yellow,2,k,None,,,,,,,,,0,59,59,59,,,,,,,,,,,,,,,,,main,None,None,1,1.4957334999926388,341.80533390003256,None,None,1,,,,,,,,,,,,,,203,2023-03-27_17h26.24.888,Main,2022.1.1,60.02721636544846,
positive,red,2,None,None,,,,,,,,,0,60,60,60,,,,,,,,,,,,,,,,,main,None,None,1,1.5025915999431163,344.30512570007704,None,None,1,,,,,,,,,,,,,,203,2023-03-27_17h26.24.888,Main,2022.1.1,60.02721636544846,
negative,yellow,1,k,None,,,,,,,,,0,61,61,61,,,,,,,,,,,,,,,,,main,None,None,1,1.4988269000314176,346.8083651000634,None,None,1,,,,,,,,,,,,,,203,2023-03-27_17h26.24.888,Main,2022.1.1,60.02721636544846,
negative,red,1,None,None,,,,,,,,,0,62,62,62,,,,,,,,,,,,,,,,,main,None,None,1,1.5034227999858558,349.3052926999517,None,None,1,,,,,,,,,,,,,,203,2023-03-27_17h26.24.888,Main,2022.1.1,60.02721636544846,
negative,blue,1,None,k,,,,,,,,,0,63,63,63,,,,,,,,,,,,,,,,,main,k,k,1,0.8929290000814945,351.81111290003173,None,None,0,,,,,,,,,,,,,,203,2023-03-27_17h26.24.888,Main,2022.1.1,60.02721636544846,
positive,blue,2,k,None,,,,,,,,,0,64,64,64,,,,,,,,,,,,,,,,,main,None,None,1,1.4988106000237167,353.7047522999346,None,None,1,,,,,,,,,,,,,,203,2023-03-27_17h26.24.888,Main,2022.1.1,60.02721636544846,
negative,yellow,2,k,None,,,,,,,,,0,65,65,65,,,,,,,,,,,,,,,,,main,None,None,1,1.4993507999461144,356.20476830005646,None,None,1,,,,,,,,,,,,,,203,2023-03-27_17h26.24.888,Main,2022.1.1,60.02721636544846,
positive,yellow,2,None,k,,,,,,,,,0,66,66,66,,,,,,,,,,,,,,,,,main,k,k,1,0.9650695999152958,358.7080808999017,None,None,0,,,,,,,,,,,,,,203,2023-03-27_17h26.24.888,Main,2022.1.1,60.02721636544846,
positive,yellow,2,None,k,,,,,,,,,0,67,67,67,,,,,,,,,,,,,,,,,main,k,k,1,0.8516861998941749,360.67450379999354,None,None,0,,,,,,,,,,,,,,203,2023-03-27_17h26.24.888,Main,2022.1.1,60.02721636544846,
positive,red,1,None,None,,,,,,,,,0,68,68,68,,,,,,,,,,,,,,,,,main,None,None,1,1.498858599923551,362.5244549000636,None,None,1,,,,,,,,,,,,,,203,2023-03-27_17h26.24.888,Main,2022.1.1,60.02721636544846,
positive,yellow,1,None,k,,,,,,,,,0,69,69,69,,,,,,,,,,,,,,,,,main,k,k,1,0.84978840011172,365.0242673999164,None,None,0,,,,,,,,,,,,,,203,2023-03-27_17h26.24.888,Main,2022.1.1,60.02721636544846,
negative,yellow,2,k,None,,,,,,,,,0,70,70,70,,,,,,,,,,,,,,,,,main,None,None,1,1.4988190999720246,366.8714753999375,None,None,1,,,,,,,,,,,,,,203,2023-03-27_17h26.24.888,Main,2022.1.1,60.02721636544846,
positive,yellow,1,None,k,,,,,,,,,0,71,71,71,,,,,,,,,,,,,,,,,main,k,k,1,0.863251999951899,369.3744135000743,None,None,0,,,,,,,,,,,,,,203,2023-03-27_17h26.24.888,Main,2022.1.1,60.02721636544846,
negative,blue,1,None,k,,,,,,,,,0,72,72,72,,,,,,,,,,,,,,,,,main,k,k,1,0.7657351999077946,371.24101009988226,None,None,0,,,,,,,,,,,,,,203,2023-03-27_17h26.24.888,Main,2022.1.1,60.02721636544846,
negative,red,2,None,None,,,,,,,,,0,73,73,73,,,,,,,,,,,,,,,,,main,None,None,1,1.4887275001965463,373.0050798000302,None,None,1,,,,,,,,,,,,,,203,2023-03-27_17h26.24.888,Main,2022.1.1,60.02721636544846,
positive,blue,2,k,None,,,,,,,,,0,74,74,74,,,,,,,,,,,,,,,,,main,None,None,1,1.4922784001100808,375.493630199926,None,None,1,,,,,,,,,,,,,,203,2023-03-27_17h26.24.888,Main,2022.1.1,60.02721636544846,
negative,blue,2,None,k,,,,,,,,,0,75,75,75,,,,,,,,,,,,,,,,,main,k,k,1,0.8691912000067532,377.9876705999486,None,None,0,,,,,,,,,,,,,,203,2023-03-27_17h26.24.888,Main,2022.1.1,60.02721636544846,
negative,blue,2,None,k,,,,,,,,,0,76,76,76,,,,,,,,,,,,,,,,,main,k,k,1,0.8324172999709845,379.85760019999,None,None,0,,,,,,,,,,,,,,203,2023-03-27_17h26.24.888,Main,2022.1.1,60.02721636544846,
negative,yellow,1,k,None,,,,,,,,,0,77,77,77,,,,,,,,,,,,,,,,,main,None,None,1,1.4979354999959469,381.6907937999349,None,None,1,,,,,,,,,,,,,,203,2023-03-27_17h26.24.888,Main,2022.1.1,60.02721636544846,
positive,blue,1,k,None,,,,,,,,,0,78,78,78,,,,,,,,,,,,,,,,,main,None,None,1,1.4981257999315858,384.1878778000828,None,None,1,,,,,,,,,,,,,,203,2023-03-27_17h26.24.888,Main,2022.1.1,60.02721636544846,
positive,blue,1,k,None,,,,,,,,,0,79,79,79,,,,,,,,,,,,,,,,,main,None,None,1,1.4981734999455512,386.68773139989935,None,None,1,,,,,,,,,,,,,,203,2023-03-27_17h26.24.888,Main,2022.1.1,60.02721636544846,
positive,red,2,None,None,,,,,,,,,0,80,80,80,,,,,,,,,,,,,,,,,main,None,None,1,1.4980712998658419,389.1905463999137,None,None,1,,,,,,,,,,,,,,203,2023-03-27_17h26.24.888,Main,2022.1.1,60.02721636544846,
positive,yellow,2,None,k,,,,,,,,,0,81,81,81,,,,,,,,,,,,,,,,,main,k,k,1,0.8487774999812245,391.6876258999109,None,None,0,,,,,,,,,,,,,,203,2023-03-27_17h26.24.888,Main,2022.1.1,60.02721636544846,
positive,blue,1,k,None,,,,,,,,,0,82,82,82,,,,,,,,,,,,,,,,,main,None,None,1,1.4990150001831353,393.54047690005973,None,None,1,,,,,,,,,,,,,,203,2023-03-27_17h26.24.888,Main,2022.1.1,60.02721636544846,
negative,yellow,2,k,None,,,,,,,,,0,83,83,83,,,,,,,,,,,,,,,,,main,None,None,1,1.4957705999258906,396.04044610005803,None,None,1,,,,,,,,,,,,,,203,2023-03-27_17h26.24.888,Main,2022.1.1,60.02721636544846,
positive,blue,2,k,None,,,,,,,,,0,84,84,84,,,,,,,,,,,,,,,,,main,None,None,1,1.502252799924463,398.5373976000119,None,None,1,,,,,,,,,,,,,,203,2023-03-27_17h26.24.888,Main,2022.1.1,60.02721636544846,
positive,yellow,1,None,k,,,,,,,,,0,85,85,85,,,,,,,,,,,,,,,,,main,k,k,1,0.882608599960804,401.0375687999185,None,None,0,,,,,,,,,,,,,,203,2023-03-27_17h26.24.888,Main,2022.1.1,60.02721636544846,
positive,blue,2,k,None,,,,,,,,,0,86,86,86,,,,,,,,,,,,,,,,,main,None,None,1,1.4953658999875188,402.92370869987644,None,None,1,,,,,,,,,,,,,,203,2023-03-27_17h26.24.888,Main,2022.1.1,60.02721636544846,
positive,blue,1,k,None,,,,,,,,,0,87,87,87,,,,,,,,,,,,,,,,,main,None,None,1,1.5007490999996662,405.4236421000678,None,None,1,,,,,,,,,,,,,,203,2023-03-27_17h26.24.888,Main,2022.1.1,60.02721636544846,
negative,yellow,2,k,None,,,,,,,,,0,88,88,88,,,,,,,,,,,,,,,,,main,None,None,1,1.4981332998722792,407.9206045998726,None,None,1,,,,,,,,,,,,,,203,2023-03-27_17h26.24.888,Main,2022.1.1,60.02721636544846,
negative,blue,2,None,k,,,,,,,,,0,89,89,89,,,,,,,,,,,,,,,,,main,k,k,1,0.828864400042221,410.4234698000364,None,None,0,,,,,,,,,,,,,,203,2023-03-27_17h26.24.888,Main,2022.1.1,60.02721636544846,
positive,yellow,2,None,k,,,,,,,,,0,90,90,90,,,,,,,,,,,,,,,,,main,k,k,1,0.865948999999091,412.25388429989107,None,None,0,,,,,,,,,,,,,,203,2023-03-27_17h26.24.888,Main,2022.1.1,60.02721636544846,
negative,yellow,1,k,None,,,,,,,,,0,91,91,91,,,,,,,,,,,,,,,,,main,None,None,1,1.499000099953264,414.1233931998722,None,None,1,,,,,,,,,,,,,,203,2023-03-27_17h26.24.888,Main,2022.1.1,60.02721636544846,
negative,red,2,None,None,,,,,,,,,0,92,92,92,,,,,,,,,,,,,,,,,main,None,None,1,1.498815800063312,416.6233586000744,None,None,1,,,,,,,,,,,,,,203,2023-03-27_17h26.24.888,Main,2022.1.1,60.02721636544846,
negative,blue,2,None,k,,,,,,,,,0,93,93,93,,,,,,,,,,,,,,,,,main,k,k,1,0.8659902999643236,419.1201315999497,None,None,0,,,,,,,,,,,,,,203,2023-03-27_17h26.24.888,Main,2022.1.1,60.02721636544846,
negative,blue,1,None,k,,,,,,,,,0,94,94,94,,,,,,,,,,,,,,,,,main,k,k,1,1.132883499842137,420.9868383000139,None,None,0,,,,,,,,,,,,,,203,2023-03-27_17h26.24.888,Main,2022.1.1,60.02721636544846,
negative,blue,1,None,k,,,,,,,,,0,95,95,95,,,,,,,,,,,,,,,,,main,k,k,1,0.8849816999863833,423.1233479999937,None,None,0,,,,,,,,,,,,,,203,2023-03-27_17h26.24.888,Main,2022.1.1,60.02721636544846,
negative,red,1,None,None,,,,,,,,,0,96,96,96,,,,,,,,,,,,,,,,,main,None,None,1,1.499002599855885,425.0037461000029,None,None,1,,,,,,,,,,,,,,203,2023-03-27_17h26.24.888,Main,2022.1.1,60.02721636544846,
positive,yellow,1,None,k,,,,,,,,,0,97,97,97,,,,,,,,,,,,,,,,,main,k,k,1,0.9163542001042515,427.5064459000714,None,None,0,,,,,,,,,,,,,,203,2023-03-27_17h26.24.888,Main,2022.1.1,60.02721636544846,
negative,yellow,1,k,None,,,,,,,,,0,98,98,98,,,,,,,,,,,,,,,,,main,None,None,1,1.4987302001100034,429.420206699986,None,None,1,,,,,,,,,,,,,,203,2023-03-27_17h26.24.888,Main,2022.1.1,60.02721636544846,
positive,red,1,None,None,,,,,,,,,0,99,99,99,,,,,,,,,,,,,,,,,main,None,None,1,1.4990467000752687,431.9202032000758,None,None,1,,,,,,,,,,,,,,203,2023-03-27_17h26.24.888,Main,2022.1.1,60.02721636544846,
positive,blue,1,k,None,,,,,,,,,0,100,100,100,,,,,,,,,,,,,,,,,main,None,None,1,1.496426000026986,434.4229335000273,None,None,1,,,,,,,,,,,,,,203,2023-03-27_17h26.24.888,Main,2022.1.1,60.02721636544846,
negative,yellow,1,k,None,,,,,,,,,0,101,101,101,,,,,,,,,,,,,,,,,main,None,None,1,1.49907820019871,436.9200881998986,None,None,1,,,,,,,,,,,,,,203,2023-03-27_17h26.24.888,Main,2022.1.1,60.02721636544846,
negative,blue,2,None,k,,,,,,,,,0,102,102,102,,,,,,,,,,,,,,,,,main,k,k,1,0.8163178998511285,439.42030879994854,None,None,0,,,,,,,,,,,,,,203,2023-03-27_17h26.24.888,Main,2022.1.1,60.02721636544846,
negative,yellow,2,k,None,,,,,,,,,0,103,103,103,,,,,,,,,,,,,,,,,main,None,None,1,1.5013989000581205,441.23639740003273,None,None,1,,,,,,,,,,,,,,203,2023-03-27_17h26.24.888,Main,2022.1.1,60.02721636544846,
positive,yellow,2,None,k,,,,,,,,,0,104,104,104,,,,,,,,,,,,,,,,,main,k,k,1,0.8327789998147637,443.73959339992143,None,None,0,,,,,,,,,,,,,,203,2023-03-27_17h26.24.888,Main,2022.1.1,60.02721636544846,
positive,blue,1,k,None,,,,,,,,,0,105,105,105,,,,,,,,,,,,,,,,,main,None,None,1,1.4991840000730008,445.57283389987424,None,None,1,,,,,,,,,,,,,,203,2023-03-27_17h26.24.888,Main,2022.1.1,60.02721636544846,
positive,blue,2,k,None,,,,,,,,,0,106,106,106,,,,,,,,,,,,,,,,,main,None,None,1,1.4955418999306858,448.0728380999062,None,None,1,,,,,,,,,,,,,,203,2023-03-27_17h26.24.888,Main,2022.1.1,60.02721636544846,
negative,blue,1,None,k,,,,,,,,,0,107,107,107,,,,,,,,,,,,,,,,,main,k,k,1,0.8362070000730455,450.5695257000625,None,None,0,,,,,,,,,,,,,,203,2023-03-27_17h26.24.888,Main,2022.1.1,60.02721636544846,
positive,yellow,2,None,k,,,,,,,,,0,108,108,108,,,,,,,,,,,,,,,,,main,k,k,1,0.9129093000665307,452.4060867000371,None,None,0,,,,,,,,,,,,,,203,2023-03-27_17h26.24.888,Main,2022.1.1,60.02721636544846,
negative,yellow,1,k,None,,,,,,,,,0,109,109,109,,,,,,,,,,,,,,,,,main,None,None,1,1.5014190000947565,454.32002229988575,None,None,1,,,,,,,,,,,,,,203,2023-03-27_17h26.24.888,Main,2022.1.1,60.02721636544846,
negative,blue,2,None,k,,,,,,,,,0,110,110,110,,,,,,,,,,,,,,,,,main,k,k,1,0.8533542000222951,456.8225787000265,None,None,0,,,,,,,,,,,,,,203,2023-03-27_17h26.24.888,Main,2022.1.1,60.02721636544846,
positive,blue,2,k,None,,,,,,,,,0,111,111,111,,,,,,,,,,,,,,,,,main,None,None,1,1.49210699996911,458.68156259995885,None,None,1,,,,,,,,,,,,,,203,2023-03-27_17h26.24.888,Main,2022.1.1,60.02721636544846,
negative,blue,1,None,k,,,,,,,,,0,112,112,112,,,,,,,,,,,,,,,,,main,k,k,1,0.7828624998219311,461.16953979991376,None,None,0,,,,,,,,,,,,,,203,2023-03-27_17h26.24.888,Main,2022.1.1,60.02721636544846,
positive,yellow,1,None,k,,,,,,,,,0,113,113,113,,,,,,,,,,,,,,,,,main,k,k,1,0.7683451999910176,462.9558834999334,None,None,0,,,,,,,,,,,,,,203,2023-03-27_17h26.24.888,Main,2022.1.1,60.02721636544846,
negative,red,1,None,None,,,,,,,,,0,114,114,114,,,,,,,,,,,,,,,,,main,None,None,1,1.4989895999897271,464.722472500056,None,None,1,,,,,,,,,,,,,,203,2023-03-27_17h26.24.888,Main,2022.1.1,60.02721636544846,
positive,red,1,None,None,,,,,,,,,0,115,115,115,,,,,,,,,,,,,,,,,main,None,None,1,1.4988495998550206,467.2224123000633,None,None,1,,,,,,,,,,,,,,203,2023-03-27_17h26.24.888,Main,2022.1.1,60.02721636544846,
negative,red,2,None,None,,,,,,,,,0,116,116,116,,,,,,,,,,,,,,,,,main,None,None,1,1.499137399950996,469.72227269993164,None,None,1,,,,,,,,,,,,,,203,2023-03-27_17h26.24.888,Main,2022.1.1,60.02721636544846,
negative,yellow,2,k,None,,,,,,,,,0,117,117,117,,,,,,,,,,,,,,,,,main,None,None,1,1.4987924001179636,472.2221589998808,None,None,1,,,,,,,,,,,,,,203,2023-03-27_17h26.24.888,Main,2022.1.1,60.02721636544846,
positive,yellow,1,None,k,,,,,,,,,0,118,118,118,,,,,,,,,,,,,,,,,main,k,k,1,0.8968302998691797,474.71931799990125,None,None,0,,,,,,,,,,,,,,203,2023-03-27_17h26.24.888,Main,2022.1.1,60.02721636544846,
positive,red,2,None,None,,,,,,,,,0,119,119,119,,,,,,,,,,,,,,,,,main,None,None,1,1.5061612999998033,476.62211510003544,None,None,1,,,,,,,,,,,,,,203,2023-03-27_17h26.24.888,Main,2022.1.1,60.02721636544846,
positive,blue,2,k,None,,,,,,,,,0,120,120,120,,,,,,,,,,,,,,,,,main,None,None,1,1.495072899851948,479.1244971000124,None,None,1,,,,,,,,,,,,,,203,2023-03-27_17h26.24.888,Main,2022.1.1,60.02721636544846,
negative,red,1,None,None,,,,,,,,,0,121,121,121,,,,,,,,,,,,,,,,,main,None,None,1,1.4988488999661058,481.622193899937,None,None,1,,,,,,,,,,,,,,203,2023-03-27_17h26.24.888,Main,2022.1.1,60.02721636544846,
positive,yellow,2,None,k,,,,,,,,,0,122,122,122,,,,,,,,,,,,,,,,,main,k,k,1,0.7828935000579804,484.12212689989246,None,None,0,,,,,,,,,,,,,,203,2023-03-27_17h26.24.888,Main,2022.1.1,60.02721636544846,
negative,red,2,None,None,,,,,,,,,0,123,123,123,,,,,,,,,,,,,,,,,main,None,None,1,1.498798299813643,485.9053291999735,None,None,1,,,,,,,,,,,,,,203,2023-03-27_17h26.24.888,Main,2022.1.1,60.02721636544846,
negative,yellow,2,k,None,,,,,,,,,0,124,124,124,,,,,,,,,,,,,,,,,main,None,None,1,1.4989783000200987,488.4023666998837,None,None,1,,,,,,,,,,,,,,203,2023-03-27_17h26.24.888,Main,2022.1.1,60.02721636544846,
positive,red,1,None,None,,,,,,,,,0,125,125,125,,,,,,,,,,,,,,,,,main,None,None,1,1.499070700025186,490.90235370001756,None,None,1,,,,,,,,,,,,,,203,2023-03-27_17h26.24.888,Main,2022.1.1,60.02721636544846,
negative,blue,2,None,k,,,,,,,,,0,126,126,126,,,,,,,,,,,,,,,,,main,k,k,1,0.7629452000837773,493.40513109997846,None,None,0,,,,,,,,,,,,,,203,2023-03-27_17h26.24.888,Main,2022.1.1,60.02721636544846,
negative,blue,1,None,k,,,,,,,,,0,127,127,127,,,,,,,,,,,,,,,,,main,k,k,1,0.8661214001476765,495.1689226999879,None,None,0,,,,,,,,,,,,,,203,2023-03-27_17h26.24.888,Main,2022.1.1,60.02721636544846,
negative,yellow,1,k,None,,,,,,,,,0,128,128,128,,,,,,,,,,,,,,,,,main,None,None,1,1.5016824000049382,497.0355795000214,None,None,1,,,,,,,,,,,,,,203,2023-03-27_17h26.24.888,Main,2022.1.1,60.02721636544846,
negative,yellow,1,k,None,,,,,,,,,0,129,129,129,,,,,,,,,,,,,,,,,main,None,None,1,1.4957502000033855,499.53839919995517,None,None,1,,,,,,,,,,,,,,203,2023-03-27_17h26.24.888,Main,2022.1.1,60.02721636544846,
positive,blue,1,k,None,,,,,,,,,0,130,130,130,,,,,,,,,,,,,,,,,main,None,None,1,1.5024042001459748,502.0352687998675,None,None,1,,,,,,,,,,,,,,203,2023-03-27_17h26.24.888,Main,2022.1.1,60.02721636544846,
negative,blue,1,None,k,,,,,,,,,0,131,131,131,,,,,,,,,,,,,,,,,main,k,k,1,0.8797772999387234,504.53842799994163,None,None,0,,,,,,,,,,,,,,203,2023-03-27_17h26.24.888,Main,2022.1.1,60.02721636544846,
negative,blue,2,None,k,,,,,,,,,0,132,132,132,,,,,,,,,,,,,,,,,main,k,k,1,0.8018209000583738,506.4216406000778,None,None,0,,,,,,,,,,,,,,203,2023-03-27_17h26.24.888,Main,2022.1.1,60.02721636544846,
positive,blue,2,k,None,,,,,,,,,0,133,133,133,,,,,,,,,,,,,,,,,main,None,None,1,1.4986471000593156,508.22155550005846,None,None,1,,,,,,,,,,,,,,203,2023-03-27_17h26.24.888,Main,2022.1.1,60.02721636544846,
positive,red,2,None,None,,,,,,,,,0,134,134,134,,,,,,,,,,,,,,,,,main,None,None,1,1.4992549999151379,510.7185456000734,None,None,1,,,,,,,,,,,,,,203,2023-03-27_17h26.24.888,Main,2022.1.1,60.02721636544846,
negative,yellow,2,k,None,,,,,,,,,0,135,135,135,,,,,,,,,,,,,,,,,main,None,None,1,1.4963501999154687,513.2185488999821,None,None,1,,,,,,,,,,,,,,203,2023-03-27_17h26.24.888,Main,2022.1.1,60.02721636544846,
positive,yellow,2,None,k,,,,,,,,,0,136,136,136,,,,,,,,,,,,,,,,,main,k,k,1,0.8020269998814911,515.7214285000227,None,None,0,,,,,,,,,,,,,,203,2023-03-27_17h26.24.888,Main,2022.1.1,60.02721636544846,
positive,blue,1,k,None,,,,,,,,,0,137,137,137,,,,,,,,,,,,,,,,,main,None,None,1,1.4965000001247972,517.5184784999583,None,None,1,,,,,,,,,,,,,,203,2023-03-27_17h26.24.888,Main,2022.1.1,60.02721636544846,
positive,yellow,1,None,k,,,,,,,,,0,138,138,138,,,,,,,,,,,,,,,,,main,k,k,1,0.9988057999871671,520.0213967999443,None,None,0,,,,,,,,,,,,,,203,2023-03-27_17h26.24.888,Main,2022.1.1,60.02721636544846,
positive,yellow,1,None,k,,,,,,,,,0,139,139,139,,,,,,,,,,,,,,,,,main,k,k,1,0.9482353001367301,522.018359699985,None,None,0,,,,,,,,,,,,,,203,2023-03-27_17h26.24.888,Main,2022.1.1,60.02721636544846,
positive,yellow,1,None,k,,,,,,,,,0,140,140,140,,,,,,,,,,,,,,,,,main,k,k,1,0.7853433999698609,523.9681031999644,None,None,0,,,,,,,,,,,,,,203,2023-03-27_17h26.24.888,Main,2022.1.1,60.02721636544846,
positive,blue,1,k,None,,,,,,,,,0,141,141,141,,,,,,,,,,,,,,,,,main,None,None,1,1.4983421999495476,525.7517047999427,None,None,1,,,,,,,,,,,,,,203,2023-03-27_17h26.24.888,Main,2022.1.1,60.02721636544846,
positive,blue,2,k,None,,,,,,,,,0,142,142,142,,,,,,,,,,,,,,,,,main,None,None,1,1.4979932999704033,528.2517085000873,None,None,1,,,,,,,,,,,,,,203,2023-03-27_17h26.24.888,Main,2022.1.1,60.02721636544846,
positive,yellow,2,None,k,,,,,,,,,0,143,143,143,,,,,,,,,,,,,,,,,main,k,k,1,0.9956035001669079,530.7514986000024,None,None,0,,,,,,,,,,,,,,203,2023-03-27_17h26.24.888,Main,2022.1.1,60.02721636544846,
negative,yellow,2,k,None,,,,,,,,,0,144,144,144,,,,,,,,,,,,,,,,,main,None,None,1,1.5017805001698434,532.7514817998745,None,None,1,,,,,,,,,,,,,,203,2023-03-27_17h26.24.888,Main,2022.1.1,60.02721636544846,
negative,blue,2,None,k,,,,,,,,,0,145,145,145,,,,,,,,,,,,,,,,,main,k,k,1,0.7128971000202,535.2543178999331,None,None,0,,,,,,,,,,,,,,203,2023-03-27_17h26.24.888,Main,2022.1.1,60.02721636544846,
negative,red,1,None,None,,,,,,,,,0,146,146,146,,,,,,,,,,,,,,,,,main,None,None,1,1.50213409983553,536.968076299876,None,None,1,,,,,,,,,,,,,,203,2023-03-27_17h26.24.888,Main,2022.1.1,60.02721636544846,
positive,blue,1,k,None,,,,,,,,,0,147,147,147,,,,,,,,,,,,,,,,,main,None,None,1,1.499102700036019,539.4680810000282,None,None,1,,,,,,,,,,,,,,203,2023-03-27_17h26.24.888,Main,2022.1.1,60.02721636544846,
positive,yellow,1,None,k,,,,,,,,,0,148,148,148,,,,,,,,,,,,,,,,,main,k,k,1,0.8291720999404788,541.9709965998773,None,None,0,,,,,,,,,,,,,,203,2023-03-27_17h26.24.888,Main,2022.1.1,60.02721636544846,
negative,red,2,None,None,,,,,,,,,0,149,149,149,,,,,,,,,,,,,,,,,main,None,None,1,1.5022737998515368,543.8009889998939,None,None,1,,,,,,,,,,,,,,203,2023-03-27_17h26.24.888,Main,2022.1.1,60.02721636544846,
negative,blue,1,None,k,,,,,,,,,0,150,150,150,,,,,,,,,,,,,,,,,main,k,k,1,0.7658303000498563,546.3045308999717,None,None,0,,,,,,,,,,,,,,203,2023-03-27_17h26.24.888,Main,2022.1.1,60.02721636544846,
negative,yellow,2,k,None,,,,,,,,,0,151,151,151,,,,,,,,,,,,,,,,,main,None,None,1,1.4990695999003947,548.0708027998917,None,None,1,,,,,,,,,,,,,,203,2023-03-27_17h26.24.888,Main,2022.1.1,60.02721636544846,
negative,blue,2,None,k,,,,,,,,,0,152,152,152,,,,,,,,,,,,,,,,,main,k,k,1,0.932552499929443,550.5707874998916,None,None,0,,,,,,,,,,,,,,203,2023-03-27_17h26.24.888,Main,2022.1.1,60.02721636544846,
negative,yellow,1,k,None,,,,,,,,,0,153,153,153,,,,,,,,,,,,,,,,,main,None,None,1,1.4957580000627786,552.5039005000144,None,None,1,,,,,,,,,,,,,,203,2023-03-27_17h26.24.888,Main,2022.1.1,60.02721636544846,
negative,blue,1,None,k,,,,,,,,,0,154,154,154,,,,,,,,,,,,,,,,,main,k,k,1,0.7996020000427961,555.0038514998741,None,None,0,,,,,,,,,,,,,,203,2023-03-27_17h26.24.888,Main,2022.1.1,60.02721636544846,
positive,yellow,2,None,k,,,,,,,,,0,155,155,155,,,,,,,,,,,,,,,,,main,k,k,1,0.901906699873507,556.8012614999898,None,None,0,,,,,,,,,,,,,,203,2023-03-27_17h26.24.888,Main,2022.1.1,60.02721636544846,
positive,red,2,None,None,,,,,,,,,0,156,156,156,,,,,,,,,,,,,,,,,main,None,None,1,1.496102600125596,558.7010118998587,None,None,1,,,,,,,,,,,,,,203,2023-03-27_17h26.24.888,Main,2022.1.1,60.02721636544846,
positive,red,1,None,None,,,,,,,,,0,157,157,157,,,,,,,,,,,,,,,,,main,None,None,1,1.499102600151673,561.2038775000256,None,None,1,,,,,,,,,,,,,,203,2023-03-27_17h26.24.888,Main,2022.1.1,60.02721636544846,
positive,blue,2,k,None,,,,,,,,,0,158,158,158,,,,,,,,,,,,,,,,,main,None,None,1,1.4987203001510352,563.7009288000409,None,None,1,,,,,,,,,,,,,,203,2023-03-27_17h26.24.888,Main,2022.1.1,60.02721636544846,
negative,yellow,1,k,None,,,,,,,,,0,159,159,159,,,,,,,,,,,,,,,,,main,None,None,1,1.5022499999031425,566.2005425000098,None,None,1,,,,,,,,,,,,,,203,2023-03-27_17h26.24.888,Main,2022.1.1,60.02721636544846,
negative,red,2,None,None,,,,,,,,,0,160,160,160,,,,,,,,,,,,,,,,,main,None,None,1,1.5000114000868052,568.7036496000364,None,None,1,,,,,,,,,,,,,,203,2023-03-27_17h26.24.888,Main,2022.1.1,60.02721636544846,
negative,blue,1,None,k,,,,,,,,,0,161,161,161,,,,,,,,,,,,,,,,,main,k,k,1,0.7624884999822825,571.2037029999774,None,None,0,,,,,,,,,,,,,,203,2023-03-27_17h26.24.888,Main,2022.1.1,60.02721636544846,
negative,blue,1,None,k,,,,,,,,,0,162,162,162,,,,,,,,,,,,,,,,,main,k,k,1,0.7989508998580277,572.9703462000471,None,None,0,,,,,,,,,,,,,,203,2023-03-27_17h26.24.888,Main,2022.1.1,60.02721636544846,
negative,yellow,1,k,None,,,,,,,,,0,163,163,163,,,,,,,,,,,,,,,,,main,None,None,1,1.5013929998967797,574.767279200023,None,None,1,,,,,,,,,,,,,,203,2023-03-27_17h26.24.888,Main,2022.1.1,60.02721636544846,
negative,yellow,1,k,None,,,,,,,,,0,164,164,164,,,,,,,,,,,,,,,,,main,None,None,1,1.4991911998949945,577.2700620999094,None,None,1,,,,,,,,,,,,,,203,2023-03-27_17h26.24.888,Main,2022.1.1,60.02721636544846,
positive,yellow,1,None,k,,,,,,,,,0,165,165,165,,,,,,,,,,,,,,,,,main,k,k,1,0.7800596000161022,579.7700801000465,None,None,0,,,,,,,,,,,,,,203,2023-03-27_17h26.24.888,Main,2022.1.1,60.02721636544846,
negative,red,1,None,None,,,,,,,,,0,166,166,166,,,,,,,,,,,,,,,,,main,None,None,1,1.4988235000055283,581.5534401000477,None,None,1,,,,,,,,,,,,,,203,2023-03-27_17h26.24.888,Main,2022.1.1,60.02721636544846,
negative,yellow,2,k,None,,,,,,,,,0,167,167,167,,,,,,,,,,,,,,,,,main,None,None,1,1.4989588998723775,584.0505421999842,None,None,1,,,,,,,,,,,,,,203,2023-03-27_17h26.24.888,Main,2022.1.1,60.02721636544846,
positive,blue,2,k,None,,,,,,,,,0,168,168,168,,,,,,,,,,,,,,,,,main,None,None,1,1.4988657999783754,586.550150899915,None,None,1,,,,,,,,,,,,,,203,2023-03-27_17h26.24.888,Main,2022.1.1,60.02721636544846,
positive,red,2,None,None,,,,,,,,,0,169,169,169,,,,,,,,,,,,,,,,,main,None,None,1,1.5024033000227064,589.0501534999348,None,None,1,,,,,,,,,,,,,,203,2023-03-27_17h26.24.888,Main,2022.1.1,60.02721636544846,
positive,red,1,None,None,,,,,,,,,0,170,170,170,,,,,,,,,,,,,,,,,main,None,None,1,1.4991475001443177,591.5533245999832,None,None,1,,,,,,,,,,,,,,203,2023-03-27_17h26.24.888,Main,2022.1.1,60.02721636544846,
negative,blue,2,None,k,,,,,,,,,0,171,171,171,,,,,,,,,,,,,,,,,main,k,k,1,0.8041306999512017,594.0533004999161,None,None,0,,,,,,,,,,,,,,203,2023-03-27_17h26.24.888,Main,2022.1.1,60.02721636544846,
positive,blue,2,k,None,,,,,,,,,0,172,172,172,,,,,,,,,,,,,,,,,main,None,None,1,1.4940083001274616,595.8631629000884,None,None,1,,,,,,,,,,,,,,203,2023-03-27_17h26.24.888,Main,2022.1.1,60.02721636544846,
negative,yellow,2,k,None,,,,,,,,,0,173,173,173,,,,,,,,,,,,,,,,,main,None,None,1,1.4990562999155372,598.3504757999908,None,None,1,,,,,,,,,,,,,,203,2023-03-27_17h26.24.888,Main,2022.1.1,60.02721636544846,
positive,yellow,2,None,k,,,,,,,,,0,174,174,174,,,,,,,,,,,,,,,,,main,k,k,1,0.8796800000127405,600.8505045999773,None,None,0,,,,,,,,,,,,,,203,2023-03-27_17h26.24.888,Main,2022.1.1,60.02721636544846,
negative,blue,2,None,k,,,,,,,,,0,175,175,175,,,,,,,,,,,,,,,,,main,k,k,1,0.9326740999240428,602.7362683999818,None,None,0,,,,,,,,,,,,,,203,2023-03-27_17h26.24.888,Main,2022.1.1,60.02721636544846,
positive,blue,1,k,None,,,,,,,,,0,176,176,176,,,,,,,,,,,,,,,,,main,None,None,1,1.5017381999641657,604.6667482000776,None,None,1,,,,,,,,,,,,,,203,2023-03-27_17h26.24.888,Main,2022.1.1,60.02721636544846,
positive,yellow,1,None,k,,,,,,,,,0,177,177,177,,,,,,,,,,,,,,,,,main,k,k,1,1.0294546999502927,607.1696776999161,None,None,0,,,,,,,,,,,,,,203,2023-03-27_17h26.24.888,Main,2022.1.1,60.02721636544846,
positive,blue,1,k,None,,,,,,,,,0,178,178,178,,,,,,,,,,,,,,,,,main,None,None,1,1.4988865999039263,609.2068296000361,None,None,1,,,,,,,,,,,,,,203,2023-03-27_17h26.24.888,Main,2022.1.1,60.02721636544846,
positive,yellow,2,None,k,,,,,,,,,0,179,179,179,,,,,,,,,,,,,,,,,main,k,k,1,0.8691583999898285,611.6996953999624,None,None,0,,,,,,,,,,,,,,203,2023-03-27_17h26.24.888,Main,2022.1.1,60.02721636544846,
positive,blue,1,k,None,,,,,,,,,0,180,180,180,,,,,,,,,,,,,,,,,main,None,None,1,1.4995177001692355,613.569496900076,None,None,1,,,,,,,,,,,,,,203,2023-03-27_17h26.24.888,Main,2022.1.1,60.02721636544846,
negative,red,1,None,None,,,,,,,,,0,181,181,181,,,,,,,,,,,,,,,,,main,None,None,1,1.4982612000312656,616.0694943000562,None,None,1,,,,,,,,,,,,,,203,2023-03-27_17h26.24.888,Main,2022.1.1,60.02721636544846,
negative,blue,1,None,k,,,,,,,,,0,182,182,182,,,,,,,,,,,,,,,,,main,k,k,1,0.9327592998743057,618.5664242000785,None,None,0,,,,,,,,,,,,,,203,2023-03-27_17h26.24.888,Main,2022.1.1,60.02721636544846,
negative,yellow,2,k,None,,,,,,,,,0,183,183,183,,,,,,,,,,,,,,,,,main,None,None,1,1.4991319000255316,620.5000469998922,None,None,1,,,,,,,,,,,,,,203,2023-03-27_17h26.24.888,Main,2022.1.1,60.02721636544846,
positive,yellow,2,None,k,,,,,,,,,0,184,184,184,,,,,,,,,,,,,,,,,main,k,k,1,0.7489791000261903,623.002513299929,None,None,0,,,,,,,,,,,,,,203,2023-03-27_17h26.24.888,Main,2022.1.1,60.02721636544846,
positive,yellow,1,None,k,,,,,,,,,0,185,185,185,,,,,,,,,,,,,,,,,main,k,k,1,1.0963810000102967,624.7496589999646,None,None,0,,,,,,,,,,,,,,203,2023-03-27_17h26.24.888,Main,2022.1.1,60.02721636544846,
positive,red,2,None,None,,,,,,,,,0,186,186,186,,,,,,,,,,,,,,,,,main,None,None,1,1.501925899880007,626.8496328999754,None,None,1,,,,,,,,,,,,,,203,2023-03-27_17h26.24.888,Main,2022.1.1,60.02721636544846,
positive,blue,1,k,None,,,,,,,,,0,187,187,187,,,,,,,,,,,,,,,,,main,None,None,1,1.4959516001399606,629.35260870005,None,None,1,,,,,,,,,,,,,,203,2023-03-27_17h26.24.888,Main,2022.1.1,60.02721636544846,
negative,yellow,1,k,None,,,,,,,,,0,188,188,188,,,,,,,,,,,,,,,,,main,None,None,1,1.50219799997285,631.8492366999853,None,None,1,,,,,,,,,,,,,,203,2023-03-27_17h26.24.888,Main,2022.1.1,60.02721636544846,
positive,yellow,2,None,k,,,,,,,,,0,189,189,189,,,,,,,,,,,,,,,,,main,k,k,1,0.9162463000975549,634.3524295000825,None,None,0,,,,,,,,,,,,,,203,2023-03-27_17h26.24.888,Main,2022.1.1,60.02721636544846,
negative,yellow,2,k,None,,,,,,,,,0,190,190,190,,,,,,,,,,,,,,,,,main,None,None,1,1.4990995998959988,636.2690904000774,None,None,1,,,,,,,,,,,,,,203,2023-03-27_17h26.24.888,Main,2022.1.1,60.02721636544846,
negative,yellow,1,k,None,,,,,,,,,0,191,191,191,,,,,,,,,,,,,,,,,main,None,None,1,1.4985788001213223,638.7689827999566,None,None,1,,,,,,,,,,,,,,203,2023-03-27_17h26.24.888,Main,2022.1.1,60.02721636544846,
positive,blue,2,k,None,,,,,,,,,0,192,192,192,,,,,,,,,,,,,,,,,main,None,None,1,1.4964002999477088,641.2659706999548,None,None,1,,,,,,,,,,,,,,203,2023-03-27_17h26.24.888,Main,2022.1.1,60.02721636544846,
positive,yellow,1,None,k,,,,,,,,,0,193,193,193,,,,,,,,,,,,,,,,,main,k,k,1,0.8357730000279844,643.7659624998923,None,None,0,,,,,,,,,,,,,,203,2023-03-27_17h26.24.888,Main,2022.1.1,60.02721636544846,
negative,red,2,None,None,,,,,,,,,0,194,194,194,,,,,,,,,,,,,,,,,main,None,None,1,1.4983123999554664,645.602083100006,None,None,1,,,,,,,,,,,,,,203,2023-03-27_17h26.24.888,Main,2022.1.1,60.02721636544846,
positive,red,1,None,None,,,,,,,,,0,195,195,195,,,,,,,,,,,,,,,,,main,None,None,1,1.499315599910915,648.102135400055,None,None,1,,,,,,,,,,,,,,203,2023-03-27_17h26.24.888,Main,2022.1.1,60.02721636544846,
negative,blue,1,None,k,,,,,,,,,0,196,196,196,,,,,,,,,,,,,,,,,main,k,k,1,1.012747900094837,650.599454900017,None,None,0,,,,,,,,,,,,,,203,2023-03-27_17h26.24.888,Main,2022.1.1,60.02721636544846,
positive,blue,2,k,None,,,,,,,,,0,197,197,197,,,,,,,,,,,,,,,,,main,None,None,1,1.498773599974811,652.6157072000206,None,None,1,,,,,,,,,,,,,,203,2023-03-27_17h26.24.888,Main,2022.1.1,60.02721636544846,
negative,blue,2,None,k,,,,,,,,,0,198,198,198,,,,,,,,,,,,,,,,,main,k,k,1,0.8360339000355452,655.1154980000574,None,None,0,,,,,,,,,,,,,,203,2023-03-27_17h26.24.888,Main,2022.1.1,60.02721636544846,
negative,blue,2,None,k,,,,,,,,,0,199,199,199,,,,,,,,,,,,,,,,,main,k,k,1,0.7826435999013484,656.9491469999775,None,None,0,,,,,,,,,,,,,,203,2023-03-27_17h26.24.888,Main,2022.1.1,60.02721636544846,
positive,blue,2,k,None,,,,,,,,,0,200,200,200,,,,,,,,,,,,,,,,,main,None,None,1,1.495734800118953,658.7353248998988,None,None,1,,,,,,,,,,,,,,203,2023-03-27_17h26.24.888,Main,2022.1.1,60.02721636544846,
positive,blue,2,k,None,,,,,,,,,0,201,201,201,,,,,,,,,,,,,,,,,main,None,None,1,1.5017333999276161,661.2322732000612,None,None,1,,,,,,,,,,,,,,203,2023-03-27_17h26.24.888,Main,2022.1.1,60.02721636544846,
negative,yellow,2,k,None,,,,,,,,,0,202,202,202,,,,,,,,,,,,,,,,,main,None,None,1,1.499297099886462,663.7321857998613,None,None,1,,,,,,,,,,,,,,203,2023-03-27_17h26.24.888,Main,2022.1.1,60.02721636544846,
positive,red,1,None,None,,,,,,,,,0,203,203,203,,,,,,,,,,,,,,,,,main,None,None,1,1.4991153001319617,666.2350262999535,None,None,1,,,,,,,,,,,,,,203,2023-03-27_17h26.24.888,Main,2022.1.1,60.02721636544846,
negative,blue,2,None,k,,,,,,,,,0,204,204,204,,,,,,,,,,,,,,,,,main,k,k,1,1.5462940998841077,668.7321452999022,None,None,0,,,,,,,,,,,,,,203,2023-03-27_17h26.24.888,Main,2022.1.1,60.02721636544846,
negative,red,1,None,None,,,,,,,,,0,205,205,205,,,,,,,,,,,,,,,,,main,None,None,1,1.4985971997957677,672.2848986999597,None,None,1,,,,,,,,,,,,,,203,2023-03-27_17h26.24.888,Main,2022.1.1,60.02721636544846,
negative,blue,2,None,k,,,,,,,,,0,206,206,206,,,,,,,,,,,,,,,,,main,k,k,1,0.7817187998443842,674.7817265999038,None,None,0,,,,,,,,,,,,,,203,2023-03-27_17h26.24.888,Main,2022.1.1,60.02721636544846,
negative,yellow,2,k,None,,,,,,,,,0,207,207,207,,,,,,,,,,,,,,,,,main,None,None,1,1.498927100095898,676.5652638999745,None,None,1,,,,,,,,,,,,,,203,2023-03-27_17h26.24.888,Main,2022.1.1,60.02721636544846,
positive,yellow,2,None,k,,,,,,,,,0,208,208,208,,,,,,,,,,,,,,,,,main,k,k,1,0.9190721001941711,679.0682202000171,None,None,0,,,,,,,,,,,,,,203,2023-03-27_17h26.24.888,Main,2022.1.1,60.02721636544846,
negative,yellow,1,k,None,,,,,,,,,0,209,209,209,,,,,,,,,,,,,,,,,main,None,None,1,1.4983358001336455,680.9848495998885,None,None,1,,,,,,,,,,,,,,203,2023-03-27_17h26.24.888,Main,2022.1.1,60.02721636544846,
negative,red,2,None,None,,,,,,,,,0,210,210,210,,,,,,,,,,,,,,,,,main,None,None,1,1.4995810999535024,683.4816135000437,None,None,1,,,,,,,,,,,,,,203,2023-03-27_17h26.24.888,Main,2022.1.1,60.02721636544846,
negative,blue,1,None,k,,,,,,,,,0,211,211,211,,,,,,,,,,,,,,,,,main,k,k,1,0.8493158998899162,685.9818003000692,None,None,0,,,,,,,,,,,,,,203,2023-03-27_17h26.24.888,Main,2022.1.1,60.02721636544846,
negative,yellow,1,k,None,,,,,,,,,0,212,212,212,,,,,,,,,,,,,,,,,main,None,None,1,1.4960376000963151,687.8346510999836,None,None,1,,,,,,,,,,,,,,203,2023-03-27_17h26.24.888,Main,2022.1.1,60.02721636544846,
positive,blue,1,k,None,,,,,,,,,0,213,213,213,,,,,,,,,,,,,,,,,main,None,None,1,1.5021523998584598,690.3316923999228,None,None,1,,,,,,,,,,,,,,203,2023-03-27_17h26.24.888,Main,2022.1.1,60.02721636544846,
positive,blue,1,k,None,,,,,,,,,0,214,214,214,,,,,,,,,,,,,,,,,main,None,None,1,1.498929100111127,692.8346788999625,None,None,1,,,,,,,,,,,,,,203,2023-03-27_17h26.24.888,Main,2022.1.1,60.02721636544846,
positive,yellow,1,None,k,,,,,,,,,0,215,215,215,,,,,,,,,,,,,,,,,main,k,k,1,1.3796355000231415,695.3344994999934,None,None,0,,,,,,,,,,,,,,203,2023-03-27_17h26.24.888,Main,2022.1.1,60.02721636544846,
positive,yellow,1,None,k,,,,,,,,,0,216,216,216,,,,,,,,,,,,,,,,,main,k,k,1,0.9858504000585526,697.7146298999432,None,None,0,,,,,,,,,,,,,,203,2023-03-27_17h26.24.888,Main,2022.1.1,60.02721636544846,
positive,yellow,2,None,k,,,,,,,,,0,217,217,217,,,,,,,,,,,,,,,,,main,k,k,1,0.9324703000020236,699.701214700006,None,None,0,,,,,,,,,,,,,,203,2023-03-27_17h26.24.888,Main,2022.1.1,60.02721636544846,
negative,blue,1,None,k,,,,,,,,,0,218,218,218,,,,,,,,,,,,,,,,,main,k,k,1,0.8628994000609964,701.6343636000529,None,None,0,,,,,,,,,,,,,,203,2023-03-27_17h26.24.888,Main,2022.1.1,60.02721636544846,
positive,red,2,None,None,,,,,,,,,0,219,219,219,,,,,,,,,,,,,,,,,main,None,None,1,1.5013103000819683,703.5012167999521,None,None,1,,,,,,,,,,,,,,203,2023-03-27_17h26.24.888,Main,2022.1.1,60.02721636544846,
positive,yellow,1,None,k,,,,,,,,,0,220,220,220,,,,,,,,,,,,,,,,,main,k,k,1,0.7967315998394042,705.9979876999278,None,None,0,,,,,,,,,,,,,,203,2023-03-27_17h26.24.888,Main,2022.1.1,60.02721636544846,
positive,blue,1,k,None,,,,,,,,,0,221,221,221,,,,,,,,,,,,,,,,,main,None,None,1,1.4991166000254452,707.7979945999105,None,None,1,,,,,,,,,,,,,,203,2023-03-27_17h26.24.888,Main,2022.1.1,60.02721636544846,
positive,yellow,2,None,k,,,,,,,,,0,222,222,222,,,,,,,,,,,,,,,,,main,k,k,1,0.7658303000498563,710.3010384999216,None,None,0,,,,,,,,,,,,,,203,2023-03-27_17h26.24.888,Main,2022.1.1,60.02721636544846,
negative,yellow,1,k,None,,,,,,,,,0,223,223,223,,,,,,,,,,,,,,,,,main,None,None,1,1.50188670004718,712.0675286999904,None,None,1,,,,,,,,,,,,,,203,2023-03-27_17h26.24.888,Main,2022.1.1,60.02721636544846,
positive,yellow,2,None,k,,,,,,,,,0,224,224,224,,,,,,,,,,,,,,,,,main,k,k,1,1.082591300131753,714.5645921998657,None,None,0,,,,,,,,,,,,,,203,2023-03-27_17h26.24.888,Main,2022.1.1,60.02721636544846,
negative,yellow,2,k,None,,,,,,,,,0,225,225,225,,,,,,,,,,,,,,,,,main,None,None,1,1.4959819000214338,716.6507445999887,None,None,1,,,,,,,,,,,,,,203,2023-03-27_17h26.24.888,Main,2022.1.1,60.02721636544846,
negative,blue,2,None,k,,,,,,,,,0,226,226,226,,,,,,,,,,,,,,,,,main,k,k,1,0.8988826000131667,719.1507593998685,None,None,0,,,,,,,,,,,,,,203,2023-03-27_17h26.24.888,Main,2022.1.1,60.02721636544846,
positive,red,2,None,None,,,,,,,,,0,227,227,227,,,,,,,,,,,,,,,,,main,None,None,1,1.5023521999828517,721.0474622999318,None,None,1,,,,,,,,,,,,,,203,2023-03-27_17h26.24.888,Main,2022.1.1,60.02721636544846,
positive,blue,2,k,None,,,,,,,,,0,228,228,228,,,,,,,,,,,,,,,,,main,None,None,1,1.496201700065285,723.5506889000535,None,None,1,,,,,,,,,,,,,,203,2023-03-27_17h26.24.888,Main,2022.1.1,60.02721636544846,
negative,blue,1,None,k,,,,,,,,,0,229,229,229,,,,,,,,,,,,,,,,,main,k,k,1,0.8195275000762194,726.0506770999637,None,None,0,,,,,,,,,,,,,,203,2023-03-27_17h26.24.888,Main,2022.1.1,60.02721636544846,
positive,yellow,1,None,k,,,,,,,,,0,230,230,230,,,,,,,,,,,,,,,,,main,k,k,1,0.8459334999788553,727.8643952999264,None,None,0,,,,,,,,,,,,,,203,2023-03-27_17h26.24.888,Main,2022.1.1,60.02721636544846,
negative,blue,2,None,k,,,,,,,,,0,231,231,231,,,,,,,,,,,,,,,,,main,k,k,1,0.8655709000304341,729.7142630999442,None,None,0,,,,,,,,,,,,,,203,2023-03-27_17h26.24.888,Main,2022.1.1,60.02721636544846,
negative,red,1,None,None,,,,,,,,,0,232,232,232,,,,,,,,,,,,,,,,,main,None,None,1,1.4992911000736058,731.5837495999876,None,None,1,,,,,,,,,,,,,,203,2023-03-27_17h26.24.888,Main,2022.1.1,60.02721636544846,
positive,blue,2,k,None,,,,,,,,,0,233,233,233,,,,,,,,,,,,,,,,,main,None,None,1,1.5021683999802917,734.0808609998785,None,None,1,,,,,,,,,,,,,,203,2023-03-27_17h26.24.888,Main,2022.1.1,60.02721636544846,
negative,yellow,1,k,None,,,,,,,,,0,234,234,234,,,,,,,,,,,,,,,,,main,None,None,1,1.4985903999768198,736.5837057000026,None,None,1,,,,,,,,,,,,,,203,2023-03-27_17h26.24.888,Main,2022.1.1,60.02721636544846,
negative,yellow,2,k,None,,,,,,,,,0,235,235,235,,,,,,,,,,,,,,,,,main,None,None,1,1.4993579001165926,739.0808524999302,None,None,1,,,,,,,,,,,,,,203,2023-03-27_17h26.24.888,Main,2022.1.1,60.02721636544846,
positive,red,1,None,None,,,,,,,,,0,236,236,236,,,,,,,,,,,,,,,,,main,None,None,1,1.4956634000409395,741.5807497999631,None,None,1,,,,,,,,,,,,,,203,2023-03-27_17h26.24.888,Main,2022.1.1,60.02721636544846,
negative,red,2,None,None,,,,,,,,,0,237,237,237,,,,,,,,,,,,,,,,,main,None,None,1,1.5024867998436093,744.0804026999976,None,None,1,,,,,,,,,,,,,,203,2023-03-27_17h26.24.888,Main,2022.1.1,60.02721636544846,
negative,blue,1,None,k,,,,,,,,,0,238,238,238,,,,,,,,,,,,,,,,,main,k,k,1,0.7797071000095457,746.5836634999141,None,None,0,,,,,,,,,,,,,,203,2023-03-27_17h26.24.888,Main,2022.1.1,60.02721636544846,
positive,blue,1,k,None,,,,,,,,,0,239,239,239,,,,,,,,,,,,,,,,,main,None,None,1,1.5018291999585927,748.3668138000648,None,None,1,,,,,,,,,,,,,,203,2023-03-27_17h26.24.888,Main,2022.1.1,60.02721636544846,
,,,,,,,,,,,,,,,,,,,,,,,,,,,,,,,,,,,,,,,,,,,,,,,,,,,,,750.8638740000315,None,,,,,,
