distractor,target,set,ans1,ans2,rep_loop4.thisRepN,rep_loop4.thisTrialN,rep_loop4.thisN,rep_loop4.thisIndex,st2_prac_loop.thisRepN,st2_prac_loop.thisTrialN,st2_prac_loop.thisN,st2_prac_loop.thisIndex,st2_main_loop.thisRepN,st2_main_loop.thisTrialN,st2_main_loop.thisN,st2_main_loop.thisIndex,image_4.started,image_4.stopped,sound_2.started,sound_2.stopped,key_resp_3.keys,key_resp_3.rt,image_5.started,image_5.stopped,st_prac_back.started,st_prac_back.stopped,st_prac_text.started,st_prac_text.stopped,st_fix_back.started,st_fix_back.stopped,st_fix_2.started,st_fix_2.stopped,main_prac,st_ans,st_res,st_corr,st_rt,st_back.started,st_back.stopped,st2_resp.keys,st2_resp.corr,st_main_back.started,st_main_back.stopped,st_main_text.started,st_main_text.stopped,mouse_4.x,mouse_4.y,mouse_4.leftButton,mouse_4.midButton,mouse_4.rightButton,mouse_4.started,mouse_4.stopped,text_2.started,text_2.stopped,id*,date,expName,psychopyVersion,frameRate,
negative,yellow,1,k,None,,,,,0,0,0,0,,,,,34.57385080005042,None,40.86412404011935,None,space,58.46917729987763,99.3587062000297,None,102.07561270007864,None,102.07561270007864,None,104.07556250016205,None,104.07556250016205,None,prac,k,k,1,20.953991800080985,106.09081970015541,None,None,0,,,,,,,,,,,,,,204,2023-03-28_14h58.43.854,Main,2022.1.1,60.02091130498043,
positive,red,2,None,None,,,,,0,1,1,1,,,,,,,,,,,,,,,,,,,,,prac,None,None,1,1.5042701000347733,129.0551861000713,None,None,1,,,,,,,,,,,,,,204,2023-03-28_14h58.43.854,Main,2022.1.1,60.02091130498043,
negative,blue,2,None,k,,,,,0,2,2,2,,,,,,,,,,,,,,,,,,,,,prac,None,None,1,1.498741100076586,131.55555210006423,None,None,1,,,,,,,,,,,,,,204,2023-03-28_14h58.43.854,Main,2022.1.1,60.02091130498043,
positive,yellow,1,None,k,,,,,0,3,3,3,,,,,,,,,,,,,,,,,,,,,prac,None,None,1,1.4961870000697672,134.05839890008792,None,None,1,,,,,,,,,,,,,,204,2023-03-28_14h58.43.854,Main,2022.1.1,60.02091130498043,
negative,blue,2,None,k,,,,,0,4,4,4,,,,,,,,,,,,,,,,,,,,,prac,None,None,1,1.4989652000367641,136.555295499973,None,None,1,,,,,,,,,,,,,,204,2023-03-28_14h58.43.854,Main,2022.1.1,60.02091130498043,
negative,blue,1,None,k,,,,,0,5,5,5,,,,,,,,,,,,,,,,,,,,,prac,None,None,1,1.5017178000416607,139.0552712001372,None,None,1,,,,,,,,,,,,,,204,2023-03-28_14h58.43.854,Main,2022.1.1,60.02091130498043,
negative,yellow,2,k,None,,,,,0,6,6,6,,,,,,,,,,,,,,,,,,,,,prac,k,k,1,2.112969000125304,141.55523349996656,None,None,0,,,,,,,,,,,,,,204,2023-03-28_14h58.43.854,Main,2022.1.1,60.02091130498043,
negative,red,1,None,None,,,,,0,7,7,7,,,,,,,,,,,,,,,,,,,,,prac,None,None,1,1.4978654999285936,145.67190459999256,None,None,1,,,,,,,,,,,,,,204,2023-03-28_14h58.43.854,Main,2022.1.1,60.02091130498043,
positive,yellow,2,None,k,,,,,0,8,8,8,,,,,,,,,,,,,,,,,,,,,prac,None,None,1,1.5020582000724971,148.17148470017128,None,None,1,,,,,,,,,,,,,,204,2023-03-28_14h58.43.854,Main,2022.1.1,60.02091130498043,
negative,yellow,1,k,None,,,,,0,9,9,9,,,,,,,,,,,,,,,,,,,,,prac,k,k,1,0.8800983999390155,150.674705500016,None,None,0,,,,,,,,,,,,,,204,2023-03-28_14h58.43.854,Main,2022.1.1,60.02091130498043,
positive,yellow,2,None,k,,,,,0,10,10,10,,,,,,,,,,,,,,,,,,,,,prac,None,None,1,1.5014304001815617,152.55515470006503,None,None,1,,,,,,,,,,,,,,204,2023-03-28_14h58.43.854,Main,2022.1.1,60.02091130498043,
negative,yellow,2,k,None,,,,,0,11,11,11,,,,,,,,,,,,,,,,,,,,,prac,k,k,1,1.0130950000602752,155.05792970000766,None,None,0,,,,,,,,,,,,,,204,2023-03-28_14h58.43.854,Main,2022.1.1,60.02091130498043,
negative,red,2,None,None,,,,,0,12,12,12,,,,,,,,,,,,,,,,,,,,,prac,None,None,1,1.498509299941361,157.07178120012395,None,None,1,,,,,,,,,,,,,,204,2023-03-28_14h58.43.854,Main,2022.1.1,60.02091130498043,
positive,red,1,None,None,,,,,0,13,13,13,,,,,,,,,,,,,,,,,,,,,prac,None,None,1,1.502438599942252,159.57131949998438,None,None,1,,,,,,,,,,,,,,204,2023-03-28_14h58.43.854,Main,2022.1.1,60.02091130498043,
positive,blue,2,k,None,,,,,0,14,14,14,,,,,,,,,,,,,,,,,,,,,prac,k,k,1,0.9298112001270056,162.0744607001543,None,None,0,,,,,,,,,,,,,,204,2023-03-28_14h58.43.854,Main,2022.1.1,60.02091130498043,
positive,blue,1,k,None,,,,,0,15,15,15,,,,,,,,,,,,,,,,,,,,,prac,k,k,1,0.8490305999293923,164.00494320015423,None,None,0,,,,,,,,,,,,,,204,2023-03-28_14h58.43.854,Main,2022.1.1,60.02091130498043,
negative,blue,1,None,k,,,,,0,16,16,16,,,,,,,,,,,,,,,,,,,,,prac,None,None,1,1.501638300018385,165.85479120002128,None,None,1,,,,,,,,,,,,,,204,2023-03-28_14h58.43.854,Main,2022.1.1,60.02091130498043,
positive,blue,2,k,None,,,,,0,17,17,17,,,,,,,,,,,,,,,,,,,,,prac,k,k,1,0.8298994000069797,168.3575244001113,None,None,0,,,,,,,,,,,,,,204,2023-03-28_14h58.43.854,Main,2022.1.1,60.02091130498043,
positive,blue,1,k,None,,,,,0,18,18,18,,,,,,,,,,,,,,,,,,,,,prac,k,k,1,0.8824668999295682,170.18799400003627,None,None,0,,,,,,,,,,,,,,204,2023-03-28_14h58.43.854,Main,2022.1.1,60.02091130498043,
positive,yellow,1,None,k,,,,,0,19,19,19,,,,,,,,,,,,,,,,,,,,,prac,None,None,1,1.5016234999056906,172.07127910014242,None,None,1,,,,,,,,,,,,,,204,2023-03-28_14h58.43.854,Main,2022.1.1,60.02091130498043,
negative,yellow,1,k,None,,,,,1,0,20,0,,,,,,,,,,,,,,,,,,,,,prac,k,k,1,0.8464896001387388,174.57125520007685,None,None,0,,,,,,,,,,,,,,204,2023-03-28_14h58.43.854,Main,2022.1.1,60.02091130498043,
positive,red,2,None,None,,,,,1,1,21,1,,,,,,,,,,,,,,,,,,,,,prac,None,None,1,1.4891727999784052,176.42127769999206,None,None,1,,,,,,,,,,,,,,204,2023-03-28_14h58.43.854,Main,2022.1.1,60.02091130498043,
negative,blue,2,None,k,,,,,1,2,22,2,,,,,,,,,,,,,,,,,,,,,prac,None,None,1,1.491899199783802,178.9094903001096,None,None,1,,,,,,,,,,,,,,204,2023-03-28_14h58.43.854,Main,2022.1.1,60.02091130498043,
positive,yellow,1,None,k,,,,,1,3,23,3,,,,,,,,,,,,,,,,,,,,,prac,None,None,1,1.5027545997872949,181.40421040006913,None,None,1,,,,,,,,,,,,,,204,2023-03-28_14h58.43.854,Main,2022.1.1,60.02091130498043,
negative,blue,2,None,k,,,,,1,4,24,4,,,,,,,,,,,,,,,,,,,,,prac,None,k,0,1.4994151000864804,183.9044927000068,None,None,1,,,,,,,,,,,,,,204,2023-03-28_14h58.43.854,Main,2022.1.1,60.02091130498043,
negative,blue,1,None,k,,,,,1,5,25,5,,,,,,,,,,,,,,,,,,,,,prac,None,None,1,1.4978174997959286,187.4044087000657,None,None,1,,,,,,,,,,,,,,204,2023-03-28_14h58.43.854,Main,2022.1.1,60.02091130498043,
negative,yellow,2,k,None,,,,,1,6,26,6,,,,,,,,,,,,,,,,,,,,,prac,k,k,1,0.9972637998871505,189.9039831000846,None,None,0,,,,,,,,,,,,,,204,2023-03-28_14h58.43.854,Main,2022.1.1,60.02091130498043,
negative,red,1,None,None,,,,,1,7,27,7,,,,,,,,,,,,,,,,,,,,,prac,None,None,1,1.5036458000540733,191.89583180006593,None,None,1,,,,,,,,,,,,,,204,2023-03-28_14h58.43.854,Main,2022.1.1,60.02091130498043,
positive,yellow,2,None,k,,,,,1,8,28,8,,,,,,,,,,,,,,,,,,,,,prac,None,None,1,1.4991538000758737,194.40718780015595,None,None,1,,,,,,,,,,,,,,204,2023-03-28_14h58.43.854,Main,2022.1.1,60.02091130498043,
negative,yellow,1,k,None,,,,,1,9,29,9,,,,,,,,,,,,,,,,,,,,,prac,k,k,1,0.8296631998382509,196.9070759001188,None,None,0,,,,,,,,,,,,,,204,2023-03-28_14h58.43.854,Main,2022.1.1,60.02091130498043,
positive,yellow,2,None,k,,,,,1,10,30,10,,,,,,,,,,,,,,,,,,,,,prac,None,None,1,1.5018820001278073,198.7374715001788,None,None,1,,,,,,,,,,,,,,204,2023-03-28_14h58.43.854,Main,2022.1.1,60.02091130498043,
negative,yellow,2,k,None,,,,,1,11,31,11,,,,,,,,,,,,,,,,,,,,,prac,k,k,1,0.9129946001339704,201.2373518999666,None,None,0,,,,,,,,,,,,,,204,2023-03-28_14h58.43.854,Main,2022.1.1,60.02091130498043,
negative,red,2,None,None,,,,,1,12,32,12,,,,,,,,,,,,,,,,,,,,,prac,None,None,1,1.5017946001607925,203.15400550002232,None,None,1,,,,,,,,,,,,,,204,2023-03-28_14h58.43.854,Main,2022.1.1,60.02091130498043,
positive,red,1,None,None,,,,,1,13,33,13,,,,,,,,,,,,,,,,,,,,,prac,None,None,1,1.4991622001398355,205.65410400019027,None,None,1,,,,,,,,,,,,,,204,2023-03-28_14h58.43.854,Main,2022.1.1,60.02091130498043,
positive,blue,2,k,None,,,,,1,14,34,14,,,,,,,,,,,,,,,,,,,,,prac,k,k,1,0.8629728998057544,208.15396200004034,None,None,0,,,,,,,,,,,,,,204,2023-03-28_14h58.43.854,Main,2022.1.1,60.02091130498043,
positive,blue,1,k,None,,,,,1,15,35,15,,,,,,,,,,,,,,,,,,,,,prac,k,k,1,0.7994902001228184,210.0202544000931,None,None,0,,,,,,,,,,,,,,204,2023-03-28_14h58.43.854,Main,2022.1.1,60.02091130498043,
negative,blue,1,None,k,,,,,1,16,36,16,,,,,,,,,,,,,,,,,,,,,prac,None,None,1,1.501749100163579,211.82067440007813,None,None,1,,,,,,,,,,,,,,204,2023-03-28_14h58.43.854,Main,2022.1.1,60.02091130498043,
positive,blue,2,k,None,,,,,1,17,37,17,,,,,,,,,,,,,,,,,,,,,prac,k,k,1,0.996468500001356,214.32055040006526,None,None,0,,,,,,,,,,,,,,204,2023-03-28_14h58.43.854,Main,2022.1.1,60.02091130498043,
positive,blue,1,k,None,,,,,1,18,38,18,,,,,,,,,,,,,,,,,,,,,prac,k,k,1,0.8322501999791712,216.32049329997972,None,None,0,,,,,,,,,,,,,,204,2023-03-28_14h58.43.854,Main,2022.1.1,60.02091130498043,
positive,yellow,1,None,k,,,,,1,19,39,19,,,,,,,,,,,,,,,,,,,,,prac,None,None,1,1.501737599959597,218.15367280016653,None,None,1,,,,,,,,,,,,,,204,2023-03-28_14h58.43.854,Main,2022.1.1,60.02091130498043,
,,,,,,,,,,,,,,,,,,,,,,,,,,,,,,,,,,,,,,,,,,220.65360460011289,None,220.65360460011289,None,0.015740741,0.04074074,0,0,0,0.014096739934757352,None,,,204,2023-03-28_14h58.43.854,Main,2022.1.1,60.02091130498043,
negative,yellow,2,k,None,,,,,,,,,0,0,0,0,,,,,,,,,,,,,231.13984180008993,None,231.13984180008993,None,main,k,k,1,0.8135534999892116,233.16808530013077,None,None,0,,,,,,,,,,,,,,204,2023-03-28_14h58.43.854,Main,2022.1.1,60.02091130498043,
positive,red,1,None,None,,,,,,,,,0,1,1,1,,,,,,,,,,,,,,,,,main,None,None,1,1.4982815999537706,234.98681190004572,None,None,1,,,,,,,,,,,,,,204,2023-03-28_14h58.43.854,Main,2022.1.1,60.02091130498043,
positive,blue,2,k,None,,,,,,,,,0,2,2,2,,,,,,,,,,,,,,,,,main,k,k,1,0.6635055998340249,237.48659980017692,None,None,0,,,,,,,,,,,,,,204,2023-03-28_14h58.43.854,Main,2022.1.1,60.02091130498043,
positive,blue,1,k,None,,,,,,,,,0,3,3,3,,,,,,,,,,,,,,,,,main,k,k,1,0.815710199996829,239.15327320015058,None,None,0,,,,,,,,,,,,,,204,2023-03-28_14h58.43.854,Main,2022.1.1,60.02091130498043,
negative,yellow,2,k,None,,,,,,,,,0,4,4,4,,,,,,,,,,,,,,,,,main,k,k,1,0.7992992999497801,240.96991360001266,None,None,0,,,,,,,,,,,,,,204,2023-03-28_14h58.43.854,Main,2022.1.1,60.02091130498043,
positive,yellow,2,None,k,,,,,,,,,0,5,5,5,,,,,,,,,,,,,,,,,main,None,None,1,1.5014977999962866,242.76993470010348,None,None,1,,,,,,,,,,,,,,204,2023-03-28_14h58.43.854,Main,2022.1.1,60.02091130498043,
negative,blue,2,None,k,,,,,,,,,0,6,6,6,,,,,,,,,,,,,,,,,main,None,None,1,1.498931400012225,245.26992620015517,None,None,1,,,,,,,,,,,,,,204,2023-03-28_14h58.43.854,Main,2022.1.1,60.02091130498043,
positive,red,2,None,None,,,,,,,,,0,7,7,7,,,,,,,,,,,,,,,,,main,None,None,1,1.4958764999173582,247.76978339999914,None,None,1,,,,,,,,,,,,,,204,2023-03-28_14h58.43.854,Main,2022.1.1,60.02091130498043,
positive,yellow,1,None,k,,,,,,,,,0,8,8,8,,,,,,,,,,,,,,,,,main,None,None,1,1.4995724000036716,250.2694852000568,None,None,1,,,,,,,,,,,,,,204,2023-03-28_14h58.43.854,Main,2022.1.1,60.02091130498043,
negative,red,1,None,None,,,,,,,,,0,9,9,9,,,,,,,,,,,,,,,,,main,None,None,1,1.501876899972558,252.76978540001437,None,None,1,,,,,,,,,,,,,,204,2023-03-28_14h58.43.854,Main,2022.1.1,60.02091130498043,
positive,yellow,1,None,k,,,,,,,,,0,10,10,10,,,,,,,,,,,,,,,,,main,None,None,1,1.4989169999025762,255.27258700015955,None,None,1,,,,,,,,,,,,,,204,2023-03-28_14h58.43.854,Main,2022.1.1,60.02091130498043,
negative,yellow,1,k,None,,,,,,,,,0,11,11,11,,,,,,,,,,,,,,,,,main,k,k,1,0.7797638999763876,257.76969730015844,None,None,0,,,,,,,,,,,,,,204,2023-03-28_14h58.43.854,Main,2022.1.1,60.02091130498043,
negative,yellow,1,k,None,,,,,,,,,0,12,12,12,,,,,,,,,,,,,,,,,main,k,k,1,1.3491452999878675,259.5528522999957,None,None,0,,,,,,,,,,,,,,204,2023-03-28_14h58.43.854,Main,2022.1.1,60.02091130498043,
negative,red,2,None,None,,,,,,,,,0,13,13,13,,,,,,,,,,,,,,,,,main,None,None,1,1.5018563999328762,261.9028884000145,None,None,1,,,,,,,,,,,,,,204,2023-03-28_14h58.43.854,Main,2022.1.1,60.02091130498043,
positive,yellow,2,None,k,,,,,,,,,0,14,14,14,,,,,,,,,,,,,,,,,main,None,None,1,1.4993716001044959,264.4027896001935,None,None,1,,,,,,,,,,,,,,204,2023-03-28_14h58.43.854,Main,2022.1.1,60.02091130498043,
positive,blue,1,k,None,,,,,,,,,0,15,15,15,,,,,,,,,,,,,,,,,main,k,k,1,1.2295444998890162,266.90274829999544,None,None,0,,,,,,,,,,,,,,204,2023-03-28_14h58.43.854,Main,2022.1.1,60.02091130498043,
negative,blue,1,None,k,,,,,,,,,0,16,16,16,,,,,,,,,,,,,,,,,main,None,None,1,1.5018048000056297,269.1357124000788,None,None,1,,,,,,,,,,,,,,204,2023-03-28_14h58.43.854,Main,2022.1.1,60.02091130498043,
positive,blue,2,k,None,,,,,,,,,0,17,17,17,,,,,,,,,,,,,,,,,main,k,k,1,0.729867700021714,271.63604440004565,None,None,0,,,,,,,,,,,,,,204,2023-03-28_14h58.43.854,Main,2022.1.1,60.02091130498043,
negative,blue,2,None,k,,,,,,,,,0,18,18,18,,,,,,,,,,,,,,,,,main,None,None,1,1.5018838001415133,273.3693363000639,None,None,1,,,,,,,,,,,,,,204,2023-03-28_14h58.43.854,Main,2022.1.1,60.02091130498043,
negative,blue,1,None,k,,,,,,,,,0,19,19,19,,,,,,,,,,,,,,,,,main,None,None,1,1.4988367999903858,275.8693150000181,None,None,1,,,,,,,,,,,,,,204,2023-03-28_14h58.43.854,Main,2022.1.1,60.02091130498043,
negative,blue,1,None,k,,,,,,,,,0,20,20,20,,,,,,,,,,,,,,,,,main,None,None,1,1.4990527001209557,278.3690889000427,None,None,1,,,,,,,,,,,,,,204,2023-03-28_14h58.43.854,Main,2022.1.1,60.02091130498043,
negative,blue,2,None,k,,,,,,,,,0,21,21,21,,,,,,,,,,,,,,,,,main,None,None,1,1.4996897000819445,280.86908690002747,None,None,1,,,,,,,,,,,,,,204,2023-03-28_14h58.43.854,Main,2022.1.1,60.02091130498043,
negative,red,1,None,None,,,,,,,,,0,22,22,22,,,,,,,,,,,,,,,,,main,None,None,1,1.498621999984607,283.3691551000811,None,None,1,,,,,,,,,,,,,,204,2023-03-28_14h58.43.854,Main,2022.1.1,60.02091130498043,
positive,red,2,None,None,,,,,,,,,0,23,23,23,,,,,,,,,,,,,,,,,main,None,None,1,1.5031890999525785,285.87190120015293,None,None,1,,,,,,,,,,,,,,204,2023-03-28_14h58.43.854,Main,2022.1.1,60.02091130498043,
negative,red,2,None,None,,,,,,,,,0,24,24,24,,,,,,,,,,,,,,,,,main,None,None,1,1.4950385999400169,288.37375869997777,None,None,1,,,,,,,,,,,,,,204,2023-03-28_14h58.43.854,Main,2022.1.1,60.02091130498043,
positive,blue,2,k,None,,,,,,,,,0,25,25,25,,,,,,,,,,,,,,,,,main,k,k,1,0.9468772001564503,290.8690147001762,None,None,0,,,,,,,,,,,,,,204,2023-03-28_14h58.43.854,Main,2022.1.1,60.02091130498043,
negative,yellow,1,k,None,,,,,,,,,0,26,26,26,,,,,,,,,,,,,,,,,main,k,k,1,0.9156382998917252,292.8189636000898,None,None,0,,,,,,,,,,,,,,204,2023-03-28_14h58.43.854,Main,2022.1.1,60.02091130498043,
positive,blue,2,k,None,,,,,,,,,0,27,27,27,,,,,,,,,,,,,,,,,main,k,k,1,0.8001023998949677,294.73554789996706,None,None,0,,,,,,,,,,,,,,204,2023-03-28_14h58.43.854,Main,2022.1.1,60.02091130498043,
negative,blue,2,None,k,,,,,,,,,0,28,28,28,,,,,,,,,,,,,,,,,main,None,None,1,1.498608199879527,296.5356527999975,None,None,1,,,,,,,,,,,,,,204,2023-03-28_14h58.43.854,Main,2022.1.1,60.02091130498043,
positive,red,1,None,None,,,,,,,,,0,29,29,29,,,,,,,,,,,,,,,,,main,None,None,1,1.5019141000229865,299.03819050011225,None,None,1,,,,,,,,,,,,,,204,2023-03-28_14h58.43.854,Main,2022.1.1,60.02091130498043,
positive,blue,1,k,None,,,,,,,,,0,30,30,30,,,,,,,,,,,,,,,,,main,k,k,1,0.8792300000786781,301.53533830004744,None,None,0,,,,,,,,,,,,,,204,2023-03-28_14h58.43.854,Main,2022.1.1,60.02091130498043,
positive,yellow,1,None,k,,,,,,,,,0,31,31,31,,,,,,,,,,,,,,,,,main,None,None,1,1.4989951001480222,303.41874450002797,None,None,1,,,,,,,,,,,,,,204,2023-03-28_14h58.43.854,Main,2022.1.1,60.02091130498043,
negative,yellow,2,k,None,,,,,,,,,0,32,32,32,,,,,,,,,,,,,,,,,main,k,k,1,0.8659123000688851,305.9186035001185,None,None,0,,,,,,,,,,,,,,204,2023-03-28_14h58.43.854,Main,2022.1.1,60.02091130498043,
negative,blue,1,None,k,,,,,,,,,0,33,33,33,,,,,,,,,,,,,,,,,main,None,None,1,1.499947200063616,307.7852394001093,None,None,1,,,,,,,,,,,,,,204,2023-03-28_14h58.43.854,Main,2022.1.1,60.02091130498043,
positive,blue,1,k,None,,,,,,,,,0,34,34,34,,,,,,,,,,,,,,,,,main,k,k,1,0.7146582000423223,310.28486350015737,None,None,0,,,,,,,,,,,,,,204,2023-03-28_14h58.43.854,Main,2022.1.1,60.02091130498043,
negative,yellow,1,k,None,,,,,,,,,0,35,35,35,,,,,,,,,,,,,,,,,main,k,k,1,0.7662901000585407,312.0015555000864,None,None,0,,,,,,,,,,,,,,204,2023-03-28_14h58.43.854,Main,2022.1.1,60.02091130498043,
positive,yellow,2,None,k,,,,,,,,,0,36,36,36,,,,,,,,,,,,,,,,,main,None,None,1,1.4988436999265105,313.7685297001153,None,None,1,,,,,,,,,,,,,,204,2023-03-28_14h58.43.854,Main,2022.1.1,60.02091130498043,
positive,yellow,2,None,k,,,,,,,,,0,37,37,37,,,,,,,,,,,,,,,,,main,None,None,1,1.4990856000222266,316.2685086000711,None,None,1,,,,,,,,,,,,,,204,2023-03-28_14h58.43.854,Main,2022.1.1,60.02091130498043,
negative,yellow,2,k,None,,,,,,,,,0,38,38,38,,,,,,,,,,,,,,,,,main,k,k,1,1.015760200098157,318.7684385001194,None,None,0,,,,,,,,,,,,,,204,2023-03-28_14h58.43.854,Main,2022.1.1,60.02091130498043,
positive,yellow,1,None,k,,,,,,,,,0,39,39,39,,,,,,,,,,,,,,,,,main,None,None,1,1.5017421999946237,320.7849318999797,None,None,1,,,,,,,,,,,,,,204,2023-03-28_14h58.43.854,Main,2022.1.1,60.02091130498043,
negative,yellow,2,k,None,,,,,,,,,0,40,40,40,,,,,,,,,,,,,,,,,main,k,k,1,0.8802543999627233,323.2878432001453,None,None,0,,,,,,,,,,,,,,204,2023-03-28_14h58.43.854,Main,2022.1.1,60.02091130498043,
positive,blue,2,k,None,,,,,,,,,0,41,41,41,,,,,,,,,,,,,,,,,main,k,k,1,0.7324222000315785,325.1682006001938,None,None,0,,,,,,,,,,,,,,204,2023-03-28_14h58.43.854,Main,2022.1.1,60.02091130498043,
positive,blue,2,k,None,,,,,,,,,0,42,42,42,,,,,,,,,,,,,,,,,main,k,k,1,0.7324548999313265,326.9015047000721,None,None,0,,,,,,,,,,,,,,204,2023-03-28_14h58.43.854,Main,2022.1.1,60.02091130498043,
negative,blue,2,None,k,,,,,,,,,0,43,43,43,,,,,,,,,,,,,,,,,main,None,None,1,1.4986353998538107,328.6349947000854,None,None,1,,,,,,,,,,,,,,204,2023-03-28_14h58.43.854,Main,2022.1.1,60.02091130498043,
negative,red,1,None,None,,,,,,,,,0,44,44,44,,,,,,,,,,,,,,,,,main,None,None,1,1.4993325998075306,331.13443980016746,None,None,1,,,,,,,,,,,,,,204,2023-03-28_14h58.43.854,Main,2022.1.1,60.02091130498043,
negative,yellow,1,k,None,,,,,,,,,0,45,45,45,,,,,,,,,,,,,,,,,main,k,k,1,0.7690909998491406,333.6376189000439,None,None,0,,,,,,,,,,,,,,204,2023-03-28_14h58.43.854,Main,2022.1.1,60.02091130498043,
negative,yellow,1,k,None,,,,,,,,,0,46,46,46,,,,,,,,,,,,,,,,,main,k,k,1,0.663035900099203,335.40144770010374,None,None,0,,,,,,,,,,,,,,204,2023-03-28_14h58.43.854,Main,2022.1.1,60.02091130498043,
positive,red,1,None,None,,,,,,,,,0,47,47,47,,,,,,,,,,,,,,,,,main,None,None,1,1.505915200104937,337.0680586001836,None,None,1,,,,,,,,,,,,,,204,2023-03-28_14h58.43.854,Main,2022.1.1,60.02091130498043,
positive,yellow,1,None,k,,,,,,,,,0,48,48,48,,,,,,,,,,,,,,,,,main,None,None,1,1.4917166999075562,339.57316520018503,None,None,1,,,,,,,,,,,,,,204,2023-03-28_14h58.43.854,Main,2022.1.1,60.02091130498043,
negative,blue,1,None,k,,,,,,,,,0,49,49,49,,,,,,,,,,,,,,,,,main,None,None,1,1.5025651000905782,342.0676212001126,None,None,1,,,,,,,,,,,,,,204,2023-03-28_14h58.43.854,Main,2022.1.1,60.02091130498043,
positive,yellow,2,None,k,,,,,,,,,0,50,50,50,,,,,,,,,,,,,,,,,main,None,None,1,1.498990099877119,344.5708639000077,None,None,1,,,,,,,,,,,,,,204,2023-03-28_14h58.43.854,Main,2022.1.1,60.02091130498043,
negative,blue,1,None,k,,,,,,,,,0,51,51,51,,,,,,,,,,,,,,,,,main,None,None,1,1.4958171001635492,347.0707982000895,None,None,1,,,,,,,,,,,,,,204,2023-03-28_14h58.43.854,Main,2022.1.1,60.02091130498043,
positive,red,2,None,None,,,,,,,,,0,52,52,52,,,,,,,,,,,,,,,,,main,None,None,1,1.4992825000081211,349.56764700007625,None,None,1,,,,,,,,,,,,,,204,2023-03-28_14h58.43.854,Main,2022.1.1,60.02091130498043,
positive,yellow,2,None,k,,,,,,,,,0,53,53,53,,,,,,,,,,,,,,,,,main,None,None,1,1.5018583999481052,352.06764310016297,None,None,1,,,,,,,,,,,,,,204,2023-03-28_14h58.43.854,Main,2022.1.1,60.02091130498043,
negative,red,2,None,None,,,,,,,,,0,54,54,54,,,,,,,,,,,,,,,,,main,None,None,1,1.4990654999855906,354.5676142000593,None,None,1,,,,,,,,,,,,,,204,2023-03-28_14h58.43.854,Main,2022.1.1,60.02091130498043,
positive,yellow,1,None,k,,,,,,,,,0,55,55,55,,,,,,,,,,,,,,,,,main,None,None,1,1.4991331999190152,357.0675669000484,None,None,1,,,,,,,,,,,,,,204,2023-03-28_14h58.43.854,Main,2022.1.1,60.02091130498043,
negative,blue,2,None,k,,,,,,,,,0,56,56,56,,,,,,,,,,,,,,,,,main,None,None,1,1.4957709000445902,359.56763510010205,None,None,1,,,,,,,,,,,,,,204,2023-03-28_14h58.43.854,Main,2022.1.1,60.02091130498043,
positive,blue,1,k,None,,,,,,,,,0,57,57,57,,,,,,,,,,,,,,,,,main,k,k,1,1.1830947000999004,362.06715100002475,None,None,0,,,,,,,,,,,,,,204,2023-03-28_14h58.43.854,Main,2022.1.1,60.02091130498043,
positive,blue,1,k,None,,,,,,,,,0,58,58,58,,,,,,,,,,,,,,,,,main,k,k,1,0.7657170998863876,364.25377840013243,None,None,0,,,,,,,,,,,,,,204,2023-03-28_14h58.43.854,Main,2022.1.1,60.02091130498043,
negative,yellow,2,k,None,,,,,,,,,0,59,59,59,,,,,,,,,,,,,,,,,main,k,k,1,0.8650322000030428,366.01747710001655,None,None,0,,,,,,,,,,,,,,204,2023-03-28_14h58.43.854,Main,2022.1.1,60.02091130498043,
positive,red,2,None,None,,,,,,,,,0,60,60,60,,,,,,,,,,,,,,,,,main,None,None,1,1.5016415999270976,367.8871633000672,None,None,1,,,,,,,,,,,,,,204,2023-03-28_14h58.43.854,Main,2022.1.1,60.02091130498043,
negative,yellow,1,k,None,,,,,,,,,0,61,61,61,,,,,,,,,,,,,,,,,main,k,k,1,0.6964686000719666,370.38387630018406,None,None,0,,,,,,,,,,,,,,204,2023-03-28_14h58.43.854,Main,2022.1.1,60.02091130498043,
negative,red,1,None,None,,,,,,,,,0,62,62,62,,,,,,,,,,,,,,,,,main,None,None,1,1.501405900111422,372.08685280010104,None,None,1,,,,,,,,,,,,,,204,2023-03-28_14h58.43.854,Main,2022.1.1,60.02091130498043,
negative,blue,1,None,k,,,,,,,,,0,63,63,63,,,,,,,,,,,,,,,,,main,None,None,1,1.4991888999938965,374.58384790015407,None,None,1,,,,,,,,,,,,,,204,2023-03-28_14h58.43.854,Main,2022.1.1,60.02091130498043,
positive,blue,2,k,None,,,,,,,,,0,64,64,64,,,,,,,,,,,,,,,,,main,k,k,1,0.8134783001150936,377.08381430013105,None,None,0,,,,,,,,,,,,,,204,2023-03-28_14h58.43.854,Main,2022.1.1,60.02091130498043,
negative,yellow,2,k,None,,,,,,,,,0,65,65,65,,,,,,,,,,,,,,,,,main,k,k,1,0.7491715000942349,378.90047039999627,None,None,0,,,,,,,,,,,,,,204,2023-03-28_14h58.43.854,Main,2022.1.1,60.02091130498043,
positive,yellow,2,None,k,,,,,,,,,0,66,66,66,,,,,,,,,,,,,,,,,main,None,None,1,1.4986290000379086,380.6504165001679,None,None,1,,,,,,,,,,,,,,204,2023-03-28_14h58.43.854,Main,2022.1.1,60.02091130498043,
positive,yellow,2,None,k,,,,,,,,,0,67,67,67,,,,,,,,,,,,,,,,,main,None,None,1,1.5024882999714464,383.1500603000168,None,None,1,,,,,,,,,,,,,,204,2023-03-28_14h58.43.854,Main,2022.1.1,60.02091130498043,
positive,red,1,None,None,,,,,,,,,0,68,68,68,,,,,,,,,,,,,,,,,main,None,None,1,1.4963376999367028,385.65042260009795,None,None,1,,,,,,,,,,,,,,204,2023-03-28_14h58.43.854,Main,2022.1.1,60.02091130498043,
positive,yellow,1,None,k,,,,,,,,,0,69,69,69,,,,,,,,,,,,,,,,,main,None,None,1,1.4988317000679672,388.1532032999676,None,None,1,,,,,,,,,,,,,,204,2023-03-28_14h58.43.854,Main,2022.1.1,60.02091130498043,
negative,yellow,2,k,None,,,,,,,,,0,70,70,70,,,,,,,,,,,,,,,,,main,k,k,1,0.7992829999420792,390.650164199993,None,None,0,,,,,,,,,,,,,,204,2023-03-28_14h58.43.854,Main,2022.1.1,60.02091130498043,
positive,yellow,1,None,k,,,,,,,,,0,71,71,71,,,,,,,,,,,,,,,,,main,None,None,1,1.4989380000624806,392.45022690016776,None,None,1,,,,,,,,,,,,,,204,2023-03-28_14h58.43.854,Main,2022.1.1,60.02091130498043,
negative,blue,1,None,k,,,,,,,,,0,72,72,72,,,,,,,,,,,,,,,,,main,None,None,1,1.5019753999076784,394.9501045001671,None,None,1,,,,,,,,,,,,,,204,2023-03-28_14h58.43.854,Main,2022.1.1,60.02091130498043,
negative,red,2,None,None,,,,,,,,,0,73,73,73,,,,,,,,,,,,,,,,,main,None,None,1,1.4990467999596149,397.45008820015937,None,None,1,,,,,,,,,,,,,,204,2023-03-28_14h58.43.854,Main,2022.1.1,60.02091130498043,
positive,blue,2,k,None,,,,,,,,,0,74,74,74,,,,,,,,,,,,,,,,,main,k,k,1,0.7300708000548184,399.9531111000106,None,None,0,,,,,,,,,,,,,,204,2023-03-28_14h58.43.854,Main,2022.1.1,60.02091130498043,
negative,blue,2,None,k,,,,,,,,,0,75,75,75,,,,,,,,,,,,,,,,,main,None,None,1,1.4985621999949217,401.6833118000068,None,None,1,,,,,,,,,,,,,,204,2023-03-28_14h58.43.854,Main,2022.1.1,60.02091130498043,
negative,blue,2,None,k,,,,,,,,,0,76,76,76,,,,,,,,,,,,,,,,,main,None,None,1,1.5021226999815553,404.1830296001863,None,None,1,,,,,,,,,,,,,,204,2023-03-28_14h58.43.854,Main,2022.1.1,60.02091130498043,
negative,yellow,1,k,None,,,,,,,,,0,77,77,77,,,,,,,,,,,,,,,,,main,k,k,1,0.8299600000027567,406.6832906000782,None,None,0,,,,,,,,,,,,,,204,2023-03-28_14h58.43.854,Main,2022.1.1,60.02091130498043,
positive,blue,1,k,None,,,,,,,,,0,78,78,78,,,,,,,,,,,,,,,,,main,k,k,1,0.8321523999329656,408.5166076000314,None,None,0,,,,,,,,,,,,,,204,2023-03-28_14h58.43.854,Main,2022.1.1,60.02091130498043,
positive,blue,1,k,None,,,,,,,,,0,79,79,79,,,,,,,,,,,,,,,,,main,k,k,1,0.715697200037539,410.3499630000442,None,None,0,,,,,,,,,,,,,,204,2023-03-28_14h58.43.854,Main,2022.1.1,60.02091130498043,
positive,red,2,None,None,,,,,,,,,0,80,80,80,,,,,,,,,,,,,,,,,main,None,None,1,1.4989972000475973,412.0663817001041,None,None,1,,,,,,,,,,,,,,204,2023-03-28_14h58.43.854,Main,2022.1.1,60.02091130498043,
positive,yellow,2,None,k,,,,,,,,,0,81,81,81,,,,,,,,,,,,,,,,,main,None,None,1,1.49913559993729,414.5663177999668,None,None,1,,,,,,,,,,,,,,204,2023-03-28_14h58.43.854,Main,2022.1.1,60.02091130498043,
positive,blue,1,k,None,,,,,,,,,0,82,82,82,,,,,,,,,,,,,,,,,main,k,k,1,0.7325887000188231,417.0663140001707,None,None,0,,,,,,,,,,,,,,204,2023-03-28_14h58.43.854,Main,2022.1.1,60.02091130498043,
negative,yellow,2,k,None,,,,,,,,,0,83,83,83,,,,,,,,,,,,,,,,,main,k,k,1,0.7658261999022216,418.79959640000015,None,None,0,,,,,,,,,,,,,,204,2023-03-28_14h58.43.854,Main,2022.1.1,60.02091130498043,
positive,blue,2,k,None,,,,,,,,,0,84,84,84,,,,,,,,,,,,,,,,,main,k,k,1,0.8990482001099735,420.56632019998506,None,None,0,,,,,,,,,,,,,,204,2023-03-28_14h58.43.854,Main,2022.1.1,60.02091130498043,
positive,yellow,1,None,k,,,,,,,,,0,85,85,85,,,,,,,,,,,,,,,,,main,None,None,1,1.5079961000010371,422.4662393000908,None,None,1,,,,,,,,,,,,,,204,2023-03-28_14h58.43.854,Main,2022.1.1,60.02091130498043,
positive,blue,2,k,None,,,,,,,,,0,86,86,86,,,,,,,,,,,,,,,,,main,k,k,1,0.8065634001977742,424.97337820008397,None,None,0,,,,,,,,,,,,,,204,2023-03-28_14h58.43.854,Main,2022.1.1,60.02091130498043,
positive,blue,1,k,None,,,,,,,,,0,87,87,87,,,,,,,,,,,,,,,,,main,k,k,1,0.7325881998986006,426.7824818000663,None,None,0,,,,,,,,,,,,,,204,2023-03-28_14h58.43.854,Main,2022.1.1,60.02091130498043,
negative,yellow,2,k,None,,,,,,,,,0,88,88,88,,,,,,,,,,,,,,,,,main,k,k,1,0.7497485000640154,428.51586499996483,None,None,0,,,,,,,,,,,,,,204,2023-03-28_14h58.43.854,Main,2022.1.1,60.02091130498043,
negative,blue,2,None,k,,,,,,,,,0,89,89,89,,,,,,,,,,,,,,,,,main,None,None,1,1.501575700007379,430.2661870000884,None,None,1,,,,,,,,,,,,,,204,2023-03-28_14h58.43.854,Main,2022.1.1,60.02091130498043,
positive,yellow,2,None,k,,,,,,,,,0,90,90,90,,,,,,,,,,,,,,,,,main,None,None,1,1.4990025002043694,432.7660795999691,None,None,1,,,,,,,,,,,,,,204,2023-03-28_14h58.43.854,Main,2022.1.1,60.02091130498043,
negative,yellow,1,k,None,,,,,,,,,0,91,91,91,,,,,,,,,,,,,,,,,main,k,k,1,0.9964252000208944,435.2658918001689,None,None,0,,,,,,,,,,,,,,204,2023-03-28_14h58.43.854,Main,2022.1.1,60.02091130498043,
negative,red,2,None,None,,,,,,,,,0,92,92,92,,,,,,,,,,,,,,,,,main,None,None,1,1.5013627998996526,437.2659026000183,None,None,1,,,,,,,,,,,,,,204,2023-03-28_14h58.43.854,Main,2022.1.1,60.02091130498043,
negative,blue,2,None,k,,,,,,,,,0,93,93,93,,,,,,,,,,,,,,,,,main,None,None,1,1.499133599922061,439.76869569998235,None,None,1,,,,,,,,,,,,,,204,2023-03-28_14h58.43.854,Main,2022.1.1,60.02091130498043,
negative,blue,1,None,k,,,,,,,,,0,94,94,94,,,,,,,,,,,,,,,,,main,None,None,1,1.4991492999251932,442.2658162000589,None,None,1,,,,,,,,,,,,,,204,2023-03-28_14h58.43.854,Main,2022.1.1,60.02091130498043,
negative,blue,1,None,k,,,,,,,,,0,95,95,95,,,,,,,,,,,,,,,,,main,None,None,1,1.4959023999981582,444.7658000001684,None,None,1,,,,,,,,,,,,,,204,2023-03-28_14h58.43.854,Main,2022.1.1,60.02091130498043,
negative,red,1,None,None,,,,,,,,,0,96,96,96,,,,,,,,,,,,,,,,,main,None,None,1,1.5020880999509245,447.2654171001632,None,None,1,,,,,,,,,,,,,,204,2023-03-28_14h58.43.854,Main,2022.1.1,60.02091130498043,
positive,yellow,1,None,k,,,,,,,,,0,97,97,97,,,,,,,,,,,,,,,,,main,None,None,1,1.4992319999728352,449.76576960016973,None,None,1,,,,,,,,,,,,,,204,2023-03-28_14h58.43.854,Main,2022.1.1,60.02091130498043,
negative,yellow,1,k,None,,,,,,,,,0,98,98,98,,,,,,,,,,,,,,,,,main,k,k,1,0.8466326999478042,452.2657211001497,None,None,0,,,,,,,,,,,,,,204,2023-03-28_14h58.43.854,Main,2022.1.1,60.02091130498043,
positive,red,1,None,None,,,,,,,,,0,99,99,99,,,,,,,,,,,,,,,,,main,None,None,1,1.4986303001642227,454.11573730013333,None,None,1,,,,,,,,,,,,,,204,2023-03-28_14h58.43.854,Main,2022.1.1,60.02091130498043,
positive,blue,1,k,None,,,,,,,,,0,100,100,100,,,,,,,,,,,,,,,,,main,k,k,1,1.1159411000553519,456.6155254000332,None,None,0,,,,,,,,,,,,,,204,2023-03-28_14h58.43.854,Main,2022.1.1,60.02091130498043,
negative,yellow,1,k,None,,,,,,,,,0,101,101,101,,,,,,,,,,,,,,,,,main,k,k,1,0.8325807999353856,458.73209890001453,None,None,0,,,,,,,,,,,,,,204,2023-03-28_14h58.43.854,Main,2022.1.1,60.02091130498043,
negative,blue,2,None,k,,,,,,,,,0,102,102,102,,,,,,,,,,,,,,,,,main,None,None,1,1.4989660999272019,460.5655189000536,None,None,1,,,,,,,,,,,,,,204,2023-03-28_14h58.43.854,Main,2022.1.1,60.02091130498043,
negative,yellow,2,k,None,,,,,,,,,0,103,103,103,,,,,,,,,,,,,,,,,main,k,k,1,1.2659314998891205,463.06543570011854,None,None,0,,,,,,,,,,,,,,204,2023-03-28_14h58.43.854,Main,2022.1.1,60.02091130498043,
positive,yellow,2,None,k,,,,,,,,,0,104,104,104,,,,,,,,,,,,,,,,,main,None,None,1,1.4985463998746127,465.3320269000251,None,None,1,,,,,,,,,,,,,,204,2023-03-28_14h58.43.854,Main,2022.1.1,60.02091130498043,
positive,blue,1,k,None,,,,,,,,,0,105,105,105,,,,,,,,,,,,,,,,,main,k,k,1,0.6661077998578548,467.83166790008545,None,None,0,,,,,,,,,,,,,,204,2023-03-28_14h58.43.854,Main,2022.1.1,60.02091130498043,
positive,blue,2,k,None,,,,,,,,,0,106,106,106,,,,,,,,,,,,,,,,,main,k,k,1,1.066287700086832,469.4983008999843,None,None,0,,,,,,,,,,,,,,204,2023-03-28_14h58.43.854,Main,2022.1.1,60.02091130498043,
negative,blue,1,None,k,,,,,,,,,0,107,107,107,,,,,,,,,,,,,,,,,main,None,None,1,1.501547000138089,471.5653105999809,None,None,1,,,,,,,,,,,,,,204,2023-03-28_14h58.43.854,Main,2022.1.1,60.02091130498043,
positive,yellow,2,None,k,,,,,,,,,0,108,108,108,,,,,,,,,,,,,,,,,main,None,None,1,1.4992778000887483,474.06525640003383,None,None,1,,,,,,,,,,,,,,204,2023-03-28_14h58.43.854,Main,2022.1.1,60.02091130498043,
negative,yellow,1,k,None,,,,,,,,,0,109,109,109,,,,,,,,,,,,,,,,,main,k,k,1,0.6630667999852449,476.56524730008096,None,None,0,,,,,,,,,,,,,,204,2023-03-28_14h58.43.854,Main,2022.1.1,60.02091130498043,
negative,blue,2,None,k,,,,,,,,,0,110,110,110,,,,,,,,,,,,,,,,,main,None,None,1,1.5003587000537664,478.2317050001584,None,None,1,,,,,,,,,,,,,,204,2023-03-28_14h58.43.854,Main,2022.1.1,60.02091130498043,
positive,blue,2,k,None,,,,,,,,,0,111,111,111,,,,,,,,,,,,,,,,,main,k,k,1,0.6978926998563111,480.7316670999862,None,None,0,,,,,,,,,,,,,,204,2023-03-28_14h58.43.854,Main,2022.1.1,60.02091130498043,
negative,blue,1,None,k,,,,,,,,,0,112,112,112,,,,,,,,,,,,,,,,,main,None,None,1,1.5016964001115412,482.43150980002247,None,None,1,,,,,,,,,,,,,,204,2023-03-28_14h58.43.854,Main,2022.1.1,60.02091130498043,
positive,yellow,1,None,k,,,,,,,,,0,113,113,113,,,,,,,,,,,,,,,,,main,None,None,1,1.4991440998855978,484.93445000005886,None,None,1,,,,,,,,,,,,,,204,2023-03-28_14h58.43.854,Main,2022.1.1,60.02091130498043,
negative,red,1,None,None,,,,,,,,,0,114,114,114,,,,,,,,,,,,,,,,,main,None,None,1,1.4957461999729276,487.4315692000091,None,None,1,,,,,,,,,,,,,,204,2023-03-28_14h58.43.854,Main,2022.1.1,60.02091130498043,
positive,red,1,None,None,,,,,,,,,0,115,115,115,,,,,,,,,,,,,,,,,main,None,None,1,1.4994254000484943,489.93122679996304,None,None,1,,,,,,,,,,,,,,204,2023-03-28_14h58.43.854,Main,2022.1.1,60.02091130498043,
negative,red,2,None,None,,,,,,,,,0,116,116,116,,,,,,,,,,,,,,,,,main,None,None,1,1.4992029999848455,492.4343854000326,None,None,1,,,,,,,,,,,,,,204,2023-03-28_14h58.43.854,Main,2022.1.1,60.02091130498043,
negative,yellow,2,k,None,,,,,,,,,0,117,117,117,,,,,,,,,,,,,,,,,main,k,k,1,1.2382650000508875,494.9343628999777,None,None,0,,,,,,,,,,,,,,204,2023-03-28_14h58.43.854,Main,2022.1.1,60.02091130498043,
positive,yellow,1,None,k,,,,,,,,,0,118,118,118,,,,,,,,,,,,,,,,,main,None,None,1,1.4915427002124488,497.1771843000315,None,None,1,,,,,,,,,,,,,,204,2023-03-28_14h58.43.854,Main,2022.1.1,60.02091130498043,
positive,red,2,None,None,,,,,,,,,0,119,119,119,,,,,,,,,,,,,,,,,main,None,None,1,1.4983379000332206,499.6643733000383,None,None,1,,,,,,,,,,,,,,204,2023-03-28_14h58.43.854,Main,2022.1.1,60.02091130498043,
positive,blue,2,k,None,,,,,,,,,0,120,120,120,,,,,,,,,,,,,,,,,main,k,k,1,0.7821436000522226,502.16437600017525,None,None,0,,,,,,,,,,,,,,204,2023-03-28_14h58.43.854,Main,2022.1.1,60.02091130498043,
negative,red,1,None,None,,,,,,,,,0,121,121,121,,,,,,,,,,,,,,,,,main,None,None,1,1.4987649999093264,503.9480703000445,None,None,1,,,,,,,,,,,,,,204,2023-03-28_14h58.43.854,Main,2022.1.1,60.02091130498043,
positive,yellow,2,None,k,,,,,,,,,0,122,122,122,,,,,,,,,,,,,,,,,main,None,None,1,1.502112700138241,506.45085870008916,None,None,1,,,,,,,,,,,,,,204,2023-03-28_14h58.43.854,Main,2022.1.1,60.02091130498043,
negative,red,2,None,None,,,,,,,,,0,123,123,123,,,,,,,,,,,,,,,,,main,None,None,1,1.4988770999480039,508.9477200000547,None,None,1,,,,,,,,,,,,,,204,2023-03-28_14h58.43.854,Main,2022.1.1,60.02091130498043,
negative,yellow,2,k,None,,,,,,,,,0,124,124,124,,,,,,,,,,,,,,,,,main,k,k,1,0.9635913001839072,511.44771550013684,None,None,0,,,,,,,,,,,,,,204,2023-03-28_14h58.43.854,Main,2022.1.1,60.02091130498043,
positive,red,1,None,None,,,,,,,,,0,125,125,125,,,,,,,,,,,,,,,,,main,None,None,1,1.4988260001409799,513.4144904999994,None,None,1,,,,,,,,,,,,,,204,2023-03-28_14h58.43.854,Main,2022.1.1,60.02091130498043,
negative,blue,2,None,k,,,,,,,,,0,126,126,126,,,,,,,,,,,,,,,,,main,None,None,1,1.5020458998624235,515.9143284000456,None,None,1,,,,,,,,,,,,,,204,2023-03-28_14h58.43.854,Main,2022.1.1,60.02091130498043,
negative,blue,1,None,k,,,,,,,,,0,127,127,127,,,,,,,,,,,,,,,,,main,None,None,1,1.495811500120908,518.4143034999724,None,None,1,,,,,,,,,,,,,,204,2023-03-28_14h58.43.854,Main,2022.1.1,60.02091130498043,
negative,yellow,1,k,None,,,,,,,,,0,128,128,128,,,,,,,,,,,,,,,,,main,k,k,1,0.8325823000632226,520.9138992000371,None,None,0,,,,,,,,,,,,,,204,2023-03-28_14h58.43.854,Main,2022.1.1,60.02091130498043,
negative,yellow,1,k,None,,,,,,,,,0,129,129,129,,,,,,,,,,,,,,,,,main,k,k,1,0.7488349999766797,522.7472735000774,None,None,0,,,,,,,,,,,,,,204,2023-03-28_14h58.43.854,Main,2022.1.1,60.02091130498043,
positive,blue,1,k,None,,,,,,,,,0,130,130,130,,,,,,,,,,,,,,,,,main,k,k,1,0.7488609000574797,524.4975674999878,None,None,0,,,,,,,,,,,,,,204,2023-03-28_14h58.43.854,Main,2022.1.1,60.02091130498043,
negative,blue,1,None,k,,,,,,,,,0,131,131,131,,,,,,,,,,,,,,,,,main,None,None,1,1.498812000034377,526.2475384999998,None,None,1,,,,,,,,,,,,,,204,2023-03-28_14h58.43.854,Main,2022.1.1,60.02091130498043,
negative,blue,2,None,k,,,,,,,,,0,132,132,132,,,,,,,,,,,,,,,,,main,None,None,1,1.5019650000613183,528.7503557000309,None,None,1,,,,,,,,,,,,,,204,2023-03-28_14h58.43.854,Main,2022.1.1,60.02091130498043,
positive,blue,2,k,None,,,,,,,,,0,133,133,133,,,,,,,,,,,,,,,,,main,k,k,1,0.6465336000546813,531.2472962001339,None,None,0,,,,,,,,,,,,,,204,2023-03-28_14h58.43.854,Main,2022.1.1,60.02091130498043,
positive,red,2,None,None,,,,,,,,,0,134,134,134,,,,,,,,,,,,,,,,,main,None,None,1,1.4990135999396443,532.8972824001685,None,None,1,,,,,,,,,,,,,,204,2023-03-28_14h58.43.854,Main,2022.1.1,60.02091130498043,
negative,yellow,2,k,None,,,,,,,,,0,135,135,135,,,,,,,,,,,,,,,,,main,k,k,1,0.8827657999936491,535.3972607001197,None,None,0,,,,,,,,,,,,,,204,2023-03-28_14h58.43.854,Main,2022.1.1,60.02091130498043,
positive,yellow,2,None,k,,,,,,,,,0,136,136,136,,,,,,,,,,,,,,,,,main,None,None,1,1.4997682000976056,537.2805674001575,None,None,1,,,,,,,,,,,,,,204,2023-03-28_14h58.43.854,Main,2022.1.1,60.02091130498043,
positive,blue,1,k,None,,,,,,,,,0,137,137,137,,,,,,,,,,,,,,,,,main,k,k,1,1.3148421000223607,539.7801980001386,None,None,0,,,,,,,,,,,,,,204,2023-03-28_14h58.43.854,Main,2022.1.1,60.02091130498043,
positive,yellow,1,None,k,,,,,,,,,0,138,138,138,,,,,,,,,,,,,,,,,main,None,None,1,1.4990594999399036,542.0968341999687,None,None,1,,,,,,,,,,,,,,204,2023-03-28_14h58.43.854,Main,2022.1.1,60.02091130498043,
positive,yellow,1,None,k,,,,,,,,,0,139,139,139,,,,,,,,,,,,,,,,,main,None,None,1,1.499153999844566,544.5999899001326,None,None,1,,,,,,,,,,,,,,204,2023-03-28_14h58.43.854,Main,2022.1.1,60.02091130498043,
positive,yellow,1,None,k,,,,,,,,,0,140,140,140,,,,,,,,,,,,,,,,,main,None,None,1,1.5019896000158042,547.099932000041,None,None,1,,,,,,,,,,,,,,204,2023-03-28_14h58.43.854,Main,2022.1.1,60.02091130498043,
positive,blue,1,k,None,,,,,,,,,0,141,141,141,,,,,,,,,,,,,,,,,main,k,k,1,0.8627181998454034,549.5998345999978,None,None,0,,,,,,,,,,,,,,204,2023-03-28_14h58.43.854,Main,2022.1.1,60.02091130498043,
positive,blue,2,k,None,,,,,,,,,0,142,142,142,,,,,,,,,,,,,,,,,main,k,k,1,0.8325776997953653,551.4636817001738,None,None,0,,,,,,,,,,,,,,204,2023-03-28_14h58.43.854,Main,2022.1.1,60.02091130498043,
positive,yellow,2,None,k,,,,,,,,,0,143,143,143,,,,,,,,,,,,,,,,,main,None,None,1,1.49785659997724,553.2968367000576,None,None,1,,,,,,,,,,,,,,204,2023-03-28_14h58.43.854,Main,2022.1.1,60.02091130498043,
negative,yellow,2,k,None,,,,,,,,,0,144,144,144,,,,,,,,,,,,,,,,,main,k,k,1,0.7149883001111448,555.796911700163,None,None,0,,,,,,,,,,,,,,204,2023-03-28_14h58.43.854,Main,2022.1.1,60.02091130498043,
negative,blue,2,None,k,,,,,,,,,0,145,145,145,,,,,,,,,,,,,,,,,main,None,None,1,1.4990083000157028,557.5133020000067,None,None,1,,,,,,,,,,,,,,204,2023-03-28_14h58.43.854,Main,2022.1.1,60.02091130498043,
negative,red,1,None,None,,,,,,,,,0,146,146,146,,,,,,,,,,,,,,,,,main,None,None,1,1.4987495997920632,560.0134639001917,None,None,1,,,,,,,,,,,,,,204,2023-03-28_14h58.43.854,Main,2022.1.1,60.02091130498043,
positive,blue,1,k,None,,,,,,,,,0,147,147,147,,,,,,,,,,,,,,,,,main,k,k,1,0.7160181999206543,562.5131061000284,None,None,0,,,,,,,,,,,,,,204,2023-03-28_14h58.43.854,Main,2022.1.1,60.02091130498043,
positive,yellow,1,None,k,,,,,,,,,0,148,148,148,,,,,,,,,,,,,,,,,main,None,None,1,1.501862799981609,564.2297468001489,None,None,1,,,,,,,,,,,,,,204,2023-03-28_14h58.43.854,Main,2022.1.1,60.02091130498043,
negative,red,2,None,None,,,,,,,,,0,149,149,149,,,,,,,,,,,,,,,,,main,None,None,1,1.496487099910155,566.7328296999913,None,None,1,,,,,,,,,,,,,,204,2023-03-28_14h58.43.854,Main,2022.1.1,60.02091130498043,
negative,blue,1,None,k,,,,,,,,,0,150,150,150,,,,,,,,,,,,,,,,,main,None,None,1,1.4989197000395507,569.2300123001914,None,None,1,,,,,,,,,,,,,,204,2023-03-28_14h58.43.854,Main,2022.1.1,60.02091130498043,
negative,yellow,2,k,None,,,,,,,,,0,151,151,151,,,,,,,,,,,,,,,,,main,k,k,1,0.8825657002162188,571.7298153000884,None,None,0,,,,,,,,,,,,,,204,2023-03-28_14h58.43.854,Main,2022.1.1,60.02091130498043,
negative,blue,2,None,k,,,,,,,,,0,152,152,152,,,,,,,,,,,,,,,,,main,None,None,1,1.5018456000834703,573.6132245000917,None,None,1,,,,,,,,,,,,,,204,2023-03-28_14h58.43.854,Main,2022.1.1,60.02091130498043,
negative,yellow,1,k,None,,,,,,,,,0,153,153,153,,,,,,,,,,,,,,,,,main,k,k,1,0.9631565997842699,576.1130866000894,None,None,0,,,,,,,,,,,,,,204,2023-03-28_14h58.43.854,Main,2022.1.1,60.02091130498043,
negative,blue,1,None,k,,,,,,,,,0,154,154,154,,,,,,,,,,,,,,,,,main,None,None,1,1.489274299936369,578.0797207001597,None,None,1,,,,,,,,,,,,,,204,2023-03-28_14h58.43.854,Main,2022.1.1,60.02091130498043,
positive,yellow,2,None,k,,,,,,,,,0,155,155,155,,,,,,,,,,,,,,,,,main,None,None,1,1.4917386998422444,580.5680965001229,None,None,1,,,,,,,,,,,,,,204,2023-03-28_14h58.43.854,Main,2022.1.1,60.02091130498043,
positive,red,2,None,None,,,,,,,,,0,156,156,156,,,,,,,,,,,,,,,,,main,None,None,1,1.4996009001042694,583.0626888000406,None,None,1,,,,,,,,,,,,,,204,2023-03-28_14h58.43.854,Main,2022.1.1,60.02091130498043,
positive,red,1,None,None,,,,,,,,,0,157,157,157,,,,,,,,,,,,,,,,,main,None,None,1,1.4990584999322891,585.5629847000819,None,None,1,,,,,,,,,,,,,,204,2023-03-28_14h58.43.854,Main,2022.1.1,60.02091130498043,
positive,blue,2,k,None,,,,,,,,,0,158,158,158,,,,,,,,,,,,,,,,,main,k,k,1,0.7336763998027891,588.0629223000724,None,None,0,,,,,,,,,,,,,,204,2023-03-28_14h58.43.854,Main,2022.1.1,60.02091130498043,
negative,yellow,1,k,None,,,,,,,,,0,159,159,159,,,,,,,,,,,,,,,,,main,k,k,1,0.7141454999800771,589.7960624000989,None,None,0,,,,,,,,,,,,,,204,2023-03-28_14h58.43.854,Main,2022.1.1,60.02091130498043,
negative,red,2,None,None,,,,,,,,,0,160,160,160,,,,,,,,,,,,,,,,,main,None,None,1,1.50178789999336,591.5128113001119,None,None,1,,,,,,,,,,,,,,204,2023-03-28_14h58.43.854,Main,2022.1.1,60.02091130498043,
negative,blue,1,None,k,,,,,,,,,0,161,161,161,,,,,,,,,,,,,,,,,main,None,None,1,1.4991532999556512,594.0126887999941,None,None,1,,,,,,,,,,,,,,204,2023-03-28_14h58.43.854,Main,2022.1.1,60.02091130498043,
negative,blue,1,None,k,,,,,,,,,0,162,162,162,,,,,,,,,,,,,,,,,main,None,None,1,1.499080599984154,596.5126698999666,None,None,1,,,,,,,,,,,,,,204,2023-03-28_14h58.43.854,Main,2022.1.1,60.02091130498043,
negative,yellow,1,k,None,,,,,,,,,0,163,163,163,,,,,,,,,,,,,,,,,main,k,k,1,0.8296223999932408,599.0127193999942,None,None,0,,,,,,,,,,,,,,204,2023-03-28_14h58.43.854,Main,2022.1.1,60.02091130498043,
negative,yellow,1,k,None,,,,,,,,,0,164,164,164,,,,,,,,,,,,,,,,,main,k,k,1,0.9656017001252621,600.845953800017,None,None,0,,,,,,,,,,,,,,204,2023-03-28_14h58.43.854,Main,2022.1.1,60.02091130498043,
positive,yellow,1,None,k,,,,,,,,,0,165,165,165,,,,,,,,,,,,,,,,,main,None,None,1,1.5020129000768065,602.8122320000548,None,None,1,,,,,,,,,,,,,,204,2023-03-28_14h58.43.854,Main,2022.1.1,60.02091130498043,
negative,red,1,None,None,,,,,,,,,0,166,166,166,,,,,,,,,,,,,,,,,main,None,None,1,1.4993118001148105,605.3125487000216,None,None,1,,,,,,,,,,,,,,204,2023-03-28_14h58.43.854,Main,2022.1.1,60.02091130498043,
negative,yellow,2,k,None,,,,,,,,,0,167,167,167,,,,,,,,,,,,,,,,,main,k,k,1,0.729686499806121,607.8154649999924,None,None,0,,,,,,,,,,,,,,204,2023-03-28_14h58.43.854,Main,2022.1.1,60.02091130498043,
positive,blue,2,k,None,,,,,,,,,0,168,168,168,,,,,,,,,,,,,,,,,main,k,k,1,0.6821107999421656,609.5459694999736,None,None,0,,,,,,,,,,,,,,204,2023-03-28_14h58.43.854,Main,2022.1.1,60.02091130498043,
positive,red,2,None,None,,,,,,,,,0,169,169,169,,,,,,,,,,,,,,,,,main,None,None,1,1.5022915001027286,611.22875140002,None,None,1,,,,,,,,,,,,,,204,2023-03-28_14h58.43.854,Main,2022.1.1,60.02091130498043,
positive,red,1,None,None,,,,,,,,,0,170,170,170,,,,,,,,,,,,,,,,,main,None,None,1,1.500805800082162,613.7319321001414,None,None,1,,,,,,,,,,,,,,204,2023-03-28_14h58.43.854,Main,2022.1.1,60.02091130498043,
negative,blue,2,None,k,,,,,,,,,0,171,171,171,,,,,,,,,,,,,,,,,main,None,None,1,1.497184099862352,616.231863199966,None,None,1,,,,,,,,,,,,,,204,2023-03-28_14h58.43.854,Main,2022.1.1,60.02091130498043,
positive,blue,2,k,None,,,,,,,,,0,172,172,172,,,,,,,,,,,,,,,,,main,k,k,1,0.712952199857682,618.7317191001493,None,None,0,,,,,,,,,,,,,,204,2023-03-28_14h58.43.854,Main,2022.1.1,60.02091130498043,
negative,yellow,2,k,None,,,,,,,,,0,173,173,173,,,,,,,,,,,,,,,,,main,k,k,1,0.7657856999430805,620.4452253000345,None,None,0,,,,,,,,,,,,,,204,2023-03-28_14h58.43.854,Main,2022.1.1,60.02091130498043,
positive,yellow,2,None,k,,,,,,,,,0,174,174,174,,,,,,,,,,,,,,,,,main,None,None,1,1.1883609998039901,622.2118808000814,None,None,1,,,,,,,,,,,,,,204,2023-03-28_14h58.43.854,Main,2022.1.1,60.02091130498043,
negative,blue,2,None,k,,,,,,,,,0,175,175,175,,,,,,,,,,,,,,,,,main,None,k,0,1.4953294999431819,624.3954934000503,None,None,1,,,,,,,,,,,,,,204,2023-03-28_14h58.43.854,Main,2022.1.1,60.02091130498043,
positive,blue,1,k,None,,,,,,,,,0,176,176,176,,,,,,,,,,,,,,,,,main,k,k,1,1.1484286999329925,627.8954496001825,None,None,0,,,,,,,,,,,,,,204,2023-03-28_14h58.43.854,Main,2022.1.1,60.02091130498043,
positive,yellow,1,None,k,,,,,,,,,0,177,177,177,,,,,,,,,,,,,,,,,main,None,None,1,1.5013791001401842,630.0452615001705,None,None,1,,,,,,,,,,,,,,204,2023-03-28_14h58.43.854,Main,2022.1.1,60.02091130498043,
positive,blue,1,k,None,,,,,,,,,0,178,178,178,,,,,,,,,,,,,,,,,main,k,k,1,0.7466676000040025,632.548095199978,None,None,0,,,,,,,,,,,,,,204,2023-03-28_14h58.43.854,Main,2022.1.1,60.02091130498043,
positive,yellow,2,None,k,,,,,,,,,0,179,179,179,,,,,,,,,,,,,,,,,main,None,None,1,1.5019054999575019,634.2952809000853,None,None,1,,,,,,,,,,,,,,204,2023-03-28_14h58.43.854,Main,2022.1.1,60.02091130498043,
positive,blue,1,k,None,,,,,,,,,0,180,180,180,,,,,,,,,,,,,,,,,main,k,k,1,1.02959130005911,636.7951839000452,None,None,0,,,,,,,,,,,,,,204,2023-03-28_14h58.43.854,Main,2022.1.1,60.02091130498043,
negative,red,1,None,None,,,,,,,,,0,181,181,181,,,,,,,,,,,,,,,,,main,None,None,1,1.4987946001347154,638.8286517001688,None,None,1,,,,,,,,,,,,,,204,2023-03-28_14h58.43.854,Main,2022.1.1,60.02091130498043,
negative,blue,1,None,k,,,,,,,,,0,182,182,182,,,,,,,,,,,,,,,,,main,None,None,1,1.498843900160864,641.3281237001065,None,None,1,,,,,,,,,,,,,,204,2023-03-28_14h58.43.854,Main,2022.1.1,60.02091130498043,
negative,yellow,2,k,None,,,,,,,,,0,183,183,183,,,,,,,,,,,,,,,,,main,k,k,1,0.8529276000335813,643.8280776001047,None,None,0,,,,,,,,,,,,,,204,2023-03-28_14h58.43.854,Main,2022.1.1,60.02091130498043,
positive,yellow,2,None,k,,,,,,,,,0,184,184,184,,,,,,,,,,,,,,,,,main,None,None,1,1.4988755998201668,645.6815308001824,None,None,1,,,,,,,,,,,,,,204,2023-03-28_14h58.43.854,Main,2022.1.1,60.02091130498043,
positive,yellow,1,None,k,,,,,,,,,0,185,185,185,,,,,,,,,,,,,,,,,main,None,None,1,1.4990185000933707,648.1783920000307,None,None,1,,,,,,,,,,,,,,204,2023-03-28_14h58.43.854,Main,2022.1.1,60.02091130498043,
positive,red,2,None,None,,,,,,,,,0,186,186,186,,,,,,,,,,,,,,,,,main,None,None,1,1.4960976999718696,650.6783289001323,None,None,1,,,,,,,,,,,,,,204,2023-03-28_14h58.43.854,Main,2022.1.1,60.02091130498043,
positive,blue,1,k,None,,,,,,,,,0,187,187,187,,,,,,,,,,,,,,,,,main,k,k,1,0.8828410001005977,653.1781485001557,None,None,0,,,,,,,,,,,,,,204,2023-03-28_14h58.43.854,Main,2022.1.1,60.02091130498043,
negative,yellow,1,k,None,,,,,,,,,0,188,188,188,,,,,,,,,,,,,,,,,main,k,k,1,0.7148901999462396,655.0615240000188,None,None,0,,,,,,,,,,,,,,204,2023-03-28_14h58.43.854,Main,2022.1.1,60.02091130498043,
positive,yellow,2,None,k,,,,,,,,,0,189,189,189,,,,,,,,,,,,,,,,,main,None,None,1,1.5016822000034153,656.7780923000537,None,None,1,,,,,,,,,,,,,,204,2023-03-28_14h58.43.854,Main,2022.1.1,60.02091130498043,
negative,yellow,2,k,None,,,,,,,,,0,190,190,190,,,,,,,,,,,,,,,,,main,k,k,1,0.7964882000815123,659.2809145001229,None,None,0,,,,,,,,,,,,,,204,2023-03-28_14h58.43.854,Main,2022.1.1,60.02091130498043,
negative,yellow,1,k,None,,,,,,,,,0,191,191,191,,,,,,,,,,,,,,,,,main,k,k,1,0.8323836999479681,661.0780215000268,None,None,0,,,,,,,,,,,,,,204,2023-03-28_14h58.43.854,Main,2022.1.1,60.02091130498043,
positive,blue,2,k,None,,,,,,,,,0,192,192,192,,,,,,,,,,,,,,,,,main,k,k,1,0.6987290000542998,662.9113841000944,None,None,0,,,,,,,,,,,,,,204,2023-03-28_14h58.43.854,Main,2022.1.1,60.02091130498043,
positive,yellow,1,None,k,,,,,,,,,0,193,193,193,,,,,,,,,,,,,,,,,main,None,None,1,1.4989964000415057,664.6109742000699,None,None,1,,,,,,,,,,,,,,204,2023-03-28_14h58.43.854,Main,2022.1.1,60.02091130498043,
negative,red,2,None,None,,,,,,,,,0,194,194,194,,,,,,,,,,,,,,,,,main,None,None,1,1.5025221998803318,667.110984200146,None,None,1,,,,,,,,,,,,,,204,2023-03-28_14h58.43.854,Main,2022.1.1,60.02091130498043,
positive,red,1,None,None,,,,,,,,,0,195,195,195,,,,,,,,,,,,,,,,,main,None,None,1,1.4989278998691589,669.6141284999903,None,None,1,,,,,,,,,,,,,,204,2023-03-28_14h58.43.854,Main,2022.1.1,60.02091130498043,
negative,blue,1,None,k,,,,,,,,,0,196,196,196,,,,,,,,,,,,,,,,,main,None,None,1,1.4962146999314427,672.1112128000241,None,None,1,,,,,,,,,,,,,,204,2023-03-28_14h58.43.854,Main,2022.1.1,60.02091130498043,
positive,blue,2,k,None,,,,,,,,,0,197,197,197,,,,,,,,,,,,,,,,,main,k,k,1,0.7659583000931889,674.6110388000961,None,None,0,,,,,,,,,,,,,,204,2023-03-28_14h58.43.854,Main,2022.1.1,60.02091130498043,
negative,blue,2,None,k,,,,,,,,,0,198,198,198,,,,,,,,,,,,,,,,,main,None,None,1,1.5016199999954551,676.3776722999755,None,None,1,,,,,,,,,,,,,,204,2023-03-28_14h58.43.854,Main,2022.1.1,60.02091130498043,
negative,blue,2,None,k,,,,,,,,,0,199,199,199,,,,,,,,,,,,,,,,,main,None,None,1,1.498979999916628,678.8777414001524,None,None,1,,,,,,,,,,,,,,204,2023-03-28_14h58.43.854,Main,2022.1.1,60.02091130498043,
positive,blue,2,k,None,,,,,,,,,0,200,200,200,,,,,,,,,,,,,,,,,main,k,k,1,0.6631406999658793,681.3777344999835,None,None,0,,,,,,,,,,,,,,204,2023-03-28_14h58.43.854,Main,2022.1.1,60.02091130498043,
positive,blue,2,k,None,,,,,,,,,0,201,201,201,,,,,,,,,,,,,,,,,main,k,k,1,0.7827373999170959,683.044231900014,None,None,0,,,,,,,,,,,,,,204,2023-03-28_14h58.43.854,Main,2022.1.1,60.02091130498043,
negative,yellow,2,k,None,,,,,,,,,0,202,202,202,,,,,,,,,,,,,,,,,main,k,k,1,0.7653308000881225,684.8275452000089,None,None,0,,,,,,,,,,,,,,204,2023-03-28_14h58.43.854,Main,2022.1.1,60.02091130498043,
positive,red,1,None,None,,,,,,,,,0,203,203,203,,,,,,,,,,,,,,,,,main,None,None,1,1.5022573999594897,686.5938409999944,None,None,1,,,,,,,,,,,,,,204,2023-03-28_14h58.43.854,Main,2022.1.1,60.02091130498043,
negative,blue,2,None,k,,,,,,,,,0,204,204,204,,,,,,,,,,,,,,,,,main,None,None,1,1.4991093000862747,689.0970863001421,None,None,1,,,,,,,,,,,,,,204,2023-03-28_14h58.43.854,Main,2022.1.1,60.02091130498043,
negative,red,1,None,None,,,,,,,,,0,205,205,205,,,,,,,,,,,,,,,,,main,None,None,1,1.499083299888298,691.5941420001909,None,None,1,,,,,,,,,,,,,,204,2023-03-28_14h58.43.854,Main,2022.1.1,60.02091130498043,
negative,blue,2,None,k,,,,,,,,,0,206,206,206,,,,,,,,,,,,,,,,,main,None,None,1,1.4961065999232233,694.0969918000046,None,None,1,,,,,,,,,,,,,,204,2023-03-28_14h58.43.854,Main,2022.1.1,60.02091130498043,
negative,yellow,2,k,None,,,,,,,,,0,207,207,207,,,,,,,,,,,,,,,,,main,k,k,1,0.7993914999533445,696.5968035000842,None,None,0,,,,,,,,,,,,,,204,2023-03-28_14h58.43.854,Main,2022.1.1,60.02091130498043,
positive,yellow,2,None,k,,,,,,,,,0,208,208,208,,,,,,,,,,,,,,,,,main,None,None,1,1.5020915002096444,698.3939047001768,None,None,1,,,,,,,,,,,,,,204,2023-03-28_14h58.43.854,Main,2022.1.1,60.02091130498043,
negative,yellow,1,k,None,,,,,,,,,0,209,209,209,,,,,,,,,,,,,,,,,main,k,k,1,0.8463601002003998,700.8938740000594,None,None,0,,,,,,,,,,,,,,204,2023-03-28_14h58.43.854,Main,2022.1.1,60.02091130498043,
negative,red,2,None,None,,,,,,,,,0,210,210,210,,,,,,,,,,,,,,,,,main,None,None,1,1.5015583001077175,702.7439632001333,None,None,1,,,,,,,,,,,,,,204,2023-03-28_14h58.43.854,Main,2022.1.1,60.02091130498043,
negative,blue,1,None,k,,,,,,,,,0,211,211,211,,,,,,,,,,,,,,,,,main,None,None,1,1.495967899914831,705.2438110001385,None,None,1,,,,,,,,,,,,,,204,2023-03-28_14h58.43.854,Main,2022.1.1,60.02091130498043,
negative,yellow,1,k,None,,,,,,,,,0,212,212,212,,,,,,,,,,,,,,,,,main,k,k,1,0.8326124998275191,707.7434290000238,None,None,0,,,,,,,,,,,,,,204,2023-03-28_14h58.43.854,Main,2022.1.1,60.02091130498043,
positive,blue,1,k,None,,,,,,,,,0,213,213,213,,,,,,,,,,,,,,,,,main,k,k,1,0.6830099001526833,709.5767688001506,None,None,0,,,,,,,,,,,,,,204,2023-03-28_14h58.43.854,Main,2022.1.1,60.02091130498043,
positive,blue,1,k,None,,,,,,,,,0,214,214,214,,,,,,,,,,,,,,,,,main,k,k,1,0.7823238000273705,711.260430400027,None,None,0,,,,,,,,,,,,,,204,2023-03-28_14h58.43.854,Main,2022.1.1,60.02091130498043,
positive,yellow,1,None,k,,,,,,,,,0,215,215,215,,,,,,,,,,,,,,,,,main,None,None,1,1.5016575998160988,713.0436790999956,None,None,1,,,,,,,,,,,,,,204,2023-03-28_14h58.43.854,Main,2022.1.1,60.02091130498043,
positive,yellow,1,None,k,,,,,,,,,0,216,216,216,,,,,,,,,,,,,,,,,main,None,None,1,1.49700150010176,715.5465196000878,None,None,1,,,,,,,,,,,,,,204,2023-03-28_14h58.43.854,Main,2022.1.1,60.02091130498043,
positive,yellow,2,None,k,,,,,,,,,0,217,217,217,,,,,,,,,,,,,,,,,main,None,None,1,1.498318900121376,718.0434811001178,None,None,1,,,,,,,,,,,,,,204,2023-03-28_14h58.43.854,Main,2022.1.1,60.02091130498043,
negative,blue,1,None,k,,,,,,,,,0,218,218,218,,,,,,,,,,,,,,,,,main,None,None,1,1.4992085001431406,720.5434681000188,None,None,1,,,,,,,,,,,,,,204,2023-03-28_14h58.43.854,Main,2022.1.1,60.02091130498043,
positive,red,2,None,None,,,,,,,,,0,219,219,219,,,,,,,,,,,,,,,,,main,None,None,1,1.5019865001086146,723.0433875001036,None,None,1,,,,,,,,,,,,,,204,2023-03-28_14h58.43.854,Main,2022.1.1,60.02091130498043,
positive,yellow,1,None,k,,,,,,,,,0,220,220,220,,,,,,,,,,,,,,,,,main,None,None,1,1.495821600081399,725.5433752001263,None,None,1,,,,,,,,,,,,,,204,2023-03-28_14h58.43.854,Main,2022.1.1,60.02091130498043,
positive,blue,1,k,None,,,,,,,,,0,221,221,221,,,,,,,,,,,,,,,,,main,k,k,1,1.08300740015693,728.0430499999784,None,None,0,,,,,,,,,,,,,,204,2023-03-28_14h58.43.854,Main,2022.1.1,60.02091130498043,
positive,yellow,2,None,k,,,,,,,,,0,222,222,222,,,,,,,,,,,,,,,,,main,None,None,1,1.5016918999608606,730.1267048001755,None,None,1,,,,,,,,,,,,,,204,2023-03-28_14h58.43.854,Main,2022.1.1,60.02091130498043,
negative,yellow,1,k,None,,,,,,,,,0,223,223,223,,,,,,,,,,,,,,,,,main,k,k,1,0.7963621001690626,732.6294235000387,None,None,0,,,,,,,,,,,,,,204,2023-03-28_14h58.43.854,Main,2022.1.1,60.02091130498043,
positive,yellow,2,None,k,,,,,,,,,0,224,224,224,,,,,,,,,,,,,,,,,main,None,None,1,1.499909499892965,734.4265939001925,None,None,1,,,,,,,,,,,,,,204,2023-03-28_14h58.43.854,Main,2022.1.1,60.02091130498043,
negative,yellow,2,k,None,,,,,,,,,0,225,225,225,,,,,,,,,,,,,,,,,main,k,k,1,0.7650799001567066,736.9263113001361,None,None,0,,,,,,,,,,,,,,204,2023-03-28_14h58.43.854,Main,2022.1.1,60.02091130498043,
negative,blue,2,None,k,,,,,,,,,0,226,226,226,,,,,,,,,,,,,,,,,main,None,None,1,1.5018031001091003,738.6932612999808,None,None,1,,,,,,,,,,,,,,204,2023-03-28_14h58.43.854,Main,2022.1.1,60.02091130498043,
positive,red,2,None,None,,,,,,,,,0,227,227,227,,,,,,,,,,,,,,,,,main,None,None,1,1.4989670999348164,741.1960096000694,None,None,1,,,,,,,,,,,,,,204,2023-03-28_14h58.43.854,Main,2022.1.1,60.02091130498043,
positive,blue,2,k,None,,,,,,,,,0,228,228,228,,,,,,,,,,,,,,,,,main,k,k,1,0.7295842000748962,743.6930717001669,None,None,0,,,,,,,,,,,,,,204,2023-03-28_14h58.43.854,Main,2022.1.1,60.02091130498043,
negative,blue,1,None,k,,,,,,,,,0,229,229,229,,,,,,,,,,,,,,,,,main,None,None,1,1.4989918998908252,745.4262037000153,None,None,1,,,,,,,,,,,,,,204,2023-03-28_14h58.43.854,Main,2022.1.1,60.02091130498043,
positive,yellow,1,None,k,,,,,,,,,0,230,230,230,,,,,,,,,,,,,,,,,main,None,None,1,1.4991405000910163,747.9261738001369,None,None,1,,,,,,,,,,,,,,204,2023-03-28_14h58.43.854,Main,2022.1.1,60.02091130498043,
negative,blue,2,None,k,,,,,,,,,0,231,231,231,,,,,,,,,,,,,,,,,main,None,None,1,1.502151499968022,750.4261710999999,None,None,1,,,,,,,,,,,,,,204,2023-03-28_14h58.43.854,Main,2022.1.1,60.02091130498043,
negative,red,1,None,None,,,,,,,,,0,232,232,232,,,,,,,,,,,,,,,,,main,None,None,1,1.4990867001470178,752.9263899000362,None,None,1,,,,,,,,,,,,,,204,2023-03-28_14h58.43.854,Main,2022.1.1,60.02091130498043,
positive,blue,2,k,None,,,,,,,,,0,233,233,233,,,,,,,,,,,,,,,,,main,k,k,1,0.7835619000252336,755.4289878001437,None,None,0,,,,,,,,,,,,,,204,2023-03-28_14h58.43.854,Main,2022.1.1,60.02091130498043,
negative,yellow,1,k,None,,,,,,,,,0,234,234,234,,,,,,,,,,,,,,,,,main,k,k,1,0.7111567000392824,757.2094030000735,None,None,0,,,,,,,,,,,,,,204,2023-03-28_14h58.43.854,Main,2022.1.1,60.02091130498043,
negative,yellow,2,k,None,,,,,,,,,0,235,235,235,,,,,,,,,,,,,,,,,main,k,k,1,0.866217999951914,758.925698600011,None,None,0,,,,,,,,,,,,,,204,2023-03-28_14h58.43.854,Main,2022.1.1,60.02091130498043,
positive,red,1,None,None,,,,,,,,,0,236,236,236,,,,,,,,,,,,,,,,,main,None,None,1,1.5018617000896484,760.7927328001242,None,None,1,,,,,,,,,,,,,,204,2023-03-28_14h58.43.854,Main,2022.1.1,60.02091130498043,
negative,red,2,None,None,,,,,,,,,0,237,237,237,,,,,,,,,,,,,,,,,main,None,None,1,1.4994028001092374,763.2926651001908,None,None,1,,,,,,,,,,,,,,204,2023-03-28_14h58.43.854,Main,2022.1.1,60.02091130498043,
negative,blue,1,None,k,,,,,,,,,0,238,238,238,,,,,,,,,,,,,,,,,main,None,None,1,1.4959428999572992,765.7954912001733,None,None,1,,,,,,,,,,,,,,204,2023-03-28_14h58.43.854,Main,2022.1.1,60.02091130498043,
positive,blue,1,k,None,,,,,,,,,0,239,239,239,,,,,,,,,,,,,,,,,main,k,k,1,0.7827228000387549,768.292467399966,None,None,0,,,,,,,,,,,,,,204,2023-03-28_14h58.43.854,Main,2022.1.1,60.02091130498043,
,,,,,,,,,,,,,,,,,,,,,,,,,,,,,,,,,,,,,,,,,,,,,,,,,,,,,770.078769700136,None,,,,,,
