distractor,target,set,ans1,ans2,rep_loop4.thisRepN,rep_loop4.thisTrialN,rep_loop4.thisN,rep_loop4.thisIndex,st2_prac_loop.thisRepN,st2_prac_loop.thisTrialN,st2_prac_loop.thisN,st2_prac_loop.thisIndex,st2_main_loop.thisRepN,st2_main_loop.thisTrialN,st2_main_loop.thisN,st2_main_loop.thisIndex,image_4.started,image_4.stopped,sound_2.started,sound_2.stopped,key_resp_3.keys,key_resp_3.rt,image_5.started,image_5.stopped,st_prac_back.started,st_prac_back.stopped,st_prac_text.started,st_prac_text.stopped,st_fix_back.started,st_fix_back.stopped,st_fix_2.started,st_fix_2.stopped,main_prac,st_ans,st_res,st_corr,st_rt,st_back.started,st_back.stopped,st2_resp.keys,st2_resp.corr,st_main_back.started,st_main_back.stopped,st_main_text.started,st_main_text.stopped,mouse_4.x,mouse_4.y,mouse_4.leftButton,mouse_4.midButton,mouse_4.rightButton,mouse_4.started,mouse_4.stopped,text_2.started,text_2.stopped,id*,date,expName,psychopyVersion,frameRate,
negative,yellow,1,k,None,,,,,0,0,0,0,,,,,40.810642400057986,None,45.05249280016869,None,space,57.56465260009281,102.64824290014803,None,103.78457390004769,None,103.78457390004769,None,105.78459950000979,None,105.78459950000979,None,prac,None,None,1,1.499887099955231,107.7928583000321,None,None,1,,,,,,,,,,,,,,205,2023-03-29_10h37.37.539,Main,2022.1.1,59.98638314097449,
positive,red,2,None,None,,,,,0,1,1,1,,,,,,,,,,,,,,,,,,,,,prac,None,None,1,1.4990159999579191,110.29812630009837,None,None,1,,,,,,,,,,,,,,205,2023-03-29_10h37.37.539,Main,2022.1.1,59.98638314097449,
negative,blue,2,None,k,,,,,0,2,2,2,,,,,,,,,,,,,,,,,,,,,prac,k,k,1,1.2967383000068367,112.79809660022147,None,None,0,,,,,,,,,,,,,,205,2023-03-29_10h37.37.539,Main,2022.1.1,59.98638314097449,
positive,yellow,1,None,k,,,,,0,3,3,3,,,,,,,,,,,,,,,,,,,,,prac,k,k,1,0.9520143000409007,115.10088580008596,None,None,0,,,,,,,,,,,,,,205,2023-03-29_10h37.37.539,Main,2022.1.1,59.98638314097449,
negative,blue,2,None,k,,,,,0,4,4,4,,,,,,,,,,,,,,,,,,,,,prac,k,k,1,1.249179600039497,117.05094940005802,None,None,0,,,,,,,,,,,,,,205,2023-03-29_10h37.37.539,Main,2022.1.1,59.98638314097449,
negative,blue,1,None,k,,,,,0,5,5,5,,,,,,,,,,,,,,,,,,,,,prac,k,k,1,1.1790584998670965,119.3009748000186,None,None,0,,,,,,,,,,,,,,205,2023-03-29_10h37.37.539,Main,2022.1.1,59.98638314097449,
negative,yellow,2,k,None,,,,,0,6,6,6,,,,,,,,,,,,,,,,,,,,,prac,None,None,1,1.5019835999701172,121.48102630022913,None,None,1,,,,,,,,,,,,,,205,2023-03-29_10h37.37.539,Main,2022.1.1,59.98638314097449,
negative,red,1,None,None,,,,,0,7,7,7,,,,,,,,,,,,,,,,,,,,,prac,None,None,1,1.4991909000091255,123.98406660021283,None,None,1,,,,,,,,,,,,,,205,2023-03-29_10h37.37.539,Main,2022.1.1,59.98638314097449,
positive,yellow,2,None,k,,,,,0,8,8,8,,,,,,,,,,,,,,,,,,,,,prac,k,k,1,1.0707829999737442,126.4841176001355,None,None,0,,,,,,,,,,,,,,205,2023-03-29_10h37.37.539,Main,2022.1.1,59.98638314097449,
negative,yellow,1,k,None,,,,,0,9,9,9,,,,,,,,,,,,,,,,,,,,,prac,None,None,1,1.4910775998141617,128.56064210017212,None,None,1,,,,,,,,,,,,,,205,2023-03-29_10h37.37.539,Main,2022.1.1,59.98638314097449,
positive,yellow,2,None,k,,,,,0,10,10,10,,,,,,,,,,,,,,,,,,,,,prac,k,k,1,0.6522031999193132,131.04748980002478,None,None,0,,,,,,,,,,,,,,205,2023-03-29_10h37.37.539,Main,2022.1.1,59.98638314097449,
negative,yellow,2,k,None,,,,,0,11,11,11,,,,,,,,,,,,,,,,,,,,,prac,None,None,1,1.49632090004161,132.70073350006714,None,None,1,,,,,,,,,,,,,,205,2023-03-29_10h37.37.539,Main,2022.1.1,59.98638314097449,
negative,red,2,None,None,,,,,0,12,12,12,,,,,,,,,,,,,,,,,,,,,prac,None,None,1,1.5017128000035882,135.2006348001305,None,None,1,,,,,,,,,,,,,,205,2023-03-29_10h37.37.539,Main,2022.1.1,59.98638314097449,
positive,red,1,None,None,,,,,0,13,13,13,,,,,,,,,,,,,,,,,,,,,prac,None,None,1,1.4991413000971079,137.69754270021804,None,None,1,,,,,,,,,,,,,,205,2023-03-29_10h37.37.539,Main,2022.1.1,59.98638314097449,
positive,blue,2,k,None,,,,,0,14,14,14,,,,,,,,,,,,,,,,,,,,,prac,None,k,0,0.6166978999972343,140.2003497001715,None,None,1,,,,,,,,,,,,,,205,2023-03-29_10h37.37.539,Main,2022.1.1,59.98638314097449,
positive,blue,1,k,None,,,,,0,15,15,15,,,,,,,,,,,,,,,,,,,,,prac,None,None,1,1.5009415000677109,142.81418180000037,None,None,1,,,,,,,,,,,,,,205,2023-03-29_10h37.37.539,Main,2022.1.1,59.98638314097449,
negative,blue,1,None,k,,,,,0,16,16,16,,,,,,,,,,,,,,,,,,,,,prac,k,k,1,0.7824253998696804,145.31698330002837,None,None,0,,,,,,,,,,,,,,205,2023-03-29_10h37.37.539,Main,2022.1.1,59.98638314097449,
positive,blue,2,k,None,,,,,0,17,17,17,,,,,,,,,,,,,,,,,,,,,prac,None,None,1,1.4991473001427948,147.10025900020264,None,None,1,,,,,,,,,,,,,,205,2023-03-29_10h37.37.539,Main,2022.1.1,59.98638314097449,
positive,blue,1,k,None,,,,,0,18,18,18,,,,,,,,,,,,,,,,,,,,,prac,None,None,1,1.4957304000854492,149.59740280010737,None,None,1,,,,,,,,,,,,,,205,2023-03-29_10h37.37.539,Main,2022.1.1,59.98638314097449,
positive,yellow,1,None,k,,,,,0,19,19,19,,,,,,,,,,,,,,,,,,,,,prac,k,k,1,0.7526354000438005,152.09708460001275,None,None,0,,,,,,,,,,,,,,205,2023-03-29_10h37.37.539,Main,2022.1.1,59.98638314097449,
negative,yellow,1,k,None,,,,,1,0,20,0,,,,,,,,,,,,,,,,,,,,,prac,None,None,1,1.4989970999304205,153.85018090019003,None,None,1,,,,,,,,,,,,,,205,2023-03-29_10h37.37.539,Main,2022.1.1,59.98638314097449,
positive,red,2,None,None,,,,,1,1,21,1,,,,,,,,,,,,,,,,,,,,,prac,None,None,1,1.4988870997913182,156.35021610022523,None,None,1,,,,,,,,,,,,,,205,2023-03-29_10h37.37.539,Main,2022.1.1,59.98638314097449,
negative,blue,2,None,k,,,,,1,2,22,2,,,,,,,,,,,,,,,,,,,,,prac,k,k,1,0.6966639999300241,158.84712960012257,None,None,0,,,,,,,,,,,,,,205,2023-03-29_10h37.37.539,Main,2022.1.1,59.98638314097449,
positive,yellow,1,None,k,,,,,1,3,23,3,,,,,,,,,,,,,,,,,,,,,prac,k,k,1,1.1185202000197023,160.55002750013955,None,None,0,,,,,,,,,,,,,,205,2023-03-29_10h37.37.539,Main,2022.1.1,59.98638314097449,
negative,blue,2,None,k,,,,,1,4,24,4,,,,,,,,,,,,,,,,,,,,,prac,k,k,1,0.8297291998751462,162.66656350018457,None,None,0,,,,,,,,,,,,,,205,2023-03-29_10h37.37.539,Main,2022.1.1,59.98638314097449,
negative,blue,1,None,k,,,,,1,5,25,5,,,,,,,,,,,,,,,,,,,,,prac,k,k,1,0.7659335001371801,164.49707450019196,None,None,0,,,,,,,,,,,,,,205,2023-03-29_10h37.37.539,Main,2022.1.1,59.98638314097449,
negative,yellow,2,k,None,,,,,1,6,26,6,,,,,,,,,,,,,,,,,,,,,prac,None,None,1,1.5015517000574619,166.26370200002566,None,None,1,,,,,,,,,,,,,,205,2023-03-29_10h37.37.539,Main,2022.1.1,59.98638314097449,
negative,red,1,None,None,,,,,1,7,27,7,,,,,,,,,,,,,,,,,,,,,prac,None,None,1,1.4991106998641044,168.76368329999968,None,None,1,,,,,,,,,,,,,,205,2023-03-29_10h37.37.539,Main,2022.1.1,59.98638314097449,
positive,yellow,2,None,k,,,,,1,8,28,8,,,,,,,,,,,,,,,,,,,,,prac,k,k,1,0.8129398000892252,171.26651380001567,None,None,0,,,,,,,,,,,,,,205,2023-03-29_10h37.37.539,Main,2022.1.1,59.98638314097449,
negative,yellow,1,k,None,,,,,1,9,29,9,,,,,,,,,,,,,,,,,,,,,prac,None,None,1,1.498951300047338,173.07994640013203,None,None,1,,,,,,,,,,,,,,205,2023-03-29_10h37.37.539,Main,2022.1.1,59.98638314097449,
positive,yellow,2,None,k,,,,,1,10,30,10,,,,,,,,,,,,,,,,,,,,,prac,k,k,1,0.8161875000223517,175.57991450000554,None,None,0,,,,,,,,,,,,,,205,2023-03-29_10h37.37.539,Main,2022.1.1,59.98638314097449,
negative,yellow,2,k,None,,,,,1,11,31,11,,,,,,,,,,,,,,,,,,,,,prac,None,None,1,1.5021695999894291,177.39659260003828,None,None,1,,,,,,,,,,,,,,205,2023-03-29_10h37.37.539,Main,2022.1.1,59.98638314097449,
negative,red,2,None,None,,,,,1,12,32,12,,,,,,,,,,,,,,,,,,,,,prac,None,None,1,1.4989332999102771,179.899753900012,None,None,1,,,,,,,,,,,,,,205,2023-03-29_10h37.37.539,Main,2022.1.1,59.98638314097449,
positive,red,1,None,None,,,,,1,13,33,13,,,,,,,,,,,,,,,,,,,,,prac,None,None,1,1.4988558001350611,182.3996745001059,None,None,1,,,,,,,,,,,,,,205,2023-03-29_10h37.37.539,Main,2022.1.1,59.98638314097449,
positive,blue,2,k,None,,,,,1,14,34,14,,,,,,,,,,,,,,,,,,,,,prac,None,k,0,0.6494986999314278,184.8994639001321,None,None,1,,,,,,,,,,,,,,205,2023-03-29_10h37.37.539,Main,2022.1.1,59.98638314097449,
positive,blue,1,k,None,,,,,1,15,35,15,,,,,,,,,,,,,,,,,,,,,prac,None,None,1,1.4982537000905722,187.54661380010657,None,None,1,,,,,,,,,,,,,,205,2023-03-29_10h37.37.539,Main,2022.1.1,59.98638314097449,
negative,blue,1,None,k,,,,,1,16,36,16,,,,,,,,,,,,,,,,,,,,,prac,k,k,1,0.9017232998739928,190.04936070018448,None,None,0,,,,,,,,,,,,,,205,2023-03-29_10h37.37.539,Main,2022.1.1,59.98638314097449,
positive,blue,2,k,None,,,,,1,17,37,17,,,,,,,,,,,,,,,,,,,,,prac,None,None,1,1.499094600090757,191.94943170016631,None,None,1,,,,,,,,,,,,,,205,2023-03-29_10h37.37.539,Main,2022.1.1,59.98638314097449,
positive,blue,1,k,None,,,,,1,18,38,18,,,,,,,,,,,,,,,,,,,,,prac,None,None,1,1.5036250001285225,194.44649420003407,None,None,1,,,,,,,,,,,,,,205,2023-03-29_10h37.37.539,Main,2022.1.1,59.98638314097449,
positive,yellow,1,None,k,,,,,1,19,39,19,,,,,,,,,,,,,,,,,,,,,prac,k,k,1,0.6416786999907345,196.95204410003498,None,None,0,,,,,,,,,,,,,,205,2023-03-29_10h37.37.539,Main,2022.1.1,59.98638314097449,
,,,,,,,,,,,,,,,,,,,,,,,,,,,,,,,,,,,,,,,,,,198.59609230002388,None,198.59609230002388,None,-0.106481485,-0.062962964,0,0,0,0.014044199837371707,None,,,205,2023-03-29_10h37.37.539,Main,2022.1.1,59.98638314097449,
negative,yellow,2,k,None,,,,,,,,,0,0,0,0,,,,,,,,,,,,,199.91608130000532,None,199.91608130000532,None,main,None,None,1,1.5000765998847783,201.94051750004292,None,None,1,,,,,,,,,,,,,,205,2023-03-29_10h37.37.539,Main,2022.1.1,59.98638314097449,
positive,red,1,None,None,,,,,,,,,0,1,1,1,,,,,,,,,,,,,,,,,main,None,None,1,1.4957032001111656,204.4463849000167,None,None,1,,,,,,,,,,,,,,205,2023-03-29_10h37.37.539,Main,2022.1.1,59.98638314097449,
positive,blue,2,k,None,,,,,,,,,0,2,2,2,,,,,,,,,,,,,,,,,main,None,None,1,1.499177600024268,206.94593830010854,None,None,1,,,,,,,,,,,,,,205,2023-03-29_10h37.37.539,Main,2022.1.1,59.98638314097449,
positive,blue,1,k,None,,,,,,,,,0,3,3,3,,,,,,,,,,,,,,,,,main,None,None,1,1.502354099880904,209.44593020016328,None,None,1,,,,,,,,,,,,,,205,2023-03-29_10h37.37.539,Main,2022.1.1,59.98638314097449,
negative,yellow,2,k,None,,,,,,,,,0,4,4,4,,,,,,,,,,,,,,,,,main,None,k,0,0.7659386999439448,211.94912140001543,None,None,1,,,,,,,,,,,,,,205,2023-03-29_10h37.37.539,Main,2022.1.1,59.98638314097449,
positive,yellow,2,None,k,,,,,,,,,0,5,5,5,,,,,,,,,,,,,,,,,main,k,k,1,0.8012707000598311,214.7157268000301,None,None,0,,,,,,,,,,,,,,205,2023-03-29_10h37.37.539,Main,2022.1.1,59.98638314097449,
negative,blue,2,None,k,,,,,,,,,0,6,6,6,,,,,,,,,,,,,,,,,main,k,k,1,0.7794167001266032,216.51561580016278,None,None,0,,,,,,,,,,,,,,205,2023-03-29_10h37.37.539,Main,2022.1.1,59.98638314097449,
positive,red,2,None,None,,,,,,,,,0,7,7,7,,,,,,,,,,,,,,,,,main,None,None,1,1.4989481000229716,218.2988732000813,None,None,1,,,,,,,,,,,,,,205,2023-03-29_10h37.37.539,Main,2022.1.1,59.98638314097449,
positive,yellow,1,None,k,,,,,,,,,0,8,8,8,,,,,,,,,,,,,,,,,main,k,k,1,0.8356478000059724,220.798744100146,None,None,0,,,,,,,,,,,,,,205,2023-03-29_10h37.37.539,Main,2022.1.1,59.98638314097449,
negative,red,1,None,None,,,,,,,,,0,9,9,9,,,,,,,,,,,,,,,,,main,None,None,1,1.4988164000678807,222.63215470011346,None,None,1,,,,,,,,,,,,,,205,2023-03-29_10h37.37.539,Main,2022.1.1,59.98638314097449,
positive,yellow,1,None,k,,,,,,,,,0,10,10,10,,,,,,,,,,,,,,,,,main,k,k,1,1.3162071001715958,225.1292046001181,None,None,0,,,,,,,,,,,,,,205,2023-03-29_10h37.37.539,Main,2022.1.1,59.98638314097449,
negative,yellow,1,k,None,,,,,,,,,0,11,11,11,,,,,,,,,,,,,,,,,main,None,None,1,1.496165300020948,227.44568680017255,None,None,1,,,,,,,,,,,,,,205,2023-03-29_10h37.37.539,Main,2022.1.1,59.98638314097449,
negative,yellow,1,k,None,,,,,,,,,0,12,12,12,,,,,,,,,,,,,,,,,main,None,None,1,1.4987266999669373,229.94860490015708,None,None,1,,,,,,,,,,,,,,205,2023-03-29_10h37.37.539,Main,2022.1.1,59.98638314097449,
negative,red,2,None,None,,,,,,,,,0,13,13,13,,,,,,,,,,,,,,,,,main,None,None,1,1.5019619001541287,232.4455040001776,None,None,1,,,,,,,,,,,,,,205,2023-03-29_10h37.37.539,Main,2022.1.1,59.98638314097449,
positive,yellow,2,None,k,,,,,,,,,0,14,14,14,,,,,,,,,,,,,,,,,main,k,k,1,0.7143992998171598,234.9486382000614,None,None,0,,,,,,,,,,,,,,205,2023-03-29_10h37.37.539,Main,2022.1.1,59.98638314097449,
positive,blue,1,k,None,,,,,,,,,0,15,15,15,,,,,,,,,,,,,,,,,main,None,None,1,1.5004022000357509,236.6555049000308,None,None,1,,,,,,,,,,,,,,205,2023-03-29_10h37.37.539,Main,2022.1.1,59.98638314097449,
negative,blue,1,None,k,,,,,,,,,0,16,16,16,,,,,,,,,,,,,,,,,main,k,k,1,0.6828205999918282,239.16511800000444,None,None,0,,,,,,,,,,,,,,205,2023-03-29_10h37.37.539,Main,2022.1.1,59.98638314097449,
positive,blue,2,k,None,,,,,,,,,0,17,17,17,,,,,,,,,,,,,,,,,main,None,None,1,1.498931200010702,240.84834290016443,None,None,1,,,,,,,,,,,,,,205,2023-03-29_10h37.37.539,Main,2022.1.1,59.98638314097449,
negative,blue,2,None,k,,,,,,,,,0,18,18,18,,,,,,,,,,,,,,,,,main,k,k,1,0.6132269001100212,243.34833920001984,None,None,0,,,,,,,,,,,,,,205,2023-03-29_10h37.37.539,Main,2022.1.1,59.98638314097449,
negative,blue,1,None,k,,,,,,,,,0,19,19,19,,,,,,,,,,,,,,,,,main,k,k,1,0.7827491001226008,244.96495590009727,None,None,0,,,,,,,,,,,,,,205,2023-03-29_10h37.37.539,Main,2022.1.1,59.98638314097449,
negative,blue,1,None,k,,,,,,,,,0,20,20,20,,,,,,,,,,,,,,,,,main,k,k,1,0.6488850000314415,246.74833960016258,None,None,0,,,,,,,,,,,,,,205,2023-03-29_10h37.37.539,Main,2022.1.1,59.98638314097449,
negative,blue,2,None,k,,,,,,,,,0,21,21,21,,,,,,,,,,,,,,,,,main,k,k,1,0.7161362001206726,248.3982342001982,None,None,0,,,,,,,,,,,,,,205,2023-03-29_10h37.37.539,Main,2022.1.1,59.98638314097449,
negative,red,1,None,None,,,,,,,,,0,22,22,22,,,,,,,,,,,,,,,,,main,None,None,1,1.4984228999819607,250.11210400005803,None,None,1,,,,,,,,,,,,,,205,2023-03-29_10h37.37.539,Main,2022.1.1,59.98638314097449,
positive,red,2,None,None,,,,,,,,,0,23,23,23,,,,,,,,,,,,,,,,,main,None,None,1,1.499248799867928,252.61170650017448,None,None,1,,,,,,,,,,,,,,205,2023-03-29_10h37.37.539,Main,2022.1.1,59.98638314097449,
negative,red,2,None,None,,,,,,,,,0,24,24,24,,,,,,,,,,,,,,,,,main,None,None,1,1.5023503999691457,255.11170890019275,None,None,1,,,,,,,,,,,,,,205,2023-03-29_10h37.37.539,Main,2022.1.1,59.98638314097449,
positive,blue,2,k,None,,,,,,,,,0,25,25,25,,,,,,,,,,,,,,,,,main,None,None,1,1.4990339998621494,257.61482960009016,None,None,1,,,,,,,,,,,,,,205,2023-03-29_10h37.37.539,Main,2022.1.1,59.98638314097449,
negative,yellow,1,k,None,,,,,,,,,0,26,26,26,,,,,,,,,,,,,,,,,main,None,None,1,1.4989684000611305,260.1147993002087,None,None,1,,,,,,,,,,,,,,205,2023-03-29_10h37.37.539,Main,2022.1.1,59.98638314097449,
positive,blue,2,k,None,,,,,,,,,0,27,27,27,,,,,,,,,,,,,,,,,main,None,None,1,1.4989728000946343,262.6145897000097,None,None,1,,,,,,,,,,,,,,205,2023-03-29_10h37.37.539,Main,2022.1.1,59.98638314097449,
negative,blue,2,None,k,,,,,,,,,0,28,28,28,,,,,,,,,,,,,,,,,main,k,k,1,1.0965336000081152,265.1145255002193,None,None,0,,,,,,,,,,,,,,205,2023-03-29_10h37.37.539,Main,2022.1.1,59.98638314097449,
positive,red,1,None,None,,,,,,,,,0,29,29,29,,,,,,,,,,,,,,,,,main,None,None,1,1.4990356999915093,267.21169810020365,None,None,1,,,,,,,,,,,,,,205,2023-03-29_10h37.37.539,Main,2022.1.1,59.98638314097449,
positive,blue,1,k,None,,,,,,,,,0,30,30,30,,,,,,,,,,,,,,,,,main,None,None,1,1.5018254001624882,269.71448400011286,None,None,1,,,,,,,,,,,,,,205,2023-03-29_10h37.37.539,Main,2022.1.1,59.98638314097449,
positive,yellow,1,None,k,,,,,,,,,0,31,31,31,,,,,,,,,,,,,,,,,main,k,k,1,0.8800200000405312,272.214406600222,None,None,0,,,,,,,,,,,,,,205,2023-03-29_10h37.37.539,Main,2022.1.1,59.98638314097449,
negative,yellow,2,k,None,,,,,,,,,0,32,32,32,,,,,,,,,,,,,,,,,main,None,None,1,1.498655900126323,274.09791380004026,None,None,1,,,,,,,,,,,,,,205,2023-03-29_10h37.37.539,Main,2022.1.1,59.98638314097449,
negative,blue,1,None,k,,,,,,,,,0,33,33,33,,,,,,,,,,,,,,,,,main,k,k,1,0.6662341998890042,276.594564500032,None,None,0,,,,,,,,,,,,,,205,2023-03-29_10h37.37.539,Main,2022.1.1,59.98638314097449,
positive,blue,1,k,None,,,,,,,,,0,34,34,34,,,,,,,,,,,,,,,,,main,None,None,1,1.5017283000051975,278.2644952000119,None,None,1,,,,,,,,,,,,,,205,2023-03-29_10h37.37.539,Main,2022.1.1,59.98638314097449,
negative,yellow,1,k,None,,,,,,,,,0,35,35,35,,,,,,,,,,,,,,,,,main,None,None,1,1.4992190001066774,280.7642996001523,None,None,1,,,,,,,,,,,,,,205,2023-03-29_10h37.37.539,Main,2022.1.1,59.98638314097449,
positive,yellow,2,None,k,,,,,,,,,0,36,36,36,,,,,,,,,,,,,,,,,main,k,k,1,0.9632033000234514,283.26435840013437,None,None,0,,,,,,,,,,,,,,205,2023-03-29_10h37.37.539,Main,2022.1.1,59.98638314097449,
positive,yellow,2,None,k,,,,,,,,,0,37,37,37,,,,,,,,,,,,,,,,,main,k,k,1,1.01837020018138,285.22796860011294,None,None,0,,,,,,,,,,,,,,205,2023-03-29_10h37.37.539,Main,2022.1.1,59.98638314097449,
negative,yellow,2,k,None,,,,,,,,,0,38,38,38,,,,,,,,,,,,,,,,,main,None,None,1,1.4990180002059788,287.24463500012644,None,None,1,,,,,,,,,,,,,,205,2023-03-29_10h37.37.539,Main,2022.1.1,59.98638314097449,
positive,yellow,1,None,k,,,,,,,,,0,39,39,39,,,,,,,,,,,,,,,,,main,k,k,1,0.6467183001805097,289.7473908001557,None,None,0,,,,,,,,,,,,,,205,2023-03-29_10h37.37.539,Main,2022.1.1,59.98638314097449,
negative,yellow,2,k,None,,,,,,,,,0,40,40,40,,,,,,,,,,,,,,,,,main,None,None,1,1.501642799936235,291.39456690009683,None,None,1,,,,,,,,,,,,,,205,2023-03-29_10h37.37.539,Main,2022.1.1,59.98638314097449,
positive,blue,2,k,None,,,,,,,,,0,41,41,41,,,,,,,,,,,,,,,,,main,None,None,1,1.4992401998024434,293.894540600013,None,None,1,,,,,,,,,,,,,,205,2023-03-29_10h37.37.539,Main,2022.1.1,59.98638314097449,
positive,blue,2,k,None,,,,,,,,,0,42,42,42,,,,,,,,,,,,,,,,,main,None,None,1,1.495813800022006,296.39450740022585,None,None,1,,,,,,,,,,,,,,205,2023-03-29_10h37.37.539,Main,2022.1.1,59.98638314097449,
negative,blue,2,None,k,,,,,,,,,0,43,43,43,,,,,,,,,,,,,,,,,main,k,k,1,0.8998481999151409,298.89412060007453,None,None,0,,,,,,,,,,,,,,205,2023-03-29_10h37.37.539,Main,2022.1.1,59.98638314097449,
negative,red,1,None,None,,,,,,,,,0,44,44,44,,,,,,,,,,,,,,,,,main,None,None,1,1.5017570999916643,300.79448690009303,None,None,1,,,,,,,,,,,,,,205,2023-03-29_10h37.37.539,Main,2022.1.1,59.98638314097449,
negative,yellow,1,k,None,,,,,,,,,0,45,45,45,,,,,,,,,,,,,,,,,main,None,None,1,1.499184199841693,303.297317000106,None,None,1,,,,,,,,,,,,,,205,2023-03-29_10h37.37.539,Main,2022.1.1,59.98638314097449,
negative,yellow,1,k,None,,,,,,,,,0,46,46,46,,,,,,,,,,,,,,,,,main,None,None,1,1.4959687001537532,305.7971405000426,None,None,1,,,,,,,,,,,,,,205,2023-03-29_10h37.37.539,Main,2022.1.1,59.98638314097449,
positive,red,1,None,None,,,,,,,,,0,47,47,47,,,,,,,,,,,,,,,,,main,None,None,1,1.5029398000333458,308.29400590015575,None,None,1,,,,,,,,,,,,,,205,2023-03-29_10h37.37.539,Main,2022.1.1,59.98638314097449,
positive,yellow,1,None,k,,,,,,,,,0,48,48,48,,,,,,,,,,,,,,,,,main,k,k,1,0.8653864001389593,310.79428250016645,None,None,0,,,,,,,,,,,,,,205,2023-03-29_10h37.37.539,Main,2022.1.1,59.98638314097449,
negative,blue,1,None,k,,,,,,,,,0,49,49,49,,,,,,,,,,,,,,,,,main,k,k,1,0.9324564000125974,312.6637474000454,None,None,0,,,,,,,,,,,,,,205,2023-03-29_10h37.37.539,Main,2022.1.1,59.98638314097449,
positive,yellow,2,None,k,,,,,,,,,0,50,50,50,,,,,,,,,,,,,,,,,main,k,k,1,1.0808646997902542,314.5942042001989,None,None,0,,,,,,,,,,,,,,205,2023-03-29_10h37.37.539,Main,2022.1.1,59.98638314097449,
negative,blue,1,None,k,,,,,,,,,0,51,51,51,,,,,,,,,,,,,,,,,main,k,k,1,0.8172489998396486,316.6771008002106,None,None,0,,,,,,,,,,,,,,205,2023-03-29_10h37.37.539,Main,2022.1.1,59.98638314097449,
positive,red,2,None,None,,,,,,,,,0,52,52,52,,,,,,,,,,,,,,,,,main,None,None,1,1.499054300133139,318.49692530022,None,None,1,,,,,,,,,,,,,,205,2023-03-29_10h37.37.539,Main,2022.1.1,59.98638314097449,
positive,yellow,2,None,k,,,,,,,,,0,53,53,53,,,,,,,,,,,,,,,,,main,k,k,1,0.7328923000022769,320.99696170003153,None,None,0,,,,,,,,,,,,,,205,2023-03-29_10h37.37.539,Main,2022.1.1,59.98638314097449,
negative,red,2,None,None,,,,,,,,,0,54,54,54,,,,,,,,,,,,,,,,,main,None,None,1,1.4985175000037998,322.7273456000257,None,None,1,,,,,,,,,,,,,,205,2023-03-29_10h37.37.539,Main,2022.1.1,59.98638314097449,
positive,yellow,1,None,k,,,,,,,,,0,55,55,55,,,,,,,,,,,,,,,,,main,k,k,1,0.7799660000018775,325.2271729002241,None,None,0,,,,,,,,,,,,,,205,2023-03-29_10h37.37.539,Main,2022.1.1,59.98638314097449,
negative,blue,2,None,k,,,,,,,,,0,56,56,56,,,,,,,,,,,,,,,,,main,k,k,1,0.7151892001274973,327.01047580013983,None,None,0,,,,,,,,,,,,,,205,2023-03-29_10h37.37.539,Main,2022.1.1,59.98638314097449,
positive,blue,1,k,None,,,,,,,,,0,57,57,57,,,,,,,,,,,,,,,,,main,None,None,1,1.4989628999028355,328.7271419002209,None,None,1,,,,,,,,,,,,,,205,2023-03-29_10h37.37.539,Main,2022.1.1,59.98638314097449,
positive,blue,1,k,None,,,,,,,,,0,58,58,58,,,,,,,,,,,,,,,,,main,None,None,1,1.5019690000917763,331.22707990021445,None,None,1,,,,,,,,,,,,,,205,2023-03-29_10h37.37.539,Main,2022.1.1,59.98638314097449,
negative,yellow,2,k,None,,,,,,,,,0,59,59,59,,,,,,,,,,,,,,,,,main,None,None,1,1.4992639999836683,333.7298627002165,None,None,1,,,,,,,,,,,,,,205,2023-03-29_10h37.37.539,Main,2022.1.1,59.98638314097449,
positive,red,2,None,None,,,,,,,,,0,60,60,60,,,,,,,,,,,,,,,,,main,None,None,1,1.4959775002207607,336.2270280001685,None,None,1,,,,,,,,,,,,,,205,2023-03-29_10h37.37.539,Main,2022.1.1,59.98638314097449,
negative,yellow,1,k,None,,,,,,,,,0,61,61,61,,,,,,,,,,,,,,,,,main,None,None,1,1.5023423999082297,338.72666720021516,None,None,1,,,,,,,,,,,,,,205,2023-03-29_10h37.37.539,Main,2022.1.1,59.98638314097449,
negative,red,1,None,None,,,,,,,,,0,62,62,62,,,,,,,,,,,,,,,,,main,None,None,1,1.49917530012317,341.22974600014277,None,None,1,,,,,,,,,,,,,,205,2023-03-29_10h37.37.539,Main,2022.1.1,59.98638314097449,
negative,blue,1,None,k,,,,,,,,,0,63,63,63,,,,,,,,,,,,,,,,,main,k,k,1,0.796664800029248,343.72978200018406,None,None,0,,,,,,,,,,,,,,205,2023-03-29_10h37.37.539,Main,2022.1.1,59.98638314097449,
positive,blue,2,k,None,,,,,,,,,0,64,64,64,,,,,,,,,,,,,,,,,main,None,None,1,1.4985084000509232,345.5268977000378,None,None,1,,,,,,,,,,,,,,205,2023-03-29_10h37.37.539,Main,2022.1.1,59.98638314097449,
negative,yellow,2,k,None,,,,,,,,,0,65,65,65,,,,,,,,,,,,,,,,,main,None,None,1,1.5147388000041246,348.02647180017084,None,None,1,,,,,,,,,,,,,,205,2023-03-29_10h37.37.539,Main,2022.1.1,59.98638314097449,
positive,yellow,2,None,k,,,,,,,,,0,66,66,66,,,,,,,,,,,,,,,,,main,k,k,1,0.8507513001095504,350.53380630002357,None,None,0,,,,,,,,,,,,,,205,2023-03-29_10h37.37.539,Main,2022.1.1,59.98638314097449,
positive,yellow,2,None,k,,,,,,,,,0,67,67,67,,,,,,,,,,,,,,,,,main,k,k,1,0.6993877000641078,352.39643360022455,None,None,0,,,,,,,,,,,,,,205,2023-03-29_10h37.37.539,Main,2022.1.1,59.98638314097449,
positive,red,1,None,None,,,,,,,,,0,68,68,68,,,,,,,,,,,,,,,,,main,None,None,1,1.4986997998785228,354.0934272001032,None,None,1,,,,,,,,,,,,,,205,2023-03-29_10h37.37.539,Main,2022.1.1,59.98638314097449,
positive,yellow,1,None,k,,,,,,,,,0,69,69,69,,,,,,,,,,,,,,,,,main,k,k,1,0.765679799951613,356.5962288000155,None,None,0,,,,,,,,,,,,,,205,2023-03-29_10h37.37.539,Main,2022.1.1,59.98638314097449,
negative,yellow,2,k,None,,,,,,,,,0,70,70,70,,,,,,,,,,,,,,,,,main,None,None,1,1.5023619998246431,358.3596079000272,None,None,1,,,,,,,,,,,,,,205,2023-03-29_10h37.37.539,Main,2022.1.1,59.98638314097449,
positive,yellow,1,None,k,,,,,,,,,0,71,71,71,,,,,,,,,,,,,,,,,main,k,k,1,3.4627706001047045,360.8627214001026,None,None,0,,,,,,,,,,,,,,205,2023-03-29_10h37.37.539,Main,2022.1.1,59.98638314097449,
negative,blue,1,None,k,,,,,,,,,0,72,72,72,,,,,,,,,,,,,,,,,main,k,k,1,0.7844664000440389,366.3262897001114,None,None,0,,,,,,,,,,,,,,205,2023-03-29_10h37.37.539,Main,2022.1.1,59.98638314097449,
negative,red,2,None,None,,,,,,,,,0,73,73,73,,,,,,,,,,,,,,,,,main,None,None,1,1.4957302999682724,368.1096392001491,None,None,1,,,,,,,,,,,,,,205,2023-03-29_10h37.37.539,Main,2022.1.1,59.98638314097449,
positive,blue,2,k,None,,,,,,,,,0,74,74,74,,,,,,,,,,,,,,,,,main,None,None,1,1.502036799909547,370.6124423001893,None,None,1,,,,,,,,,,,,,,205,2023-03-29_10h37.37.539,Main,2022.1.1,59.98638314097449,
negative,blue,2,None,k,,,,,,,,,0,75,75,75,,,,,,,,,,,,,,,,,main,k,k,1,0.7157469999510795,373.1096201001201,None,None,0,,,,,,,,,,,,,,205,2023-03-29_10h37.37.539,Main,2022.1.1,59.98638314097449,
negative,blue,2,None,k,,,,,,,,,0,76,76,76,,,,,,,,,,,,,,,,,main,k,k,1,0.6964656000491232,374.8290887000039,None,None,0,,,,,,,,,,,,,,205,2023-03-29_10h37.37.539,Main,2022.1.1,59.98638314097449,
negative,yellow,1,k,None,,,,,,,,,0,77,77,77,,,,,,,,,,,,,,,,,main,None,None,1,1.5014675999991596,376.5262155001983,None,None,1,,,,,,,,,,,,,,205,2023-03-29_10h37.37.539,Main,2022.1.1,59.98638314097449,
positive,blue,1,k,None,,,,,,,,,0,78,78,78,,,,,,,,,,,,,,,,,main,None,None,1,1.4959658000152558,379.02903309999965,None,None,1,,,,,,,,,,,,,,205,2023-03-29_10h37.37.539,Main,2022.1.1,59.98638314097449,
positive,blue,1,k,None,,,,,,,,,0,79,79,79,,,,,,,,,,,,,,,,,main,None,None,1,1.5025462000630796,381.52580450009555,None,None,1,,,,,,,,,,,,,,205,2023-03-29_10h37.37.539,Main,2022.1.1,59.98638314097449,
positive,red,2,None,None,,,,,,,,,0,80,80,80,,,,,,,,,,,,,,,,,main,None,None,1,1.49905230011791,384.02896820008755,None,None,1,,,,,,,,,,,,,,205,2023-03-29_10h37.37.539,Main,2022.1.1,59.98638314097449,
positive,yellow,2,None,k,,,,,,,,,0,81,81,81,,,,,,,,,,,,,,,,,main,k,k,1,0.8825590999331325,386.52894129999913,None,None,0,,,,,,,,,,,,,,205,2023-03-29_10h37.37.539,Main,2022.1.1,59.98638314097449,
positive,blue,1,k,None,,,,,,,,,0,82,82,82,,,,,,,,,,,,,,,,,main,None,None,1,1.4987929998897016,388.4122951000463,None,None,1,,,,,,,,,,,,,,205,2023-03-29_10h37.37.539,Main,2022.1.1,59.98638314097449,
negative,yellow,2,k,None,,,,,,,,,0,83,83,83,,,,,,,,,,,,,,,,,main,None,None,1,1.4961518999189138,390.90922600007616,None,None,1,,,,,,,,,,,,,,205,2023-03-29_10h37.37.539,Main,2022.1.1,59.98638314097449,
positive,blue,2,k,None,,,,,,,,,0,84,84,84,,,,,,,,,,,,,,,,,main,None,None,1,1.501882400130853,393.4091905001551,None,None,1,,,,,,,,,,,,,,205,2023-03-29_10h37.37.539,Main,2022.1.1,59.98638314097449,
positive,yellow,1,None,k,,,,,,,,,0,85,85,85,,,,,,,,,,,,,,,,,main,k,k,1,0.7827463999856263,395.90915479999967,None,None,0,,,,,,,,,,,,,,205,2023-03-29_10h37.37.539,Main,2022.1.1,59.98638314097449,
positive,blue,2,k,None,,,,,,,,,0,86,86,86,,,,,,,,,,,,,,,,,main,None,None,1,1.4988536001183093,397.6953783000354,None,None,1,,,,,,,,,,,,,,205,2023-03-29_10h37.37.539,Main,2022.1.1,59.98638314097449,
positive,blue,1,k,None,,,,,,,,,0,87,87,87,,,,,,,,,,,,,,,,,main,None,None,1,1.4992760000750422,400.1952375001274,None,None,1,,,,,,,,,,,,,,205,2023-03-29_10h37.37.539,Main,2022.1.1,59.98638314097449,
negative,yellow,2,k,None,,,,,,,,,0,88,88,88,,,,,,,,,,,,,,,,,main,None,None,1,1.4961075999308378,402.6923848001752,None,None,1,,,,,,,,,,,,,,205,2023-03-29_10h37.37.539,Main,2022.1.1,59.98638314097449,
negative,blue,2,None,k,,,,,,,,,0,89,89,89,,,,,,,,,,,,,,,,,main,k,k,1,1.5327287998516113,405.1920678000897,None,None,0,,,,,,,,,,,,,,205,2023-03-29_10h37.37.539,Main,2022.1.1,59.98638314097449,
positive,yellow,2,None,k,,,,,,,,,0,90,90,90,,,,,,,,,,,,,,,,,main,k,k,1,0.7984607999678701,408.7284315000288,None,None,0,,,,,,,,,,,,,,205,2023-03-29_10h37.37.539,Main,2022.1.1,59.98638314097449,
negative,yellow,1,k,None,,,,,,,,,0,91,91,91,,,,,,,,,,,,,,,,,main,None,None,1,1.5010653999634087,410.5285339001566,None,None,1,,,,,,,,,,,,,,205,2023-03-29_10h37.37.539,Main,2022.1.1,59.98638314097449,
negative,red,2,None,None,,,,,,,,,0,92,92,92,,,,,,,,,,,,,,,,,main,None,None,1,1.4965154000092298,413.02543120016344,None,None,1,,,,,,,,,,,,,,205,2023-03-29_10h37.37.539,Main,2022.1.1,59.98638314097449,
negative,blue,2,None,k,,,,,,,,,0,93,93,93,,,,,,,,,,,,,,,,,main,k,k,1,0.7492699001450092,415.52546170004643,None,None,0,,,,,,,,,,,,,,205,2023-03-29_10h37.37.539,Main,2022.1.1,59.98638314097449,
negative,blue,1,None,k,,,,,,,,,0,94,94,94,,,,,,,,,,,,,,,,,main,k,k,1,0.7855469000060111,417.2783326001372,None,None,0,,,,,,,,,,,,,,205,2023-03-29_10h37.37.539,Main,2022.1.1,59.98638314097449,
negative,blue,1,None,k,,,,,,,,,0,95,95,95,,,,,,,,,,,,,,,,,main,k,k,1,0.579530700109899,419.0616243002005,None,None,0,,,,,,,,,,,,,,205,2023-03-29_10h37.37.539,Main,2022.1.1,59.98638314097449,
negative,red,1,None,None,,,,,,,,,0,96,96,96,,,,,,,,,,,,,,,,,main,None,None,1,1.4991193001624197,420.64489770005457,None,None,1,,,,,,,,,,,,,,205,2023-03-29_10h37.37.539,Main,2022.1.1,59.98638314097449,
positive,yellow,1,None,k,,,,,,,,,0,97,97,97,,,,,,,,,,,,,,,,,main,k,k,1,0.7825386999174953,423.14477870007977,None,None,0,,,,,,,,,,,,,,205,2023-03-29_10h37.37.539,Main,2022.1.1,59.98638314097449,
negative,yellow,1,k,None,,,,,,,,,0,98,98,98,,,,,,,,,,,,,,,,,main,None,None,1,1.49866020004265,424.9252683001105,None,None,1,,,,,,,,,,,,,,205,2023-03-29_10h37.37.539,Main,2022.1.1,59.98638314097449,
positive,red,1,None,None,,,,,,,,,0,99,99,99,,,,,,,,,,,,,,,,,main,None,None,1,1.4996395001653582,427.4249179000035,None,None,1,,,,,,,,,,,,,,205,2023-03-29_10h37.37.539,Main,2022.1.1,59.98638314097449,
positive,blue,1,k,None,,,,,,,,,0,100,100,100,,,,,,,,,,,,,,,,,main,None,k,0,0.6021346999332309,429.9280726001598,None,None,1,,,,,,,,,,,,,,205,2023-03-29_10h37.37.539,Main,2022.1.1,59.98638314097449,
negative,yellow,1,k,None,,,,,,,,,0,101,101,101,,,,,,,,,,,,,,,,,main,None,None,1,1.5008865999989212,432.5280083999969,None,None,1,,,,,,,,,,,,,,205,2023-03-29_10h37.37.539,Main,2022.1.1,59.98638314097449,
negative,blue,2,None,k,,,,,,,,,0,102,102,102,,,,,,,,,,,,,,,,,main,k,k,1,0.7471004999242723,435.02502180007286,None,None,0,,,,,,,,,,,,,,205,2023-03-29_10h37.37.539,Main,2022.1.1,59.98638314097449,
negative,yellow,2,k,None,,,,,,,,,0,103,103,103,,,,,,,,,,,,,,,,,main,None,None,1,1.5017762000206858,436.7749813001137,None,None,1,,,,,,,,,,,,,,205,2023-03-29_10h37.37.539,Main,2022.1.1,59.98638314097449,
positive,yellow,2,None,k,,,,,,,,,0,104,104,104,,,,,,,,,,,,,,,,,main,k,k,1,0.7986817001365125,439.27496290020645,None,None,0,,,,,,,,,,,,,,205,2023-03-29_10h37.37.539,Main,2022.1.1,59.98638314097449,
positive,blue,1,k,None,,,,,,,,,0,105,105,105,,,,,,,,,,,,,,,,,main,None,None,1,1.4989200001582503,441.07791850017384,None,None,1,,,,,,,,,,,,,,205,2023-03-29_10h37.37.539,Main,2022.1.1,59.98638314097449,
positive,blue,2,k,None,,,,,,,,,0,106,106,106,,,,,,,,,,,,,,,,,main,None,None,1,1.499228100059554,443.5748931001872,None,None,1,,,,,,,,,,,,,,205,2023-03-29_10h37.37.539,Main,2022.1.1,59.98638314097449,
negative,blue,1,None,k,,,,,,,,,0,107,107,107,,,,,,,,,,,,,,,,,main,k,k,1,0.6797153002116829,446.07770320004784,None,None,0,,,,,,,,,,,,,,205,2023-03-29_10h37.37.539,Main,2022.1.1,59.98638314097449,
positive,yellow,2,None,k,,,,,,,,,0,108,108,108,,,,,,,,,,,,,,,,,main,k,k,1,0.8158452999778092,447.75784190022387,None,None,0,,,,,,,,,,,,,,205,2023-03-29_10h37.37.539,Main,2022.1.1,59.98638314097449,
negative,yellow,1,k,None,,,,,,,,,0,109,109,109,,,,,,,,,,,,,,,,,main,None,None,1,1.4990447999443859,449.5745443000924,None,None,1,,,,,,,,,,,,,,205,2023-03-29_10h37.37.539,Main,2022.1.1,59.98638314097449,
negative,blue,2,None,k,,,,,,,,,0,110,110,110,,,,,,,,,,,,,,,,,main,k,k,1,0.733295900048688,452.0744622000493,None,None,0,,,,,,,,,,,,,,205,2023-03-29_10h37.37.539,Main,2022.1.1,59.98638314097449,
positive,blue,2,k,None,,,,,,,,,0,111,111,111,,,,,,,,,,,,,,,,,main,None,None,1,1.5017180000431836,453.8110297000967,None,None,1,,,,,,,,,,,,,,205,2023-03-29_10h37.37.539,Main,2022.1.1,59.98638314097449,
negative,blue,1,None,k,,,,,,,,,0,112,112,112,,,,,,,,,,,,,,,,,main,k,k,1,0.7328099000733346,456.310878300108,None,None,0,,,,,,,,,,,,,,205,2023-03-29_10h37.37.539,Main,2022.1.1,59.98638314097449,
positive,yellow,1,None,k,,,,,,,,,0,113,113,113,,,,,,,,,,,,,,,,,main,k,k,1,1.0128315999172628,458.04133510007523,None,None,0,,,,,,,,,,,,,,205,2023-03-29_10h37.37.539,Main,2022.1.1,59.98638314097449,
negative,red,1,None,None,,,,,,,,,0,114,114,114,,,,,,,,,,,,,,,,,main,None,None,1,1.4988843000028282,460.05782450013794,None,None,1,,,,,,,,,,,,,,205,2023-03-29_10h37.37.539,Main,2022.1.1,59.98638314097449,
positive,red,1,None,None,,,,,,,,,0,115,115,115,,,,,,,,,,,,,,,,,main,None,None,1,1.50194920017384,462.55788140022196,None,None,1,,,,,,,,,,,,,,205,2023-03-29_10h37.37.539,Main,2022.1.1,59.98638314097449,
negative,red,2,None,None,,,,,,,,,0,116,116,116,,,,,,,,,,,,,,,,,main,None,None,1,1.4988796999678016,465.0605921000242,None,None,1,,,,,,,,,,,,,,205,2023-03-29_10h37.37.539,Main,2022.1.1,59.98638314097449,
negative,yellow,2,k,None,,,,,,,,,0,117,117,117,,,,,,,,,,,,,,,,,main,None,None,1,1.499177600024268,467.56055590021424,None,None,1,,,,,,,,,,,,,,205,2023-03-29_10h37.37.539,Main,2022.1.1,59.98638314097449,
positive,yellow,1,None,k,,,,,,,,,0,118,118,118,,,,,,,,,,,,,,,,,main,k,k,1,0.8034165999852121,470.06052590021864,None,None,0,,,,,,,,,,,,,,205,2023-03-29_10h37.37.539,Main,2022.1.1,59.98638314097449,
positive,red,2,None,None,,,,,,,,,0,119,119,119,,,,,,,,,,,,,,,,,main,None,None,1,1.4915700000710785,471.86750850011595,None,None,1,,,,,,,,,,,,,,205,2023-03-29_10h37.37.539,Main,2022.1.1,59.98638314097449,
positive,blue,2,k,None,,,,,,,,,0,120,120,120,,,,,,,,,,,,,,,,,main,None,None,1,1.5023135000374168,474.3573655001819,None,None,1,,,,,,,,,,,,,,205,2023-03-29_10h37.37.539,Main,2022.1.1,59.98638314097449,
negative,red,1,None,None,,,,,,,,,0,121,121,121,,,,,,,,,,,,,,,,,main,None,None,1,1.4992426000535488,476.86048150015995,None,None,1,,,,,,,,,,,,,,205,2023-03-29_10h37.37.539,Main,2022.1.1,59.98638314097449,
positive,yellow,2,None,k,,,,,,,,,0,122,122,122,,,,,,,,,,,,,,,,,main,k,k,1,0.7293908998835832,479.3604148000013,None,None,0,,,,,,,,,,,,,,205,2023-03-29_10h37.37.539,Main,2022.1.1,59.98638314097449,
negative,red,2,None,None,,,,,,,,,0,123,123,123,,,,,,,,,,,,,,,,,main,None,None,1,1.4989289999939501,481.0904999000486,None,None,1,,,,,,,,,,,,,,205,2023-03-29_10h37.37.539,Main,2022.1.1,59.98638314097449,
negative,yellow,2,k,None,,,,,,,,,0,124,124,124,,,,,,,,,,,,,,,,,main,None,None,1,1.5024952001404017,483.5904898000881,None,None,1,,,,,,,,,,,,,,205,2023-03-29_10h37.37.539,Main,2022.1.1,59.98638314097449,
positive,red,1,None,None,,,,,,,,,0,125,125,125,,,,,,,,,,,,,,,,,main,None,None,1,1.4989879000931978,486.0936449000146,None,None,1,,,,,,,,,,,,,,205,2023-03-29_10h37.37.539,Main,2022.1.1,59.98638314097449,
negative,blue,2,None,k,,,,,,,,,0,126,126,126,,,,,,,,,,,,,,,,,main,k,k,1,0.6160528000909835,488.59360950021073,None,None,0,,,,,,,,,,,,,,205,2023-03-29_10h37.37.539,Main,2022.1.1,59.98638314097449,
negative,blue,1,None,k,,,,,,,,,0,127,127,127,,,,,,,,,,,,,,,,,main,k,k,1,0.9242181000299752,490.2101606000215,None,None,0,,,,,,,,,,,,,,205,2023-03-29_10h37.37.539,Main,2022.1.1,59.98638314097449,
negative,yellow,1,k,None,,,,,,,,,0,128,128,128,,,,,,,,,,,,,,,,,main,None,None,1,1.4903497998602688,492.1399220000021,None,None,1,,,,,,,,,,,,,,205,2023-03-29_10h37.37.539,Main,2022.1.1,59.98638314097449,
negative,yellow,1,k,None,,,,,,,,,0,129,129,129,,,,,,,,,,,,,,,,,main,None,None,1,1.499210000038147,494.6266230000183,None,None,1,,,,,,,,,,,,,,205,2023-03-29_10h37.37.539,Main,2022.1.1,59.98638314097449,
positive,blue,1,k,None,,,,,,,,,0,130,130,130,,,,,,,,,,,,,,,,,main,None,None,1,1.4993688999675214,497.1238098000176,None,None,1,,,,,,,,,,,,,,205,2023-03-29_10h37.37.539,Main,2022.1.1,59.98638314097449,
negative,blue,1,None,k,,,,,,,,,0,131,131,131,,,,,,,,,,,,,,,,,main,k,k,1,0.5993003000039607,499.6237679000478,None,None,0,,,,,,,,,,,,,,205,2023-03-29_10h37.37.539,Main,2022.1.1,59.98638314097449,
negative,blue,2,None,k,,,,,,,,,0,132,132,132,,,,,,,,,,,,,,,,,main,k,k,1,1.1991010999772698,501.2237634002231,None,None,0,,,,,,,,,,,,,,205,2023-03-29_10h37.37.539,Main,2022.1.1,59.98638314097449,
positive,blue,2,k,None,,,,,,,,,0,133,133,133,,,,,,,,,,,,,,,,,main,None,None,1,1.4958018001634628,503.42655060021207,None,None,1,,,,,,,,,,,,,,205,2023-03-29_10h37.37.539,Main,2022.1.1,59.98638314097449,
positive,red,2,None,None,,,,,,,,,0,134,134,134,,,,,,,,,,,,,,,,,main,None,None,1,1.5026126999873668,505.9233578001149,None,None,1,,,,,,,,,,,,,,205,2023-03-29_10h37.37.539,Main,2022.1.1,59.98638314097449,
negative,yellow,2,k,None,,,,,,,,,0,135,135,135,,,,,,,,,,,,,,,,,main,None,None,1,1.4988895999267697,508.4266281002201,None,None,1,,,,,,,,,,,,,,205,2023-03-29_10h37.37.539,Main,2022.1.1,59.98638314097449,
positive,yellow,2,None,k,,,,,,,,,0,136,136,136,,,,,,,,,,,,,,,,,main,k,k,1,0.6135118000674993,510.92657130002044,None,None,0,,,,,,,,,,,,,,205,2023-03-29_10h37.37.539,Main,2022.1.1,59.98638314097449,
positive,blue,1,k,None,,,,,,,,,0,137,137,137,,,,,,,,,,,,,,,,,main,None,None,1,1.5014841000083834,512.5403726000804,None,None,1,,,,,,,,,,,,,,205,2023-03-29_10h37.37.539,Main,2022.1.1,59.98638314097449,
positive,yellow,1,None,k,,,,,,,,,0,138,138,138,,,,,,,,,,,,,,,,,main,k,k,1,0.7467121998779476,515.0401034001261,None,None,0,,,,,,,,,,,,,,205,2023-03-29_10h37.37.539,Main,2022.1.1,59.98638314097449,
positive,yellow,1,None,k,,,,,,,,,0,139,139,139,,,,,,,,,,,,,,,,,main,k,k,1,0.5823120998684317,516.7929813000374,None,None,0,,,,,,,,,,,,,,205,2023-03-29_10h37.37.539,Main,2022.1.1,59.98638314097449,
positive,yellow,1,None,k,,,,,,,,,0,140,140,140,,,,,,,,,,,,,,,,,main,k,k,1,0.6160496999509633,518.3733706001658,None,None,0,,,,,,,,,,,,,,205,2023-03-29_10h37.37.539,Main,2022.1.1,59.98638314097449,
positive,blue,1,k,None,,,,,,,,,0,141,141,141,,,,,,,,,,,,,,,,,main,None,None,1,1.5018808001186699,519.9899961000774,None,None,1,,,,,,,,,,,,,,205,2023-03-29_10h37.37.539,Main,2022.1.1,59.98638314097449,
positive,blue,2,k,None,,,,,,,,,0,142,142,142,,,,,,,,,,,,,,,,,main,None,None,1,1.4992574001662433,522.4928376001772,None,None,1,,,,,,,,,,,,,,205,2023-03-29_10h37.37.539,Main,2022.1.1,59.98638314097449,
positive,yellow,2,None,k,,,,,,,,,0,143,143,143,,,,,,,,,,,,,,,,,main,k,k,1,0.8358785000164062,524.9899426000193,None,None,0,,,,,,,,,,,,,,205,2023-03-29_10h37.37.539,Main,2022.1.1,59.98638314097449,
negative,yellow,2,k,None,,,,,,,,,0,144,144,144,,,,,,,,,,,,,,,,,main,None,None,1,1.4923600000329316,526.8344117000233,None,None,1,,,,,,,,,,,,,,205,2023-03-29_10h37.37.539,Main,2022.1.1,59.98638314097449,
negative,blue,2,None,k,,,,,,,,,0,145,145,145,,,,,,,,,,,,,,,,,main,k,k,1,0.8996898999903351,529.3229440001305,None,None,0,,,,,,,,,,,,,,205,2023-03-29_10h37.37.539,Main,2022.1.1,59.98638314097449,
negative,red,1,None,None,,,,,,,,,0,146,146,146,,,,,,,,,,,,,,,,,main,None,None,1,1.5018041001167148,531.2232357000466,None,None,1,,,,,,,,,,,,,,205,2023-03-29_10h37.37.539,Main,2022.1.1,59.98638314097449,
positive,blue,1,k,None,,,,,,,,,0,147,147,147,,,,,,,,,,,,,,,,,main,None,None,1,1.4963384000584483,533.7260062000714,None,None,1,,,,,,,,,,,,,,205,2023-03-29_10h37.37.539,Main,2022.1.1,59.98638314097449,
positive,yellow,1,None,k,,,,,,,,,0,148,148,148,,,,,,,,,,,,,,,,,main,k,k,1,0.7325339000672102,536.223041200079,None,None,0,,,,,,,,,,,,,,205,2023-03-29_10h37.37.539,Main,2022.1.1,59.98638314097449,
negative,red,2,None,None,,,,,,,,,0,149,149,149,,,,,,,,,,,,,,,,,main,None,None,1,1.501715499907732,537.9592395001091,None,None,1,,,,,,,,,,,,,,205,2023-03-29_10h37.37.539,Main,2022.1.1,59.98638314097449,
negative,blue,1,None,k,,,,,,,,,0,150,150,150,,,,,,,,,,,,,,,,,main,k,k,1,0.9495101000647992,540.4590672000777,None,None,0,,,,,,,,,,,,,,205,2023-03-29_10h37.37.539,Main,2022.1.1,59.98638314097449,
negative,yellow,2,k,None,,,,,,,,,0,151,151,151,,,,,,,,,,,,,,,,,main,None,None,1,1.4989664999302477,542.4090655001346,None,None,1,,,,,,,,,,,,,,205,2023-03-29_10h37.37.539,Main,2022.1.1,59.98638314097449,
negative,blue,2,None,k,,,,,,,,,0,152,152,152,,,,,,,,,,,,,,,,,main,k,k,1,0.6800614998210222,544.909127500141,None,None,0,,,,,,,,,,,,,,205,2023-03-29_10h37.37.539,Main,2022.1.1,59.98638314097449,
negative,yellow,1,k,None,,,,,,,,,0,153,153,153,,,,,,,,,,,,,,,,,main,None,None,1,1.4983884000685066,546.5895191000309,None,None,1,,,,,,,,,,,,,,205,2023-03-29_10h37.37.539,Main,2022.1.1,59.98638314097449,
negative,blue,1,None,k,,,,,,,,,0,154,154,154,,,,,,,,,,,,,,,,,main,k,k,1,0.6827392000705004,549.0891533000395,None,None,0,,,,,,,,,,,,,,205,2023-03-29_10h37.37.539,Main,2022.1.1,59.98638314097449,
positive,yellow,2,None,k,,,,,,,,,0,155,155,155,,,,,,,,,,,,,,,,,main,k,k,1,0.9357948999386281,550.7725068000145,None,None,0,,,,,,,,,,,,,,205,2023-03-29_10h37.37.539,Main,2022.1.1,59.98638314097449,
positive,red,2,None,None,,,,,,,,,0,156,156,156,,,,,,,,,,,,,,,,,main,None,None,1,1.4990502998698503,552.7090183000546,None,None,1,,,,,,,,,,,,,,205,2023-03-29_10h37.37.539,Main,2022.1.1,59.98638314097449,
positive,red,1,None,None,,,,,,,,,0,157,157,157,,,,,,,,,,,,,,,,,main,None,None,1,1.498987799976021,555.2089917000849,None,None,1,,,,,,,,,,,,,,205,2023-03-29_10h37.37.539,Main,2022.1.1,59.98638314097449,
positive,blue,2,k,None,,,,,,,,,0,158,158,158,,,,,,,,,,,,,,,,,main,None,None,1,1.4990352999884635,557.7088948001619,None,None,1,,,,,,,,,,,,,,205,2023-03-29_10h37.37.539,Main,2022.1.1,59.98638314097449,
negative,yellow,1,k,None,,,,,,,,,0,159,159,159,,,,,,,,,,,,,,,,,main,None,None,1,1.4963386000599712,560.2087033002172,None,None,1,,,,,,,,,,,,,,205,2023-03-29_10h37.37.539,Main,2022.1.1,59.98638314097449,
negative,red,2,None,None,,,,,,,,,0,160,160,160,,,,,,,,,,,,,,,,,main,None,None,1,1.4992146000731736,562.708598199999,None,None,1,,,,,,,,,,,,,,205,2023-03-29_10h37.37.539,Main,2022.1.1,59.98638314097449,
negative,blue,1,None,k,,,,,,,,,0,161,161,161,,,,,,,,,,,,,,,,,main,k,k,1,0.7856817999854684,565.2086109002121,None,None,0,,,,,,,,,,,,,,205,2023-03-29_10h37.37.539,Main,2022.1.1,59.98638314097449,
negative,blue,1,None,k,,,,,,,,,0,162,162,162,,,,,,,,,,,,,,,,,main,k,k,1,0.7129708998836577,566.992080300115,None,None,0,,,,,,,,,,,,,,205,2023-03-29_10h37.37.539,Main,2022.1.1,59.98638314097449,
negative,yellow,1,k,None,,,,,,,,,0,163,163,163,,,,,,,,,,,,,,,,,main,None,None,1,1.4991868999786675,568.7085114000365,None,None,1,,,,,,,,,,,,,,205,2023-03-29_10h37.37.539,Main,2022.1.1,59.98638314097449,
negative,yellow,1,k,None,,,,,,,,,0,164,164,164,,,,,,,,,,,,,,,,,main,None,None,1,1.4985925999935716,571.2057207000908,None,None,1,,,,,,,,,,,,,,205,2023-03-29_10h37.37.539,Main,2022.1.1,59.98638314097449,
positive,yellow,1,None,k,,,,,,,,,0,165,165,165,,,,,,,,,,,,,,,,,main,k,k,1,0.5828621999826282,573.7053327001631,None,None,0,,,,,,,,,,,,,,205,2023-03-29_10h37.37.539,Main,2022.1.1,59.98638314097449,
negative,red,1,None,None,,,,,,,,,0,166,166,166,,,,,,,,,,,,,,,,,main,None,None,1,1.5021809001918882,575.2887884001248,None,None,1,,,,,,,,,,,,,,205,2023-03-29_10h37.37.539,Main,2022.1.1,59.98638314097449,
negative,yellow,2,k,None,,,,,,,,,0,167,167,167,,,,,,,,,,,,,,,,,main,None,None,1,1.4989775998983532,577.7917972002178,None,None,1,,,,,,,,,,,,,,205,2023-03-29_10h37.37.539,Main,2022.1.1,59.98638314097449,
positive,blue,2,k,None,,,,,,,,,0,168,168,168,,,,,,,,,,,,,,,,,main,None,None,1,1.4989763000048697,580.2917567000259,None,None,1,,,,,,,,,,,,,,205,2023-03-29_10h37.37.539,Main,2022.1.1,59.98638314097449,
positive,red,2,None,None,,,,,,,,,0,169,169,169,,,,,,,,,,,,,,,,,main,None,None,1,1.4964791000820696,582.7887459001504,None,None,1,,,,,,,,,,,,,,205,2023-03-29_10h37.37.539,Main,2022.1.1,59.98638314097449,
positive,red,1,None,None,,,,,,,,,0,170,170,170,,,,,,,,,,,,,,,,,main,None,None,1,1.5020666001364589,585.2886947002262,None,None,1,,,,,,,,,,,,,,205,2023-03-29_10h37.37.539,Main,2022.1.1,59.98638314097449,
negative,blue,2,None,k,,,,,,,,,0,171,171,171,,,,,,,,,,,,,,,,,main,k,k,1,0.7463914998807013,587.7886952001136,None,None,0,,,,,,,,,,,,,,205,2023-03-29_10h37.37.539,Main,2022.1.1,59.98638314097449,
positive,blue,2,k,None,,,,,,,,,0,172,172,172,,,,,,,,,,,,,,,,,main,None,None,1,1.5019167000427842,589.5386612000875,None,None,1,,,,,,,,,,,,,,205,2023-03-29_10h37.37.539,Main,2022.1.1,59.98638314097449,
negative,yellow,2,k,None,,,,,,,,,0,173,173,173,,,,,,,,,,,,,,,,,main,None,None,1,1.4989418000914156,592.0415084999986,None,None,1,,,,,,,,,,,,,,205,2023-03-29_10h37.37.539,Main,2022.1.1,59.98638314097449,
positive,yellow,2,None,k,,,,,,,,,0,174,174,174,,,,,,,,,,,,,,,,,main,k,k,1,0.8797579000238329,594.5414487000089,None,None,0,,,,,,,,,,,,,,205,2023-03-29_10h37.37.539,Main,2022.1.1,59.98638314097449,
negative,blue,2,None,k,,,,,,,,,0,175,175,175,,,,,,,,,,,,,,,,,main,k,k,1,0.5493115000426769,596.4215385999996,None,None,0,,,,,,,,,,,,,,205,2023-03-29_10h37.37.539,Main,2022.1.1,59.98638314097449,
positive,blue,1,k,None,,,,,,,,,0,176,176,176,,,,,,,,,,,,,,,,,main,None,None,1,1.5018819000106305,597.9747495001648,None,None,1,,,,,,,,,,,,,,205,2023-03-29_10h37.37.539,Main,2022.1.1,59.98638314097449,
positive,yellow,1,None,k,,,,,,,,,0,177,177,177,,,,,,,,,,,,,,,,,main,k,k,1,0.6492540000472218,600.4747031000443,None,None,0,,,,,,,,,,,,,,205,2023-03-29_10h37.37.539,Main,2022.1.1,59.98638314097449,
positive,blue,1,k,None,,,,,,,,,0,178,178,178,,,,,,,,,,,,,,,,,main,None,None,1,1.4960288999136537,602.1218202000018,None,None,1,,,,,,,,,,,,,,205,2023-03-29_10h37.37.539,Main,2022.1.1,59.98638314097449,
positive,yellow,2,None,k,,,,,,,,,0,179,179,179,,,,,,,,,,,,,,,,,main,k,k,1,0.7827242999337614,604.6216393001378,None,None,0,,,,,,,,,,,,,,205,2023-03-29_10h37.37.539,Main,2022.1.1,59.98638314097449,
positive,blue,1,k,None,,,,,,,,,0,180,180,180,,,,,,,,,,,,,,,,,main,None,None,1,1.5018729001749307,606.4049375001341,None,None,1,,,,,,,,,,,,,,205,2023-03-29_10h37.37.539,Main,2022.1.1,59.98638314097449,
negative,red,1,None,None,,,,,,,,,0,181,181,181,,,,,,,,,,,,,,,,,main,None,None,1,1.4991935000289232,608.9049861000385,None,None,1,,,,,,,,,,,,,,205,2023-03-29_10h37.37.539,Main,2022.1.1,59.98638314097449,
negative,blue,1,None,k,,,,,,,,,0,182,182,182,,,,,,,,,,,,,,,,,main,k,k,1,0.563469999935478,611.4077539001592,None,None,0,,,,,,,,,,,,,,205,2023-03-29_10h37.37.539,Main,2022.1.1,59.98638314097449,
negative,yellow,2,k,None,,,,,,,,,0,183,183,183,,,,,,,,,,,,,,,,,main,None,None,1,1.5015574002172798,612.971526700072,None,None,1,,,,,,,,,,,,,,205,2023-03-29_10h37.37.539,Main,2022.1.1,59.98638314097449,
positive,yellow,2,None,k,,,,,,,,,0,184,184,184,,,,,,,,,,,,,,,,,main,k,k,1,1.2461057000327855,615.4743489001412,None,None,0,,,,,,,,,,,,,,205,2023-03-29_10h37.37.539,Main,2022.1.1,59.98638314097449,
positive,yellow,1,None,k,,,,,,,,,0,185,185,185,,,,,,,,,,,,,,,,,main,k,k,1,0.6526411999948323,617.7211308002006,None,None,0,,,,,,,,,,,,,,205,2023-03-29_10h37.37.539,Main,2022.1.1,59.98638314097449,
positive,red,2,None,None,,,,,,,,,0,186,186,186,,,,,,,,,,,,,,,,,main,None,None,1,1.4978372999466956,619.3744683000259,None,None,1,,,,,,,,,,,,,,205,2023-03-29_10h37.37.539,Main,2022.1.1,59.98638314097449,
positive,blue,1,k,None,,,,,,,,,0,187,187,187,,,,,,,,,,,,,,,,,main,None,None,1,1.4983047998975962,621.8743697002064,None,None,1,,,,,,,,,,,,,,205,2023-03-29_10h37.37.539,Main,2022.1.1,59.98638314097449,
negative,yellow,1,k,None,,,,,,,,,0,188,188,188,,,,,,,,,,,,,,,,,main,None,None,1,1.4983414998278022,624.3742969001178,None,None,1,,,,,,,,,,,,,,205,2023-03-29_10h37.37.539,Main,2022.1.1,59.98638314097449,
positive,yellow,2,None,k,,,,,,,,,0,189,189,189,,,,,,,,,,,,,,,,,main,k,k,1,0.5959647998679429,626.8740282000508,None,None,0,,,,,,,,,,,,,,205,2023-03-29_10h37.37.539,Main,2022.1.1,59.98638314097449,
negative,yellow,2,k,None,,,,,,,,,0,190,190,190,,,,,,,,,,,,,,,,,main,None,None,1,1.4988184000831097,628.4711731001735,None,None,1,,,,,,,,,,,,,,205,2023-03-29_10h37.37.539,Main,2022.1.1,59.98638314097449,
negative,yellow,1,k,None,,,,,,,,,0,191,191,191,,,,,,,,,,,,,,,,,main,None,None,1,1.5020996001549065,630.9711435001809,None,None,1,,,,,,,,,,,,,,205,2023-03-29_10h37.37.539,Main,2022.1.1,59.98638314097449,
positive,blue,2,k,None,,,,,,,,,0,192,192,192,,,,,,,,,,,,,,,,,main,None,None,1,1.4991931000258774,633.4739420001861,None,None,1,,,,,,,,,,,,,,205,2023-03-29_10h37.37.539,Main,2022.1.1,59.98638314097449,
positive,yellow,1,None,k,,,,,,,,,0,193,193,193,,,,,,,,,,,,,,,,,main,k,k,1,0.7828444999177009,635.9739529001527,None,None,0,,,,,,,,,,,,,,205,2023-03-29_10h37.37.539,Main,2022.1.1,59.98638314097449,
negative,red,2,None,None,,,,,,,,,0,194,194,194,,,,,,,,,,,,,,,,,main,None,None,1,1.495551300002262,637.7544130000751,None,None,1,,,,,,,,,,,,,,205,2023-03-29_10h37.37.539,Main,2022.1.1,59.98638314097449,
positive,red,1,None,None,,,,,,,,,0,195,195,195,,,,,,,,,,,,,,,,,main,None,None,1,1.5024594001006335,640.2540117001627,None,None,1,,,,,,,,,,,,,,205,2023-03-29_10h37.37.539,Main,2022.1.1,59.98638314097449,
negative,blue,1,None,k,,,,,,,,,0,196,196,196,,,,,,,,,,,,,,,,,main,k,k,1,0.7495357999578118,642.7572371000424,None,None,0,,,,,,,,,,,,,,205,2023-03-29_10h37.37.539,Main,2022.1.1,59.98638314097449,
positive,blue,2,k,None,,,,,,,,,0,197,197,197,,,,,,,,,,,,,,,,,main,None,None,1,1.4986811999697238,644.5043453001417,None,None,1,,,,,,,,,,,,,,205,2023-03-29_10h37.37.539,Main,2022.1.1,59.98638314097449,
negative,blue,2,None,k,,,,,,,,,0,198,198,198,,,,,,,,,,,,,,,,,main,k,k,1,0.646176700014621,647.0070699001662,None,None,0,,,,,,,,,,,,,,205,2023-03-29_10h37.37.539,Main,2022.1.1,59.98638314097449,
negative,blue,2,None,k,,,,,,,,,0,199,199,199,,,,,,,,,,,,,,,,,main,k,k,1,0.6354135000146925,648.6540951000061,None,None,0,,,,,,,,,,,,,,205,2023-03-29_10h37.37.539,Main,2022.1.1,59.98638314097449,
positive,blue,2,k,None,,,,,,,,,0,200,200,200,,,,,,,,,,,,,,,,,main,None,None,1,1.4989936999045312,650.2874197000638,None,None,1,,,,,,,,,,,,,,205,2023-03-29_10h37.37.539,Main,2022.1.1,59.98638314097449,
positive,blue,2,k,None,,,,,,,,,0,201,201,201,,,,,,,,,,,,,,,,,main,None,None,1,1.4964194998610765,652.7902313000523,None,None,1,,,,,,,,,,,,,,205,2023-03-29_10h37.37.539,Main,2022.1.1,59.98638314097449,
negative,yellow,2,k,None,,,,,,,,,0,202,202,202,,,,,,,,,,,,,,,,,main,None,None,1,1.5019686000887305,655.287348800106,None,None,1,,,,,,,,,,,,,,205,2023-03-29_10h37.37.539,Main,2022.1.1,59.98638314097449,
positive,red,1,None,None,,,,,,,,,0,203,203,203,,,,,,,,,,,,,,,,,main,None,None,1,1.496070699999109,657.7900918000378,None,None,1,,,,,,,,,,,,,,205,2023-03-29_10h37.37.539,Main,2022.1.1,59.98638314097449,
negative,blue,2,None,k,,,,,,,,,0,204,204,204,,,,,,,,,,,,,,,,,main,k,k,1,0.6327726000454277,660.2869363001082,None,None,0,,,,,,,,,,,,,,205,2023-03-29_10h37.37.539,Main,2022.1.1,59.98638314097449,
negative,red,1,None,None,,,,,,,,,0,205,205,205,,,,,,,,,,,,,,,,,main,None,None,1,1.5021782000549138,661.9203150002286,None,None,1,,,,,,,,,,,,,,205,2023-03-29_10h37.37.539,Main,2022.1.1,59.98638314097449,
negative,blue,2,None,k,,,,,,,,,0,206,206,206,,,,,,,,,,,,,,,,,main,k,k,1,0.6327214001212269,664.4235050000716,None,None,0,,,,,,,,,,,,,,205,2023-03-29_10h37.37.539,Main,2022.1.1,59.98638314097449,
negative,yellow,2,k,None,,,,,,,,,0,207,207,207,,,,,,,,,,,,,,,,,main,None,None,1,1.4958342001773417,666.0539068002254,None,None,1,,,,,,,,,,,,,,205,2023-03-29_10h37.37.539,Main,2022.1.1,59.98638314097449,
positive,yellow,2,None,k,,,,,,,,,0,208,208,208,,,,,,,,,,,,,,,,,main,k,k,1,0.9533496999647468,668.5565156000666,None,None,0,,,,,,,,,,,,,,205,2023-03-29_10h37.37.539,Main,2022.1.1,59.98638314097449,
negative,yellow,1,k,None,,,,,,,,,0,209,209,209,,,,,,,,,,,,,,,,,main,None,None,1,1.4990251001436263,670.5036689001136,None,None,1,,,,,,,,,,,,,,205,2023-03-29_10h37.37.539,Main,2022.1.1,59.98638314097449,
negative,red,2,None,None,,,,,,,,,0,210,210,210,,,,,,,,,,,,,,,,,main,None,None,1,1.4987857998348773,673.0036222001072,None,None,1,,,,,,,,,,,,,,205,2023-03-29_10h37.37.539,Main,2022.1.1,59.98638314097449,
negative,blue,1,None,k,,,,,,,,,0,211,211,211,,,,,,,,,,,,,,,,,main,k,k,1,0.5124351000413299,675.5065485001542,None,None,0,,,,,,,,,,,,,,205,2023-03-29_10h37.37.539,Main,2022.1.1,59.98638314097449,
negative,yellow,1,k,None,,,,,,,,,0,212,212,212,,,,,,,,,,,,,,,,,main,None,None,1,1.4991005000192672,677.0231560000684,None,None,1,,,,,,,,,,,,,,205,2023-03-29_10h37.37.539,Main,2022.1.1,59.98638314097449,
positive,blue,1,k,None,,,,,,,,,0,213,213,213,,,,,,,,,,,,,,,,,main,None,None,1,1.4988413997925818,679.5230429000221,None,None,1,,,,,,,,,,,,,,205,2023-03-29_10h37.37.539,Main,2022.1.1,59.98638314097449,
positive,blue,1,k,None,,,,,,,,,0,214,214,214,,,,,,,,,,,,,,,,,main,None,None,1,1.5024451001081616,682.0198495001532,None,None,1,,,,,,,,,,,,,,205,2023-03-29_10h37.37.539,Main,2022.1.1,59.98638314097449,
positive,yellow,1,None,k,,,,,,,,,0,215,215,215,,,,,,,,,,,,,,,,,main,k,k,1,0.7466690998990089,684.5231262000743,None,None,0,,,,,,,,,,,,,,205,2023-03-29_10h37.37.539,Main,2022.1.1,59.98638314097449,
positive,yellow,1,None,k,,,,,,,,,0,216,216,216,,,,,,,,,,,,,,,,,main,k,k,1,0.8186727999709547,686.2701642001048,None,None,0,,,,,,,,,,,,,,205,2023-03-29_10h37.37.539,Main,2022.1.1,59.98638314097449,
positive,yellow,2,None,k,,,,,,,,,0,217,217,217,,,,,,,,,,,,,,,,,main,k,k,1,1.1793368998914957,688.0896355002187,None,None,0,,,,,,,,,,,,,,205,2023-03-29_10h37.37.539,Main,2022.1.1,59.98638314097449,
negative,blue,1,None,k,,,,,,,,,0,218,218,218,,,,,,,,,,,,,,,,,main,k,k,1,0.7992253000847995,690.2728394002188,None,None,0,,,,,,,,,,,,,,205,2023-03-29_10h37.37.539,Main,2022.1.1,59.98638314097449,
positive,red,2,None,None,,,,,,,,,0,219,219,219,,,,,,,,,,,,,,,,,main,None,None,1,1.4989285999909043,692.0699098000769,None,None,1,,,,,,,,,,,,,,205,2023-03-29_10h37.37.539,Main,2022.1.1,59.98638314097449,
positive,yellow,1,None,k,,,,,,,,,0,220,220,220,,,,,,,,,,,,,,,,,main,k,k,1,0.6188716997858137,694.5726858000271,None,None,0,,,,,,,,,,,,,,205,2023-03-29_10h37.37.539,Main,2022.1.1,59.98638314097449,
positive,blue,1,k,None,,,,,,,,,0,221,221,221,,,,,,,,,,,,,,,,,main,None,None,1,1.4990295998286456,696.1893118000589,None,None,1,,,,,,,,,,,,,,205,2023-03-29_10h37.37.539,Main,2022.1.1,59.98638314097449,
positive,yellow,2,None,k,,,,,,,,,0,222,222,222,,,,,,,,,,,,,,,,,main,k,k,1,0.7159874001517892,698.6864862001967,None,None,0,,,,,,,,,,,,,,205,2023-03-29_10h37.37.539,Main,2022.1.1,59.98638314097449,
negative,yellow,1,k,None,,,,,,,,,0,223,223,223,,,,,,,,,,,,,,,,,main,None,None,1,1.5026667001657188,700.4059518000577,None,None,1,,,,,,,,,,,,,,205,2023-03-29_10h37.37.539,Main,2022.1.1,59.98638314097449,
positive,yellow,2,None,k,,,,,,,,,0,224,224,224,,,,,,,,,,,,,,,,,main,k,k,1,0.6572462001349777,702.9095989000052,None,None,0,,,,,,,,,,,,,,205,2023-03-29_10h37.37.539,Main,2022.1.1,59.98638314097449,
negative,yellow,2,k,None,,,,,,,,,0,225,225,225,,,,,,,,,,,,,,,,,main,None,None,1,1.4990785999689251,704.5693751000799,None,None,1,,,,,,,,,,,,,,205,2023-03-29_10h37.37.539,Main,2022.1.1,59.98638314097449,
negative,blue,2,None,k,,,,,,,,,0,226,226,226,,,,,,,,,,,,,,,,,main,k,k,1,0.7358117999974638,707.0694056001958,None,None,0,,,,,,,,,,,,,,205,2023-03-29_10h37.37.539,Main,2022.1.1,59.98638314097449,
positive,red,2,None,None,,,,,,,,,0,227,227,227,,,,,,,,,,,,,,,,,main,None,None,1,1.4991071000695229,708.8058490999974,None,None,1,,,,,,,,,,,,,,205,2023-03-29_10h37.37.539,Main,2022.1.1,59.98638314097449,
positive,blue,2,k,None,,,,,,,,,0,228,228,228,,,,,,,,,,,,,,,,,main,None,k,0,0.6325503999833018,711.3058953001164,None,None,1,,,,,,,,,,,,,,205,2023-03-29_10h37.37.539,Main,2022.1.1,59.98638314097449,
negative,blue,1,None,k,,,,,,,,,0,229,229,229,,,,,,,,,,,,,,,,,main,k,k,1,0.634666700148955,713.9390415002126,None,None,0,,,,,,,,,,,,,,205,2023-03-29_10h37.37.539,Main,2022.1.1,59.98638314097449,
positive,yellow,1,None,k,,,,,,,,,0,230,230,230,,,,,,,,,,,,,,,,,main,k,k,1,0.6627418999560177,715.5694419001229,None,None,0,,,,,,,,,,,,,,205,2023-03-29_10h37.37.539,Main,2022.1.1,59.98638314097449,
negative,blue,2,None,k,,,,,,,,,0,231,231,231,,,,,,,,,,,,,,,,,main,k,k,1,0.699298599967733,717.2389637001324,None,None,0,,,,,,,,,,,,,,205,2023-03-29_10h37.37.539,Main,2022.1.1,59.98638314097449,
negative,red,1,None,None,,,,,,,,,0,232,232,232,,,,,,,,,,,,,,,,,main,None,None,1,1.5016282999422401,718.9361284000333,None,None,1,,,,,,,,,,,,,,205,2023-03-29_10h37.37.539,Main,2022.1.1,59.98638314097449,
positive,blue,2,k,None,,,,,,,,,0,233,233,233,,,,,,,,,,,,,,,,,main,None,None,1,1.499242999823764,721.4389257000294,None,None,1,,,,,,,,,,,,,,205,2023-03-29_10h37.37.539,Main,2022.1.1,59.98638314097449,
negative,yellow,1,k,None,,,,,,,,,0,234,234,234,,,,,,,,,,,,,,,,,main,None,None,1,1.4958792999386787,723.938834000146,None,None,1,,,,,,,,,,,,,,205,2023-03-29_10h37.37.539,Main,2022.1.1,59.98638314097449,
negative,yellow,2,k,None,,,,,,,,,0,235,235,235,,,,,,,,,,,,,,,,,main,None,None,1,1.502426200080663,726.4356192999985,None,None,1,,,,,,,,,,,,,,205,2023-03-29_10h37.37.539,Main,2022.1.1,59.98638314097449,
positive,red,1,None,None,,,,,,,,,0,236,236,236,,,,,,,,,,,,,,,,,main,None,None,1,1.4992390999104828,728.9387709000148,None,None,1,,,,,,,,,,,,,,205,2023-03-29_10h37.37.539,Main,2022.1.1,59.98638314097449,
negative,red,2,None,None,,,,,,,,,0,237,237,237,,,,,,,,,,,,,,,,,main,None,None,1,1.4991709000896662,731.4387295001652,None,None,1,,,,,,,,,,,,,,205,2023-03-29_10h37.37.539,Main,2022.1.1,59.98638314097449,
negative,blue,1,None,k,,,,,,,,,0,238,238,238,,,,,,,,,,,,,,,,,main,k,k,1,0.8296068001072854,733.9387352000922,None,None,0,,,,,,,,,,,,,,205,2023-03-29_10h37.37.539,Main,2022.1.1,59.98638314097449,
positive,blue,1,k,None,,,,,,,,,0,239,239,239,,,,,,,,,,,,,,,,,main,None,None,1,1.5016983998939395,735.7690709000453,None,None,1,,,,,,,,,,,,,,205,2023-03-29_10h37.37.539,Main,2022.1.1,59.98638314097449,
,,,,,,,,,,,,,,,,,,,,,,,,,,,,,,,,,,,,,,,,,,,,,,,,,,,,,738.2689892000053,None,,,,,,
