distractor,target,set,ans1,ans2,rep_loop4.thisRepN,rep_loop4.thisTrialN,rep_loop4.thisN,rep_loop4.thisIndex,st2_prac_loop.thisRepN,st2_prac_loop.thisTrialN,st2_prac_loop.thisN,st2_prac_loop.thisIndex,st2_main_loop.thisRepN,st2_main_loop.thisTrialN,st2_main_loop.thisN,st2_main_loop.thisIndex,image_4.started,image_4.stopped,sound_2.started,sound_2.stopped,key_resp_3.keys,key_resp_3.rt,image_5.started,image_5.stopped,st_prac_back.started,st_prac_back.stopped,st_prac_text.started,st_prac_text.stopped,st_fix_back.started,st_fix_back.stopped,st_fix_2.started,st_fix_2.stopped,main_prac,st_ans,st_res,st_corr,st_rt,st_back.started,st_back.stopped,st2_resp.keys,st2_resp.corr,st_main_back.started,st_main_back.stopped,st_main_text.started,st_main_text.stopped,mouse_4.x,mouse_4.y,mouse_4.leftButton,mouse_4.midButton,mouse_4.rightButton,mouse_4.started,mouse_4.stopped,text_2.started,text_2.stopped,id*,date,expName,psychopyVersion,frameRate,
negative,yellow,1,k,None,,,,,0,0,0,0,,,,,31.147781600011513,None,35.49761414993554,None,space,56.96744900010526,92.49603489995934,None,94.81281609996222,None,94.81281609996222,None,96.81282110000029,None,96.81282110000029,None,prac,k,k,1,5.9698079999070615,98.81832249998115,None,None,0,,,,,,,,,,,,,,206,2023-03-29_15h07.24.792,Main,2022.1.1,60.03907341896883,
positive,red,2,None,None,,,,,0,1,1,1,,,,,,,,,,,,,,,,,,,,,prac,None,None,1,1.497920700116083,106.79608389991336,None,None,1,,,,,,,,,,,,,,206,2023-03-29_15h07.24.792,Main,2022.1.1,60.03907341896883,
negative,blue,2,None,k,,,,,0,2,2,2,,,,,,,,,,,,,,,,,,,,,prac,None,None,1,1.5011545999441296,109.30009379982948,None,None,1,,,,,,,,,,,,,,206,2023-03-29_15h07.24.792,Main,2022.1.1,60.03907341896883,
positive,yellow,1,None,k,,,,,0,3,3,3,,,,,,,,,,,,,,,,,,,,,prac,None,None,1,1.499496900010854,111.79292659997009,None,None,1,,,,,,,,,,,,,,206,2023-03-29_15h07.24.792,Main,2022.1.1,60.03907341896883,
negative,blue,2,None,k,,,,,0,4,4,4,,,,,,,,,,,,,,,,,,,,,prac,None,k,0,1.1491728001274168,114.29582399991341,None,None,1,,,,,,,,,,,,,,206,2023-03-29_15h07.24.792,Main,2022.1.1,60.03907341896883,
negative,blue,1,None,k,,,,,0,5,5,5,,,,,,,,,,,,,,,,,,,,,prac,None,None,1,1.4984921000432223,117.44565919996239,None,None,1,,,,,,,,,,,,,,206,2023-03-29_15h07.24.792,Main,2022.1.1,60.03907341896883,
negative,yellow,2,k,None,,,,,0,6,6,6,,,,,,,,,,,,,,,,,,,,,prac,k,k,1,1.2488107001408935,119.94564289995469,None,None,0,,,,,,,,,,,,,,206,2023-03-29_15h07.24.792,Main,2022.1.1,60.03907341896883,
negative,red,1,None,None,,,,,0,7,7,7,,,,,,,,,,,,,,,,,,,,,prac,None,None,1,1.5021301999222487,122.19271259987727,None,None,1,,,,,,,,,,,,,,206,2023-03-29_15h07.24.792,Main,2022.1.1,60.03907341896883,
positive,yellow,2,None,k,,,,,0,8,8,8,,,,,,,,,,,,,,,,,,,,,prac,None,None,1,1.4988031999673694,124.69558850000612,None,None,1,,,,,,,,,,,,,,206,2023-03-29_15h07.24.792,Main,2022.1.1,60.03907341896883,
negative,yellow,1,k,None,,,,,0,9,9,9,,,,,,,,,,,,,,,,,,,,,prac,k,k,1,2.049590799957514,127.19555509998463,None,None,0,,,,,,,,,,,,,,206,2023-03-29_15h07.24.792,Main,2022.1.1,60.03907341896883,
positive,yellow,2,None,k,,,,,0,10,10,10,,,,,,,,,,,,,,,,,,,,,prac,None,None,1,1.4872876000590622,131.24227299983613,None,None,1,,,,,,,,,,,,,,206,2023-03-29_15h07.24.792,Main,2022.1.1,60.03907341896883,
negative,yellow,2,k,None,,,,,0,11,11,11,,,,,,,,,,,,,,,,,,,,,prac,k,k,1,0.9327120999805629,133.72879550000653,None,None,0,,,,,,,,,,,,,,206,2023-03-29_15h07.24.792,Main,2022.1.1,60.03907341896883,
negative,red,2,None,None,,,,,0,12,12,12,,,,,,,,,,,,,,,,,,,,,prac,None,None,1,1.498555799946189,135.65921999979764,None,None,1,,,,,,,,,,,,,,206,2023-03-29_15h07.24.792,Main,2022.1.1,60.03907341896883,
positive,red,1,None,None,,,,,0,13,13,13,,,,,,,,,,,,,,,,,,,,,prac,None,None,1,1.4965274001006037,138.16206529992633,None,None,1,,,,,,,,,,,,,,206,2023-03-29_15h07.24.792,Main,2022.1.1,60.03907341896883,
positive,blue,2,k,None,,,,,0,14,14,14,,,,,,,,,,,,,,,,,,,,,prac,k,k,1,0.8352071000263095,140.66177419992164,None,None,0,,,,,,,,,,,,,,206,2023-03-29_15h07.24.792,Main,2022.1.1,60.03907341896883,
positive,blue,1,k,None,,,,,0,15,15,15,,,,,,,,,,,,,,,,,,,,,prac,k,k,1,1.265734599903226,142.49517789995298,None,None,0,,,,,,,,,,,,,,206,2023-03-29_15h07.24.792,Main,2022.1.1,60.03907341896883,
negative,blue,1,None,k,,,,,0,16,16,16,,,,,,,,,,,,,,,,,,,,,prac,None,None,1,1.4995703001040965,144.76169479987584,None,None,1,,,,,,,,,,,,,,206,2023-03-29_15h07.24.792,Main,2022.1.1,60.03907341896883,
positive,blue,2,k,None,,,,,0,17,17,17,,,,,,,,,,,,,,,,,,,,,prac,k,k,1,1.3637504000216722,147.25906509999186,None,None,0,,,,,,,,,,,,,,206,2023-03-29_15h07.24.792,Main,2022.1.1,60.03907341896883,
positive,blue,1,k,None,,,,,0,18,18,18,,,,,,,,,,,,,,,,,,,,,prac,k,k,1,1.065655899932608,149.6255375999026,None,None,0,,,,,,,,,,,,,,206,2023-03-29_15h07.24.792,Main,2022.1.1,60.03907341896883,
positive,yellow,1,None,k,,,,,0,19,19,19,,,,,,,,,,,,,,,,,,,,,prac,None,None,1,1.501125399954617,151.6918151997961,None,None,1,,,,,,,,,,,,,,206,2023-03-29_15h07.24.792,Main,2022.1.1,60.03907341896883,
negative,yellow,1,k,None,,,,,1,0,20,0,,,,,,,,,,,,,,,,,,,,,prac,k,k,1,1.5307606998831034,154.1950725999195,None,None,0,,,,,,,,,,,,,,206,2023-03-29_15h07.24.792,Main,2022.1.1,60.03907341896883,
positive,red,2,None,None,,,,,1,1,21,1,,,,,,,,,,,,,,,,,,,,,prac,None,None,1,1.498529399977997,157.7256253999658,None,None,1,,,,,,,,,,,,,,206,2023-03-29_15h07.24.792,Main,2022.1.1,60.03907341896883,
negative,blue,2,None,k,,,,,1,2,22,2,,,,,,,,,,,,,,,,,,,,,prac,None,None,1,1.4986529001034796,160.22547649987973,None,None,1,,,,,,,,,,,,,,206,2023-03-29_15h07.24.792,Main,2022.1.1,60.03907341896883,
positive,yellow,1,None,k,,,,,1,3,23,3,,,,,,,,,,,,,,,,,,,,,prac,None,None,1,1.499111299868673,162.72517039999366,None,None,1,,,,,,,,,,,,,,206,2023-03-29_15h07.24.792,Main,2022.1.1,60.03907341896883,
negative,blue,2,None,k,,,,,1,4,24,4,,,,,,,,,,,,,,,,,,,,,prac,None,None,1,1.5017397000920027,165.225291099865,None,None,1,,,,,,,,,,,,,,206,2023-03-29_15h07.24.792,Main,2022.1.1,60.03907341896883,
negative,blue,1,None,k,,,,,1,5,25,5,,,,,,,,,,,,,,,,,,,,,prac,None,None,1,1.499070999911055,167.72511859983206,None,None,1,,,,,,,,,,,,,,206,2023-03-29_15h07.24.792,Main,2022.1.1,60.03907341896883,
negative,yellow,2,k,None,,,,,1,6,26,6,,,,,,,,,,,,,,,,,,,,,prac,k,k,1,0.7636653999798,170.22799979988486,None,None,0,,,,,,,,,,,,,,206,2023-03-29_15h07.24.792,Main,2022.1.1,60.03907341896883,
negative,red,1,None,None,,,,,1,7,27,7,,,,,,,,,,,,,,,,,,,,,prac,None,None,1,1.4981982000172138,171.99140649987385,None,None,1,,,,,,,,,,,,,,206,2023-03-29_15h07.24.792,Main,2022.1.1,60.03907341896883,
positive,yellow,2,None,k,,,,,1,8,28,8,,,,,,,,,,,,,,,,,,,,,prac,None,None,1,1.5021877998951823,174.49142229999416,None,None,1,,,,,,,,,,,,,,206,2023-03-29_15h07.24.792,Main,2022.1.1,60.03907341896883,
negative,yellow,1,k,None,,,,,1,9,29,9,,,,,,,,,,,,,,,,,,,,,prac,k,k,1,1.3826512000523508,176.99462419981137,None,None,0,,,,,,,,,,,,,,206,2023-03-29_15h07.24.792,Main,2022.1.1,60.03907341896883,
positive,yellow,2,None,k,,,,,1,10,30,10,,,,,,,,,,,,,,,,,,,,,prac,None,None,1,1.4957924999762326,179.37852799985558,None,None,1,,,,,,,,,,,,,,206,2023-03-29_15h07.24.792,Main,2022.1.1,60.03907341896883,
negative,yellow,2,k,None,,,,,1,11,31,11,,,,,,,,,,,,,,,,,,,,,prac,k,k,1,0.9657089998945594,181.87476079980843,None,None,0,,,,,,,,,,,,,,206,2023-03-29_15h07.24.792,Main,2022.1.1,60.03907341896883,
negative,red,2,None,None,,,,,1,12,32,12,,,,,,,,,,,,,,,,,,,,,prac,None,None,1,1.5018156999722123,183.84141359990463,None,None,1,,,,,,,,,,,,,,206,2023-03-29_15h07.24.792,Main,2022.1.1,60.03907341896883,
positive,red,1,None,None,,,,,1,13,33,13,,,,,,,,,,,,,,,,,,,,,prac,None,None,1,1.4964347002096474,186.34416849981062,None,None,1,,,,,,,,,,,,,,206,2023-03-29_15h07.24.792,Main,2022.1.1,60.03907341896883,
positive,blue,2,k,None,,,,,1,14,34,14,,,,,,,,,,,,,,,,,,,,,prac,k,k,1,1.1828346999827772,188.84134749998339,None,None,0,,,,,,,,,,,,,,206,2023-03-29_15h07.24.792,Main,2022.1.1,60.03907341896883,
positive,blue,1,k,None,,,,,1,15,35,15,,,,,,,,,,,,,,,,,,,,,prac,k,k,1,0.9354165000841022,191.0246363999322,None,None,0,,,,,,,,,,,,,,206,2023-03-29_15h07.24.792,Main,2022.1.1,60.03907341896883,
negative,blue,1,None,k,,,,,1,16,36,16,,,,,,,,,,,,,,,,,,,,,prac,None,None,1,1.4959420999512076,192.95794199989177,None,None,1,,,,,,,,,,,,,,206,2023-03-29_15h07.24.792,Main,2022.1.1,60.03907341896883,
positive,blue,2,k,None,,,,,1,17,37,17,,,,,,,,,,,,,,,,,,,,,prac,k,k,1,0.8825534998904914,195.4576133999508,None,None,0,,,,,,,,,,,,,,206,2023-03-29_15h07.24.792,Main,2022.1.1,60.03907341896883,
positive,blue,1,k,None,,,,,1,18,38,18,,,,,,,,,,,,,,,,,,,,,prac,k,k,1,1.553233299870044,197.3409392000176,None,None,0,,,,,,,,,,,,,,206,2023-03-29_15h07.24.792,Main,2022.1.1,60.03907341896883,
positive,yellow,1,None,k,,,,,1,19,39,19,,,,,,,,,,,,,,,,,,,,,prac,None,None,1,1.5010577000211924,200.89396359981038,None,None,1,,,,,,,,,,,,,,206,2023-03-29_15h07.24.792,Main,2022.1.1,60.03907341896883,
,,,,,,,,,,,,,,,,,,,,,,,,,,,,,,,,,,,,,,,,,,203.39401149982587,None,203.39401149982587,None,0.07777778,-0.21666667,0,0,0,0.014035050058737397,None,,,206,2023-03-29_15h07.24.792,Main,2022.1.1,60.03907341896883,
negative,yellow,2,k,None,,,,,,,,,0,0,0,0,,,,,,,,,,,,,204.35737879993394,None,204.35737879993394,None,main,k,k,1,1.121482500107959,206.3805759998504,None,None,0,,,,,,,,,,,,,,206,2023-03-29_15h07.24.792,Main,2022.1.1,60.03907341896883,
positive,red,1,None,None,,,,,,,,,0,1,1,1,,,,,,,,,,,,,,,,,main,None,None,1,1.4982986999675632,208.51055799983442,None,None,1,,,,,,,,,,,,,,206,2023-03-29_15h07.24.792,Main,2022.1.1,60.03907341896883,
positive,blue,2,k,None,,,,,,,,,0,2,2,2,,,,,,,,,,,,,,,,,main,k,k,1,0.9663473998662084,211.01057219994254,None,None,0,,,,,,,,,,,,,,206,2023-03-29_15h07.24.792,Main,2022.1.1,60.03907341896883,
positive,blue,1,k,None,,,,,,,,,0,3,3,3,,,,,,,,,,,,,,,,,main,k,k,1,0.8122715000063181,212.97744479984976,None,None,0,,,,,,,,,,,,,,206,2023-03-29_15h07.24.792,Main,2022.1.1,60.03907341896883,
negative,yellow,2,k,None,,,,,,,,,0,4,4,4,,,,,,,,,,,,,,,,,main,k,k,1,0.8483314998447895,214.79070569993928,None,None,0,,,,,,,,,,,,,,206,2023-03-29_15h07.24.792,Main,2022.1.1,60.03907341896883,
positive,yellow,2,None,k,,,,,,,,,0,5,5,5,,,,,,,,,,,,,,,,,main,None,None,1,1.5018596001900733,216.64383099996485,None,None,1,,,,,,,,,,,,,,206,2023-03-29_15h07.24.792,Main,2022.1.1,60.03907341896883,
negative,blue,2,None,k,,,,,,,,,0,6,6,6,,,,,,,,,,,,,,,,,main,None,None,1,1.4962019000668079,219.1436486998573,None,None,1,,,,,,,,,,,,,,206,2023-03-29_15h07.24.792,Main,2022.1.1,60.03907341896883,
positive,red,2,None,None,,,,,,,,,0,7,7,7,,,,,,,,,,,,,,,,,main,None,None,1,1.5019876000005752,221.64072469994426,None,None,1,,,,,,,,,,,,,,206,2023-03-29_15h07.24.792,Main,2022.1.1,60.03907341896883,
positive,yellow,1,None,k,,,,,,,,,0,8,8,8,,,,,,,,,,,,,,,,,main,None,None,1,1.4990238000173122,224.1434402000159,None,None,1,,,,,,,,,,,,,,206,2023-03-29_15h07.24.792,Main,2022.1.1,60.03907341896883,
negative,red,1,None,None,,,,,,,,,0,9,9,9,,,,,,,,,,,,,,,,,main,None,None,1,1.4963782001286745,226.64345530001447,None,None,1,,,,,,,,,,,,,,206,2023-03-29_15h07.24.792,Main,2022.1.1,60.03907341896883,
positive,yellow,1,None,k,,,,,,,,,0,10,10,10,,,,,,,,,,,,,,,,,main,None,None,1,1.5017909000162035,229.14339709980413,None,None,1,,,,,,,,,,,,,,206,2023-03-29_15h07.24.792,Main,2022.1.1,60.03907341896883,
negative,yellow,1,k,None,,,,,,,,,0,11,11,11,,,,,,,,,,,,,,,,,main,k,k,1,1.1801815999206156,231.6432618999388,None,None,0,,,,,,,,,,,,,,206,2023-03-29_15h07.24.792,Main,2022.1.1,60.03907341896883,
negative,yellow,1,k,None,,,,,,,,,0,12,12,12,,,,,,,,,,,,,,,,,main,k,k,1,0.7515818001702428,233.82380389980972,None,None,0,,,,,,,,,,,,,,206,2023-03-29_15h07.24.792,Main,2022.1.1,60.03907341896883,
negative,red,2,None,None,,,,,,,,,0,13,13,13,,,,,,,,,,,,,,,,,main,None,None,1,1.4953877998050302,235.57376870000735,None,None,1,,,,,,,,,,,,,,206,2023-03-29_15h07.24.792,Main,2022.1.1,60.03907341896883,
positive,yellow,2,None,k,,,,,,,,,0,14,14,14,,,,,,,,,,,,,,,,,main,None,None,1,1.50251270015724,238.0733490998391,None,None,1,,,,,,,,,,,,,,206,2023-03-29_15h07.24.792,Main,2022.1.1,60.03907341896883,
positive,blue,1,k,None,,,,,,,,,0,15,15,15,,,,,,,,,,,,,,,,,main,k,k,1,1.2648299001157284,240.57659519999288,None,None,0,,,,,,,,,,,,,,206,2023-03-29_15h07.24.792,Main,2022.1.1,60.03907341896883,
negative,blue,1,None,k,,,,,,,,,0,16,16,16,,,,,,,,,,,,,,,,,main,None,None,1,1.5040682000108063,242.83557369979098,None,None,1,,,,,,,,,,,,,,206,2023-03-29_15h07.24.792,Main,2022.1.1,60.03907341896883,
positive,blue,2,k,None,,,,,,,,,0,17,17,17,,,,,,,,,,,,,,,,,main,k,k,1,0.8755117000546306,245.34549139998853,None,None,0,,,,,,,,,,,,,,206,2023-03-29_15h07.24.792,Main,2022.1.1,60.03907341896883,
negative,blue,2,None,k,,,,,,,,,0,18,18,18,,,,,,,,,,,,,,,,,main,None,None,1,1.5016232999041677,247.22348719998263,None,None,1,,,,,,,,,,,,,,206,2023-03-29_15h07.24.792,Main,2022.1.1,60.03907341896883,
negative,blue,1,None,k,,,,,,,,,0,19,19,19,,,,,,,,,,,,,,,,,main,None,None,1,1.499329400015995,249.72629949986003,None,None,1,,,,,,,,,,,,,,206,2023-03-29_15h07.24.792,Main,2022.1.1,60.03907341896883,
negative,blue,1,None,k,,,,,,,,,0,20,20,20,,,,,,,,,,,,,,,,,main,None,None,1,1.4987953999079764,252.22339339996688,None,None,1,,,,,,,,,,,,,,206,2023-03-29_15h07.24.792,Main,2022.1.1,60.03907341896883,
negative,blue,2,None,k,,,,,,,,,0,21,21,21,,,,,,,,,,,,,,,,,main,None,None,1,1.4990980001166463,254.72616229997948,None,None,1,,,,,,,,,,,,,,206,2023-03-29_15h07.24.792,Main,2022.1.1,60.03907341896883,
negative,red,1,None,None,,,,,,,,,0,22,22,22,,,,,,,,,,,,,,,,,main,None,None,1,1.4958146999124438,257.226167100016,None,None,1,,,,,,,,,,,,,,206,2023-03-29_15h07.24.792,Main,2022.1.1,60.03907341896883,
positive,red,2,None,None,,,,,,,,,0,23,23,23,,,,,,,,,,,,,,,,,main,None,None,1,1.5024421999696642,259.7229249998927,None,None,1,,,,,,,,,,,,,,206,2023-03-29_15h07.24.792,Main,2022.1.1,60.03907341896883,
negative,red,2,None,None,,,,,,,,,0,24,24,24,,,,,,,,,,,,,,,,,main,None,None,1,1.4964988001156598,262.226232299814,None,None,1,,,,,,,,,,,,,,206,2023-03-29_15h07.24.792,Main,2022.1.1,60.03907341896883,
positive,blue,2,k,None,,,,,,,,,0,25,25,25,,,,,,,,,,,,,,,,,main,k,k,1,0.849320599809289,264.7261285998393,None,None,0,,,,,,,,,,,,,,206,2023-03-29_15h07.24.792,Main,2022.1.1,60.03907341896883,
negative,yellow,1,k,None,,,,,,,,,0,26,26,26,,,,,,,,,,,,,,,,,main,k,k,1,1.0822230000048876,266.57337329979055,None,None,0,,,,,,,,,,,,,,206,2023-03-29_15h07.24.792,Main,2022.1.1,60.03907341896883,
positive,blue,2,k,None,,,,,,,,,0,27,27,27,,,,,,,,,,,,,,,,,main,k,k,1,0.8152316999621689,268.6564460999798,None,None,0,,,,,,,,,,,,,,206,2023-03-29_15h07.24.792,Main,2022.1.1,60.03907341896883,
negative,blue,2,None,k,,,,,,,,,0,28,28,28,,,,,,,,,,,,,,,,,main,None,None,1,1.4988152000587434,270.47267529997043,None,None,1,,,,,,,,,,,,,,206,2023-03-29_15h07.24.792,Main,2022.1.1,60.03907341896883,
positive,red,1,None,None,,,,,,,,,0,29,29,29,,,,,,,,,,,,,,,,,main,None,None,1,1.5024575002025813,272.9729684998747,None,None,1,,,,,,,,,,,,,,206,2023-03-29_15h07.24.792,Main,2022.1.1,60.03907341896883,
positive,blue,1,k,None,,,,,,,,,0,30,30,30,,,,,,,,,,,,,,,,,main,k,k,1,0.896253600018099,275.4758816999383,None,None,0,,,,,,,,,,,,,,206,2023-03-29_15h07.24.792,Main,2022.1.1,60.03907341896883,
positive,yellow,1,None,k,,,,,,,,,0,31,31,31,,,,,,,,,,,,,,,,,main,None,None,1,1.5013955000322312,277.37294319993816,None,None,1,,,,,,,,,,,,,,206,2023-03-29_15h07.24.792,Main,2022.1.1,60.03907341896883,
negative,yellow,2,k,None,,,,,,,,,0,32,32,32,,,,,,,,,,,,,,,,,main,k,k,1,0.9799494000617415,279.87275390001014,None,None,0,,,,,,,,,,,,,,206,2023-03-29_15h07.24.792,Main,2022.1.1,60.03907341896883,
negative,blue,1,None,k,,,,,,,,,0,33,33,33,,,,,,,,,,,,,,,,,main,None,None,1,1.5019685998558998,281.8589384998195,None,None,1,,,,,,,,,,,,,,206,2023-03-29_15h07.24.792,Main,2022.1.1,60.03907341896883,
positive,blue,1,k,None,,,,,,,,,0,34,34,34,,,,,,,,,,,,,,,,,main,k,k,1,0.7157390001229942,284.3562647998333,None,None,0,,,,,,,,,,,,,,206,2023-03-29_15h07.24.792,Main,2022.1.1,60.03907341896883,
negative,yellow,1,k,None,,,,,,,,,0,35,35,35,,,,,,,,,,,,,,,,,main,k,k,1,1.1659806000534445,286.0726269998122,None,None,0,,,,,,,,,,,,,,206,2023-03-29_15h07.24.792,Main,2022.1.1,60.03907341896883,
positive,yellow,2,None,k,,,,,,,,,0,36,36,36,,,,,,,,,,,,,,,,,main,None,None,1,1.4989963001571596,288.242208099924,None,None,1,,,,,,,,,,,,,,206,2023-03-29_15h07.24.792,Main,2022.1.1,60.03907341896883,
positive,yellow,2,None,k,,,,,,,,,0,37,37,37,,,,,,,,,,,,,,,,,main,None,None,1,1.4957562000490725,290.7421150999144,None,None,1,,,,,,,,,,,,,,206,2023-03-29_15h07.24.792,Main,2022.1.1,60.03907341896883,
negative,yellow,2,k,None,,,,,,,,,0,38,38,38,,,,,,,,,,,,,,,,,main,k,k,1,0.9022978998254985,293.2389367998112,None,None,0,,,,,,,,,,,,,,206,2023-03-29_15h07.24.792,Main,2022.1.1,60.03907341896883,
positive,yellow,1,None,k,,,,,,,,,0,39,39,39,,,,,,,,,,,,,,,,,main,None,None,1,1.499034299980849,295.14211299992166,None,None,1,,,,,,,,,,,,,,206,2023-03-29_15h07.24.792,Main,2022.1.1,60.03907341896883,
negative,yellow,2,k,None,,,,,,,,,0,40,40,40,,,,,,,,,,,,,,,,,main,k,k,1,0.9264493999071419,297.64201269997284,None,None,0,,,,,,,,,,,,,,206,2023-03-29_15h07.24.792,Main,2022.1.1,60.03907341896883,
positive,blue,2,k,None,,,,,,,,,0,41,41,41,,,,,,,,,,,,,,,,,main,k,k,1,1.10281730000861,299.5715951998718,None,None,0,,,,,,,,,,,,,,206,2023-03-29_15h07.24.792,Main,2022.1.1,60.03907341896883,
positive,blue,2,k,None,,,,,,,,,0,42,42,42,,,,,,,,,,,,,,,,,main,k,k,1,0.7853743999730796,301.6724630999379,None,None,0,,,,,,,,,,,,,,206,2023-03-29_15h07.24.792,Main,2022.1.1,60.03907341896883,
negative,blue,2,None,k,,,,,,,,,0,43,43,43,,,,,,,,,,,,,,,,,main,None,None,1,1.4987927000038326,303.4585907999426,None,None,1,,,,,,,,,,,,,,206,2023-03-29_15h07.24.792,Main,2022.1.1,60.03907341896883,
negative,red,1,None,None,,,,,,,,,0,44,44,44,,,,,,,,,,,,,,,,,main,None,None,1,1.498961400007829,305.9586457000114,None,None,1,,,,,,,,,,,,,,206,2023-03-29_15h07.24.792,Main,2022.1.1,60.03907341896883,
negative,yellow,1,k,None,,,,,,,,,0,45,45,45,,,,,,,,,,,,,,,,,main,k,k,1,1.450112999882549,308.4585235998966,None,None,0,,,,,,,,,,,,,,206,2023-03-29_15h07.24.792,Main,2022.1.1,60.03907341896883,
negative,yellow,1,k,None,,,,,,,,,0,46,46,46,,,,,,,,,,,,,,,,,main,k,k,1,1.0650210999883711,310.90579269989394,None,None,0,,,,,,,,,,,,,,206,2023-03-29_15h07.24.792,Main,2022.1.1,60.03907341896883,
positive,red,1,None,None,,,,,,,,,0,47,47,47,,,,,,,,,,,,,,,,,main,None,None,1,1.4972264999523759,312.975004900014,None,None,1,,,,,,,,,,,,,,206,2023-03-29_15h07.24.792,Main,2022.1.1,60.03907341896883,
positive,yellow,1,None,k,,,,,,,,,0,48,48,48,,,,,,,,,,,,,,,,,main,None,None,1,1.4999269999098033,315.4748519998975,None,None,1,,,,,,,,,,,,,,206,2023-03-29_15h07.24.792,Main,2022.1.1,60.03907341896883,
negative,blue,1,None,k,,,,,,,,,0,49,49,49,,,,,,,,,,,,,,,,,main,None,None,1,1.4961012001149356,317.9749508998357,None,None,1,,,,,,,,,,,,,,206,2023-03-29_15h07.24.792,Main,2022.1.1,60.03907341896883,
positive,yellow,2,None,k,,,,,,,,,0,50,50,50,,,,,,,,,,,,,,,,,main,None,None,1,1.4998288999777287,320.47206199984066,None,None,1,,,,,,,,,,,,,,206,2023-03-29_15h07.24.792,Main,2022.1.1,60.03907341896883,
negative,blue,1,None,k,,,,,,,,,0,51,51,51,,,,,,,,,,,,,,,,,main,None,None,1,1.4984319999348372,322.974860599963,None,None,1,,,,,,,,,,,,,,206,2023-03-29_15h07.24.792,Main,2022.1.1,60.03907341896883,
positive,red,2,None,None,,,,,,,,,0,52,52,52,,,,,,,,,,,,,,,,,main,None,None,1,1.5021550001110882,325.4747295000125,None,None,1,,,,,,,,,,,,,,206,2023-03-29_15h07.24.792,Main,2022.1.1,60.03907341896883,
positive,yellow,2,None,k,,,,,,,,,0,53,53,53,,,,,,,,,,,,,,,,,main,None,None,1,1.4992533999029547,327.9746516000014,None,None,1,,,,,,,,,,,,,,206,2023-03-29_15h07.24.792,Main,2022.1.1,60.03907341896883,
negative,red,2,None,None,,,,,,,,,0,54,54,54,,,,,,,,,,,,,,,,,main,None,None,1,1.500939300050959,330.4716807999648,None,None,1,,,,,,,,,,,,,,206,2023-03-29_15h07.24.792,Main,2022.1.1,60.03907341896883,
positive,yellow,1,None,k,,,,,,,,,0,55,55,55,,,,,,,,,,,,,,,,,main,None,None,1,1.496832000091672,332.9716505999677,None,None,1,,,,,,,,,,,,,,206,2023-03-29_15h07.24.792,Main,2022.1.1,60.03907341896883,
negative,blue,2,None,k,,,,,,,,,0,56,56,56,,,,,,,,,,,,,,,,,main,None,None,1,1.4990583001635969,335.47499179979786,None,None,1,,,,,,,,,,,,,,206,2023-03-29_15h07.24.792,Main,2022.1.1,60.03907341896883,
positive,blue,1,k,None,,,,,,,,,0,57,57,57,,,,,,,,,,,,,,,,,main,k,k,1,0.8326208000071347,337.9716228998732,None,None,0,,,,,,,,,,,,,,206,2023-03-29_15h07.24.792,Main,2022.1.1,60.03907341896883,
positive,blue,1,k,None,,,,,,,,,0,58,58,58,,,,,,,,,,,,,,,,,main,k,k,1,0.9125538999214768,339.8077738999855,None,None,0,,,,,,,,,,,,,,206,2023-03-29_15h07.24.792,Main,2022.1.1,60.03907341896883,
negative,yellow,2,k,None,,,,,,,,,0,59,59,59,,,,,,,,,,,,,,,,,main,k,k,1,1.0826125000603497,341.72147029987536,None,None,0,,,,,,,,,,,,,,206,2023-03-29_15h07.24.792,Main,2022.1.1,60.03907341896883,
positive,red,2,None,None,,,,,,,,,0,60,60,60,,,,,,,,,,,,,,,,,main,None,None,1,1.5021973000839353,343.8045280999504,None,None,1,,,,,,,,,,,,,,206,2023-03-29_15h07.24.792,Main,2022.1.1,60.03907341896883,
negative,yellow,1,k,None,,,,,,,,,0,61,61,61,,,,,,,,,,,,,,,,,main,k,k,1,1.6157311999704689,346.3077841999475,None,None,0,,,,,,,,,,,,,,206,2023-03-29_15h07.24.792,Main,2022.1.1,60.03907341896883,
negative,red,1,None,None,,,,,,,,,0,62,62,62,,,,,,,,,,,,,,,,,main,None,None,1,1.5018891000654548,349.92422769987024,None,None,1,,,,,,,,,,,,,,206,2023-03-29_15h07.24.792,Main,2022.1.1,60.03907341896883,
negative,blue,1,None,k,,,,,,,,,0,63,63,63,,,,,,,,,,,,,,,,,main,None,None,1,1.4959911999758333,352.42406109999865,None,None,1,,,,,,,,,,,,,,206,2023-03-29_15h07.24.792,Main,2022.1.1,60.03907341896883,
positive,blue,2,k,None,,,,,,,,,0,64,64,64,,,,,,,,,,,,,,,,,main,k,k,1,0.9988292001653463,354.924282199936,None,None,0,,,,,,,,,,,,,,206,2023-03-29_15h07.24.792,Main,2022.1.1,60.03907341896883,
negative,yellow,2,k,None,,,,,,,,,0,65,65,65,,,,,,,,,,,,,,,,,main,k,k,1,0.903231400065124,356.9241142999381,None,None,0,,,,,,,,,,,,,,206,2023-03-29_15h07.24.792,Main,2022.1.1,60.03907341896883,
positive,yellow,2,None,k,,,,,,,,,0,66,66,66,,,,,,,,,,,,,,,,,main,None,None,1,1.4973973999731243,358.82399720000103,None,None,1,,,,,,,,,,,,,,206,2023-03-29_15h07.24.792,Main,2022.1.1,60.03907341896883,
positive,yellow,2,None,k,,,,,,,,,0,67,67,67,,,,,,,,,,,,,,,,,main,None,None,1,1.4955970998853445,361.3211028999649,None,None,1,,,,,,,,,,,,,,206,2023-03-29_15h07.24.792,Main,2022.1.1,60.03907341896883,
positive,red,1,None,None,,,,,,,,,0,68,68,68,,,,,,,,,,,,,,,,,main,None,None,1,1.5023422001395375,363.8207207999658,None,None,1,,,,,,,,,,,,,,206,2023-03-29_15h07.24.792,Main,2022.1.1,60.03907341896883,
positive,yellow,1,None,k,,,,,,,,,0,69,69,69,,,,,,,,,,,,,,,,,main,None,None,1,1.5001600000541657,366.3238809998147,None,None,1,,,,,,,,,,,,,,206,2023-03-29_15h07.24.792,Main,2022.1.1,60.03907341896883,
negative,yellow,2,k,None,,,,,,,,,0,70,70,70,,,,,,,,,,,,,,,,,main,k,k,1,0.9819378000684083,368.8239064000081,None,None,0,,,,,,,,,,,,,,206,2023-03-29_15h07.24.792,Main,2022.1.1,60.03907341896883,
positive,yellow,1,None,k,,,,,,,,,0,71,71,71,,,,,,,,,,,,,,,,,main,None,None,1,1.4961254000663757,370.80721919983625,None,None,1,,,,,,,,,,,,,,206,2023-03-29_15h07.24.792,Main,2022.1.1,60.03907341896883,
negative,blue,1,None,k,,,,,,,,,0,72,72,72,,,,,,,,,,,,,,,,,main,None,None,1,1.5019514998421073,373.30699740001,None,None,1,,,,,,,,,,,,,,206,2023-03-29_15h07.24.792,Main,2022.1.1,60.03907341896883,
negative,red,2,None,None,,,,,,,,,0,73,73,73,,,,,,,,,,,,,,,,,main,None,None,1,1.4963642999064177,375.8068760000169,None,None,1,,,,,,,,,,,,,,206,2023-03-29_15h07.24.792,Main,2022.1.1,60.03907341896883,
positive,blue,2,k,None,,,,,,,,,0,74,74,74,,,,,,,,,,,,,,,,,main,k,k,1,0.8492465000599623,378.3069525999017,None,None,0,,,,,,,,,,,,,,206,2023-03-29_15h07.24.792,Main,2022.1.1,60.03907341896883,
negative,blue,2,None,k,,,,,,,,,0,75,75,75,,,,,,,,,,,,,,,,,main,None,None,1,1.5011164001189172,380.1570087999571,None,None,1,,,,,,,,,,,,,,206,2023-03-29_15h07.24.792,Main,2022.1.1,60.03907341896883,
negative,blue,2,None,k,,,,,,,,,0,76,76,76,,,,,,,,,,,,,,,,,main,None,None,1,1.4956301001366228,382.6540380998049,None,None,1,,,,,,,,,,,,,,206,2023-03-29_15h07.24.792,Main,2022.1.1,60.03907341896883,
negative,yellow,1,k,None,,,,,,,,,0,77,77,77,,,,,,,,,,,,,,,,,main,k,k,1,1.4161521000787616,385.1536153999623,None,None,0,,,,,,,,,,,,,,206,2023-03-29_15h07.24.792,Main,2022.1.1,60.03907341896883,
positive,blue,1,k,None,,,,,,,,,0,78,78,78,,,,,,,,,,,,,,,,,main,k,k,1,1.5022582998499274,387.5702930998523,None,None,0,,,,,,,,,,,,,,206,2023-03-29_15h07.24.792,Main,2022.1.1,60.03907341896883,
positive,blue,1,k,None,,,,,,,,,0,79,79,79,,,,,,,,,,,,,,,,,main,k,k,1,0.8680126999970526,391.0734649999067,None,None,0,,,,,,,,,,,,,,206,2023-03-29_15h07.24.792,Main,2022.1.1,60.03907341896883,
positive,red,2,None,None,,,,,,,,,0,80,80,80,,,,,,,,,,,,,,,,,main,None,None,1,1.4981670998968184,392.9399714998435,None,None,1,,,,,,,,,,,,,,206,2023-03-29_15h07.24.792,Main,2022.1.1,60.03907341896883,
positive,yellow,2,None,k,,,,,,,,,0,81,81,81,,,,,,,,,,,,,,,,,main,None,None,1,1.4965761001221836,395.439811399905,None,None,1,,,,,,,,,,,,,,206,2023-03-29_15h07.24.792,Main,2022.1.1,60.03907341896883,
positive,blue,1,k,None,,,,,,,,,0,82,82,82,,,,,,,,,,,,,,,,,main,k,k,1,1.0844356000889093,397.93680879985914,None,None,0,,,,,,,,,,,,,,206,2023-03-29_15h07.24.792,Main,2022.1.1,60.03907341896883,
negative,yellow,2,k,None,,,,,,,,,0,83,83,83,,,,,,,,,,,,,,,,,main,k,k,1,0.8973163000773638,400.02027179999277,None,None,0,,,,,,,,,,,,,,206,2023-03-29_15h07.24.792,Main,2022.1.1,60.03907341896883,
positive,blue,2,k,None,,,,,,,,,0,84,84,84,,,,,,,,,,,,,,,,,main,k,k,1,0.868375799851492,401.92327019991353,None,None,0,,,,,,,,,,,,,,206,2023-03-29_15h07.24.792,Main,2022.1.1,60.03907341896883,
positive,yellow,1,None,k,,,,,,,,,0,85,85,85,,,,,,,,,,,,,,,,,main,None,None,1,1.4992112000472844,403.78983329981565,None,None,1,,,,,,,,,,,,,,206,2023-03-29_15h07.24.792,Main,2022.1.1,60.03907341896883,
positive,blue,2,k,None,,,,,,,,,0,86,86,86,,,,,,,,,,,,,,,,,main,k,k,1,0.9468499000649899,406.2866471998859,None,None,0,,,,,,,,,,,,,,206,2023-03-29_15h07.24.792,Main,2022.1.1,60.03907341896883,
positive,blue,1,k,None,,,,,,,,,0,87,87,87,,,,,,,,,,,,,,,,,main,k,k,1,1.015354200033471,408.23653439991176,None,None,0,,,,,,,,,,,,,,206,2023-03-29_15h07.24.792,Main,2022.1.1,60.03907341896883,
negative,yellow,2,k,None,,,,,,,,,0,88,88,88,,,,,,,,,,,,,,,,,main,k,k,1,0.9019849000032991,410.25624499982223,None,None,0,,,,,,,,,,,,,,206,2023-03-29_15h07.24.792,Main,2022.1.1,60.03907341896883,
negative,blue,2,None,k,,,,,,,,,0,89,89,89,,,,,,,,,,,,,,,,,main,None,None,1,1.4986242998857051,412.15348490001634,None,None,1,,,,,,,,,,,,,,206,2023-03-29_15h07.24.792,Main,2022.1.1,60.03907341896883,
positive,yellow,2,None,k,,,,,,,,,0,90,90,90,,,,,,,,,,,,,,,,,main,None,None,1,1.4997876000124961,414.6562183999922,None,None,1,,,,,,,,,,,,,,206,2023-03-29_15h07.24.792,Main,2022.1.1,60.03907341896883,
negative,yellow,1,k,None,,,,,,,,,0,91,91,91,,,,,,,,,,,,,,,,,main,k,k,1,0.8987499000504613,417.1561612000223,None,None,0,,,,,,,,,,,,,,206,2023-03-29_15h07.24.792,Main,2022.1.1,60.03907341896883,
negative,red,2,None,None,,,,,,,,,0,92,92,92,,,,,,,,,,,,,,,,,main,None,None,1,1.4988945999648422,419.0532007999718,None,None,1,,,,,,,,,,,,,,206,2023-03-29_15h07.24.792,Main,2022.1.1,60.03907341896883,
negative,blue,2,None,k,,,,,,,,,0,93,93,93,,,,,,,,,,,,,,,,,main,None,None,1,1.4993411998730153,421.55314789991826,None,None,1,,,,,,,,,,,,,,206,2023-03-29_15h07.24.792,Main,2022.1.1,60.03907341896883,
negative,blue,1,None,k,,,,,,,,,0,94,94,94,,,,,,,,,,,,,,,,,main,None,None,1,1.499011600157246,424.0560566999484,None,None,1,,,,,,,,,,,,,,206,2023-03-29_15h07.24.792,Main,2022.1.1,60.03907341896883,
negative,blue,1,None,k,,,,,,,,,0,95,95,95,,,,,,,,,,,,,,,,,main,None,None,1,1.4958434998989105,426.5559729000088,None,None,1,,,,,,,,,,,,,,206,2023-03-29_15h07.24.792,Main,2022.1.1,60.03907341896883,
negative,red,1,None,None,,,,,,,,,0,96,96,96,,,,,,,,,,,,,,,,,main,None,None,1,1.5025063999928534,429.0527615000028,None,None,1,,,,,,,,,,,,,,206,2023-03-29_15h07.24.792,Main,2022.1.1,60.03907341896883,
positive,yellow,1,None,k,,,,,,,,,0,97,97,97,,,,,,,,,,,,,,,,,main,None,None,1,1.4990011001937091,431.55333809996955,None,None,1,,,,,,,,,,,,,,206,2023-03-29_15h07.24.792,Main,2022.1.1,60.03907341896883,
negative,yellow,1,k,None,,,,,,,,,0,98,98,98,,,,,,,,,,,,,,,,,main,k,k,1,1.6463780000340194,434.0558449998498,None,None,0,,,,,,,,,,,,,,206,2023-03-29_15h07.24.792,Main,2022.1.1,60.03907341896883,
positive,red,1,None,None,,,,,,,,,0,99,99,99,,,,,,,,,,,,,,,,,main,None,None,1,1.5017772000283003,437.7055919999257,None,None,1,,,,,,,,,,,,,,206,2023-03-29_15h07.24.792,Main,2022.1.1,60.03907341896883,
positive,blue,1,k,None,,,,,,,,,0,100,100,100,,,,,,,,,,,,,,,,,main,k,k,1,0.8319262000732124,440.2027777999174,None,None,0,,,,,,,,,,,,,,206,2023-03-29_15h07.24.792,Main,2022.1.1,60.03907341896883,
negative,yellow,1,k,None,,,,,,,,,0,101,101,101,,,,,,,,,,,,,,,,,main,k,k,1,0.8988461999688298,442.0360875998158,None,None,0,,,,,,,,,,,,,,206,2023-03-29_15h07.24.792,Main,2022.1.1,60.03907341896883,
negative,blue,2,None,k,,,,,,,,,0,102,102,102,,,,,,,,,,,,,,,,,main,None,None,1,1.4989950000308454,443.9389495998621,None,None,1,,,,,,,,,,,,,,206,2023-03-29_15h07.24.792,Main,2022.1.1,60.03907341896883,
negative,yellow,2,k,None,,,,,,,,,0,103,103,103,,,,,,,,,,,,,,,,,main,k,k,1,1.4463762999512255,446.4389671999961,None,None,0,,,,,,,,,,,,,,206,2023-03-29_15h07.24.792,Main,2022.1.1,60.03907341896883,
positive,yellow,2,None,k,,,,,,,,,0,104,104,104,,,,,,,,,,,,,,,,,main,None,None,1,1.5020245001651347,448.88561399979517,None,None,1,,,,,,,,,,,,,,206,2023-03-29_15h07.24.792,Main,2022.1.1,60.03907341896883,
positive,blue,1,k,None,,,,,,,,,0,105,105,105,,,,,,,,,,,,,,,,,main,k,k,1,0.8965599001385272,451.3889641999267,None,None,0,,,,,,,,,,,,,,206,2023-03-29_15h07.24.792,Main,2022.1.1,60.03907341896883,
positive,blue,2,k,None,,,,,,,,,0,106,106,106,,,,,,,,,,,,,,,,,main,k,k,1,0.8189695999026299,453.28882189979777,None,None,0,,,,,,,,,,,,,,206,2023-03-29_15h07.24.792,Main,2022.1.1,60.03907341896883,
negative,blue,1,None,k,,,,,,,,,0,107,107,107,,,,,,,,,,,,,,,,,main,None,None,1,1.4954371000640094,455.10544919990934,None,None,1,,,,,,,,,,,,,,206,2023-03-29_15h07.24.792,Main,2022.1.1,60.03907341896883,
positive,yellow,2,None,k,,,,,,,,,0,108,108,108,,,,,,,,,,,,,,,,,main,None,None,1,1.5025321000721306,457.60209369985387,None,None,1,,,,,,,,,,,,,,206,2023-03-29_15h07.24.792,Main,2022.1.1,60.03907341896883,
negative,yellow,1,k,None,,,,,,,,,0,109,109,109,,,,,,,,,,,,,,,,,main,k,k,1,1.0632646998856217,460.1053829998709,None,None,0,,,,,,,,,,,,,,206,2023-03-29_15h07.24.792,Main,2022.1.1,60.03907341896883,
negative,blue,2,None,k,,,,,,,,,0,110,110,110,,,,,,,,,,,,,,,,,main,None,None,1,1.5013764000032097,462.16913179983385,None,None,1,,,,,,,,,,,,,,206,2023-03-29_15h07.24.792,Main,2022.1.1,60.03907341896883,
positive,blue,2,k,None,,,,,,,,,0,111,111,111,,,,,,,,,,,,,,,,,main,k,k,1,0.8130405000410974,464.6719711998012,None,None,0,,,,,,,,,,,,,,206,2023-03-29_15h07.24.792,Main,2022.1.1,60.03907341896883,
negative,blue,1,None,k,,,,,,,,,0,112,112,112,,,,,,,,,,,,,,,,,main,None,None,1,1.4987015000078827,466.48524339986034,None,None,1,,,,,,,,,,,,,,206,2023-03-29_15h07.24.792,Main,2022.1.1,60.03907341896883,
positive,yellow,1,None,k,,,,,,,,,0,113,113,113,,,,,,,,,,,,,,,,,main,None,None,1,1.5026539999525994,468.985239099944,None,None,1,,,,,,,,,,,,,,206,2023-03-29_15h07.24.792,Main,2022.1.1,60.03907341896883,
negative,red,1,None,None,,,,,,,,,0,114,114,114,,,,,,,,,,,,,,,,,main,None,None,1,1.4990439000539482,471.48836539988406,None,None,1,,,,,,,,,,,,,,206,2023-03-29_15h07.24.792,Main,2022.1.1,60.03907341896883,
positive,red,1,None,None,,,,,,,,,0,115,115,115,,,,,,,,,,,,,,,,,main,None,None,1,1.4988669999875128,473.9884577000048,None,None,1,,,,,,,,,,,,,,206,2023-03-29_15h07.24.792,Main,2022.1.1,60.03907341896883,
negative,red,2,None,None,,,,,,,,,0,116,116,116,,,,,,,,,,,,,,,,,main,None,None,1,1.4991991999559104,476.48861230001785,None,None,1,,,,,,,,,,,,,,206,2023-03-29_15h07.24.792,Main,2022.1.1,60.03907341896883,
negative,yellow,2,k,None,,,,,,,,,0,117,117,117,,,,,,,,,,,,,,,,,main,k,k,1,1.165644400054589,478.98822499997914,None,None,0,,,,,,,,,,,,,,206,2023-03-29_15h07.24.792,Main,2022.1.1,60.03907341896883,
positive,yellow,1,None,k,,,,,,,,,0,118,118,118,,,,,,,,,,,,,,,,,main,None,None,1,1.4993250002153218,481.1546628999058,None,None,1,,,,,,,,,,,,,,206,2023-03-29_15h07.24.792,Main,2022.1.1,60.03907341896883,
positive,red,2,None,None,,,,,,,,,0,119,119,119,,,,,,,,,,,,,,,,,main,None,None,1,1.4989237999543548,483.65477619995363,None,None,1,,,,,,,,,,,,,,206,2023-03-29_15h07.24.792,Main,2022.1.1,60.03907341896883,
positive,blue,2,k,None,,,,,,,,,0,120,120,120,,,,,,,,,,,,,,,,,main,k,k,1,0.929621399845928,486.15470730001107,None,None,0,,,,,,,,,,,,,,206,2023-03-29_15h07.24.792,Main,2022.1.1,60.03907341896883,
negative,red,1,None,None,,,,,,,,,0,121,121,121,,,,,,,,,,,,,,,,,main,None,None,1,1.5021975000854582,488.08482269989327,None,None,1,,,,,,,,,,,,,,206,2023-03-29_15h07.24.792,Main,2022.1.1,60.03907341896883,
positive,yellow,2,None,k,,,,,,,,,0,122,122,122,,,,,,,,,,,,,,,,,main,None,None,1,1.4994822000153363,490.5880111998413,None,None,1,,,,,,,,,,,,,,206,2023-03-29_15h07.24.792,Main,2022.1.1,60.03907341896883,
negative,red,2,None,None,,,,,,,,,0,123,123,123,,,,,,,,,,,,,,,,,main,None,None,1,1.4984503998421133,493.0879384998698,None,None,1,,,,,,,,,,,,,,206,2023-03-29_15h07.24.792,Main,2022.1.1,60.03907341896883,
negative,yellow,2,k,None,,,,,,,,,0,124,124,124,,,,,,,,,,,,,,,,,main,k,k,1,1.4300402000080794,495.58505049999803,None,None,0,,,,,,,,,,,,,,206,2023-03-29_15h07.24.792,Main,2022.1.1,60.03907341896883,
positive,red,1,None,None,,,,,,,,,0,125,125,125,,,,,,,,,,,,,,,,,main,None,None,1,1.5011682999320328,498.0211249999702,None,None,1,,,,,,,,,,,,,,206,2023-03-29_15h07.24.792,Main,2022.1.1,60.03907341896883,
negative,blue,2,None,k,,,,,,,,,0,126,126,126,,,,,,,,,,,,,,,,,main,None,None,1,1.4993954000528902,500.5181552998256,None,None,1,,,,,,,,,,,,,,206,2023-03-29_15h07.24.792,Main,2022.1.1,60.03907341896883,
negative,blue,1,None,k,,,,,,,,,0,127,127,127,,,,,,,,,,,,,,,,,main,None,None,1,1.4992955999914557,503.02091039996594,None,None,1,,,,,,,,,,,,,,206,2023-03-29_15h07.24.792,Main,2022.1.1,60.03907341896883,
negative,yellow,1,k,None,,,,,,,,,0,128,128,128,,,,,,,,,,,,,,,,,main,k,k,1,1.0459708000998944,505.5209381999448,None,None,0,,,,,,,,,,,,,,206,2023-03-29_15h07.24.792,Main,2022.1.1,60.03907341896883,
negative,yellow,1,k,None,,,,,,,,,0,129,129,129,,,,,,,,,,,,,,,,,main,k,k,1,0.7326939001213759,507.56771079986356,None,None,0,,,,,,,,,,,,,,206,2023-03-29_15h07.24.792,Main,2022.1.1,60.03907341896883,
positive,blue,1,k,None,,,,,,,,,0,130,130,130,,,,,,,,,,,,,,,,,main,k,k,1,0.9692007000558078,509.3010875999462,None,None,0,,,,,,,,,,,,,,206,2023-03-29_15h07.24.792,Main,2022.1.1,60.03907341896883,
negative,blue,1,None,k,,,,,,,,,0,131,131,131,,,,,,,,,,,,,,,,,main,None,None,1,1.4988493998534977,511.271016899962,None,None,1,,,,,,,,,,,,,,206,2023-03-29_15h07.24.792,Main,2022.1.1,60.03907341896883,
negative,blue,2,None,k,,,,,,,,,0,132,132,132,,,,,,,,,,,,,,,,,main,None,None,1,1.4963421998545527,513.7709108998533,None,None,1,,,,,,,,,,,,,,206,2023-03-29_15h07.24.792,Main,2022.1.1,60.03907341896883,
positive,blue,2,k,None,,,,,,,,,0,133,133,133,,,,,,,,,,,,,,,,,main,k,k,1,0.7818261000793427,516.2675818998832,None,None,0,,,,,,,,,,,,,,206,2023-03-29_15h07.24.792,Main,2022.1.1,60.03907341896883,
positive,red,2,None,None,,,,,,,,,0,134,134,134,,,,,,,,,,,,,,,,,main,None,None,1,1.5021928001660854,518.0508881998248,None,None,1,,,,,,,,,,,,,,206,2023-03-29_15h07.24.792,Main,2022.1.1,60.03907341896883,
negative,yellow,2,k,None,,,,,,,,,0,135,135,135,,,,,,,,,,,,,,,,,main,k,k,1,1.07971700001508,520.5540976999328,None,None,0,,,,,,,,,,,,,,206,2023-03-29_15h07.24.792,Main,2022.1.1,60.03907341896883,
positive,yellow,2,None,k,,,,,,,,,0,136,136,136,,,,,,,,,,,,,,,,,main,None,None,1,1.4985972000285983,522.6374989999458,None,None,1,,,,,,,,,,,,,,206,2023-03-29_15h07.24.792,Main,2022.1.1,60.03907341896883,
positive,blue,1,k,None,,,,,,,,,0,137,137,137,,,,,,,,,,,,,,,,,main,k,k,1,0.9829049000982195,525.1342769998591,None,None,0,,,,,,,,,,,,,,206,2023-03-29_15h07.24.792,Main,2022.1.1,60.03907341896883,
positive,yellow,1,None,k,,,,,,,,,0,138,138,138,,,,,,,,,,,,,,,,,main,None,None,1,1.5017466000281274,527.1175771998242,None,None,1,,,,,,,,,,,,,,206,2023-03-29_15h07.24.792,Main,2022.1.1,60.03907341896883,
positive,yellow,1,None,k,,,,,,,,,0,139,139,139,,,,,,,,,,,,,,,,,main,None,None,1,1.4989150001201779,529.6205136999488,None,None,1,,,,,,,,,,,,,,206,2023-03-29_15h07.24.792,Main,2022.1.1,60.03907341896883,
positive,yellow,1,None,k,,,,,,,,,0,140,140,140,,,,,,,,,,,,,,,,,main,None,None,1,1.499149499926716,532.1175096000079,None,None,1,,,,,,,,,,,,,,206,2023-03-29_15h07.24.792,Main,2022.1.1,60.03907341896883,
positive,blue,1,k,None,,,,,,,,,0,141,141,141,,,,,,,,,,,,,,,,,main,k,k,1,0.9969937999267131,534.6202897999901,None,None,0,,,,,,,,,,,,,,206,2023-03-29_15h07.24.792,Main,2022.1.1,60.03907341896883,
positive,blue,2,k,None,,,,,,,,,0,142,142,142,,,,,,,,,,,,,,,,,main,k,k,1,0.8987777000293136,536.6203880999237,None,None,0,,,,,,,,,,,,,,206,2023-03-29_15h07.24.792,Main,2022.1.1,60.03907341896883,
positive,yellow,2,None,k,,,,,,,,,0,143,143,143,,,,,,,,,,,,,,,,,main,None,None,1,1.4986796001903713,538.5170938000083,None,None,1,,,,,,,,,,,,,,206,2023-03-29_15h07.24.792,Main,2022.1.1,60.03907341896883,
negative,yellow,2,k,None,,,,,,,,,0,144,144,144,,,,,,,,,,,,,,,,,main,k,k,1,1.052794500021264,541.0170688999351,None,None,0,,,,,,,,,,,,,,206,2023-03-29_15h07.24.792,Main,2022.1.1,60.03907341896883,
negative,blue,2,None,k,,,,,,,,,0,145,145,145,,,,,,,,,,,,,,,,,main,None,None,1,1.4987141999881715,543.0703463999089,None,None,1,,,,,,,,,,,,,,206,2023-03-29_15h07.24.792,Main,2022.1.1,60.03907341896883,
negative,red,1,None,None,,,,,,,,,0,146,146,146,,,,,,,,,,,,,,,,,main,None,None,1,1.4988653999753296,545.5701309998985,None,None,1,,,,,,,,,,,,,,206,2023-03-29_15h07.24.792,Main,2022.1.1,60.03907341896883,
positive,blue,1,k,None,,,,,,,,,0,147,147,147,,,,,,,,,,,,,,,,,main,k,k,1,0.9661604000721127,548.0701041999273,None,None,0,,,,,,,,,,,,,,206,2023-03-29_15h07.24.792,Main,2022.1.1,60.03907341896883,
positive,yellow,1,None,k,,,,,,,,,0,148,148,148,,,,,,,,,,,,,,,,,main,None,None,1,1.4989704000763595,550.0338457999751,None,None,1,,,,,,,,,,,,,,206,2023-03-29_15h07.24.792,Main,2022.1.1,60.03907341896883,
negative,red,2,None,None,,,,,,,,,0,149,149,149,,,,,,,,,,,,,,,,,main,None,None,1,1.498995600035414,552.5337524998467,None,None,1,,,,,,,,,,,,,,206,2023-03-29_15h07.24.792,Main,2022.1.1,60.03907341896883,
negative,blue,1,None,k,,,,,,,,,0,150,150,150,,,,,,,,,,,,,,,,,main,None,None,1,1.4972310999874026,555.0337073998526,None,None,1,,,,,,,,,,,,,,206,2023-03-29_15h07.24.792,Main,2022.1.1,60.03907341896883,
negative,yellow,2,k,None,,,,,,,,,0,151,151,151,,,,,,,,,,,,,,,,,main,k,k,1,1.0152217000722885,557.5364469999913,None,None,0,,,,,,,,,,,,,,206,2023-03-29_15h07.24.792,Main,2022.1.1,60.03907341896883,
negative,blue,2,None,k,,,,,,,,,0,152,152,152,,,,,,,,,,,,,,,,,main,None,None,1,1.498056299984455,559.5503642999101,None,None,1,,,,,,,,,,,,,,206,2023-03-29_15h07.24.792,Main,2022.1.1,60.03907341896883,
negative,yellow,1,k,None,,,,,,,,,0,153,153,153,,,,,,,,,,,,,,,,,main,k,k,1,1.1194559999275953,562.049914599862,None,None,0,,,,,,,,,,,,,,206,2023-03-29_15h07.24.792,Main,2022.1.1,60.03907341896883,
negative,blue,1,None,k,,,,,,,,,0,154,154,154,,,,,,,,,,,,,,,,,main,None,None,1,1.4986897001508623,564.1698508998379,None,None,1,,,,,,,,,,,,,,206,2023-03-29_15h07.24.792,Main,2022.1.1,60.03907341896883,
positive,yellow,2,None,k,,,,,,,,,0,155,155,155,,,,,,,,,,,,,,,,,main,None,None,1,1.4975564000196755,566.6697919999715,None,None,1,,,,,,,,,,,,,,206,2023-03-29_15h07.24.792,Main,2022.1.1,60.03907341896883,
positive,red,2,None,None,,,,,,,,,0,156,156,156,,,,,,,,,,,,,,,,,main,None,None,1,1.4968993999063969,569.1664587999694,None,None,1,,,,,,,,,,,,,,206,2023-03-29_15h07.24.792,Main,2022.1.1,60.03907341896883,
positive,red,1,None,None,,,,,,,,,0,157,157,157,,,,,,,,,,,,,,,,,main,None,None,1,1.5024286000989377,571.6696756000165,None,None,1,,,,,,,,,,,,,,206,2023-03-29_15h07.24.792,Main,2022.1.1,60.03907341896883,
positive,blue,2,k,None,,,,,,,,,0,158,158,158,,,,,,,,,,,,,,,,,main,k,k,1,0.9327660999260843,574.1694977998268,None,None,0,,,,,,,,,,,,,,206,2023-03-29_15h07.24.792,Main,2022.1.1,60.03907341896883,
negative,yellow,1,k,None,,,,,,,,,0,159,159,159,,,,,,,,,,,,,,,,,main,k,k,1,1.1320146000944078,576.1028572998475,None,None,0,,,,,,,,,,,,,,206,2023-03-29_15h07.24.792,Main,2022.1.1,60.03907341896883,
negative,red,2,None,None,,,,,,,,,0,160,160,160,,,,,,,,,,,,,,,,,main,None,None,1,1.4989066999405622,578.2331883998122,None,None,1,,,,,,,,,,,,,,206,2023-03-29_15h07.24.792,Main,2022.1.1,60.03907341896883,
negative,blue,1,None,k,,,,,,,,,0,161,161,161,,,,,,,,,,,,,,,,,main,None,None,1,1.4994582999497652,580.735924199922,None,None,1,,,,,,,,,,,,,,206,2023-03-29_15h07.24.792,Main,2022.1.1,60.03907341896883,
negative,blue,1,None,k,,,,,,,,,0,162,162,162,,,,,,,,,,,,,,,,,main,None,None,1,1.4987123999744654,583.2360718999989,None,None,1,,,,,,,,,,,,,,206,2023-03-29_15h07.24.792,Main,2022.1.1,60.03907341896883,
negative,yellow,1,k,None,,,,,,,,,0,163,163,163,,,,,,,,,,,,,,,,,main,k,k,1,1.263503500027582,585.7330523999408,None,None,0,,,,,,,,,,,,,,206,2023-03-29_15h07.24.792,Main,2022.1.1,60.03907341896883,
negative,yellow,1,k,None,,,,,,,,,0,164,164,164,,,,,,,,,,,,,,,,,main,k,k,1,1.015929900109768,587.9996952000074,None,None,0,,,,,,,,,,,,,,206,2023-03-29_15h07.24.792,Main,2022.1.1,60.03907341896883,
positive,yellow,1,None,k,,,,,,,,,0,165,165,165,,,,,,,,,,,,,,,,,main,None,None,1,1.4982447000220418,590.0164659000002,None,None,1,,,,,,,,,,,,,,206,2023-03-29_15h07.24.792,Main,2022.1.1,60.03907341896883,
negative,red,1,None,None,,,,,,,,,0,166,166,166,,,,,,,,,,,,,,,,,main,None,None,1,1.502521299989894,592.5159586998634,None,None,1,,,,,,,,,,,,,,206,2023-03-29_15h07.24.792,Main,2022.1.1,60.03907341896883,
negative,yellow,2,k,None,,,,,,,,,0,167,167,167,,,,,,,,,,,,,,,,,main,k,k,1,1.1327862001489848,595.0191971999593,None,None,0,,,,,,,,,,,,,,206,2023-03-29_15h07.24.792,Main,2022.1.1,60.03907341896883,
positive,blue,2,k,None,,,,,,,,,0,168,168,168,,,,,,,,,,,,,,,,,main,k,k,1,0.963059299858287,597.149590899935,None,None,0,,,,,,,,,,,,,,206,2023-03-29_15h07.24.792,Main,2022.1.1,60.03907341896883,
positive,red,2,None,None,,,,,,,,,0,169,169,169,,,,,,,,,,,,,,,,,main,None,None,1,1.5013532999437302,599.1191982999444,None,None,1,,,,,,,,,,,,,,206,2023-03-29_15h07.24.792,Main,2022.1.1,60.03907341896883,
positive,red,1,None,None,,,,,,,,,0,170,170,170,,,,,,,,,,,,,,,,,main,None,None,1,1.4989428999833763,601.618861899944,None,None,1,,,,,,,,,,,,,,206,2023-03-29_15h07.24.792,Main,2022.1.1,60.03907341896883,
negative,blue,2,None,k,,,,,,,,,0,171,171,171,,,,,,,,,,,,,,,,,main,None,None,1,1.4964346000924706,604.1159869998228,None,None,1,,,,,,,,,,,,,,206,2023-03-29_15h07.24.792,Main,2022.1.1,60.03907341896883,
positive,blue,2,k,None,,,,,,,,,0,172,172,172,,,,,,,,,,,,,,,,,main,k,k,1,0.8159362999722362,606.6163422998507,None,None,0,,,,,,,,,,,,,,206,2023-03-29_15h07.24.792,Main,2022.1.1,60.03907341896883,
negative,yellow,2,k,None,,,,,,,,,0,173,173,173,,,,,,,,,,,,,,,,,main,k,k,1,0.9187342999503016,608.4356084999163,None,None,0,,,,,,,,,,,,,,206,2023-03-29_15h07.24.792,Main,2022.1.1,60.03907341896883,
positive,yellow,2,None,k,,,,,,,,,0,174,174,174,,,,,,,,,,,,,,,,,main,None,None,1,1.4955418000463396,610.3492566999048,None,None,1,,,,,,,,,,,,,,206,2023-03-29_15h07.24.792,Main,2022.1.1,60.03907341896883,
negative,blue,2,None,k,,,,,,,,,0,175,175,175,,,,,,,,,,,,,,,,,main,None,None,1,1.502297499915585,612.8490557000041,None,None,1,,,,,,,,,,,,,,206,2023-03-29_15h07.24.792,Main,2022.1.1,60.03907341896883,
positive,blue,1,k,None,,,,,,,,,0,176,176,176,,,,,,,,,,,,,,,,,main,k,k,1,0.9131693998351693,615.349476599833,None,None,0,,,,,,,,,,,,,,206,2023-03-29_15h07.24.792,Main,2022.1.1,60.03907341896883,
positive,yellow,1,None,k,,,,,,,,,0,177,177,177,,,,,,,,,,,,,,,,,main,None,None,1,1.5015608998946846,617.2658465998247,None,None,1,,,,,,,,,,,,,,206,2023-03-29_15h07.24.792,Main,2022.1.1,60.03907341896883,
positive,blue,1,k,None,,,,,,,,,0,178,178,178,,,,,,,,,,,,,,,,,main,k,k,1,1.429455100093037,619.7685994999483,None,None,0,,,,,,,,,,,,,,206,2023-03-29_15h07.24.792,Main,2022.1.1,60.03907341896883,
positive,yellow,2,None,k,,,,,,,,,0,179,179,179,,,,,,,,,,,,,,,,,main,None,None,1,1.5021971000824124,622.198658999987,None,None,1,,,,,,,,,,,,,,206,2023-03-29_15h07.24.792,Main,2022.1.1,60.03907341896883,
positive,blue,1,k,None,,,,,,,,,0,180,180,180,,,,,,,,,,,,,,,,,main,k,k,1,1.1127315000630915,624.701859299792,None,None,0,,,,,,,,,,,,,,206,2023-03-29_15h07.24.792,Main,2022.1.1,60.03907341896883,
negative,red,1,None,None,,,,,,,,,0,181,181,181,,,,,,,,,,,,,,,,,main,None,None,1,1.5019125000108033,626.8186290999874,None,None,1,,,,,,,,,,,,,,206,2023-03-29_15h07.24.792,Main,2022.1.1,60.03907341896883,
negative,blue,1,None,k,,,,,,,,,0,182,182,182,,,,,,,,,,,,,,,,,main,None,None,1,1.495987700065598,629.3155696999747,None,None,1,,,,,,,,,,,,,,206,2023-03-29_15h07.24.792,Main,2022.1.1,60.03907341896883,
negative,yellow,2,k,None,,,,,,,,,0,183,183,183,,,,,,,,,,,,,,,,,main,k,k,1,1.1510705000255257,631.8153573998716,None,None,0,,,,,,,,,,,,,,206,2023-03-29_15h07.24.792,Main,2022.1.1,60.03907341896883,
positive,yellow,2,None,k,,,,,,,,,0,184,184,184,,,,,,,,,,,,,,,,,main,None,None,1,1.499803900020197,633.9653884000145,None,None,1,,,,,,,,,,,,,,206,2023-03-29_15h07.24.792,Main,2022.1.1,60.03907341896883,
positive,yellow,1,None,k,,,,,,,,,0,185,185,185,,,,,,,,,,,,,,,,,main,None,None,1,1.4968371000140905,636.4681539998855,None,None,1,,,,,,,,,,,,,,206,2023-03-29_15h07.24.792,Main,2022.1.1,60.03907341896883,
positive,red,2,None,None,,,,,,,,,0,186,186,186,,,,,,,,,,,,,,,,,main,None,None,1,1.5015662000514567,638.9681948998477,None,None,1,,,,,,,,,,,,,,206,2023-03-29_15h07.24.792,Main,2022.1.1,60.03907341896883,
positive,blue,1,k,None,,,,,,,,,0,187,187,187,,,,,,,,,,,,,,,,,main,k,k,1,1.0296106000896543,641.4681215998717,None,None,0,,,,,,,,,,,,,,206,2023-03-29_15h07.24.792,Main,2022.1.1,60.03907341896883,
negative,yellow,1,k,None,,,,,,,,,0,188,188,188,,,,,,,,,,,,,,,,,main,k,k,1,0.9996557000558823,643.4982164998073,None,None,0,,,,,,,,,,,,,,206,2023-03-29_15h07.24.792,Main,2022.1.1,60.03907341896883,
positive,yellow,2,None,k,,,,,,,,,0,189,189,189,,,,,,,,,,,,,,,,,main,None,None,1,1.5015735998749733,645.4986721000168,None,None,1,,,,,,,,,,,,,,206,2023-03-29_15h07.24.792,Main,2022.1.1,60.03907341896883,
negative,yellow,2,k,None,,,,,,,,,0,190,190,190,,,,,,,,,,,,,,,,,main,k,k,1,0.9492087999824435,647.9989123998675,None,None,0,,,,,,,,,,,,,,206,2023-03-29_15h07.24.792,Main,2022.1.1,60.03907341896883,
negative,yellow,1,k,None,,,,,,,,,0,191,191,191,,,,,,,,,,,,,,,,,main,k,k,1,0.9628165999893099,649.9514051999431,None,None,0,,,,,,,,,,,,,,206,2023-03-29_15h07.24.792,Main,2022.1.1,60.03907341896883,
positive,blue,2,k,None,,,,,,,,,0,192,192,192,,,,,,,,,,,,,,,,,main,k,k,1,0.982526500010863,651.9149526997935,None,None,0,,,,,,,,,,,,,,206,2023-03-29_15h07.24.792,Main,2022.1.1,60.03907341896883,
positive,yellow,1,None,k,,,,,,,,,0,193,193,193,,,,,,,,,,,,,,,,,main,None,None,1,1.5018662000074983,653.8982563999016,None,None,1,,,,,,,,,,,,,,206,2023-03-29_15h07.24.792,Main,2022.1.1,60.03907341896883,
negative,red,2,None,None,,,,,,,,,0,194,194,194,,,,,,,,,,,,,,,,,main,None,None,1,1.4991724002175033,656.4011472999118,None,None,1,,,,,,,,,,,,,,206,2023-03-29_15h07.24.792,Main,2022.1.1,60.03907341896883,
positive,red,1,None,None,,,,,,,,,0,195,195,195,,,,,,,,,,,,,,,,,main,None,None,1,1.4990224000066519,658.9011879998725,None,None,1,,,,,,,,,,,,,,206,2023-03-29_15h07.24.792,Main,2022.1.1,60.03907341896883,
negative,blue,1,None,k,,,,,,,,,0,196,196,196,,,,,,,,,,,,,,,,,main,None,None,1,1.4958546999841928,661.4010165999644,None,None,1,,,,,,,,,,,,,,206,2023-03-29_15h07.24.792,Main,2022.1.1,60.03907341896883,
positive,blue,2,k,None,,,,,,,,,0,197,197,197,,,,,,,,,,,,,,,,,main,k,k,1,0.8831083001568913,663.8978106998838,None,None,0,,,,,,,,,,,,,,206,2023-03-29_15h07.24.792,Main,2022.1.1,60.03907341896883,
negative,blue,2,None,k,,,,,,,,,0,198,198,198,,,,,,,,,,,,,,,,,main,None,None,1,1.5017788000404835,665.7812304999679,None,None,1,,,,,,,,,,,,,,206,2023-03-29_15h07.24.792,Main,2022.1.1,60.03907341896883,
negative,blue,2,None,k,,,,,,,,,0,199,199,199,,,,,,,,,,,,,,,,,main,None,None,1,1.4990467999596149,668.2843708000146,None,None,1,,,,,,,,,,,,,,206,2023-03-29_15h07.24.792,Main,2022.1.1,60.03907341896883,
positive,blue,2,k,None,,,,,,,,,0,200,200,200,,,,,,,,,,,,,,,,,main,k,k,1,1.0218288998585194,670.78421289986,None,None,0,,,,,,,,,,,,,,206,2023-03-29_15h07.24.792,Main,2022.1.1,60.03907341896883,
positive,blue,2,k,None,,,,,,,,,0,201,201,201,,,,,,,,,,,,,,,,,main,k,k,1,0.8238205998204648,672.811160299927,None,None,0,,,,,,,,,,,,,,206,2023-03-29_15h07.24.792,Main,2022.1.1,60.03907341896883,
negative,yellow,2,k,None,,,,,,,,,0,202,202,202,,,,,,,,,,,,,,,,,main,k,k,1,0.9491950999945402,674.6311070998199,None,None,0,,,,,,,,,,,,,,206,2023-03-29_15h07.24.792,Main,2022.1.1,60.03907341896883,
positive,red,1,None,None,,,,,,,,,0,203,203,203,,,,,,,,,,,,,,,,,main,None,None,1,1.5015610000118613,676.5812680998351,None,None,1,,,,,,,,,,,,,,206,2023-03-29_15h07.24.792,Main,2022.1.1,60.03907341896883,
negative,blue,2,None,k,,,,,,,,,0,204,204,204,,,,,,,,,,,,,,,,,main,None,None,1,1.4992760999593884,679.0845778998919,None,None,1,,,,,,,,,,,,,,206,2023-03-29_15h07.24.792,Main,2022.1.1,60.03907341896883,
negative,red,1,None,None,,,,,,,,,0,205,205,205,,,,,,,,,,,,,,,,,main,None,None,1,1.4956773000303656,681.5840190998279,None,None,1,,,,,,,,,,,,,,206,2023-03-29_15h07.24.792,Main,2022.1.1,60.03907341896883,
negative,blue,2,None,k,,,,,,,,,0,206,206,206,,,,,,,,,,,,,,,,,main,None,None,1,1.5026521999388933,684.08074629982,None,None,1,,,,,,,,,,,,,,206,2023-03-29_15h07.24.792,Main,2022.1.1,60.03907341896883,
negative,yellow,2,k,None,,,,,,,,,0,207,207,207,,,,,,,,,,,,,,,,,main,k,k,1,1.1823777998797596,686.5839974998962,None,None,0,,,,,,,,,,,,,,206,2023-03-29_15h07.24.792,Main,2022.1.1,60.03907341896883,
positive,yellow,2,None,k,,,,,,,,,0,208,208,208,,,,,,,,,,,,,,,,,main,None,None,1,1.495038100052625,688.767155099893,None,None,1,,,,,,,,,,,,,,206,2023-03-29_15h07.24.792,Main,2022.1.1,60.03907341896883,
negative,yellow,1,k,None,,,,,,,,,0,209,209,209,,,,,,,,,,,,,,,,,main,k,k,1,1.1151123000308871,691.2642473999877,None,None,0,,,,,,,,,,,,,,206,2023-03-29_15h07.24.792,Main,2022.1.1,60.03907341896883,
negative,red,2,None,None,,,,,,,,,0,210,210,210,,,,,,,,,,,,,,,,,main,None,None,1,1.4989632999058813,693.380813599797,None,None,1,,,,,,,,,,,,,,206,2023-03-29_15h07.24.792,Main,2022.1.1,60.03907341896883,
negative,blue,1,None,k,,,,,,,,,0,211,211,211,,,,,,,,,,,,,,,,,main,None,None,1,1.5021695999894291,695.880739999935,None,None,1,,,,,,,,,,,,,,206,2023-03-29_15h07.24.792,Main,2022.1.1,60.03907341896883,
negative,yellow,1,k,None,,,,,,,,,0,212,212,212,,,,,,,,,,,,,,,,,main,k,k,1,0.9825609000399709,698.3835907999892,None,None,0,,,,,,,,,,,,,,206,2023-03-29_15h07.24.792,Main,2022.1.1,60.03907341896883,
positive,blue,1,k,None,,,,,,,,,0,213,213,213,,,,,,,,,,,,,,,,,main,k,k,1,1.015913899987936,700.3640142998192,None,None,0,,,,,,,,,,,,,,206,2023-03-29_15h07.24.792,Main,2022.1.1,60.03907341896883,
positive,blue,1,k,None,,,,,,,,,0,214,214,214,,,,,,,,,,,,,,,,,main,k,k,1,0.7789436001330614,702.3807019998785,None,None,0,,,,,,,,,,,,,,206,2023-03-29_15h07.24.792,Main,2022.1.1,60.03907341896883,
positive,yellow,1,None,k,,,,,,,,,0,215,215,215,,,,,,,,,,,,,,,,,main,None,None,1,1.5023082001134753,704.1636107999366,None,None,1,,,,,,,,,,,,,,206,2023-03-29_15h07.24.792,Main,2022.1.1,60.03907341896883,
positive,yellow,1,None,k,,,,,,,,,0,216,216,216,,,,,,,,,,,,,,,,,main,None,None,1,1.499290999956429,706.6639790998306,None,None,1,,,,,,,,,,,,,,206,2023-03-29_15h07.24.792,Main,2022.1.1,60.03907341896883,
positive,yellow,2,None,k,,,,,,,,,0,217,217,217,,,,,,,,,,,,,,,,,main,None,None,1,1.498995800036937,709.1667134999298,None,None,1,,,,,,,,,,,,,,206,2023-03-29_15h07.24.792,Main,2022.1.1,60.03907341896883,
negative,blue,1,None,k,,,,,,,,,0,218,218,218,,,,,,,,,,,,,,,,,main,None,None,1,1.4991389999631792,711.666621199809,None,None,1,,,,,,,,,,,,,,206,2023-03-29_15h07.24.792,Main,2022.1.1,60.03907341896883,
positive,red,2,None,None,,,,,,,,,0,219,219,219,,,,,,,,,,,,,,,,,main,None,None,1,1.4995760000310838,714.1636659000069,None,None,1,,,,,,,,,,,,,,206,2023-03-29_15h07.24.792,Main,2022.1.1,60.03907341896883,
positive,yellow,1,None,k,,,,,,,,,0,220,220,220,,,,,,,,,,,,,,,,,main,None,None,1,1.4990411999169737,716.6665095998906,None,None,1,,,,,,,,,,,,,,206,2023-03-29_15h07.24.792,Main,2022.1.1,60.03907341896883,
positive,blue,1,k,None,,,,,,,,,0,221,221,221,,,,,,,,,,,,,,,,,main,k,k,1,0.8993120000232011,719.1665084999986,None,None,0,,,,,,,,,,,,,,206,2023-03-29_15h07.24.792,Main,2022.1.1,60.03907341896883,
positive,yellow,2,None,k,,,,,,,,,0,222,222,222,,,,,,,,,,,,,,,,,main,None,None,1,1.498690800042823,721.0635934998281,None,None,1,,,,,,,,,,,,,,206,2023-03-29_15h07.24.792,Main,2022.1.1,60.03907341896883,
negative,yellow,1,k,None,,,,,,,,,0,223,223,223,,,,,,,,,,,,,,,,,main,k,k,1,0.8465988000389189,723.5663452998269,None,None,0,,,,,,,,,,,,,,206,2023-03-29_15h07.24.792,Main,2022.1.1,60.03907341896883,
positive,yellow,2,None,k,,,,,,,,,0,224,224,224,,,,,,,,,,,,,,,,,main,None,None,1,1.5021269000135362,725.4131961998064,None,None,1,,,,,,,,,,,,,,206,2023-03-29_15h07.24.792,Main,2022.1.1,60.03907341896883,
negative,yellow,2,k,None,,,,,,,,,0,225,225,225,,,,,,,,,,,,,,,,,main,k,k,1,0.9128457000479102,727.9162841998041,None,None,0,,,,,,,,,,,,,,206,2023-03-29_15h07.24.792,Main,2022.1.1,60.03907341896883,
negative,blue,2,None,k,,,,,,,,,0,226,226,226,,,,,,,,,,,,,,,,,main,None,None,1,1.5019825999625027,729.8301030998118,None,None,1,,,,,,,,,,,,,,206,2023-03-29_15h07.24.792,Main,2022.1.1,60.03907341896883,
positive,red,2,None,None,,,,,,,,,0,227,227,227,,,,,,,,,,,,,,,,,main,None,None,1,1.500148099847138,732.3329391998705,None,None,1,,,,,,,,,,,,,,206,2023-03-29_15h07.24.792,Main,2022.1.1,60.03907341896883,
positive,blue,2,k,None,,,,,,,,,0,228,228,228,,,,,,,,,,,,,,,,,main,k,k,1,1.048792399931699,734.8299155000132,None,None,0,,,,,,,,,,,,,,206,2023-03-29_15h07.24.792,Main,2022.1.1,60.03907341896883,
negative,blue,1,None,k,,,,,,,,,0,229,229,229,,,,,,,,,,,,,,,,,main,None,None,1,1.4989086999557912,736.8828575999942,None,None,1,,,,,,,,,,,,,,206,2023-03-29_15h07.24.792,Main,2022.1.1,60.03907341896883,
positive,yellow,1,None,k,,,,,,,,,0,230,230,230,,,,,,,,,,,,,,,,,main,None,None,1,1.4995967000722885,739.3798791998997,None,None,1,,,,,,,,,,,,,,206,2023-03-29_15h07.24.792,Main,2022.1.1,60.03907341896883,
negative,blue,2,None,k,,,,,,,,,0,231,231,231,,,,,,,,,,,,,,,,,main,None,None,1,1.4979395000264049,741.8829208000097,None,None,1,,,,,,,,,,,,,,206,2023-03-29_15h07.24.792,Main,2022.1.1,60.03907341896883,
negative,red,1,None,None,,,,,,,,,0,232,232,232,,,,,,,,,,,,,,,,,main,None,None,1,1.4995830999687314,744.3794594998471,None,None,1,,,,,,,,,,,,,,206,2023-03-29_15h07.24.792,Main,2022.1.1,60.03907341896883,
positive,blue,2,k,None,,,,,,,,,0,233,233,233,,,,,,,,,,,,,,,,,main,k,k,1,1.1326502000447363,746.8826601000037,None,None,0,,,,,,,,,,,,,,206,2023-03-29_15h07.24.792,Main,2022.1.1,60.03907341896883,
negative,yellow,1,k,None,,,,,,,,,0,234,234,234,,,,,,,,,,,,,,,,,main,k,k,1,1.0325648998841643,749.0158815998584,None,None,0,,,,,,,,,,,,,,206,2023-03-29_15h07.24.792,Main,2022.1.1,60.03907341896883,
negative,yellow,2,k,None,,,,,,,,,0,235,235,235,,,,,,,,,,,,,,,,,main,k,k,1,0.8463828999083489,751.0492300000042,None,None,0,,,,,,,,,,,,,,206,2023-03-29_15h07.24.792,Main,2022.1.1,60.03907341896883,
positive,red,1,None,None,,,,,,,,,0,236,236,236,,,,,,,,,,,,,,,,,main,None,None,1,1.4983882000669837,752.8991000999231,None,None,1,,,,,,,,,,,,,,206,2023-03-29_15h07.24.792,Main,2022.1.1,60.03907341896883,
negative,red,2,None,None,,,,,,,,,0,237,237,237,,,,,,,,,,,,,,,,,main,None,None,1,1.5020961998961866,755.3959348998033,None,None,1,,,,,,,,,,,,,,206,2023-03-29_15h07.24.792,Main,2022.1.1,60.03907341896883,
negative,blue,1,None,k,,,,,,,,,0,238,238,238,,,,,,,,,,,,,,,,,main,None,None,1,1.4992529000155628,757.8989506999496,None,None,1,,,,,,,,,,,,,,206,2023-03-29_15h07.24.792,Main,2022.1.1,60.03907341896883,
positive,blue,1,k,None,,,,,,,,,0,239,239,239,,,,,,,,,,,,,,,,,main,k,k,1,0.8356654001399875,760.3961176997982,None,None,0,,,,,,,,,,,,,,206,2023-03-29_15h07.24.792,Main,2022.1.1,60.03907341896883,
,,,,,,,,,,,,,,,,,,,,,,,,,,,,,,,,,,,,,,,,,,,,,,,,,,,,,762.2365228999406,None,,,,,,
