distractor,target,set,ans1,ans2,rep_loop4.thisRepN,rep_loop4.thisTrialN,rep_loop4.thisN,rep_loop4.thisIndex,st2_prac_loop.thisRepN,st2_prac_loop.thisTrialN,st2_prac_loop.thisN,st2_prac_loop.thisIndex,st2_main_loop.thisRepN,st2_main_loop.thisTrialN,st2_main_loop.thisN,st2_main_loop.thisIndex,image_4.started,image_4.stopped,sound_2.started,sound_2.stopped,key_resp_3.keys,key_resp_3.rt,image_5.started,image_5.stopped,st_prac_back.started,st_prac_back.stopped,st_prac_text.started,st_prac_text.stopped,st_fix_back.started,st_fix_back.stopped,st_fix_2.started,st_fix_2.stopped,main_prac,st_ans,st_res,st_corr,st_rt,st_back.started,st_back.stopped,st2_resp.keys,st2_resp.corr,st_main_back.started,st_main_back.stopped,st_main_text.started,st_main_text.stopped,mouse_4.x,mouse_4.y,mouse_4.leftButton,mouse_4.midButton,mouse_4.rightButton,mouse_4.started,mouse_4.stopped,text_2.started,text_2.stopped,id*,date,expName,psychopyVersion,frameRate,
negative,yellow,1,k,None,,,,,0,0,0,0,,,,,31.129203400108963,None,38.63829536987468,None,space,58.9782370000612,97.64754120004363,None,99.28309360006824,None,99.28309360006824,None,101.28296909993514,None,101.28296909993514,None,prac,None,None,1,1.4937990999314934,103.28037620009854,None,None,1,,,,,,,,,,,,,,207,2023-03-29_17h41.12.821,Main,2022.1.1,58.933075652272336,
positive,red,2,None,None,,,,,0,1,1,1,,,,,,,,,,,,,,,,,,,,,prac,None,None,1,1.4991123999934644,105.78282269998454,None,None,1,,,,,,,,,,,,,,207,2023-03-29_17h41.12.821,Main,2022.1.1,58.933075652272336,
negative,blue,2,None,k,,,,,0,2,2,2,,,,,,,,,,,,,,,,,,,,,prac,k,k,1,7.629496099893004,108.28000569995493,None,None,0,,,,,,,,,,,,,,207,2023-03-29_17h41.12.821,Main,2022.1.1,58.933075652272336,
positive,yellow,1,None,k,,,,,0,3,3,3,,,,,,,,,,,,,,,,,,,,,prac,k,k,1,2.2044810000807047,117.91287010000087,None,None,0,,,,,,,,,,,,,,207,2023-03-29_17h41.12.821,Main,2022.1.1,58.933075652272336,
negative,blue,2,None,k,,,,,0,4,4,4,,,,,,,,,,,,,,,,,,,,,prac,k,k,1,1.0040443998295814,122.11597989988513,None,None,0,,,,,,,,,,,,,,207,2023-03-29_17h41.12.821,Main,2022.1.1,58.933075652272336,
negative,blue,1,None,k,,,,,0,5,5,5,,,,,,,,,,,,,,,,,,,,,prac,k,k,1,1.192799299955368,124.12422159989364,None,None,0,,,,,,,,,,,,,,207,2023-03-29_17h41.12.821,Main,2022.1.1,58.933075652272336,
negative,yellow,2,k,None,,,,,0,6,6,6,,,,,,,,,,,,,,,,,,,,,prac,None,None,1,1.5021689999848604,126.31269009993412,None,None,1,,,,,,,,,,,,,,207,2023-03-29_17h41.12.821,Main,2022.1.1,58.933075652272336,
negative,red,1,None,None,,,,,0,7,7,7,,,,,,,,,,,,,,,,,,,,,prac,None,None,1,1.4962367999833077,128.8157544999849,None,None,1,,,,,,,,,,,,,,207,2023-03-29_17h41.12.821,Main,2022.1.1,58.933075652272336,
positive,yellow,2,None,k,,,,,0,8,8,8,,,,,,,,,,,,,,,,,,,,,prac,k,k,1,0.859619100112468,131.31575819989666,None,None,0,,,,,,,,,,,,,,207,2023-03-29_17h41.12.821,Main,2022.1.1,58.933075652272336,
negative,yellow,1,k,None,,,,,0,9,9,9,,,,,,,,,,,,,,,,,,,,,prac,None,None,1,1.4885235000401735,133.1781393000856,None,None,1,,,,,,,,,,,,,,207,2023-03-29_17h41.12.821,Main,2022.1.1,58.933075652272336,
positive,yellow,2,None,k,,,,,0,10,10,10,,,,,,,,,,,,,,,,,,,,,prac,k,k,1,0.8025597999803722,135.66247999994084,None,None,0,,,,,,,,,,,,,,207,2023-03-29_17h41.12.821,Main,2022.1.1,58.933075652272336,
negative,yellow,2,k,None,,,,,0,11,11,11,,,,,,,,,,,,,,,,,,,,,prac,None,None,1,1.4989083998370916,137.46562939998694,None,None,1,,,,,,,,,,,,,,207,2023-03-29_17h41.12.821,Main,2022.1.1,58.933075652272336,
negative,red,2,None,None,,,,,0,12,12,12,,,,,,,,,,,,,,,,,,,,,prac,None,None,1,1.4990373998880386,139.9655140999239,None,None,1,,,,,,,,,,,,,,207,2023-03-29_17h41.12.821,Main,2022.1.1,58.933075652272336,
positive,red,1,None,None,,,,,0,13,13,13,,,,,,,,,,,,,,,,,,,,,prac,None,None,1,1.4991407999768853,142.46537639992312,None,None,1,,,,,,,,,,,,,,207,2023-03-29_17h41.12.821,Main,2022.1.1,58.933075652272336,
positive,blue,2,k,None,,,,,0,14,14,14,,,,,,,,,,,,,,,,,,,,,prac,None,None,1,1.4993133000098169,144.96258100005798,None,None,1,,,,,,,,,,,,,,207,2023-03-29_17h41.12.821,Main,2022.1.1,58.933075652272336,
positive,blue,1,k,None,,,,,0,15,15,15,,,,,,,,,,,,,,,,,,,,,prac,None,None,1,1.4991689000744373,147.4624856999144,None,None,1,,,,,,,,,,,,,,207,2023-03-29_17h41.12.821,Main,2022.1.1,58.933075652272336,
negative,blue,1,None,k,,,,,0,16,16,16,,,,,,,,,,,,,,,,,,,,,prac,k,k,1,1.299434999935329,149.96242980007082,None,None,0,,,,,,,,,,,,,,207,2023-03-29_17h41.12.821,Main,2022.1.1,58.933075652272336,
positive,blue,2,k,None,,,,,0,17,17,17,,,,,,,,,,,,,,,,,,,,,prac,None,None,1,1.4989375001750886,152.26242589997128,None,None,1,,,,,,,,,,,,,,207,2023-03-29_17h41.12.821,Main,2022.1.1,58.933075652272336,
positive,blue,1,k,None,,,,,0,18,18,18,,,,,,,,,,,,,,,,,,,,,prac,None,None,1,1.4959632998798043,154.76524919993244,None,None,1,,,,,,,,,,,,,,207,2023-03-29_17h41.12.821,Main,2022.1.1,58.933075652272336,
positive,yellow,1,None,k,,,,,0,19,19,19,,,,,,,,,,,,,,,,,,,,,prac,k,k,1,0.9025919998530298,157.26201650011353,None,None,0,,,,,,,,,,,,,,207,2023-03-29_17h41.12.821,Main,2022.1.1,58.933075652272336,
negative,yellow,1,k,None,,,,,1,0,20,0,,,,,,,,,,,,,,,,,,,,,prac,None,None,1,1.4989742001052946,159.16516410000622,None,None,1,,,,,,,,,,,,,,207,2023-03-29_17h41.12.821,Main,2022.1.1,58.933075652272336,
positive,red,2,None,None,,,,,1,1,21,1,,,,,,,,,,,,,,,,,,,,,prac,None,None,1,1.4991357999388129,161.66506160004064,None,None,1,,,,,,,,,,,,,,207,2023-03-29_17h41.12.821,Main,2022.1.1,58.933075652272336,
negative,blue,2,None,k,,,,,1,2,22,2,,,,,,,,,,,,,,,,,,,,,prac,k,k,1,1.179857000010088,164.16510559991002,None,None,0,,,,,,,,,,,,,,207,2023-03-29_17h41.12.821,Main,2022.1.1,58.933075652272336,
positive,yellow,1,None,k,,,,,1,3,23,3,,,,,,,,,,,,,,,,,,,,,prac,k,k,1,0.8491634000092745,166.34540249989368,None,None,0,,,,,,,,,,,,,,207,2023-03-29_17h41.12.821,Main,2022.1.1,58.933075652272336,
negative,blue,2,None,k,,,,,1,4,24,4,,,,,,,,,,,,,,,,,,,,,prac,k,k,1,0.932433299953118,168.19813819997944,None,None,0,,,,,,,,,,,,,,207,2023-03-29_17h41.12.821,Main,2022.1.1,58.933075652272336,
negative,blue,1,None,k,,,,,1,5,25,5,,,,,,,,,,,,,,,,,,,,,prac,k,k,1,0.7991727001499385,170.13162659993395,None,None,0,,,,,,,,,,,,,,207,2023-03-29_17h41.12.821,Main,2022.1.1,58.933075652272336,
negative,yellow,2,k,None,,,,,1,6,26,6,,,,,,,,,,,,,,,,,,,,,prac,None,None,1,1.5018756999634206,171.92866360000335,None,None,1,,,,,,,,,,,,,,207,2023-03-29_17h41.12.821,Main,2022.1.1,58.933075652272336,
negative,red,1,None,None,,,,,1,7,27,7,,,,,,,,,,,,,,,,,,,,,prac,None,None,1,1.4962679999880493,174.43149199988693,None,None,1,,,,,,,,,,,,,,207,2023-03-29_17h41.12.821,Main,2022.1.1,58.933075652272336,
positive,yellow,2,None,k,,,,,1,8,28,8,,,,,,,,,,,,,,,,,,,,,prac,k,k,1,0.8323713999707252,176.9282658000011,None,None,0,,,,,,,,,,,,,,207,2023-03-29_17h41.12.821,Main,2022.1.1,58.933075652272336,
negative,yellow,1,k,None,,,,,1,9,29,9,,,,,,,,,,,,,,,,,,,,,prac,None,None,1,1.4993358999490738,178.7616226999089,None,None,1,,,,,,,,,,,,,,207,2023-03-29_17h41.12.821,Main,2022.1.1,58.933075652272336,
positive,yellow,2,None,k,,,,,1,10,30,10,,,,,,,,,,,,,,,,,,,,,prac,k,k,1,1.3188771000131965,181.26476479996927,None,None,0,,,,,,,,,,,,,,207,2023-03-29_17h41.12.821,Main,2022.1.1,58.933075652272336,
negative,yellow,2,k,None,,,,,1,11,31,11,,,,,,,,,,,,,,,,,,,,,prac,None,None,1,1.4986723000183702,183.5814114001114,None,None,1,,,,,,,,,,,,,,207,2023-03-29_17h41.12.821,Main,2022.1.1,58.933075652272336,
negative,red,2,None,None,,,,,1,12,32,12,,,,,,,,,,,,,,,,,,,,,prac,None,None,1,1.4965468000154942,186.0811371000018,None,None,1,,,,,,,,,,,,,,207,2023-03-29_17h41.12.821,Main,2022.1.1,58.933075652272336,
positive,red,1,None,None,,,,,1,13,33,13,,,,,,,,,,,,,,,,,,,,,prac,None,None,1,1.501691599842161,188.5811515999958,None,None,1,,,,,,,,,,,,,,207,2023-03-29_17h41.12.821,Main,2022.1.1,58.933075652272336,
positive,blue,2,k,None,,,,,1,14,34,14,,,,,,,,,,,,,,,,,,,,,prac,None,None,1,1.4992796001024544,191.0810459998902,None,None,1,,,,,,,,,,,,,,207,2023-03-29_17h41.12.821,Main,2022.1.1,58.933075652272336,
positive,blue,1,k,None,,,,,1,15,35,15,,,,,,,,,,,,,,,,,,,,,prac,None,None,1,1.4963169998954982,193.578218099894,None,None,1,,,,,,,,,,,,,,207,2023-03-29_17h41.12.821,Main,2022.1.1,58.933075652272336,
negative,blue,1,None,k,,,,,1,16,36,16,,,,,,,,,,,,,,,,,,,,,prac,k,k,1,1.4251330001279712,196.07817659992725,None,None,0,,,,,,,,,,,,,,207,2023-03-29_17h41.12.821,Main,2022.1.1,58.933075652272336,
positive,blue,2,k,None,,,,,1,17,37,17,,,,,,,,,,,,,,,,,,,,,prac,None,None,1,1.4926853999495506,198.50896029989235,None,None,1,,,,,,,,,,,,,,207,2023-03-29_17h41.12.821,Main,2022.1.1,58.933075652272336,
positive,blue,1,k,None,,,,,1,18,38,18,,,,,,,,,,,,,,,,,,,,,prac,None,None,1,1.4992309999652207,200.99761350010522,None,None,1,,,,,,,,,,,,,,207,2023-03-29_17h41.12.821,Main,2022.1.1,58.933075652272336,
positive,yellow,1,None,k,,,,,1,19,39,19,,,,,,,,,,,,,,,,,,,,,prac,k,k,1,0.8159410001244396,203.4947353999596,None,None,0,,,,,,,,,,,,,,207,2023-03-29_17h41.12.821,Main,2022.1.1,58.933075652272336,
,,,,,,,,,,,,,,,,,,,,,,,,,,,,,,,,,,,,,,,,,,205.3141922999639,None,205.3141922999639,None,0.05277778,0.019444445,0,0,0,0.01404526992700994,None,,,207,2023-03-29_17h41.12.821,Main,2022.1.1,58.933075652272336,
negative,yellow,2,k,None,,,,,,,,,0,0,0,0,,,,,,,,,,,,,228.81373910000548,None,228.81373910000548,None,main,None,None,1,1.5019254998769611,230.83378469990566,None,None,1,,,,,,,,,,,,,,207,2023-03-29_17h41.12.821,Main,2022.1.1,58.933075652272336,
positive,red,1,None,None,,,,,,,,,0,1,1,1,,,,,,,,,,,,,,,,,main,None,None,1,1.4986171000637114,233.34696039999835,None,None,1,,,,,,,,,,,,,,207,2023-03-29_17h41.12.821,Main,2022.1.1,58.933075652272336,
positive,blue,2,k,None,,,,,,,,,0,2,2,2,,,,,,,,,,,,,,,,,main,None,None,1,1.4992855000309646,235.8439501998946,None,None,1,,,,,,,,,,,,,,207,2023-03-29_17h41.12.821,Main,2022.1.1,58.933075652272336,
positive,blue,1,k,None,,,,,,,,,0,3,3,3,,,,,,,,,,,,,,,,,main,None,None,1,1.5019741000141948,238.3439664999023,None,None,1,,,,,,,,,,,,,,207,2023-03-29_17h41.12.821,Main,2022.1.1,58.933075652272336,
negative,yellow,2,k,None,,,,,,,,,0,4,4,4,,,,,,,,,,,,,,,,,main,None,None,1,1.4989020999055356,240.8438931000419,None,None,1,,,,,,,,,,,,,,207,2023-03-29_17h41.12.821,Main,2022.1.1,58.933075652272336,
positive,yellow,2,None,k,,,,,,,,,0,5,5,5,,,,,,,,,,,,,,,,,main,k,k,1,0.7467567999847233,243.3466898999177,None,None,0,,,,,,,,,,,,,,207,2023-03-29_17h41.12.821,Main,2022.1.1,58.933075652272336,
negative,blue,2,None,k,,,,,,,,,0,6,6,6,,,,,,,,,,,,,,,,,main,k,k,1,0.7854570001363754,245.09384769992903,None,None,0,,,,,,,,,,,,,,207,2023-03-29_17h41.12.821,Main,2022.1.1,58.933075652272336,
positive,red,2,None,None,,,,,,,,,0,7,7,7,,,,,,,,,,,,,,,,,main,None,None,1,1.4956710999831557,246.88006230001338,None,None,1,,,,,,,,,,,,,,207,2023-03-29_17h41.12.821,Main,2022.1.1,58.933075652272336,
positive,yellow,1,None,k,,,,,,,,,0,8,8,8,,,,,,,,,,,,,,,,,main,k,k,1,0.783106500050053,249.3767615999095,None,None,0,,,,,,,,,,,,,,207,2023-03-29_17h41.12.821,Main,2022.1.1,58.933075652272336,
negative,red,1,None,None,,,,,,,,,0,9,9,9,,,,,,,,,,,,,,,,,main,None,None,1,1.5018023999873549,251.16011369996704,None,None,1,,,,,,,,,,,,,,207,2023-03-29_17h41.12.821,Main,2022.1.1,58.933075652272336,
positive,yellow,1,None,k,,,,,,,,,0,10,10,10,,,,,,,,,,,,,,,,,main,k,k,1,0.8662151000462472,253.66317979991436,None,None,0,,,,,,,,,,,,,,207,2023-03-29_17h41.12.821,Main,2022.1.1,58.933075652272336,
negative,yellow,1,k,None,,,,,,,,,0,11,11,11,,,,,,,,,,,,,,,,,main,None,None,1,1.4958576997742057,255.52989019989036,None,None,1,,,,,,,,,,,,,,207,2023-03-29_17h41.12.821,Main,2022.1.1,58.933075652272336,
negative,yellow,1,k,None,,,,,,,,,0,12,12,12,,,,,,,,,,,,,,,,,main,None,None,1,1.5018804999999702,258.0268335000146,None,None,1,,,,,,,,,,,,,,207,2023-03-29_17h41.12.821,Main,2022.1.1,58.933075652272336,
negative,red,2,None,None,,,,,,,,,0,13,13,13,,,,,,,,,,,,,,,,,main,None,None,1,1.499169599963352,260.5296060000546,None,None,1,,,,,,,,,,,,,,207,2023-03-29_17h41.12.821,Main,2022.1.1,58.933075652272336,
positive,yellow,2,None,k,,,,,,,,,0,14,14,14,,,,,,,,,,,,,,,,,main,k,k,1,0.7326666000299156,263.02678629988804,None,None,0,,,,,,,,,,,,,,207,2023-03-29_17h41.12.821,Main,2022.1.1,58.933075652272336,
positive,blue,1,k,None,,,,,,,,,0,15,15,15,,,,,,,,,,,,,,,,,main,None,None,1,1.4991168000269681,264.760185000021,None,None,1,,,,,,,,,,,,,,207,2023-03-29_17h41.12.821,Main,2022.1.1,58.933075652272336,
negative,blue,1,None,k,,,,,,,,,0,16,16,16,,,,,,,,,,,,,,,,,main,k,k,1,0.9959267000667751,267.260070099961,None,None,0,,,,,,,,,,,,,,207,2023-03-29_17h41.12.821,Main,2022.1.1,58.933075652272336,
positive,blue,2,k,None,,,,,,,,,0,17,17,17,,,,,,,,,,,,,,,,,main,None,None,1,1.499139699852094,269.2596793998964,None,None,1,,,,,,,,,,,,,,207,2023-03-29_17h41.12.821,Main,2022.1.1,58.933075652272336,
negative,blue,2,None,k,,,,,,,,,0,18,18,18,,,,,,,,,,,,,,,,,main,k,k,1,0.8691311001311988,271.75968890008517,None,None,0,,,,,,,,,,,,,,207,2023-03-29_17h41.12.821,Main,2022.1.1,58.933075652272336,
negative,blue,1,None,k,,,,,,,,,0,19,19,19,,,,,,,,,,,,,,,,,main,k,k,1,0.7326782001182437,273.6294627999887,None,None,0,,,,,,,,,,,,,,207,2023-03-29_17h41.12.821,Main,2022.1.1,58.933075652272336,
negative,blue,1,None,k,,,,,,,,,0,20,20,20,,,,,,,,,,,,,,,,,main,k,k,1,0.6325324999634176,275.3628642000258,None,None,0,,,,,,,,,,,,,,207,2023-03-29_17h41.12.821,Main,2022.1.1,58.933075652272336,
negative,blue,2,None,k,,,,,,,,,0,21,21,21,,,,,,,,,,,,,,,,,main,k,k,1,0.615589200053364,276.9960880000144,None,None,0,,,,,,,,,,,,,,207,2023-03-29_17h41.12.821,Main,2022.1.1,58.933075652272336,
negative,red,1,None,None,,,,,,,,,0,22,22,22,,,,,,,,,,,,,,,,,main,None,None,1,1.4989360999315977,278.60974820004776,None,None,1,,,,,,,,,,,,,,207,2023-03-29_17h41.12.821,Main,2022.1.1,58.933075652272336,
positive,red,2,None,None,,,,,,,,,0,23,23,23,,,,,,,,,,,,,,,,,main,None,None,1,1.4991419001016766,281.1096983999014,None,None,1,,,,,,,,,,,,,,207,2023-03-29_17h41.12.821,Main,2022.1.1,58.933075652272336,
negative,red,2,None,None,,,,,,,,,0,24,24,24,,,,,,,,,,,,,,,,,main,None,None,1,1.4993045998271555,283.6125300999265,None,None,1,,,,,,,,,,,,,,207,2023-03-29_17h41.12.821,Main,2022.1.1,58.933075652272336,
positive,blue,2,k,None,,,,,,,,,0,25,25,25,,,,,,,,,,,,,,,,,main,None,None,1,1.4991762000136077,286.10971769993193,None,None,1,,,,,,,,,,,,,,207,2023-03-29_17h41.12.821,Main,2022.1.1,58.933075652272336,
negative,yellow,1,k,None,,,,,,,,,0,26,26,26,,,,,,,,,,,,,,,,,main,None,None,1,1.4991972998250276,288.6125525999814,None,None,1,,,,,,,,,,,,,,207,2023-03-29_17h41.12.821,Main,2022.1.1,58.933075652272336,
positive,blue,2,k,None,,,,,,,,,0,27,27,27,,,,,,,,,,,,,,,,,main,None,None,1,1.4960330999456346,291.1124136999715,None,None,1,,,,,,,,,,,,,,207,2023-03-29_17h41.12.821,Main,2022.1.1,58.933075652272336,
negative,blue,2,None,k,,,,,,,,,0,28,28,28,,,,,,,,,,,,,,,,,main,k,k,1,0.885784300044179,293.6092507999856,None,None,0,,,,,,,,,,,,,,207,2023-03-29_17h41.12.821,Main,2022.1.1,58.933075652272336,
positive,red,1,None,None,,,,,,,,,0,29,29,29,,,,,,,,,,,,,,,,,main,None,None,1,1.4990382001269609,295.49573369999416,None,None,1,,,,,,,,,,,,,,207,2023-03-29_17h41.12.821,Main,2022.1.1,58.933075652272336,
positive,blue,1,k,None,,,,,,,,,0,30,30,30,,,,,,,,,,,,,,,,,main,None,None,1,1.503739200066775,297.99567499989644,None,None,1,,,,,,,,,,,,,,207,2023-03-29_17h41.12.821,Main,2022.1.1,58.933075652272336,
positive,yellow,1,None,k,,,,,,,,,0,31,31,31,,,,,,,,,,,,,,,,,main,k,k,1,0.7920663999393582,300.4980766000226,None,None,0,,,,,,,,,,,,,,207,2023-03-29_17h41.12.821,Main,2022.1.1,58.933075652272336,
negative,yellow,2,k,None,,,,,,,,,0,32,32,32,,,,,,,,,,,,,,,,,main,None,None,1,1.5018108999356627,302.2925664000213,None,None,1,,,,,,,,,,,,,,207,2023-03-29_17h41.12.821,Main,2022.1.1,58.933075652272336,
negative,blue,1,None,k,,,,,,,,,0,33,33,33,,,,,,,,,,,,,,,,,main,k,k,1,0.8473966999445111,304.7925629999954,None,None,0,,,,,,,,,,,,,,207,2023-03-29_17h41.12.821,Main,2022.1.1,58.933075652272336,
positive,blue,1,k,None,,,,,,,,,0,34,34,34,,,,,,,,,,,,,,,,,main,None,None,1,1.5017414998728782,306.64254979998805,None,None,1,,,,,,,,,,,,,,207,2023-03-29_17h41.12.821,Main,2022.1.1,58.933075652272336,
negative,yellow,1,k,None,,,,,,,,,0,35,35,35,,,,,,,,,,,,,,,,,main,None,None,1,1.4989710000809282,309.1453211000189,None,None,1,,,,,,,,,,,,,,207,2023-03-29_17h41.12.821,Main,2022.1.1,58.933075652272336,
positive,yellow,2,None,k,,,,,,,,,0,36,36,36,,,,,,,,,,,,,,,,,main,k,k,1,0.5791798001155257,311.6453368999064,None,None,0,,,,,,,,,,,,,,207,2023-03-29_17h41.12.821,Main,2022.1.1,58.933075652272336,
positive,yellow,2,None,k,,,,,,,,,0,37,37,37,,,,,,,,,,,,,,,,,main,k,k,1,0.7822112001013011,313.22577170003206,None,None,0,,,,,,,,,,,,,,207,2023-03-29_17h41.12.821,Main,2022.1.1,58.933075652272336,
negative,yellow,2,k,None,,,,,,,,,0,38,38,38,,,,,,,,,,,,,,,,,main,None,None,1,1.4994062997866422,315.0087452000007,None,None,1,,,,,,,,,,,,,,207,2023-03-29_17h41.12.821,Main,2022.1.1,58.933075652272336,
positive,yellow,1,None,k,,,,,,,,,0,39,39,39,,,,,,,,,,,,,,,,,main,k,k,1,0.6356899000238627,317.5118931999896,None,None,0,,,,,,,,,,,,,,207,2023-03-29_17h41.12.821,Main,2022.1.1,58.933075652272336,
negative,yellow,2,k,None,,,,,,,,,0,40,40,40,,,,,,,,,,,,,,,,,main,None,None,1,1.4989539999514818,319.14235519990325,None,None,1,,,,,,,,,,,,,,207,2023-03-29_17h41.12.821,Main,2022.1.1,58.933075652272336,
positive,blue,2,k,None,,,,,,,,,0,41,41,41,,,,,,,,,,,,,,,,,main,None,None,1,1.4989652999211103,321.6452639999334,None,None,1,,,,,,,,,,,,,,207,2023-03-29_17h41.12.821,Main,2022.1.1,58.933075652272336,
positive,blue,2,k,None,,,,,,,,,0,42,42,42,,,,,,,,,,,,,,,,,main,None,None,1,1.4991576001048088,324.1449973001145,None,None,1,,,,,,,,,,,,,,207,2023-03-29_17h41.12.821,Main,2022.1.1,58.933075652272336,
negative,blue,2,None,k,,,,,,,,,0,43,43,43,,,,,,,,,,,,,,,,,main,k,k,1,0.8660407999996096,326.642105899984,None,None,0,,,,,,,,,,,,,,207,2023-03-29_17h41.12.821,Main,2022.1.1,58.933075652272336,
negative,red,1,None,None,,,,,,,,,0,44,44,44,,,,,,,,,,,,,,,,,main,None,None,1,1.499155499972403,328.5115728999954,None,None,1,,,,,,,,,,,,,,207,2023-03-29_17h41.12.821,Main,2022.1.1,58.933075652272336,
negative,yellow,1,k,None,,,,,,,,,0,45,45,45,,,,,,,,,,,,,,,,,main,None,None,1,1.499169899849221,331.011601800099,None,None,1,,,,,,,,,,,,,,207,2023-03-29_17h41.12.821,Main,2022.1.1,58.933075652272336,
negative,yellow,1,k,None,,,,,,,,,0,46,46,46,,,,,,,,,,,,,,,,,main,None,None,1,1.4966939999721944,333.5114829998929,None,None,1,,,,,,,,,,,,,,207,2023-03-29_17h41.12.821,Main,2022.1.1,58.933075652272336,
positive,red,1,None,None,,,,,,,,,0,47,47,47,,,,,,,,,,,,,,,,,main,None,None,1,1.4985185998957604,336.00866360007785,None,None,1,,,,,,,,,,,,,,207,2023-03-29_17h41.12.821,Main,2022.1.1,58.933075652272336,
positive,yellow,1,None,k,,,,,,,,,0,48,48,48,,,,,,,,,,,,,,,,,main,k,k,1,0.7191979000344872,338.5083202000242,None,None,0,,,,,,,,,,,,,,207,2023-03-29_17h41.12.821,Main,2022.1.1,58.933075652272336,
negative,blue,1,None,k,,,,,,,,,0,49,49,49,,,,,,,,,,,,,,,,,main,k,k,1,1.09914409997873,340.2252881999593,None,None,0,,,,,,,,,,,,,,207,2023-03-29_17h41.12.821,Main,2022.1.1,58.933075652272336,
positive,yellow,2,None,k,,,,,,,,,0,50,50,50,,,,,,,,,,,,,,,,,main,k,k,1,0.6631932000163943,342.32854999997653,None,None,0,,,,,,,,,,,,,,207,2023-03-29_17h41.12.821,Main,2022.1.1,58.933075652272336,
negative,blue,1,None,k,,,,,,,,,0,51,51,51,,,,,,,,,,,,,,,,,main,k,k,1,0.5686068998184055,343.9947929000482,None,None,0,,,,,,,,,,,,,,207,2023-03-29_17h41.12.821,Main,2022.1.1,58.933075652272336,
positive,red,2,None,None,,,,,,,,,0,52,52,52,,,,,,,,,,,,,,,,,main,None,None,1,1.498806199990213,345.55836130003445,None,None,1,,,,,,,,,,,,,,207,2023-03-29_17h41.12.821,Main,2022.1.1,58.933075652272336,
positive,yellow,2,None,k,,,,,,,,,0,53,53,53,,,,,,,,,,,,,,,,,main,k,k,1,0.7298680001404136,348.0583337000571,None,None,0,,,,,,,,,,,,,,207,2023-03-29_17h41.12.821,Main,2022.1.1,58.933075652272336,
negative,red,2,None,None,,,,,,,,,0,54,54,54,,,,,,,,,,,,,,,,,main,None,None,1,1.501581999938935,349.7945242000278,None,None,1,,,,,,,,,,,,,,207,2023-03-29_17h41.12.821,Main,2022.1.1,58.933075652272336,
positive,yellow,1,None,k,,,,,,,,,0,55,55,55,,,,,,,,,,,,,,,,,main,k,k,1,0.6298537999391556,352.2916017998941,None,None,0,,,,,,,,,,,,,,207,2023-03-29_17h41.12.821,Main,2022.1.1,58.933075652272336,
negative,blue,2,None,k,,,,,,,,,0,56,56,56,,,,,,,,,,,,,,,,,main,k,k,1,0.9993203000631183,353.92491489998065,None,None,0,,,,,,,,,,,,,,207,2023-03-29_17h41.12.821,Main,2022.1.1,58.933075652272336,
positive,blue,1,k,None,,,,,,,,,0,57,57,57,,,,,,,,,,,,,,,,,main,None,None,1,1.4895788000430912,355.9279014999047,None,None,1,,,,,,,,,,,,,,207,2023-03-29_17h41.12.821,Main,2022.1.1,58.933075652272336,
positive,blue,1,k,None,,,,,,,,,0,58,58,58,,,,,,,,,,,,,,,,,main,None,None,1,1.4915265999734402,358.40788029995747,None,None,1,,,,,,,,,,,,,,207,2023-03-29_17h41.12.821,Main,2022.1.1,58.933075652272336,
negative,yellow,2,k,None,,,,,,,,,0,59,59,59,,,,,,,,,,,,,,,,,main,None,None,1,1.5024774000048637,360.9078512999695,None,None,1,,,,,,,,,,,,,,207,2023-03-29_17h41.12.821,Main,2022.1.1,58.933075652272336,
positive,red,2,None,None,,,,,,,,,0,60,60,60,,,,,,,,,,,,,,,,,main,None,None,1,1.4989800001494586,363.41092119994573,None,None,1,,,,,,,,,,,,,,207,2023-03-29_17h41.12.821,Main,2022.1.1,58.933075652272336,
negative,yellow,1,k,None,,,,,,,,,0,61,61,61,,,,,,,,,,,,,,,,,main,None,None,1,1.4959360000211746,365.9109738001134,None,None,1,,,,,,,,,,,,,,207,2023-03-29_17h41.12.821,Main,2022.1.1,58.933075652272336,
negative,red,1,None,None,,,,,,,,,0,62,62,62,,,,,,,,,,,,,,,,,main,None,None,1,1.5024326001293957,368.40763040003367,None,None,1,,,,,,,,,,,,,,207,2023-03-29_17h41.12.821,Main,2022.1.1,58.933075652272336,
negative,blue,1,None,k,,,,,,,,,0,63,63,63,,,,,,,,,,,,,,,,,main,k,k,1,0.7827478998806328,370.9108525000047,None,None,0,,,,,,,,,,,,,,207,2023-03-29_17h41.12.821,Main,2022.1.1,58.933075652272336,
positive,blue,2,k,None,,,,,,,,,0,64,64,64,,,,,,,,,,,,,,,,,main,None,None,1,1.4954631000291556,372.69408680009656,None,None,1,,,,,,,,,,,,,,207,2023-03-29_17h41.12.821,Main,2022.1.1,58.933075652272336,
negative,yellow,2,k,None,,,,,,,,,0,65,65,65,,,,,,,,,,,,,,,,,main,None,None,1,1.5006699999794364,375.1912000000011,None,None,1,,,,,,,,,,,,,,207,2023-03-29_17h41.12.821,Main,2022.1.1,58.933075652272336,
positive,yellow,2,None,k,,,,,,,,,0,66,66,66,,,,,,,,,,,,,,,,,main,k,k,1,0.6959679999854416,377.6938686000649,None,None,0,,,,,,,,,,,,,,207,2023-03-29_17h41.12.821,Main,2022.1.1,58.933075652272336,
positive,yellow,2,None,k,,,,,,,,,0,67,67,67,,,,,,,,,,,,,,,,,main,k,k,1,0.6186176999472082,379.39100129995495,None,None,0,,,,,,,,,,,,,,207,2023-03-29_17h41.12.821,Main,2022.1.1,58.933075652272336,
positive,red,1,None,None,,,,,,,,,0,68,68,68,,,,,,,,,,,,,,,,,main,None,None,1,1.498981500044465,381.0104618000332,None,None,1,,,,,,,,,,,,,,207,2023-03-29_17h41.12.821,Main,2022.1.1,58.933075652272336,
positive,yellow,1,None,k,,,,,,,,,0,69,69,69,,,,,,,,,,,,,,,,,main,k,k,1,0.6131416000425816,383.50763279991224,None,None,0,,,,,,,,,,,,,,207,2023-03-29_17h41.12.821,Main,2022.1.1,58.933075652272336,
negative,yellow,2,k,None,,,,,,,,,0,70,70,70,,,,,,,,,,,,,,,,,main,None,None,1,1.4989856998436153,385.12426039995626,None,None,1,,,,,,,,,,,,,,207,2023-03-29_17h41.12.821,Main,2022.1.1,58.933075652272336,
positive,yellow,1,None,k,,,,,,,,,0,71,71,71,,,,,,,,,,,,,,,,,main,k,k,1,0.6221298000309616,387.62713379994966,None,None,0,,,,,,,,,,,,,,207,2023-03-29_17h41.12.821,Main,2022.1.1,58.933075652272336,
negative,blue,1,None,k,,,,,,,,,0,72,72,72,,,,,,,,,,,,,,,,,main,k,k,1,0.8595433998852968,389.25163060007617,None,None,0,,,,,,,,,,,,,,207,2023-03-29_17h41.12.821,Main,2022.1.1,58.933075652272336,
negative,red,2,None,None,,,,,,,,,0,73,73,73,,,,,,,,,,,,,,,,,main,None,None,1,1.5022996000479907,391.107161300024,None,None,1,,,,,,,,,,,,,,207,2023-03-29_17h41.12.821,Main,2022.1.1,58.933075652272336,
positive,blue,2,k,None,,,,,,,,,0,74,74,74,,,,,,,,,,,,,,,,,main,None,None,1,1.4991764000151306,393.61038290010765,None,None,1,,,,,,,,,,,,,,207,2023-03-29_17h41.12.821,Main,2022.1.1,58.933075652272336,
negative,blue,2,None,k,,,,,,,,,0,75,75,75,,,,,,,,,,,,,,,,,main,k,k,1,0.7675011998508126,396.1103656999767,None,None,0,,,,,,,,,,,,,,207,2023-03-29_17h41.12.821,Main,2022.1.1,58.933075652272336,
negative,blue,2,None,k,,,,,,,,,0,76,76,76,,,,,,,,,,,,,,,,,main,k,k,1,0.7454887998756021,397.8770981999114,None,None,0,,,,,,,,,,,,,,207,2023-03-29_17h41.12.821,Main,2022.1.1,58.933075652272336,
negative,yellow,1,k,None,,,,,,,,,0,77,77,77,,,,,,,,,,,,,,,,,main,None,None,1,1.5008314999286085,399.6239132999908,None,None,1,,,,,,,,,,,,,,207,2023-03-29_17h41.12.821,Main,2022.1.1,58.933075652272336,
positive,blue,1,k,None,,,,,,,,,0,78,78,78,,,,,,,,,,,,,,,,,main,None,None,1,1.4992347999941558,402.12386590009555,None,None,1,,,,,,,,,,,,,,207,2023-03-29_17h41.12.821,Main,2022.1.1,58.933075652272336,
positive,blue,1,k,None,,,,,,,,,0,79,79,79,,,,,,,,,,,,,,,,,main,None,None,1,1.4991673999466002,404.62673210003413,None,None,1,,,,,,,,,,,,,,207,2023-03-29_17h41.12.821,Main,2022.1.1,58.933075652272336,
positive,red,2,None,None,,,,,,,,,0,80,80,80,,,,,,,,,,,,,,,,,main,None,None,1,1.4992714999243617,407.126639300026,None,None,1,,,,,,,,,,,,,,207,2023-03-29_17h41.12.821,Main,2022.1.1,58.933075652272336,
positive,yellow,2,None,k,,,,,,,,,0,81,81,81,,,,,,,,,,,,,,,,,main,k,k,1,0.6133181001059711,409.62656249990687,None,None,0,,,,,,,,,,,,,,207,2023-03-29_17h41.12.821,Main,2022.1.1,58.933075652272336,
positive,blue,1,k,None,,,,,,,,,0,82,82,82,,,,,,,,,,,,,,,,,main,None,None,1,1.498030599905178,411.2432430998888,None,None,1,,,,,,,,,,,,,,207,2023-03-29_17h41.12.821,Main,2022.1.1,58.933075652272336,
negative,yellow,2,k,None,,,,,,,,,0,83,83,83,,,,,,,,,,,,,,,,,main,None,None,1,1.50220420002006,413.74011370004155,None,None,1,,,,,,,,,,,,,,207,2023-03-29_17h41.12.821,Main,2022.1.1,58.933075652272336,
positive,blue,2,k,None,,,,,,,,,0,84,84,84,,,,,,,,,,,,,,,,,main,None,None,1,1.498212199890986,416.24316329997964,None,None,1,,,,,,,,,,,,,,207,2023-03-29_17h41.12.821,Main,2022.1.1,58.933075652272336,
positive,yellow,1,None,k,,,,,,,,,0,85,85,85,,,,,,,,,,,,,,,,,main,k,k,1,0.5985719000454992,418.74306960008107,None,None,0,,,,,,,,,,,,,,207,2023-03-29_17h41.12.821,Main,2022.1.1,58.933075652272336,
positive,blue,2,k,None,,,,,,,,,0,86,86,86,,,,,,,,,,,,,,,,,main,None,None,1,1.4961135000921786,420.34307070006616,None,None,1,,,,,,,,,,,,,,207,2023-03-29_17h41.12.821,Main,2022.1.1,58.933075652272336,
positive,blue,1,k,None,,,,,,,,,0,87,87,87,,,,,,,,,,,,,,,,,main,None,None,1,1.5034580999054015,422.84292580001056,None,None,1,,,,,,,,,,,,,,207,2023-03-29_17h41.12.821,Main,2022.1.1,58.933075652272336,
negative,yellow,2,k,None,,,,,,,,,0,88,88,88,,,,,,,,,,,,,,,,,main,None,None,1,1.4983196000102907,425.34289989992976,None,None,1,,,,,,,,,,,,,,207,2023-03-29_17h41.12.821,Main,2022.1.1,58.933075652272336,
negative,blue,2,None,k,,,,,,,,,0,89,89,89,,,,,,,,,,,,,,,,,main,k,k,1,1.0821688000578433,427.8428807000164,None,None,0,,,,,,,,,,,,,,207,2023-03-29_17h41.12.821,Main,2022.1.1,58.933075652272336,
positive,yellow,2,None,k,,,,,,,,,0,90,90,90,,,,,,,,,,,,,,,,,main,k,k,1,0.9001110999379307,429.92628769995645,None,None,0,,,,,,,,,,,,,,207,2023-03-29_17h41.12.821,Main,2022.1.1,58.933075652272336,
negative,yellow,1,k,None,,,,,,,,,0,91,91,91,,,,,,,,,,,,,,,,,main,None,None,1,1.4955782000906765,431.826235699933,None,None,1,,,,,,,,,,,,,,207,2023-03-29_17h41.12.821,Main,2022.1.1,58.933075652272336,
negative,red,2,None,None,,,,,,,,,0,92,92,92,,,,,,,,,,,,,,,,,main,None,None,1,1.5024015998933464,434.3229596999008,None,None,1,,,,,,,,,,,,,,207,2023-03-29_17h41.12.821,Main,2022.1.1,58.933075652272336,
negative,blue,2,None,k,,,,,,,,,0,93,93,93,,,,,,,,,,,,,,,,,main,k,k,1,0.6987000000663102,436.82604729989544,None,None,0,,,,,,,,,,,,,,207,2023-03-29_17h41.12.821,Main,2022.1.1,58.933075652272336,
negative,blue,1,None,k,,,,,,,,,0,94,94,94,,,,,,,,,,,,,,,,,main,k,k,1,0.6659138000104576,438.52618009992875,None,None,0,,,,,,,,,,,,,,207,2023-03-29_17h41.12.821,Main,2022.1.1,58.933075652272336,
negative,blue,1,None,k,,,,,,,,,0,95,95,95,,,,,,,,,,,,,,,,,main,k,k,1,0.7157876999117434,440.1898546998855,None,None,0,,,,,,,,,,,,,,207,2023-03-29_17h41.12.821,Main,2022.1.1,58.933075652272336,
negative,red,1,None,None,,,,,,,,,0,96,96,96,,,,,,,,,,,,,,,,,main,None,None,1,1.4987123000901192,441.9094299999997,None,None,1,,,,,,,,,,,,,,207,2023-03-29_17h41.12.821,Main,2022.1.1,58.933075652272336,
positive,yellow,1,None,k,,,,,,,,,0,97,97,97,,,,,,,,,,,,,,,,,main,k,k,1,0.8661631001159549,444.406341599999,None,None,0,,,,,,,,,,,,,,207,2023-03-29_17h41.12.821,Main,2022.1.1,58.933075652272336,
negative,yellow,1,k,None,,,,,,,,,0,98,98,98,,,,,,,,,,,,,,,,,main,None,None,1,1.4989513999316841,446.2759938999079,None,None,1,,,,,,,,,,,,,,207,2023-03-29_17h41.12.821,Main,2022.1.1,58.933075652272336,
positive,red,1,None,None,,,,,,,,,0,99,99,99,,,,,,,,,,,,,,,,,main,None,None,1,1.496379799908027,448.7757558999583,None,None,1,,,,,,,,,,,,,,207,2023-03-29_17h41.12.821,Main,2022.1.1,58.933075652272336,
positive,blue,1,k,None,,,,,,,,,0,100,100,100,,,,,,,,,,,,,,,,,main,None,None,1,1.5019992000889033,451.27290540002286,None,None,1,,,,,,,,,,,,,,207,2023-03-29_17h41.12.821,Main,2022.1.1,58.933075652272336,
negative,yellow,1,k,None,,,,,,,,,0,101,101,101,,,,,,,,,,,,,,,,,main,None,None,1,1.4960566000081599,453.7756594000384,None,None,1,,,,,,,,,,,,,,207,2023-03-29_17h41.12.821,Main,2022.1.1,58.933075652272336,
negative,blue,2,None,k,,,,,,,,,0,102,102,102,,,,,,,,,,,,,,,,,main,k,k,1,0.9027661001309752,456.2724931000266,None,None,0,,,,,,,,,,,,,,207,2023-03-29_17h41.12.821,Main,2022.1.1,58.933075652272336,
negative,yellow,2,k,None,,,,,,,,,0,103,103,103,,,,,,,,,,,,,,,,,main,None,None,1,1.4987405999563634,458.1757606000174,None,None,1,,,,,,,,,,,,,,207,2023-03-29_17h41.12.821,Main,2022.1.1,58.933075652272336,
positive,yellow,2,None,k,,,,,,,,,0,104,104,104,,,,,,,,,,,,,,,,,main,k,k,1,0.632719499990344,460.6755325999111,None,None,0,,,,,,,,,,,,,,207,2023-03-29_17h41.12.821,Main,2022.1.1,58.933075652272336,
positive,blue,1,k,None,,,,,,,,,0,105,105,105,,,,,,,,,,,,,,,,,main,None,None,1,1.4960237999912351,462.30893080006354,None,None,1,,,,,,,,,,,,,,207,2023-03-29_17h41.12.821,Main,2022.1.1,58.933075652272336,
positive,blue,2,k,None,,,,,,,,,0,106,106,106,,,,,,,,,,,,,,,,,main,None,None,1,1.499268800020218,464.80872220010497,None,None,1,,,,,,,,,,,,,,207,2023-03-29_17h41.12.821,Main,2022.1.1,58.933075652272336,
negative,blue,1,None,k,,,,,,,,,0,107,107,107,,,,,,,,,,,,,,,,,main,k,k,1,0.682778200134635,467.30872169998474,None,None,0,,,,,,,,,,,,,,207,2023-03-29_17h41.12.821,Main,2022.1.1,58.933075652272336,
positive,yellow,2,None,k,,,,,,,,,0,108,108,108,,,,,,,,,,,,,,,,,main,k,k,1,0.7158655999228358,468.9891574999783,None,None,0,,,,,,,,,,,,,,207,2023-03-29_17h41.12.821,Main,2022.1.1,58.933075652272336,
negative,yellow,1,k,None,,,,,,,,,0,109,109,109,,,,,,,,,,,,,,,,,main,None,None,1,1.4987804999109358,470.70579700008966,None,None,1,,,,,,,,,,,,,,207,2023-03-29_17h41.12.821,Main,2022.1.1,58.933075652272336,
negative,blue,2,None,k,,,,,,,,,0,110,110,110,,,,,,,,,,,,,,,,,main,k,k,1,0.835642300080508,473.2057604000438,None,None,0,,,,,,,,,,,,,,207,2023-03-29_17h41.12.821,Main,2022.1.1,58.933075652272336,
positive,blue,2,k,None,,,,,,,,,0,111,111,111,,,,,,,,,,,,,,,,,main,None,None,1,1.4988875000271946,475.03909370000474,None,None,1,,,,,,,,,,,,,,207,2023-03-29_17h41.12.821,Main,2022.1.1,58.933075652272336,
negative,blue,1,None,k,,,,,,,,,0,112,112,112,,,,,,,,,,,,,,,,,main,k,k,1,0.6795898000709713,477.5390518999193,None,None,0,,,,,,,,,,,,,,207,2023-03-29_17h41.12.821,Main,2022.1.1,58.933075652272336,
positive,yellow,1,None,k,,,,,,,,,0,113,113,113,,,,,,,,,,,,,,,,,main,k,k,1,0.6689765998162329,479.22201319993474,None,None,0,,,,,,,,,,,,,,207,2023-03-29_17h41.12.821,Main,2022.1.1,58.933075652272336,
negative,red,1,None,None,,,,,,,,,0,114,114,114,,,,,,,,,,,,,,,,,main,None,None,1,1.4990197999868542,480.88906580000184,None,None,1,,,,,,,,,,,,,,207,2023-03-29_17h41.12.821,Main,2022.1.1,58.933075652272336,
positive,red,1,None,None,,,,,,,,,0,115,115,115,,,,,,,,,,,,,,,,,main,None,None,1,1.4991480000317097,483.3917449999135,None,None,1,,,,,,,,,,,,,,207,2023-03-29_17h41.12.821,Main,2022.1.1,58.933075652272336,
negative,red,2,None,None,,,,,,,,,0,116,116,116,,,,,,,,,,,,,,,,,main,None,None,1,1.496904500061646,485.89182180003263,None,None,1,,,,,,,,,,,,,,207,2023-03-29_17h41.12.821,Main,2022.1.1,58.933075652272336,
negative,yellow,2,k,None,,,,,,,,,0,117,117,117,,,,,,,,,,,,,,,,,main,None,None,1,1.4985521000344306,488.3887930000201,None,None,1,,,,,,,,,,,,,,207,2023-03-29_17h41.12.821,Main,2022.1.1,58.933075652272336,
positive,yellow,1,None,k,,,,,,,,,0,118,118,118,,,,,,,,,,,,,,,,,main,k,k,1,0.7191091000568122,490.8887120001018,None,None,0,,,,,,,,,,,,,,207,2023-03-29_17h41.12.821,Main,2022.1.1,58.933075652272336,
positive,red,2,None,None,,,,,,,,,0,119,119,119,,,,,,,,,,,,,,,,,main,None,None,1,1.4989262998569757,492.6053416999057,None,None,1,,,,,,,,,,,,,,207,2023-03-29_17h41.12.821,Main,2022.1.1,58.933075652272336,
positive,blue,2,k,None,,,,,,,,,0,120,120,120,,,,,,,,,,,,,,,,,main,None,None,1,1.499200199963525,495.1053206999786,None,None,1,,,,,,,,,,,,,,207,2023-03-29_17h41.12.821,Main,2022.1.1,58.933075652272336,
negative,red,1,None,None,,,,,,,,,0,121,121,121,,,,,,,,,,,,,,,,,main,None,None,1,1.4958953000605106,497.60820490005426,None,None,1,,,,,,,,,,,,,,207,2023-03-29_17h41.12.821,Main,2022.1.1,58.933075652272336,
positive,yellow,2,None,k,,,,,,,,,0,122,122,122,,,,,,,,,,,,,,,,,main,k,k,1,0.6828178998548537,500.1048991999123,None,None,0,,,,,,,,,,,,,,207,2023-03-29_17h41.12.821,Main,2022.1.1,58.933075652272336,
negative,red,2,None,None,,,,,,,,,0,123,123,123,,,,,,,,,,,,,,,,,main,None,None,1,1.4994149999693036,501.78826660010964,None,None,1,,,,,,,,,,,,,,207,2023-03-29_17h41.12.821,Main,2022.1.1,58.933075652272336,
negative,yellow,2,k,None,,,,,,,,,0,124,124,124,,,,,,,,,,,,,,,,,main,None,None,1,1.5017432998865843,504.2914342000149,None,None,1,,,,,,,,,,,,,,207,2023-03-29_17h41.12.821,Main,2022.1.1,58.933075652272336,
positive,red,1,None,None,,,,,,,,,0,125,125,125,,,,,,,,,,,,,,,,,main,None,None,1,1.4990254999138415,506.7913653999567,None,None,1,,,,,,,,,,,,,,207,2023-03-29_17h41.12.821,Main,2022.1.1,58.933075652272336,
negative,blue,2,None,k,,,,,,,,,0,126,126,126,,,,,,,,,,,,,,,,,main,k,k,1,0.7467541000805795,509.29113549995236,None,None,0,,,,,,,,,,,,,,207,2023-03-29_17h41.12.821,Main,2022.1.1,58.933075652272336,
negative,blue,1,None,k,,,,,,,,,0,127,127,127,,,,,,,,,,,,,,,,,main,k,k,1,0.7155744999181479,511.03829469997436,None,None,0,,,,,,,,,,,,,,207,2023-03-29_17h41.12.821,Main,2022.1.1,58.933075652272336,
negative,yellow,1,k,None,,,,,,,,,0,128,128,128,,,,,,,,,,,,,,,,,main,None,None,1,1.5018313999753445,512.7550305998884,None,None,1,,,,,,,,,,,,,,207,2023-03-29_17h41.12.821,Main,2022.1.1,58.933075652272336,
negative,yellow,1,k,None,,,,,,,,,0,129,129,129,,,,,,,,,,,,,,,,,main,None,None,1,1.49930109991692,515.2548799999058,None,None,1,,,,,,,,,,,,,,207,2023-03-29_17h41.12.821,Main,2022.1.1,58.933075652272336,
positive,blue,1,k,None,,,,,,,,,0,130,130,130,,,,,,,,,,,,,,,,,main,None,k,0,0.8464894001372159,517.7548565000761,None,None,1,,,,,,,,,,,,,,207,2023-03-29_17h41.12.821,Main,2022.1.1,58.933075652272336,
negative,blue,1,None,k,,,,,,,,,0,131,131,131,,,,,,,,,,,,,,,,,main,k,k,1,1.2980034998618066,520.6048095000442,None,None,0,,,,,,,,,,,,,,207,2023-03-29_17h41.12.821,Main,2022.1.1,58.933075652272336,
negative,blue,2,None,k,,,,,,,,,0,132,132,132,,,,,,,,,,,,,,,,,main,k,k,1,0.8993752000387758,522.9044439999852,None,None,0,,,,,,,,,,,,,,207,2023-03-29_17h41.12.821,Main,2022.1.1,58.933075652272336,
positive,blue,2,k,None,,,,,,,,,0,133,133,133,,,,,,,,,,,,,,,,,main,None,None,1,1.5018781998660415,524.8048288999125,None,None,1,,,,,,,,,,,,,,207,2023-03-29_17h41.12.821,Main,2022.1.1,58.933075652272336,
positive,red,2,None,None,,,,,,,,,0,134,134,134,,,,,,,,,,,,,,,,,main,None,None,1,1.4989732999820262,527.3076333999634,None,None,1,,,,,,,,,,,,,,207,2023-03-29_17h41.12.821,Main,2022.1.1,58.933075652272336,
negative,yellow,2,k,None,,,,,,,,,0,135,135,135,,,,,,,,,,,,,,,,,main,None,None,1,1.4958879000041634,529.8075091000646,None,None,1,,,,,,,,,,,,,,207,2023-03-29_17h41.12.821,Main,2022.1.1,58.933075652272336,
positive,yellow,2,None,k,,,,,,,,,0,136,136,136,,,,,,,,,,,,,,,,,main,k,k,1,0.6993733001872897,532.3042399000842,None,None,0,,,,,,,,,,,,,,207,2023-03-29_17h41.12.821,Main,2022.1.1,58.933075652272336,
positive,blue,1,k,None,,,,,,,,,0,137,137,137,,,,,,,,,,,,,,,,,main,None,None,1,1.5021180999465287,534.0042342001107,None,None,1,,,,,,,,,,,,,,207,2023-03-29_17h41.12.821,Main,2022.1.1,58.933075652272336,
positive,yellow,1,None,k,,,,,,,,,0,138,138,138,,,,,,,,,,,,,,,,,main,k,k,1,0.8300242000259459,536.5074968999252,None,None,0,,,,,,,,,,,,,,207,2023-03-29_17h41.12.821,Main,2022.1.1,58.933075652272336,
positive,yellow,1,None,k,,,,,,,,,0,139,139,139,,,,,,,,,,,,,,,,,main,k,k,1,0.7019825999159366,538.3407407000195,None,None,0,,,,,,,,,,,,,,207,2023-03-29_17h41.12.821,Main,2022.1.1,58.933075652272336,
positive,yellow,1,None,k,,,,,,,,,0,140,140,140,,,,,,,,,,,,,,,,,main,k,k,1,0.6128567999694496,540.040703699924,None,None,0,,,,,,,,,,,,,,207,2023-03-29_17h41.12.821,Main,2022.1.1,58.933075652272336,
positive,blue,1,k,None,,,,,,,,,0,141,141,141,,,,,,,,,,,,,,,,,main,None,None,1,1.4990271001588553,541.6542774001136,None,None,1,,,,,,,,,,,,,,207,2023-03-29_17h41.12.821,Main,2022.1.1,58.933075652272336,
positive,blue,2,k,None,,,,,,,,,0,142,142,142,,,,,,,,,,,,,,,,,main,None,None,1,1.5021041999571025,544.1543187000789,None,None,1,,,,,,,,,,,,,,207,2023-03-29_17h41.12.821,Main,2022.1.1,58.933075652272336,
positive,yellow,2,None,k,,,,,,,,,0,143,143,143,,,,,,,,,,,,,,,,,main,k,k,1,0.7993340999819338,546.6542521000374,None,None,0,,,,,,,,,,,,,,207,2023-03-29_17h41.12.821,Main,2022.1.1,58.933075652272336,
negative,yellow,2,k,None,,,,,,,,,0,144,144,144,,,,,,,,,,,,,,,,,main,None,None,1,1.4989278998691589,548.4570915000513,None,None,1,,,,,,,,,,,,,,207,2023-03-29_17h41.12.821,Main,2022.1.1,58.933075652272336,
negative,blue,2,None,k,,,,,,,,,0,145,145,145,,,,,,,,,,,,,,,,,main,k,k,1,0.8327009999193251,550.9570112999063,None,None,0,,,,,,,,,,,,,,207,2023-03-29_17h41.12.821,Main,2022.1.1,58.933075652272336,
negative,red,1,None,None,,,,,,,,,0,146,146,146,,,,,,,,,,,,,,,,,main,None,None,1,1.4958609999157488,552.7903134999797,None,None,1,,,,,,,,,,,,,,207,2023-03-29_17h41.12.821,Main,2022.1.1,58.933075652272336,
positive,blue,1,k,None,,,,,,,,,0,147,147,147,,,,,,,,,,,,,,,,,main,None,None,1,1.502535599982366,555.2870791000314,None,None,1,,,,,,,,,,,,,,207,2023-03-29_17h41.12.821,Main,2022.1.1,58.933075652272336,
positive,yellow,1,None,k,,,,,,,,,0,148,148,148,,,,,,,,,,,,,,,,,main,k,k,1,0.732777199940756,557.7903344999067,None,None,0,,,,,,,,,,,,,,207,2023-03-29_17h41.12.821,Main,2022.1.1,58.933075652272336,
negative,red,2,None,None,,,,,,,,,0,149,149,149,,,,,,,,,,,,,,,,,main,None,None,1,1.4958941999357194,559.52366419998,None,None,1,,,,,,,,,,,,,,207,2023-03-29_17h41.12.821,Main,2022.1.1,58.933075652272336,
negative,blue,1,None,k,,,,,,,,,0,150,150,150,,,,,,,,,,,,,,,,,main,k,k,1,0.8321893999818712,562.0234598999377,None,None,0,,,,,,,,,,,,,,207,2023-03-29_17h41.12.821,Main,2022.1.1,58.933075652272336,
negative,yellow,2,k,None,,,,,,,,,0,151,151,151,,,,,,,,,,,,,,,,,main,None,None,1,1.5023483999539167,563.8535809000023,None,None,1,,,,,,,,,,,,,,207,2023-03-29_17h41.12.821,Main,2022.1.1,58.933075652272336,
negative,blue,2,None,k,,,,,,,,,0,152,152,152,,,,,,,,,,,,,,,,,main,k,k,1,0.8830630998127162,566.3568663999904,None,None,0,,,,,,,,,,,,,,207,2023-03-29_17h41.12.821,Main,2022.1.1,58.933075652272336,
negative,yellow,1,k,None,,,,,,,,,0,153,153,153,,,,,,,,,,,,,,,,,main,None,None,1,1.4985785998869687,568.2401274000295,None,None,1,,,,,,,,,,,,,,207,2023-03-29_17h41.12.821,Main,2022.1.1,58.933075652272336,
negative,blue,1,None,k,,,,,,,,,0,154,154,154,,,,,,,,,,,,,,,,,main,k,k,1,0.9297267000656575,570.7400658000261,None,None,0,,,,,,,,,,,,,,207,2023-03-29_17h41.12.821,Main,2022.1.1,58.933075652272336,
positive,yellow,2,None,k,,,,,,,,,0,155,155,155,,,,,,,,,,,,,,,,,main,k,k,1,0.9355192000512034,572.6703077999409,None,None,0,,,,,,,,,,,,,,207,2023-03-29_17h41.12.821,Main,2022.1.1,58.933075652272336,
positive,red,2,None,None,,,,,,,,,0,156,156,156,,,,,,,,,,,,,,,,,main,None,None,1,1.4988467001821846,574.6036729998887,None,None,1,,,,,,,,,,,,,,207,2023-03-29_17h41.12.821,Main,2022.1.1,58.933075652272336,
positive,red,1,None,None,,,,,,,,,0,157,157,157,,,,,,,,,,,,,,,,,main,None,None,1,1.4963984000496566,577.1064208000898,None,None,1,,,,,,,,,,,,,,207,2023-03-29_17h41.12.821,Main,2022.1.1,58.933075652272336,
positive,blue,2,k,None,,,,,,,,,0,158,158,158,,,,,,,,,,,,,,,,,main,None,None,1,1.5020516999065876,579.6064448000398,None,None,1,,,,,,,,,,,,,,207,2023-03-29_17h41.12.821,Main,2022.1.1,58.933075652272336,
negative,yellow,1,k,None,,,,,,,,,0,159,159,159,,,,,,,,,,,,,,,,,main,None,None,1,1.499127399874851,582.1064734000247,None,None,1,,,,,,,,,,,,,,207,2023-03-29_17h41.12.821,Main,2022.1.1,58.933075652272336,
negative,red,2,None,None,,,,,,,,,0,160,160,160,,,,,,,,,,,,,,,,,main,None,None,1,1.4959545000456274,584.606357099954,None,None,1,,,,,,,,,,,,,,207,2023-03-29_17h41.12.821,Main,2022.1.1,58.933075652272336,
negative,blue,1,None,k,,,,,,,,,0,161,161,161,,,,,,,,,,,,,,,,,main,k,k,1,0.7525926998350769,587.1031029000878,None,None,0,,,,,,,,,,,,,,207,2023-03-29_17h41.12.821,Main,2022.1.1,58.933075652272336,
negative,blue,1,None,k,,,,,,,,,0,162,162,162,,,,,,,,,,,,,,,,,main,k,k,1,0.6492767999880016,588.8562477999367,None,None,0,,,,,,,,,,,,,,207,2023-03-29_17h41.12.821,Main,2022.1.1,58.933075652272336,
negative,yellow,1,k,None,,,,,,,,,0,163,163,163,,,,,,,,,,,,,,,,,main,None,None,1,1.498937200056389,590.5062140000518,None,None,1,,,,,,,,,,,,,,207,2023-03-29_17h41.12.821,Main,2022.1.1,58.933075652272336,
negative,yellow,1,k,None,,,,,,,,,0,164,164,164,,,,,,,,,,,,,,,,,main,None,None,1,1.4962733001448214,593.0061449001078,None,None,1,,,,,,,,,,,,,,207,2023-03-29_17h41.12.821,Main,2022.1.1,58.933075652272336,
positive,yellow,1,None,k,,,,,,,,,0,165,165,165,,,,,,,,,,,,,,,,,main,k,k,1,0.7830763999372721,595.5031649000011,None,None,0,,,,,,,,,,,,,,207,2023-03-29_17h41.12.821,Main,2022.1.1,58.933075652272336,
negative,red,1,None,None,,,,,,,,,0,166,166,166,,,,,,,,,,,,,,,,,main,None,None,1,1.4988186000846326,597.2865299000405,None,None,1,,,,,,,,,,,,,,207,2023-03-29_17h41.12.821,Main,2022.1.1,58.933075652272336,
negative,yellow,2,k,None,,,,,,,,,0,167,167,167,,,,,,,,,,,,,,,,,main,None,None,1,1.5021036001853645,599.7864616999868,None,None,1,,,,,,,,,,,,,,207,2023-03-29_17h41.12.821,Main,2022.1.1,58.933075652272336,
positive,blue,2,k,None,,,,,,,,,0,168,168,168,,,,,,,,,,,,,,,,,main,None,None,1,1.4963587000966072,602.2892648999114,None,None,1,,,,,,,,,,,,,,207,2023-03-29_17h41.12.821,Main,2022.1.1,58.933075652272336,
positive,red,2,None,None,,,,,,,,,0,169,169,169,,,,,,,,,,,,,,,,,main,None,None,1,1.4989984000567347,604.7862027999945,None,None,1,,,,,,,,,,,,,,207,2023-03-29_17h41.12.821,Main,2022.1.1,58.933075652272336,
positive,red,1,None,None,,,,,,,,,0,170,170,170,,,,,,,,,,,,,,,,,main,None,None,1,1.5023298000451177,607.2860320999753,None,None,1,,,,,,,,,,,,,,207,2023-03-29_17h41.12.821,Main,2022.1.1,58.933075652272336,
negative,blue,2,None,k,,,,,,,,,0,171,171,171,,,,,,,,,,,,,,,,,main,k,k,1,0.9324931998271495,609.7892396999523,None,None,0,,,,,,,,,,,,,,207,2023-03-29_17h41.12.821,Main,2022.1.1,58.933075652272336,
positive,blue,2,k,None,,,,,,,,,0,172,172,172,,,,,,,,,,,,,,,,,main,None,None,1,1.4990232000127435,611.7225677000824,None,None,1,,,,,,,,,,,,,,207,2023-03-29_17h41.12.821,Main,2022.1.1,58.933075652272336,
negative,yellow,2,k,None,,,,,,,,,0,173,173,173,,,,,,,,,,,,,,,,,main,None,None,1,1.4987894999794662,614.2225397001021,None,None,1,,,,,,,,,,,,,,207,2023-03-29_17h41.12.821,Main,2022.1.1,58.933075652272336,
positive,yellow,2,None,k,,,,,,,,,0,174,174,174,,,,,,,,,,,,,,,,,main,k,k,1,0.8799288999289274,616.7194707000162,None,None,0,,,,,,,,,,,,,,207,2023-03-29_17h41.12.821,Main,2022.1.1,58.933075652272336,
negative,blue,2,None,k,,,,,,,,,0,175,175,175,,,,,,,,,,,,,,,,,main,k,k,1,0.7825986999087036,618.6027077001054,None,None,0,,,,,,,,,,,,,,207,2023-03-29_17h41.12.821,Main,2022.1.1,58.933075652272336,
positive,blue,1,k,None,,,,,,,,,0,176,176,176,,,,,,,,,,,,,,,,,main,None,None,1,1.5017800000496209,620.388850599993,None,None,1,,,,,,,,,,,,,,207,2023-03-29_17h41.12.821,Main,2022.1.1,58.933075652272336,
positive,yellow,1,None,k,,,,,,,,,0,177,177,177,,,,,,,,,,,,,,,,,main,k,k,1,0.7331283001694828,622.8888258999214,None,None,0,,,,,,,,,,,,,,207,2023-03-29_17h41.12.821,Main,2022.1.1,58.933075652272336,
positive,blue,1,k,None,,,,,,,,,0,178,178,178,,,,,,,,,,,,,,,,,main,None,None,1,1.4987465001177043,624.619290899951,None,None,1,,,,,,,,,,,,,,207,2023-03-29_17h41.12.821,Main,2022.1.1,58.933075652272336,
positive,yellow,2,None,k,,,,,,,,,0,179,179,179,,,,,,,,,,,,,,,,,main,k,k,1,0.7074157998431474,627.122131699929,None,None,0,,,,,,,,,,,,,,207,2023-03-29_17h41.12.821,Main,2022.1.1,58.933075652272336,
positive,blue,1,k,None,,,,,,,,,0,180,180,180,,,,,,,,,,,,,,,,,main,None,None,1,1.5042680997867137,628.843172899913,None,None,1,,,,,,,,,,,,,,207,2023-03-29_17h41.12.821,Main,2022.1.1,58.933075652272336,
negative,red,1,None,None,,,,,,,,,0,181,181,181,,,,,,,,,,,,,,,,,main,None,None,1,1.5023438001517206,631.3355765999295,None,None,1,,,,,,,,,,,,,,207,2023-03-29_17h41.12.821,Main,2022.1.1,58.933075652272336,
negative,blue,1,None,k,,,,,,,,,0,182,182,182,,,,,,,,,,,,,,,,,main,k,k,1,0.8134467999916524,633.8387619999703,None,None,0,,,,,,,,,,,,,,207,2023-03-29_17h41.12.821,Main,2022.1.1,58.933075652272336,
negative,yellow,2,k,None,,,,,,,,,0,183,183,183,,,,,,,,,,,,,,,,,main,None,None,1,1.5013537998311222,635.6552792999428,None,None,1,,,,,,,,,,,,,,207,2023-03-29_17h41.12.821,Main,2022.1.1,58.933075652272336,
positive,yellow,2,None,k,,,,,,,,,0,184,184,184,,,,,,,,,,,,,,,,,main,k,k,1,0.929909200174734,638.1550859001,None,None,0,,,,,,,,,,,,,,207,2023-03-29_17h41.12.821,Main,2022.1.1,58.933075652272336,
positive,yellow,1,None,k,,,,,,,,,0,185,185,185,,,,,,,,,,,,,,,,,main,k,k,1,0.7992253999691457,640.0884970999323,None,None,0,,,,,,,,,,,,,,207,2023-03-29_17h41.12.821,Main,2022.1.1,58.933075652272336,
positive,red,2,None,None,,,,,,,,,0,186,186,186,,,,,,,,,,,,,,,,,main,None,None,1,1.50171500002034,641.8884437999222,None,None,1,,,,,,,,,,,,,,207,2023-03-29_17h41.12.821,Main,2022.1.1,58.933075652272336,
positive,blue,1,k,None,,,,,,,,,0,187,187,187,,,,,,,,,,,,,,,,,main,None,None,1,1.4991041000466794,644.3855467000976,None,None,1,,,,,,,,,,,,,,207,2023-03-29_17h41.12.821,Main,2022.1.1,58.933075652272336,
negative,yellow,1,k,None,,,,,,,,,0,188,188,188,,,,,,,,,,,,,,,,,main,None,None,1,1.4993990999646485,646.8854942000471,None,None,1,,,,,,,,,,,,,,207,2023-03-29_17h41.12.821,Main,2022.1.1,58.933075652272336,
positive,yellow,2,None,k,,,,,,,,,0,189,189,189,,,,,,,,,,,,,,,,,main,k,k,1,0.6761831999756396,649.3854781000409,None,None,0,,,,,,,,,,,,,,207,2023-03-29_17h41.12.821,Main,2022.1.1,58.933075652272336,
negative,yellow,2,k,None,,,,,,,,,0,190,190,190,,,,,,,,,,,,,,,,,main,None,None,1,1.5021197001915425,651.0678914999589,None,None,1,,,,,,,,,,,,,,207,2023-03-29_17h41.12.821,Main,2022.1.1,58.933075652272336,
negative,yellow,1,k,None,,,,,,,,,0,191,191,191,,,,,,,,,,,,,,,,,main,None,None,1,1.502382199978456,653.5684581999667,None,None,1,,,,,,,,,,,,,,207,2023-03-29_17h41.12.821,Main,2022.1.1,58.933075652272336,
positive,blue,2,k,None,,,,,,,,,0,192,192,192,,,,,,,,,,,,,,,,,main,None,None,1,1.4990305001847446,656.0716134998947,None,None,1,,,,,,,,,,,,,,207,2023-03-29_17h41.12.821,Main,2022.1.1,58.933075652272336,
positive,yellow,1,None,k,,,,,,,,,0,193,193,193,,,,,,,,,,,,,,,,,main,k,k,1,0.9907970000058413,658.5714914000127,None,None,0,,,,,,,,,,,,,,207,2023-03-29_17h41.12.821,Main,2022.1.1,58.933075652272336,
negative,red,2,None,None,,,,,,,,,0,194,194,194,,,,,,,,,,,,,,,,,main,None,None,1,1.5074135998729616,660.5577074999455,None,None,1,,,,,,,,,,,,,,207,2023-03-29_17h41.12.821,Main,2022.1.1,58.933075652272336,
positive,red,1,None,None,,,,,,,,,0,195,195,195,,,,,,,,,,,,,,,,,main,None,None,1,1.4964254999067634,663.0712902999949,None,None,1,,,,,,,,,,,,,,207,2023-03-29_17h41.12.821,Main,2022.1.1,58.933075652272336,
negative,blue,1,None,k,,,,,,,,,0,196,196,196,,,,,,,,,,,,,,,,,main,k,k,1,0.6856915999669582,665.5712480999064,None,None,0,,,,,,,,,,,,,,207,2023-03-29_17h41.12.821,Main,2022.1.1,58.933075652272336,
positive,blue,2,k,None,,,,,,,,,0,197,197,197,,,,,,,,,,,,,,,,,main,None,None,1,1.498888400150463,667.2546055999119,None,None,1,,,,,,,,,,,,,,207,2023-03-29_17h41.12.821,Main,2022.1.1,58.933075652272336,
negative,blue,2,None,k,,,,,,,,,0,198,198,198,,,,,,,,,,,,,,,,,main,k,k,1,0.7133101001381874,669.7516767999623,None,None,0,,,,,,,,,,,,,,207,2023-03-29_17h41.12.821,Main,2022.1.1,58.933075652272336,
negative,blue,2,None,k,,,,,,,,,0,199,199,199,,,,,,,,,,,,,,,,,main,k,k,1,0.6519160999450833,671.4713006000966,None,None,0,,,,,,,,,,,,,,207,2023-03-29_17h41.12.821,Main,2022.1.1,58.933075652272336,
positive,blue,2,k,None,,,,,,,,,0,200,200,200,,,,,,,,,,,,,,,,,main,None,None,1,1.4958941999357194,673.1211200999096,None,None,1,,,,,,,,,,,,,,207,2023-03-29_17h41.12.821,Main,2022.1.1,58.933075652272336,
positive,blue,2,k,None,,,,,,,,,0,201,201,201,,,,,,,,,,,,,,,,,main,None,None,1,1.5024415000807494,675.617935199989,None,None,1,,,,,,,,,,,,,,207,2023-03-29_17h41.12.821,Main,2022.1.1,58.933075652272336,
negative,yellow,2,k,None,,,,,,,,,0,202,202,202,,,,,,,,,,,,,,,,,main,None,None,1,1.4996611000970006,678.1182905000169,None,None,1,,,,,,,,,,,,,,207,2023-03-29_17h41.12.821,Main,2022.1.1,58.933075652272336,
positive,red,1,None,None,,,,,,,,,0,203,203,203,,,,,,,,,,,,,,,,,main,None,None,1,1.4953846000134945,680.6210765000433,None,None,1,,,,,,,,,,,,,,207,2023-03-29_17h41.12.821,Main,2022.1.1,58.933075652272336,
negative,blue,2,None,k,,,,,,,,,0,204,204,204,,,,,,,,,,,,,,,,,main,k,k,1,1.4495153999887407,683.117790899938,None,None,0,,,,,,,,,,,,,,207,2023-03-29_17h41.12.821,Main,2022.1.1,58.933075652272336,
negative,red,1,None,None,,,,,,,,,0,205,205,205,,,,,,,,,,,,,,,,,main,None,None,1,1.5021695999894291,685.5677950999234,None,None,1,,,,,,,,,,,,,,207,2023-03-29_17h41.12.821,Main,2022.1.1,58.933075652272336,
negative,blue,2,None,k,,,,,,,,,0,206,206,206,,,,,,,,,,,,,,,,,main,k,k,1,0.9797948999330401,688.0708431000821,None,None,0,,,,,,,,,,,,,,207,2023-03-29_17h41.12.821,Main,2022.1.1,58.933075652272336,
negative,yellow,2,k,None,,,,,,,,,0,207,207,207,,,,,,,,,,,,,,,,,main,None,None,1,1.5017972998321056,690.0513760999311,None,None,1,,,,,,,,,,,,,,207,2023-03-29_17h41.12.821,Main,2022.1.1,58.933075652272336,
positive,yellow,2,None,k,,,,,,,,,0,208,208,208,,,,,,,,,,,,,,,,,main,k,k,1,0.6660262998193502,692.5511900000274,None,None,0,,,,,,,,,,,,,,207,2023-03-29_17h41.12.821,Main,2022.1.1,58.933075652272336,
negative,yellow,1,k,None,,,,,,,,,0,209,209,209,,,,,,,,,,,,,,,,,main,None,None,1,1.4988734000362456,694.217847000109,None,None,1,,,,,,,,,,,,,,207,2023-03-29_17h41.12.821,Main,2022.1.1,58.933075652272336,
negative,red,2,None,None,,,,,,,,,0,210,210,210,,,,,,,,,,,,,,,,,main,None,None,1,1.4991385999601334,696.7177794999443,None,None,1,,,,,,,,,,,,,,207,2023-03-29_17h41.12.821,Main,2022.1.1,58.933075652272336,
negative,blue,1,None,k,,,,,,,,,0,211,211,211,,,,,,,,,,,,,,,,,main,k,k,1,0.6995712001807988,699.2205848000012,None,None,0,,,,,,,,,,,,,,207,2023-03-29_17h41.12.821,Main,2022.1.1,58.933075652272336,
negative,yellow,1,k,None,,,,,,,,,0,212,212,212,,,,,,,,,,,,,,,,,main,None,None,1,1.4988802999723703,700.9177381999325,None,None,1,,,,,,,,,,,,,,207,2023-03-29_17h41.12.821,Main,2022.1.1,58.933075652272336,
positive,blue,1,k,None,,,,,,,,,0,213,213,213,,,,,,,,,,,,,,,,,main,None,None,1,1.4960411998908967,703.4205509999301,None,None,1,,,,,,,,,,,,,,207,2023-03-29_17h41.12.821,Main,2022.1.1,58.933075652272336,
positive,blue,1,k,None,,,,,,,,,0,214,214,214,,,,,,,,,,,,,,,,,main,None,None,1,1.5024063000455499,705.9173107999377,None,None,1,,,,,,,,,,,,,,207,2023-03-29_17h41.12.821,Main,2022.1.1,58.933075652272336,
positive,yellow,1,None,k,,,,,,,,,0,215,215,215,,,,,,,,,,,,,,,,,main,k,k,1,0.9298549999948591,708.4208072000183,None,None,0,,,,,,,,,,,,,,207,2023-03-29_17h41.12.821,Main,2022.1.1,58.933075652272336,
positive,yellow,1,None,k,,,,,,,,,0,216,216,216,,,,,,,,,,,,,,,,,main,k,k,1,0.8659316999837756,710.3538836999796,None,None,0,,,,,,,,,,,,,,207,2023-03-29_17h41.12.821,Main,2022.1.1,58.933075652272336,
positive,yellow,2,None,k,,,,,,,,,0,217,217,217,,,,,,,,,,,,,,,,,main,k,k,1,0.6518371000420302,712.2176828999072,None,None,0,,,,,,,,,,,,,,207,2023-03-29_17h41.12.821,Main,2022.1.1,58.933075652272336,
negative,blue,1,None,k,,,,,,,,,0,218,218,218,,,,,,,,,,,,,,,,,main,k,k,1,0.7324624999891967,713.8673642999493,None,None,0,,,,,,,,,,,,,,207,2023-03-29_17h41.12.821,Main,2022.1.1,58.933075652272336,
positive,red,2,None,None,,,,,,,,,0,219,219,219,,,,,,,,,,,,,,,,,main,None,None,1,1.4989232998341322,715.600787699921,None,None,1,,,,,,,,,,,,,,207,2023-03-29_17h41.12.821,Main,2022.1.1,58.933075652272336,
positive,yellow,1,None,k,,,,,,,,,0,220,220,220,,,,,,,,,,,,,,,,,main,k,k,1,0.7659983998164535,718.1034886001144,None,None,0,,,,,,,,,,,,,,207,2023-03-29_17h41.12.821,Main,2022.1.1,58.933075652272336,
positive,blue,1,k,None,,,,,,,,,0,221,221,221,,,,,,,,,,,,,,,,,main,None,None,1,1.496185699943453,719.8672861999366,None,None,1,,,,,,,,,,,,,,207,2023-03-29_17h41.12.821,Main,2022.1.1,58.933075652272336,
positive,yellow,2,None,k,,,,,,,,,0,222,222,222,,,,,,,,,,,,,,,,,main,k,k,1,0.7858595000579953,722.3672468001023,None,None,0,,,,,,,,,,,,,,207,2023-03-29_17h41.12.821,Main,2022.1.1,58.933075652272336,
negative,yellow,1,k,None,,,,,,,,,0,223,223,223,,,,,,,,,,,,,,,,,main,None,None,1,1.4988080998882651,724.1535481000319,None,None,1,,,,,,,,,,,,,,207,2023-03-29_17h41.12.821,Main,2022.1.1,58.933075652272336,
positive,yellow,2,None,k,,,,,,,,,0,224,224,224,,,,,,,,,,,,,,,,,main,k,k,1,0.7628717001061887,726.6534025000874,None,None,0,,,,,,,,,,,,,,207,2023-03-29_17h41.12.821,Main,2022.1.1,58.933075652272336,
negative,yellow,2,k,None,,,,,,,,,0,225,225,225,,,,,,,,,,,,,,,,,main,None,None,1,1.5022374000400305,728.4168408999685,None,None,1,,,,,,,,,,,,,,207,2023-03-29_17h41.12.821,Main,2022.1.1,58.933075652272336,
negative,blue,2,None,k,,,,,,,,,0,226,226,226,,,,,,,,,,,,,,,,,main,k,k,1,0.8659842000342906,730.9200987999793,None,None,0,,,,,,,,,,,,,,207,2023-03-29_17h41.12.821,Main,2022.1.1,58.933075652272336,
positive,red,2,None,None,,,,,,,,,0,227,227,227,,,,,,,,,,,,,,,,,main,None,None,1,1.4989692999515682,732.786724000005,None,None,1,,,,,,,,,,,,,,207,2023-03-29_17h41.12.821,Main,2022.1.1,58.933075652272336,
positive,blue,2,k,None,,,,,,,,,0,228,228,228,,,,,,,,,,,,,,,,,main,None,None,1,1.4988481998443604,735.2865714000072,None,None,1,,,,,,,,,,,,,,207,2023-03-29_17h41.12.821,Main,2022.1.1,58.933075652272336,
negative,blue,1,None,k,,,,,,,,,0,229,229,229,,,,,,,,,,,,,,,,,main,k,k,1,0.7299087999854237,737.7863958999515,None,None,0,,,,,,,,,,,,,,207,2023-03-29_17h41.12.821,Main,2022.1.1,58.933075652272336,
positive,yellow,1,None,k,,,,,,,,,0,230,230,230,,,,,,,,,,,,,,,,,main,k,k,1,0.8992194999009371,739.5197554999031,None,None,0,,,,,,,,,,,,,,207,2023-03-29_17h41.12.821,Main,2022.1.1,58.933075652272336,
negative,blue,2,None,k,,,,,,,,,0,231,231,231,,,,,,,,,,,,,,,,,main,k,k,1,0.9520872000139207,741.4198016000446,None,None,0,,,,,,,,,,,,,,207,2023-03-29_17h41.12.821,Main,2022.1.1,58.933075652272336,
negative,red,1,None,None,,,,,,,,,0,232,232,232,,,,,,,,,,,,,,,,,main,None,None,1,1.4989062000531703,743.3697198000737,None,None,1,,,,,,,,,,,,,,207,2023-03-29_17h41.12.821,Main,2022.1.1,58.933075652272336,
positive,blue,2,k,None,,,,,,,,,0,233,233,233,,,,,,,,,,,,,,,,,main,None,None,1,1.4964558999054134,745.8696095000487,None,None,1,,,,,,,,,,,,,,207,2023-03-29_17h41.12.821,Main,2022.1.1,58.933075652272336,
negative,yellow,1,k,None,,,,,,,,,0,234,234,234,,,,,,,,,,,,,,,,,main,None,None,1,1.4988921000622213,748.3667480000295,None,None,1,,,,,,,,,,,,,,207,2023-03-29_17h41.12.821,Main,2022.1.1,58.933075652272336,
negative,yellow,2,k,None,,,,,,,,,0,235,235,235,,,,,,,,,,,,,,,,,main,None,None,1,1.5023022999521345,750.8664659000933,None,None,1,,,,,,,,,,,,,,207,2023-03-29_17h41.12.821,Main,2022.1.1,58.933075652272336,
positive,red,1,None,None,,,,,,,,,0,236,236,236,,,,,,,,,,,,,,,,,main,None,None,1,1.49915979988873,753.3694575999398,None,None,1,,,,,,,,,,,,,,207,2023-03-29_17h41.12.821,Main,2022.1.1,58.933075652272336,
negative,red,2,None,None,,,,,,,,,0,237,237,237,,,,,,,,,,,,,,,,,main,None,None,1,1.4990185999777168,755.869512300007,None,None,1,,,,,,,,,,,,,,207,2023-03-29_17h41.12.821,Main,2022.1.1,58.933075652272336,
negative,blue,1,None,k,,,,,,,,,0,238,238,238,,,,,,,,,,,,,,,,,main,k,k,1,0.9467444999609143,758.3665241999552,None,None,0,,,,,,,,,,,,,,207,2023-03-29_17h41.12.821,Main,2022.1.1,58.933075652272336,
positive,blue,1,k,None,,,,,,,,,0,239,239,239,,,,,,,,,,,,,,,,,main,None,None,1,1.5017806000541896,760.3165353999939,None,None,1,,,,,,,,,,,,,,207,2023-03-29_17h41.12.821,Main,2022.1.1,58.933075652272336,
,,,,,,,,,,,,,,,,,,,,,,,,,,,,,,,,,,,,,,,,,,,,,,,,,,,,,762.819276999915,None,,,,,,
