distractor,target,set,ans1,ans2,rep_loop4.thisRepN,rep_loop4.thisTrialN,rep_loop4.thisN,rep_loop4.thisIndex,st2_prac_loop.thisRepN,st2_prac_loop.thisTrialN,st2_prac_loop.thisN,st2_prac_loop.thisIndex,st2_main_loop.thisRepN,st2_main_loop.thisTrialN,st2_main_loop.thisN,st2_main_loop.thisIndex,image_4.started,image_4.stopped,sound_2.started,sound_2.stopped,key_resp_3.keys,key_resp_3.rt,image_5.started,image_5.stopped,st_prac_back.started,st_prac_back.stopped,st_prac_text.started,st_prac_text.stopped,st_fix_back.started,st_fix_back.stopped,st_fix_2.started,st_fix_2.stopped,main_prac,st_ans,st_res,st_corr,st_rt,st_back.started,st_back.stopped,st2_resp.keys,st2_resp.corr,st_main_back.started,st_main_back.stopped,st_main_text.started,st_main_text.stopped,mouse_4.x,mouse_4.y,mouse_4.leftButton,mouse_4.midButton,mouse_4.rightButton,mouse_4.started,mouse_4.stopped,text_2.started,text_2.stopped,id*,date,expName,psychopyVersion,frameRate,
negative,yellow,1,k,None,,,,,0,0,0,0,,,,,31.627054999989923,None,35.12733561000787,None,space,58.41674390001572,93.57584830000997,None,95.9091352999967,None,95.9091352999967,None,97.92345880001085,None,97.92345880001085,None,prac,k,k,1,1.5358260000066366,99.93266709998716,None,None,0,,,,,,,,,,,,,,208,2023-03-31_13h41.17.183,Main,2022.1.1,59.82850756254131,
positive,red,2,None,None,,,,,0,1,1,1,,,,,,,,,,,,,,,,,,,,,prac,None,None,1,1.4871435000095516,103.48985280000488,None,None,1,,,,,,,,,,,,,,208,2023-03-31_13h41.17.183,Main,2022.1.1,59.82850756254131,
negative,blue,2,None,k,,,,,0,2,2,2,,,,,,,,,,,,,,,,,,,,,prac,None,None,1,1.4987935000099242,105.97578680000152,None,None,1,,,,,,,,,,,,,,208,2023-03-31_13h41.17.183,Main,2022.1.1,59.82850756254131,
positive,yellow,1,None,k,,,,,0,3,3,3,,,,,,,,,,,,,,,,,,,,,prac,None,None,1,1.4965597999980673,108.47575099999085,None,None,1,,,,,,,,,,,,,,208,2023-03-31_13h41.17.183,Main,2022.1.1,59.82850756254131,
negative,blue,2,None,k,,,,,0,4,4,4,,,,,,,,,,,,,,,,,,,,,prac,None,None,1,1.5016917000175454,110.97333139998955,None,None,1,,,,,,,,,,,,,,208,2023-03-31_13h41.17.183,Main,2022.1.1,59.82850756254131,
negative,blue,1,None,k,,,,,0,5,5,5,,,,,,,,,,,,,,,,,,,,,prac,None,None,1,1.5020115999795962,113.47565400000894,None,None,1,,,,,,,,,,,,,,208,2023-03-31_13h41.17.183,Main,2022.1.1,59.82850756254131,
negative,yellow,2,k,None,,,,,0,6,6,6,,,,,,,,,,,,,,,,,,,,,prac,k,k,1,1.079618699994171,115.97769440000411,None,None,0,,,,,,,,,,,,,,208,2023-03-31_13h41.17.183,Main,2022.1.1,59.82850756254131,
negative,red,1,None,None,,,,,0,7,7,7,,,,,,,,,,,,,,,,,,,,,prac,None,None,1,1.4987019000109285,118.05883289998746,None,None,1,,,,,,,,,,,,,,208,2023-03-31_13h41.17.183,Main,2022.1.1,59.82850756254131,
positive,yellow,2,None,k,,,,,0,8,8,8,,,,,,,,,,,,,,,,,,,,,prac,None,None,1,1.4989352000120562,120.55861959999311,None,None,1,,,,,,,,,,,,,,208,2023-03-31_13h41.17.183,Main,2022.1.1,59.82850756254131,
negative,yellow,1,k,None,,,,,0,9,9,9,,,,,,,,,,,,,,,,,,,,,prac,k,k,1,1.247598999994807,123.05638389999513,None,None,0,,,,,,,,,,,,,,208,2023-03-31_13h41.17.183,Main,2022.1.1,59.82850756254131,
positive,yellow,2,None,k,,,,,0,10,10,10,,,,,,,,,,,,,,,,,,,,,prac,None,None,1,1.4982557999901474,125.31171519999043,None,None,1,,,,,,,,,,,,,,208,2023-03-31_13h41.17.183,Main,2022.1.1,59.82850756254131,
negative,yellow,2,k,None,,,,,0,11,11,11,,,,,,,,,,,,,,,,,,,,,prac,k,k,1,0.7499596999841742,127.80605749998358,None,None,0,,,,,,,,,,,,,,208,2023-03-31_13h41.17.183,Main,2022.1.1,59.82850756254131,
negative,red,2,None,None,,,,,0,12,12,12,,,,,,,,,,,,,,,,,,,,,prac,None,None,1,1.4983876000042073,129.55859860000783,None,None,1,,,,,,,,,,,,,,208,2023-03-31_13h41.17.183,Main,2022.1.1,59.82850756254131,
positive,red,1,None,None,,,,,0,13,13,13,,,,,,,,,,,,,,,,,,,,,prac,None,None,1,1.5015515999984927,132.05593209998915,None,None,1,,,,,,,,,,,,,,208,2023-03-31_13h41.17.183,Main,2022.1.1,59.82850756254131,
positive,blue,2,k,None,,,,,0,14,14,14,,,,,,,,,,,,,,,,,,,,,prac,k,k,1,0.6162913999869488,134.5585882999876,None,None,0,,,,,,,,,,,,,,208,2023-03-31_13h41.17.183,Main,2022.1.1,59.82850756254131,
positive,blue,1,k,None,,,,,0,15,15,15,,,,,,,,,,,,,,,,,,,,,prac,k,k,1,0.7469874999951571,136.17512609998812,None,None,0,,,,,,,,,,,,,,208,2023-03-31_13h41.17.183,Main,2022.1.1,59.82850756254131,
negative,blue,1,None,k,,,,,0,16,16,16,,,,,,,,,,,,,,,,,,,,,prac,None,k,0,1.5009832000068855,137.92280840000603,None,None,1,,,,,,,,,,,,,,208,2023-03-31_13h41.17.183,Main,2022.1.1,59.82850756254131,
positive,blue,2,k,None,,,,,0,17,17,17,,,,,,,,,,,,,,,,,,,,,prac,k,k,1,0.9207117999903858,141.42238679999718,None,None,0,,,,,,,,,,,,,,208,2023-03-31_13h41.17.183,Main,2022.1.1,59.82850756254131,
positive,blue,1,k,None,,,,,0,18,18,18,,,,,,,,,,,,,,,,,,,,,prac,k,k,1,1.2655187000054866,143.34165270000813,None,None,0,,,,,,,,,,,,,,208,2023-03-31_13h41.17.183,Main,2022.1.1,59.82850756254131,
positive,yellow,1,None,k,,,,,0,19,19,19,,,,,,,,,,,,,,,,,,,,,prac,None,None,1,1.4983942999970168,145.6083840999927,None,None,1,,,,,,,,,,,,,,208,2023-03-31_13h41.17.183,Main,2022.1.1,59.82850756254131,
negative,yellow,1,k,None,,,,,1,0,20,0,,,,,,,,,,,,,,,,,,,,,prac,k,k,1,0.9308143999951426,148.10587820000364,None,None,0,,,,,,,,,,,,,,208,2023-03-31_13h41.17.183,Main,2022.1.1,59.82850756254131,
positive,red,2,None,None,,,,,1,1,21,1,,,,,,,,,,,,,,,,,,,,,prac,None,None,1,1.5010972999734804,150.03890509999474,None,None,1,,,,,,,,,,,,,,208,2023-03-31_13h41.17.183,Main,2022.1.1,59.82850756254131,
negative,blue,2,None,k,,,,,1,2,22,2,,,,,,,,,,,,,,,,,,,,,prac,None,k,0,0.666270199988503,152.5415224999888,None,None,1,,,,,,,,,,,,,,208,2023-03-31_13h41.17.183,Main,2022.1.1,59.82850756254131,
positive,yellow,1,None,k,,,,,1,3,23,3,,,,,,,,,,,,,,,,,,,,,prac,None,None,1,1.4984731999866199,155.20612610000535,None,None,1,,,,,,,,,,,,,,208,2023-03-31_13h41.17.183,Main,2022.1.1,59.82850756254131,
negative,blue,2,None,k,,,,,1,4,24,4,,,,,,,,,,,,,,,,,,,,,prac,None,None,1,1.5014076000079513,157.70563459998812,None,None,1,,,,,,,,,,,,,,208,2023-03-31_13h41.17.183,Main,2022.1.1,59.82850756254131,
negative,blue,1,None,k,,,,,1,5,25,5,,,,,,,,,,,,,,,,,,,,,prac,None,k,0,1.297123800002737,160.20800469999085,None,None,1,,,,,,,,,,,,,,208,2023-03-31_13h41.17.183,Main,2022.1.1,59.82850756254131,
negative,yellow,2,k,None,,,,,1,6,26,6,,,,,,,,,,,,,,,,,,,,,prac,k,k,1,0.9657090000109747,163.5055532999977,None,None,0,,,,,,,,,,,,,,208,2023-03-31_13h41.17.183,Main,2022.1.1,59.82850756254131,
negative,red,1,None,None,,,,,1,7,27,7,,,,,,,,,,,,,,,,,,,,,prac,None,None,1,1.5011773000005633,165.47215139999753,None,None,1,,,,,,,,,,,,,,208,2023-03-31_13h41.17.183,Main,2022.1.1,59.82850756254131,
positive,yellow,2,None,k,,,,,1,8,28,8,,,,,,,,,,,,,,,,,,,,,prac,None,None,1,1.4987568999931682,167.97449299998698,None,None,1,,,,,,,,,,,,,,208,2023-03-31_13h41.17.183,Main,2022.1.1,59.82850756254131,
negative,yellow,1,k,None,,,,,1,9,29,9,,,,,,,,,,,,,,,,,,,,,prac,k,k,1,0.5991217000118922,170.47427080001216,None,None,0,,,,,,,,,,,,,,208,2023-03-31_13h41.17.183,Main,2022.1.1,59.82850756254131,
positive,yellow,2,None,k,,,,,1,10,30,10,,,,,,,,,,,,,,,,,,,,,prac,None,None,1,1.4966370000038296,172.07202659998438,None,None,1,,,,,,,,,,,,,,208,2023-03-31_13h41.17.183,Main,2022.1.1,59.82850756254131,
negative,yellow,2,k,None,,,,,1,11,31,11,,,,,,,,,,,,,,,,,,,,,prac,k,k,1,0.7018865999998525,174.57186649998766,None,None,0,,,,,,,,,,,,,,208,2023-03-31_13h41.17.183,Main,2022.1.1,59.82850756254131,
negative,red,2,None,None,,,,,1,12,32,12,,,,,,,,,,,,,,,,,,,,,prac,None,None,1,1.5015597000019625,176.27430349998758,None,None,1,,,,,,,,,,,,,,208,2023-03-31_13h41.17.183,Main,2022.1.1,59.82850756254131,
positive,red,1,None,None,,,,,1,13,33,13,,,,,,,,,,,,,,,,,,,,,prac,None,None,1,1.4961360000015702,178.77506449999055,None,None,1,,,,,,,,,,,,,,208,2023-03-31_13h41.17.183,Main,2022.1.1,59.82850756254131,
positive,blue,2,k,None,,,,,1,14,34,14,,,,,,,,,,,,,,,,,,,,,prac,k,k,1,1.0474225000070874,181.27184989998932,None,None,0,,,,,,,,,,,,,,208,2023-03-31_13h41.17.183,Main,2022.1.1,59.82850756254131,
positive,blue,1,k,None,,,,,1,15,35,15,,,,,,,,,,,,,,,,,,,,,prac,k,k,1,0.7845238000154495,183.3216834999912,None,None,0,,,,,,,,,,,,,,208,2023-03-31_13h41.17.183,Main,2022.1.1,59.82850756254131,
negative,blue,1,None,k,,,,,1,16,36,16,,,,,,,,,,,,,,,,,,,,,prac,None,None,1,1.498874800017802,185.1075126999931,None,None,1,,,,,,,,,,,,,,208,2023-03-31_13h41.17.183,Main,2022.1.1,59.82850756254131,
positive,blue,2,k,None,,,,,1,17,37,17,,,,,,,,,,,,,,,,,,,,,prac,k,k,1,0.7966122000070754,187.60750139999436,None,None,0,,,,,,,,,,,,,,208,2023-03-31_13h41.17.183,Main,2022.1.1,59.82850756254131,
positive,blue,1,k,None,,,,,1,18,38,18,,,,,,,,,,,,,,,,,,,,,prac,k,k,1,0.8684345000074245,189.40473499998916,None,None,0,,,,,,,,,,,,,,208,2023-03-31_13h41.17.183,Main,2022.1.1,59.82850756254131,
positive,yellow,1,None,k,,,,,1,19,39,19,,,,,,,,,,,,,,,,,,,,,prac,None,None,1,1.4961665000009816,191.2739508000086,None,None,1,,,,,,,,,,,,,,208,2023-03-31_13h41.17.183,Main,2022.1.1,59.82850756254131,
,,,,,,,,,,,,,,,,,,,,,,,,,,,,,,,,,,,,,,,,,,193.7772350999876,None,193.7772350999876,None,0.19907407,-0.013888889,0,0,0,0.01429701002780348,None,,,208,2023-03-31_13h41.17.183,Main,2022.1.1,59.82850756254131,
negative,yellow,2,k,None,,,,,,,,,0,0,0,0,,,,,,,,,,,,,195.17124039999908,None,195.17124039999908,None,main,k,k,1,0.8616067999973893,197.20187469999655,None,None,0,,,,,,,,,,,,,,208,2023-03-31_13h41.17.183,Main,2022.1.1,59.82850756254131,
positive,red,1,None,None,,,,,,,,,0,1,1,1,,,,,,,,,,,,,,,,,main,None,None,1,1.498293399985414,199.07387900000322,None,None,1,,,,,,,,,,,,,,208,2023-03-31_13h41.17.183,Main,2022.1.1,59.82850756254131,
positive,blue,2,k,None,,,,,,,,,0,2,2,2,,,,,,,,,,,,,,,,,main,k,k,1,1.169013900012942,201.57109599999967,None,None,0,,,,,,,,,,,,,,208,2023-03-31_13h41.17.183,Main,2022.1.1,59.82850756254131,
positive,blue,1,k,None,,,,,,,,,0,3,3,3,,,,,,,,,,,,,,,,,main,k,k,1,0.5157047999964561,203.7406578999944,None,None,0,,,,,,,,,,,,,,208,2023-03-31_13h41.17.183,Main,2022.1.1,59.82850756254131,
negative,yellow,2,k,None,,,,,,,,,0,4,4,4,,,,,,,,,,,,,,,,,main,k,k,1,1.1633188999840058,205.25700000001234,None,None,0,,,,,,,,,,,,,,208,2023-03-31_13h41.17.183,Main,2022.1.1,59.82850756254131,
positive,yellow,2,None,k,,,,,,,,,0,5,5,5,,,,,,,,,,,,,,,,,main,None,k,0,0.7991055999882519,207.42344489999232,None,None,1,,,,,,,,,,,,,,208,2023-03-31_13h41.17.183,Main,2022.1.1,59.82850756254131,
negative,blue,2,None,k,,,,,,,,,0,6,6,6,,,,,,,,,,,,,,,,,main,None,None,1,1.487246700009564,210.22089619998587,None,None,1,,,,,,,,,,,,,,208,2023-03-31_13h41.17.183,Main,2022.1.1,59.82850756254131,
positive,red,2,None,None,,,,,,,,,0,7,7,7,,,,,,,,,,,,,,,,,main,None,None,1,1.4986056000052486,212.70686470001237,None,None,1,,,,,,,,,,,,,,208,2023-03-31_13h41.17.183,Main,2022.1.1,59.82850756254131,
positive,yellow,1,None,k,,,,,,,,,0,8,8,8,,,,,,,,,,,,,,,,,main,None,None,1,1.5022131000005174,215.20448549999855,None,None,1,,,,,,,,,,,,,,208,2023-03-31_13h41.17.183,Main,2022.1.1,59.82850756254131,
negative,red,1,None,None,,,,,,,,,0,9,9,9,,,,,,,,,,,,,,,,,main,None,None,1,1.4943385999940801,217.70803859998705,None,None,1,,,,,,,,,,,,,,208,2023-03-31_13h41.17.183,Main,2022.1.1,59.82850756254131,
positive,yellow,1,None,k,,,,,,,,,0,10,10,10,,,,,,,,,,,,,,,,,main,None,None,1,1.5018902000156231,220.20414839999285,None,None,1,,,,,,,,,,,,,,208,2023-03-31_13h41.17.183,Main,2022.1.1,59.82850756254131,
negative,yellow,1,k,None,,,,,,,,,0,11,11,11,,,,,,,,,,,,,,,,,main,k,k,1,0.7313879999855999,222.70672769998782,None,None,0,,,,,,,,,,,,,,208,2023-03-31_13h41.17.183,Main,2022.1.1,59.82850756254131,
negative,yellow,1,k,None,,,,,,,,,0,12,12,12,,,,,,,,,,,,,,,,,main,k,k,1,0.8825509999878705,224.43992330000037,None,None,0,,,,,,,,,,,,,,208,2023-03-31_13h41.17.183,Main,2022.1.1,59.82850756254131,
negative,red,2,None,None,,,,,,,,,0,13,13,13,,,,,,,,,,,,,,,,,main,None,None,1,1.4962578999984544,226.32314980000956,None,None,1,,,,,,,,,,,,,,208,2023-03-31_13h41.17.183,Main,2022.1.1,59.82850756254131,
positive,yellow,2,None,k,,,,,,,,,0,14,14,14,,,,,,,,,,,,,,,,,main,None,None,1,1.5015299000078812,228.82056829999783,None,None,1,,,,,,,,,,,,,,208,2023-03-31_13h41.17.183,Main,2022.1.1,59.82850756254131,
positive,blue,1,k,None,,,,,,,,,0,15,15,15,,,,,,,,,,,,,,,,,main,k,k,1,0.8304320999886841,231.3231012999895,None,None,0,,,,,,,,,,,,,,208,2023-03-31_13h41.17.183,Main,2022.1.1,59.82850756254131,
negative,blue,1,None,k,,,,,,,,,0,16,16,16,,,,,,,,,,,,,,,,,main,None,None,1,1.5013246999878902,233.154122500011,None,None,1,,,,,,,,,,,,,,208,2023-03-31_13h41.17.183,Main,2022.1.1,59.82850756254131,
positive,blue,2,k,None,,,,,,,,,0,17,17,17,,,,,,,,,,,,,,,,,main,k,k,1,0.8496901000034995,235.65631379999104,None,None,0,,,,,,,,,,,,,,208,2023-03-31_13h41.17.183,Main,2022.1.1,59.82850756254131,
negative,blue,2,None,k,,,,,,,,,0,18,18,18,,,,,,,,,,,,,,,,,main,None,None,1,1.498816799983615,237.50631229998544,None,None,1,,,,,,,,,,,,,,208,2023-03-31_13h41.17.183,Main,2022.1.1,59.82850756254131,
negative,blue,1,None,k,,,,,,,,,0,19,19,19,,,,,,,,,,,,,,,,,main,None,k,0,-0.18398830000660382,240.00620279999566,None,None,1,,,,,,,,,,,,,,208,2023-03-31_13h41.17.183,Main,2022.1.1,59.82850756254131,
negative,blue,1,None,k,,,,,,,,,0,20,20,20,,,,,,,,,,,,,,,,,main,None,None,1,1.4865603999933228,243.83696739998413,None,None,1,,,,,,,,,,,,,,208,2023-03-31_13h41.17.183,Main,2022.1.1,59.82850756254131,
negative,blue,2,None,k,,,,,,,,,0,21,21,21,,,,,,,,,,,,,,,,,main,None,None,1,1.4979819000000134,246.3228175000113,None,None,1,,,,,,,,,,,,,,208,2023-03-31_13h41.17.183,Main,2022.1.1,59.82850756254131,
negative,red,1,None,None,,,,,,,,,0,22,22,22,,,,,,,,,,,,,,,,,main,None,None,1,1.4990619999880437,248.82281079998938,None,None,1,,,,,,,,,,,,,,208,2023-03-31_13h41.17.183,Main,2022.1.1,59.82850756254131,
positive,red,2,None,None,,,,,,,,,0,23,23,23,,,,,,,,,,,,,,,,,main,None,None,1,1.4966972999973223,251.32033769998816,None,None,1,,,,,,,,,,,,,,208,2023-03-31_13h41.17.183,Main,2022.1.1,59.82850756254131,
negative,red,2,None,None,,,,,,,,,0,24,24,24,,,,,,,,,,,,,,,,,main,None,None,1,1.5019577000057325,253.81998199998634,None,None,1,,,,,,,,,,,,,,208,2023-03-31_13h41.17.183,Main,2022.1.1,59.82850756254131,
positive,blue,2,k,None,,,,,,,,,0,25,25,25,,,,,,,,,,,,,,,,,main,k,k,1,1.0823461000109091,256.32274929998675,None,None,0,,,,,,,,,,,,,,208,2023-03-31_13h41.17.183,Main,2022.1.1,59.82850756254131,
negative,yellow,1,k,None,,,,,,,,,0,26,26,26,,,,,,,,,,,,,,,,,main,k,k,1,1.1968536999775097,258.4058999000117,None,None,0,,,,,,,,,,,,,,208,2023-03-31_13h41.17.183,Main,2022.1.1,59.82850756254131,
positive,blue,2,k,None,,,,,,,,,0,27,27,27,,,,,,,,,,,,,,,,,main,k,k,1,0.9680134999798611,260.6057426999905,None,None,0,,,,,,,,,,,,,,208,2023-03-31_13h41.17.183,Main,2022.1.1,59.82850756254131,
negative,blue,2,None,k,,,,,,,,,0,28,28,28,,,,,,,,,,,,,,,,,main,None,None,1,1.4983647000044584,262.5700299000018,None,None,1,,,,,,,,,,,,,,208,2023-03-31_13h41.17.183,Main,2022.1.1,59.82850756254131,
positive,red,1,None,None,,,,,,,,,0,29,29,29,,,,,,,,,,,,,,,,,main,None,None,1,1.4970916000020225,265.0700138999964,None,None,1,,,,,,,,,,,,,,208,2023-03-31_13h41.17.183,Main,2022.1.1,59.82850756254131,
positive,blue,1,k,None,,,,,,,,,0,30,30,30,,,,,,,,,,,,,,,,,main,k,k,1,0.8657659000018612,267.5700074000051,None,None,0,,,,,,,,,,,,,,208,2023-03-31_13h41.17.183,Main,2022.1.1,59.82850756254131,
positive,yellow,1,None,k,,,,,,,,,0,31,31,31,,,,,,,,,,,,,,,,,main,None,None,1,1.5018521000165492,269.43631280001136,None,None,1,,,,,,,,,,,,,,208,2023-03-31_13h41.17.183,Main,2022.1.1,59.82850756254131,
negative,yellow,2,k,None,,,,,,,,,0,32,32,32,,,,,,,,,,,,,,,,,main,k,k,1,0.8992005999898538,271.9389169999922,None,None,0,,,,,,,,,,,,,,208,2023-03-31_13h41.17.183,Main,2022.1.1,59.82850756254131,
negative,blue,1,None,k,,,,,,,,,0,33,33,33,,,,,,,,,,,,,,,,,main,None,None,1,1.496366199979093,273.8389293999935,None,None,1,,,,,,,,,,,,,,208,2023-03-31_13h41.17.183,Main,2022.1.1,59.82850756254131,
positive,blue,1,k,None,,,,,,,,,0,34,34,34,,,,,,,,,,,,,,,,,main,k,k,1,3.3659743999887723,276.33651120000286,None,None,0,,,,,,,,,,,,,,208,2023-03-31_13h41.17.183,Main,2022.1.1,59.82850756254131,
negative,yellow,1,k,None,,,,,,,,,0,35,35,35,,,,,,,,,,,,,,,,,main,k,k,1,0.9659223000053316,281.70523970000795,None,None,0,,,,,,,,,,,,,,208,2023-03-31_13h41.17.183,Main,2022.1.1,59.82850756254131,
positive,yellow,2,None,k,,,,,,,,,0,36,36,36,,,,,,,,,,,,,,,,,main,None,None,1,1.501182100008009,283.67185370001243,None,None,1,,,,,,,,,,,,,,208,2023-03-31_13h41.17.183,Main,2022.1.1,59.82850756254131,
positive,yellow,2,None,k,,,,,,,,,0,37,37,37,,,,,,,,,,,,,,,,,main,None,None,1,1.4984963999886531,286.17173830000684,None,None,1,,,,,,,,,,,,,,208,2023-03-31_13h41.17.183,Main,2022.1.1,59.82850756254131,
negative,yellow,2,k,None,,,,,,,,,0,38,38,38,,,,,,,,,,,,,,,,,main,k,k,1,0.7475361000106204,288.66953829998965,None,None,0,,,,,,,,,,,,,,208,2023-03-31_13h41.17.183,Main,2022.1.1,59.82850756254131,
positive,yellow,1,None,k,,,,,,,,,0,39,39,39,,,,,,,,,,,,,,,,,main,None,None,1,1.4988754000223707,290.4195286000031,None,None,1,,,,,,,,,,,,,,208,2023-03-31_13h41.17.183,Main,2022.1.1,59.82850756254131,
negative,yellow,2,k,None,,,,,,,,,0,40,40,40,,,,,,,,,,,,,,,,,main,k,k,1,0.635117799974978,292.91924049999216,None,None,0,,,,,,,,,,,,,,208,2023-03-31_13h41.17.183,Main,2022.1.1,59.82850756254131,
positive,blue,2,k,None,,,,,,,,,0,41,41,41,,,,,,,,,,,,,,,,,main,k,k,1,0.7990670999861322,294.55520120001165,None,None,0,,,,,,,,,,,,,,208,2023-03-31_13h41.17.183,Main,2022.1.1,59.82850756254131,
positive,blue,2,k,None,,,,,,,,,0,42,42,42,,,,,,,,,,,,,,,,,main,k,k,1,0.6466166999889538,296.3551174000022,None,None,0,,,,,,,,,,,,,,208,2023-03-31_13h41.17.183,Main,2022.1.1,59.82850756254131,
negative,blue,2,None,k,,,,,,,,,0,43,43,43,,,,,,,,,,,,,,,,,main,None,None,1,1.501680799992755,298.0023991999915,None,None,1,,,,,,,,,,,,,,208,2023-03-31_13h41.17.183,Main,2022.1.1,59.82850756254131,
negative,red,1,None,None,,,,,,,,,0,44,44,44,,,,,,,,,,,,,,,,,main,None,None,1,1.4991106999805197,300.50505589999375,None,None,1,,,,,,,,,,,,,,208,2023-03-31_13h41.17.183,Main,2022.1.1,59.82850756254131,
negative,yellow,1,k,None,,,,,,,,,0,45,45,45,,,,,,,,,,,,,,,,,main,k,k,1,0.8630667000252288,303.004935200006,None,None,0,,,,,,,,,,,,,,208,2023-03-31_13h41.17.183,Main,2022.1.1,59.82850756254131,
negative,yellow,1,k,None,,,,,,,,,0,46,46,46,,,,,,,,,,,,,,,,,main,k,k,1,0.6188217999879271,304.868882699986,None,None,0,,,,,,,,,,,,,,208,2023-03-31_13h41.17.183,Main,2022.1.1,59.82850756254131,
positive,red,1,None,None,,,,,,,,,0,47,47,47,,,,,,,,,,,,,,,,,main,None,None,1,1.4985143000085372,306.48821129999124,None,None,1,,,,,,,,,,,,,,208,2023-03-31_13h41.17.183,Main,2022.1.1,59.82850756254131,
positive,yellow,1,None,k,,,,,,,,,0,48,48,48,,,,,,,,,,,,,,,,,main,None,None,1,1.496693699999014,308.9881042999914,None,None,1,,,,,,,,,,,,,,208,2023-03-31_13h41.17.183,Main,2022.1.1,59.82850756254131,
negative,blue,1,None,k,,,,,,,,,0,49,49,49,,,,,,,,,,,,,,,,,main,None,k,0,0.7498722999880556,311.4854415000009,None,None,1,,,,,,,,,,,,,,208,2023-03-31_13h41.17.183,Main,2022.1.1,59.82850756254131,
positive,yellow,2,None,k,,,,,,,,,0,50,50,50,,,,,,,,,,,,,,,,,main,None,None,1,1.5011234999983571,314.2380261000071,None,None,1,,,,,,,,,,,,,,208,2023-03-31_13h41.17.183,Main,2022.1.1,59.82850756254131,
negative,blue,1,None,k,,,,,,,,,0,51,51,51,,,,,,,,,,,,,,,,,main,None,None,1,1.4961012999992818,316.73557980000624,None,None,1,,,,,,,,,,,,,,208,2023-03-31_13h41.17.183,Main,2022.1.1,59.82850756254131,
positive,red,2,None,None,,,,,,,,,0,52,52,52,,,,,,,,,,,,,,,,,main,None,None,1,1.501837899995735,319.23525199998403,None,None,1,,,,,,,,,,,,,,208,2023-03-31_13h41.17.183,Main,2022.1.1,59.82850756254131,
positive,yellow,2,None,k,,,,,,,,,0,53,53,53,,,,,,,,,,,,,,,,,main,None,None,1,1.499120499996934,321.73786610001116,None,None,1,,,,,,,,,,,,,,208,2023-03-31_13h41.17.183,Main,2022.1.1,59.82850756254131,
negative,red,2,None,None,,,,,,,,,0,54,54,54,,,,,,,,,,,,,,,,,main,None,None,1,1.4987826999858953,324.23798929998884,None,None,1,,,,,,,,,,,,,,208,2023-03-31_13h41.17.183,Main,2022.1.1,59.82850756254131,
positive,yellow,1,None,k,,,,,,,,,0,55,55,55,,,,,,,,,,,,,,,,,main,None,None,1,1.4964444999932311,326.73542350000935,None,None,1,,,,,,,,,,,,,,208,2023-03-31_13h41.17.183,Main,2022.1.1,59.82850756254131,
negative,blue,2,None,k,,,,,,,,,0,56,56,56,,,,,,,,,,,,,,,,,main,None,None,1,1.5016002000193112,329.23505200000363,None,None,1,,,,,,,,,,,,,,208,2023-03-31_13h41.17.183,Main,2022.1.1,59.82850756254131,
positive,blue,1,k,None,,,,,,,,,0,57,57,57,,,,,,,,,,,,,,,,,main,k,k,1,0.7830038999964017,331.73761849998846,None,None,0,,,,,,,,,,,,,,208,2023-03-31_13h41.17.183,Main,2022.1.1,59.82850756254131,
positive,blue,1,k,None,,,,,,,,,0,58,58,58,,,,,,,,,,,,,,,,,main,k,k,1,0.779915399994934,333.52098410000326,None,None,0,,,,,,,,,,,,,,208,2023-03-31_13h41.17.183,Main,2022.1.1,59.82850756254131,
negative,yellow,2,k,None,,,,,,,,,0,59,59,59,,,,,,,,,,,,,,,,,main,k,k,1,1.1183164999820292,335.30156250001164,None,None,0,,,,,,,,,,,,,,208,2023-03-31_13h41.17.183,Main,2022.1.1,59.82850756254131,
positive,red,2,None,None,,,,,,,,,0,60,60,60,,,,,,,,,,,,,,,,,main,None,None,1,1.496626699983608,337.42091109999456,None,None,1,,,,,,,,,,,,,,208,2023-03-31_13h41.17.183,Main,2022.1.1,59.82850756254131,
negative,yellow,1,k,None,,,,,,,,,0,61,61,61,,,,,,,,,,,,,,,,,main,k,k,1,1.0825419000175316,339.9242540000123,None,None,0,,,,,,,,,,,,,,208,2023-03-31_13h41.17.183,Main,2022.1.1,59.82850756254131,
negative,red,1,None,None,,,,,,,,,0,62,62,62,,,,,,,,,,,,,,,,,main,None,None,1,1.5015547999937553,342.00152069999604,None,None,1,,,,,,,,,,,,,,208,2023-03-31_13h41.17.183,Main,2022.1.1,59.82850756254131,
negative,blue,1,None,k,,,,,,,,,0,63,63,63,,,,,,,,,,,,,,,,,main,None,None,1,1.4989482999953907,344.50216519998503,None,None,1,,,,,,,,,,,,,,208,2023-03-31_13h41.17.183,Main,2022.1.1,59.82850756254131,
positive,blue,2,k,None,,,,,,,,,0,64,64,64,,,,,,,,,,,,,,,,,main,k,k,1,0.7802151999785565,347.0016604999837,None,None,0,,,,,,,,,,,,,,208,2023-03-31_13h41.17.183,Main,2022.1.1,59.82850756254131,
negative,yellow,2,k,None,,,,,,,,,0,65,65,65,,,,,,,,,,,,,,,,,main,k,k,1,1.1826043000037316,348.7846522000036,None,None,0,,,,,,,,,,,,,,208,2023-03-31_13h41.17.183,Main,2022.1.1,59.82850756254131,
positive,yellow,2,None,k,,,,,,,,,0,66,66,66,,,,,,,,,,,,,,,,,main,None,None,1,1.501349600002868,350.9679763999884,None,None,1,,,,,,,,,,,,,,208,2023-03-31_13h41.17.183,Main,2022.1.1,59.82850756254131,
positive,yellow,2,None,k,,,,,,,,,0,67,67,67,,,,,,,,,,,,,,,,,main,None,None,1,1.4990115000109654,353.47058809999726,None,None,1,,,,,,,,,,,,,,208,2023-03-31_13h41.17.183,Main,2022.1.1,59.82850756254131,
positive,red,1,None,None,,,,,,,,,0,68,68,68,,,,,,,,,,,,,,,,,main,None,k,0,-0.46713909998652525,355.97034880000865,None,None,1,,,,,,,,,,,,,,208,2023-03-31_13h41.17.183,Main,2022.1.1,59.82850756254131,
positive,yellow,1,None,k,,,,,,,,,0,69,69,69,,,,,,,,,,,,,,,,,main,None,None,1,1.486134199978551,359.5012304999982,None,None,1,,,,,,,,,,,,,,208,2023-03-31_13h41.17.183,Main,2022.1.1,59.82850756254131,
negative,yellow,2,k,None,,,,,,,,,0,70,70,70,,,,,,,,,,,,,,,,,main,k,k,1,0.6825805999978911,361.9870041999966,None,None,0,,,,,,,,,,,,,,208,2023-03-31_13h41.17.183,Main,2022.1.1,59.82850756254131,
positive,yellow,1,None,k,,,,,,,,,0,71,71,71,,,,,,,,,,,,,,,,,main,None,None,1,1.4987230999977328,363.6703334999911,None,None,1,,,,,,,,,,,,,,208,2023-03-31_13h41.17.183,Main,2022.1.1,59.82850756254131,
negative,blue,1,None,k,,,,,,,,,0,72,72,72,,,,,,,,,,,,,,,,,main,None,None,1,1.4968844999966677,366.1700337000075,None,None,1,,,,,,,,,,,,,,208,2023-03-31_13h41.17.183,Main,2022.1.1,59.82850756254131,
negative,red,2,None,None,,,,,,,,,0,73,73,73,,,,,,,,,,,,,,,,,main,None,None,1,1.5016522000078112,368.6675447000016,None,None,1,,,,,,,,,,,,,,208,2023-03-31_13h41.17.183,Main,2022.1.1,59.82850756254131,
positive,blue,2,k,None,,,,,,,,,0,74,74,74,,,,,,,,,,,,,,,,,main,k,k,1,1.3327326999860816,371.17012719999184,None,None,0,,,,,,,,,,,,,,208,2023-03-31_13h41.17.183,Main,2022.1.1,59.82850756254131,
negative,blue,2,None,k,,,,,,,,,0,75,75,75,,,,,,,,,,,,,,,,,main,None,None,1,1.4965629000216722,373.50338449998526,None,None,1,,,,,,,,,,,,,,208,2023-03-31_13h41.17.183,Main,2022.1.1,59.82850756254131,
negative,blue,2,None,k,,,,,,,,,0,76,76,76,,,,,,,,,,,,,,,,,main,None,None,1,1.5019494000007398,376.0016031000123,None,None,1,,,,,,,,,,,,,,208,2023-03-31_13h41.17.183,Main,2022.1.1,59.82850756254131,
negative,yellow,1,k,None,,,,,,,,,0,77,77,77,,,,,,,,,,,,,,,,,main,k,k,1,0.4491490999935195,378.5032937999931,None,None,0,,,,,,,,,,,,,,208,2023-03-31_13h41.17.183,Main,2022.1.1,59.82850756254131,
positive,blue,1,k,None,,,,,,,,,0,78,78,78,,,,,,,,,,,,,,,,,main,k,k,1,1.5628831000067294,379.9532501999929,None,None,0,,,,,,,,,,,,,,208,2023-03-31_13h41.17.183,Main,2022.1.1,59.82850756254131,
positive,blue,1,k,None,,,,,,,,,0,79,79,79,,,,,,,,,,,,,,,,,main,k,k,1,0.7681038999871816,383.5198404999974,None,None,0,,,,,,,,,,,,,,208,2023-03-31_13h41.17.183,Main,2022.1.1,59.82850756254131,
positive,red,2,None,None,,,,,,,,,0,80,80,80,,,,,,,,,,,,,,,,,main,None,None,1,1.4961291999788955,385.2864506999904,None,None,1,,,,,,,,,,,,,,208,2023-03-31_13h41.17.183,Main,2022.1.1,59.82850756254131,
positive,yellow,2,None,k,,,,,,,,,0,81,81,81,,,,,,,,,,,,,,,,,main,None,None,1,1.5015307999856304,387.7837870999938,None,None,1,,,,,,,,,,,,,,208,2023-03-31_13h41.17.183,Main,2022.1.1,59.82850756254131,
positive,blue,1,k,None,,,,,,,,,0,82,82,82,,,,,,,,,,,,,,,,,main,k,k,1,0.8496317000244744,390.2864555999986,None,None,0,,,,,,,,,,,,,,208,2023-03-31_13h41.17.183,Main,2022.1.1,59.82850756254131,
negative,yellow,2,k,None,,,,,,,,,0,83,83,83,,,,,,,,,,,,,,,,,main,k,k,1,0.6464699999778531,392.13415490000625,None,None,0,,,,,,,,,,,,,,208,2023-03-31_13h41.17.183,Main,2022.1.1,59.82850756254131,
positive,blue,2,k,None,,,,,,,,,0,84,84,84,,,,,,,,,,,,,,,,,main,k,k,1,1.4988421000016388,393.7861988999939,None,None,0,,,,,,,,,,,,,,208,2023-03-31_13h41.17.183,Main,2022.1.1,59.82850756254131,
positive,yellow,1,None,k,,,,,,,,,0,85,85,85,,,,,,,,,,,,,,,,,main,None,None,1,1.501677699998254,396.28379369998584,None,None,1,,,,,,,,,,,,,,208,2023-03-31_13h41.17.183,Main,2022.1.1,59.82850756254131,
positive,blue,2,k,None,,,,,,,,,0,86,86,86,,,,,,,,,,,,,,,,,main,k,k,1,1.4993038999964483,398.7862509000115,None,None,0,,,,,,,,,,,,,,208,2023-03-31_13h41.17.183,Main,2022.1.1,59.82850756254131,
positive,blue,1,k,None,,,,,,,,,0,87,87,87,,,,,,,,,,,,,,,,,main,k,k,1,-0.7278495999926236,401.2861905999889,None,None,0,,,,,,,,,,,,,,208,2023-03-31_13h41.17.183,Main,2022.1.1,59.82850756254131,
negative,yellow,2,k,None,,,,,,,,,0,88,88,88,,,,,,,,,,,,,,,,,main,k,k,1,1.5178699000098277,404.56935149998753,None,None,0,,,,,,,,,,,,,,208,2023-03-31_13h41.17.183,Main,2022.1.1,59.82850756254131,
negative,blue,2,None,k,,,,,,,,,0,89,89,89,,,,,,,,,,,,,,,,,main,None,None,1,1.487189200008288,408.10001100000227,None,None,1,,,,,,,,,,,,,,208,2023-03-31_13h41.17.183,Main,2022.1.1,59.82850756254131,
positive,yellow,2,None,k,,,,,,,,,0,90,90,90,,,,,,,,,,,,,,,,,main,None,None,1,1.498855600017123,410.58616380000603,None,None,1,,,,,,,,,,,,,,208,2023-03-31_13h41.17.183,Main,2022.1.1,59.82850756254131,
negative,yellow,1,k,None,,,,,,,,,0,91,91,91,,,,,,,,,,,,,,,,,main,k,k,1,2.680042699998012,413.08591490000254,None,None,0,,,,,,,,,,,,,,208,2023-03-31_13h41.17.183,Main,2022.1.1,59.82850756254131,
negative,red,2,None,None,,,,,,,,,0,92,92,92,,,,,,,,,,,,,,,,,main,None,None,1,1.4866245000157505,417.76649780001026,None,None,1,,,,,,,,,,,,,,208,2023-03-31_13h41.17.183,Main,2022.1.1,59.82850756254131,
negative,blue,2,None,k,,,,,,,,,0,93,93,93,,,,,,,,,,,,,,,,,main,None,None,1,1.4978914000093937,420.2525672999909,None,None,1,,,,,,,,,,,,,,208,2023-03-31_13h41.17.183,Main,2022.1.1,59.82850756254131,
negative,blue,1,None,k,,,,,,,,,0,94,94,94,,,,,,,,,,,,,,,,,main,None,None,1,1.4968250999809243,422.7524025999883,None,None,1,,,,,,,,,,,,,,208,2023-03-31_13h41.17.183,Main,2022.1.1,59.82850756254131,
negative,blue,1,None,k,,,,,,,,,0,95,95,95,,,,,,,,,,,,,,,,,main,None,None,1,1.4987943999876734,425.2522801999876,None,None,1,,,,,,,,,,,,,,208,2023-03-31_13h41.17.183,Main,2022.1.1,59.82850756254131,
negative,red,1,None,None,,,,,,,,,0,96,96,96,,,,,,,,,,,,,,,,,main,None,None,1,1.501499900012277,427.74959009999293,None,None,1,,,,,,,,,,,,,,208,2023-03-31_13h41.17.183,Main,2022.1.1,59.82850756254131,
positive,yellow,1,None,k,,,,,,,,,0,97,97,97,,,,,,,,,,,,,,,,,main,None,None,1,1.4965271999826655,430.25220729998546,None,None,1,,,,,,,,,,,,,,208,2023-03-31_13h41.17.183,Main,2022.1.1,59.82850756254131,
negative,yellow,1,k,None,,,,,,,,,0,98,98,98,,,,,,,,,,,,,,,,,main,k,k,1,0.935194700025022,432.749757499987,None,None,0,,,,,,,,,,,,,,208,2023-03-31_13h41.17.183,Main,2022.1.1,59.82850756254131,
positive,red,1,None,None,,,,,,,,,0,99,99,99,,,,,,,,,,,,,,,,,main,None,None,1,1.496762700000545,434.68527919999906,None,None,1,,,,,,,,,,,,,,208,2023-03-31_13h41.17.183,Main,2022.1.1,59.82850756254131,
positive,blue,1,k,None,,,,,,,,,0,100,100,100,,,,,,,,,,,,,,,,,main,k,k,1,6.332322700007353,437.1827372999978,None,None,0,,,,,,,,,,,,,,208,2023-03-31_13h41.17.183,Main,2022.1.1,59.82850756254131,
negative,yellow,1,k,None,,,,,,,,,0,101,101,101,,,,,,,,,,,,,,,,,main,k,k,1,1.1850552999821957,445.5163961999933,None,None,0,,,,,,,,,,,,,,208,2023-03-31_13h41.17.183,Main,2022.1.1,59.82850756254131,
negative,blue,2,None,k,,,,,,,,,0,102,102,102,,,,,,,,,,,,,,,,,main,None,None,1,1.5007875000010245,447.7017172999913,None,None,1,,,,,,,,,,,,,,208,2023-03-31_13h41.17.183,Main,2022.1.1,59.82850756254131,
negative,yellow,2,k,None,,,,,,,,,0,103,103,103,,,,,,,,,,,,,,,,,main,k,k,1,1.130567999993218,450.1994335000054,None,None,0,,,,,,,,,,,,,,208,2023-03-31_13h41.17.183,Main,2022.1.1,59.82850756254131,
positive,yellow,2,None,k,,,,,,,,,0,104,104,104,,,,,,,,,,,,,,,,,main,None,None,1,1.5009921999881044,452.3327264999971,None,None,1,,,,,,,,,,,,,,208,2023-03-31_13h41.17.183,Main,2022.1.1,59.82850756254131,
positive,blue,1,k,None,,,,,,,,,0,105,105,105,,,,,,,,,,,,,,,,,main,k,k,1,1.180574500001967,454.83481790000224,None,None,0,,,,,,,,,,,,,,208,2023-03-31_13h41.17.183,Main,2022.1.1,59.82850756254131,
positive,blue,2,k,None,,,,,,,,,0,106,106,106,,,,,,,,,,,,,,,,,main,k,k,1,0.815704899985576,457.016166699992,None,None,0,,,,,,,,,,,,,,208,2023-03-31_13h41.17.183,Main,2022.1.1,59.82850756254131,
negative,blue,1,None,k,,,,,,,,,0,107,107,107,,,,,,,,,,,,,,,,,main,None,None,1,1.4985719000105746,458.83796529998654,None,None,1,,,,,,,,,,,,,,208,2023-03-31_13h41.17.183,Main,2022.1.1,59.82850756254131,
positive,yellow,2,None,k,,,,,,,,,0,108,108,108,,,,,,,,,,,,,,,,,main,None,None,1,1.5014957000094,461.3322577000072,None,None,1,,,,,,,,,,,,,,208,2023-03-31_13h41.17.183,Main,2022.1.1,59.82850756254131,
negative,yellow,1,k,None,,,,,,,,,0,109,109,109,,,,,,,,,,,,,,,,,main,k,k,1,1.3302964000031352,463.8347594999941,None,None,0,,,,,,,,,,,,,,208,2023-03-31_13h41.17.183,Main,2022.1.1,59.82850756254131,
negative,blue,2,None,k,,,,,,,,,0,110,110,110,,,,,,,,,,,,,,,,,main,None,None,1,1.5018962000031024,466.16561860000365,None,None,1,,,,,,,,,,,,,,208,2023-03-31_13h41.17.183,Main,2022.1.1,59.82850756254131,
positive,blue,2,k,None,,,,,,,,,0,111,111,111,,,,,,,,,,,,,,,,,main,k,k,1,0.7637825999991037,468.6680973999901,None,None,0,,,,,,,,,,,,,,208,2023-03-31_13h41.17.183,Main,2022.1.1,59.82850756254131,
negative,blue,1,None,k,,,,,,,,,0,112,112,112,,,,,,,,,,,,,,,,,main,None,None,1,1.498193400009768,470.43470069998875,None,None,1,,,,,,,,,,,,,,208,2023-03-31_13h41.17.183,Main,2022.1.1,59.82850756254131,
positive,yellow,1,None,k,,,,,,,,,0,113,113,113,,,,,,,,,,,,,,,,,main,None,None,1,1.5017386999970768,472.93203009999706,None,None,1,,,,,,,,,,,,,,208,2023-03-31_13h41.17.183,Main,2022.1.1,59.82850756254131,
negative,red,1,None,None,,,,,,,,,0,114,114,114,,,,,,,,,,,,,,,,,main,None,None,1,1.4986722999892663,475.4345614000049,None,None,1,,,,,,,,,,,,,,208,2023-03-31_13h41.17.183,Main,2022.1.1,59.82850756254131,
positive,red,1,None,None,,,,,,,,,0,115,115,115,,,,,,,,,,,,,,,,,main,None,None,1,1.497543699981179,477.93447300000116,None,None,1,,,,,,,,,,,,,,208,2023-03-31_13h41.17.183,Main,2022.1.1,59.82850756254131,
negative,red,2,None,None,,,,,,,,,0,116,116,116,,,,,,,,,,,,,,,,,main,None,None,1,1.500923999992665,480.4319533999951,None,None,1,,,,,,,,,,,,,,208,2023-03-31_13h41.17.183,Main,2022.1.1,59.82850756254131,
negative,yellow,2,k,None,,,,,,,,,0,117,117,117,,,,,,,,,,,,,,,,,main,k,k,1,1.5573735000216402,482.9344153999991,None,None,0,,,,,,,,,,,,,,208,2023-03-31_13h41.17.183,Main,2022.1.1,59.82850756254131,
positive,yellow,1,None,k,,,,,,,,,0,118,118,118,,,,,,,,,,,,,,,,,main,None,None,1,1.500624499982223,486.4983555999934,None,None,1,,,,,,,,,,,,,,208,2023-03-31_13h41.17.183,Main,2022.1.1,59.82850756254131,
positive,red,2,None,None,,,,,,,,,0,119,119,119,,,,,,,,,,,,,,,,,main,None,None,1,1.5013124999823049,488.9983573000063,None,None,1,,,,,,,,,,,,,,208,2023-03-31_13h41.17.183,Main,2022.1.1,59.82850756254131,
positive,blue,2,k,None,,,,,,,,,0,120,120,120,,,,,,,,,,,,,,,,,main,k,k,1,1.38250639999751,491.5009715000051,None,None,0,,,,,,,,,,,,,,208,2023-03-31_13h41.17.183,Main,2022.1.1,59.82850756254131,
negative,red,1,None,None,,,,,,,,,0,121,121,121,,,,,,,,,,,,,,,,,main,None,None,1,1.4964452000276651,493.881804500008,None,None,1,,,,,,,,,,,,,,208,2023-03-31_13h41.17.183,Main,2022.1.1,59.82850756254131,
positive,yellow,2,None,k,,,,,,,,,0,122,122,122,,,,,,,,,,,,,,,,,main,None,None,1,1.501658099994529,496.38175910001155,None,None,1,,,,,,,,,,,,,,208,2023-03-31_13h41.17.183,Main,2022.1.1,59.82850756254131,
negative,red,2,None,None,,,,,,,,,0,123,123,123,,,,,,,,,,,,,,,,,main,None,None,1,1.4966993999842089,498.8840205000015,None,None,1,,,,,,,,,,,,,,208,2023-03-31_13h41.17.183,Main,2022.1.1,59.82850756254131,
negative,yellow,2,k,None,,,,,,,,,0,124,124,124,,,,,,,,,,,,,,,,,main,k,k,1,1.6851227000006475,501.3813283999916,None,None,0,,,,,,,,,,,,,,208,2023-03-31_13h41.17.183,Main,2022.1.1,59.82850756254131,
positive,red,1,None,None,,,,,,,,,0,125,125,125,,,,,,,,,,,,,,,,,main,None,None,1,1.5008753000001889,505.06722530000843,None,None,1,,,,,,,,,,,,,,208,2023-03-31_13h41.17.183,Main,2022.1.1,59.82850756254131,
negative,blue,2,None,k,,,,,,,,,0,126,126,126,,,,,,,,,,,,,,,,,main,None,None,1,1.4963857000111602,507.56483769998886,None,None,1,,,,,,,,,,,,,,208,2023-03-31_13h41.17.183,Main,2022.1.1,59.82850756254131,
negative,blue,1,None,k,,,,,,,,,0,127,127,127,,,,,,,,,,,,,,,,,main,None,None,1,1.5017319000035059,510.0704899999837,None,None,1,,,,,,,,,,,,,,208,2023-03-31_13h41.17.183,Main,2022.1.1,59.82850756254131,
negative,yellow,1,k,None,,,,,,,,,0,128,128,128,,,,,,,,,,,,,,,,,main,k,k,1,1.1663818999950308,512.5670488000032,None,None,0,,,,,,,,,,,,,,208,2023-03-31_13h41.17.183,Main,2022.1.1,59.82850756254131,
negative,yellow,1,k,None,,,,,,,,,0,129,129,129,,,,,,,,,,,,,,,,,main,k,k,1,0.8297212999896146,514.7337445000012,None,None,0,,,,,,,,,,,,,,208,2023-03-31_13h41.17.183,Main,2022.1.1,59.82850756254131,
positive,blue,1,k,None,,,,,,,,,0,130,130,130,,,,,,,,,,,,,,,,,main,k,k,1,1.2491025000053924,516.5643314000044,None,None,0,,,,,,,,,,,,,,208,2023-03-31_13h41.17.183,Main,2022.1.1,59.82850756254131,
negative,blue,1,None,k,,,,,,,,,0,131,131,131,,,,,,,,,,,,,,,,,main,None,None,1,1.5013549999857787,518.8146134999988,None,None,1,,,,,,,,,,,,,,208,2023-03-31_13h41.17.183,Main,2022.1.1,59.82850756254131,
negative,blue,2,None,k,,,,,,,,,0,132,132,132,,,,,,,,,,,,,,,,,main,None,None,1,1.4970380000013392,521.3169408999966,None,None,1,,,,,,,,,,,,,,208,2023-03-31_13h41.17.183,Main,2022.1.1,59.82850756254131,
positive,blue,2,k,None,,,,,,,,,0,133,133,133,,,,,,,,,,,,,,,,,main,k,k,1,0.88254630001029,523.8144799000002,None,None,0,,,,,,,,,,,,,,208,2023-03-31_13h41.17.183,Main,2022.1.1,59.82850756254131,
positive,red,2,None,None,,,,,,,,,0,134,134,134,,,,,,,,,,,,,,,,,main,None,None,1,1.5012652000004891,525.6975049999892,None,None,1,,,,,,,,,,,,,,208,2023-03-31_13h41.17.183,Main,2022.1.1,59.82850756254131,
negative,yellow,2,k,None,,,,,,,,,0,135,135,135,,,,,,,,,,,,,,,,,main,k,k,1,1.4327812000119593,528.2001536999887,None,None,0,,,,,,,,,,,,,,208,2023-03-31_13h41.17.183,Main,2022.1.1,59.82850756254131,
positive,yellow,2,None,k,,,,,,,,,0,136,136,136,,,,,,,,,,,,,,,,,main,None,None,1,1.4965320999908727,530.6311229999992,None,None,1,,,,,,,,,,,,,,208,2023-03-31_13h41.17.183,Main,2022.1.1,59.82850756254131,
positive,blue,1,k,None,,,,,,,,,0,137,137,137,,,,,,,,,,,,,,,,,main,k,k,1,3.3887054000224452,533.1315759999852,None,None,0,,,,,,,,,,,,,,208,2023-03-31_13h41.17.183,Main,2022.1.1,59.82850756254131,
positive,yellow,1,None,k,,,,,,,,,0,138,138,138,,,,,,,,,,,,,,,,,main,None,None,1,1.4872407000220846,538.5147175999882,None,None,1,,,,,,,,,,,,,,208,2023-03-31_13h41.17.183,Main,2022.1.1,59.82850756254131,
positive,yellow,1,None,k,,,,,,,,,0,139,139,139,,,,,,,,,,,,,,,,,main,None,None,1,1.5018751999887172,540.9998719999858,None,None,1,,,,,,,,,,,,,,208,2023-03-31_13h41.17.183,Main,2022.1.1,59.82850756254131,
positive,yellow,1,None,k,,,,,,,,,0,140,140,140,,,,,,,,,,,,,,,,,main,None,None,1,1.493022300011944,543.5013501000067,None,None,1,,,,,,,,,,,,,,208,2023-03-31_13h41.17.183,Main,2022.1.1,59.82850756254131,
positive,blue,1,k,None,,,,,,,,,0,141,141,141,,,,,,,,,,,,,,,,,main,k,k,1,1.1161962000187486,545.9970286999887,None,None,0,,,,,,,,,,,,,,208,2023-03-31_13h41.17.183,Main,2022.1.1,59.82850756254131,
positive,blue,2,k,None,,,,,,,,,0,142,142,142,,,,,,,,,,,,,,,,,main,k,k,1,0.7519287000177428,548.1137398999999,None,None,0,,,,,,,,,,,,,,208,2023-03-31_13h41.17.183,Main,2022.1.1,59.82850756254131,
positive,yellow,2,None,k,,,,,,,,,0,143,143,143,,,,,,,,,,,,,,,,,main,None,None,1,1.49872360000154,549.8663368999842,None,None,1,,,,,,,,,,,,,,208,2023-03-31_13h41.17.183,Main,2022.1.1,59.82850756254131,
negative,yellow,2,k,None,,,,,,,,,0,144,144,144,,,,,,,,,,,,,,,,,main,k,k,1,0.7303618000005372,552.3662348999933,None,None,0,,,,,,,,,,,,,,208,2023-03-31_13h41.17.183,Main,2022.1.1,59.82850756254131,
negative,blue,2,None,k,,,,,,,,,0,145,145,145,,,,,,,,,,,,,,,,,main,None,None,1,1.501267799991183,554.0969743999885,None,None,1,,,,,,,,,,,,,,208,2023-03-31_13h41.17.183,Main,2022.1.1,59.82850756254131,
negative,red,1,None,None,,,,,,,,,0,146,146,146,,,,,,,,,,,,,,,,,main,None,None,1,1.502198000001954,556.5995118999854,None,None,1,,,,,,,,,,,,,,208,2023-03-31_13h41.17.183,Main,2022.1.1,59.82850756254131,
positive,blue,1,k,None,,,,,,,,,0,147,147,147,,,,,,,,,,,,,,,,,main,k,k,1,0.8106781000096817,559.1006782999902,None,None,0,,,,,,,,,,,,,,208,2023-03-31_13h41.17.183,Main,2022.1.1,59.82850756254131,
positive,yellow,1,None,k,,,,,,,,,0,148,148,148,,,,,,,,,,,,,,,,,main,None,None,1,1.4986379999900237,560.9159069999878,None,None,1,,,,,,,,,,,,,,208,2023-03-31_13h41.17.183,Main,2022.1.1,59.82850756254131,
negative,red,2,None,None,,,,,,,,,0,149,149,149,,,,,,,,,,,,,,,,,main,None,None,1,1.5013427000085358,563.4134102000098,None,None,1,,,,,,,,,,,,,,208,2023-03-31_13h41.17.183,Main,2022.1.1,59.82850756254131,
negative,blue,1,None,k,,,,,,,,,0,150,150,150,,,,,,,,,,,,,,,,,main,None,None,1,1.4967073999869172,565.9159055000055,None,None,1,,,,,,,,,,,,,,208,2023-03-31_13h41.17.183,Main,2022.1.1,59.82850756254131,
negative,yellow,2,k,None,,,,,,,,,0,151,151,151,,,,,,,,,,,,,,,,,main,k,k,1,0.6661507999815512,568.4132428999874,None,None,0,,,,,,,,,,,,,,208,2023-03-31_13h41.17.183,Main,2022.1.1,59.82850756254131,
negative,blue,2,None,k,,,,,,,,,0,152,152,152,,,,,,,,,,,,,,,,,main,None,None,1,1.5015831000055186,570.0799410000036,None,None,1,,,,,,,,,,,,,,208,2023-03-31_13h41.17.183,Main,2022.1.1,59.82850756254131,
negative,yellow,1,k,None,,,,,,,,,0,153,153,153,,,,,,,,,,,,,,,,,main,k,k,1,1.6139791999885347,572.582398700004,None,None,0,,,,,,,,,,,,,,208,2023-03-31_13h41.17.183,Main,2022.1.1,59.82850756254131,
negative,blue,1,None,k,,,,,,,,,0,154,154,154,,,,,,,,,,,,,,,,,main,None,None,1,1.4977213999954984,576.1990808999981,None,None,1,,,,,,,,,,,,,,208,2023-03-31_13h41.17.183,Main,2022.1.1,59.82850756254131,
positive,yellow,2,None,k,,,,,,,,,0,155,155,155,,,,,,,,,,,,,,,,,main,None,k,0,0.7305840000044554,578.6965819000034,None,None,1,,,,,,,,,,,,,,208,2023-03-31_13h41.17.183,Main,2022.1.1,59.82850756254131,
positive,red,2,None,None,,,,,,,,,0,156,156,156,,,,,,,,,,,,,,,,,main,None,None,1,1.4994022000173572,581.4321232000075,None,None,1,,,,,,,,,,,,,,208,2023-03-31_13h41.17.183,Main,2022.1.1,59.82850756254131,
positive,red,1,None,None,,,,,,,,,0,157,157,157,,,,,,,,,,,,,,,,,main,None,None,1,1.5008354999881703,583.9295691000007,None,None,1,,,,,,,,,,,,,,208,2023-03-31_13h41.17.183,Main,2022.1.1,59.82850756254131,
positive,blue,2,k,None,,,,,,,,,0,158,158,158,,,,,,,,,,,,,,,,,main,k,k,1,1.616036499995971,586.432249800011,None,None,0,,,,,,,,,,,,,,208,2023-03-31_13h41.17.183,Main,2022.1.1,59.82850756254131,
negative,yellow,1,k,None,,,,,,,,,0,159,159,159,,,,,,,,,,,,,,,,,main,k,k,1,1.637639799999306,590.0629549000005,None,None,0,,,,,,,,,,,,,,208,2023-03-31_13h41.17.183,Main,2022.1.1,59.82850756254131,
negative,red,2,None,None,,,,,,,,,0,160,160,160,,,,,,,,,,,,,,,,,main,None,None,1,1.4982980999920983,593.6986278000113,None,None,1,,,,,,,,,,,,,,208,2023-03-31_13h41.17.183,Main,2022.1.1,59.82850756254131,
negative,blue,1,None,k,,,,,,,,,0,161,161,161,,,,,,,,,,,,,,,,,main,None,None,1,1.5027074000099674,596.1959518000076,None,None,1,,,,,,,,,,,,,,208,2023-03-31_13h41.17.183,Main,2022.1.1,59.82850756254131,
negative,blue,1,None,k,,,,,,,,,0,162,162,162,,,,,,,,,,,,,,,,,main,None,None,1,1.498178799985908,598.6984891000029,None,None,1,,,,,,,,,,,,,,208,2023-03-31_13h41.17.183,Main,2022.1.1,59.82850756254131,
negative,yellow,1,k,None,,,,,,,,,0,163,163,163,,,,,,,,,,,,,,,,,main,k,k,1,0.9491886000032537,601.1985882000008,None,None,0,,,,,,,,,,,,,,208,2023-03-31_13h41.17.183,Main,2022.1.1,59.82850756254131,
negative,yellow,1,k,None,,,,,,,,,0,164,164,164,,,,,,,,,,,,,,,,,main,k,k,1,1.3468256999913137,603.146096499986,None,None,0,,,,,,,,,,,,,,208,2023-03-31_13h41.17.183,Main,2022.1.1,59.82850756254131,
positive,yellow,1,None,k,,,,,,,,,0,165,165,165,,,,,,,,,,,,,,,,,main,None,None,1,1.5016653000202496,605.4959109000047,None,None,1,,,,,,,,,,,,,,208,2023-03-31_13h41.17.183,Main,2022.1.1,59.82850756254131,
negative,red,1,None,None,,,,,,,,,0,166,166,166,,,,,,,,,,,,,,,,,main,None,None,1,1.4991786000027787,607.9984017999959,None,None,1,,,,,,,,,,,,,,208,2023-03-31_13h41.17.183,Main,2022.1.1,59.82850756254131,
negative,yellow,2,k,None,,,,,,,,,0,167,167,167,,,,,,,,,,,,,,,,,main,k,k,1,1.3132510000141338,610.498339599988,None,None,0,,,,,,,,,,,,,,208,2023-03-31_13h41.17.183,Main,2022.1.1,59.82850756254131,
positive,blue,2,k,None,,,,,,,,,0,168,168,168,,,,,,,,,,,,,,,,,main,k,k,1,0.9520067000121344,612.8122954999853,None,None,0,,,,,,,,,,,,,,208,2023-03-31_13h41.17.183,Main,2022.1.1,59.82850756254131,
positive,red,2,None,None,,,,,,,,,0,169,169,169,,,,,,,,,,,,,,,,,main,None,None,1,1.4987994999974035,614.7648897999898,None,None,1,,,,,,,,,,,,,,208,2023-03-31_13h41.17.183,Main,2022.1.1,59.82850756254131,
positive,red,1,None,None,,,,,,,,,0,170,170,170,,,,,,,,,,,,,,,,,main,None,None,1,1.4986571999907028,617.2648408999958,None,None,1,,,,,,,,,,,,,,208,2023-03-31_13h41.17.183,Main,2022.1.1,59.82850756254131,
negative,blue,2,None,k,,,,,,,,,0,171,171,171,,,,,,,,,,,,,,,,,main,None,None,1,1.496417799993651,619.7624316999863,None,None,1,,,,,,,,,,,,,,208,2023-03-31_13h41.17.183,Main,2022.1.1,59.82850756254131,
positive,blue,2,k,None,,,,,,,,,0,172,172,172,,,,,,,,,,,,,,,,,main,k,k,1,0.7334208999818657,622.2620593000029,None,None,0,,,,,,,,,,,,,,208,2023-03-31_13h41.17.183,Main,2022.1.1,59.82850756254131,
negative,yellow,2,k,None,,,,,,,,,0,173,173,173,,,,,,,,,,,,,,,,,main,k,k,1,0.8178788000077475,623.9980019000068,None,None,0,,,,,,,,,,,,,,208,2023-03-31_13h41.17.183,Main,2022.1.1,59.82850756254131,
positive,yellow,2,None,k,,,,,,,,,0,174,174,174,,,,,,,,,,,,,,,,,main,None,None,1,1.496609299996635,625.8146203999931,None,None,1,,,,,,,,,,,,,,208,2023-03-31_13h41.17.183,Main,2022.1.1,59.82850756254131,
negative,blue,2,None,k,,,,,,,,,0,175,175,175,,,,,,,,,,,,,,,,,main,None,None,1,1.4988843000028282,628.3122148000111,None,None,1,,,,,,,,,,,,,,208,2023-03-31_13h41.17.183,Main,2022.1.1,59.82850756254131,
positive,blue,1,k,None,,,,,,,,,0,176,176,176,,,,,,,,,,,,,,,,,main,k,k,1,2.285731100011617,630.8118689999974,None,None,0,,,,,,,,,,,,,,208,2023-03-31_13h41.17.183,Main,2022.1.1,59.82850756254131,
positive,yellow,1,None,k,,,,,,,,,0,177,177,177,,,,,,,,,,,,,,,,,main,None,None,1,1.5010258999827784,635.0980147999944,None,None,1,,,,,,,,,,,,,,208,2023-03-31_13h41.17.183,Main,2022.1.1,59.82850756254131,
positive,blue,1,k,None,,,,,,,,,0,178,178,178,,,,,,,,,,,,,,,,,main,k,k,1,1.2988480999774765,637.5955857000081,None,None,0,,,,,,,,,,,,,,208,2023-03-31_13h41.17.183,Main,2022.1.1,59.82850756254131,
positive,yellow,2,None,k,,,,,,,,,0,179,179,179,,,,,,,,,,,,,,,,,main,None,None,1,1.499028599995654,639.895334300003,None,None,1,,,,,,,,,,,,,,208,2023-03-31_13h41.17.183,Main,2022.1.1,59.82850756254131,
positive,blue,1,k,None,,,,,,,,,0,180,180,180,,,,,,,,,,,,,,,,,main,k,k,1,1.3324811999918893,642.3952721999958,None,None,0,,,,,,,,,,,,,,208,2023-03-31_13h41.17.183,Main,2022.1.1,59.82850756254131,
negative,red,1,None,None,,,,,,,,,0,181,181,181,,,,,,,,,,,,,,,,,main,None,None,1,1.4971374000015203,644.7307803999865,None,None,1,,,,,,,,,,,,,,208,2023-03-31_13h41.17.183,Main,2022.1.1,59.82850756254131,
negative,blue,1,None,k,,,,,,,,,0,182,182,182,,,,,,,,,,,,,,,,,main,None,k,0,1.0682834000035655,647.228256500006,None,None,1,,,,,,,,,,,,,,208,2023-03-31_13h41.17.183,Main,2022.1.1,59.82850756254131,
negative,yellow,2,k,None,,,,,,,,,0,183,183,183,,,,,,,,,,,,,,,,,main,k,k,1,1.434728099993663,650.2974810999876,None,None,0,,,,,,,,,,,,,,208,2023-03-31_13h41.17.183,Main,2022.1.1,59.82850756254131,
positive,yellow,2,None,k,,,,,,,,,0,184,184,184,,,,,,,,,,,,,,,,,main,None,None,1,1.4958297999983188,652.7306958000117,None,None,1,,,,,,,,,,,,,,208,2023-03-31_13h41.17.183,Main,2022.1.1,59.82850756254131,
positive,yellow,1,None,k,,,,,,,,,0,185,185,185,,,,,,,,,,,,,,,,,main,None,None,1,1.5019800000009127,655.2280337999982,None,None,1,,,,,,,,,,,,,,208,2023-03-31_13h41.17.183,Main,2022.1.1,59.82850756254131,
positive,red,2,None,None,,,,,,,,,0,186,186,186,,,,,,,,,,,,,,,,,main,None,None,1,1.4990918999828864,657.7306614000117,None,None,1,,,,,,,,,,,,,,208,2023-03-31_13h41.17.183,Main,2022.1.1,59.82850756254131,
positive,blue,1,k,None,,,,,,,,,0,187,187,187,,,,,,,,,,,,,,,,,main,k,k,1,1.4303583000146318,660.2306503999862,None,None,0,,,,,,,,,,,,,,208,2023-03-31_13h41.17.183,Main,2022.1.1,59.82850756254131,
negative,yellow,1,k,None,,,,,,,,,0,188,188,188,,,,,,,,,,,,,,,,,main,k,k,1,1.049077000003308,662.6615638000076,None,None,0,,,,,,,,,,,,,,208,2023-03-31_13h41.17.183,Main,2022.1.1,59.82850756254131,
positive,yellow,2,None,k,,,,,,,,,0,189,189,189,,,,,,,,,,,,,,,,,main,None,k,0,0.9679803000180982,664.7112032999867,None,None,1,,,,,,,,,,,,,,208,2023-03-31_13h41.17.183,Main,2022.1.1,59.82850756254131,
negative,yellow,2,k,None,,,,,,,,,0,190,190,190,,,,,,,,,,,,,,,,,main,k,k,1,1.0323723000183236,667.6803932999901,None,None,0,,,,,,,,,,,,,,208,2023-03-31_13h41.17.183,Main,2022.1.1,59.82850756254131,
negative,yellow,1,k,None,,,,,,,,,0,191,191,191,,,,,,,,,,,,,,,,,main,k,k,1,1.1153786999930162,669.7135658999905,None,None,0,,,,,,,,,,,,,,208,2023-03-31_13h41.17.183,Main,2022.1.1,59.82850756254131,
positive,blue,2,k,None,,,,,,,,,0,192,192,192,,,,,,,,,,,,,,,,,main,k,k,1,2.1825781000079587,671.8301295999845,None,None,0,,,,,,,,,,,,,,208,2023-03-31_13h41.17.183,Main,2022.1.1,59.82850756254131,
positive,yellow,1,None,k,,,,,,,,,0,193,193,193,,,,,,,,,,,,,,,,,main,None,None,1,1.500655200012261,676.0134433000057,None,None,1,,,,,,,,,,,,,,208,2023-03-31_13h41.17.183,Main,2022.1.1,59.82850756254131,
negative,red,2,None,None,,,,,,,,,0,194,194,194,,,,,,,,,,,,,,,,,main,None,None,1,1.4988240000093356,678.5133325000061,None,None,1,,,,,,,,,,,,,,208,2023-03-31_13h41.17.183,Main,2022.1.1,59.82850756254131,
positive,red,1,None,None,,,,,,,,,0,195,195,195,,,,,,,,,,,,,,,,,main,None,None,1,1.4992996999935713,681.0132669000013,None,None,1,,,,,,,,,,,,,,208,2023-03-31_13h41.17.183,Main,2022.1.1,59.82850756254131,
negative,blue,1,None,k,,,,,,,,,0,196,196,196,,,,,,,,,,,,,,,,,main,None,k,0,1.4299925999948755,683.5111092999869,None,None,1,,,,,,,,,,,,,,208,2023-03-31_13h41.17.183,Main,2022.1.1,59.82850756254131,
positive,blue,2,k,None,,,,,,,,,0,197,197,197,,,,,,,,,,,,,,,,,main,k,k,1,1.1539901999931317,686.9440560000075,None,None,0,,,,,,,,,,,,,,208,2023-03-31_13h41.17.183,Main,2022.1.1,59.82850756254131,
negative,blue,2,None,k,,,,,,,,,0,198,198,198,,,,,,,,,,,,,,,,,main,None,None,1,1.4983664999890607,689.0965697999927,None,None,1,,,,,,,,,,,,,,208,2023-03-31_13h41.17.183,Main,2022.1.1,59.82850756254131,
negative,blue,2,None,k,,,,,,,,,0,199,199,199,,,,,,,,,,,,,,,,,main,None,None,1,1.4968068999878597,691.594170700002,None,None,1,,,,,,,,,,,,,,208,2023-03-31_13h41.17.183,Main,2022.1.1,59.82850756254131,
positive,blue,2,k,None,,,,,,,,,0,200,200,200,,,,,,,,,,,,,,,,,main,k,k,1,0.7850025000225287,694.0949185999925,None,None,0,,,,,,,,,,,,,,208,2023-03-31_13h41.17.183,Main,2022.1.1,59.82850756254131,
positive,blue,2,k,None,,,,,,,,,0,201,201,201,,,,,,,,,,,,,,,,,main,k,k,1,0.8485807000251953,695.8798065999872,None,None,0,,,,,,,,,,,,,,208,2023-03-31_13h41.17.183,Main,2022.1.1,59.82850756254131,
negative,yellow,2,k,None,,,,,,,,,0,202,202,202,,,,,,,,,,,,,,,,,main,k,k,1,2.3298453000024892,697.7299258999992,None,None,0,,,,,,,,,,,,,,208,2023-03-31_13h41.17.183,Main,2022.1.1,59.82850756254131,
positive,red,1,None,None,,,,,,,,,0,203,203,203,,,,,,,,,,,,,,,,,main,None,None,1,1.5011482999834698,702.062961699994,None,None,1,,,,,,,,,,,,,,208,2023-03-31_13h41.17.183,Main,2022.1.1,59.82850756254131,
negative,blue,2,None,k,,,,,,,,,0,204,204,204,,,,,,,,,,,,,,,,,main,None,None,1,1.496513199992478,704.5630023000122,None,None,1,,,,,,,,,,,,,,208,2023-03-31_13h41.17.183,Main,2022.1.1,59.82850756254131,
negative,red,1,None,None,,,,,,,,,0,205,205,205,,,,,,,,,,,,,,,,,main,None,None,1,1.5016659999964759,707.060568099987,None,None,1,,,,,,,,,,,,,,208,2023-03-31_13h41.17.183,Main,2022.1.1,59.82850756254131,
negative,blue,2,None,k,,,,,,,,,0,206,206,206,,,,,,,,,,,,,,,,,main,None,None,1,1.498423900018679,709.5627045999863,None,None,1,,,,,,,,,,,,,,208,2023-03-31_13h41.17.183,Main,2022.1.1,59.82850756254131,
negative,yellow,2,k,None,,,,,,,,,0,207,207,207,,,,,,,,,,,,,,,,,main,k,k,1,0.8496789000055287,712.0604046999943,None,None,0,,,,,,,,,,,,,,208,2023-03-31_13h41.17.183,Main,2022.1.1,59.82850756254131,
positive,yellow,2,None,k,,,,,,,,,0,208,208,208,,,,,,,,,,,,,,,,,main,None,None,1,1.4959553999942727,713.9125870999997,None,None,1,,,,,,,,,,,,,,208,2023-03-31_13h41.17.183,Main,2022.1.1,59.82850756254131,
negative,yellow,1,k,None,,,,,,,,,0,209,209,209,,,,,,,,,,,,,,,,,main,k,k,1,1.1184329999960028,716.4100537000049,None,None,0,,,,,,,,,,,,,,208,2023-03-31_13h41.17.183,Main,2022.1.1,59.82850756254131,
negative,red,2,None,None,,,,,,,,,0,210,210,210,,,,,,,,,,,,,,,,,main,None,None,1,1.499053300009109,718.5293436000065,None,None,1,,,,,,,,,,,,,,208,2023-03-31_13h41.17.183,Main,2022.1.1,59.82850756254131,
negative,blue,1,None,k,,,,,,,,,0,211,211,211,,,,,,,,,,,,,,,,,main,None,None,1,1.4989178999967407,721.0293783000088,None,None,1,,,,,,,,,,,,,,208,2023-03-31_13h41.17.183,Main,2022.1.1,59.82850756254131,
negative,yellow,1,k,None,,,,,,,,,0,212,212,212,,,,,,,,,,,,,,,,,main,k,k,1,0.7134506000147667,723.529028399993,None,None,0,,,,,,,,,,,,,,208,2023-03-31_13h41.17.183,Main,2022.1.1,59.82850756254131,
positive,blue,1,k,None,,,,,,,,,0,213,213,213,,,,,,,,,,,,,,,,,main,k,k,1,1.334888499986846,725.2431599999836,None,None,0,,,,,,,,,,,,,,208,2023-03-31_13h41.17.183,Main,2022.1.1,59.82850756254131,
positive,blue,1,k,None,,,,,,,,,0,214,214,214,,,,,,,,,,,,,,,,,main,k,k,1,0.6304681999899913,727.5790810000035,None,None,0,,,,,,,,,,,,,,208,2023-03-31_13h41.17.183,Main,2022.1.1,59.82850756254131,
positive,yellow,1,None,k,,,,,,,,,0,215,215,215,,,,,,,,,,,,,,,,,main,None,None,1,1.4986271999950986,729.2125608999922,None,None,1,,,,,,,,,,,,,,208,2023-03-31_13h41.17.183,Main,2022.1.1,59.82850756254131,
positive,yellow,1,None,k,,,,,,,,,0,216,216,216,,,,,,,,,,,,,,,,,main,None,None,1,1.5014781999925617,731.7100499999942,None,None,1,,,,,,,,,,,,,,208,2023-03-31_13h41.17.183,Main,2022.1.1,59.82850756254131,
positive,yellow,2,None,k,,,,,,,,,0,217,217,217,,,,,,,,,,,,,,,,,main,None,None,1,1.502204000018537,734.2123100000026,None,None,1,,,,,,,,,,,,,,208,2023-03-31_13h41.17.183,Main,2022.1.1,59.82850756254131,
negative,blue,1,None,k,,,,,,,,,0,218,218,218,,,,,,,,,,,,,,,,,main,None,None,1,1.4959735000156797,736.7135738999932,None,None,1,,,,,,,,,,,,,,208,2023-03-31_13h41.17.183,Main,2022.1.1,59.82850756254131,
positive,red,2,None,None,,,,,,,,,0,219,219,219,,,,,,,,,,,,,,,,,main,None,None,1,1.496386100014206,739.2150678999897,None,None,1,,,,,,,,,,,,,,208,2023-03-31_13h41.17.183,Main,2022.1.1,59.82850756254131,
positive,yellow,1,None,k,,,,,,,,,0,220,220,220,,,,,,,,,,,,,,,,,main,None,None,1,1.501795599993784,741.7095238000038,None,None,1,,,,,,,,,,,,,,208,2023-03-31_13h41.17.183,Main,2022.1.1,59.82850756254131,
positive,blue,1,k,None,,,,,,,,,0,221,221,221,,,,,,,,,,,,,,,,,main,k,k,1,2.7471617000119295,744.2120668999851,None,None,0,,,,,,,,,,,,,,208,2023-03-31_13h41.17.183,Main,2022.1.1,59.82850756254131,
positive,yellow,2,None,k,,,,,,,,,0,222,222,222,,,,,,,,,,,,,,,,,main,None,None,1,1.4869372000102885,748.9759937000053,None,None,1,,,,,,,,,,,,,,208,2023-03-31_13h41.17.183,Main,2022.1.1,59.82850756254131,
negative,yellow,1,k,None,,,,,,,,,0,223,223,223,,,,,,,,,,,,,,,,,main,k,k,1,0.7150668000103906,751.4619459999958,None,None,0,,,,,,,,,,,,,,208,2023-03-31_13h41.17.183,Main,2022.1.1,59.82850756254131,
positive,yellow,2,None,k,,,,,,,,,0,224,224,224,,,,,,,,,,,,,,,,,main,None,None,1,1.4965758999751415,753.1786409000051,None,None,1,,,,,,,,,,,,,,208,2023-03-31_13h41.17.183,Main,2022.1.1,59.82850756254131,
negative,yellow,2,k,None,,,,,,,,,0,225,225,225,,,,,,,,,,,,,,,,,main,k,k,1,0.9155371999950148,755.6765270000033,None,None,0,,,,,,,,,,,,,,208,2023-03-31_13h41.17.183,Main,2022.1.1,59.82850756254131,
negative,blue,2,None,k,,,,,,,,,0,226,226,226,,,,,,,,,,,,,,,,,main,None,None,1,1.4991352999932133,757.5924605999899,None,None,1,,,,,,,,,,,,,,208,2023-03-31_13h41.17.183,Main,2022.1.1,59.82850756254131,
positive,red,2,None,None,,,,,,,,,0,227,227,227,,,,,,,,,,,,,,,,,main,None,None,1,1.5018206000095233,760.0926633999916,None,None,1,,,,,,,,,,,,,,208,2023-03-31_13h41.17.183,Main,2022.1.1,59.82850756254131,
positive,blue,2,k,None,,,,,,,,,0,228,228,228,,,,,,,,,,,,,,,,,main,k,k,1,0.09923089999938384,762.5950937999878,None,None,0,,,,,,,,,,,,,,208,2023-03-31_13h41.17.183,Main,2022.1.1,59.82850756254131,
negative,blue,1,None,k,,,,,,,,,0,229,229,229,,,,,,,,,,,,,,,,,main,None,None,1,1.5012617000029422,766.6949414999981,None,None,1,,,,,,,,,,,,,,208,2023-03-31_13h41.17.183,Main,2022.1.1,59.82850756254131,
positive,yellow,1,None,k,,,,,,,,,0,230,230,230,,,,,,,,,,,,,,,,,main,None,k,0,-0.24694889999227598,769.1928989999869,None,None,1,,,,,,,,,,,,,,208,2023-03-31_13h41.17.183,Main,2022.1.1,59.82850756254131,
negative,blue,2,None,k,,,,,,,,,0,231,231,231,,,,,,,,,,,,,,,,,main,None,None,1,1.4991063999768812,772.9614261999959,None,None,1,,,,,,,,,,,,,,208,2023-03-31_13h41.17.183,Main,2022.1.1,59.82850756254131,
negative,red,1,None,None,,,,,,,,,0,232,232,232,,,,,,,,,,,,,,,,,main,None,None,1,1.5009572000126354,775.4588113999926,None,None,1,,,,,,,,,,,,,,208,2023-03-31_13h41.17.183,Main,2022.1.1,59.82850756254131,
positive,blue,2,k,None,,,,,,,,,0,233,233,233,,,,,,,,,,,,,,,,,main,k,k,1,1.3634700999828056,777.9614323999849,None,None,0,,,,,,,,,,,,,,208,2023-03-31_13h41.17.183,Main,2022.1.1,59.82850756254131,
negative,yellow,1,k,None,,,,,,,,,0,234,234,234,,,,,,,,,,,,,,,,,main,k,k,1,0.8492072999943048,780.3252926999994,None,None,0,,,,,,,,,,,,,,208,2023-03-31_13h41.17.183,Main,2022.1.1,59.82850756254131,
negative,yellow,2,k,None,,,,,,,,,0,235,235,235,,,,,,,,,,,,,,,,,main,k,k,1,1.2165052999916952,782.175384400005,None,None,0,,,,,,,,,,,,,,208,2023-03-31_13h41.17.183,Main,2022.1.1,59.82850756254131,
positive,red,1,None,None,,,,,,,,,0,236,236,236,,,,,,,,,,,,,,,,,main,None,None,1,1.500469200022053,784.3947165999853,None,None,1,,,,,,,,,,,,,,208,2023-03-31_13h41.17.183,Main,2022.1.1,59.82850756254131,
negative,red,2,None,None,,,,,,,,,0,237,237,237,,,,,,,,,,,,,,,,,main,None,None,1,1.4977603000006638,786.8921070999932,None,None,1,,,,,,,,,,,,,,208,2023-03-31_13h41.17.183,Main,2022.1.1,59.82850756254131,
negative,blue,1,None,k,,,,,,,,,0,238,238,238,,,,,,,,,,,,,,,,,main,None,None,1,1.5008607000054326,789.391955500003,None,None,1,,,,,,,,,,,,,,208,2023-03-31_13h41.17.183,Main,2022.1.1,59.82850756254131,
positive,blue,1,k,None,,,,,,,,,0,239,239,239,,,,,,,,,,,,,,,,,main,k,k,1,0.7661662000173237,791.8944737999991,None,None,0,,,,,,,,,,,,,,208,2023-03-31_13h41.17.183,Main,2022.1.1,59.82850756254131,
,,,,,,,,,,,,,,,,,,,,,,,,,,,,,,,,,,,,,,,,,,,,,,,,,,,,,793.6611941999872,None,,,,,,
