distractor,target,set,ans1,ans2,rep_loop4.thisRepN,rep_loop4.thisTrialN,rep_loop4.thisN,rep_loop4.thisIndex,st2_prac_loop.thisRepN,st2_prac_loop.thisTrialN,st2_prac_loop.thisN,st2_prac_loop.thisIndex,st2_main_loop.thisRepN,st2_main_loop.thisTrialN,st2_main_loop.thisN,st2_main_loop.thisIndex,image_4.started,image_4.stopped,sound_2.started,sound_2.stopped,key_resp_3.keys,key_resp_3.rt,image_5.started,image_5.stopped,st_prac_back.started,st_prac_back.stopped,st_prac_text.started,st_prac_text.stopped,st_fix_back.started,st_fix_back.stopped,st_fix_2.started,st_fix_2.stopped,main_prac,st_ans,st_res,st_corr,st_rt,st_back.started,st_back.stopped,st2_resp.keys,st2_resp.corr,st_main_back.started,st_main_back.stopped,st_main_text.started,st_main_text.stopped,mouse_4.x,mouse_4.y,mouse_4.leftButton,mouse_4.midButton,mouse_4.rightButton,mouse_4.started,mouse_4.stopped,text_2.started,text_2.stopped,id*,date,expName,psychopyVersion,frameRate,
negative,yellow,1,k,None,,,,,0,0,0,0,,,,,31.507595500035677,None,36.941091040044554,None,space,58.999866000027396,95.96992699999828,None,97.33909750002204,None,97.33909750002204,None,99.33911140001146,None,99.33911140001146,None,prac,None,None,1,1.5026014999602921,101.35892790002981,None,None,1,,,,,,,,,,,,,,209,2023-04-04_13h46.45.495,Main,2022.1.1,60.062152313005356,
positive,red,2,None,None,,,,,0,1,1,1,,,,,,,,,,,,,,,,,,,,,prac,None,k,0,0.7334862000425346,103.87222350004595,None,None,1,,,,,,,,,,,,,,209,2023-04-04_13h46.45.495,Main,2022.1.1,60.062152313005356,
negative,blue,2,None,k,,,,,0,2,2,2,,,,,,,,,,,,,,,,,,,,,prac,k,k,1,3.9205837000044994,106.61955480003962,None,None,0,,,,,,,,,,,,,,209,2023-04-04_13h46.45.495,Main,2022.1.1,60.062152313005356,
positive,yellow,1,None,k,,,,,0,3,3,3,,,,,,,,,,,,,,,,,,,,,prac,k,k,1,0.7457369000185281,112.5371363000013,None,None,0,,,,,,,,,,,,,,209,2023-04-04_13h46.45.495,Main,2022.1.1,60.062152313005356,
negative,blue,2,None,k,,,,,0,4,4,4,,,,,,,,,,,,,,,,,,,,,prac,k,k,1,0.7347025999915786,114.28607210004702,None,None,0,,,,,,,,,,,,,,209,2023-04-04_13h46.45.495,Main,2022.1.1,60.062152313005356,
negative,blue,1,None,k,,,,,0,5,5,5,,,,,,,,,,,,,,,,,,,,,prac,k,k,1,1.0493289000005461,116.02204650000203,None,None,0,,,,,,,,,,,,,,209,2023-04-04_13h46.45.495,Main,2022.1.1,60.062152313005356,
negative,yellow,2,k,None,,,,,0,6,6,6,,,,,,,,,,,,,,,,,,,,,prac,None,None,1,1.496378400013782,118.07202990003861,None,None,1,,,,,,,,,,,,,,209,2023-04-04_13h46.45.495,Main,2022.1.1,60.062152313005356,
negative,red,1,None,None,,,,,0,7,7,7,,,,,,,,,,,,,,,,,,,,,prac,None,None,1,1.5017727999947965,120.56932890001917,None,None,1,,,,,,,,,,,,,,209,2023-04-04_13h46.45.495,Main,2022.1.1,60.062152313005356,
positive,yellow,2,None,k,,,,,0,8,8,8,,,,,,,,,,,,,,,,,,,,,prac,k,k,1,0.8800677999970503,123.07188780000433,None,None,0,,,,,,,,,,,,,,209,2023-04-04_13h46.45.495,Main,2022.1.1,60.062152313005356,
negative,yellow,1,k,None,,,,,0,9,9,9,,,,,,,,,,,,,,,,,,,,,prac,None,None,1,1.50154950004071,124.95249980001245,None,None,1,,,,,,,,,,,,,,209,2023-04-04_13h46.45.495,Main,2022.1.1,60.062152313005356,
positive,yellow,2,None,k,,,,,0,10,10,10,,,,,,,,,,,,,,,,,,,,,prac,k,k,1,1.3499526000232436,127.45510600000853,None,None,0,,,,,,,,,,,,,,209,2023-04-04_13h46.45.495,Main,2022.1.1,60.062152313005356,
negative,yellow,2,k,None,,,,,0,11,11,11,,,,,,,,,,,,,,,,,,,,,prac,None,None,1,1.4963687999988906,129.80502369999886,None,None,1,,,,,,,,,,,,,,209,2023-04-04_13h46.45.495,Main,2022.1.1,60.062152313005356,
negative,red,2,None,None,,,,,0,12,12,12,,,,,,,,,,,,,,,,,,,,,prac,None,None,1,1.5019305999740027,132.30235100002028,None,None,1,,,,,,,,,,,,,,209,2023-04-04_13h46.45.495,Main,2022.1.1,60.062152313005356,
positive,red,1,None,None,,,,,0,13,13,13,,,,,,,,,,,,,,,,,,,,,prac,None,None,1,1.498976299946662,134.8049694999936,None,None,1,,,,,,,,,,,,,,209,2023-04-04_13h46.45.495,Main,2022.1.1,60.062152313005356,
positive,blue,2,k,None,,,,,0,14,14,14,,,,,,,,,,,,,,,,,,,,,prac,None,None,1,1.4966115999850444,137.30253400001675,None,None,1,,,,,,,,,,,,,,209,2023-04-04_13h46.45.495,Main,2022.1.1,60.062152313005356,
positive,blue,1,k,None,,,,,0,15,15,15,,,,,,,,,,,,,,,,,,,,,prac,None,None,1,1.5018590000108816,139.80218620004598,None,None,1,,,,,,,,,,,,,,209,2023-04-04_13h46.45.495,Main,2022.1.1,60.062152313005356,
negative,blue,1,None,k,,,,,0,16,16,16,,,,,,,,,,,,,,,,,,,,,prac,k,k,1,1.0815304999705404,142.3049933000002,None,None,0,,,,,,,,,,,,,,209,2023-04-04_13h46.45.495,Main,2022.1.1,60.062152313005356,
positive,blue,2,k,None,,,,,0,17,17,17,,,,,,,,,,,,,,,,,,,,,prac,None,None,1,1.4962967000319622,144.38805579999462,None,None,1,,,,,,,,,,,,,,209,2023-04-04_13h46.45.495,Main,2022.1.1,60.062152313005356,
positive,blue,1,k,None,,,,,0,18,18,18,,,,,,,,,,,,,,,,,,,,,prac,None,None,1,1.5019623000407591,146.88536210003076,None,None,1,,,,,,,,,,,,,,209,2023-04-04_13h46.45.495,Main,2022.1.1,60.062152313005356,
positive,yellow,1,None,k,,,,,0,19,19,19,,,,,,,,,,,,,,,,,,,,,prac,k,k,1,0.866066700022202,149.38800910004647,None,None,0,,,,,,,,,,,,,,209,2023-04-04_13h46.45.495,Main,2022.1.1,60.062152313005356,
negative,yellow,1,k,None,,,,,1,0,20,0,,,,,,,,,,,,,,,,,,,,,prac,None,k,0,0.5961684999638237,151.2546100000036,None,None,1,,,,,,,,,,,,,,209,2023-04-04_13h46.45.495,Main,2022.1.1,60.062152313005356,
positive,red,2,None,None,,,,,1,1,21,1,,,,,,,,,,,,,,,,,,,,,prac,None,None,1,1.4877804999705404,153.85192510002526,None,None,1,,,,,,,,,,,,,,209,2023-04-04_13h46.45.495,Main,2022.1.1,60.062152313005356,
negative,blue,2,None,k,,,,,1,2,22,2,,,,,,,,,,,,,,,,,,,,,prac,k,k,1,0.9143192000337876,156.33785660000285,None,None,0,,,,,,,,,,,,,,209,2023-04-04_13h46.45.495,Main,2022.1.1,60.062152313005356,
positive,yellow,1,None,k,,,,,1,3,23,3,,,,,,,,,,,,,,,,,,,,,prac,k,k,1,0.7158688000054099,158.2543081000331,None,None,0,,,,,,,,,,,,,,209,2023-04-04_13h46.45.495,Main,2022.1.1,60.062152313005356,
negative,blue,2,None,k,,,,,1,4,24,4,,,,,,,,,,,,,,,,,,,,,prac,k,k,1,1.0967006999999285,159.97086490003858,None,None,0,,,,,,,,,,,,,,209,2023-04-04_13h46.45.495,Main,2022.1.1,60.062152313005356,
negative,blue,1,None,k,,,,,1,5,25,5,,,,,,,,,,,,,,,,,,,,,prac,k,k,1,0.6658928000251763,162.06835539999884,None,None,0,,,,,,,,,,,,,,209,2023-04-04_13h46.45.495,Main,2022.1.1,60.062152313005356,
negative,yellow,2,k,None,,,,,1,6,26,6,,,,,,,,,,,,,,,,,,,,,prac,None,None,1,1.5017818000051193,163.73505120002665,None,None,1,,,,,,,,,,,,,,209,2023-04-04_13h46.45.495,Main,2022.1.1,60.062152313005356,
negative,red,1,None,None,,,,,1,7,27,7,,,,,,,,,,,,,,,,,,,,,prac,None,None,1,1.4987574000260793,166.23763760004658,None,None,1,,,,,,,,,,,,,,209,2023-04-04_13h46.45.495,Main,2022.1.1,60.062152313005356,
positive,yellow,2,None,k,,,,,1,8,28,8,,,,,,,,,,,,,,,,,,,,,prac,k,k,1,0.7632968999678269,168.73743310000282,None,None,0,,,,,,,,,,,,,,209,2023-04-04_13h46.45.495,Main,2022.1.1,60.062152313005356,
negative,yellow,1,k,None,,,,,1,9,29,9,,,,,,,,,,,,,,,,,,,,,prac,None,None,1,1.5015310000162572,170.50152839999646,None,None,1,,,,,,,,,,,,,,209,2023-04-04_13h46.45.495,Main,2022.1.1,60.062152313005356,
positive,yellow,2,None,k,,,,,1,10,30,10,,,,,,,,,,,,,,,,,,,,,prac,k,k,1,0.8661388999898918,173.0040990000125,None,None,0,,,,,,,,,,,,,,209,2023-04-04_13h46.45.495,Main,2022.1.1,60.062152313005356,
negative,yellow,2,k,None,,,,,1,11,31,11,,,,,,,,,,,,,,,,,,,,,prac,None,None,1,1.4988525999942794,174.87078480003402,None,None,1,,,,,,,,,,,,,,209,2023-04-04_13h46.45.495,Main,2022.1.1,60.062152313005356,
negative,red,2,None,None,,,,,1,12,32,12,,,,,,,,,,,,,,,,,,,,,prac,None,None,1,1.496387900027912,177.37056790001225,None,None,1,,,,,,,,,,,,,,209,2023-04-04_13h46.45.495,Main,2022.1.1,60.062152313005356,
positive,red,1,None,None,,,,,1,13,33,13,,,,,,,,,,,,,,,,,,,,,prac,None,None,1,1.5019233000348322,179.86797780002235,None,None,1,,,,,,,,,,,,,,209,2023-04-04_13h46.45.495,Main,2022.1.1,60.062152313005356,
positive,blue,2,k,None,,,,,1,14,34,14,,,,,,,,,,,,,,,,,,,,,prac,None,None,1,1.49918310000794,182.3705688000191,None,None,1,,,,,,,,,,,,,,209,2023-04-04_13h46.45.495,Main,2022.1.1,60.062152313005356,
positive,blue,1,k,None,,,,,1,15,35,15,,,,,,,,,,,,,,,,,,,,,prac,None,None,1,1.496459100046195,184.870493000024,None,None,1,,,,,,,,,,,,,,209,2023-04-04_13h46.45.495,Main,2022.1.1,60.062152313005356,
negative,blue,1,None,k,,,,,1,16,36,16,,,,,,,,,,,,,,,,,,,,,prac,k,k,1,1.201975699979812,187.36781980004162,None,None,0,,,,,,,,,,,,,,209,2023-04-04_13h46.45.495,Main,2022.1.1,60.062152313005356,
positive,blue,2,k,None,,,,,1,17,37,17,,,,,,,,,,,,,,,,,,,,,prac,None,None,1,1.5021773999906145,189.57043660001364,None,None,1,,,,,,,,,,,,,,209,2023-04-04_13h46.45.495,Main,2022.1.1,60.062152313005356,
positive,blue,1,k,None,,,,,1,18,38,18,,,,,,,,,,,,,,,,,,,,,prac,None,None,1,1.4932250000420026,192.07178590004332,None,None,1,,,,,,,,,,,,,,209,2023-04-04_13h46.45.495,Main,2022.1.1,60.062152313005356,
positive,yellow,1,None,k,,,,,1,19,39,19,,,,,,,,,,,,,,,,,,,,,prac,k,k,1,0.9020749000483193,194.56773650000105,None,None,0,,,,,,,,,,,,,,209,2023-04-04_13h46.45.495,Main,2022.1.1,60.062152313005356,
,,,,,,,,,,,,,,,,,,,,,,,,,,,,,,,,,,,,,,,,,,196.47031150001567,None,196.47031150001567,None,-0.012037037,-0.12037037,0,0,0,0.01412363996496424,None,,,209,2023-04-04_13h46.45.495,Main,2022.1.1,60.062152313005356,
negative,yellow,2,k,None,,,,,,,,,0,0,0,0,,,,,,,,,,,,,197.35352870001225,None,197.35352870001225,None,main,None,None,1,1.5024267000262626,199.39011199999368,None,None,1,,,,,,,,,,,,,,209,2023-04-04_13h46.45.495,Main,2022.1.1,60.062152313005356,
positive,red,1,None,None,,,,,,,,,0,1,1,1,,,,,,,,,,,,,,,,,main,None,None,1,1.4960773999919184,201.90345510002226,None,None,1,,,,,,,,,,,,,,209,2023-04-04_13h46.45.495,Main,2022.1.1,60.062152313005356,
positive,blue,2,k,None,,,,,,,,,0,2,2,2,,,,,,,,,,,,,,,,,main,None,None,1,1.4990391999599524,204.40079770004377,None,None,1,,,,,,,,,,,,,,209,2023-04-04_13h46.45.495,Main,2022.1.1,60.062152313005356,
positive,blue,1,k,None,,,,,,,,,0,3,3,3,,,,,,,,,,,,,,,,,main,None,None,1,1.5018850000342354,206.90079879999394,None,None,1,,,,,,,,,,,,,,209,2023-04-04_13h46.45.495,Main,2022.1.1,60.062152313005356,
negative,yellow,2,k,None,,,,,,,,,0,4,4,4,,,,,,,,,,,,,,,,,main,None,None,1,1.4989358999882825,209.40339450002648,None,None,1,,,,,,,,,,,,,,209,2023-04-04_13h46.45.495,Main,2022.1.1,60.062152313005356,
positive,yellow,2,None,k,,,,,,,,,0,5,5,5,,,,,,,,,,,,,,,,,main,k,k,1,0.9135010999743827,211.90316270000767,None,None,0,,,,,,,,,,,,,,209,2023-04-04_13h46.45.495,Main,2022.1.1,60.062152313005356,
negative,blue,2,None,k,,,,,,,,,0,6,6,6,,,,,,,,,,,,,,,,,main,k,k,1,0.7324546999880113,213.8172355000279,None,None,0,,,,,,,,,,,,,,209,2023-04-04_13h46.45.495,Main,2022.1.1,60.062152313005356,
positive,red,2,None,None,,,,,,,,,0,7,7,7,,,,,,,,,,,,,,,,,main,None,None,1,1.5016089999699034,215.55060720001347,None,None,1,,,,,,,,,,,,,,209,2023-04-04_13h46.45.495,Main,2022.1.1,60.062152313005356,
positive,yellow,1,None,k,,,,,,,,,0,8,8,8,,,,,,,,,,,,,,,,,main,k,k,1,0.729841899999883,218.05316040001344,None,None,0,,,,,,,,,,,,,,209,2023-04-04_13h46.45.495,Main,2022.1.1,60.062152313005356,
negative,red,1,None,None,,,,,,,,,0,9,9,9,,,,,,,,,,,,,,,,,main,None,None,1,1.5018395999795757,219.78379499999573,None,None,1,,,,,,,,,,,,,,209,2023-04-04_13h46.45.495,Main,2022.1.1,60.062152313005356,
positive,yellow,1,None,k,,,,,,,,,0,10,10,10,,,,,,,,,,,,,,,,,main,k,k,1,0.6992211000178941,222.28645519999554,None,None,0,,,,,,,,,,,,,,209,2023-04-04_13h46.45.495,Main,2022.1.1,60.062152313005356,
negative,yellow,1,k,None,,,,,,,,,0,11,11,11,,,,,,,,,,,,,,,,,main,None,None,1,1.4988214999902993,223.98652259999653,None,None,1,,,,,,,,,,,,,,209,2023-04-04_13h46.45.495,Main,2022.1.1,60.062152313005356,
negative,yellow,1,k,None,,,,,,,,,0,12,12,12,,,,,,,,,,,,,,,,,main,None,None,1,1.4960327000007965,226.48630960000446,None,None,1,,,,,,,,,,,,,,209,2023-04-04_13h46.45.495,Main,2022.1.1,60.062152313005356,
negative,red,2,None,None,,,,,,,,,0,13,13,13,,,,,,,,,,,,,,,,,main,None,None,1,1.5019238999811932,228.98358759999974,None,None,1,,,,,,,,,,,,,,209,2023-04-04_13h46.45.495,Main,2022.1.1,60.062152313005356,
positive,yellow,2,None,k,,,,,,,,,0,14,14,14,,,,,,,,,,,,,,,,,main,k,k,1,0.6660604999633506,231.4861949000042,None,None,0,,,,,,,,,,,,,,209,2023-04-04_13h46.45.495,Main,2022.1.1,60.062152313005356,
positive,blue,1,k,None,,,,,,,,,0,15,15,15,,,,,,,,,,,,,,,,,main,None,None,1,1.4960122000193223,233.15286390000256,None,None,1,,,,,,,,,,,,,,209,2023-04-04_13h46.45.495,Main,2022.1.1,60.062152313005356,
negative,blue,1,None,k,,,,,,,,,0,16,16,16,,,,,,,,,,,,,,,,,main,k,k,1,0.7022439000429586,235.65012200002093,None,None,0,,,,,,,,,,,,,,209,2023-04-04_13h46.45.495,Main,2022.1.1,60.062152313005356,
positive,blue,2,k,None,,,,,,,,,0,17,17,17,,,,,,,,,,,,,,,,,main,None,None,1,1.4988346999743953,237.3505698000081,None,None,1,,,,,,,,,,,,,,209,2023-04-04_13h46.45.495,Main,2022.1.1,60.062152313005356,
negative,blue,2,None,k,,,,,,,,,0,18,18,18,,,,,,,,,,,,,,,,,main,k,k,1,0.5965468999929726,239.8527516000322,None,None,0,,,,,,,,,,,,,,209,2023-04-04_13h46.45.495,Main,2022.1.1,60.062152313005356,
negative,blue,1,None,k,,,,,,,,,0,19,19,19,,,,,,,,,,,,,,,,,main,k,k,1,0.6482840000535361,241.45001650002087,None,None,0,,,,,,,,,,,,,,209,2023-04-04_13h46.45.495,Main,2022.1.1,60.062152313005356,
negative,blue,1,None,k,,,,,,,,,0,20,20,20,,,,,,,,,,,,,,,,,main,k,k,1,1.2851313999854028,243.10000880004372,None,None,0,,,,,,,,,,,,,,209,2023-04-04_13h46.45.495,Main,2022.1.1,60.062152313005356,
negative,blue,2,None,k,,,,,,,,,0,21,21,21,,,,,,,,,,,,,,,,,main,k,k,1,0.7657175000058487,245.38604559999658,None,None,0,,,,,,,,,,,,,,209,2023-04-04_13h46.45.495,Main,2022.1.1,60.062152313005356,
negative,red,1,None,None,,,,,,,,,0,22,22,22,,,,,,,,,,,,,,,,,main,None,None,1,1.496301700011827,247.1524801000487,None,None,1,,,,,,,,,,,,,,209,2023-04-04_13h46.45.495,Main,2022.1.1,60.062152313005356,
positive,red,2,None,None,,,,,,,,,0,23,23,23,,,,,,,,,,,,,,,,,main,None,None,1,1.499266600003466,249.64982000004966,None,None,1,,,,,,,,,,,,,,209,2023-04-04_13h46.45.495,Main,2022.1.1,60.062152313005356,
negative,red,2,None,None,,,,,,,,,0,24,24,24,,,,,,,,,,,,,,,,,main,None,None,1,1.5018421999993734,252.14981440000702,None,None,1,,,,,,,,,,,,,,209,2023-04-04_13h46.45.495,Main,2022.1.1,60.062152313005356,
positive,blue,2,k,None,,,,,,,,,0,25,25,25,,,,,,,,,,,,,,,,,main,None,None,1,1.4967564000398852,254.65232140000444,None,None,1,,,,,,,,,,,,,,209,2023-04-04_13h46.45.495,Main,2022.1.1,60.062152313005356,
negative,yellow,1,k,None,,,,,,,,,0,26,26,26,,,,,,,,,,,,,,,,,main,None,None,1,1.5013721999712288,257.1496426000376,None,None,1,,,,,,,,,,,,,,209,2023-04-04_13h46.45.495,Main,2022.1.1,60.062152313005356,
positive,blue,2,k,None,,,,,,,,,0,27,27,27,,,,,,,,,,,,,,,,,main,None,None,1,1.499279200041201,259.65228050004225,None,None,1,,,,,,,,,,,,,,209,2023-04-04_13h46.45.495,Main,2022.1.1,60.062152313005356,
negative,blue,2,None,k,,,,,,,,,0,28,28,28,,,,,,,,,,,,,,,,,main,k,k,1,1.7633576999651268,262.15219440002693,None,None,0,,,,,,,,,,,,,,209,2023-04-04_13h46.45.495,Main,2022.1.1,60.062152313005356,
positive,red,1,None,None,,,,,,,,,0,29,29,29,,,,,,,,,,,,,,,,,main,None,None,1,1.5010804999619722,265.91876210004557,None,None,1,,,,,,,,,,,,,,209,2023-04-04_13h46.45.495,Main,2022.1.1,60.062152313005356,
positive,blue,1,k,None,,,,,,,,,0,30,30,30,,,,,,,,,,,,,,,,,main,None,None,1,1.4961585000273772,268.41866490000393,None,None,1,,,,,,,,,,,,,,209,2023-04-04_13h46.45.495,Main,2022.1.1,60.062152313005356,
positive,yellow,1,None,k,,,,,,,,,0,31,31,31,,,,,,,,,,,,,,,,,main,k,k,1,0.6355163000407629,270.9160604000208,None,None,0,,,,,,,,,,,,,,209,2023-04-04_13h46.45.495,Main,2022.1.1,60.062152313005356,
negative,yellow,2,k,None,,,,,,,,,0,32,32,32,,,,,,,,,,,,,,,,,main,None,None,1,1.4983806000091136,272.5520338000497,None,None,1,,,,,,,,,,,,,,209,2023-04-04_13h46.45.495,Main,2022.1.1,60.062152313005356,
negative,blue,1,None,k,,,,,,,,,0,33,33,33,,,,,,,,,,,,,,,,,main,k,k,1,0.9819051999947987,275.05181760003325,None,None,0,,,,,,,,,,,,,,209,2023-04-04_13h46.45.495,Main,2022.1.1,60.062152313005356,
positive,blue,1,k,None,,,,,,,,,0,34,34,34,,,,,,,,,,,,,,,,,main,None,None,1,1.4974649000214413,277.03252850001445,None,None,1,,,,,,,,,,,,,,209,2023-04-04_13h46.45.495,Main,2022.1.1,60.062152313005356,
negative,yellow,1,k,None,,,,,,,,,0,35,35,35,,,,,,,,,,,,,,,,,main,None,None,1,1.5017079999670386,279.53254460002063,None,None,1,,,,,,,,,,,,,,209,2023-04-04_13h46.45.495,Main,2022.1.1,60.062152313005356,
positive,yellow,2,None,k,,,,,,,,,0,36,36,36,,,,,,,,,,,,,,,,,main,k,k,1,0.9632429999765009,282.0351280000177,None,None,0,,,,,,,,,,,,,,209,2023-04-04_13h46.45.495,Main,2022.1.1,60.062152313005356,
positive,yellow,2,None,k,,,,,,,,,0,37,37,37,,,,,,,,,,,,,,,,,main,k,k,1,0.7018939999979921,283.99906950001605,None,None,0,,,,,,,,,,,,,,209,2023-04-04_13h46.45.495,Main,2022.1.1,60.062152313005356,
negative,yellow,2,k,None,,,,,,,,,0,38,38,38,,,,,,,,,,,,,,,,,main,None,None,1,1.4988979999907315,285.70181390002836,None,None,1,,,,,,,,,,,,,,209,2023-04-04_13h46.45.495,Main,2022.1.1,60.062152313005356,
positive,yellow,1,None,k,,,,,,,,,0,39,39,39,,,,,,,,,,,,,,,,,main,k,k,1,0.6632153000100516,288.2016475000419,None,None,0,,,,,,,,,,,,,,209,2023-04-04_13h46.45.495,Main,2022.1.1,60.062152313005356,
negative,yellow,2,k,None,,,,,,,,,0,40,40,40,,,,,,,,,,,,,,,,,main,None,None,1,1.5017321000341326,289.8656160000246,None,None,1,,,,,,,,,,,,,,209,2023-04-04_13h46.45.495,Main,2022.1.1,60.062152313005356,
positive,blue,2,k,None,,,,,,,,,0,41,41,41,,,,,,,,,,,,,,,,,main,None,None,1,1.4991902999463491,292.3682485000463,None,None,1,,,,,,,,,,,,,,209,2023-04-04_13h46.45.495,Main,2022.1.1,60.062152313005356,
positive,blue,2,k,None,,,,,,,,,0,42,42,42,,,,,,,,,,,,,,,,,main,None,None,1,1.49877559999004,294.8680366000044,None,None,1,,,,,,,,,,,,,,209,2023-04-04_13h46.45.495,Main,2022.1.1,60.062152313005356,
negative,blue,2,None,k,,,,,,,,,0,43,43,43,,,,,,,,,,,,,,,,,main,k,k,1,0.6494419000227936,297.36792190000415,None,None,0,,,,,,,,,,,,,,209,2023-04-04_13h46.45.495,Main,2022.1.1,60.062152313005356,
negative,red,1,None,None,,,,,,,,,0,44,44,44,,,,,,,,,,,,,,,,,main,None,None,1,1.4989647999755107,299.0156804000144,None,None,1,,,,,,,,,,,,,,209,2023-04-04_13h46.45.495,Main,2022.1.1,60.062152313005356,
negative,yellow,1,k,None,,,,,,,,,0,45,45,45,,,,,,,,,,,,,,,,,main,None,None,1,1.4965094000217505,301.5179300000309,None,None,1,,,,,,,,,,,,,,209,2023-04-04_13h46.45.495,Main,2022.1.1,60.062152313005356,
negative,yellow,1,k,None,,,,,,,,,0,46,46,46,,,,,,,,,,,,,,,,,main,None,None,1,1.501897000009194,304.01530299999285,None,None,1,,,,,,,,,,,,,,209,2023-04-04_13h46.45.495,Main,2022.1.1,60.062152313005356,
positive,red,1,None,None,,,,,,,,,0,47,47,47,,,,,,,,,,,,,,,,,main,None,None,1,1.499174700002186,306.5179445000249,None,None,1,,,,,,,,,,,,,,209,2023-04-04_13h46.45.495,Main,2022.1.1,60.062152313005356,
positive,yellow,1,None,k,,,,,,,,,0,48,48,48,,,,,,,,,,,,,,,,,main,k,k,1,0.7964386999956332,309.0179168000468,None,None,0,,,,,,,,,,,,,,209,2023-04-04_13h46.45.495,Main,2022.1.1,60.062152313005356,
negative,blue,1,None,k,,,,,,,,,0,49,49,49,,,,,,,,,,,,,,,,,main,k,k,1,1.035154599987436,310.8151633000234,None,None,0,,,,,,,,,,,,,,209,2023-04-04_13h46.45.495,Main,2022.1.1,60.062152313005356,
positive,yellow,2,None,k,,,,,,,,,0,50,50,50,,,,,,,,,,,,,,,,,main,k,k,1,0.7659018999547698,312.8511950999964,None,None,0,,,,,,,,,,,,,,209,2023-04-04_13h46.45.495,Main,2022.1.1,60.062152313005356,
negative,blue,1,None,k,,,,,,,,,0,51,51,51,,,,,,,,,,,,,,,,,main,k,k,1,0.6321425999631174,314.6177722000284,None,None,0,,,,,,,,,,,,,,209,2023-04-04_13h46.45.495,Main,2022.1.1,60.062152313005356,
positive,red,2,None,None,,,,,,,,,0,52,52,52,,,,,,,,,,,,,,,,,main,None,None,1,1.4989394000149332,316.25087829999393,None,None,1,,,,,,,,,,,,,,209,2023-04-04_13h46.45.495,Main,2022.1.1,60.062152313005356,
positive,yellow,2,None,k,,,,,,,,,0,53,53,53,,,,,,,,,,,,,,,,,main,k,k,1,0.5805032000062056,318.7485496000154,None,None,0,,,,,,,,,,,,,,209,2023-04-04_13h46.45.495,Main,2022.1.1,60.062152313005356,
negative,red,2,None,None,,,,,,,,,0,54,54,54,,,,,,,,,,,,,,,,,main,None,None,1,1.500493900035508,320.3340786000481,None,None,1,,,,,,,,,,,,,,209,2023-04-04_13h46.45.495,Main,2022.1.1,60.062152313005356,
positive,yellow,1,None,k,,,,,,,,,0,55,55,55,,,,,,,,,,,,,,,,,main,k,k,1,0.6460956000373699,322.8340710000484,None,None,0,,,,,,,,,,,,,,209,2023-04-04_13h46.45.495,Main,2022.1.1,60.062152313005356,
negative,blue,2,None,k,,,,,,,,,0,56,56,56,,,,,,,,,,,,,,,,,main,k,k,1,0.5822569000301883,324.48186110000825,None,None,0,,,,,,,,,,,,,,209,2023-04-04_13h46.45.495,Main,2022.1.1,60.062152313005356,
positive,blue,1,k,None,,,,,,,,,0,57,57,57,,,,,,,,,,,,,,,,,main,None,None,1,1.5017641999875195,326.0648200000287,None,None,1,,,,,,,,,,,,,,209,2023-04-04_13h46.45.495,Main,2022.1.1,60.062152313005356,
positive,blue,1,k,None,,,,,,,,,0,58,58,58,,,,,,,,,,,,,,,,,main,None,None,1,1.4988639999646693,328.5674610999995,None,None,1,,,,,,,,,,,,,,209,2023-04-04_13h46.45.495,Main,2022.1.1,60.062152313005356,
negative,yellow,2,k,None,,,,,,,,,0,59,59,59,,,,,,,,,,,,,,,,,main,None,None,1,1.4965312000131235,331.06739520002156,None,None,1,,,,,,,,,,,,,,209,2023-04-04_13h46.45.495,Main,2022.1.1,60.062152313005356,
positive,red,2,None,None,,,,,,,,,0,60,60,60,,,,,,,,,,,,,,,,,main,None,None,1,1.501568200008478,333.5647023000056,None,None,1,,,,,,,,,,,,,,209,2023-04-04_13h46.45.495,Main,2022.1.1,60.062152313005356,
negative,yellow,1,k,None,,,,,,,,,0,61,61,61,,,,,,,,,,,,,,,,,main,None,None,1,1.499189900001511,336.06726900005015,None,None,1,,,,,,,,,,,,,,209,2023-04-04_13h46.45.495,Main,2022.1.1,60.062152313005356,
negative,red,1,None,None,,,,,,,,,0,62,62,62,,,,,,,,,,,,,,,,,main,None,None,1,1.4964378000004217,338.56727420003153,None,None,1,,,,,,,,,,,,,,209,2023-04-04_13h46.45.495,Main,2022.1.1,60.062152313005356,
negative,blue,1,None,k,,,,,,,,,0,63,63,63,,,,,,,,,,,,,,,,,main,k,k,1,1.1188614999991842,341.0645106000011,None,None,0,,,,,,,,,,,,,,209,2023-04-04_13h46.45.495,Main,2022.1.1,60.062152313005356,
positive,blue,2,k,None,,,,,,,,,0,64,64,64,,,,,,,,,,,,,,,,,main,None,None,1,1.4990288999979384,343.1838827000465,None,None,1,,,,,,,,,,,,,,209,2023-04-04_13h46.45.495,Main,2022.1.1,60.062152313005356,
negative,yellow,2,k,None,,,,,,,,,0,65,65,65,,,,,,,,,,,,,,,,,main,None,None,1,1.496414299996104,345.6837293000426,None,None,1,,,,,,,,,,,,,,209,2023-04-04_13h46.45.495,Main,2022.1.1,60.062152313005356,
positive,yellow,2,None,k,,,,,,,,,0,66,66,66,,,,,,,,,,,,,,,,,main,k,k,1,0.7519838999724016,348.1810618000454,None,None,0,,,,,,,,,,,,,,209,2023-04-04_13h46.45.495,Main,2022.1.1,60.062152313005356,
positive,yellow,2,None,k,,,,,,,,,0,67,67,67,,,,,,,,,,,,,,,,,main,k,k,1,0.6992211000178941,349.93380660004914,None,None,0,,,,,,,,,,,,,,209,2023-04-04_13h46.45.495,Main,2022.1.1,60.062152313005356,
positive,red,1,None,None,,,,,,,,,0,68,68,68,,,,,,,,,,,,,,,,,main,None,None,1,1.496239300002344,351.63378880004166,None,None,1,,,,,,,,,,,,,,209,2023-04-04_13h46.45.495,Main,2022.1.1,60.062152313005356,
positive,yellow,1,None,k,,,,,,,,,0,69,69,69,,,,,,,,,,,,,,,,,main,k,k,1,0.6521621999563649,354.1309416000149,None,None,0,,,,,,,,,,,,,,209,2023-04-04_13h46.45.495,Main,2022.1.1,60.062152313005356,
negative,yellow,2,k,None,,,,,,,,,0,70,70,70,,,,,,,,,,,,,,,,,main,None,None,1,1.4986138999811374,355.78375230001984,None,None,1,,,,,,,,,,,,,,209,2023-04-04_13h46.45.495,Main,2022.1.1,60.062152313005356,
positive,yellow,1,None,k,,,,,,,,,0,71,71,71,,,,,,,,,,,,,,,,,main,k,k,1,0.7470454000285827,358.28334170003654,None,None,0,,,,,,,,,,,,,,209,2023-04-04_13h46.45.495,Main,2022.1.1,60.062152313005356,
negative,blue,1,None,k,,,,,,,,,0,72,72,72,,,,,,,,,,,,,,,,,main,k,k,1,0.8489408000023104,360.03337970003486,None,None,0,,,,,,,,,,,,,,209,2023-04-04_13h46.45.495,Main,2022.1.1,60.062152313005356,
negative,red,2,None,None,,,,,,,,,0,73,73,73,,,,,,,,,,,,,,,,,main,None,None,1,1.501547300023958,361.8807241000468,None,None,1,,,,,,,,,,,,,,209,2023-04-04_13h46.45.495,Main,2022.1.1,60.062152313005356,
positive,blue,2,k,None,,,,,,,,,0,74,74,74,,,,,,,,,,,,,,,,,main,None,None,1,1.4992546999710612,364.3833287000307,None,None,1,,,,,,,,,,,,,,209,2023-04-04_13h46.45.495,Main,2022.1.1,60.062152313005356,
negative,blue,2,None,k,,,,,,,,,0,75,75,75,,,,,,,,,,,,,,,,,main,k,k,1,0.7300545000471175,366.8832466000458,None,None,0,,,,,,,,,,,,,,209,2023-04-04_13h46.45.495,Main,2022.1.1,60.062152313005356,
negative,blue,2,None,k,,,,,,,,,0,76,76,76,,,,,,,,,,,,,,,,,main,k,k,1,0.6187445999821648,368.61389720003353,None,None,0,,,,,,,,,,,,,,209,2023-04-04_13h46.45.495,Main,2022.1.1,60.062152313005356,
negative,yellow,1,k,None,,,,,,,,,0,77,77,77,,,,,,,,,,,,,,,,,main,None,None,1,1.4990835000062361,370.2332346000476,None,None,1,,,,,,,,,,,,,,209,2023-04-04_13h46.45.495,Main,2022.1.1,60.062152313005356,
positive,blue,1,k,None,,,,,,,,,0,78,78,78,,,,,,,,,,,,,,,,,main,None,None,1,1.4987526000477374,372.73318060004385,None,None,1,,,,,,,,,,,,,,209,2023-04-04_13h46.45.495,Main,2022.1.1,60.062152313005356,
positive,blue,1,k,None,,,,,,,,,0,79,79,79,,,,,,,,,,,,,,,,,main,None,None,1,1.4962736000306904,375.2330115000368,None,None,1,,,,,,,,,,,,,,209,2023-04-04_13h46.45.495,Main,2022.1.1,60.062152313005356,
positive,red,2,None,None,,,,,,,,,0,80,80,80,,,,,,,,,,,,,,,,,main,None,k,0,0.03452839999226853,377.73037200002,None,None,1,,,,,,,,,,,,,,209,2023-04-04_13h46.45.495,Main,2022.1.1,60.062152313005356,
positive,yellow,2,None,k,,,,,,,,,0,81,81,81,,,,,,,,,,,,,,,,,main,k,k,1,0.7323537000338547,381.76627510000253,None,None,0,,,,,,,,,,,,,,209,2023-04-04_13h46.45.495,Main,2022.1.1,60.062152313005356,
positive,blue,1,k,None,,,,,,,,,0,82,82,82,,,,,,,,,,,,,,,,,main,None,None,1,1.4981432000058703,383.4994922000333,None,None,1,,,,,,,,,,,,,,209,2023-04-04_13h46.45.495,Main,2022.1.1,60.062152313005356,
negative,yellow,2,k,None,,,,,,,,,0,83,83,83,,,,,,,,,,,,,,,,,main,None,None,1,1.5017682000179775,385.99686050001765,None,None,1,,,,,,,,,,,,,,209,2023-04-04_13h46.45.495,Main,2022.1.1,60.062152313005356,
positive,blue,2,k,None,,,,,,,,,0,84,84,84,,,,,,,,,,,,,,,,,main,None,None,1,1.4994178999913856,388.4995214000228,None,None,1,,,,,,,,,,,,,,209,2023-04-04_13h46.45.495,Main,2022.1.1,60.062152313005356,
positive,yellow,1,None,k,,,,,,,,,0,85,85,85,,,,,,,,,,,,,,,,,main,k,k,1,0.782402099983301,390.99933700001566,None,None,0,,,,,,,,,,,,,,209,2023-04-04_13h46.45.495,Main,2022.1.1,60.062152313005356,
positive,blue,2,k,None,,,,,,,,,0,86,86,86,,,,,,,,,,,,,,,,,main,None,None,1,1.4988666000426747,392.7826112000039,None,None,1,,,,,,,,,,,,,,209,2023-04-04_13h46.45.495,Main,2022.1.1,60.062152313005356,
positive,blue,1,k,None,,,,,,,,,0,87,87,87,,,,,,,,,,,,,,,,,main,None,None,1,1.4969115999992937,395.2824785000412,None,None,1,,,,,,,,,,,,,,209,2023-04-04_13h46.45.495,Main,2022.1.1,60.062152313005356,
negative,yellow,2,k,None,,,,,,,,,0,88,88,88,,,,,,,,,,,,,,,,,main,None,None,1,1.501464200031478,397.7802314000437,None,None,1,,,,,,,,,,,,,,209,2023-04-04_13h46.45.495,Main,2022.1.1,60.062152313005356,
negative,blue,2,None,k,,,,,,,,,0,89,89,89,,,,,,,,,,,,,,,,,main,k,k,1,0.9799061000230722,400.28245940001216,None,None,0,,,,,,,,,,,,,,209,2023-04-04_13h46.45.495,Main,2022.1.1,60.062152313005356,
positive,yellow,2,None,k,,,,,,,,,0,90,90,90,,,,,,,,,,,,,,,,,main,k,k,1,0.9324930000002496,402.26316279999446,None,None,0,,,,,,,,,,,,,,209,2023-04-04_13h46.45.495,Main,2022.1.1,60.062152313005356,
negative,yellow,1,k,None,,,,,,,,,0,91,91,91,,,,,,,,,,,,,,,,,main,None,None,1,1.500873800017871,404.196537300013,None,None,1,,,,,,,,,,,,,,209,2023-04-04_13h46.45.495,Main,2022.1.1,60.062152313005356,
negative,red,2,None,None,,,,,,,,,0,92,92,92,,,,,,,,,,,,,,,,,main,None,None,1,1.495358899992425,406.6991271000006,None,None,1,,,,,,,,,,,,,,209,2023-04-04_13h46.45.495,Main,2022.1.1,60.062152313005356,
negative,blue,2,None,k,,,,,,,,,0,93,93,93,,,,,,,,,,,,,,,,,main,k,k,1,0.7985822000191547,409.1963534000097,None,None,0,,,,,,,,,,,,,,209,2023-04-04_13h46.45.495,Main,2022.1.1,60.062152313005356,
negative,blue,1,None,k,,,,,,,,,0,94,94,94,,,,,,,,,,,,,,,,,main,k,k,1,0.8851421999861486,410.9963770000031,None,None,0,,,,,,,,,,,,,,209,2023-04-04_13h46.45.495,Main,2022.1.1,60.062152313005356,
negative,blue,1,None,k,,,,,,,,,0,95,95,95,,,,,,,,,,,,,,,,,main,k,k,1,0.6992385000339709,412.8822788000107,None,None,0,,,,,,,,,,,,,,209,2023-04-04_13h46.45.495,Main,2022.1.1,60.062152313005356,
negative,red,1,None,None,,,,,,,,,0,96,96,96,,,,,,,,,,,,,,,,,main,None,None,1,1.4992798999883235,414.58219879999524,None,None,1,,,,,,,,,,,,,,209,2023-04-04_13h46.45.495,Main,2022.1.1,60.062152313005356,
positive,yellow,1,None,k,,,,,,,,,0,97,97,97,,,,,,,,,,,,,,,,,main,k,k,1,0.6129624999593943,417.0820326000103,None,None,0,,,,,,,,,,,,,,209,2023-04-04_13h46.45.495,Main,2022.1.1,60.062152313005356,
negative,yellow,1,k,None,,,,,,,,,0,98,98,98,,,,,,,,,,,,,,,,,main,None,None,1,1.5017636000411585,418.69614730001194,None,None,1,,,,,,,,,,,,,,209,2023-04-04_13h46.45.495,Main,2022.1.1,60.062152313005356,
positive,red,1,None,None,,,,,,,,,0,99,99,99,,,,,,,,,,,,,,,,,main,None,None,1,1.499035199987702,421.198720400047,None,None,1,,,,,,,,,,,,,,209,2023-04-04_13h46.45.495,Main,2022.1.1,60.062152313005356,
positive,blue,1,k,None,,,,,,,,,0,100,100,100,,,,,,,,,,,,,,,,,main,None,None,1,1.4964997000060976,423.69870530004846,None,None,1,,,,,,,,,,,,,,209,2023-04-04_13h46.45.495,Main,2022.1.1,60.062152313005356,
negative,yellow,1,k,None,,,,,,,,,0,101,101,101,,,,,,,,,,,,,,,,,main,None,None,1,1.5017990000196733,426.19599520001793,None,None,1,,,,,,,,,,,,,,209,2023-04-04_13h46.45.495,Main,2022.1.1,60.062152313005356,
negative,blue,2,None,k,,,,,,,,,0,102,102,102,,,,,,,,,,,,,,,,,main,k,k,1,1.6467684000381269,428.69856119999895,None,None,0,,,,,,,,,,,,,,209,2023-04-04_13h46.45.495,Main,2022.1.1,60.062152313005356,
negative,yellow,2,k,None,,,,,,,,,0,103,103,103,,,,,,,,,,,,,,,,,main,None,None,1,1.486878500028979,432.3458574000397,None,None,1,,,,,,,,,,,,,,209,2023-04-04_13h46.45.495,Main,2022.1.1,60.062152313005356,
positive,yellow,2,None,k,,,,,,,,,0,104,104,104,,,,,,,,,,,,,,,,,main,k,k,1,0.6489447999629192,434.8318178000045,None,None,0,,,,,,,,,,,,,,209,2023-04-04_13h46.45.495,Main,2022.1.1,60.062152313005356,
positive,blue,1,k,None,,,,,,,,,0,105,105,105,,,,,,,,,,,,,,,,,main,None,None,1,1.496494300023187,436.48171720001847,None,None,1,,,,,,,,,,,,,,209,2023-04-04_13h46.45.495,Main,2022.1.1,60.062152313005356,
positive,blue,2,k,None,,,,,,,,,0,106,106,106,,,,,,,,,,,,,,,,,main,None,None,1,1.501619499991648,438.9791081000003,None,None,1,,,,,,,,,,,,,,209,2023-04-04_13h46.45.495,Main,2022.1.1,60.062152313005356,
negative,blue,1,None,k,,,,,,,,,0,107,107,107,,,,,,,,,,,,,,,,,main,k,k,1,1.249366799951531,441.4816675000475,None,None,0,,,,,,,,,,,,,,209,2023-04-04_13h46.45.495,Main,2022.1.1,60.062152313005356,
positive,yellow,2,None,k,,,,,,,,,0,108,108,108,,,,,,,,,,,,,,,,,main,k,k,1,0.5631008999771439,443.7314617999946,None,None,0,,,,,,,,,,,,,,209,2023-04-04_13h46.45.495,Main,2022.1.1,60.062152313005356,
negative,yellow,1,k,None,,,,,,,,,0,109,109,109,,,,,,,,,,,,,,,,,main,None,None,1,1.501812600006815,445.29555360000813,None,None,1,,,,,,,,,,,,,,209,2023-04-04_13h46.45.495,Main,2022.1.1,60.062152313005356,
negative,blue,2,None,k,,,,,,,,,0,110,110,110,,,,,,,,,,,,,,,,,main,k,k,1,0.5825026000384241,447.79816520004533,None,None,0,,,,,,,,,,,,,,209,2023-04-04_13h46.45.495,Main,2022.1.1,60.062152313005356,
positive,blue,2,k,None,,,,,,,,,0,111,111,111,,,,,,,,,,,,,,,,,main,None,None,1,1.4964407000225037,449.38146600004984,None,None,1,,,,,,,,,,,,,,209,2023-04-04_13h46.45.495,Main,2022.1.1,60.062152313005356,
negative,blue,1,None,k,,,,,,,,,0,112,112,112,,,,,,,,,,,,,,,,,main,k,k,1,0.6661047000088729,451.8787661000388,None,None,0,,,,,,,,,,,,,,209,2023-04-04_13h46.45.495,Main,2022.1.1,60.062152313005356,
positive,yellow,1,None,k,,,,,,,,,0,113,113,113,,,,,,,,,,,,,,,,,main,k,k,1,0.6184468999854289,453.54539990000194,None,None,0,,,,,,,,,,,,,,209,2023-04-04_13h46.45.495,Main,2022.1.1,60.062152313005356,
negative,red,1,None,None,,,,,,,,,0,114,114,114,,,,,,,,,,,,,,,,,main,None,None,1,1.5017532000201754,455.16463050001767,None,None,1,,,,,,,,,,,,,,209,2023-04-04_13h46.45.495,Main,2022.1.1,60.062152313005356,
positive,red,1,None,None,,,,,,,,,0,115,115,115,,,,,,,,,,,,,,,,,main,None,None,1,1.4931139000109397,457.6662510000169,None,None,1,,,,,,,,,,,,,,209,2023-04-04_13h46.45.495,Main,2022.1.1,60.062152313005356,
negative,red,2,None,None,,,,,,,,,0,116,116,116,,,,,,,,,,,,,,,,,main,None,None,1,1.5017160999705084,460.1619733000407,None,None,1,,,,,,,,,,,,,,209,2023-04-04_13h46.45.495,Main,2022.1.1,60.062152313005356,
negative,yellow,2,k,None,,,,,,,,,0,117,117,117,,,,,,,,,,,,,,,,,main,None,None,1,1.498956699972041,462.6645223000087,None,None,1,,,,,,,,,,,,,,209,2023-04-04_13h46.45.495,Main,2022.1.1,60.062152313005356,
positive,yellow,1,None,k,,,,,,,,,0,118,118,118,,,,,,,,,,,,,,,,,main,k,k,1,0.6799942000070587,465.1643575000344,None,None,0,,,,,,,,,,,,,,209,2023-04-04_13h46.45.495,Main,2022.1.1,60.062152313005356,
positive,red,2,None,None,,,,,,,,,0,119,119,119,,,,,,,,,,,,,,,,,main,None,None,1,1.5010071999859065,466.8451138000237,None,None,1,,,,,,,,,,,,,,209,2023-04-04_13h46.45.495,Main,2022.1.1,60.062152313005356,
positive,blue,2,k,None,,,,,,,,,0,120,120,120,,,,,,,,,,,,,,,,,main,None,None,1,1.4982039000024088,469.34764490003,None,None,1,,,,,,,,,,,,,,209,2023-04-04_13h46.45.495,Main,2022.1.1,60.062152313005356,
negative,red,1,None,None,,,,,,,,,0,121,121,121,,,,,,,,,,,,,,,,,main,None,None,1,1.4975963000324555,471.8476706999936,None,None,1,,,,,,,,,,,,,,209,2023-04-04_13h46.45.495,Main,2022.1.1,60.062152313005356,
positive,yellow,2,None,k,,,,,,,,,0,122,122,122,,,,,,,,,,,,,,,,,main,k,k,1,0.5792100999969989,474.34750060003716,None,None,0,,,,,,,,,,,,,,209,2023-04-04_13h46.45.495,Main,2022.1.1,60.062152313005356,
negative,red,2,None,None,,,,,,,,,0,123,123,123,,,,,,,,,,,,,,,,,main,None,None,1,1.5013308000052348,475.92822709999746,None,None,1,,,,,,,,,,,,,,209,2023-04-04_13h46.45.495,Main,2022.1.1,60.062152313005356,
negative,yellow,2,k,None,,,,,,,,,0,124,124,124,,,,,,,,,,,,,,,,,main,None,None,1,1.4990684000076726,478.4308942000498,None,None,1,,,,,,,,,,,,,,209,2023-04-04_13h46.45.495,Main,2022.1.1,60.062152313005356,
positive,red,1,None,None,,,,,,,,,0,125,125,125,,,,,,,,,,,,,,,,,main,None,None,1,1.4990118000423536,480.93079420004506,None,None,1,,,,,,,,,,,,,,209,2023-04-04_13h46.45.495,Main,2022.1.1,60.062152313005356,
negative,blue,2,None,k,,,,,,,,,0,126,126,126,,,,,,,,,,,,,,,,,main,k,k,1,0.7490931000211276,483.43053160002455,None,None,0,,,,,,,,,,,,,,209,2023-04-04_13h46.45.495,Main,2022.1.1,60.062152313005356,
negative,blue,1,None,k,,,,,,,,,0,127,127,127,,,,,,,,,,,,,,,,,main,k,k,1,0.8158498999546282,485.17827090003993,None,None,0,,,,,,,,,,,,,,209,2023-04-04_13h46.45.495,Main,2022.1.1,60.062152313005356,
negative,yellow,1,k,None,,,,,,,,,0,128,128,128,,,,,,,,,,,,,,,,,main,None,None,1,1.4988733000354841,486.9971594000235,None,None,1,,,,,,,,,,,,,,209,2023-04-04_13h46.45.495,Main,2022.1.1,60.062152313005356,
negative,yellow,1,k,None,,,,,,,,,0,129,129,129,,,,,,,,,,,,,,,,,main,None,None,1,1.4964396999566816,489.4971703000483,None,None,1,,,,,,,,,,,,,,209,2023-04-04_13h46.45.495,Main,2022.1.1,60.062152313005356,
positive,blue,1,k,None,,,,,,,,,0,130,130,130,,,,,,,,,,,,,,,,,main,None,None,1,1.50196219998179,491.9945641999948,None,None,1,,,,,,,,,,,,,,209,2023-04-04_13h46.45.495,Main,2022.1.1,60.062152313005356,
negative,blue,1,None,k,,,,,,,,,0,131,131,131,,,,,,,,,,,,,,,,,main,k,k,1,0.7492059000069275,494.4972260000068,None,None,0,,,,,,,,,,,,,,209,2023-04-04_13h46.45.495,Main,2022.1.1,60.062152313005356,
negative,blue,2,None,k,,,,,,,,,0,132,132,132,,,,,,,,,,,,,,,,,main,k,k,1,0.7134497999795713,496.2471734000137,None,None,0,,,,,,,,,,,,,,209,2023-04-04_13h46.45.495,Main,2022.1.1,60.062152313005356,
positive,blue,2,k,None,,,,,,,,,0,133,133,133,,,,,,,,,,,,,,,,,main,None,None,1,1.4984139000298455,497.96366200002376,None,None,1,,,,,,,,,,,,,,209,2023-04-04_13h46.45.495,Main,2022.1.1,60.062152313005356,
positive,red,2,None,None,,,,,,,,,0,134,134,134,,,,,,,,,,,,,,,,,main,None,None,1,1.5019602000247687,500.46104320004815,None,None,1,,,,,,,,,,,,,,209,2023-04-04_13h46.45.495,Main,2022.1.1,60.062152313005356,
negative,yellow,2,k,None,,,,,,,,,0,135,135,135,,,,,,,,,,,,,,,,,main,None,None,1,1.499131300020963,502.9636534000165,None,None,1,,,,,,,,,,,,,,209,2023-04-04_13h46.45.495,Main,2022.1.1,60.062152313005356,
positive,yellow,2,None,k,,,,,,,,,0,136,136,136,,,,,,,,,,,,,,,,,main,k,k,1,1.013180299953092,505.4636520000058,None,None,0,,,,,,,,,,,,,,209,2023-04-04_13h46.45.495,Main,2022.1.1,60.062152313005356,
positive,blue,1,k,None,,,,,,,,,0,137,137,137,,,,,,,,,,,,,,,,,main,None,None,1,1.5014810000429861,507.47756810003193,None,None,1,,,,,,,,,,,,,,209,2023-04-04_13h46.45.495,Main,2022.1.1,60.062152313005356,
positive,yellow,1,None,k,,,,,,,,,0,138,138,138,,,,,,,,,,,,,,,,,main,k,k,1,0.7492037999909371,509.98013430001447,None,None,0,,,,,,,,,,,,,,209,2023-04-04_13h46.45.495,Main,2022.1.1,60.062152313005356,
positive,yellow,1,None,k,,,,,,,,,0,139,139,139,,,,,,,,,,,,,,,,,main,k,k,1,0.712242099980358,511.73030320002,None,None,0,,,,,,,,,,,,,,209,2023-04-04_13h46.45.495,Main,2022.1.1,60.062152313005356,
positive,yellow,1,None,k,,,,,,,,,0,140,140,140,,,,,,,,,,,,,,,,,main,k,k,1,0.5660287999780849,513.4440642000409,None,None,0,,,,,,,,,,,,,,209,2023-04-04_13h46.45.495,Main,2022.1.1,60.062152313005356,
positive,blue,1,k,None,,,,,,,,,0,141,141,141,,,,,,,,,,,,,,,,,main,None,None,1,1.5015718000358902,515.0107811000198,None,None,1,,,,,,,,,,,,,,209,2023-04-04_13h46.45.495,Main,2022.1.1,60.062152313005356,
positive,blue,2,k,None,,,,,,,,,0,142,142,142,,,,,,,,,,,,,,,,,main,None,None,1,1.4961502000223845,517.5134913999937,None,None,1,,,,,,,,,,,,,,209,2023-04-04_13h46.45.495,Main,2022.1.1,60.062152313005356,
positive,yellow,2,None,k,,,,,,,,,0,143,143,143,,,,,,,,,,,,,,,,,main,k,k,1,0.6353520000120625,520.0106088000466,None,None,0,,,,,,,,,,,,,,209,2023-04-04_13h46.45.495,Main,2022.1.1,60.062152313005356,
negative,yellow,2,k,None,,,,,,,,,0,144,144,144,,,,,,,,,,,,,,,,,main,None,None,1,1.5017208000062965,521.6467563000042,None,None,1,,,,,,,,,,,,,,209,2023-04-04_13h46.45.495,Main,2022.1.1,60.062152313005356,
negative,blue,2,None,k,,,,,,,,,0,145,145,145,,,,,,,,,,,,,,,,,main,k,k,1,0.5965221999795176,524.1480540000484,None,None,0,,,,,,,,,,,,,,209,2023-04-04_13h46.45.495,Main,2022.1.1,60.062152313005356,
negative,red,1,None,None,,,,,,,,,0,146,146,146,,,,,,,,,,,,,,,,,main,None,None,1,1.4963359999819659,525.7464316000114,None,None,1,,,,,,,,,,,,,,209,2023-04-04_13h46.45.495,Main,2022.1.1,60.062152313005356,
positive,blue,1,k,None,,,,,,,,,0,147,147,147,,,,,,,,,,,,,,,,,main,None,None,1,1.5019463000353426,528.2437650000211,None,None,1,,,,,,,,,,,,,,209,2023-04-04_13h46.45.495,Main,2022.1.1,60.062152313005356,
positive,yellow,1,None,k,,,,,,,,,0,148,148,148,,,,,,,,,,,,,,,,,main,k,k,1,0.6328711999813095,530.7463960000314,None,None,0,,,,,,,,,,,,,,209,2023-04-04_13h46.45.495,Main,2022.1.1,60.062152313005356,
negative,red,2,None,None,,,,,,,,,0,149,149,149,,,,,,,,,,,,,,,,,main,None,None,1,1.4960611999849789,532.3774634000147,None,None,1,,,,,,,,,,,,,,209,2023-04-04_13h46.45.495,Main,2022.1.1,60.062152313005356,
negative,blue,1,None,k,,,,,,,,,0,150,150,150,,,,,,,,,,,,,,,,,main,k,k,1,0.6520564999664202,534.8769570000004,None,None,0,,,,,,,,,,,,,,209,2023-04-04_13h46.45.495,Main,2022.1.1,60.062152313005356,
negative,yellow,2,k,None,,,,,,,,,0,151,151,151,,,,,,,,,,,,,,,,,main,None,None,1,1.4989470999571495,536.5271433000453,None,None,1,,,,,,,,,,,,,,209,2023-04-04_13h46.45.495,Main,2022.1.1,60.062152313005356,
negative,blue,2,None,k,,,,,,,,,0,152,152,152,,,,,,,,,,,,,,,,,main,k,k,1,0.8296724999672733,539.0295868000248,None,None,0,,,,,,,,,,,,,,209,2023-04-04_13h46.45.495,Main,2022.1.1,60.062152313005356,
negative,yellow,1,k,None,,,,,,,,,0,153,153,153,,,,,,,,,,,,,,,,,main,None,None,1,1.501876100024674,540.8601656000246,None,None,1,,,,,,,,,,,,,,209,2023-04-04_13h46.45.495,Main,2022.1.1,60.062152313005356,
negative,blue,1,None,k,,,,,,,,,0,154,154,154,,,,,,,,,,,,,,,,,main,k,k,1,0.8356793000129983,543.3627899000421,None,None,0,,,,,,,,,,,,,,209,2023-04-04_13h46.45.495,Main,2022.1.1,60.062152313005356,
positive,yellow,2,None,k,,,,,,,,,0,155,155,155,,,,,,,,,,,,,,,,,main,k,k,1,1.1603477000026032,545.1975339000346,None,None,0,,,,,,,,,,,,,,209,2023-04-04_13h46.45.495,Main,2022.1.1,60.062152313005356,
positive,red,2,None,None,,,,,,,,,0,156,156,156,,,,,,,,,,,,,,,,,main,None,None,1,1.5012641999637708,547.3600732000195,None,None,1,,,,,,,,,,,,,,209,2023-04-04_13h46.45.495,Main,2022.1.1,60.062152313005356,
positive,red,1,None,None,,,,,,,,,0,157,157,157,,,,,,,,,,,,,,,,,main,None,None,1,1.4988906999933533,549.8626356000314,None,None,1,,,,,,,,,,,,,,209,2023-04-04_13h46.45.495,Main,2022.1.1,60.062152313005356,
positive,blue,2,k,None,,,,,,,,,0,158,158,158,,,,,,,,,,,,,,,,,main,None,None,1,1.4964953000308014,552.3624670000281,None,None,1,,,,,,,,,,,,,,209,2023-04-04_13h46.45.495,Main,2022.1.1,60.062152313005356,
negative,yellow,1,k,None,,,,,,,,,0,159,159,159,,,,,,,,,,,,,,,,,main,None,None,1,1.5018378000240773,554.8598331999965,None,None,1,,,,,,,,,,,,,,209,2023-04-04_13h46.45.495,Main,2022.1.1,60.062152313005356,
negative,red,2,None,None,,,,,,,,,0,160,160,160,,,,,,,,,,,,,,,,,main,None,None,1,1.4986634000088088,557.3625024000066,None,None,1,,,,,,,,,,,,,,209,2023-04-04_13h46.45.495,Main,2022.1.1,60.062152313005356,
negative,blue,1,None,k,,,,,,,,,0,161,161,161,,,,,,,,,,,,,,,,,main,k,k,1,0.5970711999689229,559.8624069000361,None,None,0,,,,,,,,,,,,,,209,2023-04-04_13h46.45.495,Main,2022.1.1,60.062152313005356,
negative,blue,1,None,k,,,,,,,,,0,162,162,162,,,,,,,,,,,,,,,,,main,k,k,1,0.6347587999771349,561.4622371000005,None,None,0,,,,,,,,,,,,,,209,2023-04-04_13h46.45.495,Main,2022.1.1,60.062152313005356,
negative,yellow,1,k,None,,,,,,,,,0,163,163,163,,,,,,,,,,,,,,,,,main,None,None,1,1.4962983999866992,563.0987276000087,None,None,1,,,,,,,,,,,,,,209,2023-04-04_13h46.45.495,Main,2022.1.1,60.062152313005356,
negative,yellow,1,k,None,,,,,,,,,0,164,164,164,,,,,,,,,,,,,,,,,main,None,None,1,1.5018729000003077,565.5930585000315,None,None,1,,,,,,,,,,,,,,209,2023-04-04_13h46.45.495,Main,2022.1.1,60.062152313005356,
positive,yellow,1,None,k,,,,,,,,,0,165,165,165,,,,,,,,,,,,,,,,,main,k,k,1,1.1147064000251703,568.0955607999931,None,None,0,,,,,,,,,,,,,,209,2023-04-04_13h46.45.495,Main,2022.1.1,60.062152313005356,
negative,red,1,None,None,,,,,,,,,0,166,166,166,,,,,,,,,,,,,,,,,main,None,None,1,1.5002162999589927,570.2095045000315,None,None,1,,,,,,,,,,,,,,209,2023-04-04_13h46.45.495,Main,2022.1.1,60.062152313005356,
negative,yellow,2,k,None,,,,,,,,,0,167,167,167,,,,,,,,,,,,,,,,,main,None,None,1,1.4990319999633357,572.7121086000116,None,None,1,,,,,,,,,,,,,,209,2023-04-04_13h46.45.495,Main,2022.1.1,60.062152313005356,
positive,blue,2,k,None,,,,,,,,,0,168,168,168,,,,,,,,,,,,,,,,,main,None,None,1,1.4965201999875717,575.2121254000231,None,None,1,,,,,,,,,,,,,,209,2023-04-04_13h46.45.495,Main,2022.1.1,60.062152313005356,
positive,red,2,None,None,,,,,,,,,0,169,169,169,,,,,,,,,,,,,,,,,main,None,None,1,1.5016631000326015,577.709408499999,None,None,1,,,,,,,,,,,,,,209,2023-04-04_13h46.45.495,Main,2022.1.1,60.062152313005356,
positive,red,1,None,None,,,,,,,,,0,170,170,170,,,,,,,,,,,,,,,,,main,None,None,1,1.4989602999994531,580.2119528000476,None,None,1,,,,,,,,,,,,,,209,2023-04-04_13h46.45.495,Main,2022.1.1,60.062152313005356,
negative,blue,2,None,k,,,,,,,,,0,171,171,171,,,,,,,,,,,,,,,,,main,k,k,1,0.6633820999995805,582.7117679000366,None,None,0,,,,,,,,,,,,,,209,2023-04-04_13h46.45.495,Main,2022.1.1,60.062152313005356,
positive,blue,2,k,None,,,,,,,,,0,172,172,172,,,,,,,,,,,,,,,,,main,None,None,1,1.4990551000228152,584.3758845000411,None,None,1,,,,,,,,,,,,,,209,2023-04-04_13h46.45.495,Main,2022.1.1,60.062152313005356,
negative,yellow,2,k,None,,,,,,,,,0,173,173,173,,,,,,,,,,,,,,,,,main,None,None,1,1.5016350000514649,586.875868800038,None,None,1,,,,,,,,,,,,,,209,2023-04-04_13h46.45.495,Main,2022.1.1,60.062152313005356,
positive,yellow,2,None,k,,,,,,,,,0,174,174,174,,,,,,,,,,,,,,,,,main,k,k,1,0.5171985999913886,589.3784790000063,None,None,0,,,,,,,,,,,,,,209,2023-04-04_13h46.45.495,Main,2022.1.1,60.062152313005356,
negative,blue,2,None,k,,,,,,,,,0,175,175,175,,,,,,,,,,,,,,,,,main,k,k,1,1.2120284999837168,590.8928638000507,None,None,0,,,,,,,,,,,,,,209,2023-04-04_13h46.45.495,Main,2022.1.1,60.062152313005356,
positive,blue,1,k,None,,,,,,,,,0,176,176,176,,,,,,,,,,,,,,,,,main,None,k,0,0.48294989997521043,593.1090038000257,None,None,1,,,,,,,,,,,,,,209,2023-04-04_13h46.45.495,Main,2022.1.1,60.062152313005356,
positive,yellow,1,None,k,,,,,,,,,0,177,177,177,,,,,,,,,,,,,,,,,main,k,k,1,0.8012534000445157,595.5949611000251,None,None,0,,,,,,,,,,,,,,209,2023-04-04_13h46.45.495,Main,2022.1.1,60.062152313005356,
positive,blue,1,k,None,,,,,,,,,0,178,178,178,,,,,,,,,,,,,,,,,main,None,None,1,1.4960426000179723,597.394990300003,None,None,1,,,,,,,,,,,,,,209,2023-04-04_13h46.45.495,Main,2022.1.1,60.062152313005356,
positive,yellow,2,None,k,,,,,,,,,0,179,179,179,,,,,,,,,,,,,,,,,main,k,None,0,0.37232339999172837,599.8922514000442,None,None,0,,,,,,,,,,,,,,209,2023-04-04_13h46.45.495,Main,2022.1.1,60.062152313005356,
positive,blue,1,k,None,,,,,,,,,0,180,180,180,,,,,,,,,,,,,,,,,main,None,None,1,1.5009586000232957,602.2614410000388,None,None,1,,,,,,,,,,,,,,209,2023-04-04_13h46.45.495,Main,2022.1.1,60.062152313005356,
negative,red,1,None,None,,,,,,,,,0,181,181,181,,,,,,,,,,,,,,,,,main,None,None,1,1.496199199988041,604.7613250000286,None,None,1,,,,,,,,,,,,,,209,2023-04-04_13h46.45.495,Main,2022.1.1,60.062152313005356,
negative,blue,1,None,k,,,,,,,,,0,182,182,182,,,,,,,,,,,,,,,,,main,k,k,1,0.6685610999702476,607.2587043000385,None,None,0,,,,,,,,,,,,,,209,2023-04-04_13h46.45.495,Main,2022.1.1,60.062152313005356,
negative,yellow,2,k,None,,,,,,,,,0,183,183,183,,,,,,,,,,,,,,,,,main,None,None,1,1.4992170999757946,608.9280454000109,None,None,1,,,,,,,,,,,,,,209,2023-04-04_13h46.45.495,Main,2022.1.1,60.062152313005356,
positive,yellow,2,None,k,,,,,,,,,0,184,184,184,,,,,,,,,,,,,,,,,main,k,k,1,-0.7676828000112437,611.4279833000037,None,None,0,,,,,,,,,,,,,,209,2023-04-04_13h46.45.495,Main,2022.1.1,60.062152313005356,
positive,yellow,1,None,k,,,,,,,,,0,185,185,185,,,,,,,,,,,,,,,,,main,k,k,1,0.6714222000446171,614.6752273000311,None,None,0,,,,,,,,,,,,,,209,2023-04-04_13h46.45.495,Main,2022.1.1,60.062152313005356,
positive,red,2,None,None,,,,,,,,,0,186,186,186,,,,,,,,,,,,,,,,,main,None,None,1,1.4979792999802157,616.3444517000462,None,None,1,,,,,,,,,,,,,,209,2023-04-04_13h46.45.495,Main,2022.1.1,60.062152313005356,
positive,blue,1,k,None,,,,,,,,,0,187,187,187,,,,,,,,,,,,,,,,,main,None,None,1,1.4963411000207998,618.8444987999974,None,None,1,,,,,,,,,,,,,,209,2023-04-04_13h46.45.495,Main,2022.1.1,60.062152313005356,
negative,yellow,1,k,None,,,,,,,,,0,188,188,188,,,,,,,,,,,,,,,,,main,None,None,1,1.5017399999778718,621.3417457000469,None,None,1,,,,,,,,,,,,,,209,2023-04-04_13h46.45.495,Main,2022.1.1,60.062152313005356,
positive,yellow,2,None,k,,,,,,,,,0,189,189,189,,,,,,,,,,,,,,,,,main,k,k,1,0.5325250999885611,623.8443044000305,None,None,0,,,,,,,,,,,,,,209,2023-04-04_13h46.45.495,Main,2022.1.1,60.062152313005356,
negative,yellow,2,k,None,,,,,,,,,0,190,190,190,,,,,,,,,,,,,,,,,main,None,None,1,1.4990727999829687,625.3776443999959,None,None,1,,,,,,,,,,,,,,209,2023-04-04_13h46.45.495,Main,2022.1.1,60.062152313005356,
negative,yellow,1,k,None,,,,,,,,,0,191,191,191,,,,,,,,,,,,,,,,,main,None,None,1,1.4960751000326127,627.8775691000046,None,None,1,,,,,,,,,,,,,,209,2023-04-04_13h46.45.495,Main,2022.1.1,60.062152313005356,
positive,blue,2,k,None,,,,,,,,,0,192,192,192,,,,,,,,,,,,,,,,,main,None,None,1,1.5020325999939814,630.3748748000362,None,None,1,,,,,,,,,,,,,,209,2023-04-04_13h46.45.495,Main,2022.1.1,60.062152313005356,
positive,yellow,1,None,k,,,,,,,,,0,193,193,193,,,,,,,,,,,,,,,,,main,k,k,1,0.6824465999961831,632.8774961000308,None,None,0,,,,,,,,,,,,,,209,2023-04-04_13h46.45.495,Main,2022.1.1,60.062152313005356,
negative,red,2,None,None,,,,,,,,,0,194,194,194,,,,,,,,,,,,,,,,,main,None,None,1,1.496172100014519,634.5608395000454,None,None,1,,,,,,,,,,,,,,209,2023-04-04_13h46.45.495,Main,2022.1.1,60.062152313005356,
positive,red,1,None,None,,,,,,,,,0,195,195,195,,,,,,,,,,,,,,,,,main,None,None,1,1.5019611000316218,637.0580655999947,None,None,1,,,,,,,,,,,,,,209,2023-04-04_13h46.45.495,Main,2022.1.1,60.062152313005356,
negative,blue,1,None,k,,,,,,,,,0,196,196,196,,,,,,,,,,,,,,,,,main,k,k,1,0.8657912000198849,639.5606699000346,None,None,0,,,,,,,,,,,,,,209,2023-04-04_13h46.45.495,Main,2022.1.1,60.062152313005356,
positive,blue,2,k,None,,,,,,,,,0,197,197,197,,,,,,,,,,,,,,,,,main,None,None,1,1.4964218999957666,641.4273125000182,None,None,1,,,,,,,,,,,,,,209,2023-04-04_13h46.45.495,Main,2022.1.1,60.062152313005356,
negative,blue,2,None,k,,,,,,,,,0,198,198,198,,,,,,,,,,,,,,,,,main,k,k,1,0.7024213999975473,643.924636700016,None,None,0,,,,,,,,,,,,,,209,2023-04-04_13h46.45.495,Main,2022.1.1,60.062152313005356,
negative,blue,2,None,k,,,,,,,,,0,199,199,199,,,,,,,,,,,,,,,,,main,k,k,1,0.6321254999493249,645.6272939000046,None,None,0,,,,,,,,,,,,,,209,2023-04-04_13h46.45.495,Main,2022.1.1,60.062152313005356,
positive,blue,2,k,None,,,,,,,,,0,200,200,200,,,,,,,,,,,,,,,,,main,None,None,1,1.4972353999619372,647.2604431000073,None,None,1,,,,,,,,,,,,,,209,2023-04-04_13h46.45.495,Main,2022.1.1,60.062152313005356,
positive,blue,2,k,None,,,,,,,,,0,201,201,201,,,,,,,,,,,,,,,,,main,None,None,1,1.5010703000007197,649.7577865000349,None,None,1,,,,,,,,,,,,,,209,2023-04-04_13h46.45.495,Main,2022.1.1,60.062152313005356,
negative,yellow,2,k,None,,,,,,,,,0,202,202,202,,,,,,,,,,,,,,,,,main,None,None,1,1.4989092000178061,652.2604337999946,None,None,1,,,,,,,,,,,,,,209,2023-04-04_13h46.45.495,Main,2022.1.1,60.062152313005356,
positive,red,1,None,None,,,,,,,,,0,203,203,203,,,,,,,,,,,,,,,,,main,None,None,1,1.4967405999777839,654.7579590000096,None,None,1,,,,,,,,,,,,,,209,2023-04-04_13h46.45.495,Main,2022.1.1,60.062152313005356,
negative,blue,2,None,k,,,,,,,,,0,204,204,204,,,,,,,,,,,,,,,,,main,k,k,1,0.8182180000003427,657.2579150000238,None,None,0,,,,,,,,,,,,,,209,2023-04-04_13h46.45.495,Main,2022.1.1,60.062152313005356,
negative,red,1,None,None,,,,,,,,,0,205,205,205,,,,,,,,,,,,,,,,,main,None,None,1,1.4988435999839567,659.0745319999987,None,None,1,,,,,,,,,,,,,,209,2023-04-04_13h46.45.495,Main,2022.1.1,60.062152313005356,
negative,blue,2,None,k,,,,,,,,,0,206,206,206,,,,,,,,,,,,,,,,,main,k,k,1,0.9132539000129327,661.5767731000087,None,None,0,,,,,,,,,,,,,,209,2023-04-04_13h46.45.495,Main,2022.1.1,60.062152313005356,
negative,yellow,2,k,None,,,,,,,,,0,207,207,207,,,,,,,,,,,,,,,,,main,None,None,1,1.5015896999975666,663.4908002000302,None,None,1,,,,,,,,,,,,,,209,2023-04-04_13h46.45.495,Main,2022.1.1,60.062152313005356,
positive,yellow,2,None,k,,,,,,,,,0,208,208,208,,,,,,,,,,,,,,,,,main,k,k,1,0.6472916000057012,665.993422700034,None,None,0,,,,,,,,,,,,,,209,2023-04-04_13h46.45.495,Main,2022.1.1,60.062152313005356,
negative,yellow,1,k,None,,,,,,,,,0,209,209,209,,,,,,,,,,,,,,,,,main,None,None,1,1.5012290999875404,667.6435936000198,None,None,1,,,,,,,,,,,,,,209,2023-04-04_13h46.45.495,Main,2022.1.1,60.062152313005356,
negative,red,2,None,None,,,,,,,,,0,210,210,210,,,,,,,,,,,,,,,,,main,None,None,1,1.4963955000275746,670.1432459000498,None,None,1,,,,,,,,,,,,,,209,2023-04-04_13h46.45.495,Main,2022.1.1,60.062152313005356,
negative,blue,1,None,k,,,,,,,,,0,211,211,211,,,,,,,,,,,,,,,,,main,k,k,1,3.6518783000065014,672.6406145000365,None,None,0,,,,,,,,,,,,,,209,2023-04-04_13h46.45.495,Main,2022.1.1,60.062152313005356,
negative,yellow,1,k,None,,,,,,,,,0,212,212,212,,,,,,,,,,,,,,,,,main,None,None,1,1.4984387999866158,678.292978500016,None,None,1,,,,,,,,,,,,,,209,2023-04-04_13h46.45.495,Main,2022.1.1,60.062152313005356,
positive,blue,1,k,None,,,,,,,,,0,213,213,213,,,,,,,,,,,,,,,,,main,None,k,0,0.768551999994088,680.790450200031,None,None,1,,,,,,,,,,,,,,209,2023-04-04_13h46.45.495,Main,2022.1.1,60.062152313005356,
positive,blue,1,k,None,,,,,,,,,0,214,214,214,,,,,,,,,,,,,,,,,main,None,k,0,0.6182217000168748,683.5596560999984,None,None,1,,,,,,,,,,,,,,209,2023-04-04_13h46.45.495,Main,2022.1.1,60.062152313005356,
positive,yellow,1,None,k,,,,,,,,,0,215,215,215,,,,,,,,,,,,,,,,,main,k,k,1,1.4539828000124544,686.1903242000262,None,None,0,,,,,,,,,,,,,,209,2023-04-04_13h46.45.495,Main,2022.1.1,60.062152313005356,
positive,yellow,1,None,k,,,,,,,,,0,216,216,216,,,,,,,,,,,,,,,,,main,k,k,1,0.6467646000091918,688.6428634000476,None,None,0,,,,,,,,,,,,,,209,2023-04-04_13h46.45.495,Main,2022.1.1,60.062152313005356,
positive,yellow,2,None,k,,,,,,,,,0,217,217,217,,,,,,,,,,,,,,,,,main,k,k,1,0.7377245000097901,690.2930342000327,None,None,0,,,,,,,,,,,,,,209,2023-04-04_13h46.45.495,Main,2022.1.1,60.062152313005356,
negative,blue,1,None,k,,,,,,,,,0,218,218,218,,,,,,,,,,,,,,,,,main,k,k,1,0.527149100031238,692.0276126000099,None,None,0,,,,,,,,,,,,,,209,2023-04-04_13h46.45.495,Main,2022.1.1,60.062152313005356,
positive,red,2,None,None,,,,,,,,,0,219,219,219,,,,,,,,,,,,,,,,,main,None,None,1,1.5009770999895409,693.5571184,None,None,1,,,,,,,,,,,,,,209,2023-04-04_13h46.45.495,Main,2022.1.1,60.062152313005356,
positive,yellow,1,None,k,,,,,,,,,0,220,220,220,,,,,,,,,,,,,,,,,main,k,k,1,0.5993682999978773,696.0592669000034,None,None,0,,,,,,,,,,,,,,209,2023-04-04_13h46.45.495,Main,2022.1.1,60.062152313005356,
positive,blue,1,k,None,,,,,,,,,0,221,221,221,,,,,,,,,,,,,,,,,main,None,None,1,1.4991684000124224,697.6592060000403,None,None,1,,,,,,,,,,,,,,209,2023-04-04_13h46.45.495,Main,2022.1.1,60.062152313005356,
positive,yellow,2,None,k,,,,,,,,,0,222,222,222,,,,,,,,,,,,,,,,,main,k,k,1,0.6631040999782272,700.1592534999945,None,None,0,,,,,,,,,,,,,,209,2023-04-04_13h46.45.495,Main,2022.1.1,60.062152313005356,
negative,yellow,1,k,None,,,,,,,,,0,223,223,223,,,,,,,,,,,,,,,,,main,None,None,1,1.5017762999632396,701.8233257000102,None,None,1,,,,,,,,,,,,,,209,2023-04-04_13h46.45.495,Main,2022.1.1,60.062152313005356,
positive,yellow,2,None,k,,,,,,,,,0,224,224,224,,,,,,,,,,,,,,,,,main,k,k,1,0.6660551999812014,704.3259519000421,None,None,0,,,,,,,,,,,,,,209,2023-04-04_13h46.45.495,Main,2022.1.1,60.062152313005356,
negative,yellow,2,k,None,,,,,,,,,0,225,225,225,,,,,,,,,,,,,,,,,main,None,None,1,1.498760599992238,705.9927970000426,None,None,1,,,,,,,,,,,,,,209,2023-04-04_13h46.45.495,Main,2022.1.1,60.062152313005356,
negative,blue,2,None,k,,,,,,,,,0,226,226,226,,,,,,,,,,,,,,,,,main,k,k,1,0.6658584999968298,708.4923699000501,None,None,0,,,,,,,,,,,,,,209,2023-04-04_13h46.45.495,Main,2022.1.1,60.062152313005356,
positive,red,2,None,None,,,,,,,,,0,227,227,227,,,,,,,,,,,,,,,,,main,None,None,1,1.4963970999815501,710.15905940003,None,None,1,,,,,,,,,,,,,,209,2023-04-04_13h46.45.495,Main,2022.1.1,60.062152313005356,
positive,blue,2,k,None,,,,,,,,,0,228,228,228,,,,,,,,,,,,,,,,,main,None,None,1,1.4992260999861173,712.6564126000158,None,None,1,,,,,,,,,,,,,,209,2023-04-04_13h46.45.495,Main,2022.1.1,60.062152313005356,
negative,blue,1,None,k,,,,,,,,,0,229,229,229,,,,,,,,,,,,,,,,,main,k,k,1,0.618512200016994,715.1564049000153,None,None,0,,,,,,,,,,,,,,209,2023-04-04_13h46.45.495,Main,2022.1.1,60.062152313005356,
positive,yellow,1,None,k,,,,,,,,,0,230,230,230,,,,,,,,,,,,,,,,,main,k,k,1,1.1991967000067234,716.775666200032,None,None,0,,,,,,,,,,,,,,209,2023-04-04_13h46.45.495,Main,2022.1.1,60.062152313005356,
negative,blue,2,None,k,,,,,,,,,0,231,231,231,,,,,,,,,,,,,,,,,main,k,k,1,0.8323041999829002,718.9754171000095,None,None,0,,,,,,,,,,,,,,209,2023-04-04_13h46.45.495,Main,2022.1.1,60.062152313005356,
negative,red,1,None,None,,,,,,,,,0,232,232,232,,,,,,,,,,,,,,,,,main,None,None,1,1.4989916000049561,720.8088503000326,None,None,1,,,,,,,,,,,,,,209,2023-04-04_13h46.45.495,Main,2022.1.1,60.062152313005356,
positive,blue,2,k,None,,,,,,,,,0,233,233,233,,,,,,,,,,,,,,,,,main,None,None,1,1.4973861000034958,723.3062408000114,None,None,1,,,,,,,,,,,,,,209,2023-04-04_13h46.45.495,Main,2022.1.1,60.062152313005356,
negative,yellow,1,k,None,,,,,,,,,0,234,234,234,,,,,,,,,,,,,,,,,main,None,None,1,1.4981572999968193,725.8088332000189,None,None,1,,,,,,,,,,,,,,209,2023-04-04_13h46.45.495,Main,2022.1.1,60.062152313005356,
negative,yellow,2,k,None,,,,,,,,,0,235,235,235,,,,,,,,,,,,,,,,,main,None,None,1,1.4954864000319503,728.3063480000128,None,None,1,,,,,,,,,,,,,,209,2023-04-04_13h46.45.495,Main,2022.1.1,60.062152313005356,
positive,red,1,None,None,,,,,,,,,0,236,236,236,,,,,,,,,,,,,,,,,main,None,None,1,1.4984057999681681,730.8060269000125,None,None,1,,,,,,,,,,,,,,209,2023-04-04_13h46.45.495,Main,2022.1.1,60.062152313005356,
negative,red,2,None,None,,,,,,,,,0,237,237,237,,,,,,,,,,,,,,,,,main,None,None,1,1.5009036000119522,733.3060290000285,None,None,1,,,,,,,,,,,,,,209,2023-04-04_13h46.45.495,Main,2022.1.1,60.062152313005356,
negative,blue,1,None,k,,,,,,,,,0,238,238,238,,,,,,,,,,,,,,,,,main,k,k,1,0.6456692000501789,735.8085581000196,None,None,0,,,,,,,,,,,,,,209,2023-04-04_13h46.45.495,Main,2022.1.1,60.062152313005356,
positive,blue,1,k,None,,,,,,,,,0,239,239,239,,,,,,,,,,,,,,,,,main,None,None,1,1.501771999988705,737.4558870000183,None,None,1,,,,,,,,,,,,,,209,2023-04-04_13h46.45.495,Main,2022.1.1,60.062152313005356,
,,,,,,,,,,,,,,,,,,,,,,,,,,,,,,,,,,,,,,,,,,,,,,,,,,,,,739.9584313000087,None,,,,,,
