distractor,target,set,ans1,ans2,rep_loop4.thisRepN,rep_loop4.thisTrialN,rep_loop4.thisN,rep_loop4.thisIndex,st2_prac_loop.thisRepN,st2_prac_loop.thisTrialN,st2_prac_loop.thisN,st2_prac_loop.thisIndex,st2_main_loop.thisRepN,st2_main_loop.thisTrialN,st2_main_loop.thisN,st2_main_loop.thisIndex,image_4.started,image_4.stopped,sound_2.started,sound_2.stopped,key_resp_3.keys,key_resp_3.rt,image_5.started,image_5.stopped,st_prac_back.started,st_prac_back.stopped,st_prac_text.started,st_prac_text.stopped,st_fix_back.started,st_fix_back.stopped,st_fix_2.started,st_fix_2.stopped,main_prac,st_ans,st_res,st_corr,st_rt,st_back.started,st_back.stopped,st2_resp.keys,st2_resp.corr,st_main_back.started,st_main_back.stopped,st_main_text.started,st_main_text.stopped,mouse_4.x,mouse_4.y,mouse_4.leftButton,mouse_4.midButton,mouse_4.rightButton,mouse_4.started,mouse_4.stopped,text_2.started,text_2.stopped,id*,date,expName,psychopyVersion,frameRate,
negative,yellow,1,k,None,,,,,0,0,0,0,,,,,30.989555399981327,None,35.197560809901915,None,space,56.451857499894686,91.6797989999177,None,94.42764479992911,None,94.42764479992911,None,96.42726919997949,None,96.42726919997949,None,prac,k,k,1,4.699698899989016,98.4426307999529,None,None,0,,,,,,,,,,,,,,210,2023-04-05_15h06.18.801,Main,2022.1.1,61.13747497016096,
positive,red,2,None,None,,,,,0,1,1,1,,,,,,,,,,,,,,,,,,,,,prac,None,None,1,1.4869553000899032,105.16013969993219,None,None,1,,,,,,,,,,,,,,210,2023-04-05_15h06.18.801,Main,2022.1.1,61.13747497016096,
negative,blue,2,None,k,,,,,0,2,2,2,,,,,,,,,,,,,,,,,,,,,prac,None,None,1,1.4989963999250904,107.64602969994303,None,None,1,,,,,,,,,,,,,,210,2023-04-05_15h06.18.801,Main,2022.1.1,61.13747497016096,
positive,yellow,1,None,k,,,,,0,3,3,3,,,,,,,,,,,,,,,,,,,,,prac,None,None,1,1.4963865999598056,110.14604609995149,None,None,1,,,,,,,,,,,,,,210,2023-04-05_15h06.18.801,Main,2022.1.1,61.13747497016096,
negative,blue,2,None,k,,,,,0,4,4,4,,,,,,,,,,,,,,,,,,,,,prac,None,None,1,1.5016100000357255,112.6433842999395,None,None,1,,,,,,,,,,,,,,210,2023-04-05_15h06.18.801,Main,2022.1.1,61.13747497016096,
negative,blue,1,None,k,,,,,0,5,5,5,,,,,,,,,,,,,,,,,,,,,prac,None,None,1,1.4990457000676543,115.14588729990646,None,None,1,,,,,,,,,,,,,,210,2023-04-05_15h06.18.801,Main,2022.1.1,61.13747497016096,
negative,yellow,2,k,None,,,,,0,6,6,6,,,,,,,,,,,,,,,,,,,,,prac,k,k,1,1.0514242000645027,117.64581939997151,None,None,0,,,,,,,,,,,,,,210,2023-04-05_15h06.18.801,Main,2022.1.1,61.13747497016096,
negative,red,1,None,None,,,,,0,7,7,7,,,,,,,,,,,,,,,,,,,,,prac,None,None,1,1.4969076999695972,119.70013089990243,None,None,1,,,,,,,,,,,,,,210,2023-04-05_15h06.18.801,Main,2022.1.1,61.13747497016096,
positive,yellow,2,None,k,,,,,0,8,8,8,,,,,,,,,,,,,,,,,,,,,prac,None,None,1,1.499296099995263,122.19575879990589,None,None,1,,,,,,,,,,,,,,210,2023-04-05_15h06.18.801,Main,2022.1.1,61.13747497016096,
negative,yellow,1,k,None,,,,,0,9,9,9,,,,,,,,,,,,,,,,,,,,,prac,k,k,1,0.7966531000565737,124.69653739989735,None,None,0,,,,,,,,,,,,,,210,2023-04-05_15h06.18.801,Main,2022.1.1,61.13747497016096,
positive,yellow,2,None,k,,,,,0,10,10,10,,,,,,,,,,,,,,,,,,,,,prac,None,None,1,1.501476199948229,126.49304949992802,None,None,1,,,,,,,,,,,,,,210,2023-04-05_15h06.18.801,Main,2022.1.1,61.13747497016096,
negative,yellow,2,k,None,,,,,0,11,11,11,,,,,,,,,,,,,,,,,,,,,prac,k,k,1,1.3828689999645576,128.99558329989668,None,None,0,,,,,,,,,,,,,,210,2023-04-05_15h06.18.801,Main,2022.1.1,61.13747497016096,
negative,red,2,None,None,,,,,0,12,12,12,,,,,,,,,,,,,,,,,,,,,prac,None,None,1,1.4960566000081599,131.37893010000698,None,None,1,,,,,,,,,,,,,,210,2023-04-05_15h06.18.801,Main,2022.1.1,61.13747497016096,
positive,red,1,None,None,,,,,0,13,13,13,,,,,,,,,,,,,,,,,,,,,prac,None,None,1,1.501935699954629,133.87626209994778,None,None,1,,,,,,,,,,,,,,210,2023-04-05_15h06.18.801,Main,2022.1.1,61.13747497016096,
positive,blue,2,k,None,,,,,0,14,14,14,,,,,,,,,,,,,,,,,,,,,prac,k,k,1,0.7489898999920115,136.37879559991416,None,None,0,,,,,,,,,,,,,,210,2023-04-05_15h06.18.801,Main,2022.1.1,61.13747497016096,
positive,blue,1,k,None,,,,,0,15,15,15,,,,,,,,,,,,,,,,,,,,,prac,k,k,1,0.8323023000266403,138.12856839993037,None,None,0,,,,,,,,,,,,,,210,2023-04-05_15h06.18.801,Main,2022.1.1,61.13747497016096,
negative,blue,1,None,k,,,,,0,16,16,16,,,,,,,,,,,,,,,,,,,,,prac,None,None,1,1.4963710999581963,139.96199109998997,None,None,1,,,,,,,,,,,,,,210,2023-04-05_15h06.18.801,Main,2022.1.1,61.13747497016096,
positive,blue,2,k,None,,,,,0,17,17,17,,,,,,,,,,,,,,,,,,,,,prac,k,k,1,0.718512500054203,142.45940569997765,None,None,0,,,,,,,,,,,,,,210,2023-04-05_15h06.18.801,Main,2022.1.1,61.13747497016096,
positive,blue,1,k,None,,,,,0,18,18,18,,,,,,,,,,,,,,,,,,,,,prac,k,k,1,1.2661197000415996,144.17861649999395,None,None,0,,,,,,,,,,,,,,210,2023-04-05_15h06.18.801,Main,2022.1.1,61.13747497016096,
positive,yellow,1,None,k,,,,,0,19,19,19,,,,,,,,,,,,,,,,,,,,,prac,None,None,1,1.498522000038065,146.44526369997766,None,None,1,,,,,,,,,,,,,,210,2023-04-05_15h06.18.801,Main,2022.1.1,61.13747497016096,
negative,yellow,1,k,None,,,,,1,0,20,0,,,,,,,,,,,,,,,,,,,,,prac,k,k,1,0.6692337999120355,148.9450407999102,None,None,0,,,,,,,,,,,,,,210,2023-04-05_15h06.18.801,Main,2022.1.1,61.13747497016096,
positive,red,2,None,None,,,,,1,1,21,1,,,,,,,,,,,,,,,,,,,,,prac,None,None,1,1.4932789999293163,150.6183028999949,None,None,1,,,,,,,,,,,,,,210,2023-04-05_15h06.18.801,Main,2022.1.1,61.13747497016096,
negative,blue,2,None,k,,,,,1,2,22,2,,,,,,,,,,,,,,,,,,,,,prac,None,None,1,1.5018159999744967,153.10919250000734,None,None,1,,,,,,,,,,,,,,210,2023-04-05_15h06.18.801,Main,2022.1.1,61.13747497016096,
positive,yellow,1,None,k,,,,,1,3,23,3,,,,,,,,,,,,,,,,,,,,,prac,None,None,1,1.4965594001114368,155.6117152000079,None,None,1,,,,,,,,,,,,,,210,2023-04-05_15h06.18.801,Main,2022.1.1,61.13747497016096,
negative,blue,2,None,k,,,,,1,4,24,4,,,,,,,,,,,,,,,,,,,,,prac,None,None,1,1.501875999965705,158.10901489993557,None,None,1,,,,,,,,,,,,,,210,2023-04-05_15h06.18.801,Main,2022.1.1,61.13747497016096,
negative,blue,1,None,k,,,,,1,5,25,5,,,,,,,,,,,,,,,,,,,,,prac,None,None,1,1.4966563999187201,160.61232179997023,None,None,1,,,,,,,,,,,,,,210,2023-04-05_15h06.18.801,Main,2022.1.1,61.13747497016096,
negative,yellow,2,k,None,,,,,1,6,26,6,,,,,,,,,,,,,,,,,,,,,prac,k,k,1,0.9158530000131577,163.11474059999455,None,None,0,,,,,,,,,,,,,,210,2023-04-05_15h06.18.801,Main,2022.1.1,61.13747497016096,
negative,red,1,None,None,,,,,1,7,27,7,,,,,,,,,,,,,,,,,,,,,prac,None,None,1,1.5015014000236988,165.02560489997268,None,None,1,,,,,,,,,,,,,,210,2023-04-05_15h06.18.801,Main,2022.1.1,61.13747497016096,
positive,yellow,2,None,k,,,,,1,8,28,8,,,,,,,,,,,,,,,,,,,,,prac,None,None,1,1.49935220007319,167.5281677999301,None,None,1,,,,,,,,,,,,,,210,2023-04-05_15h06.18.801,Main,2022.1.1,61.13747497016096,
negative,yellow,1,k,None,,,,,1,9,29,9,,,,,,,,,,,,,,,,,,,,,prac,k,k,1,1.263147999998182,170.02798449993134,None,None,0,,,,,,,,,,,,,,210,2023-04-05_15h06.18.801,Main,2022.1.1,61.13747497016096,
positive,yellow,2,None,k,,,,,1,10,30,10,,,,,,,,,,,,,,,,,,,,,prac,None,None,1,1.5014425000408664,172.29207530000713,None,None,1,,,,,,,,,,,,,,210,2023-04-05_15h06.18.801,Main,2022.1.1,61.13747497016096,
negative,yellow,2,k,None,,,,,1,11,31,11,,,,,,,,,,,,,,,,,,,,,prac,k,k,1,0.8312579999910668,174.7921120999381,None,None,0,,,,,,,,,,,,,,210,2023-04-05_15h06.18.801,Main,2022.1.1,61.13747497016096,
negative,red,2,None,None,,,,,1,12,32,12,,,,,,,,,,,,,,,,,,,,,prac,None,None,1,1.4959840000374243,176.62832429993432,None,None,1,,,,,,,,,,,,,,210,2023-04-05_15h06.18.801,Main,2022.1.1,61.13747497016096,
positive,red,1,None,None,,,,,1,13,33,13,,,,,,,,,,,,,,,,,,,,,prac,None,None,1,1.5018328001024202,179.1252511999337,None,None,1,,,,,,,,,,,,,,210,2023-04-05_15h06.18.801,Main,2022.1.1,61.13747497016096,
positive,blue,2,k,None,,,,,1,14,34,14,,,,,,,,,,,,,,,,,,,,,prac,k,k,1,0.6997323000105098,181.62784729991108,None,None,0,,,,,,,,,,,,,,210,2023-04-05_15h06.18.801,Main,2022.1.1,61.13747497016096,
positive,blue,1,k,None,,,,,1,15,35,15,,,,,,,,,,,,,,,,,,,,,prac,k,k,1,0.6968240999849513,183.32783189998008,None,None,0,,,,,,,,,,,,,,210,2023-04-05_15h06.18.801,Main,2022.1.1,61.13747497016096,
negative,blue,1,None,k,,,,,1,16,36,16,,,,,,,,,,,,,,,,,,,,,prac,None,None,1,1.500887000001967,185.02513460000046,None,None,1,,,,,,,,,,,,,,210,2023-04-05_15h06.18.801,Main,2022.1.1,61.13747497016096,
positive,blue,2,k,None,,,,,1,17,37,17,,,,,,,,,,,,,,,,,,,,,prac,k,k,1,1.3995180000783876,187.52771729999222,None,None,0,,,,,,,,,,,,,,210,2023-04-05_15h06.18.801,Main,2022.1.1,61.13747497016096,
positive,blue,1,k,None,,,,,1,18,38,18,,,,,,,,,,,,,,,,,,,,,prac,k,k,1,0.8466427999082953,189.92524449992925,None,None,0,,,,,,,,,,,,,,210,2023-04-05_15h06.18.801,Main,2022.1.1,61.13747497016096,
positive,yellow,1,None,k,,,,,1,19,39,19,,,,,,,,,,,,,,,,,,,,,prac,None,None,1,1.5018150999676436,191.7755204999121,None,None,1,,,,,,,,,,,,,,210,2023-04-05_15h06.18.801,Main,2022.1.1,61.13747497016096,
,,,,,,,,,,,,,,,,,,,,,,,,,,,,,,,,,,,,,,,,,,194.27758359990548,None,194.27758359990548,None,0.23148148,0.041666668,0,0,0,0.01407760998699814,None,,,210,2023-04-05_15h06.18.801,Main,2022.1.1,61.13747497016096,
negative,yellow,2,k,None,,,,,,,,,0,0,0,0,,,,,,,,,,,,,196.11103529995307,None,196.11103529995307,None,main,k,k,1,1.0522810999536887,198.14754659996834,None,None,0,,,,,,,,,,,,,,210,2023-04-05_15h06.18.801,Main,2022.1.1,61.13747497016096,
positive,red,1,None,None,,,,,,,,,0,1,1,1,,,,,,,,,,,,,,,,,main,None,None,1,1.4959567000623792,200.21075939992443,None,None,1,,,,,,,,,,,,,,210,2023-04-05_15h06.18.801,Main,2022.1.1,61.13747497016096,
positive,blue,2,k,None,,,,,,,,,0,2,2,2,,,,,,,,,,,,,,,,,main,k,k,1,0.782710500061512,202.70810819999315,None,None,0,,,,,,,,,,,,,,210,2023-04-05_15h06.18.801,Main,2022.1.1,61.13747497016096,
positive,blue,1,k,None,,,,,,,,,0,3,3,3,,,,,,,,,,,,,,,,,main,k,k,1,0.7012063000584021,204.49146009993274,None,None,0,,,,,,,,,,,,,,210,2023-04-05_15h06.18.801,Main,2022.1.1,61.13747497016096,
negative,yellow,2,k,None,,,,,,,,,0,4,4,4,,,,,,,,,,,,,,,,,main,k,k,1,0.7991554000182077,206.1939548999071,None,None,0,,,,,,,,,,,,,,210,2023-04-05_15h06.18.801,Main,2022.1.1,61.13747497016096,
positive,yellow,2,None,k,,,,,,,,,0,5,5,5,,,,,,,,,,,,,,,,,main,None,None,1,1.4963912999955937,207.99400859989692,None,None,1,,,,,,,,,,,,,,210,2023-04-05_15h06.18.801,Main,2022.1.1,61.13747497016096,
negative,blue,2,None,k,,,,,,,,,0,6,6,6,,,,,,,,,,,,,,,,,main,None,None,1,1.5016402000328526,210.49134449998382,None,None,1,,,,,,,,,,,,,,210,2023-04-05_15h06.18.801,Main,2022.1.1,61.13747497016096,
positive,red,2,None,None,,,,,,,,,0,7,7,7,,,,,,,,,,,,,,,,,main,None,None,1,1.4969854999799281,212.99381429993082,None,None,1,,,,,,,,,,,,,,210,2023-04-05_15h06.18.801,Main,2022.1.1,61.13747497016096,
positive,yellow,1,None,k,,,,,,,,,0,8,8,8,,,,,,,,,,,,,,,,,main,None,None,1,1.5011834000470117,215.49116589990444,None,None,1,,,,,,,,,,,,,,210,2023-04-05_15h06.18.801,Main,2022.1.1,61.13747497016096,
negative,red,1,None,None,,,,,,,,,0,9,9,9,,,,,,,,,,,,,,,,,main,None,None,1,1.5023368999827653,217.99375439994037,None,None,1,,,,,,,,,,,,,,210,2023-04-05_15h06.18.801,Main,2022.1.1,61.13747497016096,
positive,yellow,1,None,k,,,,,,,,,0,10,10,10,,,,,,,,,,,,,,,,,main,None,None,1,1.49360779998824,220.49461059994064,None,None,1,,,,,,,,,,,,,,210,2023-04-05_15h06.18.801,Main,2022.1.1,61.13747497016096,
negative,yellow,1,k,None,,,,,,,,,0,11,11,11,,,,,,,,,,,,,,,,,main,k,k,1,0.9854199999244884,222.99125019996427,None,None,0,,,,,,,,,,,,,,210,2023-04-05_15h06.18.801,Main,2022.1.1,61.13747497016096,
negative,yellow,1,k,None,,,,,,,,,0,12,12,12,,,,,,,,,,,,,,,,,main,k,k,1,0.8631722000427544,224.97694219998084,None,None,0,,,,,,,,,,,,,,210,2023-04-05_15h06.18.801,Main,2022.1.1,61.13747497016096,
negative,red,2,None,None,,,,,,,,,0,13,13,13,,,,,,,,,,,,,,,,,main,None,None,1,1.5015910000074655,226.84096079994924,None,None,1,,,,,,,,,,,,,,210,2023-04-05_15h06.18.801,Main,2022.1.1,61.13747497016096,
positive,yellow,2,None,k,,,,,,,,,0,14,14,14,,,,,,,,,,,,,,,,,main,None,None,1,1.5001101999077946,229.34355089999735,None,None,1,,,,,,,,,,,,,,210,2023-04-05_15h06.18.801,Main,2022.1.1,61.13747497016096,
positive,blue,1,k,None,,,,,,,,,0,15,15,15,,,,,,,,,,,,,,,,,main,k,k,1,0.7786951999878511,231.84349259990267,None,None,0,,,,,,,,,,,,,,210,2023-04-05_15h06.18.801,Main,2022.1.1,61.13747497016096,
negative,blue,1,None,k,,,,,,,,,0,16,16,16,,,,,,,,,,,,,,,,,main,None,None,1,1.5016851000254974,233.62466839991976,None,None,1,,,,,,,,,,,,,,210,2023-04-05_15h06.18.801,Main,2022.1.1,61.13747497016096,
positive,blue,2,k,None,,,,,,,,,0,17,17,17,,,,,,,,,,,,,,,,,main,k,k,1,0.6658338999841362,236.12667119991966,None,None,0,,,,,,,,,,,,,,210,2023-04-05_15h06.18.801,Main,2022.1.1,61.13747497016096,
negative,blue,2,None,k,,,,,,,,,0,18,18,18,,,,,,,,,,,,,,,,,main,None,None,1,1.4962182000745088,237.7934047000017,None,None,1,,,,,,,,,,,,,,210,2023-04-05_15h06.18.801,Main,2022.1.1,61.13747497016096,
negative,blue,1,None,k,,,,,,,,,0,19,19,19,,,,,,,,,,,,,,,,,main,None,None,1,1.501593800028786,240.29064699995797,None,None,1,,,,,,,,,,,,,,210,2023-04-05_15h06.18.801,Main,2022.1.1,61.13747497016096,
negative,blue,1,None,k,,,,,,,,,0,20,20,20,,,,,,,,,,,,,,,,,main,None,None,1,1.4966568999225274,242.79322549991775,None,None,1,,,,,,,,,,,,,,210,2023-04-05_15h06.18.801,Main,2022.1.1,61.13747497016096,
negative,blue,2,None,k,,,,,,,,,0,21,21,21,,,,,,,,,,,,,,,,,main,None,None,1,1.5014967999886721,245.29054249997716,None,None,1,,,,,,,,,,,,,,210,2023-04-05_15h06.18.801,Main,2022.1.1,61.13747497016096,
negative,red,1,None,None,,,,,,,,,0,22,22,22,,,,,,,,,,,,,,,,,main,None,None,1,1.4991034000413492,247.79310749995057,None,None,1,,,,,,,,,,,,,,210,2023-04-05_15h06.18.801,Main,2022.1.1,61.13747497016096,
positive,red,2,None,None,,,,,,,,,0,23,23,23,,,,,,,,,,,,,,,,,main,None,None,1,1.4993199000600725,250.29305399989244,None,None,1,,,,,,,,,,,,,,210,2023-04-05_15h06.18.801,Main,2022.1.1,61.13747497016096,
negative,red,2,None,None,,,,,,,,,0,24,24,24,,,,,,,,,,,,,,,,,main,None,None,1,1.4992003999650478,252.7904732999159,None,None,1,,,,,,,,,,,,,,210,2023-04-05_15h06.18.801,Main,2022.1.1,61.13747497016096,
positive,blue,2,k,None,,,,,,,,,0,25,25,25,,,,,,,,,,,,,,,,,main,k,k,1,0.9802278000861406,255.29298149992246,None,None,0,,,,,,,,,,,,,,210,2023-04-05_15h06.18.801,Main,2022.1.1,61.13747497016096,
negative,yellow,1,k,None,,,,,,,,,0,26,26,26,,,,,,,,,,,,,,,,,main,k,k,1,0.7823288000654429,257.27385649993084,None,None,0,,,,,,,,,,,,,,210,2023-04-05_15h06.18.801,Main,2022.1.1,61.13747497016096,
positive,blue,2,k,None,,,,,,,,,0,27,27,27,,,,,,,,,,,,,,,,,main,k,k,1,0.6351558000314981,259.05698349990416,None,None,0,,,,,,,,,,,,,,210,2023-04-05_15h06.18.801,Main,2022.1.1,61.13747497016096,
negative,blue,2,None,k,,,,,,,,,0,28,28,28,,,,,,,,,,,,,,,,,main,None,None,1,1.498964700032957,260.69284819997847,None,None,1,,,,,,,,,,,,,,210,2023-04-05_15h06.18.801,Main,2022.1.1,61.13747497016096,
positive,red,1,None,None,,,,,,,,,0,29,29,29,,,,,,,,,,,,,,,,,main,None,None,1,1.496338599943556,263.192814799957,None,None,1,,,,,,,,,,,,,,210,2023-04-05_15h06.18.801,Main,2022.1.1,61.13747497016096,
positive,blue,1,k,None,,,,,,,,,0,30,30,30,,,,,,,,,,,,,,,,,main,k,k,1,0.7162560001015663,265.69010989996605,None,None,0,,,,,,,,,,,,,,210,2023-04-05_15h06.18.801,Main,2022.1.1,61.13747497016096,
positive,yellow,1,None,k,,,,,,,,,0,31,31,31,,,,,,,,,,,,,,,,,main,None,None,1,1.5015105999773368,267.40682139992714,None,None,1,,,,,,,,,,,,,,210,2023-04-05_15h06.18.801,Main,2022.1.1,61.13747497016096,
negative,yellow,2,k,None,,,,,,,,,0,32,32,32,,,,,,,,,,,,,,,,,main,k,k,1,0.9302756999386474,269.9094469998963,None,None,0,,,,,,,,,,,,,,210,2023-04-05_15h06.18.801,Main,2022.1.1,61.13747497016096,
negative,blue,1,None,k,,,,,,,,,0,33,33,33,,,,,,,,,,,,,,,,,main,None,None,1,1.4984195999568328,271.83998559997417,None,None,1,,,,,,,,,,,,,,210,2023-04-05_15h06.18.801,Main,2022.1.1,61.13747497016096,
positive,blue,1,k,None,,,,,,,,,0,34,34,34,,,,,,,,,,,,,,,,,main,k,k,1,0.618754000053741,274.3400012999773,None,None,0,,,,,,,,,,,,,,210,2023-04-05_15h06.18.801,Main,2022.1.1,61.13747497016096,
negative,yellow,1,k,None,,,,,,,,,0,35,35,35,,,,,,,,,,,,,,,,,main,k,k,1,1.1300974000478163,275.9592081999872,None,None,0,,,,,,,,,,,,,,210,2023-04-05_15h06.18.801,Main,2022.1.1,61.13747497016096,
positive,yellow,2,None,k,,,,,,,,,0,36,36,36,,,,,,,,,,,,,,,,,main,None,None,1,1.5022081999341026,278.0898682998959,None,None,1,,,,,,,,,,,,,,210,2023-04-05_15h06.18.801,Main,2022.1.1,61.13747497016096,
positive,yellow,2,None,k,,,,,,,,,0,37,37,37,,,,,,,,,,,,,,,,,main,None,None,1,1.4993620000313967,280.59242129989434,None,None,1,,,,,,,,,,,,,,210,2023-04-05_15h06.18.801,Main,2022.1.1,61.13747497016096,
negative,yellow,2,k,None,,,,,,,,,0,38,38,38,,,,,,,,,,,,,,,,,main,k,k,1,0.8953329999931157,283.09242080000695,None,None,0,,,,,,,,,,,,,,210,2023-04-05_15h06.18.801,Main,2022.1.1,61.13747497016096,
positive,yellow,1,None,k,,,,,,,,,0,39,39,39,,,,,,,,,,,,,,,,,main,None,None,1,1.5015011000214145,284.9897147999145,None,None,1,,,,,,,,,,,,,,210,2023-04-05_15h06.18.801,Main,2022.1.1,61.13747497016096,
negative,yellow,2,k,None,,,,,,,,,0,40,40,40,,,,,,,,,,,,,,,,,main,k,k,1,0.8495862999698147,287.49227899999823,None,None,0,,,,,,,,,,,,,,210,2023-04-05_15h06.18.801,Main,2022.1.1,61.13747497016096,
positive,blue,2,k,None,,,,,,,,,0,41,41,41,,,,,,,,,,,,,,,,,main,k,k,1,0.7632321000564843,289.3422327999724,None,None,0,,,,,,,,,,,,,,210,2023-04-05_15h06.18.801,Main,2022.1.1,61.13747497016096,
positive,blue,2,k,None,,,,,,,,,0,42,42,42,,,,,,,,,,,,,,,,,main,k,k,1,0.5846845000050962,291.1062833999749,None,None,0,,,,,,,,,,,,,,210,2023-04-05_15h06.18.801,Main,2022.1.1,61.13747497016096,
negative,blue,2,None,k,,,,,,,,,0,43,43,43,,,,,,,,,,,,,,,,,main,None,None,1,1.4989881999790668,292.69218069990166,None,None,1,,,,,,,,,,,,,,210,2023-04-05_15h06.18.801,Main,2022.1.1,61.13747497016096,
negative,red,1,None,None,,,,,,,,,0,44,44,44,,,,,,,,,,,,,,,,,main,None,None,1,1.49723300000187,295.1920900999103,None,None,1,,,,,,,,,,,,,,210,2023-04-05_15h06.18.801,Main,2022.1.1,61.13747497016096,
negative,yellow,1,k,None,,,,,,,,,0,45,45,45,,,,,,,,,,,,,,,,,main,k,k,1,0.7514938999665901,297.6898426999105,None,None,0,,,,,,,,,,,,,,210,2023-04-05_15h06.18.801,Main,2022.1.1,61.13747497016096,
negative,yellow,1,k,None,,,,,,,,,0,46,46,46,,,,,,,,,,,,,,,,,main,k,k,1,0.9158335999818519,299.4420910999179,None,None,0,,,,,,,,,,,,,,210,2023-04-05_15h06.18.801,Main,2022.1.1,61.13747497016096,
positive,red,1,None,None,,,,,,,,,0,47,47,47,,,,,,,,,,,,,,,,,main,None,None,1,1.496683800010942,301.35864059999585,None,None,1,,,,,,,,,,,,,,210,2023-04-05_15h06.18.801,Main,2022.1.1,61.13747497016096,
positive,yellow,1,None,k,,,,,,,,,0,48,48,48,,,,,,,,,,,,,,,,,main,None,None,1,1.5014758999459445,303.8560547999805,None,None,1,,,,,,,,,,,,,,210,2023-04-05_15h06.18.801,Main,2022.1.1,61.13747497016096,
negative,blue,1,None,k,,,,,,,,,0,49,49,49,,,,,,,,,,,,,,,,,main,None,None,1,1.4965777000179514,306.35865459998604,None,None,1,,,,,,,,,,,,,,210,2023-04-05_15h06.18.801,Main,2022.1.1,61.13747497016096,
positive,yellow,2,None,k,,,,,,,,,0,50,50,50,,,,,,,,,,,,,,,,,main,None,None,1,1.5017969999462366,308.85586649994366,None,None,1,,,,,,,,,,,,,,210,2023-04-05_15h06.18.801,Main,2022.1.1,61.13747497016096,
negative,blue,1,None,k,,,,,,,,,0,51,51,51,,,,,,,,,,,,,,,,,main,None,None,1,1.4994700000388548,311.35847469989676,None,None,1,,,,,,,,,,,,,,210,2023-04-05_15h06.18.801,Main,2022.1.1,61.13747497016096,
positive,red,2,None,None,,,,,,,,,0,52,52,52,,,,,,,,,,,,,,,,,main,None,None,1,1.4963479000143707,313.86142289999407,None,None,1,,,,,,,,,,,,,,210,2023-04-05_15h06.18.801,Main,2022.1.1,61.13747497016096,
positive,yellow,2,None,k,,,,,,,,,0,53,53,53,,,,,,,,,,,,,,,,,main,None,None,1,1.5017347999382764,316.3559449999593,None,None,1,,,,,,,,,,,,,,210,2023-04-05_15h06.18.801,Main,2022.1.1,61.13747497016096,
negative,red,2,None,None,,,,,,,,,0,54,54,54,,,,,,,,,,,,,,,,,main,None,None,1,1.4972088999347761,318.8583575999364,None,None,1,,,,,,,,,,,,,,210,2023-04-05_15h06.18.801,Main,2022.1.1,61.13747497016096,
positive,yellow,1,None,k,,,,,,,,,0,55,55,55,,,,,,,,,,,,,,,,,main,None,None,1,1.5012114000273868,321.35564709990285,None,None,1,,,,,,,,,,,,,,210,2023-04-05_15h06.18.801,Main,2022.1.1,61.13747497016096,
negative,blue,2,None,k,,,,,,,,,0,56,56,56,,,,,,,,,,,,,,,,,main,None,None,1,1.4965246000792831,323.8582062999485,None,None,1,,,,,,,,,,,,,,210,2023-04-05_15h06.18.801,Main,2022.1.1,61.13747497016096,
positive,blue,1,k,None,,,,,,,,,0,57,57,57,,,,,,,,,,,,,,,,,main,k,k,1,0.6495173999574035,326.35552519990597,None,None,0,,,,,,,,,,,,,,210,2023-04-05_15h06.18.801,Main,2022.1.1,61.13747497016096,
positive,blue,1,k,None,,,,,,,,,0,58,58,58,,,,,,,,,,,,,,,,,main,k,k,1,0.635084499954246,328.005573399947,None,None,0,,,,,,,,,,,,,,210,2023-04-05_15h06.18.801,Main,2022.1.1,61.13747497016096,
negative,yellow,2,k,None,,,,,,,,,0,59,59,59,,,,,,,,,,,,,,,,,main,k,k,1,0.7324642000021413,329.6414443999529,None,None,0,,,,,,,,,,,,,,210,2023-04-05_15h06.18.801,Main,2022.1.1,61.13747497016096,
positive,red,2,None,None,,,,,,,,,0,60,60,60,,,,,,,,,,,,,,,,,main,None,None,1,1.4962081999983639,331.37477239989676,None,None,1,,,,,,,,,,,,,,210,2023-04-05_15h06.18.801,Main,2022.1.1,61.13747497016096,
negative,yellow,1,k,None,,,,,,,,,0,61,61,61,,,,,,,,,,,,,,,,,main,k,k,1,0.7021522000432014,333.8722074999241,None,None,0,,,,,,,,,,,,,,210,2023-04-05_15h06.18.801,Main,2022.1.1,61.13747497016096,
negative,red,1,None,None,,,,,,,,,0,62,62,62,,,,,,,,,,,,,,,,,main,None,None,1,1.5018654000014067,335.5745770999929,None,None,1,,,,,,,,,,,,,,210,2023-04-05_15h06.18.801,Main,2022.1.1,61.13747497016096,
negative,blue,1,None,k,,,,,,,,,0,63,63,63,,,,,,,,,,,,,,,,,main,None,None,1,1.4933152999728918,338.0758579999674,None,None,1,,,,,,,,,,,,,,210,2023-04-05_15h06.18.801,Main,2022.1.1,61.13747497016096,
positive,blue,2,k,None,,,,,,,,,0,64,64,64,,,,,,,,,,,,,,,,,main,k,k,1,0.7351987001020461,340.5719594999682,None,None,0,,,,,,,,,,,,,,210,2023-04-05_15h06.18.801,Main,2022.1.1,61.13747497016096,
negative,yellow,2,k,None,,,,,,,,,0,65,65,65,,,,,,,,,,,,,,,,,main,k,k,1,0.732852999935858,342.307815499953,None,None,0,,,,,,,,,,,,,,210,2023-04-05_15h06.18.801,Main,2022.1.1,61.13747497016096,
positive,yellow,2,None,k,,,,,,,,,0,66,66,66,,,,,,,,,,,,,,,,,main,None,None,1,1.4960526999784634,344.0440949999029,None,None,1,,,,,,,,,,,,,,210,2023-04-05_15h06.18.801,Main,2022.1.1,61.13747497016096,
positive,yellow,2,None,k,,,,,,,,,0,67,67,67,,,,,,,,,,,,,,,,,main,None,None,1,1.5015740999951959,346.5385017999215,None,None,1,,,,,,,,,,,,,,210,2023-04-05_15h06.18.801,Main,2022.1.1,61.13747497016096,
positive,red,1,None,None,,,,,,,,,0,68,68,68,,,,,,,,,,,,,,,,,main,None,None,1,1.4992505999980494,349.04106329998467,None,None,1,,,,,,,,,,,,,,210,2023-04-05_15h06.18.801,Main,2022.1.1,61.13747497016096,
positive,yellow,1,None,k,,,,,,,,,0,69,69,69,,,,,,,,,,,,,,,,,main,None,None,1,1.4968748999526724,351.5408173999749,None,None,1,,,,,,,,,,,,,,210,2023-04-05_15h06.18.801,Main,2022.1.1,61.13747497016096,
negative,yellow,2,k,None,,,,,,,,,0,70,70,70,,,,,,,,,,,,,,,,,main,k,k,1,0.865559299942106,354.03828539990354,None,None,0,,,,,,,,,,,,,,210,2023-04-05_15h06.18.801,Main,2022.1.1,61.13747497016096,
positive,yellow,1,None,k,,,,,,,,,0,71,71,71,,,,,,,,,,,,,,,,,main,None,None,1,1.5016588000580668,355.90496529999655,None,None,1,,,,,,,,,,,,,,210,2023-04-05_15h06.18.801,Main,2022.1.1,61.13747497016096,
negative,blue,1,None,k,,,,,,,,,0,72,72,72,,,,,,,,,,,,,,,,,main,None,None,1,1.4965677000582218,358.4075859999284,None,None,1,,,,,,,,,,,,,,210,2023-04-05_15h06.18.801,Main,2022.1.1,61.13747497016096,
negative,red,2,None,None,,,,,,,,,0,73,73,73,,,,,,,,,,,,,,,,,main,None,None,1,1.5015461000148207,360.90533469989896,None,None,1,,,,,,,,,,,,,,210,2023-04-05_15h06.18.801,Main,2022.1.1,61.13747497016096,
positive,blue,2,k,None,,,,,,,,,0,74,74,74,,,,,,,,,,,,,,,,,main,k,k,1,4.313609299948439,363.4073725999333,None,None,0,,,,,,,,,,,,,,210,2023-04-05_15h06.18.801,Main,2022.1.1,61.13747497016096,
negative,blue,2,None,k,,,,,,,,,0,75,75,75,,,,,,,,,,,,,,,,,main,None,None,1,1.486994400038384,369.7213175999932,None,None,1,,,,,,,,,,,,,,210,2023-04-05_15h06.18.801,Main,2022.1.1,61.13747497016096,
negative,blue,2,None,k,,,,,,,,,0,76,76,76,,,,,,,,,,,,,,,,,main,None,None,1,1.4995648000622168,372.20723939989693,None,None,1,,,,,,,,,,,,,,210,2023-04-05_15h06.18.801,Main,2022.1.1,61.13747497016096,
negative,yellow,1,k,None,,,,,,,,,0,77,77,77,,,,,,,,,,,,,,,,,main,k,k,1,0.8964998000301421,374.7069905999815,None,None,0,,,,,,,,,,,,,,210,2023-04-05_15h06.18.801,Main,2022.1.1,61.13747497016096,
positive,blue,1,k,None,,,,,,,,,0,78,78,78,,,,,,,,,,,,,,,,,main,k,k,1,0.8334309000056237,376.60701239993796,None,None,0,,,,,,,,,,,,,,210,2023-04-05_15h06.18.801,Main,2022.1.1,61.13747497016096,
positive,blue,1,k,None,,,,,,,,,0,79,79,79,,,,,,,,,,,,,,,,,main,k,k,1,0.7341081000631675,378.43780229997355,None,None,0,,,,,,,,,,,,,,210,2023-04-05_15h06.18.801,Main,2022.1.1,61.13747497016096,
positive,red,2,None,None,,,,,,,,,0,80,80,80,,,,,,,,,,,,,,,,,main,None,None,1,1.4989347000373527,380.1736958998954,None,None,1,,,,,,,,,,,,,,210,2023-04-05_15h06.18.801,Main,2022.1.1,61.13747497016096,
positive,yellow,2,None,k,,,,,,,,,0,81,81,81,,,,,,,,,,,,,,,,,main,None,None,1,1.496583899948746,382.6736030000029,None,None,1,,,,,,,,,,,,,,210,2023-04-05_15h06.18.801,Main,2022.1.1,61.13747497016096,
positive,blue,1,k,None,,,,,,,,,0,82,82,82,,,,,,,,,,,,,,,,,main,k,k,1,0.8685342000098899,385.17096129991114,None,None,0,,,,,,,,,,,,,,210,2023-04-05_15h06.18.801,Main,2022.1.1,61.13747497016096,
negative,yellow,2,k,None,,,,,,,,,0,83,83,83,,,,,,,,,,,,,,,,,main,k,k,1,0.8157644000602886,387.040213799919,None,None,0,,,,,,,,,,,,,,210,2023-04-05_15h06.18.801,Main,2022.1.1,61.13747497016096,
positive,blue,2,k,None,,,,,,,,,0,84,84,84,,,,,,,,,,,,,,,,,main,k,k,1,0.7795776999555528,388.8568805999821,None,None,0,,,,,,,,,,,,,,210,2023-04-05_15h06.18.801,Main,2022.1.1,61.13747497016096,
positive,yellow,1,None,k,,,,,,,,,0,85,85,85,,,,,,,,,,,,,,,,,main,None,None,1,1.501566500053741,390.63754569995217,None,None,1,,,,,,,,,,,,,,210,2023-04-05_15h06.18.801,Main,2022.1.1,61.13747497016096,
positive,blue,2,k,None,,,,,,,,,0,86,86,86,,,,,,,,,,,,,,,,,main,k,k,1,0.7161249999189749,393.1401015999727,None,None,0,,,,,,,,,,,,,,210,2023-04-05_15h06.18.801,Main,2022.1.1,61.13747497016096,
positive,blue,1,k,None,,,,,,,,,0,87,87,87,,,,,,,,,,,,,,,,,main,k,k,1,0.8632763000205159,394.85674279998057,None,None,0,,,,,,,,,,,,,,210,2023-04-05_15h06.18.801,Main,2022.1.1,61.13747497016096,
negative,yellow,2,k,None,,,,,,,,,0,88,88,88,,,,,,,,,,,,,,,,,main,k,k,1,0.7685448999982327,396.72074019990396,None,None,0,,,,,,,,,,,,,,210,2023-04-05_15h06.18.801,Main,2022.1.1,61.13747497016096,
negative,blue,2,None,k,,,,,,,,,0,89,89,89,,,,,,,,,,,,,,,,,main,None,None,1,1.4984833999769762,398.49007559998427,None,None,1,,,,,,,,,,,,,,210,2023-04-05_15h06.18.801,Main,2022.1.1,61.13747497016096,
positive,yellow,2,None,k,,,,,,,,,0,90,90,90,,,,,,,,,,,,,,,,,main,None,None,1,1.496743499999866,400.9899882999016,None,None,1,,,,,,,,,,,,,,210,2023-04-05_15h06.18.801,Main,2022.1.1,61.13747497016096,
negative,yellow,1,k,None,,,,,,,,,0,91,91,91,,,,,,,,,,,,,,,,,main,k,k,1,0.968611599993892,403.4872830999084,None,None,0,,,,,,,,,,,,,,210,2023-04-05_15h06.18.801,Main,2022.1.1,61.13747497016096,
negative,red,2,None,None,,,,,,,,,0,92,92,92,,,,,,,,,,,,,,,,,main,None,None,1,1.4986103000119328,405.456463099923,None,None,1,,,,,,,,,,,,,,210,2023-04-05_15h06.18.801,Main,2022.1.1,61.13747497016096,
negative,blue,2,None,k,,,,,,,,,0,93,93,93,,,,,,,,,,,,,,,,,main,None,None,1,1.496652300003916,407.9563655999955,None,None,1,,,,,,,,,,,,,,210,2023-04-05_15h06.18.801,Main,2022.1.1,61.13747497016096,
negative,blue,1,None,k,,,,,,,,,0,94,94,94,,,,,,,,,,,,,,,,,main,None,None,1,1.4990236000157893,410.4563683999004,None,None,1,,,,,,,,,,,,,,210,2023-04-05_15h06.18.801,Main,2022.1.1,61.13747497016096,
negative,blue,1,None,k,,,,,,,,,0,95,95,95,,,,,,,,,,,,,,,,,main,None,None,1,1.50180620001629,412.95389719994273,None,None,1,,,,,,,,,,,,,,210,2023-04-05_15h06.18.801,Main,2022.1.1,61.13747497016096,
negative,red,1,None,None,,,,,,,,,0,96,96,96,,,,,,,,,,,,,,,,,main,None,None,1,1.4989102000836283,415.4563366000075,None,None,1,,,,,,,,,,,,,,210,2023-04-05_15h06.18.801,Main,2022.1.1,61.13747497016096,
positive,yellow,1,None,k,,,,,,,,,0,97,97,97,,,,,,,,,,,,,,,,,main,None,None,1,1.4964183999691159,417.95620029990096,None,None,1,,,,,,,,,,,,,,210,2023-04-05_15h06.18.801,Main,2022.1.1,61.13747497016096,
negative,yellow,1,k,None,,,,,,,,,0,98,98,98,,,,,,,,,,,,,,,,,main,k,k,1,0.9329487000359222,420.4535603999393,None,None,0,,,,,,,,,,,,,,210,2023-04-05_15h06.18.801,Main,2022.1.1,61.13747497016096,
positive,red,1,None,None,,,,,,,,,0,99,99,99,,,,,,,,,,,,,,,,,main,None,None,1,1.5015773000195622,422.38691679993644,None,None,1,,,,,,,,,,,,,,210,2023-04-05_15h06.18.801,Main,2022.1.1,61.13747497016096,
positive,blue,1,k,None,,,,,,,,,0,100,100,100,,,,,,,,,,,,,,,,,main,k,k,1,0.9638604000210762,424.88944529998116,None,None,0,,,,,,,,,,,,,,210,2023-04-05_15h06.18.801,Main,2022.1.1,61.13747497016096,
negative,yellow,1,k,None,,,,,,,,,0,101,101,101,,,,,,,,,,,,,,,,,main,k,k,1,0.7323529999703169,426.8559667998925,None,None,0,,,,,,,,,,,,,,210,2023-04-05_15h06.18.801,Main,2022.1.1,61.13747497016096,
negative,blue,2,None,k,,,,,,,,,0,102,102,102,,,,,,,,,,,,,,,,,main,None,None,1,1.498461600043811,428.58930749993306,None,None,1,,,,,,,,,,,,,,210,2023-04-05_15h06.18.801,Main,2022.1.1,61.13747497016096,
negative,yellow,2,k,None,,,,,,,,,0,103,103,103,,,,,,,,,,,,,,,,,main,k,k,1,0.7685084000695497,431.08684889995493,None,None,0,,,,,,,,,,,,,,210,2023-04-05_15h06.18.801,Main,2022.1.1,61.13747497016096,
positive,yellow,2,None,k,,,,,,,,,0,104,104,104,,,,,,,,,,,,,,,,,main,None,None,1,1.4964907999383286,432.85592969995923,None,None,1,,,,,,,,,,,,,,210,2023-04-05_15h06.18.801,Main,2022.1.1,61.13747497016096,
positive,blue,1,k,None,,,,,,,,,0,105,105,105,,,,,,,,,,,,,,,,,main,k,k,1,0.6661112000001594,435.3587876999518,None,None,0,,,,,,,,,,,,,,210,2023-04-05_15h06.18.801,Main,2022.1.1,61.13747497016096,
positive,blue,2,k,None,,,,,,,,,0,106,106,106,,,,,,,,,,,,,,,,,main,k,k,1,0.9672553000273183,437.019902799977,None,None,0,,,,,,,,,,,,,,210,2023-04-05_15h06.18.801,Main,2022.1.1,61.13747497016096,
negative,blue,1,None,k,,,,,,,,,0,107,107,107,,,,,,,,,,,,,,,,,main,None,None,1,1.499033100088127,438.98913779994473,None,None,1,,,,,,,,,,,,,,210,2023-04-05_15h06.18.801,Main,2022.1.1,61.13747497016096,
positive,yellow,2,None,k,,,,,,,,,0,108,108,108,,,,,,,,,,,,,,,,,main,None,None,1,1.4966197999892756,441.48907539993525,None,None,1,,,,,,,,,,,,,,210,2023-04-05_15h06.18.801,Main,2022.1.1,61.13747497016096,
negative,yellow,1,k,None,,,,,,,,,0,109,109,109,,,,,,,,,,,,,,,,,main,k,k,1,1.03552299994044,443.98646169994026,None,None,0,,,,,,,,,,,,,,210,2023-04-05_15h06.18.801,Main,2022.1.1,61.13747497016096,
negative,blue,2,None,k,,,,,,,,,0,110,110,110,,,,,,,,,,,,,,,,,main,None,None,1,1.4959545000456274,446.02234859997407,None,None,1,,,,,,,,,,,,,,210,2023-04-05_15h06.18.801,Main,2022.1.1,61.13747497016096,
positive,blue,2,k,None,,,,,,,,,0,111,111,111,,,,,,,,,,,,,,,,,main,k,k,1,0.6995669000316411,448.51965069992,None,None,0,,,,,,,,,,,,,,210,2023-04-05_15h06.18.801,Main,2022.1.1,61.13747497016096,
negative,blue,1,None,k,,,,,,,,,0,112,112,112,,,,,,,,,,,,,,,,,main,None,None,1,1.498989999992773,450.2196771999588,None,None,1,,,,,,,,,,,,,,210,2023-04-05_15h06.18.801,Main,2022.1.1,61.13747497016096,
positive,yellow,1,None,k,,,,,,,,,0,113,113,113,,,,,,,,,,,,,,,,,main,None,None,1,1.4988487000809982,452.72216089989524,None,None,1,,,,,,,,,,,,,,210,2023-04-05_15h06.18.801,Main,2022.1.1,61.13747497016096,
negative,red,1,None,None,,,,,,,,,0,114,114,114,,,,,,,,,,,,,,,,,main,None,None,1,1.501652600010857,455.21950169990305,None,None,1,,,,,,,,,,,,,,210,2023-04-05_15h06.18.801,Main,2022.1.1,61.13747497016096,
positive,red,1,None,None,,,,,,,,,0,115,115,115,,,,,,,,,,,,,,,,,main,None,None,1,1.4991276999935508,457.7221012999071,None,None,1,,,,,,,,,,,,,,210,2023-04-05_15h06.18.801,Main,2022.1.1,61.13747497016096,
negative,red,2,None,None,,,,,,,,,0,116,116,116,,,,,,,,,,,,,,,,,main,None,None,1,1.4963335000211373,460.22204759996384,None,None,1,,,,,,,,,,,,,,210,2023-04-05_15h06.18.801,Main,2022.1.1,61.13747497016096,
negative,yellow,2,k,None,,,,,,,,,0,117,117,117,,,,,,,,,,,,,,,,,main,k,k,1,1.052002599928528,462.7194112999132,None,None,0,,,,,,,,,,,,,,210,2023-04-05_15h06.18.801,Main,2022.1.1,61.13747497016096,
positive,yellow,1,None,k,,,,,,,,,0,118,118,118,,,,,,,,,,,,,,,,,main,None,None,1,1.4973725999007002,464.77200319990516,None,None,1,,,,,,,,,,,,,,210,2023-04-05_15h06.18.801,Main,2022.1.1,61.13747497016096,
positive,red,2,None,None,,,,,,,,,0,119,119,119,,,,,,,,,,,,,,,,,main,None,None,1,1.5008625000482425,467.26944679999724,None,None,1,,,,,,,,,,,,,,210,2023-04-05_15h06.18.801,Main,2022.1.1,61.13747497016096,
positive,blue,2,k,None,,,,,,,,,0,120,120,120,,,,,,,,,,,,,,,,,main,k,k,1,0.6996358999749646,469.77186479989905,None,None,0,,,,,,,,,,,,,,210,2023-04-05_15h06.18.801,Main,2022.1.1,61.13747497016096,
negative,red,1,None,None,,,,,,,,,0,121,121,121,,,,,,,,,,,,,,,,,main,None,None,1,1.4963708000723273,471.4718978999881,None,None,1,,,,,,,,,,,,,,210,2023-04-05_15h06.18.801,Main,2022.1.1,61.13747497016096,
positive,yellow,2,None,k,,,,,,,,,0,122,122,122,,,,,,,,,,,,,,,,,main,None,None,1,1.5013338000280783,473.9691038999008,None,None,1,,,,,,,,,,,,,,210,2023-04-05_15h06.18.801,Main,2022.1.1,61.13747497016096,
negative,red,2,None,None,,,,,,,,,0,123,123,123,,,,,,,,,,,,,,,,,main,None,None,1,1.4960070999804884,476.47169359994587,None,None,1,,,,,,,,,,,,,,210,2023-04-05_15h06.18.801,Main,2022.1.1,61.13747497016096,
negative,yellow,2,k,None,,,,,,,,,0,124,124,124,,,,,,,,,,,,,,,,,main,k,k,1,0.8659294999670237,478.9695566999726,None,None,0,,,,,,,,,,,,,,210,2023-04-05_15h06.18.801,Main,2022.1.1,61.13747497016096,
positive,red,1,None,None,,,,,,,,,0,125,125,125,,,,,,,,,,,,,,,,,main,None,None,1,1.5016739999409765,480.8356903999811,None,None,1,,,,,,,,,,,,,,210,2023-04-05_15h06.18.801,Main,2022.1.1,61.13747497016096,
negative,blue,2,None,k,,,,,,,,,0,126,126,126,,,,,,,,,,,,,,,,,main,None,None,1,1.4971704999916255,483.33823100000154,None,None,1,,,,,,,,,,,,,,210,2023-04-05_15h06.18.801,Main,2022.1.1,61.13747497016096,
negative,blue,1,None,k,,,,,,,,,0,127,127,127,,,,,,,,,,,,,,,,,main,None,None,1,1.500793999992311,485.83553109993227,None,None,1,,,,,,,,,,,,,,210,2023-04-05_15h06.18.801,Main,2022.1.1,61.13747497016096,
negative,yellow,1,k,None,,,,,,,,,0,128,128,128,,,,,,,,,,,,,,,,,main,k,k,1,0.8331301000434905,488.3381350999698,None,None,0,,,,,,,,,,,,,,210,2023-04-05_15h06.18.801,Main,2022.1.1,61.13747497016096,
negative,yellow,1,k,None,,,,,,,,,0,129,129,129,,,,,,,,,,,,,,,,,main,k,k,1,0.8461891000624746,490.17143339989707,None,None,0,,,,,,,,,,,,,,210,2023-04-05_15h06.18.801,Main,2022.1.1,61.13747497016096,
positive,blue,1,k,None,,,,,,,,,0,130,130,130,,,,,,,,,,,,,,,,,main,k,k,1,0.8174834999954328,492.0187539999606,None,None,0,,,,,,,,,,,,,,210,2023-04-05_15h06.18.801,Main,2022.1.1,61.13747497016096,
negative,blue,1,None,k,,,,,,,,,0,131,131,131,,,,,,,,,,,,,,,,,main,None,None,1,1.500563699984923,493.83797100000083,None,None,1,,,,,,,,,,,,,,210,2023-04-05_15h06.18.801,Main,2022.1.1,61.13747497016096,
negative,blue,2,None,k,,,,,,,,,0,132,132,132,,,,,,,,,,,,,,,,,main,None,None,1,1.49676830007229,496.33794689993374,None,None,1,,,,,,,,,,,,,,210,2023-04-05_15h06.18.801,Main,2022.1.1,61.13747497016096,
positive,blue,2,k,None,,,,,,,,,0,133,133,133,,,,,,,,,,,,,,,,,main,k,k,1,0.6483563999645412,498.83555189997423,None,None,0,,,,,,,,,,,,,,210,2023-04-05_15h06.18.801,Main,2022.1.1,61.13747497016096,
positive,red,2,None,None,,,,,,,,,0,134,134,134,,,,,,,,,,,,,,,,,main,None,None,1,1.5017239999724552,500.48521179996897,None,None,1,,,,,,,,,,,,,,210,2023-04-05_15h06.18.801,Main,2022.1.1,61.13747497016096,
negative,yellow,2,k,None,,,,,,,,,0,135,135,135,,,,,,,,,,,,,,,,,main,k,k,1,0.7329484999645501,502.9877549998928,None,None,0,,,,,,,,,,,,,,210,2023-04-05_15h06.18.801,Main,2022.1.1,61.13747497016096,
positive,yellow,2,None,k,,,,,,,,,0,136,136,136,,,,,,,,,,,,,,,,,main,None,None,1,1.4960264000110328,504.7211068999022,None,None,1,,,,,,,,,,,,,,210,2023-04-05_15h06.18.801,Main,2022.1.1,61.13747497016096,
positive,blue,1,k,None,,,,,,,,,0,137,137,137,,,,,,,,,,,,,,,,,main,k,k,1,1.0188473999733105,507.21843959996477,None,None,0,,,,,,,,,,,,,,210,2023-04-05_15h06.18.801,Main,2022.1.1,61.13747497016096,
positive,yellow,1,None,k,,,,,,,,,0,138,138,138,,,,,,,,,,,,,,,,,main,None,None,1,1.4987116999691352,509.237665399909,None,None,1,,,,,,,,,,,,,,210,2023-04-05_15h06.18.801,Main,2022.1.1,61.13747497016096,
positive,yellow,1,None,k,,,,,,,,,0,139,139,139,,,,,,,,,,,,,,,,,main,None,None,1,1.4966716000344604,511.73763889994007,None,None,1,,,,,,,,,,,,,,210,2023-04-05_15h06.18.801,Main,2022.1.1,61.13747497016096,
positive,yellow,1,None,k,,,,,,,,,0,140,140,140,,,,,,,,,,,,,,,,,main,None,None,1,1.5032793000573292,514.2351265999023,None,None,1,,,,,,,,,,,,,,210,2023-04-05_15h06.18.801,Main,2022.1.1,61.13747497016096,
positive,blue,1,k,None,,,,,,,,,0,141,141,141,,,,,,,,,,,,,,,,,main,k,k,1,0.9781011000741273,516.7375416998984,None,None,0,,,,,,,,,,,,,,210,2023-04-05_15h06.18.801,Main,2022.1.1,61.13747497016096,
positive,blue,2,k,None,,,,,,,,,0,142,142,142,,,,,,,,,,,,,,,,,main,k,k,1,0.8518368999939412,518.7181721999077,None,None,0,,,,,,,,,,,,,,210,2023-04-05_15h06.18.801,Main,2022.1.1,61.13747497016096,
positive,yellow,2,None,k,,,,,,,,,0,143,143,143,,,,,,,,,,,,,,,,,main,None,None,1,1.4988894000416622,520.5707819999661,None,None,1,,,,,,,,,,,,,,210,2023-04-05_15h06.18.801,Main,2022.1.1,61.13747497016096,
negative,yellow,2,k,None,,,,,,,,,0,144,144,144,,,,,,,,,,,,,,,,,main,k,k,1,1.0467571000335738,523.0707329999423,None,None,0,,,,,,,,,,,,,,210,2023-04-05_15h06.18.801,Main,2022.1.1,61.13747497016096,
negative,blue,2,None,k,,,,,,,,,0,145,145,145,,,,,,,,,,,,,,,,,main,None,None,1,1.501280999975279,525.1180693999631,None,None,1,,,,,,,,,,,,,,210,2023-04-05_15h06.18.801,Main,2022.1.1,61.13747497016096,
negative,red,1,None,None,,,,,,,,,0,146,146,146,,,,,,,,,,,,,,,,,main,None,None,1,1.5022934000007808,527.6206709999824,None,None,1,,,,,,,,,,,,,,210,2023-04-05_15h06.18.801,Main,2022.1.1,61.13747497016096,
positive,blue,1,k,None,,,,,,,,,0,147,147,147,,,,,,,,,,,,,,,,,main,k,k,1,0.8105191000504419,530.121436699992,None,None,0,,,,,,,,,,,,,,210,2023-04-05_15h06.18.801,Main,2022.1.1,61.13747497016096,
positive,yellow,1,None,k,,,,,,,,,0,148,148,148,,,,,,,,,,,,,,,,,main,None,None,1,1.5015454000094905,531.9345812998945,None,None,1,,,,,,,,,,,,,,210,2023-04-05_15h06.18.801,Main,2022.1.1,61.13747497016096,
negative,red,2,None,None,,,,,,,,,0,149,149,149,,,,,,,,,,,,,,,,,main,None,None,1,1.4964909999398515,534.4371071999194,None,None,1,,,,,,,,,,,,,,210,2023-04-05_15h06.18.801,Main,2022.1.1,61.13747497016096,
negative,blue,1,None,k,,,,,,,,,0,150,150,150,,,,,,,,,,,,,,,,,main,None,None,1,1.5025728999171406,536.9346428998979,None,None,1,,,,,,,,,,,,,,210,2023-04-05_15h06.18.801,Main,2022.1.1,61.13747497016096,
negative,yellow,2,k,None,,,,,,,,,0,151,151,151,,,,,,,,,,,,,,,,,main,k,k,1,1.11523480003234,539.4370363999624,None,None,0,,,,,,,,,,,,,,210,2023-04-05_15h06.18.801,Main,2022.1.1,61.13747497016096,
negative,blue,2,None,k,,,,,,,,,0,152,152,152,,,,,,,,,,,,,,,,,main,None,None,1,1.497199699981138,541.5536205999088,None,None,1,,,,,,,,,,,,,,210,2023-04-05_15h06.18.801,Main,2022.1.1,61.13747497016096,
negative,yellow,1,k,None,,,,,,,,,0,153,153,153,,,,,,,,,,,,,,,,,main,k,k,1,1.1684433000627905,544.0509747999022,None,None,0,,,,,,,,,,,,,,210,2023-04-05_15h06.18.801,Main,2022.1.1,61.13747497016096,
negative,blue,1,None,k,,,,,,,,,0,154,154,154,,,,,,,,,,,,,,,,,main,None,None,1,1.4990715000312775,546.2202200999018,None,None,1,,,,,,,,,,,,,,210,2023-04-05_15h06.18.801,Main,2022.1.1,61.13747497016096,
positive,yellow,2,None,k,,,,,,,,,0,155,155,155,,,,,,,,,,,,,,,,,main,None,None,1,1.498569600051269,548.7200856999261,None,None,1,,,,,,,,,,,,,,210,2023-04-05_15h06.18.801,Main,2022.1.1,61.13747497016096,
positive,red,2,None,None,,,,,,,,,0,156,156,156,,,,,,,,,,,,,,,,,main,None,None,1,1.4964713000226766,551.2200849999208,None,None,1,,,,,,,,,,,,,,210,2023-04-05_15h06.18.801,Main,2022.1.1,61.13747497016096,
positive,red,1,None,None,,,,,,,,,0,157,157,157,,,,,,,,,,,,,,,,,main,None,None,1,1.5015410999767482,553.71746049996,None,None,1,,,,,,,,,,,,,,210,2023-04-05_15h06.18.801,Main,2022.1.1,61.13747497016096,
positive,blue,2,k,None,,,,,,,,,0,158,158,158,,,,,,,,,,,,,,,,,main,k,k,1,0.9654415999539196,556.2200436999556,None,None,0,,,,,,,,,,,,,,210,2023-04-05_15h06.18.801,Main,2022.1.1,61.13747497016096,
negative,yellow,1,k,None,,,,,,,,,0,159,159,159,,,,,,,,,,,,,,,,,main,k,k,1,1.0961424999404699,558.1866892999969,None,None,0,,,,,,,,,,,,,,210,2023-04-05_15h06.18.801,Main,2022.1.1,61.13747497016096,
negative,red,2,None,None,,,,,,,,,0,160,160,160,,,,,,,,,,,,,,,,,main,None,None,1,1.5014858999056742,560.2839852999896,None,None,1,,,,,,,,,,,,,,210,2023-04-05_15h06.18.801,Main,2022.1.1,61.13747497016096,
negative,blue,1,None,k,,,,,,,,,0,161,161,161,,,,,,,,,,,,,,,,,main,None,None,1,1.4990312999580055,562.7865573999006,None,None,1,,,,,,,,,,,,,,210,2023-04-05_15h06.18.801,Main,2022.1.1,61.13747497016096,
negative,blue,1,None,k,,,,,,,,,0,162,162,162,,,,,,,,,,,,,,,,,main,None,None,1,1.4970434000715613,565.286308699986,None,None,1,,,,,,,,,,,,,,210,2023-04-05_15h06.18.801,Main,2022.1.1,61.13747497016096,
negative,yellow,1,k,None,,,,,,,,,0,163,163,163,,,,,,,,,,,,,,,,,main,k,k,1,0.899060899973847,567.7863898999058,None,None,0,,,,,,,,,,,,,,210,2023-04-05_15h06.18.801,Main,2022.1.1,61.13747497016096,
negative,yellow,1,k,None,,,,,,,,,0,164,164,164,,,,,,,,,,,,,,,,,main,k,k,1,0.6852677999995649,569.6839310999494,None,None,0,,,,,,,,,,,,,,210,2023-04-05_15h06.18.801,Main,2022.1.1,61.13747497016096,
positive,yellow,1,None,k,,,,,,,,,0,165,165,165,,,,,,,,,,,,,,,,,main,None,None,1,1.4987205000361428,571.3697052999632,None,None,1,,,,,,,,,,,,,,210,2023-04-05_15h06.18.801,Main,2022.1.1,61.13747497016096,
negative,red,1,None,None,,,,,,,,,0,166,166,166,,,,,,,,,,,,,,,,,main,None,None,1,1.4963898999849334,573.8696944999974,None,None,1,,,,,,,,,,,,,,210,2023-04-05_15h06.18.801,Main,2022.1.1,61.13747497016096,
negative,yellow,2,k,None,,,,,,,,,0,167,167,167,,,,,,,,,,,,,,,,,main,k,k,1,0.7519894998986274,576.3670277999481,None,None,0,,,,,,,,,,,,,,210,2023-04-05_15h06.18.801,Main,2022.1.1,61.13747497016096,
positive,blue,2,k,None,,,,,,,,,0,168,168,168,,,,,,,,,,,,,,,,,main,k,k,1,1.0852109999395907,578.1195850999793,None,None,0,,,,,,,,,,,,,,210,2023-04-05_15h06.18.801,Main,2022.1.1,61.13747497016096,
positive,red,2,None,None,,,,,,,,,0,169,169,169,,,,,,,,,,,,,,,,,main,None,None,1,1.4936291999183595,580.2093326000031,None,None,1,,,,,,,,,,,,,,210,2023-04-05_15h06.18.801,Main,2022.1.1,61.13747497016096,
positive,red,1,None,None,,,,,,,,,0,170,170,170,,,,,,,,,,,,,,,,,main,None,None,1,1.5017193000530824,582.7002357000019,None,None,1,,,,,,,,,,,,,,210,2023-04-05_15h06.18.801,Main,2022.1.1,61.13747497016096,
negative,blue,2,None,k,,,,,,,,,0,171,171,171,,,,,,,,,,,,,,,,,main,None,None,1,1.496900700032711,585.2028194000013,None,None,1,,,,,,,,,,,,,,210,2023-04-05_15h06.18.801,Main,2022.1.1,61.13747497016096,
positive,blue,2,k,None,,,,,,,,,0,172,172,172,,,,,,,,,,,,,,,,,main,k,k,1,0.8659049000125378,587.7003268999979,None,None,0,,,,,,,,,,,,,,210,2023-04-05_15h06.18.801,Main,2022.1.1,61.13747497016096,
negative,yellow,2,k,None,,,,,,,,,0,173,173,173,,,,,,,,,,,,,,,,,main,k,k,1,0.7656924000475556,589.5666827999521,None,None,0,,,,,,,,,,,,,,210,2023-04-05_15h06.18.801,Main,2022.1.1,61.13747497016096,
positive,yellow,2,None,k,,,,,,,,,0,174,174,174,,,,,,,,,,,,,,,,,main,None,None,1,1.5014674999983981,591.3333999000024,None,None,1,,,,,,,,,,,,,,210,2023-04-05_15h06.18.801,Main,2022.1.1,61.13747497016096,
negative,blue,2,None,k,,,,,,,,,0,175,175,175,,,,,,,,,,,,,,,,,main,None,None,1,1.4966213000006974,593.8360101999715,None,None,1,,,,,,,,,,,,,,210,2023-04-05_15h06.18.801,Main,2022.1.1,61.13747497016096,
positive,blue,1,k,None,,,,,,,,,0,176,176,176,,,,,,,,,,,,,,,,,main,k,k,1,0.7020674000959843,596.3332189999055,None,None,0,,,,,,,,,,,,,,210,2023-04-05_15h06.18.801,Main,2022.1.1,61.13747497016096,
positive,yellow,1,None,k,,,,,,,,,0,177,177,177,,,,,,,,,,,,,,,,,main,None,None,1,1.4989346000365913,598.0336130999494,None,None,1,,,,,,,,,,,,,,210,2023-04-05_15h06.18.801,Main,2022.1.1,61.13747497016096,
positive,blue,1,k,None,,,,,,,,,0,178,178,178,,,,,,,,,,,,,,,,,main,k,k,1,0.8642988000065088,600.5358213,None,None,0,,,,,,,,,,,,,,210,2023-04-05_15h06.18.801,Main,2022.1.1,61.13747497016096,
positive,yellow,2,None,k,,,,,,,,,0,179,179,179,,,,,,,,,,,,,,,,,main,None,None,1,1.500527499942109,602.3997718999162,None,None,1,,,,,,,,,,,,,,210,2023-04-05_15h06.18.801,Main,2022.1.1,61.13747497016096,
positive,blue,1,k,None,,,,,,,,,0,180,180,180,,,,,,,,,,,,,,,,,main,k,k,1,1.0659704999998212,604.9023558999179,None,None,0,,,,,,,,,,,,,,210,2023-04-05_15h06.18.801,Main,2022.1.1,61.13747497016096,
negative,red,1,None,None,,,,,,,,,0,181,181,181,,,,,,,,,,,,,,,,,main,None,None,1,1.4964991000015289,606.9689348998945,None,None,1,,,,,,,,,,,,,,210,2023-04-05_15h06.18.801,Main,2022.1.1,61.13747497016096,
negative,blue,1,None,k,,,,,,,,,0,182,182,182,,,,,,,,,,,,,,,,,main,None,None,1,1.5016588000580668,609.466370799928,None,None,1,,,,,,,,,,,,,,210,2023-04-05_15h06.18.801,Main,2022.1.1,61.13747497016096,
negative,yellow,2,k,None,,,,,,,,,0,183,183,183,,,,,,,,,,,,,,,,,main,k,k,1,0.7634783999528736,611.9689167999895,None,None,0,,,,,,,,,,,,,,210,2023-04-05_15h06.18.801,Main,2022.1.1,61.13747497016096,
positive,yellow,2,None,k,,,,,,,,,0,184,184,184,,,,,,,,,,,,,,,,,main,None,None,1,1.5017797000473365,613.7328695999458,None,None,1,,,,,,,,,,,,,,210,2023-04-05_15h06.18.801,Main,2022.1.1,61.13747497016096,
positive,yellow,1,None,k,,,,,,,,,0,185,185,185,,,,,,,,,,,,,,,,,main,None,None,1,1.5004536000778899,616.2354213999351,None,None,1,,,,,,,,,,,,,,210,2023-04-05_15h06.18.801,Main,2022.1.1,61.13747497016096,
positive,red,2,None,None,,,,,,,,,0,186,186,186,,,,,,,,,,,,,,,,,main,None,None,1,1.4954143000068143,618.7354360999307,None,None,1,,,,,,,,,,,,,,210,2023-04-05_15h06.18.801,Main,2022.1.1,61.13747497016096,
positive,blue,1,k,None,,,,,,,,,0,187,187,187,,,,,,,,,,,,,,,,,main,k,k,1,0.5845645000226796,621.2327135999221,None,None,0,,,,,,,,,,,,,,210,2023-04-05_15h06.18.801,Main,2022.1.1,61.13747497016096,
negative,yellow,1,k,None,,,,,,,,,0,188,188,188,,,,,,,,,,,,,,,,,main,k,k,1,0.6989928999682888,622.8186423999723,None,None,0,,,,,,,,,,,,,,210,2023-04-05_15h06.18.801,Main,2022.1.1,61.13747497016096,
positive,yellow,2,None,k,,,,,,,,,0,189,189,189,,,,,,,,,,,,,,,,,main,None,None,1,1.498785800067708,624.5185939999064,None,None,1,,,,,,,,,,,,,,210,2023-04-05_15h06.18.801,Main,2022.1.1,61.13747497016096,
negative,yellow,2,k,None,,,,,,,,,0,190,190,190,,,,,,,,,,,,,,,,,main,k,k,1,0.9804173999000341,627.0161850999575,None,None,0,,,,,,,,,,,,,,210,2023-04-05_15h06.18.801,Main,2022.1.1,61.13747497016096,
negative,yellow,1,k,None,,,,,,,,,0,191,191,191,,,,,,,,,,,,,,,,,main,k,k,1,1.0323180999839678,628.999201699975,None,None,0,,,,,,,,,,,,,,210,2023-04-05_15h06.18.801,Main,2022.1.1,61.13747497016096,
positive,blue,2,k,None,,,,,,,,,0,192,192,192,,,,,,,,,,,,,,,,,main,k,k,1,0.7020690999925137,631.0325552999275,None,None,0,,,,,,,,,,,,,,210,2023-04-05_15h06.18.801,Main,2022.1.1,61.13747497016096,
positive,yellow,1,None,k,,,,,,,,,0,193,193,193,,,,,,,,,,,,,,,,,main,None,None,1,1.4964013000717387,632.7350742999697,None,None,1,,,,,,,,,,,,,,210,2023-04-05_15h06.18.801,Main,2022.1.1,61.13747497016096,
negative,red,2,None,None,,,,,,,,,0,194,194,194,,,,,,,,,,,,,,,,,main,None,None,1,1.499042100040242,635.2349990999792,None,None,1,,,,,,,,,,,,,,210,2023-04-05_15h06.18.801,Main,2022.1.1,61.13747497016096,
positive,red,1,None,None,,,,,,,,,0,195,195,195,,,,,,,,,,,,,,,,,main,None,None,1,1.501437300001271,637.7323552999878,None,None,1,,,,,,,,,,,,,,210,2023-04-05_15h06.18.801,Main,2022.1.1,61.13747497016096,
negative,blue,1,None,k,,,,,,,,,0,196,196,196,,,,,,,,,,,,,,,,,main,None,None,1,1.4989825000520796,640.2349453999195,None,None,1,,,,,,,,,,,,,,210,2023-04-05_15h06.18.801,Main,2022.1.1,61.13747497016096,
positive,blue,2,k,None,,,,,,,,,0,197,197,197,,,,,,,,,,,,,,,,,main,k,k,1,0.8634332999354228,642.734928599908,None,None,0,,,,,,,,,,,,,,210,2023-04-05_15h06.18.801,Main,2022.1.1,61.13747497016096,
negative,blue,2,None,k,,,,,,,,,0,198,198,198,,,,,,,,,,,,,,,,,main,None,None,1,1.5015978999435902,644.5988987999735,None,None,1,,,,,,,,,,,,,,210,2023-04-05_15h06.18.801,Main,2022.1.1,61.13747497016096,
negative,blue,2,None,k,,,,,,,,,0,199,199,199,,,,,,,,,,,,,,,,,main,None,None,1,1.5024126999778673,647.1014320999384,None,None,1,,,,,,,,,,,,,,210,2023-04-05_15h06.18.801,Main,2022.1.1,61.13747497016096,
positive,blue,2,k,None,,,,,,,,,0,200,200,200,,,,,,,,,,,,,,,,,main,k,k,1,0.6769129999447614,649.6026890999638,None,None,0,,,,,,,,,,,,,,210,2023-04-05_15h06.18.801,Main,2022.1.1,61.13747497016096,
positive,blue,2,k,None,,,,,,,,,0,201,201,201,,,,,,,,,,,,,,,,,main,k,k,1,0.8517465000040829,651.2820920998929,None,None,0,,,,,,,,,,,,,,210,2023-04-05_15h06.18.801,Main,2022.1.1,61.13747497016096,
negative,yellow,2,k,None,,,,,,,,,0,202,202,202,,,,,,,,,,,,,,,,,main,k,k,1,0.8323490000329912,653.1346960999072,None,None,0,,,,,,,,,,,,,,210,2023-04-05_15h06.18.801,Main,2022.1.1,61.13747497016096,
positive,red,1,None,None,,,,,,,,,0,203,203,203,,,,,,,,,,,,,,,,,main,None,None,1,1.4969913000240922,654.9679526999826,None,None,1,,,,,,,,,,,,,,210,2023-04-05_15h06.18.801,Main,2022.1.1,61.13747497016096,
negative,blue,2,None,k,,,,,,,,,0,204,204,204,,,,,,,,,,,,,,,,,main,None,None,1,1.5010022999485955,657.4652743999613,None,None,1,,,,,,,,,,,,,,210,2023-04-05_15h06.18.801,Main,2022.1.1,61.13747497016096,
negative,red,1,None,None,,,,,,,,,0,205,205,205,,,,,,,,,,,,,,,,,main,None,None,1,1.499328100006096,659.967849999899,None,None,1,,,,,,,,,,,,,,210,2023-04-05_15h06.18.801,Main,2022.1.1,61.13747497016096,
negative,blue,2,None,k,,,,,,,,,0,206,206,206,,,,,,,,,,,,,,,,,main,None,None,1,1.4990547999041155,662.4676843999187,None,None,1,,,,,,,,,,,,,,210,2023-04-05_15h06.18.801,Main,2022.1.1,61.13747497016096,
negative,yellow,2,k,None,,,,,,,,,0,207,207,207,,,,,,,,,,,,,,,,,main,k,k,1,0.7467183999251574,664.9676704999292,None,None,0,,,,,,,,,,,,,,210,2023-04-05_15h06.18.801,Main,2022.1.1,61.13747497016096,
positive,yellow,2,None,k,,,,,,,,,0,208,208,208,,,,,,,,,,,,,,,,,main,None,None,1,1.5013485999079421,666.7150864999276,None,None,1,,,,,,,,,,,,,,210,2023-04-05_15h06.18.801,Main,2022.1.1,61.13747497016096,
negative,yellow,1,k,None,,,,,,,,,0,209,209,209,,,,,,,,,,,,,,,,,main,k,k,1,0.8829273999435827,669.2176302999724,None,None,0,,,,,,,,,,,,,,210,2023-04-05_15h06.18.801,Main,2022.1.1,61.13747497016096,
negative,red,2,None,None,,,,,,,,,0,210,210,210,,,,,,,,,,,,,,,,,main,None,None,1,1.498533200006932,671.1009407999227,None,None,1,,,,,,,,,,,,,,210,2023-04-05_15h06.18.801,Main,2022.1.1,61.13747497016096,
negative,blue,1,None,k,,,,,,,,,0,211,211,211,,,,,,,,,,,,,,,,,main,None,None,1,1.4969154000282288,673.5985597999534,None,None,1,,,,,,,,,,,,,,210,2023-04-05_15h06.18.801,Main,2022.1.1,61.13747497016096,
negative,yellow,1,k,None,,,,,,,,,0,212,212,212,,,,,,,,,,,,,,,,,main,k,k,1,0.7826268000062555,676.0984700999688,None,None,0,,,,,,,,,,,,,,210,2023-04-05_15h06.18.801,Main,2022.1.1,61.13747497016096,
positive,blue,1,k,None,,,,,,,,,0,213,213,213,,,,,,,,,,,,,,,,,main,k,k,1,1.018295899964869,677.8816041999962,None,None,0,,,,,,,,,,,,,,210,2023-04-05_15h06.18.801,Main,2022.1.1,61.13747497016096,
positive,blue,1,k,None,,,,,,,,,0,214,214,214,,,,,,,,,,,,,,,,,main,k,k,1,0.5990840999875218,679.9008493999718,None,None,0,,,,,,,,,,,,,,210,2023-04-05_15h06.18.801,Main,2022.1.1,61.13747497016096,
positive,yellow,1,None,k,,,,,,,,,0,215,215,215,,,,,,,,,,,,,,,,,main,None,None,1,1.4986469000577927,681.5007740999572,None,None,1,,,,,,,,,,,,,,210,2023-04-05_15h06.18.801,Main,2022.1.1,61.13747497016096,
positive,yellow,1,None,k,,,,,,,,,0,216,216,216,,,,,,,,,,,,,,,,,main,None,None,1,1.496710199979134,683.9983358999016,None,None,1,,,,,,,,,,,,,,210,2023-04-05_15h06.18.801,Main,2022.1.1,61.13747497016096,
positive,yellow,2,None,k,,,,,,,,,0,217,217,217,,,,,,,,,,,,,,,,,main,None,None,1,1.5020205999026075,686.4980230999645,None,None,1,,,,,,,,,,,,,,210,2023-04-05_15h06.18.801,Main,2022.1.1,61.13747497016096,
negative,blue,1,None,k,,,,,,,,,0,218,218,218,,,,,,,,,,,,,,,,,main,None,None,1,1.4985752999782562,689.0006097999867,None,None,1,,,,,,,,,,,,,,210,2023-04-05_15h06.18.801,Main,2022.1.1,61.13747497016096,
positive,red,2,None,None,,,,,,,,,0,219,219,219,,,,,,,,,,,,,,,,,main,None,None,1,1.4998521999223158,691.5005467999727,None,None,1,,,,,,,,,,,,,,210,2023-04-05_15h06.18.801,Main,2022.1.1,61.13747497016096,
positive,yellow,1,None,k,,,,,,,,,0,220,220,220,,,,,,,,,,,,,,,,,main,None,None,1,1.498463699943386,693.9979293999495,None,None,1,,,,,,,,,,,,,,210,2023-04-05_15h06.18.801,Main,2022.1.1,61.13747497016096,
positive,blue,1,k,None,,,,,,,,,0,221,221,221,,,,,,,,,,,,,,,,,main,k,k,1,0.9801529999822378,696.5004493999295,None,None,0,,,,,,,,,,,,,,210,2023-04-05_15h06.18.801,Main,2022.1.1,61.13747497016096,
positive,yellow,2,None,k,,,,,,,,,0,222,222,222,,,,,,,,,,,,,,,,,main,None,None,1,1.5014554999070242,698.4811072999146,None,None,1,,,,,,,,,,,,,,210,2023-04-05_15h06.18.801,Main,2022.1.1,61.13747497016096,
negative,yellow,1,k,None,,,,,,,,,0,223,223,223,,,,,,,,,,,,,,,,,main,k,k,1,0.9993695999728516,700.9836944999406,None,None,0,,,,,,,,,,,,,,210,2023-04-05_15h06.18.801,Main,2022.1.1,61.13747497016096,
positive,yellow,2,None,k,,,,,,,,,0,224,224,224,,,,,,,,,,,,,,,,,main,None,None,1,1.4994075999129564,702.983651699964,None,None,1,,,,,,,,,,,,,,210,2023-04-05_15h06.18.801,Main,2022.1.1,61.13747497016096,
negative,yellow,2,k,None,,,,,,,,,0,225,225,225,,,,,,,,,,,,,,,,,main,k,k,1,0.8463045000098646,705.4834411999909,None,None,0,,,,,,,,,,,,,,210,2023-04-05_15h06.18.801,Main,2022.1.1,61.13747497016096,
negative,blue,2,None,k,,,,,,,,,0,226,226,226,,,,,,,,,,,,,,,,,main,None,None,1,1.5014965999871492,707.3309007999487,None,None,1,,,,,,,,,,,,,,210,2023-04-05_15h06.18.801,Main,2022.1.1,61.13747497016096,
positive,red,2,None,None,,,,,,,,,0,227,227,227,,,,,,,,,,,,,,,,,main,None,None,1,1.500264500034973,709.8334688999457,None,None,1,,,,,,,,,,,,,,210,2023-04-05_15h06.18.801,Main,2022.1.1,61.13747497016096,
positive,blue,2,k,None,,,,,,,,,0,228,228,228,,,,,,,,,,,,,,,,,main,k,k,1,0.8312422999879345,712.3335030999733,None,None,0,,,,,,,,,,,,,,210,2023-04-05_15h06.18.801,Main,2022.1.1,61.13747497016096,
negative,blue,1,None,k,,,,,,,,,0,229,229,229,,,,,,,,,,,,,,,,,main,None,None,1,1.4962680999888107,714.166579999961,None,None,1,,,,,,,,,,,,,,210,2023-04-05_15h06.18.801,Main,2022.1.1,61.13747497016096,
positive,yellow,1,None,k,,,,,,,,,0,230,230,230,,,,,,,,,,,,,,,,,main,None,None,1,1.5019661000696942,716.6640373999253,None,None,1,,,,,,,,,,,,,,210,2023-04-05_15h06.18.801,Main,2022.1.1,61.13747497016096,
negative,blue,2,None,k,,,,,,,,,0,231,231,231,,,,,,,,,,,,,,,,,main,None,None,1,1.4991557000903413,719.1666303999955,None,None,1,,,,,,,,,,,,,,210,2023-04-05_15h06.18.801,Main,2022.1.1,61.13747497016096,
negative,red,1,None,None,,,,,,,,,0,232,232,232,,,,,,,,,,,,,,,,,main,None,None,1,1.4966001999564469,721.6665905999253,None,None,1,,,,,,,,,,,,,,210,2023-04-05_15h06.18.801,Main,2022.1.1,61.13747497016096,
positive,blue,2,k,None,,,,,,,,,0,233,233,233,,,,,,,,,,,,,,,,,main,k,k,1,0.7858141000615433,724.1644092999632,None,None,0,,,,,,,,,,,,,,210,2023-04-05_15h06.18.801,Main,2022.1.1,61.13747497016096,
negative,yellow,1,k,None,,,,,,,,,0,234,234,234,,,,,,,,,,,,,,,,,main,k,k,1,0.7149014000315219,725.9498227000004,None,None,0,,,,,,,,,,,,,,210,2023-04-05_15h06.18.801,Main,2022.1.1,61.13747497016096,
negative,yellow,2,k,None,,,,,,,,,0,235,235,235,,,,,,,,,,,,,,,,,main,k,k,1,0.7022989999968559,727.6665377999889,None,None,0,,,,,,,,,,,,,,210,2023-04-05_15h06.18.801,Main,2022.1.1,61.13747497016096,
positive,red,1,None,None,,,,,,,,,0,236,236,236,,,,,,,,,,,,,,,,,main,None,None,1,1.495918000000529,729.3674731999636,None,None,1,,,,,,,,,,,,,,210,2023-04-05_15h06.18.801,Main,2022.1.1,61.13747497016096,
negative,red,2,None,None,,,,,,,,,0,237,237,237,,,,,,,,,,,,,,,,,main,None,None,1,1.4967038000468165,731.8663365999237,None,None,1,,,,,,,,,,,,,,210,2023-04-05_15h06.18.801,Main,2022.1.1,61.13747497016096,
negative,blue,1,None,k,,,,,,,,,0,238,238,238,,,,,,,,,,,,,,,,,main,None,None,1,1.501834599999711,734.3637545999372,None,None,1,,,,,,,,,,,,,,210,2023-04-05_15h06.18.801,Main,2022.1.1,61.13747497016096,
positive,blue,1,k,None,,,,,,,,,0,239,239,239,,,,,,,,,,,,,,,,,main,k,k,1,0.7135168999666348,736.8662324999459,None,None,0,,,,,,,,,,,,,,210,2023-04-05_15h06.18.801,Main,2022.1.1,61.13747497016096,
,,,,,,,,,,,,,,,,,,,,,,,,,,,,,,,,,,,,,,,,,,,,,,,,,,,,,738.5802436999511,None,,,,,,
