distractor,target,set,ans1,ans2,rep_loop4.thisRepN,rep_loop4.thisTrialN,rep_loop4.thisN,rep_loop4.thisIndex,st2_prac_loop.thisRepN,st2_prac_loop.thisTrialN,st2_prac_loop.thisN,st2_prac_loop.thisIndex,st2_main_loop.thisRepN,st2_main_loop.thisTrialN,st2_main_loop.thisN,st2_main_loop.thisIndex,image_4.started,image_4.stopped,sound_2.started,sound_2.stopped,key_resp_3.keys,key_resp_3.rt,image_5.started,image_5.stopped,st_prac_back.started,st_prac_back.stopped,st_prac_text.started,st_prac_text.stopped,st_fix_back.started,st_fix_back.stopped,st_fix_2.started,st_fix_2.stopped,main_prac,st_ans,st_res,st_corr,st_rt,st_back.started,st_back.stopped,st2_resp.keys,st2_resp.corr,st_main_back.started,st_main_back.stopped,st_main_text.started,st_main_text.stopped,mouse_4.x,mouse_4.y,mouse_4.leftButton,mouse_4.midButton,mouse_4.rightButton,mouse_4.started,mouse_4.stopped,text_2.started,text_2.stopped,id*,date,expName,psychopyVersion,frameRate,
negative,yellow,1,k,None,,,,,0,0,0,0,,,,,32.059425199986435,None,40.46917638998129,None,space,63.79851669998607,104.28458799998043,None,107.2371267999988,None,107.2371267999988,None,109.24007699999493,None,109.24007699999493,None,prac,None,None,1,1.4988160000066273,111.26433470001211,None,None,1,,,,,,,,,,,,,,001,2022-05-02_11h09.43.321,Main,2022.1.1,60.06088971818421,
positive,red,2,None,None,,,,,0,1,1,1,,,,,,,,,,,,,,,,,,,,,prac,None,None,1,1.4964082000078633,113.77254299999913,None,None,1,,,,,,,,,,,,,,001,2022-05-02_11h09.43.321,Main,2022.1.1,60.06088971818421,
negative,blue,2,None,k,,,,,0,2,2,2,,,,,,,,,,,,,,,,,,,,,prac,k,k,1,1.132735599996522,116.26755340001546,None,None,0,,,,,,,,,,,,,,001,2022-05-02_11h09.43.321,Main,2022.1.1,60.06088971818421,
positive,yellow,1,None,k,,,,,0,3,3,3,,,,,,,,,,,,,,,,,,,,,prac,k,k,1,0.8822738000308163,118.40082570002414,None,None,0,,,,,,,,,,,,,,001,2022-05-02_11h09.43.321,Main,2022.1.1,60.06088971818421,
negative,blue,2,None,k,,,,,0,4,4,4,,,,,,,,,,,,,,,,,,,,,prac,k,k,1,0.8326129999477416,120.2844193999772,None,None,0,,,,,,,,,,,,,,001,2022-05-02_11h09.43.321,Main,2022.1.1,60.06088971818421,
negative,blue,1,None,k,,,,,0,5,5,5,,,,,,,,,,,,,,,,,,,,,prac,k,k,1,0.8663958000252023,122.11770280002384,None,None,0,,,,,,,,,,,,,,001,2022-05-02_11h09.43.321,Main,2022.1.1,60.06088971818421,
negative,yellow,2,k,None,,,,,0,6,6,6,,,,,,,,,,,,,,,,,,,,,prac,None,None,1,1.4988066000514664,123.98425019998103,None,None,1,,,,,,,,,,,,,,001,2022-05-02_11h09.43.321,Main,2022.1.1,60.06088971818421,
negative,red,1,None,None,,,,,0,7,7,7,,,,,,,,,,,,,,,,,,,,,prac,None,None,1,1.4974588000332005,126.4842860000208,None,None,1,,,,,,,,,,,,,,001,2022-05-02_11h09.43.321,Main,2022.1.1,60.06088971818421,
positive,yellow,2,None,k,,,,,0,8,8,8,,,,,,,,,,,,,,,,,,,,,prac,k,k,1,0.8660269999527372,128.98393809999106,None,None,0,,,,,,,,,,,,,,001,2022-05-02_11h09.43.321,Main,2022.1.1,60.06088971818421,
negative,yellow,1,k,None,,,,,0,9,9,9,,,,,,,,,,,,,,,,,,,,,prac,None,None,1,1.5016177000361495,130.8506263999734,None,None,1,,,,,,,,,,,,,,001,2022-05-02_11h09.43.321,Main,2022.1.1,60.06088971818421,
positive,yellow,2,None,k,,,,,0,10,10,10,,,,,,,,,,,,,,,,,,,,,prac,k,k,1,0.8468347999732941,133.35310830001254,None,None,0,,,,,,,,,,,,,,001,2022-05-02_11h09.43.321,Main,2022.1.1,60.06088971818421,
negative,yellow,2,k,None,,,,,0,11,11,11,,,,,,,,,,,,,,,,,,,,,prac,None,None,1,1.498592699994333,135.2032302999869,None,None,1,,,,,,,,,,,,,,001,2022-05-02_11h09.43.321,Main,2022.1.1,60.06088971818421,
negative,red,2,None,None,,,,,0,12,12,12,,,,,,,,,,,,,,,,,,,,,prac,None,None,1,1.499998500046786,137.70443530002376,None,None,1,,,,,,,,,,,,,,001,2022-05-02_11h09.43.321,Main,2022.1.1,60.06088971818421,
positive,red,1,None,None,,,,,0,13,13,13,,,,,,,,,,,,,,,,,,,,,prac,None,None,1,1.4979456999571994,140.20364909997443,None,None,1,,,,,,,,,,,,,,001,2022-05-02_11h09.43.321,Main,2022.1.1,60.06088971818421,
positive,blue,2,k,None,,,,,0,14,14,14,,,,,,,,,,,,,,,,,,,,,prac,None,None,1,1.499918700021226,142.70070480002323,None,None,1,,,,,,,,,,,,,,001,2022-05-02_11h09.43.321,Main,2022.1.1,60.06088971818421,
positive,blue,1,k,None,,,,,0,15,15,15,,,,,,,,,,,,,,,,,,,,,prac,None,None,1,1.4976166000124067,145.20058970001992,None,None,1,,,,,,,,,,,,,,001,2022-05-02_11h09.43.321,Main,2022.1.1,60.06088971818421,
negative,blue,1,None,k,,,,,0,16,16,16,,,,,,,,,,,,,,,,,,,,,prac,k,k,1,0.8328233999782242,147.7005354000139,None,None,0,,,,,,,,,,,,,,001,2022-05-02_11h09.43.321,Main,2022.1.1,60.06088971818421,
positive,blue,2,k,None,,,,,0,17,17,17,,,,,,,,,,,,,,,,,,,,,prac,None,None,1,1.4994634999893606,149.5362645999994,None,None,1,,,,,,,,,,,,,,001,2022-05-02_11h09.43.321,Main,2022.1.1,60.06088971818421,
positive,blue,1,k,None,,,,,0,18,18,18,,,,,,,,,,,,,,,,,,,,,prac,None,None,1,1.500597799953539,152.03349349997006,None,None,1,,,,,,,,,,,,,,001,2022-05-02_11h09.43.321,Main,2022.1.1,60.06088971818421,
positive,yellow,1,None,k,,,,,0,19,19,19,,,,,,,,,,,,,,,,,,,,,prac,k,k,1,0.8024842999875546,154.53377779998118,None,None,0,,,,,,,,,,,,,,001,2022-05-02_11h09.43.321,Main,2022.1.1,60.06088971818421,
negative,yellow,1,k,None,,,,,1,0,20,0,,,,,,,,,,,,,,,,,,,,,prac,None,None,1,1.4938010000041686,156.3377534999745,None,None,1,,,,,,,,,,,,,,001,2022-05-02_11h09.43.321,Main,2022.1.1,60.06088971818421,
positive,red,2,None,None,,,,,1,1,21,1,,,,,,,,,,,,,,,,,,,,,prac,None,None,1,1.5006753000197932,158.8333782000118,None,None,1,,,,,,,,,,,,,,001,2022-05-02_11h09.43.321,Main,2022.1.1,60.06088971818421,
negative,blue,2,None,k,,,,,1,2,22,2,,,,,,,,,,,,,,,,,,,,,prac,k,k,1,1.41337999998359,161.33604289998766,None,None,0,,,,,,,,,,,,,,001,2022-05-02_11h09.43.321,Main,2022.1.1,60.06088971818421,
positive,yellow,1,None,k,,,,,1,3,23,3,,,,,,,,,,,,,,,,,,,,,prac,k,k,1,0.9656274000299163,163.750158299983,None,None,0,,,,,,,,,,,,,,001,2022-05-02_11h09.43.321,Main,2022.1.1,60.06088971818421,
negative,blue,2,None,k,,,,,1,4,24,4,,,,,,,,,,,,,,,,,,,,,prac,k,k,1,7.732332100044005,165.7167828999809,None,None,0,,,,,,,,,,,,,,001,2022-05-02_11h09.43.321,Main,2022.1.1,60.06088971818421,
negative,blue,1,None,k,,,,,1,5,25,5,,,,,,,,,,,,,,,,,,,,,prac,k,k,1,0.9149138000211678,175.44993579998845,None,None,0,,,,,,,,,,,,,,001,2022-05-02_11h09.43.321,Main,2022.1.1,60.06088971818421,
negative,yellow,2,k,None,,,,,1,6,26,6,,,,,,,,,,,,,,,,,,,,,prac,None,None,1,1.5011033999617212,177.36626069998601,None,None,1,,,,,,,,,,,,,,001,2022-05-02_11h09.43.321,Main,2022.1.1,60.06088971818421,
negative,red,1,None,None,,,,,1,7,27,7,,,,,,,,,,,,,,,,,,,,,prac,None,None,1,1.4972536999848671,179.86900900001638,None,None,1,,,,,,,,,,,,,,001,2022-05-02_11h09.43.321,Main,2022.1.1,60.06088971818421,
positive,yellow,2,None,k,,,,,1,8,28,8,,,,,,,,,,,,,,,,,,,,,prac,k,k,1,0.9321592999622226,182.36614240001654,None,None,0,,,,,,,,,,,,,,001,2022-05-02_11h09.43.321,Main,2022.1.1,60.06088971818421,
negative,yellow,1,k,None,,,,,1,9,29,9,,,,,,,,,,,,,,,,,,,,,prac,None,None,1,1.500466099998448,184.29950059996918,None,None,1,,,,,,,,,,,,,,001,2022-05-02_11h09.43.321,Main,2022.1.1,60.06088971818421,
positive,yellow,2,None,k,,,,,1,10,30,10,,,,,,,,,,,,,,,,,,,,,prac,k,k,1,4.330006100004539,186.79978940001456,None,None,0,,,,,,,,,,,,,,001,2022-05-02_11h09.43.321,Main,2022.1.1,60.06088971818421,
negative,yellow,2,k,None,,,,,1,11,31,11,,,,,,,,,,,,,,,,,,,,,prac,None,None,1,1.5060973999788985,193.1328882999951,None,None,1,,,,,,,,,,,,,,001,2022-05-02_11h09.43.321,Main,2022.1.1,60.06088971818421,
negative,red,2,None,None,,,,,1,12,32,12,,,,,,,,,,,,,,,,,,,,,prac,None,None,1,1.493085499969311,195.63725580001483,None,None,1,,,,,,,,,,,,,,001,2022-05-02_11h09.43.321,Main,2022.1.1,60.06088971818421,
positive,red,1,None,None,,,,,1,13,33,13,,,,,,,,,,,,,,,,,,,,,prac,None,None,1,1.4999725999659859,198.13276680000126,None,None,1,,,,,,,,,,,,,,001,2022-05-02_11h09.43.321,Main,2022.1.1,60.06088971818421,
positive,blue,2,k,None,,,,,1,14,34,14,,,,,,,,,,,,,,,,,,,,,prac,None,None,1,1.4985077999881469,200.63273690000642,None,None,1,,,,,,,,,,,,,,001,2022-05-02_11h09.43.321,Main,2022.1.1,60.06088971818421,
positive,blue,1,k,None,,,,,1,15,35,15,,,,,,,,,,,,,,,,,,,,,prac,None,None,1,1.5006778999813832,203.13251219998347,None,None,1,,,,,,,,,,,,,,001,2022-05-02_11h09.43.321,Main,2022.1.1,60.06088971818421,
negative,blue,1,None,k,,,,,1,16,36,16,,,,,,,,,,,,,,,,,,,,,prac,k,k,1,0.8302193999988958,205.63514450000366,None,None,0,,,,,,,,,,,,,,001,2022-05-02_11h09.43.321,Main,2022.1.1,60.06088971818421,
positive,blue,2,k,None,,,,,1,17,37,17,,,,,,,,,,,,,,,,,,,,,prac,None,None,1,1.5000782000133768,207.46604440000374,None,None,1,,,,,,,,,,,,,,001,2022-05-02_11h09.43.321,Main,2022.1.1,60.06088971818421,
positive,blue,1,k,None,,,,,1,18,38,18,,,,,,,,,,,,,,,,,,,,,prac,None,None,1,1.4996460999827832,209.96562809997704,None,None,1,,,,,,,,,,,,,,001,2022-05-02_11h09.43.321,Main,2022.1.1,60.06088971818421,
positive,yellow,1,None,k,,,,,1,19,39,19,,,,,,,,,,,,,,,,,,,,,prac,k,k,1,0.8119775000377558,212.4659084000159,None,None,0,,,,,,,,,,,,,,001,2022-05-02_11h09.43.321,Main,2022.1.1,60.06088971818421,
,,,,,,,,,,,,,,,,,,,,,,,,,,,,,,,,,,,,,,,,,,214.27113010000903,None,214.27113010000903,None,0.06481481,-0.074074075,0,0,0,0.013384789926931262,None,,,001,2022-05-02_11h09.43.321,Main,2022.1.1,60.06088971818421,
negative,yellow,2,k,None,,,,,,,,,0,0,0,0,,,,,,,,,,,,,215.66579190001357,None,215.66579190001357,None,main,None,None,1,1.5057807000121102,217.70102279999992,None,None,1,,,,,,,,,,,,,,001,2022-05-02_11h09.43.321,Main,2022.1.1,60.06088971818421,
positive,red,1,None,None,,,,,,,,,0,1,1,1,,,,,,,,,,,,,,,,,main,None,None,1,1.4994634999893606,220.21814010001253,None,None,1,,,,,,,,,,,,,,001,2022-05-02_11h09.43.321,Main,2022.1.1,60.06088971818421,
positive,blue,2,k,None,,,,,,,,,0,2,2,2,,,,,,,,,,,,,,,,,main,None,None,1,1.4966031999792904,222.7155973999761,None,None,1,,,,,,,,,,,,,,001,2022-05-02_11h09.43.321,Main,2022.1.1,60.06088971818421,
positive,blue,1,k,None,,,,,,,,,0,3,3,3,,,,,,,,,,,,,,,,,main,None,None,1,1.4987802000250667,225.21555329998955,None,None,1,,,,,,,,,,,,,,001,2022-05-02_11h09.43.321,Main,2022.1.1,60.06088971818421,
negative,yellow,2,k,None,,,,,,,,,0,4,4,4,,,,,,,,,,,,,,,,,main,None,None,1,1.498741700022947,227.7154875000124,None,None,1,,,,,,,,,,,,,,001,2022-05-02_11h09.43.321,Main,2022.1.1,60.06088971818421,
positive,yellow,2,None,k,,,,,,,,,0,5,5,5,,,,,,,,,,,,,,,,,main,k,k,1,0.9980767000233755,230.2154096000013,None,None,0,,,,,,,,,,,,,,001,2022-05-02_11h09.43.321,Main,2022.1.1,60.06088971818421,
negative,blue,2,None,k,,,,,,,,,0,6,6,6,,,,,,,,,,,,,,,,,main,k,k,1,0.9324586000293493,232.2154414000106,None,None,0,,,,,,,,,,,,,,001,2022-05-02_11h09.43.321,Main,2022.1.1,60.06088971818421,
positive,red,2,None,None,,,,,,,,,0,7,7,7,,,,,,,,,,,,,,,,,main,None,None,1,1.4994968000100926,234.15116660000058,None,None,1,,,,,,,,,,,,,,001,2022-05-02_11h09.43.321,Main,2022.1.1,60.06088971818421,
positive,yellow,1,None,k,,,,,,,,,0,8,8,8,,,,,,,,,,,,,,,,,main,k,k,1,0.8648036000085995,236.6486097999732,None,None,0,,,,,,,,,,,,,,001,2022-05-02_11h09.43.321,Main,2022.1.1,60.06088971818421,
negative,red,1,None,None,,,,,,,,,0,9,9,9,,,,,,,,,,,,,,,,,main,None,None,1,1.5020430000149645,238.5152822000091,None,None,1,,,,,,,,,,,,,,001,2022-05-02_11h09.43.321,Main,2022.1.1,60.06088971818421,
positive,yellow,1,None,k,,,,,,,,,0,10,10,10,,,,,,,,,,,,,,,,,main,k,k,1,0.8126112999743782,241.01755910000065,None,None,0,,,,,,,,,,,,,,001,2022-05-02_11h09.43.321,Main,2022.1.1,60.06088971818421,
negative,yellow,1,k,None,,,,,,,,,0,11,11,11,,,,,,,,,,,,,,,,,main,None,None,1,1.4985936000011861,242.83179829997243,None,None,1,,,,,,,,,,,,,,001,2022-05-02_11h09.43.321,Main,2022.1.1,60.06088971818421,
negative,yellow,1,k,None,,,,,,,,,0,12,12,12,,,,,,,,,,,,,,,,,main,None,None,1,1.5000104999635369,245.33184230001643,None,None,1,,,,,,,,,,,,,,001,2022-05-02_11h09.43.321,Main,2022.1.1,60.06088971818421,
negative,red,2,None,None,,,,,,,,,0,13,13,13,,,,,,,,,,,,,,,,,main,None,None,1,1.4980064000119455,247.8317000999814,None,None,1,,,,,,,,,,,,,,001,2022-05-02_11h09.43.321,Main,2022.1.1,60.06088971818421,
positive,yellow,2,None,k,,,,,,,,,0,14,14,14,,,,,,,,,,,,,,,,,main,k,k,1,0.8493384000030346,250.33171180001227,None,None,0,,,,,,,,,,,,,,001,2022-05-02_11h09.43.321,Main,2022.1.1,60.06088971818421,
positive,blue,1,k,None,,,,,,,,,0,15,15,15,,,,,,,,,,,,,,,,,main,None,None,1,1.4985124000231735,252.18167800002266,None,None,1,,,,,,,,,,,,,,001,2022-05-02_11h09.43.321,Main,2022.1.1,60.06088971818421,
negative,blue,1,None,k,,,,,,,,,0,16,16,16,,,,,,,,,,,,,,,,,main,k,k,1,0.683003899990581,254.68135410000104,None,None,0,,,,,,,,,,,,,,001,2022-05-02_11h09.43.321,Main,2022.1.1,60.06088971818421,
positive,blue,2,k,None,,,,,,,,,0,17,17,17,,,,,,,,,,,,,,,,,main,None,None,1,1.5011618999997154,256.3650281999726,None,None,1,,,,,,,,,,,,,,001,2022-05-02_11h09.43.321,Main,2022.1.1,60.06088971818421,
negative,blue,2,None,k,,,,,,,,,0,18,18,18,,,,,,,,,,,,,,,,,main,k,k,1,1.2964552999474108,258.8673687999835,None,None,0,,,,,,,,,,,,,,001,2022-05-02_11h09.43.321,Main,2022.1.1,60.06088971818421,
negative,blue,1,None,k,,,,,,,,,0,19,19,19,,,,,,,,,,,,,,,,,main,k,k,1,0.9000240999739617,261.1645516999997,None,None,0,,,,,,,,,,,,,,001,2022-05-02_11h09.43.321,Main,2022.1.1,60.06088971818421,
negative,blue,1,None,k,,,,,,,,,0,20,20,20,,,,,,,,,,,,,,,,,main,k,k,1,1.098264200030826,263.06454019999364,None,None,0,,,,,,,,,,,,,,001,2022-05-02_11h09.43.321,Main,2022.1.1,60.06088971818421,
negative,blue,2,None,k,,,,,,,,,0,21,21,21,,,,,,,,,,,,,,,,,main,k,k,1,0.8655799000407569,265.1648414999945,None,None,0,,,,,,,,,,,,,,001,2022-05-02_11h09.43.321,Main,2022.1.1,60.06088971818421,
negative,red,1,None,None,,,,,,,,,0,22,22,22,,,,,,,,,,,,,,,,,main,None,None,1,1.499749000009615,267.03138719999697,None,None,1,,,,,,,,,,,,,,001,2022-05-02_11h09.43.321,Main,2022.1.1,60.06088971818421,
positive,red,2,None,None,,,,,,,,,0,23,23,23,,,,,,,,,,,,,,,,,main,None,None,1,1.498819199972786,269.53133139997954,None,None,1,,,,,,,,,,,,,,001,2022-05-02_11h09.43.321,Main,2022.1.1,60.06088971818421,
negative,red,2,None,None,,,,,,,,,0,24,24,24,,,,,,,,,,,,,,,,,main,None,None,1,1.4984655000152998,272.03128950000973,None,None,1,,,,,,,,,,,,,,001,2022-05-02_11h09.43.321,Main,2022.1.1,60.06088971818421,
positive,blue,2,k,None,,,,,,,,,0,25,25,25,,,,,,,,,,,,,,,,,main,None,None,1,1.5007732000085525,274.5309387000161,None,None,1,,,,,,,,,,,,,,001,2022-05-02_11h09.43.321,Main,2022.1.1,60.06088971818421,
negative,yellow,1,k,None,,,,,,,,,0,26,26,26,,,,,,,,,,,,,,,,,main,None,None,1,1.4990195999853313,277.03125250001904,None,None,1,,,,,,,,,,,,,,001,2022-05-02_11h09.43.321,Main,2022.1.1,60.06088971818421,
positive,blue,2,k,None,,,,,,,,,0,27,27,27,,,,,,,,,,,,,,,,,main,None,None,1,1.4965530000044964,279.5336378000211,None,None,1,,,,,,,,,,,,,,001,2022-05-02_11h09.43.321,Main,2022.1.1,60.06088971818421,
negative,blue,2,None,k,,,,,,,,,0,28,28,28,,,,,,,,,,,,,,,,,main,k,k,1,0.8823298999923281,282.03109720000066,None,None,0,,,,,,,,,,,,,,001,2022-05-02_11h09.43.321,Main,2022.1.1,60.06088971818421,
positive,red,1,None,None,,,,,,,,,0,29,29,29,,,,,,,,,,,,,,,,,main,None,None,1,1.5016329999780282,283.91408509999746,None,None,1,,,,,,,,,,,,,,001,2022-05-02_11h09.43.321,Main,2022.1.1,60.06088971818421,
positive,blue,1,k,None,,,,,,,,,0,30,30,30,,,,,,,,,,,,,,,,,main,None,None,1,1.4990715999738313,286.4168341999757,None,None,1,,,,,,,,,,,,,,001,2022-05-02_11h09.43.321,Main,2022.1.1,60.06088971818421,
positive,yellow,1,None,k,,,,,,,,,0,31,31,31,,,,,,,,,,,,,,,,,main,k,k,1,0.7797245000256225,288.91668219998246,None,None,0,,,,,,,,,,,,,,001,2022-05-02_11h09.43.321,Main,2022.1.1,60.06088971818421,
negative,yellow,2,k,None,,,,,,,,,0,32,32,32,,,,,,,,,,,,,,,,,main,None,None,1,1.5015166999655776,290.69727639999473,None,None,1,,,,,,,,,,,,,,001,2022-05-02_11h09.43.321,Main,2022.1.1,60.06088971818421,
negative,blue,1,None,k,,,,,,,,,0,33,33,33,,,,,,,,,,,,,,,,,main,k,k,1,0.7303389000007883,293.1999540000106,None,None,0,,,,,,,,,,,,,,001,2022-05-02_11h09.43.321,Main,2022.1.1,60.06088971818421,
positive,blue,1,k,None,,,,,,,,,0,34,34,34,,,,,,,,,,,,,,,,,main,None,None,1,1.5001115000341088,294.9333222999703,None,None,1,,,,,,,,,,,,,,001,2022-05-02_11h09.43.321,Main,2022.1.1,60.06088971818421,
negative,yellow,1,k,None,,,,,,,,,0,35,35,35,,,,,,,,,,,,,,,,,main,None,None,1,1.4997131999698468,297.43046509998385,None,None,1,,,,,,,,,,,,,,001,2022-05-02_11h09.43.321,Main,2022.1.1,60.06088971818421,
positive,yellow,2,None,k,,,,,,,,,0,36,36,36,,,,,,,,,,,,,,,,,main,k,k,1,0.8466281000291929,299.9331771999714,None,None,0,,,,,,,,,,,,,,001,2022-05-02_11h09.43.321,Main,2022.1.1,60.06088971818421,
positive,yellow,2,None,k,,,,,,,,,0,37,37,37,,,,,,,,,,,,,,,,,main,k,k,1,0.8157962000113912,301.78038599999854,None,None,0,,,,,,,,,,,,,,001,2022-05-02_11h09.43.321,Main,2022.1.1,60.06088971818421,
negative,yellow,2,k,None,,,,,,,,,0,38,38,38,,,,,,,,,,,,,,,,,main,None,None,1,1.501548999978695,303.5970544000156,None,None,1,,,,,,,,,,,,,,001,2022-05-02_11h09.43.321,Main,2022.1.1,60.06088971818421,
positive,yellow,1,None,k,,,,,,,,,0,39,39,39,,,,,,,,,,,,,,,,,main,k,k,1,1.1302586999954656,306.097326099989,None,None,0,,,,,,,,,,,,,,001,2022-05-02_11h09.43.321,Main,2022.1.1,60.06088971818421,
negative,yellow,2,k,None,,,,,,,,,0,40,40,40,,,,,,,,,,,,,,,,,main,None,None,1,1.4997511000256054,308.2305629000184,None,None,1,,,,,,,,,,,,,,001,2022-05-02_11h09.43.321,Main,2022.1.1,60.06088971818421,
positive,blue,2,k,None,,,,,,,,,0,41,41,41,,,,,,,,,,,,,,,,,main,None,None,1,1.4986669999780133,310.7305479000206,None,None,1,,,,,,,,,,,,,,001,2022-05-02_11h09.43.321,Main,2022.1.1,60.06088971818421,
positive,blue,2,k,None,,,,,,,,,0,42,42,42,,,,,,,,,,,,,,,,,main,None,None,1,1.4979388999636285,313.23040320002474,None,None,1,,,,,,,,,,,,,,001,2022-05-02_11h09.43.321,Main,2022.1.1,60.06088971818421,
negative,blue,2,None,k,,,,,,,,,0,43,43,43,,,,,,,,,,,,,,,,,main,k,k,1,0.8822813000297174,315.73039520002203,None,None,0,,,,,,,,,,,,,,001,2022-05-02_11h09.43.321,Main,2022.1.1,60.06088971818421,
negative,red,1,None,None,,,,,,,,,0,44,44,44,,,,,,,,,,,,,,,,,main,None,None,1,1.5016350999940187,317.6133944999892,None,None,1,,,,,,,,,,,,,,001,2022-05-02_11h09.43.321,Main,2022.1.1,60.06088971818421,
negative,yellow,1,k,None,,,,,,,,,0,45,45,45,,,,,,,,,,,,,,,,,main,None,None,1,1.4964764999458566,320.11616819998017,None,None,1,,,,,,,,,,,,,,001,2022-05-02_11h09.43.321,Main,2022.1.1,60.06088971818421,
negative,yellow,1,k,None,,,,,,,,,0,46,46,46,,,,,,,,,,,,,,,,,main,None,None,1,1.4999515999807045,322.61353289999533,None,None,1,,,,,,,,,,,,,,001,2022-05-02_11h09.43.321,Main,2022.1.1,60.06088971818421,
positive,red,1,None,None,,,,,,,,,0,47,47,47,,,,,,,,,,,,,,,,,main,None,None,1,1.4987420999677852,325.113490800024,None,None,1,,,,,,,,,,,,,,001,2022-05-02_11h09.43.321,Main,2022.1.1,60.06088971818421,
positive,yellow,1,None,k,,,,,,,,,0,48,48,48,,,,,,,,,,,,,,,,,main,k,k,1,0.9146129000000656,327.6134462999762,None,None,0,,,,,,,,,,,,,,001,2022-05-02_11h09.43.321,Main,2022.1.1,60.06088971818421,
negative,blue,1,None,k,,,,,,,,,0,49,49,49,,,,,,,,,,,,,,,,,main,k,k,1,0.7825723999994807,329.53009469999233,None,None,0,,,,,,,,,,,,,,001,2022-05-02_11h09.43.321,Main,2022.1.1,60.06088971818421,
positive,yellow,2,None,k,,,,,,,,,0,50,50,50,,,,,,,,,,,,,,,,,main,k,k,1,0.7823669000063092,331.3133252999978,None,None,0,,,,,,,,,,,,,,001,2022-05-02_11h09.43.321,Main,2022.1.1,60.06088971818421,
negative,blue,1,None,k,,,,,,,,,0,51,51,51,,,,,,,,,,,,,,,,,main,k,k,1,0.7490042999852449,333.09677459998056,None,None,0,,,,,,,,,,,,,,001,2022-05-02_11h09.43.321,Main,2022.1.1,60.06088971818421,
positive,red,2,None,None,,,,,,,,,0,52,52,52,,,,,,,,,,,,,,,,,main,None,None,1,1.4998247000039555,334.8466553000035,None,None,1,,,,,,,,,,,,,,001,2022-05-02_11h09.43.321,Main,2022.1.1,60.06088971818421,
positive,yellow,2,None,k,,,,,,,,,0,53,53,53,,,,,,,,,,,,,,,,,main,k,k,1,0.7981352999922819,337.3465152999852,None,None,0,,,,,,,,,,,,,,001,2022-05-02_11h09.43.321,Main,2022.1.1,60.06088971818421,
negative,red,2,None,None,,,,,,,,,0,54,54,54,,,,,,,,,,,,,,,,,main,None,None,1,1.4991127999965101,339.1465499000042,None,None,1,,,,,,,,,,,,,,001,2022-05-02_11h09.43.321,Main,2022.1.1,60.06088971818421,
positive,yellow,1,None,k,,,,,,,,,0,55,55,55,,,,,,,,,,,,,,,,,main,k,k,1,0.8320522999856621,341.6464676000178,None,None,0,,,,,,,,,,,,,,001,2022-05-02_11h09.43.321,Main,2022.1.1,60.06088971818421,
negative,blue,2,None,k,,,,,,,,,0,56,56,56,,,,,,,,,,,,,,,,,main,k,k,1,0.6832297000219114,343.47989040001994,None,None,0,,,,,,,,,,,,,,001,2022-05-02_11h09.43.321,Main,2022.1.1,60.06088971818421,
positive,blue,1,k,None,,,,,,,,,0,57,57,57,,,,,,,,,,,,,,,,,main,None,None,1,1.4983495999476872,345.16317989997333,None,None,1,,,,,,,,,,,,,,001,2022-05-02_11h09.43.321,Main,2022.1.1,60.06088971818421,
positive,blue,1,k,None,,,,,,,,,0,58,58,58,,,,,,,,,,,,,,,,,main,None,None,1,1.5004319999716245,347.6629763999954,None,None,1,,,,,,,,,,,,,,001,2022-05-02_11h09.43.321,Main,2022.1.1,60.06088971818421,
negative,yellow,2,k,None,,,,,,,,,0,59,59,59,,,,,,,,,,,,,,,,,main,None,None,1,1.4973286999738775,350.16298299998743,None,None,1,,,,,,,,,,,,,,001,2022-05-02_11h09.43.321,Main,2022.1.1,60.06088971818421,
positive,red,2,None,None,,,,,,,,,0,60,60,60,,,,,,,,,,,,,,,,,main,None,None,1,1.500454200024251,352.6629032000201,None,None,1,,,,,,,,,,,,,,001,2022-05-02_11h09.43.321,Main,2022.1.1,60.06088971818421,
negative,yellow,1,k,None,,,,,,,,,0,61,61,61,,,,,,,,,,,,,,,,,main,None,None,1,1.5026412000297569,355.1629469000036,None,None,1,,,,,,,,,,,,,,001,2022-05-02_11h09.43.321,Main,2022.1.1,60.06088971818421,
negative,red,1,None,None,,,,,,,,,0,62,62,62,,,,,,,,,,,,,,,,,main,None,None,1,1.49392529996112,357.66678179998416,None,None,1,,,,,,,,,,,,,,001,2022-05-02_11h09.43.321,Main,2022.1.1,60.06088971818421,
negative,blue,1,None,k,,,,,,,,,0,63,63,63,,,,,,,,,,,,,,,,,main,k,k,1,0.7814732000115328,360.16277830000035,None,None,0,,,,,,,,,,,,,,001,2022-05-02_11h09.43.321,Main,2022.1.1,60.06088971818421,
positive,blue,2,k,None,,,,,,,,,0,64,64,64,,,,,,,,,,,,,,,,,main,None,None,1,1.4991316000232473,361.94609169999603,None,None,1,,,,,,,,,,,,,,001,2022-05-02_11h09.43.321,Main,2022.1.1,60.06088971818421,
negative,yellow,2,k,None,,,,,,,,,0,65,65,65,,,,,,,,,,,,,,,,,main,None,None,1,1.498753799998667,364.445976899995,None,None,1,,,,,,,,,,,,,,001,2022-05-02_11h09.43.321,Main,2022.1.1,60.06088971818421,
positive,yellow,2,None,k,,,,,,,,,0,66,66,66,,,,,,,,,,,,,,,,,main,k,k,1,0.6661971000139602,366.94599129998824,None,None,0,,,,,,,,,,,,,,001,2022-05-02_11h09.43.321,Main,2022.1.1,60.06088971818421,
positive,yellow,2,None,k,,,,,,,,,0,67,67,67,,,,,,,,,,,,,,,,,main,k,k,1,0.7324877000064589,368.612659299979,None,None,0,,,,,,,,,,,,,,001,2022-05-02_11h09.43.321,Main,2022.1.1,60.06088971818421,
positive,red,1,None,None,,,,,,,,,0,68,68,68,,,,,,,,,,,,,,,,,main,None,None,1,1.4989127999870107,370.3458787999698,None,None,1,,,,,,,,,,,,,,001,2022-05-02_11h09.43.321,Main,2022.1.1,60.06088971818421,
positive,yellow,1,None,k,,,,,,,,,0,69,69,69,,,,,,,,,,,,,,,,,main,k,k,1,0.7492813999997452,372.8458786000265,None,None,0,,,,,,,,,,,,,,001,2022-05-02_11h09.43.321,Main,2022.1.1,60.06088971818421,
negative,yellow,2,k,None,,,,,,,,,0,70,70,70,,,,,,,,,,,,,,,,,main,None,None,1,1.4995328999939375,374.6016891999752,None,None,1,,,,,,,,,,,,,,001,2022-05-02_11h09.43.321,Main,2022.1.1,60.06088971818421,
positive,yellow,1,None,k,,,,,,,,,0,71,71,71,,,,,,,,,,,,,,,,,main,k,k,1,0.8985266000381671,377.09556300000986,None,None,0,,,,,,,,,,,,,,001,2022-05-02_11h09.43.321,Main,2022.1.1,60.06088971818421,
negative,blue,1,None,k,,,,,,,,,0,72,72,72,,,,,,,,,,,,,,,,,main,k,k,1,0.7656854999950156,378.99587839999003,None,None,0,,,,,,,,,,,,,,001,2022-05-02_11h09.43.321,Main,2022.1.1,60.06088971818421,
negative,red,2,None,None,,,,,,,,,0,73,73,73,,,,,,,,,,,,,,,,,main,None,None,1,1.4986549000022933,380.76491670001997,None,None,1,,,,,,,,,,,,,,001,2022-05-02_11h09.43.321,Main,2022.1.1,60.06088971818421,
positive,blue,2,k,None,,,,,,,,,0,74,74,74,,,,,,,,,,,,,,,,,main,None,None,1,1.5018197000026703,383.26211090001743,None,None,1,,,,,,,,,,,,,,001,2022-05-02_11h09.43.321,Main,2022.1.1,60.06088971818421,
negative,blue,2,None,k,,,,,,,,,0,75,75,75,,,,,,,,,,,,,,,,,main,k,k,1,0.7135470999637619,385.76467070000945,None,None,0,,,,,,,,,,,,,,001,2022-05-02_11h09.43.321,Main,2022.1.1,60.06088971818421,
negative,blue,2,None,k,,,,,,,,,0,76,76,76,,,,,,,,,,,,,,,,,main,k,k,1,0.6652218999806792,387.47900140000274,None,None,0,,,,,,,,,,,,,,001,2022-05-02_11h09.43.321,Main,2022.1.1,60.06088971818421,
negative,yellow,1,k,None,,,,,,,,,0,77,77,77,,,,,,,,,,,,,,,,,main,None,None,1,1.5019525000243448,389.145253100025,None,None,1,,,,,,,,,,,,,,001,2022-05-02_11h09.43.321,Main,2022.1.1,60.06088971818421,
positive,blue,1,k,None,,,,,,,,,0,78,78,78,,,,,,,,,,,,,,,,,main,None,None,1,1.4989864000235684,391.64538800000446,None,None,1,,,,,,,,,,,,,,001,2022-05-02_11h09.43.321,Main,2022.1.1,60.06088971818421,
positive,blue,1,k,None,,,,,,,,,0,79,79,79,,,,,,,,,,,,,,,,,main,None,None,1,1.497063299990259,394.14796779997414,None,None,1,,,,,,,,,,,,,,001,2022-05-02_11h09.43.321,Main,2022.1.1,60.06088971818421,
positive,red,2,None,None,,,,,,,,,0,80,80,80,,,,,,,,,,,,,,,,,main,None,None,1,1.5007005999796093,396.645079799986,None,None,1,,,,,,,,,,,,,,001,2022-05-02_11h09.43.321,Main,2022.1.1,60.06088971818421,
positive,yellow,2,None,k,,,,,,,,,0,81,81,81,,,,,,,,,,,,,,,,,main,k,k,1,0.8301878999918699,399.1477522000205,None,None,0,,,,,,,,,,,,,,001,2022-05-02_11h09.43.321,Main,2022.1.1,60.06088971818421,
positive,blue,1,k,None,,,,,,,,,0,82,82,82,,,,,,,,,,,,,,,,,main,None,None,1,1.499468700028956,400.97876590001397,None,None,1,,,,,,,,,,,,,,001,2022-05-02_11h09.43.321,Main,2022.1.1,60.06088971818421,
negative,yellow,2,k,None,,,,,,,,,0,83,83,83,,,,,,,,,,,,,,,,,main,None,None,1,1.5005999999702908,403.47835330001544,None,None,1,,,,,,,,,,,,,,001,2022-05-02_11h09.43.321,Main,2022.1.1,60.06088971818421,
positive,blue,2,k,None,,,,,,,,,0,84,84,84,,,,,,,,,,,,,,,,,main,None,None,1,1.4965868999715894,405.97861980000744,None,None,1,,,,,,,,,,,,,,001,2022-05-02_11h09.43.321,Main,2022.1.1,60.06088971818421,
positive,yellow,1,None,k,,,,,,,,,0,85,85,85,,,,,,,,,,,,,,,,,main,k,k,1,0.7991854000138119,408.47851629997604,None,None,0,,,,,,,,,,,,,,001,2022-05-02_11h09.43.321,Main,2022.1.1,60.06088971818421,
positive,blue,2,k,None,,,,,,,,,0,86,86,86,,,,,,,,,,,,,,,,,main,None,None,1,1.4996801000088453,410.2783881999785,None,None,1,,,,,,,,,,,,,,001,2022-05-02_11h09.43.321,Main,2022.1.1,60.06088971818421,
positive,blue,1,k,None,,,,,,,,,0,87,87,87,,,,,,,,,,,,,,,,,main,None,None,1,1.4980928000295535,412.7783731999807,None,None,1,,,,,,,,,,,,,,001,2022-05-02_11h09.43.321,Main,2022.1.1,60.06088971818421,
negative,yellow,2,k,None,,,,,,,,,0,88,88,88,,,,,,,,,,,,,,,,,main,None,None,1,1.4999277999741025,415.2808031999739,None,None,1,,,,,,,,,,,,,,001,2022-05-02_11h09.43.321,Main,2022.1.1,60.06088971818421,
negative,blue,2,None,k,,,,,,,,,0,89,89,89,,,,,,,,,,,,,,,,,main,k,k,1,0.7481381000252441,417.7782363999868,None,None,0,,,,,,,,,,,,,,001,2022-05-02_11h09.43.321,Main,2022.1.1,60.06088971818421,
positive,yellow,2,None,k,,,,,,,,,0,90,90,90,,,,,,,,,,,,,,,,,main,k,k,1,0.7822655000491068,419.52824810001766,None,None,0,,,,,,,,,,,,,,001,2022-05-02_11h09.43.321,Main,2022.1.1,60.06088971818421,
negative,yellow,1,k,None,,,,,,,,,0,91,91,91,,,,,,,,,,,,,,,,,main,None,None,1,1.4994180000503547,421.31738099997165,None,None,1,,,,,,,,,,,,,,001,2022-05-02_11h09.43.321,Main,2022.1.1,60.06088971818421,
negative,red,2,None,None,,,,,,,,,0,92,92,92,,,,,,,,,,,,,,,,,main,None,None,1,1.5006723999977112,423.81126809999114,None,None,1,,,,,,,,,,,,,,001,2022-05-02_11h09.43.321,Main,2022.1.1,60.06088971818421,
negative,blue,2,None,k,,,,,,,,,0,93,93,93,,,,,,,,,,,,,,,,,main,k,k,1,1.0134824000415392,426.31393010000465,None,None,0,,,,,,,,,,,,,,001,2022-05-02_11h09.43.321,Main,2022.1.1,60.06088971818421,
negative,blue,1,None,k,,,,,,,,,0,94,94,94,,,,,,,,,,,,,,,,,main,k,k,1,0.7823665000032634,428.32804980000947,None,None,0,,,,,,,,,,,,,,001,2022-05-02_11h09.43.321,Main,2022.1.1,60.06088971818421,
negative,blue,1,None,k,,,,,,,,,0,95,95,95,,,,,,,,,,,,,,,,,main,k,k,1,0.766265399986878,430.1113884000224,None,None,0,,,,,,,,,,,,,,001,2022-05-02_11h09.43.321,Main,2022.1.1,60.06088971818421,
negative,red,1,None,None,,,,,,,,,0,96,96,96,,,,,,,,,,,,,,,,,main,None,None,1,1.5004052999429405,431.8777242000215,None,None,1,,,,,,,,,,,,,,001,2022-05-02_11h09.43.321,Main,2022.1.1,60.06088971818421,
positive,yellow,1,None,k,,,,,,,,,0,97,97,97,,,,,,,,,,,,,,,,,main,k,k,1,0.796944200003054,434.3804696999723,None,None,0,,,,,,,,,,,,,,001,2022-05-02_11h09.43.321,Main,2022.1.1,60.06088971818421,
negative,yellow,1,k,None,,,,,,,,,0,98,98,98,,,,,,,,,,,,,,,,,main,None,None,1,1.501892299973406,436.1780242000241,None,None,1,,,,,,,,,,,,,,001,2022-05-02_11h09.43.321,Main,2022.1.1,60.06088971818421,
positive,red,1,None,None,,,,,,,,,0,99,99,99,,,,,,,,,,,,,,,,,main,None,None,1,1.496340399957262,438.6778820999898,None,None,1,,,,,,,,,,,,,,001,2022-05-02_11h09.43.321,Main,2022.1.1,60.06088971818421,
positive,blue,1,k,None,,,,,,,,,0,100,100,100,,,,,,,,,,,,,,,,,main,None,None,1,1.4986495000193827,441.1777561000199,None,None,1,,,,,,,,,,,,,,001,2022-05-02_11h09.43.321,Main,2022.1.1,60.06088971818421,
negative,yellow,1,k,None,,,,,,,,,0,101,101,101,,,,,,,,,,,,,,,,,main,None,None,1,1.4986707999487408,443.67776970000705,None,None,1,,,,,,,,,,,,,,001,2022-05-02_11h09.43.321,Main,2022.1.1,60.06088971818421,
negative,blue,2,None,k,,,,,,,,,0,102,102,102,,,,,,,,,,,,,,,,,main,k,k,1,1.165326600021217,446.17747809999855,None,None,0,,,,,,,,,,,,,,001,2022-05-02_11h09.43.321,Main,2022.1.1,60.06088971818421,
negative,yellow,2,k,None,,,,,,,,,0,103,103,103,,,,,,,,,,,,,,,,,main,None,None,1,1.501055800006725,448.3444286999875,None,None,1,,,,,,,,,,,,,,001,2022-05-02_11h09.43.321,Main,2022.1.1,60.06088971818421,
positive,yellow,2,None,k,,,,,,,,,0,104,104,104,,,,,,,,,,,,,,,,,main,k,k,1,0.8966379999765195,450.84668820002116,None,None,0,,,,,,,,,,,,,,001,2022-05-02_11h09.43.321,Main,2022.1.1,60.06088971818421,
positive,blue,1,k,None,,,,,,,,,0,105,105,105,,,,,,,,,,,,,,,,,main,None,None,1,1.501804200001061,452.74394539999776,None,None,1,,,,,,,,,,,,,,001,2022-05-02_11h09.43.321,Main,2022.1.1,60.06088971818421,
positive,blue,2,k,None,,,,,,,,,0,106,106,106,,,,,,,,,,,,,,,,,main,None,None,1,1.4961637000087649,455.2466706999694,None,None,1,,,,,,,,,,,,,,001,2022-05-02_11h09.43.321,Main,2022.1.1,60.06088971818421,
negative,blue,1,None,k,,,,,,,,,0,107,107,107,,,,,,,,,,,,,,,,,main,k,k,1,0.7160662999958731,457.7438443999854,None,None,0,,,,,,,,,,,,,,001,2022-05-02_11h09.43.321,Main,2022.1.1,60.06088971818421,
positive,yellow,2,None,k,,,,,,,,,0,108,108,108,,,,,,,,,,,,,,,,,main,k,k,1,0.766992500051856,459.4605248000007,None,None,0,,,,,,,,,,,,,,001,2022-05-02_11h09.43.321,Main,2022.1.1,60.06088971818421,
negative,yellow,1,k,None,,,,,,,,,0,109,109,109,,,,,,,,,,,,,,,,,main,None,None,1,1.4996870000031777,461.22748290002346,None,None,1,,,,,,,,,,,,,,001,2022-05-02_11h09.43.321,Main,2022.1.1,60.06088971818421,
negative,blue,2,None,k,,,,,,,,,0,110,110,110,,,,,,,,,,,,,,,,,main,k,k,1,0.697892599971965,463.72732559998985,None,None,0,,,,,,,,,,,,,,001,2022-05-02_11h09.43.321,Main,2022.1.1,60.06088971818421,
positive,blue,2,k,None,,,,,,,,,0,111,111,111,,,,,,,,,,,,,,,,,main,None,None,1,1.498242899950128,465.4276565000182,None,None,1,,,,,,,,,,,,,,001,2022-05-02_11h09.43.321,Main,2022.1.1,60.06088971818421,
negative,blue,1,None,k,,,,,,,,,0,112,112,112,,,,,,,,,,,,,,,,,main,k,k,1,0.7486385999945924,467.92698519997066,None,None,0,,,,,,,,,,,,,,001,2022-05-02_11h09.43.321,Main,2022.1.1,60.06088971818421,
positive,yellow,1,None,k,,,,,,,,,0,113,113,113,,,,,,,,,,,,,,,,,main,k,k,1,0.8181600000243634,469.67971090000356,None,None,0,,,,,,,,,,,,,,001,2022-05-02_11h09.43.321,Main,2022.1.1,60.06088971818421,
negative,red,1,None,None,,,,,,,,,0,114,114,114,,,,,,,,,,,,,,,,,main,None,None,1,1.497178299992811,471.4964269999764,None,None,1,,,,,,,,,,,,,,001,2022-05-02_11h09.43.321,Main,2022.1.1,60.06088971818421,
positive,red,1,None,None,,,,,,,,,0,115,115,115,,,,,,,,,,,,,,,,,main,None,None,1,1.4987264999654144,473.9938378999941,None,None,1,,,,,,,,,,,,,,001,2022-05-02_11h09.43.321,Main,2022.1.1,60.06088971818421,
negative,red,2,None,None,,,,,,,,,0,116,116,116,,,,,,,,,,,,,,,,,main,None,None,1,1.5002880000392906,476.49374299997,None,None,1,,,,,,,,,,,,,,001,2022-05-02_11h09.43.321,Main,2022.1.1,60.06088971818421,
negative,yellow,2,k,None,,,,,,,,,0,117,117,117,,,,,,,,,,,,,,,,,main,None,None,1,1.497567699989304,478.99368569999933,None,None,1,,,,,,,,,,,,,,001,2022-05-02_11h09.43.321,Main,2022.1.1,60.06088971818421,
positive,yellow,1,None,k,,,,,,,,,0,118,118,118,,,,,,,,,,,,,,,,,main,k,k,1,0.9315584000432864,481.49360109999543,None,None,0,,,,,,,,,,,,,,001,2022-05-02_11h09.43.321,Main,2022.1.1,60.06088971818421,
positive,red,2,None,None,,,,,,,,,0,119,119,119,,,,,,,,,,,,,,,,,main,None,None,1,1.498802300018724,483.42693060002057,None,None,1,,,,,,,,,,,,,,001,2022-05-02_11h09.43.321,Main,2022.1.1,60.06088971818421,
positive,blue,2,k,None,,,,,,,,,0,120,120,120,,,,,,,,,,,,,,,,,main,None,None,1,1.5003967999946326,485.92696170002455,None,None,1,,,,,,,,,,,,,,001,2022-05-02_11h09.43.321,Main,2022.1.1,60.06088971818421,
negative,red,1,None,None,,,,,,,,,0,121,121,121,,,,,,,,,,,,,,,,,main,None,None,1,1.4996185000054538,488.4265554000158,None,None,1,,,,,,,,,,,,,,001,2022-05-02_11h09.43.321,Main,2022.1.1,60.06088971818421,
positive,yellow,2,None,k,,,,,,,,,0,122,122,122,,,,,,,,,,,,,,,,,main,k,k,1,0.8161581999738701,490.9268720999826,None,None,0,,,,,,,,,,,,,,001,2022-05-02_11h09.43.321,Main,2022.1.1,60.06088971818421,
negative,red,2,None,None,,,,,,,,,0,123,123,123,,,,,,,,,,,,,,,,,main,None,None,1,1.4963078000000678,492.74351719999686,None,None,1,,,,,,,,,,,,,,001,2022-05-02_11h09.43.321,Main,2022.1.1,60.06088971818421,
negative,yellow,2,k,None,,,,,,,,,0,124,124,124,,,,,,,,,,,,,,,,,main,None,None,1,1.4995251999935135,495.2433625999838,None,None,1,,,,,,,,,,,,,,001,2022-05-02_11h09.43.321,Main,2022.1.1,60.06088971818421,
positive,red,1,None,None,,,,,,,,,0,125,125,125,,,,,,,,,,,,,,,,,main,None,None,1,1.5007008999818936,497.74303750001127,None,None,1,,,,,,,,,,,,,,001,2022-05-02_11h09.43.321,Main,2022.1.1,60.06088971818421,
negative,blue,2,None,k,,,,,,,,,0,126,126,126,,,,,,,,,,,,,,,,,main,k,k,1,0.7802680999739096,500.24336219998077,None,None,0,,,,,,,,,,,,,,001,2022-05-02_11h09.43.321,Main,2022.1.1,60.06088971818421,
negative,blue,1,None,k,,,,,,,,,0,127,127,127,,,,,,,,,,,,,,,,,main,k,k,1,0.7158301000017673,502.0289933999884,None,None,0,,,,,,,,,,,,,,001,2022-05-02_11h09.43.321,Main,2022.1.1,60.06088971818421,
negative,yellow,1,k,None,,,,,,,,,0,128,128,128,,,,,,,,,,,,,,,,,main,None,None,1,1.4991029999800958,503.7431978000095,None,None,1,,,,,,,,,,,,,,001,2022-05-02_11h09.43.321,Main,2022.1.1,60.06088971818421,
negative,yellow,1,k,None,,,,,,,,,0,129,129,129,,,,,,,,,,,,,,,,,main,None,None,1,1.4985137999756262,506.2431393999723,None,None,1,,,,,,,,,,,,,,001,2022-05-02_11h09.43.321,Main,2022.1.1,60.06088971818421,
positive,blue,1,k,None,,,,,,,,,0,130,130,130,,,,,,,,,,,,,,,,,main,None,None,1,1.4996188000077382,508.74307029997,None,None,1,,,,,,,,,,,,,,001,2022-05-02_11h09.43.321,Main,2022.1.1,60.06088971818421,
negative,blue,1,None,k,,,,,,,,,0,131,131,131,,,,,,,,,,,,,,,,,main,k,k,1,0.6982350000180304,511.24274830002105,None,None,0,,,,,,,,,,,,,,001,2022-05-02_11h09.43.321,Main,2022.1.1,60.06088971818421,
negative,blue,2,None,k,,,,,,,,,0,132,132,132,,,,,,,,,,,,,,,,,main,k,k,1,1.3493281999835745,512.942765499989,None,None,0,,,,,,,,,,,,,,001,2022-05-02_11h09.43.321,Main,2022.1.1,60.06088971818421,
positive,blue,2,k,None,,,,,,,,,0,133,133,133,,,,,,,,,,,,,,,,,main,None,None,1,1.5013141999952495,515.2954339999706,None,None,1,,,,,,,,,,,,,,001,2022-05-02_11h09.43.321,Main,2022.1.1,60.06088971818421,
positive,red,2,None,None,,,,,,,,,0,134,134,134,,,,,,,,,,,,,,,,,main,None,None,1,1.4964749999926426,517.7953632000135,None,None,1,,,,,,,,,,,,,,001,2022-05-02_11h09.43.321,Main,2022.1.1,60.06088971818421,
negative,yellow,2,k,None,,,,,,,,,0,135,135,135,,,,,,,,,,,,,,,,,main,None,None,1,1.4996645000064746,520.2928400000092,None,None,1,,,,,,,,,,,,,,001,2022-05-02_11h09.43.321,Main,2022.1.1,60.06088971818421,
positive,yellow,2,None,k,,,,,,,,,0,136,136,136,,,,,,,,,,,,,,,,,main,k,k,1,0.6343209999613464,522.7925234999857,None,None,0,,,,,,,,,,,,,,001,2022-05-02_11h09.43.321,Main,2022.1.1,60.06088971818421,
positive,blue,1,k,None,,,,,,,,,0,137,137,137,,,,,,,,,,,,,,,,,main,None,None,1,1.4987129000364803,524.4285881000105,None,None,1,,,,,,,,,,,,,,001,2022-05-02_11h09.43.321,Main,2022.1.1,60.06088971818421,
positive,yellow,1,None,k,,,,,,,,,0,138,138,138,,,,,,,,,,,,,,,,,main,k,k,1,0.8131355000077747,526.9285446999711,None,None,0,,,,,,,,,,,,,,001,2022-05-02_11h09.43.321,Main,2022.1.1,60.06088971818421,
positive,yellow,1,None,k,,,,,,,,,0,139,139,139,,,,,,,,,,,,,,,,,main,k,k,1,0.6851298999972641,528.7424024000065,None,None,0,,,,,,,,,,,,,,001,2022-05-02_11h09.43.321,Main,2022.1.1,60.06088971818421,
positive,yellow,1,None,k,,,,,,,,,0,140,140,140,,,,,,,,,,,,,,,,,main,k,k,1,0.7966861000168137,530.4260735000134,None,None,0,,,,,,,,,,,,,,001,2022-05-02_11h09.43.321,Main,2022.1.1,60.06088971818421,
positive,blue,1,k,None,,,,,,,,,0,141,141,141,,,,,,,,,,,,,,,,,main,None,None,1,1.4986844000522979,532.2284423999954,None,None,1,,,,,,,,,,,,,,001,2022-05-02_11h09.43.321,Main,2022.1.1,60.06088971818421,
positive,blue,2,k,None,,,,,,,,,0,142,142,142,,,,,,,,,,,,,,,,,main,None,None,1,1.4997568999533542,534.7258663999964,None,None,1,,,,,,,,,,,,,,001,2022-05-02_11h09.43.321,Main,2022.1.1,60.06088971818421,
positive,yellow,2,None,k,,,,,,,,,0,143,143,143,,,,,,,,,,,,,,,,,main,k,k,1,0.7484788000001572,537.2257734999876,None,None,0,,,,,,,,,,,,,,001,2022-05-02_11h09.43.321,Main,2022.1.1,60.06088971818421,
negative,yellow,2,k,None,,,,,,,,,0,144,144,144,,,,,,,,,,,,,,,,,main,None,None,1,1.4997464999905787,538.9758289000019,None,None,1,,,,,,,,,,,,,,001,2022-05-02_11h09.43.321,Main,2022.1.1,60.06088971818421,
negative,blue,2,None,k,,,,,,,,,0,145,145,145,,,,,,,,,,,,,,,,,main,k,k,1,0.6980929000419565,541.4758028999786,None,None,0,,,,,,,,,,,,,,001,2022-05-02_11h09.43.321,Main,2022.1.1,60.06088971818421,
negative,red,1,None,None,,,,,,,,,0,146,146,146,,,,,,,,,,,,,,,,,main,None,None,1,1.4989393999567255,543.1756806999911,None,None,1,,,,,,,,,,,,,,001,2022-05-02_11h09.43.321,Main,2022.1.1,60.06088971818421,
positive,blue,1,k,None,,,,,,,,,0,147,147,147,,,,,,,,,,,,,,,,,main,None,None,1,1.4999047999735922,545.6781235000235,None,None,1,,,,,,,,,,,,,,001,2022-05-02_11h09.43.321,Main,2022.1.1,60.06088971818421,
positive,yellow,1,None,k,,,,,,,,,0,148,148,148,,,,,,,,,,,,,,,,,main,k,k,1,0.7982359000016004,548.1755305000115,None,None,0,,,,,,,,,,,,,,001,2022-05-02_11h09.43.321,Main,2022.1.1,60.06088971818421,
negative,red,2,None,None,,,,,,,,,0,149,149,149,,,,,,,,,,,,,,,,,main,None,None,1,1.4986898999777623,549.9755869000219,None,None,1,,,,,,,,,,,,,,001,2022-05-02_11h09.43.321,Main,2022.1.1,60.06088971818421,
negative,blue,1,None,k,,,,,,,,,0,150,150,150,,,,,,,,,,,,,,,,,main,k,k,1,0.6169804999954067,552.4813915999839,None,None,0,,,,,,,,,,,,,,001,2022-05-02_11h09.43.321,Main,2022.1.1,60.06088971818421,
negative,yellow,2,k,None,,,,,,,,,0,151,151,151,,,,,,,,,,,,,,,,,main,None,None,1,1.4972840000409633,554.0921151000075,None,None,1,,,,,,,,,,,,,,001,2022-05-02_11h09.43.321,Main,2022.1.1,60.06088971818421,
negative,blue,2,None,k,,,,,,,,,0,152,152,152,,,,,,,,,,,,,,,,,main,k,k,1,0.6034383000223897,556.5921195999836,None,None,0,,,,,,,,,,,,,,001,2022-05-02_11h09.43.321,Main,2022.1.1,60.06088971818421,
negative,yellow,1,k,None,,,,,,,,,0,153,153,153,,,,,,,,,,,,,,,,,main,None,None,1,1.4955060000065714,558.198686800024,None,None,1,,,,,,,,,,,,,,001,2022-05-02_11h09.43.321,Main,2022.1.1,60.06088971818421,
negative,blue,1,None,k,,,,,,,,,0,154,154,154,,,,,,,,,,,,,,,,,main,k,k,1,0.7509067999781109,560.6920140999719,None,None,0,,,,,,,,,,,,,,001,2022-05-02_11h09.43.321,Main,2022.1.1,60.06088971818421,
positive,yellow,2,None,k,,,,,,,,,0,155,155,155,,,,,,,,,,,,,,,,,main,k,k,1,0.7798431999981403,562.4419926999835,None,None,0,,,,,,,,,,,,,,001,2022-05-02_11h09.43.321,Main,2022.1.1,60.06088971818421,
positive,red,2,None,None,,,,,,,,,0,156,156,156,,,,,,,,,,,,,,,,,main,None,None,1,1.5011900000390597,564.2252391999937,None,None,1,,,,,,,,,,,,,,001,2022-05-02_11h09.43.321,Main,2022.1.1,60.06088971818421,
positive,red,1,None,None,,,,,,,,,0,157,157,157,,,,,,,,,,,,,,,,,main,None,None,1,1.502607700007502,566.7252129000262,None,None,1,,,,,,,,,,,,,,001,2022-05-02_11h09.43.321,Main,2022.1.1,60.06088971818421,
positive,blue,2,k,None,,,,,,,,,0,158,158,158,,,,,,,,,,,,,,,,,main,None,None,1,1.4940017000189982,569.2292104000226,None,None,1,,,,,,,,,,,,,,001,2022-05-02_11h09.43.321,Main,2022.1.1,60.06088971818421,
negative,yellow,1,k,None,,,,,,,,,0,159,159,159,,,,,,,,,,,,,,,,,main,None,None,1,1.4978702999651432,571.7251842999831,None,None,1,,,,,,,,,,,,,,001,2022-05-02_11h09.43.321,Main,2022.1.1,60.06088971818421,
negative,red,2,None,None,,,,,,,,,0,160,160,160,,,,,,,,,,,,,,,,,main,None,None,1,1.4996317999903113,574.2251170999953,None,None,1,,,,,,,,,,,,,,001,2022-05-02_11h09.43.321,Main,2022.1.1,60.06088971818421,
negative,blue,1,None,k,,,,,,,,,0,161,161,161,,,,,,,,,,,,,,,,,main,k,k,1,0.5485889000119641,576.7247910000151,None,None,0,,,,,,,,,,,,,,001,2022-05-02_11h09.43.321,Main,2022.1.1,60.06088971818421,
negative,blue,1,None,k,,,,,,,,,0,162,162,162,,,,,,,,,,,,,,,,,main,k,k,1,0.6490276000113226,578.2751040000003,None,None,0,,,,,,,,,,,,,,001,2022-05-02_11h09.43.321,Main,2022.1.1,60.06088971818421,
negative,yellow,1,k,None,,,,,,,,,0,163,163,163,,,,,,,,,,,,,,,,,main,None,None,1,1.4986517999786884,579.9274597999756,None,None,1,,,,,,,,,,,,,,001,2022-05-02_11h09.43.321,Main,2022.1.1,60.06088971818421,
negative,yellow,1,k,None,,,,,,,,,0,164,164,164,,,,,,,,,,,,,,,,,main,None,None,1,1.4996475000516511,582.4249124000198,None,None,1,,,,,,,,,,,,,,001,2022-05-02_11h09.43.321,Main,2022.1.1,60.06088971818421,
positive,yellow,1,None,k,,,,,,,,,0,165,165,165,,,,,,,,,,,,,,,,,main,k,k,1,0.5653701999690384,584.9245917000226,None,None,0,,,,,,,,,,,,,,001,2022-05-02_11h09.43.321,Main,2022.1.1,60.06088971818421,
negative,red,1,None,None,,,,,,,,,0,166,166,166,,,,,,,,,,,,,,,,,main,None,None,1,1.4998739000293426,586.4916384000098,None,None,1,,,,,,,,,,,,,,001,2022-05-02_11h09.43.321,Main,2022.1.1,60.06088971818421,
negative,yellow,2,k,None,,,,,,,,,0,167,167,167,,,,,,,,,,,,,,,,,main,None,None,1,1.4963512999820523,588.9915913000004,None,None,1,,,,,,,,,,,,,,001,2022-05-02_11h09.43.321,Main,2022.1.1,60.06088971818421,
positive,blue,2,k,None,,,,,,,,,0,168,168,168,,,,,,,,,,,,,,,,,main,None,None,1,1.4996191000100225,591.4911606999813,None,None,1,,,,,,,,,,,,,,001,2022-05-02_11h09.43.321,Main,2022.1.1,60.06088971818421,
positive,red,2,None,None,,,,,,,,,0,169,169,169,,,,,,,,,,,,,,,,,main,None,None,1,1.498031200026162,593.9914489000221,None,None,1,,,,,,,,,,,,,,001,2022-05-02_11h09.43.321,Main,2022.1.1,60.06088971818421,
positive,red,1,None,None,,,,,,,,,0,170,170,170,,,,,,,,,,,,,,,,,main,None,None,1,1.4964321000152268,596.4938705000095,None,None,1,,,,,,,,,,,,,,001,2022-05-02_11h09.43.321,Main,2022.1.1,60.06088971818421,
negative,blue,2,None,k,,,,,,,,,0,171,171,171,,,,,,,,,,,,,,,,,main,k,k,1,0.797376099973917,598.9909624999855,None,None,0,,,,,,,,,,,,,,001,2022-05-02_11h09.43.321,Main,2022.1.1,60.06088971818421,
positive,blue,2,k,None,,,,,,,,,0,172,172,172,,,,,,,,,,,,,,,,,main,None,None,1,1.501459099992644,600.7912902000244,None,None,1,,,,,,,,,,,,,,001,2022-05-02_11h09.43.321,Main,2022.1.1,60.06088971818421,
negative,yellow,2,k,None,,,,,,,,,0,173,173,173,,,,,,,,,,,,,,,,,main,None,None,1,1.4962380999932066,603.2936930999858,None,None,1,,,,,,,,,,,,,,001,2022-05-02_11h09.43.321,Main,2022.1.1,60.06088971818421,
positive,yellow,2,None,k,,,,,,,,,0,174,174,174,,,,,,,,,,,,,,,,,main,k,k,1,1.1664384999894537,605.7908237000229,None,None,0,,,,,,,,,,,,,,001,2022-05-02_11h09.43.321,Main,2022.1.1,60.06088971818421,
negative,blue,2,None,k,,,,,,,,,0,175,175,175,,,,,,,,,,,,,,,,,main,k,k,1,0.8825190999777988,607.9602773999795,None,None,0,,,,,,,,,,,,,,001,2022-05-02_11h09.43.321,Main,2022.1.1,60.06088971818421,
positive,blue,1,k,None,,,,,,,,,0,176,176,176,,,,,,,,,,,,,,,,,main,None,None,1,1.4994529000250623,609.843558099994,None,None,1,,,,,,,,,,,,,,001,2022-05-02_11h09.43.321,Main,2022.1.1,60.06088971818421,
positive,yellow,1,None,k,,,,,,,,,0,177,177,177,,,,,,,,,,,,,,,,,main,k,k,1,0.8985370000009425,612.340744199988,None,None,0,,,,,,,,,,,,,,001,2022-05-02_11h09.43.321,Main,2022.1.1,60.06088971818421,
positive,blue,1,k,None,,,,,,,,,0,178,178,178,,,,,,,,,,,,,,,,,main,None,None,1,1.4986743000335991,614.2410716000013,None,None,1,,,,,,,,,,,,,,001,2022-05-02_11h09.43.321,Main,2022.1.1,60.06088971818421,
positive,yellow,2,None,k,,,,,,,,,0,179,179,179,,,,,,,,,,,,,,,,,main,k,k,1,0.7827091999934055,616.7408758000238,None,None,0,,,,,,,,,,,,,,001,2022-05-02_11h09.43.321,Main,2022.1.1,60.06088971818421,
positive,blue,1,k,None,,,,,,,,,0,180,180,180,,,,,,,,,,,,,,,,,main,None,None,1,1.4989155000075698,618.5241661000182,None,None,1,,,,,,,,,,,,,,001,2022-05-02_11h09.43.321,Main,2022.1.1,60.06088971818421,
negative,red,1,None,None,,,,,,,,,0,181,181,181,,,,,,,,,,,,,,,,,main,None,None,1,1.5013730999780819,621.0241209000233,None,None,1,,,,,,,,,,,,,,001,2022-05-02_11h09.43.321,Main,2022.1.1,60.06088971818421,
negative,blue,1,None,k,,,,,,,,,0,182,182,182,,,,,,,,,,,,,,,,,main,k,k,1,0.7302646999596618,623.5240882000071,None,None,0,,,,,,,,,,,,,,001,2022-05-02_11h09.43.321,Main,2022.1.1,60.06088971818421,
negative,yellow,2,k,None,,,,,,,,,0,183,183,183,,,,,,,,,,,,,,,,,main,None,None,1,1.4997295000357553,625.2573855000082,None,None,1,,,,,,,,,,,,,,001,2022-05-02_11h09.43.321,Main,2022.1.1,60.06088971818421,
positive,yellow,2,None,k,,,,,,,,,0,184,184,184,,,,,,,,,,,,,,,,,main,k,k,1,1.0150901000015438,627.7573273999733,None,None,0,,,,,,,,,,,,,,001,2022-05-02_11h09.43.321,Main,2022.1.1,60.06088971818421,
positive,yellow,1,None,k,,,,,,,,,0,185,185,185,,,,,,,,,,,,,,,,,main,k,k,1,0.9822825000155717,629.7738852999755,None,None,0,,,,,,,,,,,,,,001,2022-05-02_11h09.43.321,Main,2022.1.1,60.06088971818421,
positive,red,2,None,None,,,,,,,,,0,186,186,186,,,,,,,,,,,,,,,,,main,None,None,1,1.4988515000441112,631.7573061999865,None,None,1,,,,,,,,,,,,,,001,2022-05-02_11h09.43.321,Main,2022.1.1,60.06088971818421,
positive,blue,1,k,None,,,,,,,,,0,187,187,187,,,,,,,,,,,,,,,,,main,None,None,1,1.499670099990908,634.2572157999966,None,None,1,,,,,,,,,,,,,,001,2022-05-02_11h09.43.321,Main,2022.1.1,60.06088971818421,
negative,yellow,1,k,None,,,,,,,,,0,188,188,188,,,,,,,,,,,,,,,,,main,None,None,1,1.5006696000345983,636.7568956000032,None,None,1,,,,,,,,,,,,,,001,2022-05-02_11h09.43.321,Main,2022.1.1,60.06088971818421,
positive,yellow,2,None,k,,,,,,,,,0,189,189,189,,,,,,,,,,,,,,,,,main,k,k,1,0.863405000010971,639.2596120000235,None,None,0,,,,,,,,,,,,,,001,2022-05-02_11h09.43.321,Main,2022.1.1,60.06088971818421,
negative,yellow,2,k,None,,,,,,,,,0,190,190,190,,,,,,,,,,,,,,,,,main,None,None,1,1.499340599984862,641.1236931000021,None,None,1,,,,,,,,,,,,,,001,2022-05-02_11h09.43.321,Main,2022.1.1,60.06088971818421,
negative,yellow,1,k,None,,,,,,,,,0,191,191,191,,,,,,,,,,,,,,,,,main,None,None,1,1.4988494000281207,643.623410500004,None,None,1,,,,,,,,,,,,,,001,2022-05-02_11h09.43.321,Main,2022.1.1,60.06088971818421,
positive,blue,2,k,None,,,,,,,,,0,192,192,192,,,,,,,,,,,,,,,,,main,None,None,1,1.500588399998378,646.1233796000015,None,None,1,,,,,,,,,,,,,,001,2022-05-02_11h09.43.321,Main,2022.1.1,60.06088971818421,
positive,yellow,1,None,k,,,,,,,,,0,193,193,193,,,,,,,,,,,,,,,,,main,k,k,1,0.696674200007692,648.6260379999876,None,None,0,,,,,,,,,,,,,,001,2022-05-02_11h09.43.321,Main,2022.1.1,60.06088971818421,
negative,red,2,None,None,,,,,,,,,0,194,194,194,,,,,,,,,,,,,,,,,main,None,None,1,1.5014095000224188,650.3232340000104,None,None,1,,,,,,,,,,,,,,001,2022-05-02_11h09.43.321,Main,2022.1.1,60.06088971818421,
positive,red,1,None,None,,,,,,,,,0,195,195,195,,,,,,,,,,,,,,,,,main,None,None,1,1.4991559999762103,652.825980100024,None,None,1,,,,,,,,,,,,,,001,2022-05-02_11h09.43.321,Main,2022.1.1,60.06088971818421,
negative,blue,1,None,k,,,,,,,,,0,196,196,196,,,,,,,,,,,,,,,,,main,k,k,1,0.929833400005009,655.3259706000099,None,None,0,,,,,,,,,,,,,,001,2022-05-02_11h09.43.321,Main,2022.1.1,60.06088971818421,
positive,blue,2,k,None,,,,,,,,,0,197,197,197,,,,,,,,,,,,,,,,,main,None,None,1,1.5015730999875814,657.2564423999866,None,None,1,,,,,,,,,,,,,,001,2022-05-02_11h09.43.321,Main,2022.1.1,60.06088971818421,
negative,blue,2,None,k,,,,,,,,,0,198,198,198,,,,,,,,,,,,,,,,,main,k,k,1,1.0300533999688923,659.7567681000219,None,None,0,,,,,,,,,,,,,,001,2022-05-02_11h09.43.321,Main,2022.1.1,60.06088971818421,
negative,blue,2,None,k,,,,,,,,,0,199,199,199,,,,,,,,,,,,,,,,,main,k,k,1,0.6879783000331372,661.790003800008,None,None,0,,,,,,,,,,,,,,001,2022-05-02_11h09.43.321,Main,2022.1.1,60.06088971818421,
positive,blue,2,k,None,,,,,,,,,0,200,200,200,,,,,,,,,,,,,,,,,main,None,None,1,1.4940959999803454,663.4771749000065,None,None,1,,,,,,,,,,,,,,001,2022-05-02_11h09.43.321,Main,2022.1.1,60.06088971818421,
positive,blue,2,k,None,,,,,,,,,0,201,201,201,,,,,,,,,,,,,,,,,main,None,None,1,1.500513500010129,665.9730353999767,None,None,1,,,,,,,,,,,,,,001,2022-05-02_11h09.43.321,Main,2022.1.1,60.06088971818421,
negative,yellow,2,k,None,,,,,,,,,0,202,202,202,,,,,,,,,,,,,,,,,main,None,None,1,1.4965244000195526,668.4732577999821,None,None,1,,,,,,,,,,,,,,001,2022-05-02_11h09.43.321,Main,2022.1.1,60.06088971818421,
positive,red,1,None,None,,,,,,,,,0,203,203,203,,,,,,,,,,,,,,,,,main,None,None,1,1.4996173999970779,670.9730883999728,None,None,1,,,,,,,,,,,,,,001,2022-05-02_11h09.43.321,Main,2022.1.1,60.06088971818421,
negative,blue,2,None,k,,,,,,,,,0,204,204,204,,,,,,,,,,,,,,,,,main,k,k,1,1.3821390999946743,673.472826400015,None,None,0,,,,,,,,,,,,,,001,2022-05-02_11h09.43.321,Main,2022.1.1,60.06088971818421,
negative,red,1,None,None,,,,,,,,,0,205,205,205,,,,,,,,,,,,,,,,,main,None,None,1,1.5040233000181615,675.8587442999706,None,None,1,,,,,,,,,,,,,,001,2022-05-02_11h09.43.321,Main,2022.1.1,60.06088971818421,
negative,blue,2,None,k,,,,,,,,,0,206,206,206,,,,,,,,,,,,,,,,,main,k,k,1,0.6436685000080615,678.3600369999767,None,None,0,,,,,,,,,,,,,,001,2022-05-02_11h09.43.321,Main,2022.1.1,60.06088971818421,
negative,yellow,2,k,None,,,,,,,,,0,207,207,207,,,,,,,,,,,,,,,,,main,None,None,1,1.4987879000254907,680.0062396000139,None,None,1,,,,,,,,,,,,,,001,2022-05-02_11h09.43.321,Main,2022.1.1,60.06088971818421,
positive,yellow,2,None,k,,,,,,,,,0,208,208,208,,,,,,,,,,,,,,,,,main,k,k,1,0.7827420000103302,682.5062342999736,None,None,0,,,,,,,,,,,,,,001,2022-05-02_11h09.43.321,Main,2022.1.1,60.06088971818421,
negative,yellow,1,k,None,,,,,,,,,0,209,209,209,,,,,,,,,,,,,,,,,main,None,None,1,1.4993490999913774,684.289510499977,None,None,1,,,,,,,,,,,,,,001,2022-05-02_11h09.43.321,Main,2022.1.1,60.06088971818421,
negative,red,2,None,None,,,,,,,,,0,210,210,210,,,,,,,,,,,,,,,,,main,None,None,1,1.4987471000058576,686.7891641000169,None,None,1,,,,,,,,,,,,,,001,2022-05-02_11h09.43.321,Main,2022.1.1,60.06088971818421,
negative,blue,1,None,k,,,,,,,,,0,211,211,211,,,,,,,,,,,,,,,,,main,k,k,1,0.715340800001286,689.289176899998,None,None,0,,,,,,,,,,,,,,001,2022-05-02_11h09.43.321,Main,2022.1.1,60.06088971818421,
negative,yellow,1,k,None,,,,,,,,,0,212,212,212,,,,,,,,,,,,,,,,,main,None,None,1,1.5010593000333756,691.0085136999842,None,None,1,,,,,,,,,,,,,,001,2022-05-02_11h09.43.321,Main,2022.1.1,60.06088971818421,
positive,blue,1,k,None,,,,,,,,,0,213,213,213,,,,,,,,,,,,,,,,,main,None,None,1,1.4971828000270762,693.5084730000235,None,None,1,,,,,,,,,,,,,,001,2022-05-02_11h09.43.321,Main,2022.1.1,60.06088971818421,
positive,blue,1,k,None,,,,,,,,,0,214,214,214,,,,,,,,,,,,,,,,,main,None,None,1,1.5007225000299513,696.0056599000236,None,None,1,,,,,,,,,,,,,,001,2022-05-02_11h09.43.321,Main,2022.1.1,60.06088971818421,
positive,yellow,1,None,k,,,,,,,,,0,215,215,215,,,,,,,,,,,,,,,,,main,k,k,1,0.6659826000104658,698.5059870000114,None,None,0,,,,,,,,,,,,,,001,2022-05-02_11h09.43.321,Main,2022.1.1,60.06088971818421,
positive,yellow,1,None,k,,,,,,,,,0,216,216,216,,,,,,,,,,,,,,,,,main,k,k,1,0.8638023000094108,700.1725967000239,None,None,0,,,,,,,,,,,,,,001,2022-05-02_11h09.43.321,Main,2022.1.1,60.06088971818421,
positive,yellow,2,None,k,,,,,,,,,0,217,217,217,,,,,,,,,,,,,,,,,main,k,k,1,0.8481122000375763,702.038835400017,None,None,0,,,,,,,,,,,,,,001,2022-05-02_11h09.43.321,Main,2022.1.1,60.06088971818421,
negative,blue,1,None,k,,,,,,,,,0,218,218,218,,,,,,,,,,,,,,,,,main,k,k,1,0.9490783999790438,703.8891903000185,None,None,0,,,,,,,,,,,,,,001,2022-05-02_11h09.43.321,Main,2022.1.1,60.06088971818421,
positive,red,2,None,None,,,,,,,,,0,219,219,219,,,,,,,,,,,,,,,,,main,None,None,1,1.5013015000149608,705.839159599971,None,None,1,,,,,,,,,,,,,,001,2022-05-02_11h09.43.321,Main,2022.1.1,60.06088971818421,
positive,yellow,1,None,k,,,,,,,,,0,220,220,220,,,,,,,,,,,,,,,,,main,k,k,1,0.6968752999673598,708.3390574000077,None,None,0,,,,,,,,,,,,,,001,2022-05-02_11h09.43.321,Main,2022.1.1,60.06088971818421,
positive,blue,1,k,None,,,,,,,,,0,221,221,221,,,,,,,,,,,,,,,,,main,None,None,1,1.4988240000093356,710.038906599977,None,None,1,,,,,,,,,,,,,,001,2022-05-02_11h09.43.321,Main,2022.1.1,60.06088971818421,
positive,yellow,2,None,k,,,,,,,,,0,222,222,222,,,,,,,,,,,,,,,,,main,k,k,1,0.7366411000257358,712.5389900999726,None,None,0,,,,,,,,,,,,,,001,2022-05-02_11h09.43.321,Main,2022.1.1,60.06088971818421,
negative,yellow,1,k,None,,,,,,,,,0,223,223,223,,,,,,,,,,,,,,,,,main,None,None,1,1.495967200025916,714.2787863999838,None,None,1,,,,,,,,,,,,,,001,2022-05-02_11h09.43.321,Main,2022.1.1,60.06088971818421,
positive,yellow,2,None,k,,,,,,,,,0,224,224,224,,,,,,,,,,,,,,,,,main,k,k,1,0.7643650000100024,716.7719427999691,None,None,0,,,,,,,,,,,,,,001,2022-05-02_11h09.43.321,Main,2022.1.1,60.06088971818421,
negative,yellow,2,k,None,,,,,,,,,0,225,225,225,,,,,,,,,,,,,,,,,main,None,None,1,1.4986136999796145,718.5389105000068,None,None,1,,,,,,,,,,,,,,001,2022-05-02_11h09.43.321,Main,2022.1.1,60.06088971818421,
negative,blue,2,None,k,,,,,,,,,0,226,226,226,,,,,,,,,,,,,,,,,main,k,k,1,0.8545353999943472,721.038733399997,None,None,0,,,,,,,,,,,,,,001,2022-05-02_11h09.43.321,Main,2022.1.1,60.06088971818421,
positive,red,2,None,None,,,,,,,,,0,227,227,227,,,,,,,,,,,,,,,,,main,None,None,1,1.4936457999865524,722.8886274999822,None,None,1,,,,,,,,,,,,,,001,2022-05-02_11h09.43.321,Main,2022.1.1,60.06088971818421,
positive,blue,2,k,None,,,,,,,,,0,228,228,228,,,,,,,,,,,,,,,,,main,None,None,1,1.501583600009326,725.388640500023,None,None,1,,,,,,,,,,,,,,001,2022-05-02_11h09.43.321,Main,2022.1.1,60.06088971818421,
negative,blue,1,None,k,,,,,,,,,0,229,229,229,,,,,,,,,,,,,,,,,main,k,k,1,0.8132168999873102,727.888623100007,None,None,0,,,,,,,,,,,,,,001,2022-05-02_11h09.43.321,Main,2022.1.1,60.06088971818421,
positive,yellow,1,None,k,,,,,,,,,0,230,230,230,,,,,,,,,,,,,,,,,main,k,k,1,0.8661602000356652,729.7049587999936,None,None,0,,,,,,,,,,,,,,001,2022-05-02_11h09.43.321,Main,2022.1.1,60.06088971818421,
negative,blue,2,None,k,,,,,,,,,0,231,231,231,,,,,,,,,,,,,,,,,main,k,k,1,0.7657785000046715,731.5744176000007,None,None,0,,,,,,,,,,,,,,001,2022-05-02_11h09.43.321,Main,2022.1.1,60.06088971818421,
negative,red,1,None,None,,,,,,,,,0,232,232,232,,,,,,,,,,,,,,,,,main,None,None,1,1.4986004999955185,733.3410496999859,None,None,1,,,,,,,,,,,,,,001,2022-05-02_11h09.43.321,Main,2022.1.1,60.06088971818421,
positive,blue,2,k,None,,,,,,,,,0,233,233,233,,,,,,,,,,,,,,,,,main,None,None,1,1.5003956999862567,735.8385074000107,None,None,1,,,,,,,,,,,,,,001,2022-05-02_11h09.43.321,Main,2022.1.1,60.06088971818421,
negative,yellow,1,k,None,,,,,,,,,0,234,234,234,,,,,,,,,,,,,,,,,main,None,None,1,1.499669199984055,738.3381127999746,None,None,1,,,,,,,,,,,,,,001,2022-05-02_11h09.43.321,Main,2022.1.1,60.06088971818421,
negative,yellow,2,k,None,,,,,,,,,0,235,235,235,,,,,,,,,,,,,,,,,main,None,None,1,1.498988699982874,740.8409162000171,None,None,1,,,,,,,,,,,,,,001,2022-05-02_11h09.43.321,Main,2022.1.1,60.06088971818421,
positive,red,1,None,None,,,,,,,,,0,236,236,236,,,,,,,,,,,,,,,,,main,None,None,1,1.4973542999941856,743.3407827999908,None,None,1,,,,,,,,,,,,,,001,2022-05-02_11h09.43.321,Main,2022.1.1,60.06088971818421,
negative,red,2,None,None,,,,,,,,,0,237,237,237,,,,,,,,,,,,,,,,,main,None,None,1,1.498673800029792,745.8382324000122,None,None,1,,,,,,,,,,,,,,001,2022-05-02_11h09.43.321,Main,2022.1.1,60.06088971818421,
negative,blue,1,None,k,,,,,,,,,0,238,238,238,,,,,,,,,,,,,,,,,main,k,k,1,1.4649065000121482,748.3382140999893,None,None,0,,,,,,,,,,,,,,001,2022-05-02_11h09.43.321,Main,2022.1.1,60.06088971818421,
positive,blue,1,k,None,,,,,,,,,0,239,239,239,,,,,,,,,,,,,,,,,main,None,None,1,1.499264599988237,750.8048340000096,None,None,1,,,,,,,,,,,,,,001,2022-05-02_11h09.43.321,Main,2022.1.1,60.06088971818421,
,,,,,,,,,,,,,,,,,,,,,,,,,,,,,,,,,,,,,,,,,,,,,,,,,,,,,753.3045127000078,None,,,,,,
