distractor,target,set,ans1,ans2,rep_loop4.thisRepN,rep_loop4.thisTrialN,rep_loop4.thisN,rep_loop4.thisIndex,st2_prac_loop.thisRepN,st2_prac_loop.thisTrialN,st2_prac_loop.thisN,st2_prac_loop.thisIndex,st2_main_loop.thisRepN,st2_main_loop.thisTrialN,st2_main_loop.thisN,st2_main_loop.thisIndex,image_4.started,image_4.stopped,sound_2.started,sound_2.stopped,key_resp_3.keys,key_resp_3.rt,image_5.started,image_5.stopped,st_prac_back.started,st_prac_back.stopped,st_prac_text.started,st_prac_text.stopped,st_fix_back.started,st_fix_back.stopped,st_fix_2.started,st_fix_2.stopped,main_prac,st_ans,st_res,st_corr,st_rt,st_back.started,st_back.stopped,st2_resp.keys,st2_resp.corr,st_main_back.started,st_main_back.stopped,st_main_text.started,st_main_text.stopped,mouse_4.x,mouse_4.y,mouse_4.leftButton,mouse_4.midButton,mouse_4.rightButton,mouse_4.started,mouse_4.stopped,text_2.started,text_2.stopped,id*,date,expName,psychopyVersion,frameRate,
negative,yellow,1,k,None,,,,,0,0,0,0,,,,,30.012724800035357,None,37.32806155002909,None,space,66.02540210005827,103.37308609997854,None,105.65583900001366,None,105.65583900001366,None,107.655849999981,None,107.655849999981,None,prac,k,k,1,2.0830572999548167,109.66965240007266,None,None,0,,,,,,,,,,,,,,002,2022-05-04_16h06.50.069,Main,2022.1.1,61.490669095731235,
positive,red,2,None,None,,,,,0,1,1,1,,,,,,,,,,,,,,,,,,,,,prac,None,None,1,1.4978868000907823,113.75304570002481,None,None,1,,,,,,,,,,,,,,002,2022-05-04_16h06.50.069,Main,2022.1.1,61.490669095731235,
negative,blue,2,None,k,,,,,0,2,2,2,,,,,,,,,,,,,,,,,,,,,prac,None,None,1,1.4998052000300959,116.25489209999796,None,None,1,,,,,,,,,,,,,,002,2022-05-04_16h06.50.069,Main,2022.1.1,61.490669095731235,
positive,yellow,1,None,k,,,,,0,3,3,3,,,,,,,,,,,,,,,,,,,,,prac,None,None,1,1.4984083999879658,118.75577150005847,None,None,1,,,,,,,,,,,,,,002,2022-05-04_16h06.50.069,Main,2022.1.1,61.490669095731235,
negative,blue,2,None,k,,,,,0,4,4,4,,,,,,,,,,,,,,,,,,,,,prac,None,None,1,1.4978496000403538,121.2526530000614,None,None,1,,,,,,,,,,,,,,002,2022-05-04_16h06.50.069,Main,2022.1.1,61.490669095731235,
negative,blue,1,None,k,,,,,0,5,5,5,,,,,,,,,,,,,,,,,,,,,prac,None,None,1,1.4990712000289932,123.75367520004511,None,None,1,,,,,,,,,,,,,,002,2022-05-04_16h06.50.069,Main,2022.1.1,61.490669095731235,
negative,yellow,2,k,None,,,,,0,6,6,6,,,,,,,,,,,,,,,,,,,,,prac,k,k,1,1.0021632999414578,126.25278760003857,None,None,0,,,,,,,,,,,,,,002,2022-05-04_16h06.50.069,Main,2022.1.1,61.490669095731235,
negative,red,1,None,None,,,,,0,7,7,7,,,,,,,,,,,,,,,,,,,,,prac,None,None,1,1.4964336999692023,128.25546929996926,None,None,1,,,,,,,,,,,,,,002,2022-05-04_16h06.50.069,Main,2022.1.1,61.490669095731235,
positive,yellow,2,None,k,,,,,0,8,8,8,,,,,,,,,,,,,,,,,,,,,prac,None,None,1,1.5012543000048026,130.7553740000585,None,None,1,,,,,,,,,,,,,,002,2022-05-04_16h06.50.069,Main,2022.1.1,61.490669095731235,
negative,yellow,1,k,None,,,,,0,9,9,9,,,,,,,,,,,,,,,,,,,,,prac,k,k,1,0.9962541999993846,133.25540859997272,None,None,0,,,,,,,,,,,,,,002,2022-05-04_16h06.50.069,Main,2022.1.1,61.490669095731235,
positive,yellow,2,None,k,,,,,0,10,10,10,,,,,,,,,,,,,,,,,,,,,prac,None,None,1,1.4994962000055239,135.25237240002025,None,None,1,,,,,,,,,,,,,,002,2022-05-04_16h06.50.069,Main,2022.1.1,61.490669095731235,
negative,yellow,2,k,None,,,,,0,11,11,11,,,,,,,,,,,,,,,,,,,,,prac,k,k,1,0.8644702000310645,137.75221279996913,None,None,0,,,,,,,,,,,,,,002,2022-05-04_16h06.50.069,Main,2022.1.1,61.490669095731235,
negative,red,2,None,None,,,,,0,12,12,12,,,,,,,,,,,,,,,,,,,,,prac,None,None,1,1.500079600024037,139.61883759999182,None,None,1,,,,,,,,,,,,,,002,2022-05-04_16h06.50.069,Main,2022.1.1,61.490669095731235,
positive,red,1,None,None,,,,,0,13,13,13,,,,,,,,,,,,,,,,,,,,,prac,None,None,1,1.4978625000221655,142.12075550004374,None,None,1,,,,,,,,,,,,,,002,2022-05-04_16h06.50.069,Main,2022.1.1,61.490669095731235,
positive,blue,2,k,None,,,,,0,14,14,14,,,,,,,,,,,,,,,,,,,,,prac,k,k,1,0.6492392000509426,144.61878270003945,None,None,0,,,,,,,,,,,,,,002,2022-05-04_16h06.50.069,Main,2022.1.1,61.490669095731235,
positive,blue,1,k,None,,,,,0,15,15,15,,,,,,,,,,,,,,,,,,,,,prac,k,k,1,0.9818108000326902,146.2687392999651,None,None,0,,,,,,,,,,,,,,002,2022-05-04_16h06.50.069,Main,2022.1.1,61.490669095731235,
negative,blue,1,None,k,,,,,0,16,16,16,,,,,,,,,,,,,,,,,,,,,prac,None,None,1,1.5020559000549838,148.2517508000601,None,None,1,,,,,,,,,,,,,,002,2022-05-04_16h06.50.069,Main,2022.1.1,61.490669095731235,
positive,blue,2,k,None,,,,,0,17,17,17,,,,,,,,,,,,,,,,,,,,,prac,k,k,1,1.2130231999326497,150.75503970007412,None,None,0,,,,,,,,,,,,,,002,2022-05-04_16h06.50.069,Main,2022.1.1,61.490669095731235,
positive,blue,1,k,None,,,,,0,18,18,18,,,,,,,,,,,,,,,,,,,,,prac,k,k,1,0.8656176999211311,152.96868569997605,None,None,0,,,,,,,,,,,,,,002,2022-05-04_16h06.50.069,Main,2022.1.1,61.490669095731235,
positive,yellow,1,None,k,,,,,0,19,19,19,,,,,,,,,,,,,,,,,,,,,prac,None,None,1,1.49929589999374,154.83832700003404,None,None,1,,,,,,,,,,,,,,002,2022-05-04_16h06.50.069,Main,2022.1.1,61.490669095731235,
negative,yellow,1,k,None,,,,,1,0,20,0,,,,,,,,,,,,,,,,,,,,,prac,k,k,1,1.0818458999274299,157.33488019998185,None,None,0,,,,,,,,,,,,,,002,2022-05-04_16h06.50.069,Main,2022.1.1,61.490669095731235,
positive,red,2,None,None,,,,,1,1,21,1,,,,,,,,,,,,,,,,,,,,,prac,None,None,1,1.4985316999955103,159.4185470000375,None,None,1,,,,,,,,,,,,,,002,2022-05-04_16h06.50.069,Main,2022.1.1,61.490669095731235,
negative,blue,2,None,k,,,,,1,2,22,2,,,,,,,,,,,,,,,,,,,,,prac,None,None,1,1.4990552000235766,161.9214567000745,None,None,1,,,,,,,,,,,,,,002,2022-05-04_16h06.50.069,Main,2022.1.1,61.490669095731235,
positive,yellow,1,None,k,,,,,1,3,23,3,,,,,,,,,,,,,,,,,,,,,prac,None,None,1,1.5002297000028193,164.41842790006194,None,None,1,,,,,,,,,,,,,,002,2022-05-04_16h06.50.069,Main,2022.1.1,61.490669095731235,
negative,blue,2,None,k,,,,,1,4,24,4,,,,,,,,,,,,,,,,,,,,,prac,None,None,1,1.4973254000069574,166.91800020006485,None,None,1,,,,,,,,,,,,,,002,2022-05-04_16h06.50.069,Main,2022.1.1,61.490669095731235,
negative,blue,1,None,k,,,,,1,5,25,5,,,,,,,,,,,,,,,,,,,,,prac,None,None,1,1.4990259000333026,169.42129410000052,None,None,1,,,,,,,,,,,,,,002,2022-05-04_16h06.50.069,Main,2022.1.1,61.490669095731235,
negative,yellow,2,k,None,,,,,1,6,26,6,,,,,,,,,,,,,,,,,,,,,prac,k,k,1,0.8491943000117317,171.91826649999712,None,None,0,,,,,,,,,,,,,,002,2022-05-04_16h06.50.069,Main,2022.1.1,61.490669095731235,
negative,red,1,None,None,,,,,1,7,27,7,,,,,,,,,,,,,,,,,,,,,prac,None,None,1,1.4984412000048906,173.76820719998796,None,None,1,,,,,,,,,,,,,,002,2022-05-04_16h06.50.069,Main,2022.1.1,61.490669095731235,
positive,yellow,2,None,k,,,,,1,8,28,8,,,,,,,,,,,,,,,,,,,,,prac,None,None,1,1.4991282999981195,176.268062200048,None,None,1,,,,,,,,,,,,,,002,2022-05-04_16h06.50.069,Main,2022.1.1,61.490669095731235,
negative,yellow,1,k,None,,,,,1,9,29,9,,,,,,,,,,,,,,,,,,,,,prac,k,k,1,0.7993141999468207,178.7680464000441,None,None,0,,,,,,,,,,,,,,002,2022-05-04_16h06.50.069,Main,2022.1.1,61.490669095731235,
positive,yellow,2,None,k,,,,,1,10,30,10,,,,,,,,,,,,,,,,,,,,,prac,None,None,1,1.4992278000572696,180.56801739998627,None,None,1,,,,,,,,,,,,,,002,2022-05-04_16h06.50.069,Main,2022.1.1,61.490669095731235,
negative,yellow,2,k,None,,,,,1,11,31,11,,,,,,,,,,,,,,,,,,,,,prac,k,k,1,0.7995440000668168,183.06766760000028,None,None,0,,,,,,,,,,,,,,002,2022-05-04_16h06.50.069,Main,2022.1.1,61.490669095731235,
negative,red,2,None,None,,,,,1,12,32,12,,,,,,,,,,,,,,,,,,,,,prac,None,None,1,1.497327100019902,184.86763800005428,None,None,1,,,,,,,,,,,,,,002,2022-05-04_16h06.50.069,Main,2022.1.1,61.490669095731235,
positive,red,1,None,None,,,,,1,13,33,13,,,,,,,,,,,,,,,,,,,,,prac,None,None,1,1.5018908999627456,187.37094749999233,None,None,1,,,,,,,,,,,,,,002,2022-05-04_16h06.50.069,Main,2022.1.1,61.490669095731235,
positive,blue,2,k,None,,,,,1,14,34,14,,,,,,,,,,,,,,,,,,,,,prac,k,k,1,0.7463839000556618,189.87089979997836,None,None,0,,,,,,,,,,,,,,002,2022-05-04_16h06.50.069,Main,2022.1.1,61.490669095731235,
positive,blue,1,k,None,,,,,1,15,35,15,,,,,,,,,,,,,,,,,,,,,prac,k,k,1,0.8171824000310153,191.6178254999686,None,None,0,,,,,,,,,,,,,,002,2022-05-04_16h06.50.069,Main,2022.1.1,61.490669095731235,
negative,blue,1,None,k,,,,,1,16,36,16,,,,,,,,,,,,,,,,,,,,,prac,None,None,1,1.5004800000460818,193.43412510002963,None,None,1,,,,,,,,,,,,,,002,2022-05-04_16h06.50.069,Main,2022.1.1,61.490669095731235,
positive,blue,2,k,None,,,,,1,17,37,17,,,,,,,,,,,,,,,,,,,,,prac,k,k,1,0.9961085000541061,195.93738959997427,None,None,0,,,,,,,,,,,,,,002,2022-05-04_16h06.50.069,Main,2022.1.1,61.490669095731235,
positive,blue,1,k,None,,,,,1,18,38,18,,,,,,,,,,,,,,,,,,,,,prac,k,k,1,0.8820636000018567,197.93733370001428,None,None,0,,,,,,,,,,,,,,002,2022-05-04_16h06.50.069,Main,2022.1.1,61.490669095731235,
positive,yellow,1,None,k,,,,,1,19,39,19,,,,,,,,,,,,,,,,,,,,,prac,None,None,1,1.4994972000131384,199.81766850000713,None,None,1,,,,,,,,,,,,,,002,2022-05-04_16h06.50.069,Main,2022.1.1,61.490669095731235,
,,,,,,,,,,,,,,,,,,,,,,,,,,,,,,,,,,,,,,,,,,202.31725299998652,None,202.31725299998652,None,-0.026851851,-0.07037037,0,0,0,0.013346750056371093,None,,,002,2022-05-04_16h06.50.069,Main,2022.1.1,61.490669095731235,
negative,yellow,2,k,None,,,,,,,,,0,0,0,0,,,,,,,,,,,,,204.03402959997766,None,204.03402959997766,None,main,k,k,1,0.9674952999921516,206.07612910005264,None,None,0,,,,,,,,,,,,,,002,2022-05-04_16h06.50.069,Main,2022.1.1,61.490669095731235,
positive,red,1,None,None,,,,,,,,,0,1,1,1,,,,,,,,,,,,,,,,,main,None,None,1,1.4983834000304341,208.05380670004524,None,None,1,,,,,,,,,,,,,,002,2022-05-04_16h06.50.069,Main,2022.1.1,61.490669095731235,
positive,blue,2,k,None,,,,,,,,,0,2,2,2,,,,,,,,,,,,,,,,,main,k,k,1,0.6492872000671923,210.5582627999829,None,None,0,,,,,,,,,,,,,,002,2022-05-04_16h06.50.069,Main,2022.1.1,61.490669095731235,
positive,blue,1,k,None,,,,,,,,,0,3,3,3,,,,,,,,,,,,,,,,,main,k,k,1,0.6826852000085637,212.20038829999976,None,None,0,,,,,,,,,,,,,,002,2022-05-04_16h06.50.069,Main,2022.1.1,61.490669095731235,
negative,yellow,2,k,None,,,,,,,,,0,4,4,4,,,,,,,,,,,,,,,,,main,k,k,1,0.8366090999916196,213.8869943000609,None,None,0,,,,,,,,,,,,,,002,2022-05-04_16h06.50.069,Main,2022.1.1,61.490669095731235,
positive,yellow,2,None,k,,,,,,,,,0,5,5,5,,,,,,,,,,,,,,,,,main,None,None,1,1.4957105000503361,215.72030419996008,None,None,1,,,,,,,,,,,,,,002,2022-05-04_16h06.50.069,Main,2022.1.1,61.490669095731235,
negative,blue,2,None,k,,,,,,,,,0,6,6,6,,,,,,,,,,,,,,,,,main,None,None,1,1.499365899944678,218.2172719000373,None,None,1,,,,,,,,,,,,,,002,2022-05-04_16h06.50.069,Main,2022.1.1,61.490669095731235,
positive,red,2,None,None,,,,,,,,,0,7,7,7,,,,,,,,,,,,,,,,,main,None,None,1,1.5014712000265718,220.71687290002592,None,None,1,,,,,,,,,,,,,,002,2022-05-04_16h06.50.069,Main,2022.1.1,61.490669095731235,
positive,yellow,1,None,k,,,,,,,,,0,8,8,8,,,,,,,,,,,,,,,,,main,None,None,1,1.4955715000396594,223.22020780004095,None,None,1,,,,,,,,,,,,,,002,2022-05-04_16h06.50.069,Main,2022.1.1,61.490669095731235,
negative,red,1,None,None,,,,,,,,,0,9,9,9,,,,,,,,,,,,,,,,,main,None,None,1,1.5030343999387696,225.7171304000076,None,None,1,,,,,,,,,,,,,,002,2022-05-04_16h06.50.069,Main,2022.1.1,61.490669095731235,
positive,yellow,1,None,k,,,,,,,,,0,10,10,10,,,,,,,,,,,,,,,,,main,None,None,1,1.4947558999992907,228.2170664999867,None,None,1,,,,,,,,,,,,,,002,2022-05-04_16h06.50.069,Main,2022.1.1,61.490669095731235,
negative,yellow,1,k,None,,,,,,,,,0,11,11,11,,,,,,,,,,,,,,,,,main,k,k,1,0.8151148000033572,230.71690620004665,None,None,0,,,,,,,,,,,,,,002,2022-05-04_16h06.50.069,Main,2022.1.1,61.490669095731235,
negative,yellow,1,k,None,,,,,,,,,0,12,12,12,,,,,,,,,,,,,,,,,main,k,k,1,0.8967888000188395,232.53357410000172,None,None,0,,,,,,,,,,,,,,002,2022-05-04_16h06.50.069,Main,2022.1.1,61.490669095731235,
negative,red,2,None,None,,,,,,,,,0,13,13,13,,,,,,,,,,,,,,,,,main,None,None,1,1.503494100063108,234.4257802000502,None,None,1,,,,,,,,,,,,,,002,2022-05-04_16h06.50.069,Main,2022.1.1,61.490669095731235,
positive,yellow,2,None,k,,,,,,,,,0,14,14,14,,,,,,,,,,,,,,,,,main,None,None,1,1.4970359000144526,236.93334680004045,None,None,1,,,,,,,,,,,,,,002,2022-05-04_16h06.50.069,Main,2022.1.1,61.490669095731235,
positive,blue,1,k,None,,,,,,,,,0,15,15,15,,,,,,,,,,,,,,,,,main,k,k,1,0.6471138000488281,239.43325540004298,None,None,0,,,,,,,,,,,,,,002,2022-05-04_16h06.50.069,Main,2022.1.1,61.490669095731235,
negative,blue,1,None,k,,,,,,,,,0,16,16,16,,,,,,,,,,,,,,,,,main,None,None,1,1.501738200080581,241.0865085000405,None,None,1,,,,,,,,,,,,,,002,2022-05-04_16h06.50.069,Main,2022.1.1,61.490669095731235,
positive,blue,2,k,None,,,,,,,,,0,17,17,17,,,,,,,,,,,,,,,,,main,k,k,1,0.6797990000341088,243.58632110001054,None,None,0,,,,,,,,,,,,,,002,2022-05-04_16h06.50.069,Main,2022.1.1,61.490669095731235,
negative,blue,2,None,k,,,,,,,,,0,18,18,18,,,,,,,,,,,,,,,,,main,None,None,1,1.4994944999925792,245.26670400006697,None,None,1,,,,,,,,,,,,,,002,2022-05-04_16h06.50.069,Main,2022.1.1,61.490669095731235,
negative,blue,1,None,k,,,,,,,,,0,19,19,19,,,,,,,,,,,,,,,,,main,None,None,1,1.4978053999366239,247.76632190006785,None,None,1,,,,,,,,,,,,,,002,2022-05-04_16h06.50.069,Main,2022.1.1,61.490669095731235,
negative,blue,1,None,k,,,,,,,,,0,20,20,20,,,,,,,,,,,,,,,,,main,None,None,1,1.49898979999125,250.26660410000477,None,None,1,,,,,,,,,,,,,,002,2022-05-04_16h06.50.069,Main,2022.1.1,61.490669095731235,
negative,blue,2,None,k,,,,,,,,,0,21,21,21,,,,,,,,,,,,,,,,,main,None,None,1,1.4994867000496015,252.76951070001815,None,None,1,,,,,,,,,,,,,,002,2022-05-04_16h06.50.069,Main,2022.1.1,61.490669095731235,
negative,red,1,None,None,,,,,,,,,0,22,22,22,,,,,,,,,,,,,,,,,main,None,None,1,1.5022390000522137,255.2661086000735,None,None,1,,,,,,,,,,,,,,002,2022-05-04_16h06.50.069,Main,2022.1.1,61.490669095731235,
positive,red,2,None,None,,,,,,,,,0,23,23,23,,,,,,,,,,,,,,,,,main,None,None,1,1.4949741000309587,257.76643239997793,None,None,1,,,,,,,,,,,,,,002,2022-05-04_16h06.50.069,Main,2022.1.1,61.490669095731235,
negative,red,2,None,None,,,,,,,,,0,24,24,24,,,,,,,,,,,,,,,,,main,None,None,1,1.501503900042735,260.2663922000211,None,None,1,,,,,,,,,,,,,,002,2022-05-04_16h06.50.069,Main,2022.1.1,61.490669095731235,
positive,blue,2,k,None,,,,,,,,,0,25,25,25,,,,,,,,,,,,,,,,,main,k,k,1,0.8796771999914199,262.7693294000346,None,None,0,,,,,,,,,,,,,,002,2022-05-04_16h06.50.069,Main,2022.1.1,61.490669095731235,
negative,yellow,1,k,None,,,,,,,,,0,26,26,26,,,,,,,,,,,,,,,,,main,k,k,1,0.8823380999965593,264.6495778000681,None,None,0,,,,,,,,,,,,,,002,2022-05-04_16h06.50.069,Main,2022.1.1,61.490669095731235,
positive,blue,2,k,None,,,,,,,,,0,27,27,27,,,,,,,,,,,,,,,,,main,k,k,1,0.7990909999934956,266.5329245000612,None,None,0,,,,,,,,,,,,,,002,2022-05-04_16h06.50.069,Main,2022.1.1,61.490669095731235,
negative,blue,2,None,k,,,,,,,,,0,28,28,28,,,,,,,,,,,,,,,,,main,None,None,1,1.5027300999499857,268.33287020004354,None,None,1,,,,,,,,,,,,,,002,2022-05-04_16h06.50.069,Main,2022.1.1,61.490669095731235,
positive,red,1,None,None,,,,,,,,,0,29,29,29,,,,,,,,,,,,,,,,,main,None,None,1,1.4956321000354365,270.832788300002,None,None,1,,,,,,,,,,,,,,002,2022-05-04_16h06.50.069,Main,2022.1.1,61.490669095731235,
positive,blue,1,k,None,,,,,,,,,0,30,30,30,,,,,,,,,,,,,,,,,main,k,k,1,0.8484416999854147,273.3324656999903,None,None,0,,,,,,,,,,,,,,002,2022-05-04_16h06.50.069,Main,2022.1.1,61.490669095731235,
positive,yellow,1,None,k,,,,,,,,,0,31,31,31,,,,,,,,,,,,,,,,,main,None,None,1,1.5015693999594077,275.1857448000228,None,None,1,,,,,,,,,,,,,,002,2022-05-04_16h06.50.069,Main,2022.1.1,61.490669095731235,
negative,yellow,2,k,None,,,,,,,,,0,32,32,32,,,,,,,,,,,,,,,,,main,k,k,1,0.8462330000475049,277.6826980999904,None,None,0,,,,,,,,,,,,,,002,2022-05-04_16h06.50.069,Main,2022.1.1,61.490669095731235,
negative,blue,1,None,k,,,,,,,,,0,33,33,33,,,,,,,,,,,,,,,,,main,None,None,1,1.4993298000190407,279.53563499997836,None,None,1,,,,,,,,,,,,,,002,2022-05-04_16h06.50.069,Main,2022.1.1,61.490669095731235,
positive,blue,1,k,None,,,,,,,,,0,34,34,34,,,,,,,,,,,,,,,,,main,k,k,1,0.8151671999366954,282.0322845999617,None,None,0,,,,,,,,,,,,,,002,2022-05-04_16h06.50.069,Main,2022.1.1,61.490669095731235,
negative,yellow,1,k,None,,,,,,,,,0,35,35,35,,,,,,,,,,,,,,,,,main,k,k,1,0.8154116999357939,283.8521371000679,None,None,0,,,,,,,,,,,,,,002,2022-05-04_16h06.50.069,Main,2022.1.1,61.490669095731235,
positive,yellow,2,None,k,,,,,,,,,0,36,36,36,,,,,,,,,,,,,,,,,main,None,None,1,1.501990900025703,285.66585119999945,None,None,1,,,,,,,,,,,,,,002,2022-05-04_16h06.50.069,Main,2022.1.1,61.490669095731235,
positive,yellow,2,None,k,,,,,,,,,0,37,37,37,,,,,,,,,,,,,,,,,main,None,None,1,1.496652500005439,288.1687365999678,None,None,1,,,,,,,,,,,,,,002,2022-05-04_16h06.50.069,Main,2022.1.1,61.490669095731235,
negative,yellow,2,k,None,,,,,,,,,0,38,38,38,,,,,,,,,,,,,,,,,main,k,k,1,0.7647165000671521,290.66570690006483,None,None,0,,,,,,,,,,,,,,002,2022-05-04_16h06.50.069,Main,2022.1.1,61.490669095731235,
positive,yellow,1,None,k,,,,,,,,,0,39,39,39,,,,,,,,,,,,,,,,,main,None,None,1,1.4979984000092372,292.4323048000224,None,None,1,,,,,,,,,,,,,,002,2022-05-04_16h06.50.069,Main,2022.1.1,61.490669095731235,
negative,yellow,2,k,None,,,,,,,,,0,40,40,40,,,,,,,,,,,,,,,,,main,k,k,1,0.898132500005886,294.9323150999844,None,None,0,,,,,,,,,,,,,,002,2022-05-04_16h06.50.069,Main,2022.1.1,61.490669095731235,
positive,blue,2,k,None,,,,,,,,,0,41,41,41,,,,,,,,,,,,,,,,,main,k,k,1,0.8507887999294326,296.83224380004685,None,None,0,,,,,,,,,,,,,,002,2022-05-04_16h06.50.069,Main,2022.1.1,61.490669095731235,
positive,blue,2,k,None,,,,,,,,,0,42,42,42,,,,,,,,,,,,,,,,,main,k,k,1,0.6975969000486657,298.68189330003224,None,None,0,,,,,,,,,,,,,,002,2022-05-04_16h06.50.069,Main,2022.1.1,61.490669095731235,
negative,blue,2,None,k,,,,,,,,,0,43,43,43,,,,,,,,,,,,,,,,,main,None,None,1,1.497804900049232,300.3818728000624,None,None,1,,,,,,,,,,,,,,002,2022-05-04_16h06.50.069,Main,2022.1.1,61.490669095731235,
negative,red,1,None,None,,,,,,,,,0,44,44,44,,,,,,,,,,,,,,,,,main,None,None,1,1.5020329999970272,302.8821587000275,None,None,1,,,,,,,,,,,,,,002,2022-05-04_16h06.50.069,Main,2022.1.1,61.490669095731235,
negative,yellow,1,k,None,,,,,,,,,0,45,45,45,,,,,,,,,,,,,,,,,main,k,k,1,0.796140699996613,305.38508549996186,None,None,0,,,,,,,,,,,,,,002,2022-05-04_16h06.50.069,Main,2022.1.1,61.490669095731235,
negative,yellow,1,k,None,,,,,,,,,0,46,46,46,,,,,,,,,,,,,,,,,main,k,k,1,0.7824291000142694,307.18250910006464,None,None,0,,,,,,,,,,,,,,002,2022-05-04_16h06.50.069,Main,2022.1.1,61.490669095731235,
positive,red,1,None,None,,,,,,,,,0,47,47,47,,,,,,,,,,,,,,,,,main,None,None,1,1.4988492999691516,308.96524340007454,None,None,1,,,,,,,,,,,,,,002,2022-05-04_16h06.50.069,Main,2022.1.1,61.490669095731235,
positive,yellow,1,None,k,,,,,,,,,0,48,48,48,,,,,,,,,,,,,,,,,main,None,None,1,1.4990226000081748,311.4652953000041,None,None,1,,,,,,,,,,,,,,002,2022-05-04_16h06.50.069,Main,2022.1.1,61.490669095731235,
negative,blue,1,None,k,,,,,,,,,0,49,49,49,,,,,,,,,,,,,,,,,main,None,None,1,1.499665700015612,313.9651970000705,None,None,1,,,,,,,,,,,,,,002,2022-05-04_16h06.50.069,Main,2022.1.1,61.490669095731235,
positive,yellow,2,None,k,,,,,,,,,0,50,50,50,,,,,,,,,,,,,,,,,main,None,None,1,1.5011534999357536,316.4648620999651,None,None,1,,,,,,,,,,,,,,002,2022-05-04_16h06.50.069,Main,2022.1.1,61.490669095731235,
negative,blue,1,None,k,,,,,,,,,0,51,51,51,,,,,,,,,,,,,,,,,main,None,None,1,1.4960648999549448,318.9681339999661,None,None,1,,,,,,,,,,,,,,002,2022-05-04_16h06.50.069,Main,2022.1.1,61.490669095731235,
positive,red,2,None,None,,,,,,,,,0,52,52,52,,,,,,,,,,,,,,,,,main,None,None,1,1.4996678000316024,321.4680854000617,None,None,1,,,,,,,,,,,,,,002,2022-05-04_16h06.50.069,Main,2022.1.1,61.490669095731235,
positive,yellow,2,None,k,,,,,,,,,0,53,53,53,,,,,,,,,,,,,,,,,main,None,None,1,1.4981362000107765,323.9646619000705,None,None,1,,,,,,,,,,,,,,002,2022-05-04_16h06.50.069,Main,2022.1.1,61.490669095731235,
negative,red,2,None,None,,,,,,,,,0,54,54,54,,,,,,,,,,,,,,,,,main,None,None,1,1.4990618000738323,326.46494790003635,None,None,1,,,,,,,,,,,,,,002,2022-05-04_16h06.50.069,Main,2022.1.1,61.490669095731235,
positive,yellow,1,None,k,,,,,,,,,0,55,55,55,,,,,,,,,,,,,,,,,main,None,None,1,1.499021099996753,328.96493450005073,None,None,1,,,,,,,,,,,,,,002,2022-05-04_16h06.50.069,Main,2022.1.1,61.490669095731235,
negative,blue,2,None,k,,,,,,,,,0,56,56,56,,,,,,,,,,,,,,,,,main,None,None,1,1.4986577000236139,331.46488400001545,None,None,1,,,,,,,,,,,,,,002,2022-05-04_16h06.50.069,Main,2022.1.1,61.490669095731235,
positive,blue,1,k,None,,,,,,,,,0,57,57,57,,,,,,,,,,,,,,,,,main,k,k,1,0.8828963000560179,333.9644547000062,None,None,0,,,,,,,,,,,,,,002,2022-05-04_16h06.50.069,Main,2022.1.1,61.490669095731235,
positive,blue,1,k,None,,,,,,,,,0,58,58,58,,,,,,,,,,,,,,,,,main,k,k,1,0.7325899000279605,335.8481230000034,None,None,0,,,,,,,,,,,,,,002,2022-05-04_16h06.50.069,Main,2022.1.1,61.490669095731235,
negative,yellow,2,k,None,,,,,,,,,0,59,59,59,,,,,,,,,,,,,,,,,main,k,k,1,0.7520622999873012,337.5814228999661,None,None,0,,,,,,,,,,,,,,002,2022-05-04_16h06.50.069,Main,2022.1.1,61.490669095731235,
positive,red,2,None,None,,,,,,,,,0,60,60,60,,,,,,,,,,,,,,,,,main,None,None,1,1.4963527000509202,339.3313752000686,None,None,1,,,,,,,,,,,,,,002,2022-05-04_16h06.50.069,Main,2022.1.1,61.490669095731235,
negative,yellow,1,k,None,,,,,,,,,0,61,61,61,,,,,,,,,,,,,,,,,main,k,k,1,0.7671834999928251,341.83095610002056,None,None,0,,,,,,,,,,,,,,002,2022-05-04_16h06.50.069,Main,2022.1.1,61.490669095731235,
negative,red,1,None,None,,,,,,,,,0,62,62,62,,,,,,,,,,,,,,,,,main,None,None,1,1.4973733000224456,343.5978705000598,None,None,1,,,,,,,,,,,,,,002,2022-05-04_16h06.50.069,Main,2022.1.1,61.490669095731235,
negative,blue,1,None,k,,,,,,,,,0,63,63,63,,,,,,,,,,,,,,,,,main,None,None,1,1.501769099966623,346.0979134000372,None,None,1,,,,,,,,,,,,,,002,2022-05-04_16h06.50.069,Main,2022.1.1,61.490669095731235,
positive,blue,2,k,None,,,,,,,,,0,64,64,64,,,,,,,,,,,,,,,,,main,k,k,1,0.7371059999568388,348.6008073000703,None,None,0,,,,,,,,,,,,,,002,2022-05-04_16h06.50.069,Main,2022.1.1,61.490669095731235,
negative,yellow,2,k,None,,,,,,,,,0,65,65,65,,,,,,,,,,,,,,,,,main,k,k,1,0.8909183000214398,350.34439720003866,None,None,0,,,,,,,,,,,,,,002,2022-05-04_16h06.50.069,Main,2022.1.1,61.490669095731235,
positive,yellow,2,None,k,,,,,,,,,0,66,66,66,,,,,,,,,,,,,,,,,main,None,None,1,1.4989415999734774,352.23099820001516,None,None,1,,,,,,,,,,,,,,002,2022-05-04_16h06.50.069,Main,2022.1.1,61.490669095731235,
positive,yellow,2,None,k,,,,,,,,,0,67,67,67,,,,,,,,,,,,,,,,,main,None,None,1,1.5017542000859976,354.731257300009,None,None,1,,,,,,,,,,,,,,002,2022-05-04_16h06.50.069,Main,2022.1.1,61.490669095731235,
positive,red,1,None,None,,,,,,,,,0,68,68,68,,,,,,,,,,,,,,,,,main,None,None,1,1.4966557999141514,357.2313286999706,None,None,1,,,,,,,,,,,,,,002,2022-05-04_16h06.50.069,Main,2022.1.1,61.490669095731235,
positive,yellow,1,None,k,,,,,,,,,0,69,69,69,,,,,,,,,,,,,,,,,main,None,None,1,1.4981580999447033,359.7305832999991,None,None,1,,,,,,,,,,,,,,002,2022-05-04_16h06.50.069,Main,2022.1.1,61.490669095731235,
negative,yellow,2,k,None,,,,,,,,,0,70,70,70,,,,,,,,,,,,,,,,,main,k,k,1,0.7494775999803096,362.23388089996297,None,None,0,,,,,,,,,,,,,,002,2022-05-04_16h06.50.069,Main,2022.1.1,61.490669095731235,
positive,yellow,1,None,k,,,,,,,,,0,71,71,71,,,,,,,,,,,,,,,,,main,None,None,1,1.4979793999809772,363.9808591000037,None,None,1,,,,,,,,,,,,,,002,2022-05-04_16h06.50.069,Main,2022.1.1,61.490669095731235,
negative,blue,1,None,k,,,,,,,,,0,72,72,72,,,,,,,,,,,,,,,,,main,None,None,1,1.49878699996043,366.48360000003595,None,None,1,,,,,,,,,,,,,,002,2022-05-04_16h06.50.069,Main,2022.1.1,61.490669095731235,
negative,red,2,None,None,,,,,,,,,0,73,73,73,,,,,,,,,,,,,,,,,main,None,None,1,1.4989572999766096,368.98063210002147,None,None,1,,,,,,,,,,,,,,002,2022-05-04_16h06.50.069,Main,2022.1.1,61.490669095731235,
positive,blue,2,k,None,,,,,,,,,0,74,74,74,,,,,,,,,,,,,,,,,main,k,k,1,0.882660000002943,371.4806122999871,None,None,0,,,,,,,,,,,,,,002,2022-05-04_16h06.50.069,Main,2022.1.1,61.490669095731235,
negative,blue,2,None,k,,,,,,,,,0,75,75,75,,,,,,,,,,,,,,,,,main,None,None,1,1.4984802999533713,373.3669546999736,None,None,1,,,,,,,,,,,,,,002,2022-05-04_16h06.50.069,Main,2022.1.1,61.490669095731235,
negative,blue,2,None,k,,,,,,,,,0,76,76,76,,,,,,,,,,,,,,,,,main,None,None,1,1.4996414000634104,375.8639127999777,None,None,1,,,,,,,,,,,,,,002,2022-05-04_16h06.50.069,Main,2022.1.1,61.490669095731235,
negative,yellow,1,k,None,,,,,,,,,0,77,77,77,,,,,,,,,,,,,,,,,main,k,k,1,0.7650694999611005,378.36356029997114,None,None,0,,,,,,,,,,,,,,002,2022-05-04_16h06.50.069,Main,2022.1.1,61.490669095731235,
positive,blue,1,k,None,,,,,,,,,0,78,78,78,,,,,,,,,,,,,,,,,main,k,k,1,0.7821074000094086,380.133516700007,None,None,0,,,,,,,,,,,,,,002,2022-05-04_16h06.50.069,Main,2022.1.1,61.490669095731235,
positive,blue,1,k,None,,,,,,,,,0,79,79,79,,,,,,,,,,,,,,,,,main,k,k,1,0.7657307999907061,381.9138033000054,None,None,0,,,,,,,,,,,,,,002,2022-05-04_16h06.50.069,Main,2022.1.1,61.490669095731235,
positive,red,2,None,None,,,,,,,,,0,80,80,80,,,,,,,,,,,,,,,,,main,None,None,1,1.4991328000323847,383.6804252000293,None,None,1,,,,,,,,,,,,,,002,2022-05-04_16h06.50.069,Main,2022.1.1,61.490669095731235,
positive,yellow,2,None,k,,,,,,,,,0,81,81,81,,,,,,,,,,,,,,,,,main,None,None,1,1.4987110000802204,386.1800575000234,None,None,1,,,,,,,,,,,,,,002,2022-05-04_16h06.50.069,Main,2022.1.1,61.490669095731235,
positive,blue,1,k,None,,,,,,,,,0,82,82,82,,,,,,,,,,,,,,,,,main,k,k,1,0.7818093000678346,388.6800053999759,None,None,0,,,,,,,,,,,,,,002,2022-05-04_16h06.50.069,Main,2022.1.1,61.490669095731235,
negative,yellow,2,k,None,,,,,,,,,0,83,83,83,,,,,,,,,,,,,,,,,main,k,k,1,0.8353877000045031,390.466584000038,None,None,0,,,,,,,,,,,,,,002,2022-05-04_16h06.50.069,Main,2022.1.1,61.490669095731235,
positive,blue,2,k,None,,,,,,,,,0,84,84,84,,,,,,,,,,,,,,,,,main,k,k,1,0.6460296999430284,392.299878800055,None,None,0,,,,,,,,,,,,,,002,2022-05-04_16h06.50.069,Main,2022.1.1,61.490669095731235,
positive,yellow,1,None,k,,,,,,,,,0,85,85,85,,,,,,,,,,,,,,,,,main,None,None,1,1.4993054000660777,393.9469007999869,None,None,1,,,,,,,,,,,,,,002,2022-05-04_16h06.50.069,Main,2022.1.1,61.490669095731235,
positive,blue,2,k,None,,,,,,,,,0,86,86,86,,,,,,,,,,,,,,,,,main,k,k,1,0.8145336000015959,396.44671130005736,None,None,0,,,,,,,,,,,,,,002,2022-05-04_16h06.50.069,Main,2022.1.1,61.490669095731235,
positive,blue,1,k,None,,,,,,,,,0,87,87,87,,,,,,,,,,,,,,,,,main,k,k,1,1.3992467999923974,398.26337090006564,None,None,0,,,,,,,,,,,,,,002,2022-05-04_16h06.50.069,Main,2022.1.1,61.490669095731235,
negative,yellow,2,k,None,,,,,,,,,0,88,88,88,,,,,,,,,,,,,,,,,main,k,k,1,0.9486146999988705,400.6633287000004,None,None,0,,,,,,,,,,,,,,002,2022-05-04_16h06.50.069,Main,2022.1.1,61.490669095731235,
negative,blue,2,None,k,,,,,,,,,0,89,89,89,,,,,,,,,,,,,,,,,main,None,None,1,1.4991782000288367,402.6129755000584,None,None,1,,,,,,,,,,,,,,002,2022-05-04_16h06.50.069,Main,2022.1.1,61.490669095731235,
positive,yellow,2,None,k,,,,,,,,,0,90,90,90,,,,,,,,,,,,,,,,,main,None,None,1,1.5021994999842718,405.11620970000513,None,None,1,,,,,,,,,,,,,,002,2022-05-04_16h06.50.069,Main,2022.1.1,61.490669095731235,
negative,yellow,1,k,None,,,,,,,,,0,91,91,91,,,,,,,,,,,,,,,,,main,k,k,1,0.7295660999370739,407.6162371999817,None,None,0,,,,,,,,,,,,,,002,2022-05-04_16h06.50.069,Main,2022.1.1,61.490669095731235,
negative,red,2,None,None,,,,,,,,,0,92,92,92,,,,,,,,,,,,,,,,,main,None,None,1,1.499900700058788,409.3465675000334,None,None,1,,,,,,,,,,,,,,002,2022-05-04_16h06.50.069,Main,2022.1.1,61.490669095731235,
negative,blue,2,None,k,,,,,,,,,0,93,93,93,,,,,,,,,,,,,,,,,main,None,None,1,1.5003412999212742,411.8461296999594,None,None,1,,,,,,,,,,,,,,002,2022-05-04_16h06.50.069,Main,2022.1.1,61.490669095731235,
negative,blue,1,None,k,,,,,,,,,0,94,94,94,,,,,,,,,,,,,,,,,main,None,None,1,1.4959344000089914,414.34645670000464,None,None,1,,,,,,,,,,,,,,002,2022-05-04_16h06.50.069,Main,2022.1.1,61.490669095731235,
negative,blue,1,None,k,,,,,,,,,0,95,95,95,,,,,,,,,,,,,,,,,main,None,None,1,1.5001456000609323,416.8463773999829,None,None,1,,,,,,,,,,,,,,002,2022-05-04_16h06.50.069,Main,2022.1.1,61.490669095731235,
negative,red,1,None,None,,,,,,,,,0,96,96,96,,,,,,,,,,,,,,,,,main,None,None,1,1.4981710000429302,419.3463446999667,None,None,1,,,,,,,,,,,,,,002,2022-05-04_16h06.50.069,Main,2022.1.1,61.490669095731235,
positive,yellow,1,None,k,,,,,,,,,0,97,97,97,,,,,,,,,,,,,,,,,main,None,None,1,1.501014900044538,421.8459583000513,None,None,1,,,,,,,,,,,,,,002,2022-05-04_16h06.50.069,Main,2022.1.1,61.490669095731235,
negative,yellow,1,k,None,,,,,,,,,0,98,98,98,,,,,,,,,,,,,,,,,main,k,k,1,0.6825763999950141,424.3492107000202,None,None,0,,,,,,,,,,,,,,002,2022-05-04_16h06.50.069,Main,2022.1.1,61.490669095731235,
positive,red,1,None,None,,,,,,,,,0,99,99,99,,,,,,,,,,,,,,,,,main,None,None,1,1.4959514000220224,426.03252020000946,None,None,1,,,,,,,,,,,,,,002,2022-05-04_16h06.50.069,Main,2022.1.1,61.490669095731235,
positive,blue,1,k,None,,,,,,,,,0,100,100,100,,,,,,,,,,,,,,,,,main,k,k,1,0.7178158999886364,428.52948360005394,None,None,0,,,,,,,,,,,,,,002,2022-05-04_16h06.50.069,Main,2022.1.1,61.490669095731235,
negative,yellow,1,k,None,,,,,,,,,0,101,101,101,,,,,,,,,,,,,,,,,main,k,k,1,0.9135370999574661,430.245746999979,None,None,0,,,,,,,,,,,,,,002,2022-05-04_16h06.50.069,Main,2022.1.1,61.490669095731235,
negative,blue,2,None,k,,,,,,,,,0,102,102,102,,,,,,,,,,,,,,,,,main,None,None,1,1.498576799989678,432.16273560002446,None,None,1,,,,,,,,,,,,,,002,2022-05-04_16h06.50.069,Main,2022.1.1,61.490669095731235,
negative,yellow,2,k,None,,,,,,,,,0,103,103,103,,,,,,,,,,,,,,,,,main,k,k,1,0.9992550000315532,434.66564909997396,None,None,0,,,,,,,,,,,,,,002,2022-05-04_16h06.50.069,Main,2022.1.1,61.490669095731235,
positive,yellow,2,None,k,,,,,,,,,0,104,104,104,,,,,,,,,,,,,,,,,main,None,None,1,1.499344200012274,436.66556770005263,None,None,1,,,,,,,,,,,,,,002,2022-05-04_16h06.50.069,Main,2022.1.1,61.490669095731235,
positive,blue,1,k,None,,,,,,,,,0,105,105,105,,,,,,,,,,,,,,,,,main,k,k,1,0.7984589000698179,439.16221530002076,None,None,0,,,,,,,,,,,,,,002,2022-05-04_16h06.50.069,Main,2022.1.1,61.490669095731235,
positive,blue,2,k,None,,,,,,,,,0,106,106,106,,,,,,,,,,,,,,,,,main,k,k,1,0.7656850001076236,440.96253550006077,None,None,0,,,,,,,,,,,,,,002,2022-05-04_16h06.50.069,Main,2022.1.1,61.490669095731235,
negative,blue,1,None,k,,,,,,,,,0,107,107,107,,,,,,,,,,,,,,,,,main,None,None,1,1.4989410999696702,442.7291858000681,None,None,1,,,,,,,,,,,,,,002,2022-05-04_16h06.50.069,Main,2022.1.1,61.490669095731235,
positive,yellow,2,None,k,,,,,,,,,0,108,108,108,,,,,,,,,,,,,,,,,main,None,None,1,1.4985838999273255,445.22913510003127,None,None,1,,,,,,,,,,,,,,002,2022-05-04_16h06.50.069,Main,2022.1.1,61.490669095731235,
negative,yellow,1,k,None,,,,,,,,,0,109,109,109,,,,,,,,,,,,,,,,,main,k,k,1,0.6324775000102818,447.7287026999984,None,None,0,,,,,,,,,,,,,,002,2022-05-04_16h06.50.069,Main,2022.1.1,61.490669095731235,
negative,blue,2,None,k,,,,,,,,,0,110,110,110,,,,,,,,,,,,,,,,,main,None,None,1,1.4991781000280753,449.36205740005244,None,None,1,,,,,,,,,,,,,,002,2022-05-04_16h06.50.069,Main,2022.1.1,61.490669095731235,
positive,blue,2,k,None,,,,,,,,,0,111,111,111,,,,,,,,,,,,,,,,,main,k,k,1,0.5992317000636831,451.86230669997167,None,None,0,,,,,,,,,,,,,,002,2022-05-04_16h06.50.069,Main,2022.1.1,61.490669095731235,
negative,blue,1,None,k,,,,,,,,,0,112,112,112,,,,,,,,,,,,,,,,,main,None,None,1,1.501430599950254,453.462275100057,None,None,1,,,,,,,,,,,,,,002,2022-05-04_16h06.50.069,Main,2022.1.1,61.490669095731235,
positive,yellow,1,None,k,,,,,,,,,0,113,113,113,,,,,,,,,,,,,,,,,main,None,None,1,1.496711799991317,455.96193940006196,None,None,1,,,,,,,,,,,,,,002,2022-05-04_16h06.50.069,Main,2022.1.1,61.490669095731235,
negative,red,1,None,None,,,,,,,,,0,114,114,114,,,,,,,,,,,,,,,,,main,None,None,1,1.4981748999562114,458.4618568000151,None,None,1,,,,,,,,,,,,,,002,2022-05-04_16h06.50.069,Main,2022.1.1,61.490669095731235,
positive,red,1,None,None,,,,,,,,,0,115,115,115,,,,,,,,,,,,,,,,,main,None,None,1,1.4998836000449955,460.9621090000728,None,None,1,,,,,,,,,,,,,,002,2022-05-04_16h06.50.069,Main,2022.1.1,61.490669095731235,
negative,red,2,None,None,,,,,,,,,0,116,116,116,,,,,,,,,,,,,,,,,main,None,None,1,1.498058299999684,463.46204780007247,None,None,1,,,,,,,,,,,,,,002,2022-05-04_16h06.50.069,Main,2022.1.1,61.490669095731235,
negative,yellow,2,k,None,,,,,,,,,0,117,117,117,,,,,,,,,,,,,,,,,main,k,k,1,0.8991891999030486,465.9648946999805,None,None,0,,,,,,,,,,,,,,002,2022-05-04_16h06.50.069,Main,2022.1.1,61.490669095731235,
positive,yellow,1,None,k,,,,,,,,,0,118,118,118,,,,,,,,,,,,,,,,,main,None,None,1,1.4996363000245765,467.86188740003854,None,None,1,,,,,,,,,,,,,,002,2022-05-04_16h06.50.069,Main,2022.1.1,61.490669095731235,
positive,red,2,None,None,,,,,,,,,0,119,119,119,,,,,,,,,,,,,,,,,main,None,None,1,1.4979652999900281,470.3618498999858,None,None,1,,,,,,,,,,,,,,002,2022-05-04_16h06.50.069,Main,2022.1.1,61.490669095731235,
positive,blue,2,k,None,,,,,,,,,0,120,120,120,,,,,,,,,,,,,,,,,main,k,k,1,0.5987366000190377,472.8618107000366,None,None,0,,,,,,,,,,,,,,002,2022-05-04_16h06.50.069,Main,2022.1.1,61.490669095731235,
negative,red,1,None,None,,,,,,,,,0,121,121,121,,,,,,,,,,,,,,,,,main,None,None,1,1.5020693000406027,474.4614614000311,None,None,1,,,,,,,,,,,,,,002,2022-05-04_16h06.50.069,Main,2022.1.1,61.490669095731235,
positive,yellow,2,None,k,,,,,,,,,0,122,122,122,,,,,,,,,,,,,,,,,main,None,None,1,1.4962721000192687,476.9647206000518,None,None,1,,,,,,,,,,,,,,002,2022-05-04_16h06.50.069,Main,2022.1.1,61.490669095731235,
negative,red,2,None,None,,,,,,,,,0,123,123,123,,,,,,,,,,,,,,,,,main,None,None,1,1.5019978999625891,479.46173039998394,None,None,1,,,,,,,,,,,,,,002,2022-05-04_16h06.50.069,Main,2022.1.1,61.490669095731235,
negative,yellow,2,k,None,,,,,,,,,0,124,124,124,,,,,,,,,,,,,,,,,main,k,k,1,0.8464115000097081,481.96164600003976,None,None,0,,,,,,,,,,,,,,002,2022-05-04_16h06.50.069,Main,2022.1.1,61.490669095731235,
positive,red,1,None,None,,,,,,,,,0,125,125,125,,,,,,,,,,,,,,,,,main,None,None,1,1.4983904999680817,483.8115193999838,None,None,1,,,,,,,,,,,,,,002,2022-05-04_16h06.50.069,Main,2022.1.1,61.490669095731235,
negative,blue,2,None,k,,,,,,,,,0,126,126,126,,,,,,,,,,,,,,,,,main,None,None,1,1.5000146999955177,486.3114825000521,None,None,1,,,,,,,,,,,,,,002,2022-05-04_16h06.50.069,Main,2022.1.1,61.490669095731235,
negative,blue,1,None,k,,,,,,,,,0,127,127,127,,,,,,,,,,,,,,,,,main,None,None,1,1.4983680000295863,488.8114430999849,None,None,1,,,,,,,,,,,,,,002,2022-05-04_16h06.50.069,Main,2022.1.1,61.490669095731235,
negative,yellow,1,k,None,,,,,,,,,0,128,128,128,,,,,,,,,,,,,,,,,main,k,k,1,0.7991441999329254,491.3110890999669,None,None,0,,,,,,,,,,,,,,002,2022-05-04_16h06.50.069,Main,2022.1.1,61.490669095731235,
negative,yellow,1,k,None,,,,,,,,,0,129,129,129,,,,,,,,,,,,,,,,,main,k,k,1,0.7151834999676794,493.11111150006764,None,None,0,,,,,,,,,,,,,,002,2022-05-04_16h06.50.069,Main,2022.1.1,61.490669095731235,
positive,blue,1,k,None,,,,,,,,,0,130,130,130,,,,,,,,,,,,,,,,,main,k,k,1,0.6315940999193117,494.83106790005695,None,None,0,,,,,,,,,,,,,,002,2022-05-04_16h06.50.069,Main,2022.1.1,61.490669095731235,
negative,blue,1,None,k,,,,,,,,,0,131,131,131,,,,,,,,,,,,,,,,,main,None,None,1,1.4987951000221074,496.46434269996826,None,None,1,,,,,,,,,,,,,,002,2022-05-04_16h06.50.069,Main,2022.1.1,61.490669095731235,
negative,blue,2,None,k,,,,,,,,,0,132,132,132,,,,,,,,,,,,,,,,,main,None,None,1,1.4996206000214443,498.9613067000173,None,None,1,,,,,,,,,,,,,,002,2022-05-04_16h06.50.069,Main,2022.1.1,61.490669095731235,
positive,blue,2,k,None,,,,,,,,,0,133,133,133,,,,,,,,,,,,,,,,,main,k,k,1,0.732013100059703,501.46086210000794,None,None,0,,,,,,,,,,,,,,002,2022-05-04_16h06.50.069,Main,2022.1.1,61.490669095731235,
positive,red,2,None,None,,,,,,,,,0,134,134,134,,,,,,,,,,,,,,,,,main,None,None,1,1.5017971000634134,503.19748620002065,None,None,1,,,,,,,,,,,,,,002,2022-05-04_16h06.50.069,Main,2022.1.1,61.490669095731235,
negative,yellow,2,k,None,,,,,,,,,0,135,135,135,,,,,,,,,,,,,,,,,main,k,k,1,0.6990703000919893,505.69745279999916,None,None,0,,,,,,,,,,,,,,002,2022-05-04_16h06.50.069,Main,2022.1.1,61.490669095731235,
positive,yellow,2,None,k,,,,,,,,,0,136,136,136,,,,,,,,,,,,,,,,,main,None,None,1,1.4964030999690294,507.3974290000042,None,None,1,,,,,,,,,,,,,,002,2022-05-04_16h06.50.069,Main,2022.1.1,61.490669095731235,
positive,blue,1,k,None,,,,,,,,,0,137,137,137,,,,,,,,,,,,,,,,,main,k,k,1,0.8013911999296397,509.89403960003983,None,None,0,,,,,,,,,,,,,,002,2022-05-04_16h06.50.069,Main,2022.1.1,61.490669095731235,
positive,yellow,1,None,k,,,,,,,,,0,138,138,138,,,,,,,,,,,,,,,,,main,None,None,1,1.4958527999697253,511.6973882999737,None,None,1,,,,,,,,,,,,,,002,2022-05-04_16h06.50.069,Main,2022.1.1,61.490669095731235,
positive,yellow,1,None,k,,,,,,,,,0,139,139,139,,,,,,,,,,,,,,,,,main,None,None,1,1.4990002000704408,514.1943244000431,None,None,1,,,,,,,,,,,,,,002,2022-05-04_16h06.50.069,Main,2022.1.1,61.490669095731235,
positive,yellow,1,None,k,,,,,,,,,0,140,140,140,,,,,,,,,,,,,,,,,main,None,None,1,1.4997421000152826,516.6973006000044,None,None,1,,,,,,,,,,,,,,002,2022-05-04_16h06.50.069,Main,2022.1.1,61.490669095731235,
positive,blue,1,k,None,,,,,,,,,0,141,141,141,,,,,,,,,,,,,,,,,main,k,k,1,0.7980761000653729,519.1939051999943,None,None,0,,,,,,,,,,,,,,002,2022-05-04_16h06.50.069,Main,2022.1.1,61.490669095731235,
positive,blue,2,k,None,,,,,,,,,0,142,142,142,,,,,,,,,,,,,,,,,main,k,k,1,0.9321295999689028,520.9971991999773,None,None,0,,,,,,,,,,,,,,002,2022-05-04_16h06.50.069,Main,2022.1.1,61.490669095731235,
positive,yellow,2,None,k,,,,,,,,,0,143,143,143,,,,,,,,,,,,,,,,,main,None,None,1,1.4985093999421224,522.9310385000426,None,None,1,,,,,,,,,,,,,,002,2022-05-04_16h06.50.069,Main,2022.1.1,61.490669095731235,
negative,yellow,2,k,None,,,,,,,,,0,144,144,144,,,,,,,,,,,,,,,,,main,k,k,1,0.5988499999511987,525.4303786000237,None,None,0,,,,,,,,,,,,,,002,2022-05-04_16h06.50.069,Main,2022.1.1,61.490669095731235,
negative,blue,2,None,k,,,,,,,,,0,145,145,145,,,,,,,,,,,,,,,,,main,None,None,1,1.499361400026828,527.0270279999822,None,None,1,,,,,,,,,,,,,,002,2022-05-04_16h06.50.069,Main,2022.1.1,61.490669095731235,
negative,red,1,None,None,,,,,,,,,0,146,146,146,,,,,,,,,,,,,,,,,main,None,None,1,1.502891100011766,529.5273419000441,None,None,1,,,,,,,,,,,,,,002,2022-05-04_16h06.50.069,Main,2022.1.1,61.490669095731235,
positive,blue,1,k,None,,,,,,,,,0,147,147,147,,,,,,,,,,,,,,,,,main,k,k,1,0.6784496000036597,532.0272914000088,None,None,0,,,,,,,,,,,,,,002,2022-05-04_16h06.50.069,Main,2022.1.1,61.490669095731235,
positive,yellow,1,None,k,,,,,,,,,0,148,148,148,,,,,,,,,,,,,,,,,main,None,None,1,1.4979333999799564,533.7105721000116,None,None,1,,,,,,,,,,,,,,002,2022-05-04_16h06.50.069,Main,2022.1.1,61.490669095731235,
negative,red,2,None,None,,,,,,,,,0,149,149,149,,,,,,,,,,,,,,,,,main,None,None,1,1.497802900034003,536.2104852000484,None,None,1,,,,,,,,,,,,,,002,2022-05-04_16h06.50.069,Main,2022.1.1,61.490669095731235,
negative,blue,1,None,k,,,,,,,,,0,150,150,150,,,,,,,,,,,,,,,,,main,None,None,1,1.5018480999860913,538.7103761000326,None,None,1,,,,,,,,,,,,,,002,2022-05-04_16h06.50.069,Main,2022.1.1,61.490669095731235,
negative,yellow,2,k,None,,,,,,,,,0,151,151,151,,,,,,,,,,,,,,,,,main,k,k,1,1.027288099983707,541.2103124000132,None,None,0,,,,,,,,,,,,,,002,2022-05-04_16h06.50.069,Main,2022.1.1,61.490669095731235,
negative,blue,2,None,k,,,,,,,,,0,152,152,152,,,,,,,,,,,,,,,,,main,None,None,1,1.4994623000966385,543.2436299000401,None,None,1,,,,,,,,,,,,,,002,2022-05-04_16h06.50.069,Main,2022.1.1,61.490669095731235,
negative,yellow,1,k,None,,,,,,,,,0,153,153,153,,,,,,,,,,,,,,,,,main,k,k,1,0.8316558999940753,545.7433431000682,None,None,0,,,,,,,,,,,,,,002,2022-05-04_16h06.50.069,Main,2022.1.1,61.490669095731235,
negative,blue,1,None,k,,,,,,,,,0,154,154,154,,,,,,,,,,,,,,,,,main,None,None,1,1.501848499989137,547.5769574000733,None,None,1,,,,,,,,,,,,,,002,2022-05-04_16h06.50.069,Main,2022.1.1,61.490669095731235,
positive,yellow,2,None,k,,,,,,,,,0,155,155,155,,,,,,,,,,,,,,,,,main,None,None,1,1.4964922000654042,550.0798809999833,None,None,1,,,,,,,,,,,,,,002,2022-05-04_16h06.50.069,Main,2022.1.1,61.490669095731235,
positive,red,2,None,None,,,,,,,,,0,156,156,156,,,,,,,,,,,,,,,,,main,None,None,1,1.498924499959685,552.5768324000528,None,None,1,,,,,,,,,,,,,,002,2022-05-04_16h06.50.069,Main,2022.1.1,61.490669095731235,
positive,red,1,None,None,,,,,,,,,0,157,157,157,,,,,,,,,,,,,,,,,main,None,None,1,1.4981288999551907,555.0764744000044,None,None,1,,,,,,,,,,,,,,002,2022-05-04_16h06.50.069,Main,2022.1.1,61.490669095731235,
positive,blue,2,k,None,,,,,,,,,0,158,158,158,,,,,,,,,,,,,,,,,main,k,k,1,1.6993108000606298,557.5767356000142,None,None,0,,,,,,,,,,,,,,002,2022-05-04_16h06.50.069,Main,2022.1.1,61.490669095731235,
negative,yellow,1,k,None,,,,,,,,,0,159,159,159,,,,,,,,,,,,,,,,,main,k,k,1,1.3194452000316232,561.2766430999618,None,None,0,,,,,,,,,,,,,,002,2022-05-04_16h06.50.069,Main,2022.1.1,61.490669095731235,
negative,red,2,None,None,,,,,,,,,0,160,160,160,,,,,,,,,,,,,,,,,main,None,None,1,1.4937893999740481,563.5932452999987,None,None,1,,,,,,,,,,,,,,002,2022-05-04_16h06.50.069,Main,2022.1.1,61.490669095731235,
negative,blue,1,None,k,,,,,,,,,0,161,161,161,,,,,,,,,,,,,,,,,main,None,None,1,1.4978309000143781,566.093141600024,None,None,1,,,,,,,,,,,,,,002,2022-05-04_16h06.50.069,Main,2022.1.1,61.490669095731235,
negative,blue,1,None,k,,,,,,,,,0,162,162,162,,,,,,,,,,,,,,,,,main,None,None,1,1.4987575999693945,568.5930932000047,None,None,1,,,,,,,,,,,,,,002,2022-05-04_16h06.50.069,Main,2022.1.1,61.490669095731235,
negative,yellow,1,k,None,,,,,,,,,0,163,163,163,,,,,,,,,,,,,,,,,main,k,k,1,0.7993441999424249,571.092754799989,None,None,0,,,,,,,,,,,,,,002,2022-05-04_16h06.50.069,Main,2022.1.1,61.490669095731235,
negative,yellow,1,k,None,,,,,,,,,0,164,164,164,,,,,,,,,,,,,,,,,main,k,k,1,0.799246700014919,572.8927702000365,None,None,0,,,,,,,,,,,,,,002,2022-05-04_16h06.50.069,Main,2022.1.1,61.490669095731235,
positive,yellow,1,None,k,,,,,,,,,0,165,165,165,,,,,,,,,,,,,,,,,main,None,None,1,1.5025466999504715,574.693031599978,None,None,1,,,,,,,,,,,,,,002,2022-05-04_16h06.50.069,Main,2022.1.1,61.490669095731235,
negative,red,1,None,None,,,,,,,,,0,166,166,166,,,,,,,,,,,,,,,,,main,None,None,1,1.4947967999614775,577.1929827000713,None,None,1,,,,,,,,,,,,,,002,2022-05-04_16h06.50.069,Main,2022.1.1,61.490669095731235,
negative,yellow,2,k,None,,,,,,,,,0,167,167,167,,,,,,,,,,,,,,,,,main,k,k,1,0.7490253000287339,579.6957522999728,None,None,0,,,,,,,,,,,,,,002,2022-05-04_16h06.50.069,Main,2022.1.1,61.490669095731235,
positive,blue,2,k,None,,,,,,,,,0,168,168,168,,,,,,,,,,,,,,,,,main,k,k,1,0.66592329996638,581.4428191999905,None,None,0,,,,,,,,,,,,,,002,2022-05-04_16h06.50.069,Main,2022.1.1,61.490669095731235,
positive,red,2,None,None,,,,,,,,,0,169,169,169,,,,,,,,,,,,,,,,,main,None,None,1,1.4987952000228688,583.1095037000487,None,None,1,,,,,,,,,,,,,,002,2022-05-04_16h06.50.069,Main,2022.1.1,61.490669095731235,
positive,red,1,None,None,,,,,,,,,0,170,170,170,,,,,,,,,,,,,,,,,main,None,None,1,1.4996793000027537,585.6093826000579,None,None,1,,,,,,,,,,,,,,002,2022-05-04_16h06.50.069,Main,2022.1.1,61.490669095731235,
negative,blue,2,None,k,,,,,,,,,0,171,171,171,,,,,,,,,,,,,,,,,main,None,None,1,1.4981608999660239,588.1090879000258,None,None,1,,,,,,,,,,,,,,002,2022-05-04_16h06.50.069,Main,2022.1.1,61.490669095731235,
positive,blue,2,k,None,,,,,,,,,0,172,172,172,,,,,,,,,,,,,,,,,main,k,k,1,0.8024575000163168,590.6093619000167,None,None,0,,,,,,,,,,,,,,002,2022-05-04_16h06.50.069,Main,2022.1.1,61.490669095731235,
negative,yellow,2,k,None,,,,,,,,,0,173,173,173,,,,,,,,,,,,,,,,,main,k,k,1,0.8458816999336705,592.4093100000173,None,None,0,,,,,,,,,,,,,,002,2022-05-04_16h06.50.069,Main,2022.1.1,61.490669095731235,
positive,yellow,2,None,k,,,,,,,,,0,174,174,174,,,,,,,,,,,,,,,,,main,None,None,1,1.5024775000056252,594.259276799974,None,None,1,,,,,,,,,,,,,,002,2022-05-04_16h06.50.069,Main,2022.1.1,61.490669095731235,
negative,blue,2,None,k,,,,,,,,,0,175,175,175,,,,,,,,,,,,,,,,,main,None,None,1,1.4958756000269204,596.7620308999904,None,None,1,,,,,,,,,,,,,,002,2022-05-04_16h06.50.069,Main,2022.1.1,61.490669095731235,
positive,blue,1,k,None,,,,,,,,,0,176,176,176,,,,,,,,,,,,,,,,,main,k,k,1,0.7315103999571875,599.2591344000539,None,None,0,,,,,,,,,,,,,,002,2022-05-04_16h06.50.069,Main,2022.1.1,61.490669095731235,
positive,yellow,1,None,k,,,,,,,,,0,177,177,177,,,,,,,,,,,,,,,,,main,None,None,1,1.4989545000717044,600.9923995999852,None,None,1,,,,,,,,,,,,,,002,2022-05-04_16h06.50.069,Main,2022.1.1,61.490669095731235,
positive,blue,1,k,None,,,,,,,,,0,178,178,178,,,,,,,,,,,,,,,,,main,k,k,1,0.7665530999656767,603.4924265000736,None,None,0,,,,,,,,,,,,,,002,2022-05-04_16h06.50.069,Main,2022.1.1,61.490669095731235,
positive,yellow,2,None,k,,,,,,,,,0,179,179,179,,,,,,,,,,,,,,,,,main,None,None,1,1.4980364999501035,605.2586756000528,None,None,1,,,,,,,,,,,,,,002,2022-05-04_16h06.50.069,Main,2022.1.1,61.490669095731235,
positive,blue,1,k,None,,,,,,,,,0,180,180,180,,,,,,,,,,,,,,,,,main,k,k,1,0.8160132999764755,607.7619881000137,None,None,0,,,,,,,,,,,,,,002,2022-05-04_16h06.50.069,Main,2022.1.1,61.490669095731235,
negative,red,1,None,None,,,,,,,,,0,181,181,181,,,,,,,,,,,,,,,,,main,None,None,1,1.5017038999358192,609.5756091000512,None,None,1,,,,,,,,,,,,,,002,2022-05-04_16h06.50.069,Main,2022.1.1,61.490669095731235,
negative,blue,1,None,k,,,,,,,,,0,182,182,182,,,,,,,,,,,,,,,,,main,None,None,1,1.4970674000214785,612.0755793000571,None,None,1,,,,,,,,,,,,,,002,2022-05-04_16h06.50.069,Main,2022.1.1,61.490669095731235,
negative,yellow,2,k,None,,,,,,,,,0,183,183,183,,,,,,,,,,,,,,,,,main,k,k,1,0.8157991000916809,614.5754583000671,None,None,0,,,,,,,,,,,,,,002,2022-05-04_16h06.50.069,Main,2022.1.1,61.490669095731235,
positive,yellow,2,None,k,,,,,,,,,0,184,184,184,,,,,,,,,,,,,,,,,main,None,None,1,1.4985223000403494,616.3921289000427,None,None,1,,,,,,,,,,,,,,002,2022-05-04_16h06.50.069,Main,2022.1.1,61.490669095731235,
positive,yellow,1,None,k,,,,,,,,,0,185,185,185,,,,,,,,,,,,,,,,,main,None,None,1,1.499948100070469,618.8920450999867,None,None,1,,,,,,,,,,,,,,002,2022-05-04_16h06.50.069,Main,2022.1.1,61.490669095731235,
positive,red,2,None,None,,,,,,,,,0,186,186,186,,,,,,,,,,,,,,,,,main,None,None,1,1.5008813000749797,621.3917032000609,None,None,1,,,,,,,,,,,,,,002,2022-05-04_16h06.50.069,Main,2022.1.1,61.490669095731235,
positive,blue,1,k,None,,,,,,,,,0,187,187,187,,,,,,,,,,,,,,,,,main,k,k,1,0.7786826000083238,623.8949953999836,None,None,0,,,,,,,,,,,,,,002,2022-05-04_16h06.50.069,Main,2022.1.1,61.490669095731235,
negative,yellow,1,k,None,,,,,,,,,0,188,188,188,,,,,,,,,,,,,,,,,main,k,k,1,0.8187196999788284,625.6752620000625,None,None,0,,,,,,,,,,,,,,002,2022-05-04_16h06.50.069,Main,2022.1.1,61.490669095731235,
positive,yellow,2,None,k,,,,,,,,,0,189,189,189,,,,,,,,,,,,,,,,,main,None,None,1,1.4965222999453545,627.4948604999809,None,None,1,,,,,,,,,,,,,,002,2022-05-04_16h06.50.069,Main,2022.1.1,61.490669095731235,
negative,yellow,2,k,None,,,,,,,,,0,190,190,190,,,,,,,,,,,,,,,,,main,k,k,1,0.7323696999810636,629.9914818999823,None,None,0,,,,,,,,,,,,,,002,2022-05-04_16h06.50.069,Main,2022.1.1,61.490669095731235,
negative,yellow,1,k,None,,,,,,,,,0,191,191,191,,,,,,,,,,,,,,,,,main,k,k,1,0.8482476000208408,631.7248158999719,None,None,0,,,,,,,,,,,,,,002,2022-05-04_16h06.50.069,Main,2022.1.1,61.490669095731235,
positive,blue,2,k,None,,,,,,,,,0,192,192,192,,,,,,,,,,,,,,,,,main,k,k,1,0.7157363999867812,633.5779806000646,None,None,0,,,,,,,,,,,,,,002,2022-05-04_16h06.50.069,Main,2022.1.1,61.490669095731235,
positive,yellow,1,None,k,,,,,,,,,0,193,193,193,,,,,,,,,,,,,,,,,main,None,None,1,1.4992707000346854,635.2917312000645,None,None,1,,,,,,,,,,,,,,002,2022-05-04_16h06.50.069,Main,2022.1.1,61.490669095731235,
negative,red,2,None,None,,,,,,,,,0,194,194,194,,,,,,,,,,,,,,,,,main,None,None,1,1.4985727000748739,637.7916660000337,None,None,1,,,,,,,,,,,,,,002,2022-05-04_16h06.50.069,Main,2022.1.1,61.490669095731235,
positive,red,1,None,None,,,,,,,,,0,195,195,195,,,,,,,,,,,,,,,,,main,None,None,1,1.4980721999891102,640.2913276000181,None,None,1,,,,,,,,,,,,,,002,2022-05-04_16h06.50.069,Main,2022.1.1,61.490669095731235,
negative,blue,1,None,k,,,,,,,,,0,196,196,196,,,,,,,,,,,,,,,,,main,None,None,1,1.4994521000189707,642.7915918000508,None,None,1,,,,,,,,,,,,,,002,2022-05-04_16h06.50.069,Main,2022.1.1,61.490669095731235,
positive,blue,2,k,None,,,,,,,,,0,197,197,197,,,,,,,,,,,,,,,,,main,k,k,1,0.7345313000259921,645.2915310000535,None,None,0,,,,,,,,,,,,,,002,2022-05-04_16h06.50.069,Main,2022.1.1,61.490669095731235,
negative,blue,2,None,k,,,,,,,,,0,198,198,198,,,,,,,,,,,,,,,,,main,None,None,1,1.4964715000241995,647.0278305000393,None,None,1,,,,,,,,,,,,,,002,2022-05-04_16h06.50.069,Main,2022.1.1,61.490669095731235,
negative,blue,2,None,k,,,,,,,,,0,199,199,199,,,,,,,,,,,,,,,,,main,None,None,1,1.4982921000337228,649.5244043000275,None,None,1,,,,,,,,,,,,,,002,2022-05-04_16h06.50.069,Main,2022.1.1,61.490669095731235,
positive,blue,2,k,None,,,,,,,,,0,200,200,200,,,,,,,,,,,,,,,,,main,k,k,1,0.7492018999764696,652.0247179999715,None,None,0,,,,,,,,,,,,,,002,2022-05-04_16h06.50.069,Main,2022.1.1,61.490669095731235,
positive,blue,2,k,None,,,,,,,,,0,201,201,201,,,,,,,,,,,,,,,,,main,k,k,1,0.782432800042443,653.7746626000153,None,None,0,,,,,,,,,,,,,,002,2022-05-04_16h06.50.069,Main,2022.1.1,61.490669095731235,
negative,yellow,2,k,None,,,,,,,,,0,202,202,202,,,,,,,,,,,,,,,,,main,k,k,1,0.8483915000688285,655.5608899999643,None,None,0,,,,,,,,,,,,,,002,2022-05-04_16h06.50.069,Main,2022.1.1,61.490669095731235,
positive,red,1,None,None,,,,,,,,,0,203,203,203,,,,,,,,,,,,,,,,,main,None,None,1,1.5021457000402734,657.4075737000676,None,None,1,,,,,,,,,,,,,,002,2022-05-04_16h06.50.069,Main,2022.1.1,61.490669095731235,
negative,blue,2,None,k,,,,,,,,,0,204,204,204,,,,,,,,,,,,,,,,,main,None,None,1,1.4961528999265283,659.910865599988,None,None,1,,,,,,,,,,,,,,002,2022-05-04_16h06.50.069,Main,2022.1.1,61.490669095731235,
negative,red,1,None,None,,,,,,,,,0,205,205,205,,,,,,,,,,,,,,,,,main,None,None,1,1.4989039999200031,662.4107694000704,None,None,1,,,,,,,,,,,,,,002,2022-05-04_16h06.50.069,Main,2022.1.1,61.490669095731235,
negative,blue,2,None,k,,,,,,,,,0,206,206,206,,,,,,,,,,,,,,,,,main,None,None,1,1.4996450999751687,664.9077734999591,None,None,1,,,,,,,,,,,,,,002,2022-05-04_16h06.50.069,Main,2022.1.1,61.490669095731235,
negative,yellow,2,k,None,,,,,,,,,0,207,207,207,,,,,,,,,,,,,,,,,main,k,k,1,0.6680264000315219,667.4073975000065,None,None,0,,,,,,,,,,,,,,002,2022-05-04_16h06.50.069,Main,2022.1.1,61.490669095731235,
positive,yellow,2,None,k,,,,,,,,,0,208,208,208,,,,,,,,,,,,,,,,,main,None,None,1,1.4954810999333858,669.077335900045,None,None,1,,,,,,,,,,,,,,002,2022-05-04_16h06.50.069,Main,2022.1.1,61.490669095731235,
negative,yellow,1,k,None,,,,,,,,,0,209,209,209,,,,,,,,,,,,,,,,,main,k,k,1,0.7994986000703648,671.577316800016,None,None,0,,,,,,,,,,,,,,002,2022-05-04_16h06.50.069,Main,2022.1.1,61.490669095731235,
negative,red,2,None,None,,,,,,,,,0,210,210,210,,,,,,,,,,,,,,,,,main,None,None,1,1.4990892999339849,673.3742676000111,None,None,1,,,,,,,,,,,,,,002,2022-05-04_16h06.50.069,Main,2022.1.1,61.490669095731235,
negative,blue,1,None,k,,,,,,,,,0,211,211,211,,,,,,,,,,,,,,,,,main,None,None,1,1.4982922000344843,675.8738927000668,None,None,1,,,,,,,,,,,,,,002,2022-05-04_16h06.50.069,Main,2022.1.1,61.490669095731235,
negative,yellow,1,k,None,,,,,,,,,0,212,212,212,,,,,,,,,,,,,,,,,main,k,k,1,0.9993263999931514,678.374164900044,None,None,0,,,,,,,,,,,,,,002,2022-05-04_16h06.50.069,Main,2022.1.1,61.490669095731235,
positive,blue,1,k,None,,,,,,,,,0,213,213,213,,,,,,,,,,,,,,,,,main,k,k,1,0.6989902999484912,680.3741268999875,None,None,0,,,,,,,,,,,,,,002,2022-05-04_16h06.50.069,Main,2022.1.1,61.490669095731235,
positive,blue,1,k,None,,,,,,,,,0,214,214,214,,,,,,,,,,,,,,,,,main,k,k,1,0.6496198000386357,682.0770524999825,None,None,0,,,,,,,,,,,,,,002,2022-05-04_16h06.50.069,Main,2022.1.1,61.490669095731235,
positive,yellow,1,None,k,,,,,,,,,0,215,215,215,,,,,,,,,,,,,,,,,main,None,None,1,1.5019508000696078,683.7236501000589,None,None,1,,,,,,,,,,,,,,002,2022-05-04_16h06.50.069,Main,2022.1.1,61.490669095731235,
positive,yellow,1,None,k,,,,,,,,,0,216,216,216,,,,,,,,,,,,,,,,,main,None,None,1,1.4960963999619707,686.2240066999802,None,None,1,,,,,,,,,,,,,,002,2022-05-04_16h06.50.069,Main,2022.1.1,61.490669095731235,
positive,yellow,2,None,k,,,,,,,,,0,217,217,217,,,,,,,,,,,,,,,,,main,None,None,1,1.5020798000041395,688.7269240000751,None,None,1,,,,,,,,,,,,,,002,2022-05-04_16h06.50.069,Main,2022.1.1,61.490669095731235,
negative,blue,1,None,k,,,,,,,,,0,218,218,218,,,,,,,,,,,,,,,,,main,None,None,1,1.4967821000609547,691.2238885000115,None,None,1,,,,,,,,,,,,,,002,2022-05-04_16h06.50.069,Main,2022.1.1,61.490669095731235,
positive,red,2,None,None,,,,,,,,,0,219,219,219,,,,,,,,,,,,,,,,,main,None,None,1,1.5009598000906408,693.7234775000252,None,None,1,,,,,,,,,,,,,,002,2022-05-04_16h06.50.069,Main,2022.1.1,61.490669095731235,
positive,yellow,1,None,k,,,,,,,,,0,220,220,220,,,,,,,,,,,,,,,,,main,None,None,1,1.4962031000759453,696.2268058999907,None,None,1,,,,,,,,,,,,,,002,2022-05-04_16h06.50.069,Main,2022.1.1,61.490669095731235,
positive,blue,1,k,None,,,,,,,,,0,221,221,221,,,,,,,,,,,,,,,,,main,k,k,1,0.7689761000219733,698.7237271000631,None,None,0,,,,,,,,,,,,,,002,2022-05-04_16h06.50.069,Main,2022.1.1,61.490669095731235,
positive,yellow,2,None,k,,,,,,,,,0,222,222,222,,,,,,,,,,,,,,,,,main,None,None,1,1.4947887999005616,700.4933303999715,None,None,1,,,,,,,,,,,,,,002,2022-05-04_16h06.50.069,Main,2022.1.1,61.490669095731235,
negative,yellow,1,k,None,,,,,,,,,0,223,223,223,,,,,,,,,,,,,,,,,main,k,k,1,0.7317959999199957,702.989923599991,None,None,0,,,,,,,,,,,,,,002,2022-05-04_16h06.50.069,Main,2022.1.1,61.490669095731235,
positive,yellow,2,None,k,,,,,,,,,0,224,224,224,,,,,,,,,,,,,,,,,main,None,None,1,1.498493199935183,704.7235985000152,None,None,1,,,,,,,,,,,,,,002,2022-05-04_16h06.50.069,Main,2022.1.1,61.490669095731235,
negative,yellow,2,k,None,,,,,,,,,0,225,225,225,,,,,,,,,,,,,,,,,main,k,k,1,0.7658843999961391,707.2264839999843,None,None,0,,,,,,,,,,,,,,002,2022-05-04_16h06.50.069,Main,2022.1.1,61.490669095731235,
negative,blue,2,None,k,,,,,,,,,0,226,226,226,,,,,,,,,,,,,,,,,main,None,None,1,1.4994015999836847,708.9901818999788,None,None,1,,,,,,,,,,,,,,002,2022-05-04_16h06.50.069,Main,2022.1.1,61.490669095731235,
positive,red,2,None,None,,,,,,,,,0,227,227,227,,,,,,,,,,,,,,,,,main,None,None,1,1.501252599991858,711.4897500000661,None,None,1,,,,,,,,,,,,,,002,2022-05-04_16h06.50.069,Main,2022.1.1,61.490669095731235,
positive,blue,2,k,None,,,,,,,,,0,228,228,228,,,,,,,,,,,,,,,,,main,k,k,1,0.6962583999847993,713.9900434999727,None,None,0,,,,,,,,,,,,,,002,2022-05-04_16h06.50.069,Main,2022.1.1,61.490669095731235,
negative,blue,1,None,k,,,,,,,,,0,229,229,229,,,,,,,,,,,,,,,,,main,None,None,1,1.5033390000462532,715.6930055000121,None,None,1,,,,,,,,,,,,,,002,2022-05-04_16h06.50.069,Main,2022.1.1,61.490669095731235,
positive,yellow,1,None,k,,,,,,,,,0,230,230,230,,,,,,,,,,,,,,,,,main,None,None,1,1.4944479999830946,718.1899525000481,None,None,1,,,,,,,,,,,,,,002,2022-05-04_16h06.50.069,Main,2022.1.1,61.490669095731235,
negative,blue,2,None,k,,,,,,,,,0,231,231,231,,,,,,,,,,,,,,,,,main,None,None,1,1.499029599945061,720.6897976000328,None,None,1,,,,,,,,,,,,,,002,2022-05-04_16h06.50.069,Main,2022.1.1,61.490669095731235,
negative,red,1,None,None,,,,,,,,,0,232,232,232,,,,,,,,,,,,,,,,,main,None,None,1,1.4990223000058904,723.189795800019,None,None,1,,,,,,,,,,,,,,002,2022-05-04_16h06.50.069,Main,2022.1.1,61.490669095731235,
positive,blue,2,k,None,,,,,,,,,0,233,233,233,,,,,,,,,,,,,,,,,main,k,k,1,0.6835011000512168,725.6897452999838,None,None,0,,,,,,,,,,,,,,002,2022-05-04_16h06.50.069,Main,2022.1.1,61.490669095731235,
negative,yellow,1,k,None,,,,,,,,,0,234,234,234,,,,,,,,,,,,,,,,,main,k,k,1,0.8998685999540612,727.3730582999997,None,None,0,,,,,,,,,,,,,,002,2022-05-04_16h06.50.069,Main,2022.1.1,61.490669095731235,
negative,yellow,2,k,None,,,,,,,,,0,235,235,235,,,,,,,,,,,,,,,,,main,k,k,1,0.9997720000101253,729.2727667000145,None,None,0,,,,,,,,,,,,,,002,2022-05-04_16h06.50.069,Main,2022.1.1,61.490669095731235,
positive,red,1,None,None,,,,,,,,,0,236,236,236,,,,,,,,,,,,,,,,,main,None,None,1,1.4989164000144228,731.2730334000662,None,None,1,,,,,,,,,,,,,,002,2022-05-04_16h06.50.069,Main,2022.1.1,61.490669095731235,
negative,red,2,None,None,,,,,,,,,0,237,237,237,,,,,,,,,,,,,,,,,main,None,None,1,1.4960272000171244,733.7729733000742,None,None,1,,,,,,,,,,,,,,002,2022-05-04_16h06.50.069,Main,2022.1.1,61.490669095731235,
negative,blue,1,None,k,,,,,,,,,0,238,238,238,,,,,,,,,,,,,,,,,main,None,None,1,1.4995630000485107,736.2729210000252,None,None,1,,,,,,,,,,,,,,002,2022-05-04_16h06.50.069,Main,2022.1.1,61.490669095731235,
positive,blue,1,k,None,,,,,,,,,0,239,239,239,,,,,,,,,,,,,,,,,main,k,k,1,0.6984110999619588,738.772494600038,None,None,0,,,,,,,,,,,,,,002,2022-05-04_16h06.50.069,Main,2022.1.1,61.490669095731235,
,,,,,,,,,,,,,,,,,,,,,,,,,,,,,,,,,,,,,,,,,,,,,,,,,,,,,740.4758261999814,None,,,,,,
