distractor,target,set,ans1,ans2,rep_loop4.thisRepN,rep_loop4.thisTrialN,rep_loop4.thisN,rep_loop4.thisIndex,st2_prac_loop.thisRepN,st2_prac_loop.thisTrialN,st2_prac_loop.thisN,st2_prac_loop.thisIndex,st2_main_loop.thisRepN,st2_main_loop.thisTrialN,st2_main_loop.thisN,st2_main_loop.thisIndex,image_4.started,image_4.stopped,sound_2.started,sound_2.stopped,key_resp_3.keys,key_resp_3.rt,image_5.started,image_5.stopped,st_prac_back.started,st_prac_back.stopped,st_prac_text.started,st_prac_text.stopped,st_fix_back.started,st_fix_back.stopped,st_fix_2.started,st_fix_2.stopped,main_prac,st_ans,st_res,st_corr,st_rt,st_back.started,st_back.stopped,st2_resp.keys,st2_resp.corr,st_main_back.started,st_main_back.stopped,st_main_text.started,st_main_text.stopped,mouse_4.x,mouse_4.y,mouse_4.leftButton,mouse_4.midButton,mouse_4.rightButton,mouse_4.started,mouse_4.stopped,text_2.started,text_2.stopped,id*,date,expName,psychopyVersion,frameRate,
negative,yellow,1,k,None,,,,,0,0,0,0,,,,,29.632976700086147,None,34.23932920000516,None,space,56.03041210002266,90.30165899998974,None,96.93804720009211,None,96.93804720009211,None,98.93788490002044,None,98.93788490002044,None,prac,None,None,1,1.5017383999656886,100.94205499999225,None,None,1,,,,,,,,,,,,,,003,2022-05-05_17h38.59.445,Main,2022.1.1,59.843115292616034,
positive,red,2,None,None,,,,,0,1,1,1,,,,,,,,,,,,,,,,,,,,,prac,None,None,1,1.5009900000877678,103.45119510008954,None,None,1,,,,,,,,,,,,,,003,2022-05-05_17h38.59.445,Main,2022.1.1,59.843115292616034,
negative,blue,2,None,k,,,,,0,2,2,2,,,,,,,,,,,,,,,,,,,,,prac,k,k,1,1.013259300030768,105.95448399998713,None,None,0,,,,,,,,,,,,,,003,2022-05-05_17h38.59.445,Main,2022.1.1,59.843115292616034,
positive,yellow,1,None,k,,,,,0,3,3,3,,,,,,,,,,,,,,,,,,,,,prac,k,k,1,1.002006399910897,107.96814750006888,None,None,0,,,,,,,,,,,,,,003,2022-05-05_17h38.59.445,Main,2022.1.1,59.843115292616034,
negative,blue,2,None,k,,,,,0,4,4,4,,,,,,,,,,,,,,,,,,,,,prac,k,k,1,0.8623018999351189,109.97098530002404,None,None,0,,,,,,,,,,,,,,003,2022-05-05_17h38.59.445,Main,2022.1.1,59.843115292616034,
negative,blue,1,None,k,,,,,0,5,5,5,,,,,,,,,,,,,,,,,,,,,prac,k,k,1,1.16601519996766,111.83436280000024,None,None,0,,,,,,,,,,,,,,003,2022-05-05_17h38.59.445,Main,2022.1.1,59.843115292616034,
negative,yellow,2,k,None,,,,,0,6,6,6,,,,,,,,,,,,,,,,,,,,,prac,None,None,1,1.5027405000291765,114.00431410002057,None,None,1,,,,,,,,,,,,,,003,2022-05-05_17h38.59.445,Main,2022.1.1,59.843115292616034,
negative,red,1,None,None,,,,,0,7,7,7,,,,,,,,,,,,,,,,,,,,,prac,None,None,1,1.4949150999309495,116.50431770004798,None,None,1,,,,,,,,,,,,,,003,2022-05-05_17h38.59.445,Main,2022.1.1,59.843115292616034,
positive,yellow,2,None,k,,,,,0,8,8,8,,,,,,,,,,,,,,,,,,,,,prac,k,k,1,1.1320680000353605,119.00124780007172,None,None,0,,,,,,,,,,,,,,003,2022-05-05_17h38.59.445,Main,2022.1.1,59.843115292616034,
negative,yellow,1,k,None,,,,,0,9,9,9,,,,,,,,,,,,,,,,,,,,,prac,None,None,1,1.4991371999494731,121.1341615000274,None,None,1,,,,,,,,,,,,,,003,2022-05-05_17h38.59.445,Main,2022.1.1,59.843115292616034,
positive,yellow,2,None,k,,,,,0,10,10,10,,,,,,,,,,,,,,,,,,,,,prac,k,k,1,1.0326716999989003,123.63447749998886,None,None,0,,,,,,,,,,,,,,003,2022-05-05_17h38.59.445,Main,2022.1.1,59.843115292616034,
negative,yellow,2,k,None,,,,,0,11,11,11,,,,,,,,,,,,,,,,,,,,,prac,None,None,1,1.4991470999084413,125.67070430004969,None,None,1,,,,,,,,,,,,,,003,2022-05-05_17h38.59.445,Main,2022.1.1,59.843115292616034,
negative,red,2,None,None,,,,,0,12,12,12,,,,,,,,,,,,,,,,,,,,,prac,None,None,1,1.4989113999763504,128.16770600003656,None,None,1,,,,,,,,,,,,,,003,2022-05-05_17h38.59.445,Main,2022.1.1,59.843115292616034,
positive,red,1,None,None,,,,,0,13,13,13,,,,,,,,,,,,,,,,,,,,,prac,None,None,1,1.4987229000544176,130.66752520005684,None,None,1,,,,,,,,,,,,,,003,2022-05-05_17h38.59.445,Main,2022.1.1,59.843115292616034,
positive,blue,2,k,None,,,,,0,14,14,14,,,,,,,,,,,,,,,,,,,,,prac,None,None,1,1.4993371000746265,133.16752500005532,None,None,1,,,,,,,,,,,,,,003,2022-05-05_17h38.59.445,Main,2022.1.1,59.843115292616034,
positive,blue,1,k,None,,,,,0,15,15,15,,,,,,,,,,,,,,,,,,,,,prac,None,None,1,1.5004444000078365,135.6674821000779,None,None,1,,,,,,,,,,,,,,003,2022-05-05_17h38.59.445,Main,2022.1.1,59.843115292616034,
negative,blue,1,None,k,,,,,0,16,16,16,,,,,,,,,,,,,,,,,,,,,prac,k,k,1,0.947537099942565,138.1671124000568,None,None,0,,,,,,,,,,,,,,003,2022-05-05_17h38.59.445,Main,2022.1.1,59.843115292616034,
positive,blue,2,k,None,,,,,0,17,17,17,,,,,,,,,,,,,,,,,,,,,prac,None,None,1,1.502276899991557,140.11746570002288,None,None,1,,,,,,,,,,,,,,003,2022-05-05_17h38.59.445,Main,2022.1.1,59.843115292616034,
positive,blue,1,k,None,,,,,0,18,18,18,,,,,,,,,,,,,,,,,,,,,prac,None,None,1,1.4950489000184461,142.6204322000267,None,None,1,,,,,,,,,,,,,,003,2022-05-05_17h38.59.445,Main,2022.1.1,59.843115292616034,
positive,yellow,1,None,k,,,,,0,19,19,19,,,,,,,,,,,,,,,,,,,,,prac,k,k,1,0.8654222000623122,145.11733410006855,None,None,0,,,,,,,,,,,,,,003,2022-05-05_17h38.59.445,Main,2022.1.1,59.843115292616034,
negative,yellow,1,k,None,,,,,1,0,20,0,,,,,,,,,,,,,,,,,,,,,prac,None,None,1,1.5021969999652356,146.98360110004432,None,None,1,,,,,,,,,,,,,,003,2022-05-05_17h38.59.445,Main,2022.1.1,59.843115292616034,
positive,red,2,None,None,,,,,1,1,21,1,,,,,,,,,,,,,,,,,,,,,prac,None,None,1,1.4988720000255853,149.48695570009295,None,None,1,,,,,,,,,,,,,,003,2022-05-05_17h38.59.445,Main,2022.1.1,59.843115292616034,
negative,blue,2,None,k,,,,,1,2,22,2,,,,,,,,,,,,,,,,,,,,,prac,k,k,1,0.9968063000123948,151.98387550003827,None,None,0,,,,,,,,,,,,,,003,2022-05-05_17h38.59.445,Main,2022.1.1,59.843115292616034,
positive,yellow,1,None,k,,,,,1,3,23,3,,,,,,,,,,,,,,,,,,,,,prac,k,k,1,0.9152456000447273,153.97582910000347,None,None,0,,,,,,,,,,,,,,003,2022-05-05_17h38.59.445,Main,2022.1.1,59.843115292616034,
negative,blue,2,None,k,,,,,1,4,24,4,,,,,,,,,,,,,,,,,,,,,prac,k,k,1,0.815829599974677,155.9000723999925,None,None,0,,,,,,,,,,,,,,003,2022-05-05_17h38.59.445,Main,2022.1.1,59.843115292616034,
negative,blue,1,None,k,,,,,1,5,25,5,,,,,,,,,,,,,,,,,,,,,prac,k,k,1,1.4826370999217033,157.71675970009528,None,None,0,,,,,,,,,,,,,,003,2022-05-05_17h38.59.445,Main,2022.1.1,59.843115292616034,
negative,yellow,2,k,None,,,,,1,6,26,6,,,,,,,,,,,,,,,,,,,,,prac,None,None,1,1.4995920000365004,160.20033920009155,None,None,1,,,,,,,,,,,,,,003,2022-05-05_17h38.59.445,Main,2022.1.1,59.843115292616034,
negative,red,1,None,None,,,,,1,7,27,7,,,,,,,,,,,,,,,,,,,,,prac,None,None,1,1.498399700038135,162.70029519998934,None,None,1,,,,,,,,,,,,,,003,2022-05-05_17h38.59.445,Main,2022.1.1,59.843115292616034,
positive,yellow,2,None,k,,,,,1,8,28,8,,,,,,,,,,,,,,,,,,,,,prac,k,k,1,0.8148914999328554,165.19987040001433,None,None,0,,,,,,,,,,,,,,003,2022-05-05_17h38.59.445,Main,2022.1.1,59.843115292616034,
negative,yellow,1,k,None,,,,,1,9,29,9,,,,,,,,,,,,,,,,,,,,,prac,None,None,1,1.4992175999796018,167.01655609998852,None,None,1,,,,,,,,,,,,,,003,2022-05-05_17h38.59.445,Main,2022.1.1,59.843115292616034,
positive,yellow,2,None,k,,,,,1,10,30,10,,,,,,,,,,,,,,,,,,,,,prac,k,k,1,0.7688134000636637,169.5197737000417,None,None,0,,,,,,,,,,,,,,003,2022-05-05_17h38.59.445,Main,2022.1.1,59.843115292616034,
negative,yellow,2,k,None,,,,,1,11,31,11,,,,,,,,,,,,,,,,,,,,,prac,None,None,1,1.495680799940601,171.28343930002302,None,None,1,,,,,,,,,,,,,,003,2022-05-05_17h38.59.445,Main,2022.1.1,59.843115292616034,
negative,red,2,None,None,,,,,1,12,32,12,,,,,,,,,,,,,,,,,,,,,prac,None,None,1,1.5023288999218494,173.78301770007238,None,None,1,,,,,,,,,,,,,,003,2022-05-05_17h38.59.445,Main,2022.1.1,59.843115292616034,
positive,red,1,None,None,,,,,1,13,33,13,,,,,,,,,,,,,,,,,,,,,prac,None,None,1,1.4990216000005603,176.28630560007878,None,None,1,,,,,,,,,,,,,,003,2022-05-05_17h38.59.445,Main,2022.1.1,59.843115292616034,
positive,blue,2,k,None,,,,,1,14,34,14,,,,,,,,,,,,,,,,,,,,,prac,None,None,1,1.4959885999560356,178.7865143000381,None,None,1,,,,,,,,,,,,,,003,2022-05-05_17h38.59.445,Main,2022.1.1,59.843115292616034,
positive,blue,1,k,None,,,,,1,15,35,15,,,,,,,,,,,,,,,,,,,,,prac,None,None,1,1.499100900022313,181.28323559998535,None,None,1,,,,,,,,,,,,,,003,2022-05-05_17h38.59.445,Main,2022.1.1,59.843115292616034,
negative,blue,1,None,k,,,,,1,16,36,16,,,,,,,,,,,,,,,,,,,,,prac,k,k,1,0.6825594999827445,183.7830672999844,None,None,0,,,,,,,,,,,,,,003,2022-05-05_17h38.59.445,Main,2022.1.1,59.843115292616034,
positive,blue,2,k,None,,,,,1,17,37,17,,,,,,,,,,,,,,,,,,,,,prac,None,None,1,1.501765799941495,185.46645970002282,None,None,1,,,,,,,,,,,,,,003,2022-05-05_17h38.59.445,Main,2022.1.1,59.843115292616034,
positive,blue,1,k,None,,,,,1,18,38,18,,,,,,,,,,,,,,,,,,,,,prac,None,None,1,1.4970828000223264,187.96618740004487,None,None,1,,,,,,,,,,,,,,003,2022-05-05_17h38.59.445,Main,2022.1.1,59.843115292616034,
positive,yellow,1,None,k,,,,,1,19,39,19,,,,,,,,,,,,,,,,,,,,,prac,k,k,1,0.8641875999746844,190.46631879999768,None,None,0,,,,,,,,,,,,,,003,2022-05-05_17h38.59.445,Main,2022.1.1,59.843115292616034,
,,,,,,,,,,,,,,,,,,,,,,,,,,,,,,,,,,,,,,,,,,192.33262210001703,None,192.33262210001703,None,-0.042592593,-0.024074074,0,0,0,0.014040200039744377,None,,,003,2022-05-05_17h38.59.445,Main,2022.1.1,59.843115292616034,
negative,yellow,2,k,None,,,,,,,,,0,0,0,0,,,,,,,,,,,,,193.28273790003732,None,193.28273790003732,None,main,None,None,1,1.4957616000901908,195.3118646000512,None,None,1,,,,,,,,,,,,,,003,2022-05-05_17h38.59.445,Main,2022.1.1,59.843115292616034,
positive,red,1,None,None,,,,,,,,,0,1,1,1,,,,,,,,,,,,,,,,,main,None,None,1,1.4982587000122294,197.81621339998674,None,None,1,,,,,,,,,,,,,,003,2022-05-05_17h38.59.445,Main,2022.1.1,59.843115292616034,
positive,blue,2,k,None,,,,,,,,,0,2,2,2,,,,,,,,,,,,,,,,,main,None,None,1,1.5006954999407753,200.3157843000954,None,None,1,,,,,,,,,,,,,,003,2022-05-05_17h38.59.445,Main,2022.1.1,59.843115292616034,
positive,blue,1,k,None,,,,,,,,,0,3,3,3,,,,,,,,,,,,,,,,,main,None,None,1,1.5001709000207484,202.81578060006723,None,None,1,,,,,,,,,,,,,,003,2022-05-05_17h38.59.445,Main,2022.1.1,59.843115292616034,
negative,yellow,2,k,None,,,,,,,,,0,4,4,4,,,,,,,,,,,,,,,,,main,None,None,1,1.49918569996953,205.31604960002005,None,None,1,,,,,,,,,,,,,,003,2022-05-05_17h38.59.445,Main,2022.1.1,59.843115292616034,
positive,yellow,2,None,k,,,,,,,,,0,5,5,5,,,,,,,,,,,,,,,,,main,k,k,1,0.8461855999194086,207.81893260008655,None,None,0,,,,,,,,,,,,,,003,2022-05-05_17h38.59.445,Main,2022.1.1,59.843115292616034,
negative,blue,2,None,k,,,,,,,,,0,6,6,6,,,,,,,,,,,,,,,,,main,k,k,1,0.8333854000084102,209.6655722000869,None,None,0,,,,,,,,,,,,,,003,2022-05-05_17h38.59.445,Main,2022.1.1,59.843115292616034,
positive,red,2,None,None,,,,,,,,,0,7,7,7,,,,,,,,,,,,,,,,,main,None,None,1,1.4978637000313029,211.4989130999893,None,None,1,,,,,,,,,,,,,,003,2022-05-05_17h38.59.445,Main,2022.1.1,59.843115292616034,
positive,yellow,1,None,k,,,,,,,,,0,8,8,8,,,,,,,,,,,,,,,,,main,k,k,1,0.9690264000091702,213.99919650005177,None,None,0,,,,,,,,,,,,,,003,2022-05-05_17h38.59.445,Main,2022.1.1,59.843115292616034,
negative,red,1,None,None,,,,,,,,,0,9,9,9,,,,,,,,,,,,,,,,,main,None,None,1,1.4955568000441417,215.9658181000268,None,None,1,,,,,,,,,,,,,,003,2022-05-05_17h38.59.445,Main,2022.1.1,59.843115292616034,
positive,yellow,1,None,k,,,,,,,,,0,10,10,10,,,,,,,,,,,,,,,,,main,k,k,1,0.7835225000744686,218.46538910001982,None,None,0,,,,,,,,,,,,,,003,2022-05-05_17h38.59.445,Main,2022.1.1,59.843115292616034,
negative,yellow,1,k,None,,,,,,,,,0,11,11,11,,,,,,,,,,,,,,,,,main,None,None,1,1.5009995000436902,220.2487421000842,None,None,1,,,,,,,,,,,,,,003,2022-05-05_17h38.59.445,Main,2022.1.1,59.843115292616034,
negative,yellow,1,k,None,,,,,,,,,0,12,12,12,,,,,,,,,,,,,,,,,main,None,None,1,1.4990419999230653,222.75197079998907,None,None,1,,,,,,,,,,,,,,003,2022-05-05_17h38.59.445,Main,2022.1.1,59.843115292616034,
negative,red,2,None,None,,,,,,,,,0,13,13,13,,,,,,,,,,,,,,,,,main,None,None,1,1.4960857999976724,225.25189980003051,None,None,1,,,,,,,,,,,,,,003,2022-05-05_17h38.59.445,Main,2022.1.1,59.843115292616034,
positive,yellow,2,None,k,,,,,,,,,0,14,14,14,,,,,,,,,,,,,,,,,main,k,k,1,0.7828055000863969,227.74887850007508,None,None,0,,,,,,,,,,,,,,003,2022-05-05_17h38.59.445,Main,2022.1.1,59.843115292616034,
positive,blue,1,k,None,,,,,,,,,0,15,15,15,,,,,,,,,,,,,,,,,main,None,None,1,1.502708299900405,229.53203780006152,None,None,1,,,,,,,,,,,,,,003,2022-05-05_17h38.59.445,Main,2022.1.1,59.843115292616034,
negative,blue,1,None,k,,,,,,,,,0,16,16,16,,,,,,,,,,,,,,,,,main,k,k,1,0.6950805999804288,232.03204940003343,None,None,0,,,,,,,,,,,,,,003,2022-05-05_17h38.59.445,Main,2022.1.1,59.843115292616034,
positive,blue,2,k,None,,,,,,,,,0,17,17,17,,,,,,,,,,,,,,,,,main,None,None,1,1.5027602999471128,233.7320110000437,None,None,1,,,,,,,,,,,,,,003,2022-05-05_17h38.59.445,Main,2022.1.1,59.843115292616034,
negative,blue,2,None,k,,,,,,,,,0,18,18,18,,,,,,,,,,,,,,,,,main,k,k,1,0.7447233001003042,236.2319875000976,None,None,0,,,,,,,,,,,,,,003,2022-05-05_17h38.59.445,Main,2022.1.1,59.843115292616034,
negative,blue,1,None,k,,,,,,,,,0,19,19,19,,,,,,,,,,,,,,,,,main,k,k,1,0.8494394000153989,237.98163669998758,None,None,0,,,,,,,,,,,,,,003,2022-05-05_17h38.59.445,Main,2022.1.1,59.843115292616034,
negative,blue,1,None,k,,,,,,,,,0,20,20,20,,,,,,,,,,,,,,,,,main,k,k,1,0.7157129000406712,239.83501090004575,None,None,0,,,,,,,,,,,,,,003,2022-05-05_17h38.59.445,Main,2022.1.1,59.843115292616034,
negative,blue,2,None,k,,,,,,,,,0,21,21,21,,,,,,,,,,,,,,,,,main,k,k,1,0.665907199960202,241.5486028000014,None,None,0,,,,,,,,,,,,,,003,2022-05-05_17h38.59.445,Main,2022.1.1,59.843115292616034,
negative,red,1,None,None,,,,,,,,,0,22,22,22,,,,,,,,,,,,,,,,,main,None,None,1,1.499480800004676,243.21811660006642,None,None,1,,,,,,,,,,,,,,003,2022-05-05_17h38.59.445,Main,2022.1.1,59.843115292616034,
positive,red,2,None,None,,,,,,,,,0,23,23,23,,,,,,,,,,,,,,,,,main,None,None,1,1.4981953999958932,245.71504460007418,None,None,1,,,,,,,,,,,,,,003,2022-05-05_17h38.59.445,Main,2022.1.1,59.843115292616034,
negative,red,2,None,None,,,,,,,,,0,24,24,24,,,,,,,,,,,,,,,,,main,None,None,1,1.498371799942106,248.2149198000552,None,None,1,,,,,,,,,,,,,,003,2022-05-05_17h38.59.445,Main,2022.1.1,59.843115292616034,
positive,blue,2,k,None,,,,,,,,,0,25,25,25,,,,,,,,,,,,,,,,,main,None,None,1,1.5028191999299452,250.71498460008297,None,None,1,,,,,,,,,,,,,,003,2022-05-05_17h38.59.445,Main,2022.1.1,59.843115292616034,
negative,yellow,1,k,None,,,,,,,,,0,26,26,26,,,,,,,,,,,,,,,,,main,None,None,1,1.4955750999506563,253.2149417999899,None,None,1,,,,,,,,,,,,,,003,2022-05-05_17h38.59.445,Main,2022.1.1,59.843115292616034,
positive,blue,2,k,None,,,,,,,,,0,27,27,27,,,,,,,,,,,,,,,,,main,None,None,1,1.4981607999652624,255.71458410006016,None,None,1,,,,,,,,,,,,,,003,2022-05-05_17h38.59.445,Main,2022.1.1,59.843115292616034,
negative,blue,2,None,k,,,,,,,,,0,28,28,28,,,,,,,,,,,,,,,,,main,k,k,1,0.699179399991408,258.2149046000559,None,None,0,,,,,,,,,,,,,,003,2022-05-05_17h38.59.445,Main,2022.1.1,59.843115292616034,
positive,red,1,None,None,,,,,,,,,0,29,29,29,,,,,,,,,,,,,,,,,main,None,None,1,1.4989975000498816,259.91487690003123,None,None,1,,,,,,,,,,,,,,003,2022-05-05_17h38.59.445,Main,2022.1.1,59.843115292616034,
positive,blue,1,k,None,,,,,,,,,0,30,30,30,,,,,,,,,,,,,,,,,main,None,None,1,1.4995813000714406,262.417840900016,None,None,1,,,,,,,,,,,,,,003,2022-05-05_17h38.59.445,Main,2022.1.1,59.843115292616034,
positive,yellow,1,None,k,,,,,,,,,0,31,31,31,,,,,,,,,,,,,,,,,main,k,k,1,0.8179238999728113,264.9143812999828,None,None,0,,,,,,,,,,,,,,003,2022-05-05_17h38.59.445,Main,2022.1.1,59.843115292616034,
negative,yellow,2,k,None,,,,,,,,,0,32,32,32,,,,,,,,,,,,,,,,,main,None,None,1,1.499047200079076,266.7313903000904,None,None,1,,,,,,,,,,,,,,003,2022-05-05_17h38.59.445,Main,2022.1.1,59.843115292616034,
negative,blue,1,None,k,,,,,,,,,0,33,33,33,,,,,,,,,,,,,,,,,main,k,k,1,0.8131065999623388,269.23429210006725,None,None,0,,,,,,,,,,,,,,003,2022-05-05_17h38.59.445,Main,2022.1.1,59.843115292616034,
positive,blue,1,k,None,,,,,,,,,0,34,34,34,,,,,,,,,,,,,,,,,main,None,None,1,1.4992655999958515,271.0479552000761,None,None,1,,,,,,,,,,,,,,003,2022-05-05_17h38.59.445,Main,2022.1.1,59.843115292616034,
negative,yellow,1,k,None,,,,,,,,,0,35,35,35,,,,,,,,,,,,,,,,,main,None,None,1,1.4979857000289485,273.54758280003443,None,None,1,,,,,,,,,,,,,,003,2022-05-05_17h38.59.445,Main,2022.1.1,59.843115292616034,
positive,yellow,2,None,k,,,,,,,,,0,36,36,36,,,,,,,,,,,,,,,,,main,k,k,1,0.7650470000226051,276.05075480008963,None,None,0,,,,,,,,,,,,,,003,2022-05-05_17h38.59.445,Main,2022.1.1,59.843115292616034,
positive,yellow,2,None,k,,,,,,,,,0,37,37,37,,,,,,,,,,,,,,,,,main,k,k,1,0.748794800019823,277.8144741000142,None,None,0,,,,,,,,,,,,,,003,2022-05-05_17h38.59.445,Main,2022.1.1,59.843115292616034,
negative,yellow,2,k,None,,,,,,,,,0,38,38,38,,,,,,,,,,,,,,,,,main,None,None,1,1.4992740000598133,279.56446130003314,None,None,1,,,,,,,,,,,,,,003,2022-05-05_17h38.59.445,Main,2022.1.1,59.843115292616034,
positive,yellow,1,None,k,,,,,,,,,0,39,39,39,,,,,,,,,,,,,,,,,main,k,k,1,0.749101800029166,282.0640097000869,None,None,0,,,,,,,,,,,,,,003,2022-05-05_17h38.59.445,Main,2022.1.1,59.843115292616034,
negative,yellow,2,k,None,,,,,,,,,0,40,40,40,,,,,,,,,,,,,,,,,main,None,None,1,1.5006177000468597,283.81403390003834,None,None,1,,,,,,,,,,,,,,003,2022-05-05_17h38.59.445,Main,2022.1.1,59.843115292616034,
positive,blue,2,k,None,,,,,,,,,0,41,41,41,,,,,,,,,,,,,,,,,main,None,None,1,1.4961251000640914,286.31722580001224,None,None,1,,,,,,,,,,,,,,003,2022-05-05_17h38.59.445,Main,2022.1.1,59.843115292616034,
positive,blue,2,k,None,,,,,,,,,0,42,42,42,,,,,,,,,,,,,,,,,main,None,None,1,1.4989514999324456,288.81718180002645,None,None,1,,,,,,,,,,,,,,003,2022-05-05_17h38.59.445,Main,2022.1.1,59.843115292616034,
negative,blue,2,None,k,,,,,,,,,0,43,43,43,,,,,,,,,,,,,,,,,main,k,k,1,0.7325105000054464,291.3140598000027,None,None,0,,,,,,,,,,,,,,003,2022-05-05_17h38.59.445,Main,2022.1.1,59.843115292616034,
negative,red,1,None,None,,,,,,,,,0,44,44,44,,,,,,,,,,,,,,,,,main,None,None,1,1.4989622000139207,293.04743370006327,None,None,1,,,,,,,,,,,,,,003,2022-05-05_17h38.59.445,Main,2022.1.1,59.843115292616034,
negative,yellow,1,k,None,,,,,,,,,0,45,45,45,,,,,,,,,,,,,,,,,main,None,None,1,1.4990032999776304,295.547344300081,None,None,1,,,,,,,,,,,,,,003,2022-05-05_17h38.59.445,Main,2022.1.1,59.843115292616034,
negative,yellow,1,k,None,,,,,,,,,0,46,46,46,,,,,,,,,,,,,,,,,main,None,None,1,1.499450400006026,298.04736389999744,None,None,1,,,,,,,,,,,,,,003,2022-05-05_17h38.59.445,Main,2022.1.1,59.843115292616034,
positive,red,1,None,None,,,,,,,,,0,47,47,47,,,,,,,,,,,,,,,,,main,None,None,1,1.5011335000162944,300.5469946000958,None,None,1,,,,,,,,,,,,,,003,2022-05-05_17h38.59.445,Main,2022.1.1,59.843115292616034,
positive,yellow,1,None,k,,,,,,,,,0,48,48,48,,,,,,,,,,,,,,,,,main,k,k,1,0.8964815000072122,303.0472550999839,None,None,0,,,,,,,,,,,,,,003,2022-05-05_17h38.59.445,Main,2022.1.1,59.843115292616034,
negative,blue,1,None,k,,,,,,,,,0,49,49,49,,,,,,,,,,,,,,,,,main,k,k,1,0.7990320000099018,304.950265099993,None,None,0,,,,,,,,,,,,,,003,2022-05-05_17h38.59.445,Main,2022.1.1,59.843115292616034,
positive,yellow,2,None,k,,,,,,,,,0,50,50,50,,,,,,,,,,,,,,,,,main,k,k,1,0.6390584000619128,306.7471788000548,None,None,0,,,,,,,,,,,,,,003,2022-05-05_17h38.59.445,Main,2022.1.1,59.843115292616034,
negative,blue,1,None,k,,,,,,,,,0,51,51,51,,,,,,,,,,,,,,,,,main,k,k,1,0.6089051000308245,308.39212090009823,None,None,0,,,,,,,,,,,,,,003,2022-05-05_17h38.59.445,Main,2022.1.1,59.843115292616034,
positive,red,2,None,None,,,,,,,,,0,52,52,52,,,,,,,,,,,,,,,,,main,None,None,1,1.5023700000019744,309.99674279999454,None,None,1,,,,,,,,,,,,,,003,2022-05-05_17h38.59.445,Main,2022.1.1,59.843115292616034,
positive,yellow,2,None,k,,,,,,,,,0,53,53,53,,,,,,,,,,,,,,,,,main,k,k,1,0.6960542000597343,312.5000491000246,None,None,0,,,,,,,,,,,,,,003,2022-05-05_17h38.59.445,Main,2022.1.1,59.843115292616034,
negative,red,2,None,None,,,,,,,,,0,54,54,54,,,,,,,,,,,,,,,,,main,None,None,1,1.5020339000038803,314.19996250001714,None,None,1,,,,,,,,,,,,,,003,2022-05-05_17h38.59.445,Main,2022.1.1,59.843115292616034,
positive,yellow,1,None,k,,,,,,,,,0,55,55,55,,,,,,,,,,,,,,,,,main,k,k,1,0.7462671999819577,316.69694699998945,None,None,0,,,,,,,,,,,,,,003,2022-05-05_17h38.59.445,Main,2022.1.1,59.843115292616034,
negative,blue,2,None,k,,,,,,,,,0,56,56,56,,,,,,,,,,,,,,,,,main,k,k,1,0.781991200055927,318.4469323999947,None,None,0,,,,,,,,,,,,,,003,2022-05-05_17h38.59.445,Main,2022.1.1,59.843115292616034,
positive,blue,1,k,None,,,,,,,,,0,57,57,57,,,,,,,,,,,,,,,,,main,None,None,1,1.4992680998984724,320.22983680001926,None,None,1,,,,,,,,,,,,,,003,2022-05-05_17h38.59.445,Main,2022.1.1,59.843115292616034,
positive,blue,1,k,None,,,,,,,,,0,58,58,58,,,,,,,,,,,,,,,,,main,None,None,1,1.5019639999372885,322.73016780009493,None,None,1,,,,,,,,,,,,,,003,2022-05-05_17h38.59.445,Main,2022.1.1,59.843115292616034,
negative,yellow,2,k,None,,,,,,,,,0,59,59,59,,,,,,,,,,,,,,,,,main,None,None,1,1.498833900084719,325.23311850009486,None,None,1,,,,,,,,,,,,,,003,2022-05-05_17h38.59.445,Main,2022.1.1,59.843115292616034,
positive,red,2,None,None,,,,,,,,,0,60,60,60,,,,,,,,,,,,,,,,,main,None,None,1,1.4968672000104561,327.7297886000015,None,None,1,,,,,,,,,,,,,,003,2022-05-05_17h38.59.445,Main,2022.1.1,59.843115292616034,
negative,yellow,1,k,None,,,,,,,,,0,61,61,61,,,,,,,,,,,,,,,,,main,None,None,1,1.4981536000268534,330.2296996000223,None,None,1,,,,,,,,,,,,,,003,2022-05-05_17h38.59.445,Main,2022.1.1,59.843115292616034,
negative,red,1,None,None,,,,,,,,,0,62,62,62,,,,,,,,,,,,,,,,,main,None,None,1,1.5022337000118569,332.72995579999406,None,None,1,,,,,,,,,,,,,,003,2022-05-05_17h38.59.445,Main,2022.1.1,59.843115292616034,
negative,blue,1,None,k,,,,,,,,,0,63,63,63,,,,,,,,,,,,,,,,,main,k,k,1,0.8791444000089541,335.2327939000679,None,None,0,,,,,,,,,,,,,,003,2022-05-05_17h38.59.445,Main,2022.1.1,59.843115292616034,
positive,blue,2,k,None,,,,,,,,,0,64,64,64,,,,,,,,,,,,,,,,,main,None,None,1,1.5022571999579668,337.1127997000003,None,None,1,,,,,,,,,,,,,,003,2022-05-05_17h38.59.445,Main,2022.1.1,59.843115292616034,
negative,yellow,2,k,None,,,,,,,,,0,65,65,65,,,,,,,,,,,,,,,,,main,None,None,1,1.4990450999466702,339.61312870006077,None,None,1,,,,,,,,,,,,,,003,2022-05-05_17h38.59.445,Main,2022.1.1,59.843115292616034,
positive,yellow,2,None,k,,,,,,,,,0,66,66,66,,,,,,,,,,,,,,,,,main,k,k,1,0.6130837999517098,342.11603500007186,None,None,0,,,,,,,,,,,,,,003,2022-05-05_17h38.59.445,Main,2022.1.1,59.843115292616034,
positive,yellow,2,None,k,,,,,,,,,0,67,67,67,,,,,,,,,,,,,,,,,main,k,k,1,0.6499472999712452,343.73268980009016,None,None,0,,,,,,,,,,,,,,003,2022-05-05_17h38.59.445,Main,2022.1.1,59.843115292616034,
positive,red,1,None,None,,,,,,,,,0,68,68,68,,,,,,,,,,,,,,,,,main,None,None,1,1.4977352999849245,345.38258159998804,None,None,1,,,,,,,,,,,,,,003,2022-05-05_17h38.59.445,Main,2022.1.1,59.843115292616034,
positive,yellow,1,None,k,,,,,,,,,0,69,69,69,,,,,,,,,,,,,,,,,main,k,k,1,0.6817032999824733,347.87929970002733,None,None,0,,,,,,,,,,,,,,003,2022-05-05_17h38.59.445,Main,2022.1.1,59.843115292616034,
negative,yellow,2,k,None,,,,,,,,,0,70,70,70,,,,,,,,,,,,,,,,,main,None,None,1,1.4992145999567583,349.61563450004905,None,None,1,,,,,,,,,,,,,,003,2022-05-05_17h38.59.445,Main,2022.1.1,59.843115292616034,
positive,yellow,1,None,k,,,,,,,,,0,71,71,71,,,,,,,,,,,,,,,,,main,k,k,1,0.8489388000452891,352.0628662999952,None,None,0,,,,,,,,,,,,,,003,2022-05-05_17h38.59.445,Main,2022.1.1,59.843115292616034,
negative,blue,1,None,k,,,,,,,,,0,72,72,72,,,,,,,,,,,,,,,,,main,k,k,1,0.7155430000275373,353.912825300009,None,None,0,,,,,,,,,,,,,,003,2022-05-05_17h38.59.445,Main,2022.1.1,59.843115292616034,
negative,red,2,None,None,,,,,,,,,0,73,73,73,,,,,,,,,,,,,,,,,main,None,None,1,1.5020131999626756,355.629093100084,None,None,1,,,,,,,,,,,,,,003,2022-05-05_17h38.59.445,Main,2022.1.1,59.843115292616034,
positive,blue,2,k,None,,,,,,,,,0,74,74,74,,,,,,,,,,,,,,,,,main,None,None,1,1.4963284000987187,358.1322844000533,None,None,1,,,,,,,,,,,,,,003,2022-05-05_17h38.59.445,Main,2022.1.1,59.843115292616034,
negative,blue,2,None,k,,,,,,,,,0,75,75,75,,,,,,,,,,,,,,,,,main,k,k,1,0.7327016000635922,360.629351300071,None,None,0,,,,,,,,,,,,,,003,2022-05-05_17h38.59.445,Main,2022.1.1,59.843115292616034,
negative,blue,2,None,k,,,,,,,,,0,76,76,76,,,,,,,,,,,,,,,,,main,k,k,1,0.7495812000706792,362.3626406000694,None,None,0,,,,,,,,,,,,,,003,2022-05-05_17h38.59.445,Main,2022.1.1,59.843115292616034,
negative,yellow,1,k,None,,,,,,,,,0,77,77,77,,,,,,,,,,,,,,,,,main,None,None,1,1.4988127000397071,364.1125600000378,None,None,1,,,,,,,,,,,,,,003,2022-05-05_17h38.59.445,Main,2022.1.1,59.843115292616034,
positive,blue,1,k,None,,,,,,,,,0,78,78,78,,,,,,,,,,,,,,,,,main,None,None,1,1.497657599975355,366.612497300026,None,None,1,,,,,,,,,,,,,,003,2022-05-05_17h38.59.445,Main,2022.1.1,59.843115292616034,
positive,blue,1,k,None,,,,,,,,,0,79,79,79,,,,,,,,,,,,,,,,,main,None,None,1,1.5019260999979451,369.1124655000167,None,None,1,,,,,,,,,,,,,,003,2022-05-05_17h38.59.445,Main,2022.1.1,59.843115292616034,
positive,red,2,None,None,,,,,,,,,0,80,80,80,,,,,,,,,,,,,,,,,main,None,None,1,1.4968215000117198,371.6123773000436,None,None,1,,,,,,,,,,,,,,003,2022-05-05_17h38.59.445,Main,2022.1.1,59.843115292616034,
positive,yellow,2,None,k,,,,,,,,,0,81,81,81,,,,,,,,,,,,,,,,,main,k,k,1,0.6493046999676153,374.11200170009397,None,None,0,,,,,,,,,,,,,,003,2022-05-05_17h38.59.445,Main,2022.1.1,59.843115292616034,
positive,blue,1,k,None,,,,,,,,,0,82,82,82,,,,,,,,,,,,,,,,,main,None,None,1,1.4978179999161512,375.76204440009315,None,None,1,,,,,,,,,,,,,,003,2022-05-05_17h38.59.445,Main,2022.1.1,59.843115292616034,
negative,yellow,2,k,None,,,,,,,,,0,83,83,83,,,,,,,,,,,,,,,,,main,None,None,1,1.5029100999236107,378.2623045000946,None,None,1,,,,,,,,,,,,,,003,2022-05-05_17h38.59.445,Main,2022.1.1,59.843115292616034,
positive,blue,2,k,None,,,,,,,,,0,84,84,84,,,,,,,,,,,,,,,,,main,None,None,1,1.4959246999351308,380.7652167000342,None,None,1,,,,,,,,,,,,,,003,2022-05-05_17h38.59.445,Main,2022.1.1,59.843115292616034,
positive,yellow,1,None,k,,,,,,,,,0,85,85,85,,,,,,,,,,,,,,,,,main,k,k,1,0.6644666999345645,383.2618125000736,None,None,0,,,,,,,,,,,,,,003,2022-05-05_17h38.59.445,Main,2022.1.1,59.843115292616034,
positive,blue,2,k,None,,,,,,,,,0,86,86,86,,,,,,,,,,,,,,,,,main,None,None,1,1.4990317999618128,384.92850420007017,None,None,1,,,,,,,,,,,,,,003,2022-05-05_17h38.59.445,Main,2022.1.1,59.843115292616034,
positive,blue,1,k,None,,,,,,,,,0,87,87,87,,,,,,,,,,,,,,,,,main,None,None,1,1.498954499955289,387.42877510003746,None,None,1,,,,,,,,,,,,,,003,2022-05-05_17h38.59.445,Main,2022.1.1,59.843115292616034,
negative,yellow,2,k,None,,,,,,,,,0,88,88,88,,,,,,,,,,,,,,,,,main,None,None,1,1.4997680999804288,389.928719400079,None,None,1,,,,,,,,,,,,,,003,2022-05-05_17h38.59.445,Main,2022.1.1,59.843115292616034,
negative,blue,2,None,k,,,,,,,,,0,89,89,89,,,,,,,,,,,,,,,,,main,k,k,1,0.8489724000683054,392.4282705000369,None,None,0,,,,,,,,,,,,,,003,2022-05-05_17h38.59.445,Main,2022.1.1,59.843115292616034,
positive,yellow,2,None,k,,,,,,,,,0,90,90,90,,,,,,,,,,,,,,,,,main,k,k,1,0.7825798999983817,394.2783081000671,None,None,0,,,,,,,,,,,,,,003,2022-05-05_17h38.59.445,Main,2022.1.1,59.843115292616034,
negative,yellow,1,k,None,,,,,,,,,0,91,91,91,,,,,,,,,,,,,,,,,main,None,None,1,1.5009346000151709,396.0648796000751,None,None,1,,,,,,,,,,,,,,003,2022-05-05_17h38.59.445,Main,2022.1.1,59.843115292616034,
negative,red,2,None,None,,,,,,,,,0,92,92,92,,,,,,,,,,,,,,,,,main,None,None,1,1.4959668000228703,398.5647602000972,None,None,1,,,,,,,,,,,,,,003,2022-05-05_17h38.59.445,Main,2022.1.1,59.843115292616034,
negative,blue,2,None,k,,,,,,,,,0,93,93,93,,,,,,,,,,,,,,,,,main,k,k,1,0.8159101000055671,401.0614348000381,None,None,0,,,,,,,,,,,,,,003,2022-05-05_17h38.59.445,Main,2022.1.1,59.843115292616034,
negative,blue,1,None,k,,,,,,,,,0,94,94,94,,,,,,,,,,,,,,,,,main,k,k,1,0.7662329999729991,402.87811440008227,None,None,0,,,,,,,,,,,,,,003,2022-05-05_17h38.59.445,Main,2022.1.1,59.843115292616034,
negative,blue,1,None,k,,,,,,,,,0,95,95,95,,,,,,,,,,,,,,,,,main,k,k,1,0.6991242000367492,404.64506960008293,None,None,0,,,,,,,,,,,,,,003,2022-05-05_17h38.59.445,Main,2022.1.1,59.843115292616034,
negative,red,1,None,None,,,,,,,,,0,96,96,96,,,,,,,,,,,,,,,,,main,None,None,1,1.5019482000498101,406.3480213000439,None,None,1,,,,,,,,,,,,,,003,2022-05-05_17h38.59.445,Main,2022.1.1,59.843115292616034,
positive,yellow,1,None,k,,,,,,,,,0,97,97,97,,,,,,,,,,,,,,,,,main,k,k,1,0.6958857999416068,408.84496640006546,None,None,0,,,,,,,,,,,,,,003,2022-05-05_17h38.59.445,Main,2022.1.1,59.843115292616034,
negative,yellow,1,k,None,,,,,,,,,0,98,98,98,,,,,,,,,,,,,,,,,main,None,None,1,1.4991684999549761,410.5445613000775,None,None,1,,,,,,,,,,,,,,003,2022-05-05_17h38.59.445,Main,2022.1.1,59.843115292616034,
positive,red,1,None,None,,,,,,,,,0,99,99,99,,,,,,,,,,,,,,,,,main,None,None,1,1.4991566999815404,413.04782910004724,None,None,1,,,,,,,,,,,,,,003,2022-05-05_17h38.59.445,Main,2022.1.1,59.843115292616034,
positive,blue,1,k,None,,,,,,,,,0,100,100,100,,,,,,,,,,,,,,,,,main,None,None,1,1.4992228000191972,415.54779650003184,None,None,1,,,,,,,,,,,,,,003,2022-05-05_17h38.59.445,Main,2022.1.1,59.843115292616034,
negative,yellow,1,k,None,,,,,,,,,0,101,101,101,,,,,,,,,,,,,,,,,main,None,None,1,1.4989496999187395,418.0447658000048,None,None,1,,,,,,,,,,,,,,003,2022-05-05_17h38.59.445,Main,2022.1.1,59.843115292616034,
negative,blue,2,None,k,,,,,,,,,0,102,102,102,,,,,,,,,,,,,,,,,main,k,k,1,0.8825926000718027,420.544586300035,None,None,0,,,,,,,,,,,,,,003,2022-05-05_17h38.59.445,Main,2022.1.1,59.843115292616034,
negative,yellow,2,k,None,,,,,,,,,0,103,103,103,,,,,,,,,,,,,,,,,main,None,None,1,1.4987853999482468,422.4279138999991,None,None,1,,,,,,,,,,,,,,003,2022-05-05_17h38.59.445,Main,2022.1.1,59.843115292616034,
positive,yellow,2,None,k,,,,,,,,,0,104,104,104,,,,,,,,,,,,,,,,,main,k,k,1,0.6325745000503957,424.9279153000098,None,None,0,,,,,,,,,,,,,,003,2022-05-05_17h38.59.445,Main,2022.1.1,59.843115292616034,
positive,blue,1,k,None,,,,,,,,,0,105,105,105,,,,,,,,,,,,,,,,,main,None,None,1,1.4994814000092447,426.5642285000067,None,None,1,,,,,,,,,,,,,,003,2022-05-05_17h38.59.445,Main,2022.1.1,59.843115292616034,
positive,blue,2,k,None,,,,,,,,,0,106,106,106,,,,,,,,,,,,,,,,,main,None,None,1,1.4982277000090107,429.06081789999735,None,None,1,,,,,,,,,,,,,,003,2022-05-05_17h38.59.445,Main,2022.1.1,59.843115292616034,
negative,blue,1,None,k,,,,,,,,,0,107,107,107,,,,,,,,,,,,,,,,,main,k,k,1,0.74916840007063,431.5611538999947,None,None,0,,,,,,,,,,,,,,003,2022-05-05_17h38.59.445,Main,2022.1.1,59.843115292616034,
positive,yellow,2,None,k,,,,,,,,,0,108,108,108,,,,,,,,,,,,,,,,,main,k,k,1,0.6325133999343961,433.31111620005686,None,None,0,,,,,,,,,,,,,,003,2022-05-05_17h38.59.445,Main,2022.1.1,59.843115292616034,
negative,yellow,1,k,None,,,,,,,,,0,109,109,109,,,,,,,,,,,,,,,,,main,None,None,1,1.5025887999217957,434.9474397000158,None,None,1,,,,,,,,,,,,,,003,2022-05-05_17h38.59.445,Main,2022.1.1,59.843115292616034,
negative,blue,2,None,k,,,,,,,,,0,110,110,110,,,,,,,,,,,,,,,,,main,k,k,1,0.8117590999463573,437.4442178000463,None,None,0,,,,,,,,,,,,,,003,2022-05-05_17h38.59.445,Main,2022.1.1,59.843115292616034,
positive,blue,2,k,None,,,,,,,,,0,111,111,111,,,,,,,,,,,,,,,,,main,None,None,1,1.4996158999856561,439.2609708000673,None,None,1,,,,,,,,,,,,,,003,2022-05-05_17h38.59.445,Main,2022.1.1,59.843115292616034,
negative,blue,1,None,k,,,,,,,,,0,112,112,112,,,,,,,,,,,,,,,,,main,k,k,1,0.8149640000192448,441.7608127000276,None,None,0,,,,,,,,,,,,,,003,2022-05-05_17h38.59.445,Main,2022.1.1,59.843115292616034,
positive,yellow,1,None,k,,,,,,,,,0,113,113,113,,,,,,,,,,,,,,,,,main,k,k,1,0.7324949000030756,443.57748560002074,None,None,0,,,,,,,,,,,,,,003,2022-05-05_17h38.59.445,Main,2022.1.1,59.843115292616034,
negative,red,1,None,None,,,,,,,,,0,114,114,114,,,,,,,,,,,,,,,,,main,None,None,1,1.4993838999653235,445.3180794999935,None,None,1,,,,,,,,,,,,,,003,2022-05-05_17h38.59.445,Main,2022.1.1,59.843115292616034,
positive,red,1,None,None,,,,,,,,,0,115,115,115,,,,,,,,,,,,,,,,,main,None,None,1,1.498798199929297,447.8104742000578,None,None,1,,,,,,,,,,,,,,003,2022-05-05_17h38.59.445,Main,2022.1.1,59.843115292616034,
negative,red,2,None,None,,,,,,,,,0,116,116,116,,,,,,,,,,,,,,,,,main,None,None,1,1.4983778001042083,450.31073280004784,None,None,1,,,,,,,,,,,,,,003,2022-05-05_17h38.59.445,Main,2022.1.1,59.843115292616034,
negative,yellow,2,k,None,,,,,,,,,0,117,117,117,,,,,,,,,,,,,,,,,main,None,None,1,1.4994688000297174,452.8136503000278,None,None,1,,,,,,,,,,,,,,003,2022-05-05_17h38.59.445,Main,2022.1.1,59.843115292616034,
positive,yellow,1,None,k,,,,,,,,,0,118,118,118,,,,,,,,,,,,,,,,,main,k,k,1,0.7013761999551207,455.31025440001395,None,None,0,,,,,,,,,,,,,,003,2022-05-05_17h38.59.445,Main,2022.1.1,59.843115292616034,
positive,red,2,None,None,,,,,,,,,0,119,119,119,,,,,,,,,,,,,,,,,main,None,None,1,1.4989124999847263,457.01060510007665,None,None,1,,,,,,,,,,,,,,003,2022-05-05_17h38.59.445,Main,2022.1.1,59.843115292616034,
positive,blue,2,k,None,,,,,,,,,0,120,120,120,,,,,,,,,,,,,,,,,main,None,None,1,1.4961455999873579,459.5134955000831,None,None,1,,,,,,,,,,,,,,003,2022-05-05_17h38.59.445,Main,2022.1.1,59.843115292616034,
negative,red,1,None,None,,,,,,,,,0,121,121,121,,,,,,,,,,,,,,,,,main,None,None,1,1.4988658999791369,462.01048860000446,None,None,1,,,,,,,,,,,,,,003,2022-05-05_17h38.59.445,Main,2022.1.1,59.843115292616034,
positive,yellow,2,None,k,,,,,,,,,0,122,122,122,,,,,,,,,,,,,,,,,main,k,k,1,0.7824648999376222,464.51030550000723,None,None,0,,,,,,,,,,,,,,003,2022-05-05_17h38.59.445,Main,2022.1.1,59.843115292616034,
negative,red,2,None,None,,,,,,,,,0,123,123,123,,,,,,,,,,,,,,,,,main,None,None,1,1.5025814000982791,466.29368530004285,None,None,1,,,,,,,,,,,,,,003,2022-05-05_17h38.59.445,Main,2022.1.1,59.843115292616034,
negative,yellow,2,k,None,,,,,,,,,0,124,124,124,,,,,,,,,,,,,,,,,main,None,None,1,1.4950468000024557,468.7935828000773,None,None,1,,,,,,,,,,,,,,003,2022-05-05_17h38.59.445,Main,2022.1.1,59.843115292616034,
positive,red,1,None,None,,,,,,,,,0,125,125,125,,,,,,,,,,,,,,,,,main,None,None,1,1.4995321000460535,471.29356890008785,None,None,1,,,,,,,,,,,,,,003,2022-05-05_17h38.59.445,Main,2022.1.1,59.843115292616034,
negative,blue,2,None,k,,,,,,,,,0,126,126,126,,,,,,,,,,,,,,,,,main,k,k,1,0.6819604999618605,473.7931913000066,None,None,0,,,,,,,,,,,,,,003,2022-05-05_17h38.59.445,Main,2022.1.1,59.843115292616034,
negative,blue,1,None,k,,,,,,,,,0,127,127,127,,,,,,,,,,,,,,,,,main,k,k,1,0.799160199938342,475.47979410004336,None,None,0,,,,,,,,,,,,,,003,2022-05-05_17h38.59.445,Main,2022.1.1,59.843115292616034,
negative,yellow,1,k,None,,,,,,,,,0,128,128,128,,,,,,,,,,,,,,,,,main,None,None,1,1.5019831999670714,477.2797725000419,None,None,1,,,,,,,,,,,,,,003,2022-05-05_17h38.59.445,Main,2022.1.1,59.843115292616034,
negative,yellow,1,k,None,,,,,,,,,0,129,129,129,,,,,,,,,,,,,,,,,main,None,None,1,1.4964259000262246,479.77675369998906,None,None,1,,,,,,,,,,,,,,003,2022-05-05_17h38.59.445,Main,2022.1.1,59.843115292616034,
positive,blue,1,k,None,,,,,,,,,0,130,130,130,,,,,,,,,,,,,,,,,main,None,None,1,1.501427400042303,482.2763345000567,None,None,1,,,,,,,,,,,,,,003,2022-05-05_17h38.59.445,Main,2022.1.1,59.843115292616034,
negative,blue,1,None,k,,,,,,,,,0,131,131,131,,,,,,,,,,,,,,,,,main,k,k,1,0.6970406000036746,484.77665850007907,None,None,0,,,,,,,,,,,,,,003,2022-05-05_17h38.59.445,Main,2022.1.1,59.843115292616034,
negative,blue,2,None,k,,,,,,,,,0,132,132,132,,,,,,,,,,,,,,,,,main,k,k,1,0.8146609999239445,486.47662159998436,None,None,0,,,,,,,,,,,,,,003,2022-05-05_17h38.59.445,Main,2022.1.1,59.843115292616034,
positive,blue,2,k,None,,,,,,,,,0,133,133,133,,,,,,,,,,,,,,,,,main,None,None,1,1.4994206000119448,488.2932399000274,None,None,1,,,,,,,,,,,,,,003,2022-05-05_17h38.59.445,Main,2022.1.1,59.843115292616034,
positive,red,2,None,None,,,,,,,,,0,134,134,134,,,,,,,,,,,,,,,,,main,None,None,1,1.4982799000572413,490.7928740000352,None,None,1,,,,,,,,,,,,,,003,2022-05-05_17h38.59.445,Main,2022.1.1,59.843115292616034,
negative,yellow,2,k,None,,,,,,,,,0,135,135,135,,,,,,,,,,,,,,,,,main,None,None,1,1.5020384000381455,493.2961091999896,None,None,1,,,,,,,,,,,,,,003,2022-05-05_17h38.59.445,Main,2022.1.1,59.843115292616034,
positive,yellow,2,None,k,,,,,,,,,0,136,136,136,,,,,,,,,,,,,,,,,main,k,k,1,0.6462402999168262,495.7959770000307,None,None,0,,,,,,,,,,,,,,003,2022-05-05_17h38.59.445,Main,2022.1.1,59.843115292616034,
positive,blue,1,k,None,,,,,,,,,0,137,137,137,,,,,,,,,,,,,,,,,main,None,None,1,1.4987881000852212,497.443047100096,None,None,1,,,,,,,,,,,,,,003,2022-05-05_17h38.59.445,Main,2022.1.1,59.843115292616034,
positive,yellow,1,None,k,,,,,,,,,0,138,138,138,,,,,,,,,,,,,,,,,main,k,k,1,0.76637679990381,499.9429325000383,None,None,0,,,,,,,,,,,,,,003,2022-05-05_17h38.59.445,Main,2022.1.1,59.843115292616034,
positive,yellow,1,None,k,,,,,,,,,0,139,139,139,,,,,,,,,,,,,,,,,main,k,k,1,0.7317484000232071,501.7096297000535,None,None,0,,,,,,,,,,,,,,003,2022-05-05_17h38.59.445,Main,2022.1.1,59.843115292616034,
positive,yellow,1,None,k,,,,,,,,,0,140,140,140,,,,,,,,,,,,,,,,,main,k,k,1,0.6992619000375271,503.44283429998904,None,None,0,,,,,,,,,,,,,,003,2022-05-05_17h38.59.445,Main,2022.1.1,59.843115292616034,
positive,blue,1,k,None,,,,,,,,,0,141,141,141,,,,,,,,,,,,,,,,,main,None,None,1,1.498945500003174,505.145775699988,None,None,1,,,,,,,,,,,,,,003,2022-05-05_17h38.59.445,Main,2022.1.1,59.843115292616034,
positive,blue,2,k,None,,,,,,,,,0,142,142,142,,,,,,,,,,,,,,,,,main,None,None,1,1.4995972000760958,507.64277849998325,None,None,1,,,,,,,,,,,,,,003,2022-05-05_17h38.59.445,Main,2022.1.1,59.843115292616034,
positive,yellow,2,None,k,,,,,,,,,0,143,143,143,,,,,,,,,,,,,,,,,main,k,k,1,0.9180690000066534,510.1424915000098,None,None,0,,,,,,,,,,,,,,003,2022-05-05_17h38.59.445,Main,2022.1.1,59.843115292616034,
negative,yellow,2,k,None,,,,,,,,,0,144,144,144,,,,,,,,,,,,,,,,,main,None,None,1,1.4988827999914065,512.0623714000685,None,None,1,,,,,,,,,,,,,,003,2022-05-05_17h38.59.445,Main,2022.1.1,59.843115292616034,
negative,blue,2,None,k,,,,,,,,,0,145,145,145,,,,,,,,,,,,,,,,,main,k,k,1,0.6963225000072271,514.5593493999913,None,None,0,,,,,,,,,,,,,,003,2022-05-05_17h38.59.445,Main,2022.1.1,59.843115292616034,
negative,red,1,None,None,,,,,,,,,0,146,146,146,,,,,,,,,,,,,,,,,main,None,None,1,1.4995400999905542,516.2593094999902,None,None,1,,,,,,,,,,,,,,003,2022-05-05_17h38.59.445,Main,2022.1.1,59.843115292616034,
positive,blue,1,k,None,,,,,,,,,0,147,147,147,,,,,,,,,,,,,,,,,main,None,None,1,1.4983920000959188,518.7588815999916,None,None,1,,,,,,,,,,,,,,003,2022-05-05_17h38.59.445,Main,2022.1.1,59.843115292616034,
positive,yellow,1,None,k,,,,,,,,,0,148,148,148,,,,,,,,,,,,,,,,,main,k,k,1,0.6853153000120074,521.2592023999896,None,None,0,,,,,,,,,,,,,,003,2022-05-05_17h38.59.445,Main,2022.1.1,59.843115292616034,
negative,red,2,None,None,,,,,,,,,0,149,149,149,,,,,,,,,,,,,,,,,main,None,None,1,1.4989258999703452,522.9424951000838,None,None,1,,,,,,,,,,,,,,003,2022-05-05_17h38.59.445,Main,2022.1.1,59.843115292616034,
negative,blue,1,None,k,,,,,,,,,0,150,150,150,,,,,,,,,,,,,,,,,main,k,k,1,0.8868349000113085,525.4454109000508,None,None,0,,,,,,,,,,,,,,003,2022-05-05_17h38.59.445,Main,2022.1.1,59.843115292616034,
negative,yellow,2,k,None,,,,,,,,,0,151,151,151,,,,,,,,,,,,,,,,,main,None,None,1,1.4922537000384182,527.3328676000237,None,None,1,,,,,,,,,,,,,,003,2022-05-05_17h38.59.445,Main,2022.1.1,59.843115292616034,
negative,blue,2,None,k,,,,,,,,,0,152,152,152,,,,,,,,,,,,,,,,,main,k,k,1,0.8150387000059709,529.8255977000808,None,None,0,,,,,,,,,,,,,,003,2022-05-05_17h38.59.445,Main,2022.1.1,59.843115292616034,
negative,yellow,1,k,None,,,,,,,,,0,153,153,153,,,,,,,,,,,,,,,,,main,None,None,1,1.501726199989207,531.6423003000673,None,None,1,,,,,,,,,,,,,,003,2022-05-05_17h38.59.445,Main,2022.1.1,59.843115292616034,
negative,blue,1,None,k,,,,,,,,,0,154,154,154,,,,,,,,,,,,,,,,,main,k,k,1,0.8639175000134856,534.1421865000157,None,None,0,,,,,,,,,,,,,,003,2022-05-05_17h38.59.445,Main,2022.1.1,59.843115292616034,
positive,yellow,2,None,k,,,,,,,,,0,155,155,155,,,,,,,,,,,,,,,,,main,k,k,1,0.8154247000347823,536.0085056000389,None,None,0,,,,,,,,,,,,,,003,2022-05-05_17h38.59.445,Main,2022.1.1,59.843115292616034,
positive,red,2,None,None,,,,,,,,,0,156,156,156,,,,,,,,,,,,,,,,,main,None,None,1,1.496584999957122,537.8251981000649,None,None,1,,,,,,,,,,,,,,003,2022-05-05_17h38.59.445,Main,2022.1.1,59.843115292616034,
positive,red,1,None,None,,,,,,,,,0,157,157,157,,,,,,,,,,,,,,,,,main,None,None,1,1.5012106000212952,540.3284075000556,None,None,1,,,,,,,,,,,,,,003,2022-05-05_17h38.59.445,Main,2022.1.1,59.843115292616034,
positive,blue,2,k,None,,,,,,,,,0,158,158,158,,,,,,,,,,,,,,,,,main,None,None,1,1.4968786999816075,542.8254014999839,None,None,1,,,,,,,,,,,,,,003,2022-05-05_17h38.59.445,Main,2022.1.1,59.843115292616034,
negative,yellow,1,k,None,,,,,,,,,0,159,159,159,,,,,,,,,,,,,,,,,main,None,None,1,1.497626299969852,545.3252285000635,None,None,1,,,,,,,,,,,,,,003,2022-05-05_17h38.59.445,Main,2022.1.1,59.843115292616034,
negative,red,2,None,None,,,,,,,,,0,160,160,160,,,,,,,,,,,,,,,,,main,None,None,1,1.5018008999759331,547.825248899986,None,None,1,,,,,,,,,,,,,,003,2022-05-05_17h38.59.445,Main,2022.1.1,59.843115292616034,
negative,blue,1,None,k,,,,,,,,,0,161,161,161,,,,,,,,,,,,,,,,,main,k,k,1,0.7786979000084102,550.3251707000891,None,None,0,,,,,,,,,,,,,,003,2022-05-05_17h38.59.445,Main,2022.1.1,59.843115292616034,
negative,blue,1,None,k,,,,,,,,,0,162,162,162,,,,,,,,,,,,,,,,,main,k,k,1,1.5158724000211805,552.1084795000497,None,None,0,,,,,,,,,,,,,,003,2022-05-05_17h38.59.445,Main,2022.1.1,59.843115292616034,
negative,yellow,1,k,None,,,,,,,,,0,163,163,163,,,,,,,,,,,,,,,,,main,None,None,1,1.5005269999383017,555.628101499984,None,None,1,,,,,,,,,,,,,,003,2022-05-05_17h38.59.445,Main,2022.1.1,59.843115292616034,
negative,yellow,1,k,None,,,,,,,,,0,164,164,164,,,,,,,,,,,,,,,,,main,None,None,1,1.4958405999932438,558.1250687000575,None,None,1,,,,,,,,,,,,,,003,2022-05-05_17h38.59.445,Main,2022.1.1,59.843115292616034,
positive,yellow,1,None,k,,,,,,,,,0,165,165,165,,,,,,,,,,,,,,,,,main,k,k,1,0.7664701999165118,560.6280432000058,None,None,0,,,,,,,,,,,,,,003,2022-05-05_17h38.59.445,Main,2022.1.1,59.843115292616034,
negative,red,1,None,None,,,,,,,,,0,166,166,166,,,,,,,,,,,,,,,,,main,None,None,1,1.4982370999641716,562.391268300009,None,None,1,,,,,,,,,,,,,,003,2022-05-05_17h38.59.445,Main,2022.1.1,59.843115292616034,
negative,yellow,2,k,None,,,,,,,,,0,167,167,167,,,,,,,,,,,,,,,,,main,None,None,1,1.5019084000959992,564.8945558000123,None,None,1,,,,,,,,,,,,,,003,2022-05-05_17h38.59.445,Main,2022.1.1,59.843115292616034,
positive,blue,2,k,None,,,,,,,,,0,168,168,168,,,,,,,,,,,,,,,,,main,None,None,1,1.4960964999627322,567.3915243000956,None,None,1,,,,,,,,,,,,,,003,2022-05-05_17h38.59.445,Main,2022.1.1,59.843115292616034,
positive,red,2,None,None,,,,,,,,,0,169,169,169,,,,,,,,,,,,,,,,,main,None,None,1,1.4995515000773594,569.8914682000177,None,None,1,,,,,,,,,,,,,,003,2022-05-05_17h38.59.445,Main,2022.1.1,59.843115292616034,
positive,red,1,None,None,,,,,,,,,0,170,170,170,,,,,,,,,,,,,,,,,main,None,None,1,1.5012662999797612,572.3911077000666,None,None,1,,,,,,,,,,,,,,003,2022-05-05_17h38.59.445,Main,2022.1.1,59.843115292616034,
negative,blue,2,None,k,,,,,,,,,0,171,171,171,,,,,,,,,,,,,,,,,main,k,k,1,0.8826283999951556,574.8913739999989,None,None,0,,,,,,,,,,,,,,003,2022-05-05_17h38.59.445,Main,2022.1.1,59.843115292616034,
positive,blue,2,k,None,,,,,,,,,0,172,172,172,,,,,,,,,,,,,,,,,main,None,None,1,1.4960276000201702,576.7776143000228,None,None,1,,,,,,,,,,,,,,003,2022-05-05_17h38.59.445,Main,2022.1.1,59.843115292616034,
negative,yellow,2,k,None,,,,,,,,,0,173,173,173,,,,,,,,,,,,,,,,,main,None,None,1,1.4990941000869498,579.2746021000203,None,None,1,,,,,,,,,,,,,,003,2022-05-05_17h38.59.445,Main,2022.1.1,59.843115292616034,
positive,yellow,2,None,k,,,,,,,,,0,174,174,174,,,,,,,,,,,,,,,,,main,k,k,1,0.7159115999238566,581.7744384000544,None,None,0,,,,,,,,,,,,,,003,2022-05-05_17h38.59.445,Main,2022.1.1,59.843115292616034,
negative,blue,2,None,k,,,,,,,,,0,175,175,175,,,,,,,,,,,,,,,,,main,k,k,1,0.7989859000081196,583.4910923000425,None,None,0,,,,,,,,,,,,,,003,2022-05-05_17h38.59.445,Main,2022.1.1,59.843115292616034,
positive,blue,1,k,None,,,,,,,,,0,176,176,176,,,,,,,,,,,,,,,,,main,None,None,1,1.5018522000173107,585.2911413999973,None,None,1,,,,,,,,,,,,,,003,2022-05-05_17h38.59.445,Main,2022.1.1,59.843115292616034,
positive,yellow,1,None,k,,,,,,,,,0,177,177,177,,,,,,,,,,,,,,,,,main,k,k,1,0.6626338000642136,587.7909421999939,None,None,0,,,,,,,,,,,,,,003,2022-05-05_17h38.59.445,Main,2022.1.1,59.843115292616034,
positive,blue,1,k,None,,,,,,,,,0,178,178,178,,,,,,,,,,,,,,,,,main,None,None,1,1.4997071999823675,589.4573546000756,None,None,1,,,,,,,,,,,,,,003,2022-05-05_17h38.59.445,Main,2022.1.1,59.843115292616034,
positive,yellow,2,None,k,,,,,,,,,0,179,179,179,,,,,,,,,,,,,,,,,main,k,k,1,0.7651750999502838,591.9573367000557,None,None,0,,,,,,,,,,,,,,003,2022-05-05_17h38.59.445,Main,2022.1.1,59.843115292616034,
positive,blue,1,k,None,,,,,,,,,0,180,180,180,,,,,,,,,,,,,,,,,main,None,None,1,1.4988853998947889,593.7272863000399,None,None,1,,,,,,,,,,,,,,003,2022-05-05_17h38.59.445,Main,2022.1.1,59.843115292616034,
negative,red,1,None,None,,,,,,,,,0,181,181,181,,,,,,,,,,,,,,,,,main,None,None,1,1.499169500079006,596.2272562000435,None,None,1,,,,,,,,,,,,,,003,2022-05-05_17h38.59.445,Main,2022.1.1,59.843115292616034,
negative,blue,1,None,k,,,,,,,,,0,182,182,182,,,,,,,,,,,,,,,,,main,k,k,1,0.7491720999823883,598.7271439000033,None,None,0,,,,,,,,,,,,,,003,2022-05-05_17h38.59.445,Main,2022.1.1,59.843115292616034,
negative,yellow,2,k,None,,,,,,,,,0,183,183,183,,,,,,,,,,,,,,,,,main,None,None,1,1.4990538000129163,600.4737793999957,None,None,1,,,,,,,,,,,,,,003,2022-05-05_17h38.59.445,Main,2022.1.1,59.843115292616034,
positive,yellow,2,None,k,,,,,,,,,0,184,184,184,,,,,,,,,,,,,,,,,main,k,k,1,0.6494513000361621,602.9740974000888,None,None,0,,,,,,,,,,,,,,003,2022-05-05_17h38.59.445,Main,2022.1.1,59.843115292616034,
positive,yellow,1,None,k,,,,,,,,,0,185,185,185,,,,,,,,,,,,,,,,,main,k,k,1,1.3157961000688374,604.6270230000373,None,None,0,,,,,,,,,,,,,,003,2022-05-05_17h38.59.445,Main,2022.1.1,59.843115292616034,
positive,red,2,None,None,,,,,,,,,0,186,186,186,,,,,,,,,,,,,,,,,main,None,None,1,1.4993667000671849,606.9406705000438,None,None,1,,,,,,,,,,,,,,003,2022-05-05_17h38.59.445,Main,2022.1.1,59.843115292616034,
positive,blue,1,k,None,,,,,,,,,0,187,187,187,,,,,,,,,,,,,,,,,main,None,None,1,1.4983607000904158,609.440304000047,None,None,1,,,,,,,,,,,,,,003,2022-05-05_17h38.59.445,Main,2022.1.1,59.843115292616034,
negative,yellow,1,k,None,,,,,,,,,0,188,188,188,,,,,,,,,,,,,,,,,main,None,None,1,1.498968799947761,611.9438964000437,None,None,1,,,,,,,,,,,,,,003,2022-05-05_17h38.59.445,Main,2022.1.1,59.843115292616034,
positive,yellow,2,None,k,,,,,,,,,0,189,189,189,,,,,,,,,,,,,,,,,main,k,k,1,0.6992624000413343,614.4405021000421,None,None,0,,,,,,,,,,,,,,003,2022-05-05_17h38.59.445,Main,2022.1.1,59.843115292616034,
negative,yellow,2,k,None,,,,,,,,,0,190,190,190,,,,,,,,,,,,,,,,,main,None,None,1,1.4993440000107512,616.1404790000524,None,None,1,,,,,,,,,,,,,,003,2022-05-05_17h38.59.445,Main,2022.1.1,59.843115292616034,
negative,yellow,1,k,None,,,,,,,,,0,191,191,191,,,,,,,,,,,,,,,,,main,None,None,1,1.4982705999864265,618.6403093000408,None,None,1,,,,,,,,,,,,,,003,2022-05-05_17h38.59.445,Main,2022.1.1,59.843115292616034,
positive,blue,2,k,None,,,,,,,,,0,192,192,192,,,,,,,,,,,,,,,,,main,None,None,1,1.4990001999540254,621.1402841000818,None,None,1,,,,,,,,,,,,,,003,2022-05-05_17h38.59.445,Main,2022.1.1,59.843115292616034,
positive,yellow,1,None,k,,,,,,,,,0,193,193,193,,,,,,,,,,,,,,,,,main,k,k,1,0.8661604999797419,623.6402457000222,None,None,0,,,,,,,,,,,,,,003,2022-05-05_17h38.59.445,Main,2022.1.1,59.843115292616034,
negative,red,2,None,None,,,,,,,,,0,194,194,194,,,,,,,,,,,,,,,,,main,None,None,1,1.499122100067325,625.5068711000495,None,None,1,,,,,,,,,,,,,,003,2022-05-05_17h38.59.445,Main,2022.1.1,59.843115292616034,
positive,red,1,None,None,,,,,,,,,0,195,195,195,,,,,,,,,,,,,,,,,main,None,None,1,1.5012712000170723,628.0065203000559,None,None,1,,,,,,,,,,,,,,003,2022-05-05_17h38.59.445,Main,2022.1.1,59.843115292616034,
negative,blue,1,None,k,,,,,,,,,0,196,196,196,,,,,,,,,,,,,,,,,main,k,k,1,0.9131236999528483,630.509759800043,None,None,0,,,,,,,,,,,,,,003,2022-05-05_17h38.59.445,Main,2022.1.1,59.843115292616034,
positive,blue,2,k,None,,,,,,,,,0,197,197,197,,,,,,,,,,,,,,,,,main,None,None,1,1.4897528999717906,632.4263884000247,None,None,1,,,,,,,,,,,,,,003,2022-05-05_17h38.59.445,Main,2022.1.1,59.843115292616034,
negative,blue,2,None,k,,,,,,,,,0,198,198,198,,,,,,,,,,,,,,,,,main,k,k,1,0.7918571999762207,634.9120589999948,None,None,0,,,,,,,,,,,,,,003,2022-05-05_17h38.59.445,Main,2022.1.1,59.843115292616034,
negative,blue,2,None,k,,,,,,,,,0,199,199,199,,,,,,,,,,,,,,,,,main,k,k,1,0.6990654999390244,636.7066516000777,None,None,0,,,,,,,,,,,,,,003,2022-05-05_17h38.59.445,Main,2022.1.1,59.843115292616034,
positive,blue,2,k,None,,,,,,,,,0,200,200,200,,,,,,,,,,,,,,,,,main,None,None,1,1.4988045000936836,638.4065706999972,None,None,1,,,,,,,,,,,,,,003,2022-05-05_17h38.59.445,Main,2022.1.1,59.843115292616034,
positive,blue,2,k,None,,,,,,,,,0,201,201,201,,,,,,,,,,,,,,,,,main,None,None,1,1.4999739999184385,640.909553000005,None,None,1,,,,,,,,,,,,,,003,2022-05-05_17h38.59.445,Main,2022.1.1,59.843115292616034,
negative,yellow,2,k,None,,,,,,,,,0,202,202,202,,,,,,,,,,,,,,,,,main,None,None,1,1.4985616999911144,643.409550899989,None,None,1,,,,,,,,,,,,,,003,2022-05-05_17h38.59.445,Main,2022.1.1,59.843115292616034,
positive,red,1,None,None,,,,,,,,,0,203,203,203,,,,,,,,,,,,,,,,,main,None,None,1,1.501032100059092,645.906183800078,None,None,1,,,,,,,,,,,,,,003,2022-05-05_17h38.59.445,Main,2022.1.1,59.843115292616034,
negative,blue,2,None,k,,,,,,,,,0,204,204,204,,,,,,,,,,,,,,,,,main,k,k,1,0.8131092999828979,648.406454400043,None,None,0,,,,,,,,,,,,,,003,2022-05-05_17h38.59.445,Main,2022.1.1,59.843115292616034,
negative,red,1,None,None,,,,,,,,,0,205,205,205,,,,,,,,,,,,,,,,,main,None,None,1,1.4989723999751732,650.2260174000403,None,None,1,,,,,,,,,,,,,,003,2022-05-05_17h38.59.445,Main,2022.1.1,59.843115292616034,
negative,blue,2,None,k,,,,,,,,,0,206,206,206,,,,,,,,,,,,,,,,,main,k,k,1,0.682242100010626,652.7258975000586,None,None,0,,,,,,,,,,,,,,003,2022-05-05_17h38.59.445,Main,2022.1.1,59.843115292616034,
negative,yellow,2,k,None,,,,,,,,,0,207,207,207,,,,,,,,,,,,,,,,,main,None,None,1,1.503115199971944,654.4059386000736,None,None,1,,,,,,,,,,,,,,003,2022-05-05_17h38.59.445,Main,2022.1.1,59.843115292616034,
positive,yellow,2,None,k,,,,,,,,,0,208,208,208,,,,,,,,,,,,,,,,,main,k,k,1,0.6315075000748038,656.9092585000908,None,None,0,,,,,,,,,,,,,,003,2022-05-05_17h38.59.445,Main,2022.1.1,59.843115292616034,
negative,yellow,1,k,None,,,,,,,,,0,209,209,209,,,,,,,,,,,,,,,,,main,None,None,1,1.4957081000320613,658.5395569000393,None,None,1,,,,,,,,,,,,,,003,2022-05-05_17h38.59.445,Main,2022.1.1,59.843115292616034,
negative,red,2,None,None,,,,,,,,,0,210,210,210,,,,,,,,,,,,,,,,,main,None,None,1,1.4995261000003666,661.0395076000132,None,None,1,,,,,,,,,,,,,,003,2022-05-05_17h38.59.445,Main,2022.1.1,59.843115292616034,
negative,blue,1,None,k,,,,,,,,,0,211,211,211,,,,,,,,,,,,,,,,,main,k,k,1,0.7327604000456631,663.5390563000692,None,None,0,,,,,,,,,,,,,,003,2022-05-05_17h38.59.445,Main,2022.1.1,59.843115292616034,
negative,yellow,1,k,None,,,,,,,,,0,212,212,212,,,,,,,,,,,,,,,,,main,None,None,1,1.5014196999836713,665.272441899986,None,None,1,,,,,,,,,,,,,,003,2022-05-05_17h38.59.445,Main,2022.1.1,59.843115292616034,
positive,blue,1,k,None,,,,,,,,,0,213,213,213,,,,,,,,,,,,,,,,,main,None,None,1,1.5001427999231964,667.7756740000332,None,None,1,,,,,,,,,,,,,,003,2022-05-05_17h38.59.445,Main,2022.1.1,59.843115292616034,
positive,blue,1,k,None,,,,,,,,,0,214,214,214,,,,,,,,,,,,,,,,,main,None,None,1,1.4952747999923304,670.2756025000708,None,None,1,,,,,,,,,,,,,,003,2022-05-05_17h38.59.445,Main,2022.1.1,59.843115292616034,
positive,yellow,1,None,k,,,,,,,,,0,215,215,215,,,,,,,,,,,,,,,,,main,k,k,1,0.6811823999742046,672.7722818000475,None,None,0,,,,,,,,,,,,,,003,2022-05-05_17h38.59.445,Main,2022.1.1,59.843115292616034,
positive,yellow,1,None,k,,,,,,,,,0,216,216,216,,,,,,,,,,,,,,,,,main,k,k,1,0.7159248000243679,674.4555731000146,None,None,0,,,,,,,,,,,,,,003,2022-05-05_17h38.59.445,Main,2022.1.1,59.843115292616034,
positive,yellow,2,None,k,,,,,,,,,0,217,217,217,,,,,,,,,,,,,,,,,main,k,k,1,0.8824866000795737,676.1725078000454,None,None,0,,,,,,,,,,,,,,003,2022-05-05_17h38.59.445,Main,2022.1.1,59.843115292616034,
negative,blue,1,None,k,,,,,,,,,0,218,218,218,,,,,,,,,,,,,,,,,main,k,k,1,0.7824114999966696,678.0558020999888,None,None,0,,,,,,,,,,,,,,003,2022-05-05_17h38.59.445,Main,2022.1.1,59.843115292616034,
positive,red,2,None,None,,,,,,,,,0,219,219,219,,,,,,,,,,,,,,,,,main,None,None,1,1.4995066999690607,679.8390946000582,None,None,1,,,,,,,,,,,,,,003,2022-05-05_17h38.59.445,Main,2022.1.1,59.843115292616034,
positive,yellow,1,None,k,,,,,,,,,0,220,220,220,,,,,,,,,,,,,,,,,main,k,k,1,0.8818491999991238,682.3387015000917,None,None,0,,,,,,,,,,,,,,003,2022-05-05_17h38.59.445,Main,2022.1.1,59.843115292616034,
positive,blue,1,k,None,,,,,,,,,0,221,221,221,,,,,,,,,,,,,,,,,main,None,None,1,1.49872100003995,684.2254225000506,None,None,1,,,,,,,,,,,,,,003,2022-05-05_17h38.59.445,Main,2022.1.1,59.843115292616034,
positive,yellow,2,None,k,,,,,,,,,0,222,222,222,,,,,,,,,,,,,,,,,main,k,k,1,0.7328210999257863,686.7222878000466,None,None,0,,,,,,,,,,,,,,003,2022-05-05_17h38.59.445,Main,2022.1.1,59.843115292616034,
negative,yellow,1,k,None,,,,,,,,,0,223,223,223,,,,,,,,,,,,,,,,,main,None,None,1,1.4999208999797702,688.4555877000093,None,None,1,,,,,,,,,,,,,,003,2022-05-05_17h38.59.445,Main,2022.1.1,59.843115292616034,
positive,yellow,2,None,k,,,,,,,,,0,224,224,224,,,,,,,,,,,,,,,,,main,k,k,1,0.7645709000062197,690.9551479000365,None,None,0,,,,,,,,,,,,,,003,2022-05-05_17h38.59.445,Main,2022.1.1,59.843115292616034,
negative,yellow,2,k,None,,,,,,,,,0,225,225,225,,,,,,,,,,,,,,,,,main,None,None,1,1.4987821000395343,692.7221411000937,None,None,1,,,,,,,,,,,,,,003,2022-05-05_17h38.59.445,Main,2022.1.1,59.843115292616034,
negative,blue,2,None,k,,,,,,,,,0,226,226,226,,,,,,,,,,,,,,,,,main,k,k,1,0.666155599988997,695.2221047000494,None,None,0,,,,,,,,,,,,,,003,2022-05-05_17h38.59.445,Main,2022.1.1,59.843115292616034,
positive,red,2,None,None,,,,,,,,,0,227,227,227,,,,,,,,,,,,,,,,,main,None,None,1,1.4992496999911964,696.8887368000578,None,None,1,,,,,,,,,,,,,,003,2022-05-05_17h38.59.445,Main,2022.1.1,59.843115292616034,
positive,blue,2,k,None,,,,,,,,,0,228,228,228,,,,,,,,,,,,,,,,,main,None,None,1,1.4983671000227332,699.3883025000105,None,None,1,,,,,,,,,,,,,,003,2022-05-05_17h38.59.445,Main,2022.1.1,59.843115292616034,
negative,blue,1,None,k,,,,,,,,,0,229,229,229,,,,,,,,,,,,,,,,,main,k,k,1,0.7325183000648394,701.8886236000108,None,None,0,,,,,,,,,,,,,,003,2022-05-05_17h38.59.445,Main,2022.1.1,59.843115292616034,
positive,yellow,1,None,k,,,,,,,,,0,230,230,230,,,,,,,,,,,,,,,,,main,k,k,1,0.8823831001063809,703.624858800089,None,None,0,,,,,,,,,,,,,,003,2022-05-05_17h38.59.445,Main,2022.1.1,59.843115292616034,
negative,blue,2,None,k,,,,,,,,,0,231,231,231,,,,,,,,,,,,,,,,,main,k,k,1,0.8658542999764904,705.5052086000796,None,None,0,,,,,,,,,,,,,,003,2022-05-05_17h38.59.445,Main,2022.1.1,59.843115292616034,
negative,red,1,None,None,,,,,,,,,0,232,232,232,,,,,,,,,,,,,,,,,main,None,None,1,1.4997932999394834,707.3748489000136,None,None,1,,,,,,,,,,,,,,003,2022-05-05_17h38.59.445,Main,2022.1.1,59.843115292616034,
positive,blue,2,k,None,,,,,,,,,0,233,233,233,,,,,,,,,,,,,,,,,main,None,None,1,1.5009318999946117,709.8716566000367,None,None,1,,,,,,,,,,,,,,003,2022-05-05_17h38.59.445,Main,2022.1.1,59.843115292616034,
negative,yellow,1,k,None,,,,,,,,,0,234,234,234,,,,,,,,,,,,,,,,,main,None,None,1,1.4959856000496075,712.3746573000681,None,None,1,,,,,,,,,,,,,,003,2022-05-05_17h38.59.445,Main,2022.1.1,59.843115292616034,
negative,yellow,2,k,None,,,,,,,,,0,235,235,235,,,,,,,,,,,,,,,,,main,None,None,1,1.4989637000253424,714.8715996000683,None,None,1,,,,,,,,,,,,,,003,2022-05-05_17h38.59.445,Main,2022.1.1,59.843115292616034,
positive,red,1,None,None,,,,,,,,,0,236,236,236,,,,,,,,,,,,,,,,,main,None,None,1,1.4989076000638306,717.3716152000707,None,None,1,,,,,,,,,,,,,,003,2022-05-05_17h38.59.445,Main,2022.1.1,59.843115292616034,
negative,red,2,None,None,,,,,,,,,0,237,237,237,,,,,,,,,,,,,,,,,main,None,None,1,1.4994649000000209,719.8711963000242,None,None,1,,,,,,,,,,,,,,003,2022-05-05_17h38.59.445,Main,2022.1.1,59.843115292616034,
negative,blue,1,None,k,,,,,,,,,0,238,238,238,,,,,,,,,,,,,,,,,main,k,k,1,0.6526514000725001,722.371527899988,None,None,0,,,,,,,,,,,,,,003,2022-05-05_17h38.59.445,Main,2022.1.1,59.843115292616034,
positive,blue,1,k,None,,,,,,,,,0,239,239,239,,,,,,,,,,,,,,,,,main,None,None,1,1.499488899949938,724.024437700049,None,None,1,,,,,,,,,,,,,,003,2022-05-05_17h38.59.445,Main,2022.1.1,59.843115292616034,
,,,,,,,,,,,,,,,,,,,,,,,,,,,,,,,,,,,,,,,,,,,,,,,,,,,,,726.5214223000221,None,,,,,,
