distractor,target,set,ans1,ans2,rep_loop4.thisRepN,rep_loop4.thisTrialN,rep_loop4.thisN,rep_loop4.thisIndex,st2_prac_loop.thisRepN,st2_prac_loop.thisTrialN,st2_prac_loop.thisN,st2_prac_loop.thisIndex,st2_main_loop.thisRepN,st2_main_loop.thisTrialN,st2_main_loop.thisN,st2_main_loop.thisIndex,image_4.started,image_4.stopped,sound_2.started,sound_2.stopped,key_resp_3.keys,key_resp_3.rt,image_5.started,image_5.stopped,st_prac_back.started,st_prac_back.stopped,st_prac_text.started,st_prac_text.stopped,st_fix_back.started,st_fix_back.stopped,st_fix_2.started,st_fix_2.stopped,main_prac,st_ans,st_res,st_corr,st_rt,st_back.started,st_back.stopped,st2_resp.keys,st2_resp.corr,st_main_back.started,st_main_back.stopped,st_main_text.started,st_main_text.stopped,mouse_4.x,mouse_4.y,mouse_4.leftButton,mouse_4.midButton,mouse_4.rightButton,mouse_4.started,mouse_4.stopped,text_2.started,text_2.stopped,id*,date,expName,psychopyVersion,frameRate,
negative,yellow,1,k,None,,,,,0,0,0,0,,,,,30.750256199971773,None,36.07969689004822,None,space,71.59287349996157,107.70571490004659,None,109.9083443999989,None,109.9083443999989,None,111.90823299996555,None,111.90823299996555,None,prac,k,k,1,3.369730500038713,113.93002119997982,None,None,0,,,,,,,,,,,,,,004,2022-05-06_10h37.14.975,Main,2022.1.1,60.00376825136869,
positive,red,2,None,None,,,,,0,1,1,1,,,,,,,,,,,,,,,,,,,,,prac,None,None,1,1.4998365000355989,119.31298889999744,None,None,1,,,,,,,,,,,,,,004,2022-05-06_10h37.14.975,Main,2022.1.1,60.00376825136869,
negative,blue,2,None,k,,,,,0,2,2,2,,,,,,,,,,,,,,,,,,,,,prac,None,None,1,1.4992179999826476,121.80822850007098,None,None,1,,,,,,,,,,,,,,004,2022-05-06_10h37.14.975,Main,2022.1.1,60.00376825136869,
positive,yellow,1,None,k,,,,,0,3,3,3,,,,,,,,,,,,,,,,,,,,,prac,None,None,1,1.4968471000902355,124.30778610007837,None,None,1,,,,,,,,,,,,,,004,2022-05-06_10h37.14.975,Main,2022.1.1,60.00376825136869,
negative,blue,2,None,k,,,,,0,4,4,4,,,,,,,,,,,,,,,,,,,,,prac,None,None,1,1.4982524999650195,126.80559260002337,None,None,1,,,,,,,,,,,,,,004,2022-05-06_10h37.14.975,Main,2022.1.1,60.00376825136869,
negative,blue,1,None,k,,,,,0,5,5,5,,,,,,,,,,,,,,,,,,,,,prac,None,None,1,1.4993373999604955,129.3053743999917,None,None,1,,,,,,,,,,,,,,004,2022-05-06_10h37.14.975,Main,2022.1.1,60.00376825136869,
negative,yellow,2,k,None,,,,,0,6,6,6,,,,,,,,,,,,,,,,,,,,,prac,k,k,1,0.89966709993314,131.8052306000609,None,None,0,,,,,,,,,,,,,,004,2022-05-06_10h37.14.975,Main,2022.1.1,60.00376825136869,
negative,red,1,None,None,,,,,0,7,7,7,,,,,,,,,,,,,,,,,,,,,prac,None,None,1,1.4987077999394387,133.7053378999699,None,None,1,,,,,,,,,,,,,,004,2022-05-06_10h37.14.975,Main,2022.1.1,60.00376825136869,
positive,yellow,2,None,k,,,,,0,8,8,8,,,,,,,,,,,,,,,,,,,,,prac,None,None,1,1.4992128999438137,136.20502790005412,None,None,1,,,,,,,,,,,,,,004,2022-05-06_10h37.14.975,Main,2022.1.1,60.00376825136869,
negative,yellow,1,k,None,,,,,0,9,9,9,,,,,,,,,,,,,,,,,,,,,prac,k,k,1,1.0656403000466526,138.70519520004746,None,None,0,,,,,,,,,,,,,,004,2022-05-06_10h37.14.975,Main,2022.1.1,60.00376825136869,
positive,yellow,2,None,k,,,,,0,10,10,10,,,,,,,,,,,,,,,,,,,,,prac,None,None,1,1.4996368000283837,140.7718394000549,None,None,1,,,,,,,,,,,,,,004,2022-05-06_10h37.14.975,Main,2022.1.1,60.00376825136869,
negative,yellow,2,k,None,,,,,0,11,11,11,,,,,,,,,,,,,,,,,,,,,prac,k,k,1,1.081079800031148,143.27184729999863,None,None,0,,,,,,,,,,,,,,004,2022-05-06_10h37.14.975,Main,2022.1.1,60.00376825136869,
negative,red,2,None,None,,,,,0,12,12,12,,,,,,,,,,,,,,,,,,,,,prac,None,None,1,1.5014205999905244,145.35488710005302,None,None,1,,,,,,,,,,,,,,004,2022-05-06_10h37.14.975,Main,2022.1.1,60.00376825136869,
positive,red,1,None,None,,,,,0,13,13,13,,,,,,,,,,,,,,,,,,,,,prac,None,None,1,1.4965992999495938,147.85857829998713,None,None,1,,,,,,,,,,,,,,004,2022-05-06_10h37.14.975,Main,2022.1.1,60.00376825136869,
positive,blue,2,k,None,,,,,0,14,14,14,,,,,,,,,,,,,,,,,,,,,prac,k,k,1,0.8161943999584764,150.35506269999314,None,None,0,,,,,,,,,,,,,,004,2022-05-06_10h37.14.975,Main,2022.1.1,60.00376825136869,
positive,blue,1,k,None,,,,,0,15,15,15,,,,,,,,,,,,,,,,,,,,,prac,k,k,1,0.8820871999487281,152.1716246000724,None,None,0,,,,,,,,,,,,,,004,2022-05-06_10h37.14.975,Main,2022.1.1,60.00376825136869,
negative,blue,1,None,k,,,,,0,16,16,16,,,,,,,,,,,,,,,,,,,,,prac,None,None,1,1.5011740999761969,154.05503839999437,None,None,1,,,,,,,,,,,,,,004,2022-05-06_10h37.14.975,Main,2022.1.1,60.00376825136869,
positive,blue,2,k,None,,,,,0,17,17,17,,,,,,,,,,,,,,,,,,,,,prac,k,k,1,0.9803610000526533,156.55487650004216,None,None,0,,,,,,,,,,,,,,004,2022-05-06_10h37.14.975,Main,2022.1.1,60.00376825136869,
positive,blue,1,k,None,,,,,0,18,18,18,,,,,,,,,,,,,,,,,,,,,prac,k,k,1,0.9494972000829875,158.53784230002202,None,None,0,,,,,,,,,,,,,,004,2022-05-06_10h37.14.975,Main,2022.1.1,60.00376825136869,
positive,yellow,1,None,k,,,,,0,19,19,19,,,,,,,,,,,,,,,,,,,,,prac,None,None,1,1.504947799956426,160.4906209000619,None,None,1,,,,,,,,,,,,,,004,2022-05-06_10h37.14.975,Main,2022.1.1,60.00376825136869,
negative,yellow,1,k,None,,,,,1,0,20,0,,,,,,,,,,,,,,,,,,,,,prac,k,k,1,0.6938686000648886,162.99402480002027,None,None,0,,,,,,,,,,,,,,004,2022-05-06_10h37.14.975,Main,2022.1.1,60.00376825136869,
positive,red,2,None,None,,,,,1,1,21,1,,,,,,,,,,,,,,,,,,,,,prac,None,None,1,1.4991795999230817,164.68803499999922,None,None,1,,,,,,,,,,,,,,004,2022-05-06_10h37.14.975,Main,2022.1.1,60.00376825136869,
negative,blue,2,None,k,,,,,1,2,22,2,,,,,,,,,,,,,,,,,,,,,prac,None,None,1,1.4988794999662787,167.18800680001732,None,None,1,,,,,,,,,,,,,,004,2022-05-06_10h37.14.975,Main,2022.1.1,60.00376825136869,
positive,yellow,1,None,k,,,,,1,3,23,3,,,,,,,,,,,,,,,,,,,,,prac,None,None,1,1.4997634999454021,169.6879276999971,None,None,1,,,,,,,,,,,,,,004,2022-05-06_10h37.14.975,Main,2022.1.1,60.00376825136869,
negative,blue,2,None,k,,,,,1,4,24,4,,,,,,,,,,,,,,,,,,,,,prac,None,None,1,1.500110000022687,172.1876507999841,None,None,1,,,,,,,,,,,,,,004,2022-05-06_10h37.14.975,Main,2022.1.1,60.00376825136869,
negative,blue,1,None,k,,,,,1,5,25,5,,,,,,,,,,,,,,,,,,,,,prac,None,None,1,1.4968834999017417,174.69033840007614,None,None,1,,,,,,,,,,,,,,004,2022-05-06_10h37.14.975,Main,2022.1.1,60.00376825136869,
negative,yellow,2,k,None,,,,,1,6,26,6,,,,,,,,,,,,,,,,,,,,,prac,k,k,1,0.9816463999450207,177.18779950006865,None,None,0,,,,,,,,,,,,,,004,2022-05-06_10h37.14.975,Main,2022.1.1,60.00376825136869,
negative,red,1,None,None,,,,,1,7,27,7,,,,,,,,,,,,,,,,,,,,,prac,None,None,1,1.4985408000648022,179.17104829999153,None,None,1,,,,,,,,,,,,,,004,2022-05-06_10h37.14.975,Main,2022.1.1,60.00376825136869,
positive,yellow,2,None,k,,,,,1,8,28,8,,,,,,,,,,,,,,,,,,,,,prac,None,None,1,1.4993386000860482,181.67101300007198,None,None,1,,,,,,,,,,,,,,004,2022-05-06_10h37.14.975,Main,2022.1.1,60.00376825136869,
negative,yellow,1,k,None,,,,,1,9,29,9,,,,,,,,,,,,,,,,,,,,,prac,k,k,1,0.9161317000398412,184.17084360006265,None,None,0,,,,,,,,,,,,,,004,2022-05-06_10h37.14.975,Main,2022.1.1,60.00376825136869,
positive,yellow,2,None,k,,,,,1,10,30,10,,,,,,,,,,,,,,,,,,,,,prac,None,None,1,1.4986450000433251,186.08752509998158,None,None,1,,,,,,,,,,,,,,004,2022-05-06_10h37.14.975,Main,2022.1.1,60.00376825136869,
negative,yellow,2,k,None,,,,,1,11,31,11,,,,,,,,,,,,,,,,,,,,,prac,k,k,1,0.8496028999798,188.5875102999853,None,None,0,,,,,,,,,,,,,,004,2022-05-06_10h37.14.975,Main,2022.1.1,60.00376825136869,
negative,red,2,None,None,,,,,1,12,32,12,,,,,,,,,,,,,,,,,,,,,prac,None,None,1,1.49952840001788,190.43754870002158,None,None,1,,,,,,,,,,,,,,004,2022-05-06_10h37.14.975,Main,2022.1.1,60.00376825136869,
positive,red,1,None,None,,,,,1,13,33,13,,,,,,,,,,,,,,,,,,,,,prac,None,None,1,1.4984230999834836,192.93746569997165,None,None,1,,,,,,,,,,,,,,004,2022-05-06_10h37.14.975,Main,2022.1.1,60.00376825136869,
positive,blue,2,k,None,,,,,1,14,34,14,,,,,,,,,,,,,,,,,,,,,prac,k,k,1,1.0490560999605805,195.43766499997582,None,None,0,,,,,,,,,,,,,,004,2022-05-06_10h37.14.975,Main,2022.1.1,60.00376825136869,
positive,blue,1,k,None,,,,,1,15,35,15,,,,,,,,,,,,,,,,,,,,,prac,k,k,1,0.8987017000326887,197.4873902000254,None,None,0,,,,,,,,,,,,,,004,2022-05-06_10h37.14.975,Main,2022.1.1,60.00376825136869,
negative,blue,1,None,k,,,,,1,16,36,16,,,,,,,,,,,,,,,,,,,,,prac,None,None,1,1.4995712999952957,199.38712510000914,None,None,1,,,,,,,,,,,,,,004,2022-05-06_10h37.14.975,Main,2022.1.1,60.00376825136869,
positive,blue,2,k,None,,,,,1,17,37,17,,,,,,,,,,,,,,,,,,,,,prac,k,k,1,1.0158374999882653,201.8871591000352,None,None,0,,,,,,,,,,,,,,004,2022-05-06_10h37.14.975,Main,2022.1.1,60.00376825136869,
positive,blue,1,k,None,,,,,1,18,38,18,,,,,,,,,,,,,,,,,,,,,prac,k,k,1,0.8312589999986812,203.89737430005334,None,None,0,,,,,,,,,,,,,,004,2022-05-06_10h37.14.975,Main,2022.1.1,60.00376825136869,
positive,yellow,1,None,k,,,,,1,19,39,19,,,,,,,,,,,,,,,,,,,,,prac,None,None,1,1.499670699937269,205.73714350000955,None,None,1,,,,,,,,,,,,,,004,2022-05-06_10h37.14.975,Main,2022.1.1,60.00376825136869,
,,,,,,,,,,,,,,,,,,,,,,,,,,,,,,,,,,,,,,,,,,208.23705990007147,None,208.23705990007147,None,-0.021296296,-0.013888889,0,0,0,0.013417290057986975,None,,,004,2022-05-06_10h37.14.975,Main,2022.1.1,60.00376825136869,
negative,yellow,2,k,None,,,,,,,,,0,0,0,0,,,,,,,,,,,,,231.53635249997023,None,231.53635249997023,None,main,k,k,1,1.0437968999613076,233.57468409999274,None,None,0,,,,,,,,,,,,,,004,2022-05-06_10h37.14.975,Main,2022.1.1,60.00376825136869,
positive,red,1,None,None,,,,,,,,,0,1,1,1,,,,,,,,,,,,,,,,,main,None,None,1,1.4919282000046223,235.63078610005323,None,None,1,,,,,,,,,,,,,,004,2022-05-06_10h37.14.975,Main,2022.1.1,60.00376825136869,
positive,blue,2,k,None,,,,,,,,,0,2,2,2,,,,,,,,,,,,,,,,,main,k,k,1,0.7660320999566466,238.11979999998584,None,None,0,,,,,,,,,,,,,,004,2022-05-06_10h37.14.975,Main,2022.1.1,60.00376825136869,
positive,blue,1,k,None,,,,,,,,,0,3,3,3,,,,,,,,,,,,,,,,,main,k,k,1,0.7507777999853715,239.886390700005,None,None,0,,,,,,,,,,,,,,004,2022-05-06_10h37.14.975,Main,2022.1.1,60.00376825136869,
negative,yellow,2,k,None,,,,,,,,,0,4,4,4,,,,,,,,,,,,,,,,,main,k,k,1,0.913851400022395,241.63645370001905,None,None,0,,,,,,,,,,,,,,004,2022-05-06_10h37.14.975,Main,2022.1.1,60.00376825136869,
positive,yellow,2,None,k,,,,,,,,,0,5,5,5,,,,,,,,,,,,,,,,,main,None,None,1,1.499517900054343,243.55296120001003,None,None,1,,,,,,,,,,,,,,004,2022-05-06_10h37.14.975,Main,2022.1.1,60.00376825136869,
negative,blue,2,None,k,,,,,,,,,0,6,6,6,,,,,,,,,,,,,,,,,main,None,None,1,1.5041562999831513,246.05301839997992,None,None,1,,,,,,,,,,,,,,004,2022-05-06_10h37.14.975,Main,2022.1.1,60.00376825136869,
positive,red,2,None,None,,,,,,,,,0,7,7,7,,,,,,,,,,,,,,,,,main,None,None,1,1.4935071000363678,248.5568400999764,None,None,1,,,,,,,,,,,,,,004,2022-05-06_10h37.14.975,Main,2022.1.1,60.00376825136869,
positive,yellow,1,None,k,,,,,,,,,0,8,8,8,,,,,,,,,,,,,,,,,main,None,None,1,1.4991734999930486,251.05289320007432,None,None,1,,,,,,,,,,,,,,004,2022-05-06_10h37.14.975,Main,2022.1.1,60.00376825136869,
negative,red,1,None,None,,,,,,,,,0,9,9,9,,,,,,,,,,,,,,,,,main,None,None,1,1.4993556999834254,253.55291960004251,None,None,1,,,,,,,,,,,,,,004,2022-05-06_10h37.14.975,Main,2022.1.1,60.00376825136869,
positive,yellow,1,None,k,,,,,,,,,0,10,10,10,,,,,,,,,,,,,,,,,main,None,None,1,1.5007604999700561,256.05243849998806,None,None,1,,,,,,,,,,,,,,004,2022-05-06_10h37.14.975,Main,2022.1.1,60.00376825136869,
negative,yellow,1,k,None,,,,,,,,,0,11,11,11,,,,,,,,,,,,,,,,,main,k,k,1,0.9305115999886766,258.5527848000638,None,None,0,,,,,,,,,,,,,,004,2022-05-06_10h37.14.975,Main,2022.1.1,60.00376825136869,
negative,yellow,1,k,None,,,,,,,,,0,12,12,12,,,,,,,,,,,,,,,,,main,k,k,1,0.9830274999840185,260.488459300017,None,None,0,,,,,,,,,,,,,,004,2022-05-06_10h37.14.975,Main,2022.1.1,60.00376825136869,
negative,red,2,None,None,,,,,,,,,0,13,13,13,,,,,,,,,,,,,,,,,main,None,None,1,1.5001341999741271,262.46899980003946,None,None,1,,,,,,,,,,,,,,004,2022-05-06_10h37.14.975,Main,2022.1.1,60.00376825136869,
positive,yellow,2,None,k,,,,,,,,,0,14,14,14,,,,,,,,,,,,,,,,,main,None,None,1,1.4992735999403521,264.96931129996665,None,None,1,,,,,,,,,,,,,,004,2022-05-06_10h37.14.975,Main,2022.1.1,60.00376825136869,
positive,blue,1,k,None,,,,,,,,,0,15,15,15,,,,,,,,,,,,,,,,,main,k,k,1,0.9634661000454798,267.46925439999904,None,None,0,,,,,,,,,,,,,,004,2022-05-06_10h37.14.975,Main,2022.1.1,60.00376825136869,
negative,blue,1,None,k,,,,,,,,,0,16,16,16,,,,,,,,,,,,,,,,,main,None,None,1,1.5013932000147179,269.43550490005873,None,None,1,,,,,,,,,,,,,,004,2022-05-06_10h37.14.975,Main,2022.1.1,60.00376825136869,
positive,blue,2,k,None,,,,,,,,,0,17,17,17,,,,,,,,,,,,,,,,,main,k,k,1,0.9636874999850988,271.93582490005065,None,None,0,,,,,,,,,,,,,,004,2022-05-06_10h37.14.975,Main,2022.1.1,60.00376825136869,
negative,blue,2,None,k,,,,,,,,,0,18,18,18,,,,,,,,,,,,,,,,,main,None,None,1,1.4988984999945387,273.9023559000343,None,None,1,,,,,,,,,,,,,,004,2022-05-06_10h37.14.975,Main,2022.1.1,60.00376825136869,
negative,blue,1,None,k,,,,,,,,,0,19,19,19,,,,,,,,,,,,,,,,,main,None,None,1,1.4990909000625834,276.40224760002457,None,None,1,,,,,,,,,,,,,,004,2022-05-06_10h37.14.975,Main,2022.1.1,60.00376825136869,
negative,blue,1,None,k,,,,,,,,,0,20,20,20,,,,,,,,,,,,,,,,,main,None,None,1,1.5001440000487491,278.9022912000073,None,None,1,,,,,,,,,,,,,,004,2022-05-06_10h37.14.975,Main,2022.1.1,60.00376825136869,
negative,blue,2,None,k,,,,,,,,,0,21,21,21,,,,,,,,,,,,,,,,,main,None,None,1,1.4976793000241742,281.4021348999813,None,None,1,,,,,,,,,,,,,,004,2022-05-06_10h37.14.975,Main,2022.1.1,60.00376825136869,
negative,red,1,None,None,,,,,,,,,0,22,22,22,,,,,,,,,,,,,,,,,main,None,None,1,1.499488800065592,283.9021391000133,None,None,1,,,,,,,,,,,,,,004,2022-05-06_10h37.14.975,Main,2022.1.1,60.00376825136869,
positive,red,2,None,None,,,,,,,,,0,23,23,23,,,,,,,,,,,,,,,,,main,None,None,1,1.4992669000057504,286.40202899998985,None,None,1,,,,,,,,,,,,,,004,2022-05-06_10h37.14.975,Main,2022.1.1,60.00376825136869,
negative,red,2,None,None,,,,,,,,,0,24,24,24,,,,,,,,,,,,,,,,,main,None,None,1,1.5047057999763638,288.90436679997947,None,None,1,,,,,,,,,,,,,,004,2022-05-06_10h37.14.975,Main,2022.1.1,60.00376825136869,
positive,blue,2,k,None,,,,,,,,,0,25,25,25,,,,,,,,,,,,,,,,,main,k,k,1,0.8603005000622943,291.4058578000404,None,None,0,,,,,,,,,,,,,,004,2022-05-06_10h37.14.975,Main,2022.1.1,60.00376825136869,
negative,yellow,1,k,None,,,,,,,,,0,26,26,26,,,,,,,,,,,,,,,,,main,k,k,1,1.0659711000043899,293.26855310006067,None,None,0,,,,,,,,,,,,,,004,2022-05-06_10h37.14.975,Main,2022.1.1,60.00376825136869,
positive,blue,2,k,None,,,,,,,,,0,27,27,27,,,,,,,,,,,,,,,,,main,k,k,1,0.9487149000633508,295.3375646000495,None,None,0,,,,,,,,,,,,,,004,2022-05-06_10h37.14.975,Main,2022.1.1,60.00376825136869,
negative,blue,2,None,k,,,,,,,,,0,28,28,28,,,,,,,,,,,,,,,,,main,None,None,1,1.500958599965088,297.2852694999892,None,None,1,,,,,,,,,,,,,,004,2022-05-06_10h37.14.975,Main,2022.1.1,60.00376825136869,
positive,red,1,None,None,,,,,,,,,0,29,29,29,,,,,,,,,,,,,,,,,main,None,None,1,1.4968779999762774,299.78513670002576,None,None,1,,,,,,,,,,,,,,004,2022-05-06_10h37.14.975,Main,2022.1.1,60.00376825136869,
positive,blue,1,k,None,,,,,,,,,0,30,30,30,,,,,,,,,,,,,,,,,main,k,k,1,0.8826635999139398,302.28503939998336,None,None,0,,,,,,,,,,,,,,004,2022-05-06_10h37.14.975,Main,2022.1.1,60.00376825136869,
positive,yellow,1,None,k,,,,,,,,,0,31,31,31,,,,,,,,,,,,,,,,,main,None,None,1,1.4988887999206781,304.1683796000434,None,None,1,,,,,,,,,,,,,,004,2022-05-06_10h37.14.975,Main,2022.1.1,60.00376825136869,
negative,yellow,2,k,None,,,,,,,,,0,32,32,32,,,,,,,,,,,,,,,,,main,k,k,1,1.3659102999372408,306.66834820003714,None,None,0,,,,,,,,,,,,,,004,2022-05-06_10h37.14.975,Main,2022.1.1,60.00376825136869,
negative,blue,1,None,k,,,,,,,,,0,33,33,33,,,,,,,,,,,,,,,,,main,None,k,0,1.5011559000704437,309.0346478000283,None,None,1,,,,,,,,,,,,,,004,2022-05-06_10h37.14.975,Main,2022.1.1,60.00376825136869,
positive,blue,1,k,None,,,,,,,,,0,34,34,34,,,,,,,,,,,,,,,,,main,k,k,1,0.7158924000104889,312.53742459998466,None,None,0,,,,,,,,,,,,,,004,2022-05-06_10h37.14.975,Main,2022.1.1,60.00376825136869,
negative,yellow,1,k,None,,,,,,,,,0,35,35,35,,,,,,,,,,,,,,,,,main,k,k,1,0.9153509000316262,314.2515271999873,None,None,0,,,,,,,,,,,,,,004,2022-05-06_10h37.14.975,Main,2022.1.1,60.00376825136869,
positive,yellow,2,None,k,,,,,,,,,0,36,36,36,,,,,,,,,,,,,,,,,main,None,None,1,1.4987347000278533,316.16806880000513,None,None,1,,,,,,,,,,,,,,004,2022-05-06_10h37.14.975,Main,2022.1.1,60.00376825136869,
positive,yellow,2,None,k,,,,,,,,,0,37,37,37,,,,,,,,,,,,,,,,,main,None,None,1,1.4991522000636905,318.6680507999845,None,None,1,,,,,,,,,,,,,,004,2022-05-06_10h37.14.975,Main,2022.1.1,60.00376825136869,
negative,yellow,2,k,None,,,,,,,,,0,38,38,38,,,,,,,,,,,,,,,,,main,k,k,1,0.9162665999028832,321.1679746999871,None,None,0,,,,,,,,,,,,,,004,2022-05-06_10h37.14.975,Main,2022.1.1,60.00376825136869,
positive,yellow,1,None,k,,,,,,,,,0,39,39,39,,,,,,,,,,,,,,,,,main,None,None,1,1.498850299976766,323.0846433000406,None,None,1,,,,,,,,,,,,,,004,2022-05-06_10h37.14.975,Main,2022.1.1,60.00376825136869,
negative,yellow,2,k,None,,,,,,,,,0,40,40,40,,,,,,,,,,,,,,,,,main,k,k,1,0.8663134999806061,325.5846302000573,None,None,0,,,,,,,,,,,,,,004,2022-05-06_10h37.14.975,Main,2022.1.1,60.00376825136869,
positive,blue,2,k,None,,,,,,,,,0,41,41,41,,,,,,,,,,,,,,,,,main,k,k,1,1.0154879000037909,327.45118700002786,None,None,0,,,,,,,,,,,,,,004,2022-05-06_10h37.14.975,Main,2022.1.1,60.00376825136869,
positive,blue,2,k,None,,,,,,,,,0,42,42,42,,,,,,,,,,,,,,,,,main,k,k,1,0.7826172999339178,329.4678299999796,None,None,0,,,,,,,,,,,,,,004,2022-05-06_10h37.14.975,Main,2022.1.1,60.00376825136869,
negative,blue,2,None,k,,,,,,,,,0,43,43,43,,,,,,,,,,,,,,,,,main,None,None,1,1.4992925999686122,331.25116440001875,None,None,1,,,,,,,,,,,,,,004,2022-05-06_10h37.14.975,Main,2022.1.1,60.00376825136869,
negative,red,1,None,None,,,,,,,,,0,44,44,44,,,,,,,,,,,,,,,,,main,None,None,1,1.500744100078009,333.75084049999714,None,None,1,,,,,,,,,,,,,,004,2022-05-06_10h37.14.975,Main,2022.1.1,60.00376825136869,
negative,yellow,1,k,None,,,,,,,,,0,45,45,45,,,,,,,,,,,,,,,,,main,k,k,1,0.8304553999332711,336.253518100013,None,None,0,,,,,,,,,,,,,,004,2022-05-06_10h37.14.975,Main,2022.1.1,60.00376825136869,
negative,yellow,1,k,None,,,,,,,,,0,46,46,46,,,,,,,,,,,,,,,,,main,k,k,1,0.7380945000331849,338.0865887000691,None,None,0,,,,,,,,,,,,,,004,2022-05-06_10h37.14.975,Main,2022.1.1,60.00376825136869,
positive,red,1,None,None,,,,,,,,,0,47,47,47,,,,,,,,,,,,,,,,,main,None,None,1,1.4921242999844253,339.8272912000539,None,None,1,,,,,,,,,,,,,,004,2022-05-06_10h37.14.975,Main,2022.1.1,60.00376825136869,
positive,yellow,1,None,k,,,,,,,,,0,48,48,48,,,,,,,,,,,,,,,,,main,None,None,1,1.5018202000064775,342.3175485000247,None,None,1,,,,,,,,,,,,,,004,2022-05-06_10h37.14.975,Main,2022.1.1,60.00376825136869,
negative,blue,1,None,k,,,,,,,,,0,49,49,49,,,,,,,,,,,,,,,,,main,None,None,1,1.4989781000185758,344.81998480006587,None,None,1,,,,,,,,,,,,,,004,2022-05-06_10h37.14.975,Main,2022.1.1,60.00376825136869,
positive,yellow,2,None,k,,,,,,,,,0,50,50,50,,,,,,,,,,,,,,,,,main,None,None,1,1.4967425999930128,347.3199376000557,None,None,1,,,,,,,,,,,,,,004,2022-05-06_10h37.14.975,Main,2022.1.1,60.00376825136869,
negative,blue,1,None,k,,,,,,,,,0,51,51,51,,,,,,,,,,,,,,,,,main,None,None,1,1.4989617000101134,349.81746589997783,None,None,1,,,,,,,,,,,,,,004,2022-05-06_10h37.14.975,Main,2022.1.1,60.00376825136869,
positive,red,2,None,None,,,,,,,,,0,52,52,52,,,,,,,,,,,,,,,,,main,None,None,1,1.5017548999749124,352.317367700045,None,None,1,,,,,,,,,,,,,,004,2022-05-06_10h37.14.975,Main,2022.1.1,60.00376825136869,
positive,yellow,2,None,k,,,,,,,,,0,53,53,53,,,,,,,,,,,,,,,,,main,None,None,1,1.502406100044027,354.8198193999706,None,None,1,,,,,,,,,,,,,,004,2022-05-06_10h37.14.975,Main,2022.1.1,60.00376825136869,
negative,red,2,None,None,,,,,,,,,0,54,54,54,,,,,,,,,,,,,,,,,main,None,None,1,1.4932848999742419,357.32127070007846,None,None,1,,,,,,,,,,,,,,004,2022-05-06_10h37.14.975,Main,2022.1.1,60.00376825136869,
positive,yellow,1,None,k,,,,,,,,,0,55,55,55,,,,,,,,,,,,,,,,,main,None,None,1,1.500093000009656,359.81715879996773,None,None,1,,,,,,,,,,,,,,004,2022-05-06_10h37.14.975,Main,2022.1.1,60.00376825136869,
negative,blue,2,None,k,,,,,,,,,0,56,56,56,,,,,,,,,,,,,,,,,main,None,None,1,1.498794800019823,362.31716079998296,None,None,1,,,,,,,,,,,,,,004,2022-05-06_10h37.14.975,Main,2022.1.1,60.00376825136869,
positive,blue,1,k,None,,,,,,,,,0,57,57,57,,,,,,,,,,,,,,,,,main,k,k,1,0.8484780000289902,364.81701990007423,None,None,0,,,,,,,,,,,,,,004,2022-05-06_10h37.14.975,Main,2022.1.1,60.00376825136869,
positive,blue,1,k,None,,,,,,,,,0,58,58,58,,,,,,,,,,,,,,,,,main,k,k,1,0.8991147000342607,366.66702529997565,None,None,0,,,,,,,,,,,,,,004,2022-05-06_10h37.14.975,Main,2022.1.1,60.00376825136869,
negative,yellow,2,k,None,,,,,,,,,0,59,59,59,,,,,,,,,,,,,,,,,main,k,k,1,0.8990688000340015,368.56703949999064,None,None,0,,,,,,,,,,,,,,004,2022-05-06_10h37.14.975,Main,2022.1.1,60.00376825136869,
positive,red,2,None,None,,,,,,,,,0,60,60,60,,,,,,,,,,,,,,,,,main,None,None,1,1.4987832999322563,370.46694419998676,None,None,1,,,,,,,,,,,,,,004,2022-05-06_10h37.14.975,Main,2022.1.1,60.00376825136869,
negative,yellow,1,k,None,,,,,,,,,0,61,61,61,,,,,,,,,,,,,,,,,main,k,k,1,0.9656466000014916,372.96689949999563,None,None,0,,,,,,,,,,,,,,004,2022-05-06_10h37.14.975,Main,2022.1.1,60.00376825136869,
negative,red,1,None,None,,,,,,,,,0,62,62,62,,,,,,,,,,,,,,,,,main,None,None,1,1.49849470006302,374.933572000009,None,None,1,,,,,,,,,,,,,,004,2022-05-06_10h37.14.975,Main,2022.1.1,60.00376825136869,
negative,blue,1,None,k,,,,,,,,,0,63,63,63,,,,,,,,,,,,,,,,,main,None,None,1,1.5015563999768347,377.4332882000599,None,None,1,,,,,,,,,,,,,,004,2022-05-06_10h37.14.975,Main,2022.1.1,60.00376825136869,
positive,blue,2,k,None,,,,,,,,,0,64,64,64,,,,,,,,,,,,,,,,,main,k,k,1,0.6185898000840098,379.9359660000773,None,None,0,,,,,,,,,,,,,,004,2022-05-06_10h37.14.975,Main,2022.1.1,60.00376825136869,
negative,yellow,2,k,None,,,,,,,,,0,65,65,65,,,,,,,,,,,,,,,,,main,k,k,1,0.7443482000380754,381.55673960002605,None,None,0,,,,,,,,,,,,,,004,2022-05-06_10h37.14.975,Main,2022.1.1,60.00376825136869,
positive,yellow,2,None,k,,,,,,,,,0,66,66,66,,,,,,,,,,,,,,,,,main,None,None,1,1.498474400024861,383.300070199999,None,None,1,,,,,,,,,,,,,,004,2022-05-06_10h37.14.975,Main,2022.1.1,60.00376825136869,
positive,yellow,2,None,k,,,,,,,,,0,67,67,67,,,,,,,,,,,,,,,,,main,None,None,1,1.4972556000575423,385.79976870003156,None,None,1,,,,,,,,,,,,,,004,2022-05-06_10h37.14.975,Main,2022.1.1,60.00376825136869,
positive,red,1,None,None,,,,,,,,,0,68,68,68,,,,,,,,,,,,,,,,,main,None,None,1,1.4977779999608174,388.30006829998456,None,None,1,,,,,,,,,,,,,,004,2022-05-06_10h37.14.975,Main,2022.1.1,60.00376825136869,
positive,yellow,1,None,k,,,,,,,,,0,69,69,69,,,,,,,,,,,,,,,,,main,None,None,1,1.4989074000623077,390.79999329999555,None,None,1,,,,,,,,,,,,,,004,2022-05-06_10h37.14.975,Main,2022.1.1,60.00376825136869,
negative,yellow,2,k,None,,,,,,,,,0,70,70,70,,,,,,,,,,,,,,,,,main,k,k,1,0.7474228000501171,393.29974489996675,None,None,0,,,,,,,,,,,,,,004,2022-05-06_10h37.14.975,Main,2022.1.1,60.00376825136869,
positive,yellow,1,None,k,,,,,,,,,0,71,71,71,,,,,,,,,,,,,,,,,main,None,None,1,1.49919190001674,395.04960550006945,None,None,1,,,,,,,,,,,,,,004,2022-05-06_10h37.14.975,Main,2022.1.1,60.00376825136869,
negative,blue,1,None,k,,,,,,,,,0,72,72,72,,,,,,,,,,,,,,,,,main,None,None,1,1.4977445000549778,397.5497388000367,None,None,1,,,,,,,,,,,,,,004,2022-05-06_10h37.14.975,Main,2022.1.1,60.00376825136869,
negative,red,2,None,None,,,,,,,,,0,73,73,73,,,,,,,,,,,,,,,,,main,None,None,1,1.499140200088732,400.04968290007673,None,None,1,,,,,,,,,,,,,,004,2022-05-06_10h37.14.975,Main,2022.1.1,60.00376825136869,
positive,blue,2,k,None,,,,,,,,,0,74,74,74,,,,,,,,,,,,,,,,,main,k,k,1,0.8659726000623778,402.5493572000414,None,None,0,,,,,,,,,,,,,,004,2022-05-06_10h37.14.975,Main,2022.1.1,60.00376825136869,
negative,blue,2,None,k,,,,,,,,,0,75,75,75,,,,,,,,,,,,,,,,,main,None,None,1,1.5016259000403807,404.4160280000651,None,None,1,,,,,,,,,,,,,,004,2022-05-06_10h37.14.975,Main,2022.1.1,60.00376825136869,
negative,blue,2,None,k,,,,,,,,,0,76,76,76,,,,,,,,,,,,,,,,,main,None,None,1,1.4962877000216395,406.91632600000594,None,None,1,,,,,,,,,,,,,,004,2022-05-06_10h37.14.975,Main,2022.1.1,60.00376825136869,
negative,yellow,1,k,None,,,,,,,,,0,77,77,77,,,,,,,,,,,,,,,,,main,k,k,1,0.9163136000279337,409.41616510006133,None,None,0,,,,,,,,,,,,,,004,2022-05-06_10h37.14.975,Main,2022.1.1,60.00376825136869,
positive,blue,1,k,None,,,,,,,,,0,78,78,78,,,,,,,,,,,,,,,,,main,k,k,1,1.0993921000044793,411.3327414999949,None,None,0,,,,,,,,,,,,,,004,2022-05-06_10h37.14.975,Main,2022.1.1,60.00376825136869,
positive,blue,1,k,None,,,,,,,,,0,79,79,79,,,,,,,,,,,,,,,,,main,k,k,1,0.6323698000051081,413.4327187000308,None,None,0,,,,,,,,,,,,,,004,2022-05-06_10h37.14.975,Main,2022.1.1,60.00376825136869,
positive,red,2,None,None,,,,,,,,,0,80,80,80,,,,,,,,,,,,,,,,,main,None,None,1,1.4982394999824464,415.0660421999637,None,None,1,,,,,,,,,,,,,,004,2022-05-06_10h37.14.975,Main,2022.1.1,60.00376825136869,
positive,yellow,2,None,k,,,,,,,,,0,81,81,81,,,,,,,,,,,,,,,,,main,None,None,1,1.4992425000527874,417.5659505999647,None,None,1,,,,,,,,,,,,,,004,2022-05-06_10h37.14.975,Main,2022.1.1,60.00376825136869,
positive,blue,1,k,None,,,,,,,,,0,82,82,82,,,,,,,,,,,,,,,,,main,k,k,1,0.999421100015752,420.066049200017,None,None,0,,,,,,,,,,,,,,004,2022-05-06_10h37.14.975,Main,2022.1.1,60.00376825136869,
negative,yellow,2,k,None,,,,,,,,,0,83,83,83,,,,,,,,,,,,,,,,,main,k,k,1,0.7989038999658078,422.0658955000108,None,None,0,,,,,,,,,,,,,,004,2022-05-06_10h37.14.975,Main,2022.1.1,60.00376825136869,
positive,blue,2,k,None,,,,,,,,,0,84,84,84,,,,,,,,,,,,,,,,,main,k,k,1,1.066085199941881,423.86581410001963,None,None,0,,,,,,,,,,,,,,004,2022-05-06_10h37.14.975,Main,2022.1.1,60.00376825136869,
positive,yellow,1,None,k,,,,,,,,,0,85,85,85,,,,,,,,,,,,,,,,,main,None,None,1,1.499467800022103,425.93247670005076,None,None,1,,,,,,,,,,,,,,004,2022-05-06_10h37.14.975,Main,2022.1.1,60.00376825136869,
positive,blue,2,k,None,,,,,,,,,0,86,86,86,,,,,,,,,,,,,,,,,main,k,k,1,0.8816584999440238,428.43243250006344,None,None,0,,,,,,,,,,,,,,004,2022-05-06_10h37.14.975,Main,2022.1.1,60.00376825136869,
positive,blue,1,k,None,,,,,,,,,0,87,87,87,,,,,,,,,,,,,,,,,main,k,k,1,1.0158456999342889,430.3157046000706,None,None,0,,,,,,,,,,,,,,004,2022-05-06_10h37.14.975,Main,2022.1.1,60.00376825136869,
negative,yellow,2,k,None,,,,,,,,,0,88,88,88,,,,,,,,,,,,,,,,,main,k,k,1,0.7824280000058934,432.332269800012,None,None,0,,,,,,,,,,,,,,004,2022-05-06_10h37.14.975,Main,2022.1.1,60.00376825136869,
negative,blue,2,None,k,,,,,,,,,0,89,89,89,,,,,,,,,,,,,,,,,main,None,None,1,1.5012444000458345,434.1155868000351,None,None,1,,,,,,,,,,,,,,004,2022-05-06_10h37.14.975,Main,2022.1.1,60.00376825136869,
positive,yellow,2,None,k,,,,,,,,,0,90,90,90,,,,,,,,,,,,,,,,,main,None,None,1,1.497310100006871,436.61559210007545,None,None,1,,,,,,,,,,,,,,004,2022-05-06_10h37.14.975,Main,2022.1.1,60.00376825136869,
negative,yellow,1,k,None,,,,,,,,,0,91,91,91,,,,,,,,,,,,,,,,,main,k,k,1,0.7844242999562994,439.1152741999831,None,None,0,,,,,,,,,,,,,,004,2022-05-06_10h37.14.975,Main,2022.1.1,60.00376825136869,
negative,red,2,None,None,,,,,,,,,0,92,92,92,,,,,,,,,,,,,,,,,main,None,None,1,1.4962032999610528,440.901376600028,None,None,1,,,,,,,,,,,,,,004,2022-05-06_10h37.14.975,Main,2022.1.1,60.00376825136869,
negative,blue,2,None,k,,,,,,,,,0,93,93,93,,,,,,,,,,,,,,,,,main,None,None,1,1.4990389000158757,443.39875379996374,None,None,1,,,,,,,,,,,,,,004,2022-05-06_10h37.14.975,Main,2022.1.1,60.00376825136869,
negative,blue,1,None,k,,,,,,,,,0,94,94,94,,,,,,,,,,,,,,,,,main,None,None,1,1.5013374000554904,445.8987656000536,None,None,1,,,,,,,,,,,,,,004,2022-05-06_10h37.14.975,Main,2022.1.1,60.00376825136869,
negative,blue,1,None,k,,,,,,,,,0,95,95,95,,,,,,,,,,,,,,,,,main,None,None,1,1.4979044999927282,448.39875870000105,None,None,1,,,,,,,,,,,,,,004,2022-05-06_10h37.14.975,Main,2022.1.1,60.00376825136869,
negative,red,1,None,None,,,,,,,,,0,96,96,96,,,,,,,,,,,,,,,,,main,None,None,1,1.4978336999192834,450.89855020004325,None,None,1,,,,,,,,,,,,,,004,2022-05-06_10h37.14.975,Main,2022.1.1,60.00376825136869,
positive,yellow,1,None,k,,,,,,,,,0,97,97,97,,,,,,,,,,,,,,,,,main,None,None,1,1.4995490999426693,453.3985511000501,None,None,1,,,,,,,,,,,,,,004,2022-05-06_10h37.14.975,Main,2022.1.1,60.00376825136869,
negative,yellow,1,k,None,,,,,,,,,0,98,98,98,,,,,,,,,,,,,,,,,main,k,k,1,0.8647412999998778,455.8984488999704,None,None,0,,,,,,,,,,,,,,004,2022-05-06_10h37.14.975,Main,2022.1.1,60.00376825136869,
positive,red,1,None,None,,,,,,,,,0,99,99,99,,,,,,,,,,,,,,,,,main,None,None,1,1.5016662999987602,457.76510560000315,None,None,1,,,,,,,,,,,,,,004,2022-05-06_10h37.14.975,Main,2022.1.1,60.00376825136869,
positive,blue,1,k,None,,,,,,,,,0,100,100,100,,,,,,,,,,,,,,,,,main,k,k,1,0.9958354000700638,460.2650828000624,None,None,0,,,,,,,,,,,,,,004,2022-05-06_10h37.14.975,Main,2022.1.1,60.00376825136869,
negative,yellow,1,k,None,,,,,,,,,0,101,101,101,,,,,,,,,,,,,,,,,main,k,k,1,0.8491276999702677,462.26495690003503,None,None,0,,,,,,,,,,,,,,004,2022-05-06_10h37.14.975,Main,2022.1.1,60.00376825136869,
negative,blue,2,None,k,,,,,,,,,0,102,102,102,,,,,,,,,,,,,,,,,main,None,None,1,1.4996680999174714,464.11506920005195,None,None,1,,,,,,,,,,,,,,004,2022-05-06_10h37.14.975,Main,2022.1.1,60.00376825136869,
negative,yellow,2,k,None,,,,,,,,,0,103,103,103,,,,,,,,,,,,,,,,,main,k,k,1,0.9480381000321358,466.61504559998866,None,None,0,,,,,,,,,,,,,,004,2022-05-06_10h37.14.975,Main,2022.1.1,60.00376825136869,
positive,yellow,2,None,k,,,,,,,,,0,104,104,104,,,,,,,,,,,,,,,,,main,None,None,1,1.5018154999706894,468.56461130001117,None,None,1,,,,,,,,,,,,,,004,2022-05-06_10h37.14.975,Main,2022.1.1,60.00376825136869,
positive,blue,1,k,None,,,,,,,,,0,105,105,105,,,,,,,,,,,,,,,,,main,k,k,1,0.8804479000391439,471.0649377000518,None,None,0,,,,,,,,,,,,,,004,2022-05-06_10h37.14.975,Main,2022.1.1,60.00376825136869,
positive,blue,2,k,None,,,,,,,,,0,106,106,106,,,,,,,,,,,,,,,,,main,k,k,1,2.3821225999854505,472.94835970003624,None,None,0,,,,,,,,,,,,,,004,2022-05-06_10h37.14.975,Main,2022.1.1,60.00376825136869,
negative,blue,1,None,k,,,,,,,,,0,107,107,107,,,,,,,,,,,,,,,,,main,None,None,1,1.4997364999726415,477.3314675000729,None,None,1,,,,,,,,,,,,,,004,2022-05-06_10h37.14.975,Main,2022.1.1,60.00376825136869,
positive,yellow,2,None,k,,,,,,,,,0,108,108,108,,,,,,,,,,,,,,,,,main,None,None,1,1.4973214000929147,479.83136080007534,None,None,1,,,,,,,,,,,,,,004,2022-05-06_10h37.14.975,Main,2022.1.1,60.00376825136869,
negative,yellow,1,k,None,,,,,,,,,0,109,109,109,,,,,,,,,,,,,,,,,main,k,k,1,0.7995217000134289,482.3312064000638,None,None,0,,,,,,,,,,,,,,004,2022-05-06_10h37.14.975,Main,2022.1.1,60.00376825136869,
negative,blue,2,None,k,,,,,,,,,0,110,110,110,,,,,,,,,,,,,,,,,main,None,None,1,1.4986104000126943,484.1313179000281,None,None,1,,,,,,,,,,,,,,004,2022-05-06_10h37.14.975,Main,2022.1.1,60.00376825136869,
positive,blue,2,k,None,,,,,,,,,0,111,111,111,,,,,,,,,,,,,,,,,main,k,k,1,0.849451299989596,486.63121350004803,None,None,0,,,,,,,,,,,,,,004,2022-05-06_10h37.14.975,Main,2022.1.1,60.00376825136869,
negative,blue,1,None,k,,,,,,,,,0,112,112,112,,,,,,,,,,,,,,,,,main,None,None,1,1.49882500001695,488.4810696999775,None,None,1,,,,,,,,,,,,,,004,2022-05-06_10h37.14.975,Main,2022.1.1,60.00376825136869,
positive,yellow,1,None,k,,,,,,,,,0,113,113,113,,,,,,,,,,,,,,,,,main,None,None,1,1.4993774000322446,490.9810722999973,None,None,1,,,,,,,,,,,,,,004,2022-05-06_10h37.14.975,Main,2022.1.1,60.00376825136869,
negative,red,1,None,None,,,,,,,,,0,114,114,114,,,,,,,,,,,,,,,,,main,None,None,1,1.498877799953334,493.48097320005763,None,None,1,,,,,,,,,,,,,,004,2022-05-06_10h37.14.975,Main,2022.1.1,60.00376825136869,
positive,red,1,None,None,,,,,,,,,0,115,115,115,,,,,,,,,,,,,,,,,main,None,None,1,1.4991461000172421,495.98094699997455,None,None,1,,,,,,,,,,,,,,004,2022-05-06_10h37.14.975,Main,2022.1.1,60.00376825136869,
negative,red,2,None,None,,,,,,,,,0,116,116,116,,,,,,,,,,,,,,,,,main,None,None,1,1.4986367999808863,498.4811881000642,None,None,1,,,,,,,,,,,,,,004,2022-05-06_10h37.14.975,Main,2022.1.1,60.00376825136869,
negative,yellow,2,k,None,,,,,,,,,0,117,117,117,,,,,,,,,,,,,,,,,main,k,k,1,0.9323995000449941,500.9808339000447,None,None,0,,,,,,,,,,,,,,004,2022-05-06_10h37.14.975,Main,2022.1.1,60.00376825136869,
positive,yellow,1,None,k,,,,,,,,,0,118,118,118,,,,,,,,,,,,,,,,,main,None,None,1,1.4983337000012398,502.9141801999649,None,None,1,,,,,,,,,,,,,,004,2022-05-06_10h37.14.975,Main,2022.1.1,60.00376825136869,
positive,red,2,None,None,,,,,,,,,0,119,119,119,,,,,,,,,,,,,,,,,main,None,None,1,1.502057999954559,505.4138150999788,None,None,1,,,,,,,,,,,,,,004,2022-05-06_10h37.14.975,Main,2022.1.1,60.00376825136869,
positive,blue,2,k,None,,,,,,,,,0,120,120,120,,,,,,,,,,,,,,,,,main,k,k,1,0.8636647999519482,507.91657620004844,None,None,0,,,,,,,,,,,,,,004,2022-05-06_10h37.14.975,Main,2022.1.1,60.00376825136869,
negative,red,1,None,None,,,,,,,,,0,121,121,121,,,,,,,,,,,,,,,,,main,None,None,1,1.4991005000192672,509.78665650007315,None,None,1,,,,,,,,,,,,,,004,2022-05-06_10h37.14.975,Main,2022.1.1,60.00376825136869,
positive,yellow,2,None,k,,,,,,,,,0,122,122,122,,,,,,,,,,,,,,,,,main,None,None,1,1.5030714999884367,512.2807060000487,None,None,1,,,,,,,,,,,,,,004,2022-05-06_10h37.14.975,Main,2022.1.1,60.00376825136869,
negative,red,2,None,None,,,,,,,,,0,123,123,123,,,,,,,,,,,,,,,,,main,None,None,1,1.4946435999590904,514.7806200999767,None,None,1,,,,,,,,,,,,,,004,2022-05-06_10h37.14.975,Main,2022.1.1,60.00376825136869,
negative,yellow,2,k,None,,,,,,,,,0,124,124,124,,,,,,,,,,,,,,,,,main,k,k,1,0.8323659999296069,517.2805327000096,None,None,0,,,,,,,,,,,,,,004,2022-05-06_10h37.14.975,Main,2022.1.1,60.00376825136869,
positive,red,1,None,None,,,,,,,,,0,125,125,125,,,,,,,,,,,,,,,,,main,None,None,1,1.499275999958627,519.1137495000148,None,None,1,,,,,,,,,,,,,,004,2022-05-06_10h37.14.975,Main,2022.1.1,60.00376825136869,
negative,blue,2,None,k,,,,,,,,,0,126,126,126,,,,,,,,,,,,,,,,,main,None,None,1,1.4989700999576598,521.613755300059,None,None,1,,,,,,,,,,,,,,004,2022-05-06_10h37.14.975,Main,2022.1.1,60.00376825136869,
negative,blue,1,None,k,,,,,,,,,0,127,127,127,,,,,,,,,,,,,,,,,main,None,None,1,1.4989943000255153,524.1136291000294,None,None,1,,,,,,,,,,,,,,004,2022-05-06_10h37.14.975,Main,2022.1.1,60.00376825136869,
negative,yellow,1,k,None,,,,,,,,,0,128,128,128,,,,,,,,,,,,,,,,,main,k,k,1,0.8495170000242069,526.6137103000656,None,None,0,,,,,,,,,,,,,,004,2022-05-06_10h37.14.975,Main,2022.1.1,60.00376825136869,
negative,yellow,1,k,None,,,,,,,,,0,129,129,129,,,,,,,,,,,,,,,,,main,k,k,1,0.8326234000269324,528.4635688000126,None,None,0,,,,,,,,,,,,,,004,2022-05-06_10h37.14.975,Main,2022.1.1,60.00376825136869,
positive,blue,1,k,None,,,,,,,,,0,130,130,130,,,,,,,,,,,,,,,,,main,k,k,1,0.7326066000387073,530.2968824000563,None,None,0,,,,,,,,,,,,,,004,2022-05-06_10h37.14.975,Main,2022.1.1,60.00376825136869,
negative,blue,1,None,k,,,,,,,,,0,131,131,131,,,,,,,,,,,,,,,,,main,None,None,1,1.4993954000528902,532.0302122000139,None,None,1,,,,,,,,,,,,,,004,2022-05-06_10h37.14.975,Main,2022.1.1,60.00376825136869,
negative,blue,2,None,k,,,,,,,,,0,132,132,132,,,,,,,,,,,,,,,,,main,None,None,1,1.4991852999664843,534.5301855000434,None,None,1,,,,,,,,,,,,,,004,2022-05-06_10h37.14.975,Main,2022.1.1,60.00376825136869,
positive,blue,2,k,None,,,,,,,,,0,133,133,133,,,,,,,,,,,,,,,,,main,k,k,1,0.8708198999520391,537.0301749999635,None,None,0,,,,,,,,,,,,,,004,2022-05-06_10h37.14.975,Main,2022.1.1,60.00376825136869,
positive,red,2,None,None,,,,,,,,,0,134,134,134,,,,,,,,,,,,,,,,,main,None,None,1,1.4936085999943316,538.9069147000555,None,None,1,,,,,,,,,,,,,,004,2022-05-06_10h37.14.975,Main,2022.1.1,60.00376825136869,
negative,yellow,2,k,None,,,,,,,,,0,135,135,135,,,,,,,,,,,,,,,,,main,k,k,1,0.8995938999578357,541.3964552000398,None,None,0,,,,,,,,,,,,,,004,2022-05-06_10h37.14.975,Main,2022.1.1,60.00376825136869,
positive,yellow,2,None,k,,,,,,,,,0,136,136,136,,,,,,,,,,,,,,,,,main,None,None,1,1.4994825999019668,543.2968104999745,None,None,1,,,,,,,,,,,,,,004,2022-05-06_10h37.14.975,Main,2022.1.1,60.00376825136869,
positive,blue,1,k,None,,,,,,,,,0,137,137,137,,,,,,,,,,,,,,,,,main,k,k,1,0.7971290000714362,545.7965631000698,None,None,0,,,,,,,,,,,,,,004,2022-05-06_10h37.14.975,Main,2022.1.1,60.00376825136869,
positive,yellow,1,None,k,,,,,,,,,0,138,138,138,,,,,,,,,,,,,,,,,main,None,None,1,1.4989111999748275,547.5965318999952,None,None,1,,,,,,,,,,,,,,004,2022-05-06_10h37.14.975,Main,2022.1.1,60.00376825136869,
positive,yellow,1,None,k,,,,,,,,,0,139,139,139,,,,,,,,,,,,,,,,,main,None,None,1,1.4996214000275359,550.0964955000672,None,None,1,,,,,,,,,,,,,,004,2022-05-06_10h37.14.975,Main,2022.1.1,60.00376825136869,
positive,yellow,1,None,k,,,,,,,,,0,140,140,140,,,,,,,,,,,,,,,,,main,None,None,1,1.4985784000018612,552.5964859999949,None,None,1,,,,,,,,,,,,,,004,2022-05-06_10h37.14.975,Main,2022.1.1,60.00376825136869,
positive,blue,1,k,None,,,,,,,,,0,141,141,141,,,,,,,,,,,,,,,,,main,k,k,1,0.8836180000798777,555.0964447000297,None,None,0,,,,,,,,,,,,,,004,2022-05-06_10h37.14.975,Main,2022.1.1,60.00376825136869,
positive,blue,2,k,None,,,,,,,,,0,142,142,142,,,,,,,,,,,,,,,,,main,k,k,1,0.6479342000093311,556.9796860000351,None,None,0,,,,,,,,,,,,,,004,2022-05-06_10h37.14.975,Main,2022.1.1,60.00376825136869,
positive,yellow,2,None,k,,,,,,,,,0,143,143,143,,,,,,,,,,,,,,,,,main,None,None,1,1.4989159000106156,558.6296007999917,None,None,1,,,,,,,,,,,,,,004,2022-05-06_10h37.14.975,Main,2022.1.1,60.00376825136869,
negative,yellow,2,k,None,,,,,,,,,0,144,144,144,,,,,,,,,,,,,,,,,main,k,k,1,1.3659835000289604,561.1320116000716,None,None,0,,,,,,,,,,,,,,004,2022-05-06_10h37.14.975,Main,2022.1.1,60.00376825136869,
negative,blue,2,None,k,,,,,,,,,0,145,145,145,,,,,,,,,,,,,,,,,main,None,None,1,1.4980651000514627,563.4961396000581,None,None,1,,,,,,,,,,,,,,004,2022-05-06_10h37.14.975,Main,2022.1.1,60.00376825136869,
negative,red,1,None,None,,,,,,,,,0,146,146,146,,,,,,,,,,,,,,,,,main,None,None,1,1.499746699933894,565.9961297999835,None,None,1,,,,,,,,,,,,,,004,2022-05-06_10h37.14.975,Main,2022.1.1,60.00376825136869,
positive,blue,1,k,None,,,,,,,,,0,147,147,147,,,,,,,,,,,,,,,,,main,k,k,1,0.7989718999015167,568.4961381000467,None,None,0,,,,,,,,,,,,,,004,2022-05-06_10h37.14.975,Main,2022.1.1,60.00376825136869,
positive,yellow,1,None,k,,,,,,,,,0,148,148,148,,,,,,,,,,,,,,,,,main,None,None,1,1.4987718999618664,570.2959886000026,None,None,1,,,,,,,,,,,,,,004,2022-05-06_10h37.14.975,Main,2022.1.1,60.00376825136869,
negative,red,2,None,None,,,,,,,,,0,149,149,149,,,,,,,,,,,,,,,,,main,None,None,1,1.5000546999508515,572.7960843000328,None,None,1,,,,,,,,,,,,,,004,2022-05-06_10h37.14.975,Main,2022.1.1,60.00376825136869,
negative,blue,1,None,k,,,,,,,,,0,150,150,150,,,,,,,,,,,,,,,,,main,None,None,1,1.4979289000621065,575.2958855000325,None,None,1,,,,,,,,,,,,,,004,2022-05-06_10h37.14.975,Main,2022.1.1,60.00376825136869,
negative,yellow,2,k,None,,,,,,,,,0,151,151,151,,,,,,,,,,,,,,,,,main,k,k,1,0.8497303000185639,577.7958933999762,None,None,0,,,,,,,,,,,,,,004,2022-05-06_10h37.14.975,Main,2022.1.1,60.00376825136869,
negative,blue,2,None,k,,,,,,,,,0,152,152,152,,,,,,,,,,,,,,,,,main,None,None,1,1.4985183000098914,579.6458891000366,None,None,1,,,,,,,,,,,,,,004,2022-05-06_10h37.14.975,Main,2022.1.1,60.00376825136869,
negative,yellow,1,k,None,,,,,,,,,0,153,153,153,,,,,,,,,,,,,,,,,main,k,k,1,0.8665039999177679,582.1455565000651,None,None,0,,,,,,,,,,,,,,004,2022-05-06_10h37.14.975,Main,2022.1.1,60.00376825136869,
negative,blue,1,None,k,,,,,,,,,0,154,154,154,,,,,,,,,,,,,,,,,main,None,None,1,1.5020129000768065,584.0149320000783,None,None,1,,,,,,,,,,,,,,004,2022-05-06_10h37.14.975,Main,2022.1.1,60.00376825136869,
positive,yellow,2,None,k,,,,,,,,,0,155,155,155,,,,,,,,,,,,,,,,,main,None,None,1,1.495532999979332,586.5124601999996,None,None,1,,,,,,,,,,,,,,004,2022-05-06_10h37.14.975,Main,2022.1.1,60.00376825136869,
positive,red,2,None,None,,,,,,,,,0,156,156,156,,,,,,,,,,,,,,,,,main,None,None,1,1.499405900016427,589.0122652000282,None,None,1,,,,,,,,,,,,,,004,2022-05-06_10h37.14.975,Main,2022.1.1,60.00376825136869,
positive,red,1,None,None,,,,,,,,,0,157,157,157,,,,,,,,,,,,,,,,,main,None,None,1,1.498933699913323,591.5123378999997,None,None,1,,,,,,,,,,,,,,004,2022-05-06_10h37.14.975,Main,2022.1.1,60.00376825136869,
positive,blue,2,k,None,,,,,,,,,0,158,158,158,,,,,,,,,,,,,,,,,main,k,k,1,0.9831136000575498,594.0121491000755,None,None,0,,,,,,,,,,,,,,004,2022-05-06_10h37.14.975,Main,2022.1.1,60.00376825136869,
negative,yellow,1,k,None,,,,,,,,,0,159,159,159,,,,,,,,,,,,,,,,,main,k,k,1,0.8339894999517128,595.9954954000423,None,None,0,,,,,,,,,,,,,,004,2022-05-06_10h37.14.975,Main,2022.1.1,60.00376825136869,
negative,red,2,None,None,,,,,,,,,0,160,160,160,,,,,,,,,,,,,,,,,main,None,None,1,1.4981865000445396,597.8288637000369,None,None,1,,,,,,,,,,,,,,004,2022-05-06_10h37.14.975,Main,2022.1.1,60.00376825136869,
negative,blue,1,None,k,,,,,,,,,0,161,161,161,,,,,,,,,,,,,,,,,main,None,None,1,1.4999482999555767,600.3285571000306,None,None,1,,,,,,,,,,,,,,004,2022-05-06_10h37.14.975,Main,2022.1.1,60.00376825136869,
negative,blue,1,None,k,,,,,,,,,0,162,162,162,,,,,,,,,,,,,,,,,main,None,None,1,1.496896700002253,602.8287948999787,None,None,1,,,,,,,,,,,,,,004,2022-05-06_10h37.14.975,Main,2022.1.1,60.00376825136869,
negative,yellow,1,k,None,,,,,,,,,0,163,163,163,,,,,,,,,,,,,,,,,main,k,k,1,0.9325543000595644,605.3286694000708,None,None,0,,,,,,,,,,,,,,004,2022-05-06_10h37.14.975,Main,2022.1.1,60.00376825136869,
negative,yellow,1,k,None,,,,,,,,,0,164,164,164,,,,,,,,,,,,,,,,,main,k,k,1,1.1155918999575078,607.2619600000326,None,None,0,,,,,,,,,,,,,,004,2022-05-06_10h37.14.975,Main,2022.1.1,60.00376825136869,
positive,yellow,1,None,k,,,,,,,,,0,165,165,165,,,,,,,,,,,,,,,,,main,None,None,1,1.5055553000420332,609.3785730999662,None,None,1,,,,,,,,,,,,,,004,2022-05-06_10h37.14.975,Main,2022.1.1,60.00376825136869,
negative,red,1,None,None,,,,,,,,,0,166,166,166,,,,,,,,,,,,,,,,,main,None,None,1,1.4928529999451712,611.8859857000643,None,None,1,,,,,,,,,,,,,,004,2022-05-06_10h37.14.975,Main,2022.1.1,60.00376825136869,
negative,yellow,2,k,None,,,,,,,,,0,167,167,167,,,,,,,,,,,,,,,,,main,k,k,1,0.833653699955903,614.37825780001,None,None,0,,,,,,,,,,,,,,004,2022-05-06_10h37.14.975,Main,2022.1.1,60.00376825136869,
positive,blue,2,k,None,,,,,,,,,0,168,168,168,,,,,,,,,,,,,,,,,main,k,k,1,1.0016124999383464,616.2118831999833,None,None,0,,,,,,,,,,,,,,004,2022-05-06_10h37.14.975,Main,2022.1.1,60.00376825136869,
positive,red,2,None,None,,,,,,,,,0,169,169,169,,,,,,,,,,,,,,,,,main,None,None,1,1.493942999979481,618.220676099998,None,None,1,,,,,,,,,,,,,,004,2022-05-06_10h37.14.975,Main,2022.1.1,60.00376825136869,
positive,red,1,None,None,,,,,,,,,0,170,170,170,,,,,,,,,,,,,,,,,main,None,None,1,1.5016048001125455,620.7116630000528,None,None,1,,,,,,,,,,,,,,004,2022-05-06_10h37.14.975,Main,2022.1.1,60.00376825136869,
negative,blue,2,None,k,,,,,,,,,0,171,171,171,,,,,,,,,,,,,,,,,main,None,None,1,1.4964578999206424,623.2116011000471,None,None,1,,,,,,,,,,,,,,004,2022-05-06_10h37.14.975,Main,2022.1.1,60.00376825136869,
positive,blue,2,k,None,,,,,,,,,0,172,172,172,,,,,,,,,,,,,,,,,main,k,k,1,0.8660118000116199,625.7113633999834,None,None,0,,,,,,,,,,,,,,004,2022-05-06_10h37.14.975,Main,2022.1.1,60.00376825136869,
negative,yellow,2,k,None,,,,,,,,,0,173,173,173,,,,,,,,,,,,,,,,,main,k,k,1,0.9162058000219986,627.5779386999784,None,None,0,,,,,,,,,,,,,,004,2022-05-06_10h37.14.975,Main,2022.1.1,60.00376825136869,
positive,yellow,2,None,k,,,,,,,,,0,174,174,174,,,,,,,,,,,,,,,,,main,None,None,1,1.5023282999172807,629.4949439000338,None,None,1,,,,,,,,,,,,,,004,2022-05-06_10h37.14.975,Main,2022.1.1,60.00376825136869,
negative,blue,2,None,k,,,,,,,,,0,175,175,175,,,,,,,,,,,,,,,,,main,None,None,1,1.4977106000296772,631.9948524000356,None,None,1,,,,,,,,,,,,,,004,2022-05-06_10h37.14.975,Main,2022.1.1,60.00376825136869,
positive,blue,1,k,None,,,,,,,,,0,176,176,176,,,,,,,,,,,,,,,,,main,k,k,1,0.7469871999928728,634.4948005999904,None,None,0,,,,,,,,,,,,,,004,2022-05-06_10h37.14.975,Main,2022.1.1,60.00376825136869,
positive,yellow,1,None,k,,,,,,,,,0,177,177,177,,,,,,,,,,,,,,,,,main,None,None,1,1.499138499959372,636.2445946000516,None,None,1,,,,,,,,,,,,,,004,2022-05-06_10h37.14.975,Main,2022.1.1,60.00376825136869,
positive,blue,1,k,None,,,,,,,,,0,178,178,178,,,,,,,,,,,,,,,,,main,k,k,1,0.8150605999398977,638.7446262000594,None,None,0,,,,,,,,,,,,,,004,2022-05-06_10h37.14.975,Main,2022.1.1,60.00376825136869,
positive,yellow,2,None,k,,,,,,,,,0,179,179,179,,,,,,,,,,,,,,,,,main,None,None,1,1.5017448000144213,640.5609604000347,None,None,1,,,,,,,,,,,,,,004,2022-05-06_10h37.14.975,Main,2022.1.1,60.00376825136869,
positive,blue,1,k,None,,,,,,,,,0,180,180,180,,,,,,,,,,,,,,,,,main,k,k,1,0.8802403000881895,643.0612752999878,None,None,0,,,,,,,,,,,,,,004,2022-05-06_10h37.14.975,Main,2022.1.1,60.00376825136869,
negative,red,1,None,None,,,,,,,,,0,181,181,181,,,,,,,,,,,,,,,,,main,None,None,1,1.498607600107789,644.9470815999666,None,None,1,,,,,,,,,,,,,,004,2022-05-06_10h37.14.975,Main,2022.1.1,60.00376825136869,
negative,blue,1,None,k,,,,,,,,,0,182,182,182,,,,,,,,,,,,,,,,,main,None,None,1,1.4977954999776557,647.4445212000282,None,None,1,,,,,,,,,,,,,,004,2022-05-06_10h37.14.975,Main,2022.1.1,60.00376825136869,
negative,yellow,2,k,None,,,,,,,,,0,183,183,183,,,,,,,,,,,,,,,,,main,k,k,1,0.8814364999998361,649.9443893000716,None,None,0,,,,,,,,,,,,,,004,2022-05-06_10h37.14.975,Main,2022.1.1,60.00376825136869,
positive,yellow,2,None,k,,,,,,,,,0,184,184,184,,,,,,,,,,,,,,,,,main,None,None,1,1.499584999983199,651.8277272999985,None,None,1,,,,,,,,,,,,,,004,2022-05-06_10h37.14.975,Main,2022.1.1,60.00376825136869,
positive,yellow,1,None,k,,,,,,,,,0,185,185,185,,,,,,,,,,,,,,,,,main,None,None,1,1.4979036999866366,654.3276197999949,None,None,1,,,,,,,,,,,,,,004,2022-05-06_10h37.14.975,Main,2022.1.1,60.00376825136869,
positive,red,2,None,None,,,,,,,,,0,186,186,186,,,,,,,,,,,,,,,,,main,None,None,1,1.4992296999553218,656.8275559999747,None,None,1,,,,,,,,,,,,,,004,2022-05-06_10h37.14.975,Main,2022.1.1,60.00376825136869,
positive,blue,1,k,None,,,,,,,,,0,187,187,187,,,,,,,,,,,,,,,,,main,k,k,1,0.8481065999949351,659.3333644999657,None,None,0,,,,,,,,,,,,,,004,2022-05-06_10h37.14.975,Main,2022.1.1,60.00376825136869,
negative,yellow,1,k,None,,,,,,,,,0,188,188,188,,,,,,,,,,,,,,,,,main,k,k,1,0.9649394999723881,661.1774087999947,None,None,0,,,,,,,,,,,,,,004,2022-05-06_10h37.14.975,Main,2022.1.1,60.00376825136869,
positive,yellow,2,None,k,,,,,,,,,0,189,189,189,,,,,,,,,,,,,,,,,main,None,None,1,1.4995885000098497,663.1441439000191,None,None,1,,,,,,,,,,,,,,004,2022-05-06_10h37.14.975,Main,2022.1.1,60.00376825136869,
negative,yellow,2,k,None,,,,,,,,,0,190,190,190,,,,,,,,,,,,,,,,,main,k,k,1,0.7484046999597922,665.6440687000286,None,None,0,,,,,,,,,,,,,,004,2022-05-06_10h37.14.975,Main,2022.1.1,60.00376825136869,
negative,yellow,1,k,None,,,,,,,,,0,191,191,191,,,,,,,,,,,,,,,,,main,k,k,1,0.9991011000238359,667.3940098000458,None,None,0,,,,,,,,,,,,,,004,2022-05-06_10h37.14.975,Main,2022.1.1,60.00376825136869,
positive,blue,2,k,None,,,,,,,,,0,192,192,192,,,,,,,,,,,,,,,,,main,k,k,1,0.6654151999391615,669.3940799999982,None,None,0,,,,,,,,,,,,,,004,2022-05-06_10h37.14.975,Main,2022.1.1,60.00376825136869,
positive,yellow,1,None,k,,,,,,,,,0,193,193,193,,,,,,,,,,,,,,,,,main,None,None,1,1.5014544000150636,671.0602867000271,None,None,1,,,,,,,,,,,,,,004,2022-05-06_10h37.14.975,Main,2022.1.1,60.00376825136869,
negative,red,2,None,None,,,,,,,,,0,194,194,194,,,,,,,,,,,,,,,,,main,None,None,1,1.4992115000495687,673.5629572999896,None,None,1,,,,,,,,,,,,,,004,2022-05-06_10h37.14.975,Main,2022.1.1,60.00376825136869,
positive,red,1,None,None,,,,,,,,,0,195,195,195,,,,,,,,,,,,,,,,,main,None,None,1,1.4972477999981493,676.0606106000487,None,None,1,,,,,,,,,,,,,,004,2022-05-06_10h37.14.975,Main,2022.1.1,60.00376825136869,
negative,blue,1,None,k,,,,,,,,,0,196,196,196,,,,,,,,,,,,,,,,,main,None,None,1,1.5007503000088036,678.5602013000753,None,None,1,,,,,,,,,,,,,,004,2022-05-06_10h37.14.975,Main,2022.1.1,60.00376825136869,
positive,blue,2,k,None,,,,,,,,,0,197,197,197,,,,,,,,,,,,,,,,,main,k,k,1,0.9803672999842092,681.0604616000783,None,None,0,,,,,,,,,,,,,,004,2022-05-06_10h37.14.975,Main,2022.1.1,60.00376825136869,
negative,blue,2,None,k,,,,,,,,,0,198,198,198,,,,,,,,,,,,,,,,,main,None,None,1,1.4999113999074325,683.0436516000191,None,None,1,,,,,,,,,,,,,,004,2022-05-06_10h37.14.975,Main,2022.1.1,60.00376825136869,
negative,blue,2,None,k,,,,,,,,,0,199,199,199,,,,,,,,,,,,,,,,,main,None,None,1,1.5001720999134704,685.5435554999858,None,None,1,,,,,,,,,,,,,,004,2022-05-06_10h37.14.975,Main,2022.1.1,60.00376825136869,
positive,blue,2,k,None,,,,,,,,,0,200,200,200,,,,,,,,,,,,,,,,,main,k,k,1,0.7970273999962956,688.043532300042,None,None,0,,,,,,,,,,,,,,004,2022-05-06_10h37.14.975,Main,2022.1.1,60.00376825136869,
positive,blue,2,k,None,,,,,,,,,0,201,201,201,,,,,,,,,,,,,,,,,main,k,k,1,0.7824892000062391,689.8434868999757,None,None,0,,,,,,,,,,,,,,004,2022-05-06_10h37.14.975,Main,2022.1.1,60.00376825136869,
negative,yellow,2,k,None,,,,,,,,,0,202,202,202,,,,,,,,,,,,,,,,,main,k,k,1,0.8991485999431461,691.6267829000717,None,None,0,,,,,,,,,,,,,,004,2022-05-06_10h37.14.975,Main,2022.1.1,60.00376825136869,
positive,red,1,None,None,,,,,,,,,0,203,203,203,,,,,,,,,,,,,,,,,main,None,None,1,1.4987077000550926,693.5267825999763,None,None,1,,,,,,,,,,,,,,004,2022-05-06_10h37.14.975,Main,2022.1.1,60.00376825136869,
negative,blue,2,None,k,,,,,,,,,0,204,204,204,,,,,,,,,,,,,,,,,main,None,None,1,1.4987506999168545,696.0267535999883,None,None,1,,,,,,,,,,,,,,004,2022-05-06_10h37.14.975,Main,2022.1.1,60.00376825136869,
negative,red,1,None,None,,,,,,,,,0,205,205,205,,,,,,,,,,,,,,,,,main,None,None,1,1.4989085999550298,698.5265293000266,None,None,1,,,,,,,,,,,,,,004,2022-05-06_10h37.14.975,Main,2022.1.1,60.00376825136869,
negative,blue,2,None,k,,,,,,,,,0,206,206,206,,,,,,,,,,,,,,,,,main,None,None,1,1.4988804999738932,701.0265443000244,None,None,1,,,,,,,,,,,,,,004,2022-05-06_10h37.14.975,Main,2022.1.1,60.00376825136869,
negative,yellow,2,k,None,,,,,,,,,0,207,207,207,,,,,,,,,,,,,,,,,main,k,k,1,0.9171468999702483,703.5265451000305,None,None,0,,,,,,,,,,,,,,004,2022-05-06_10h37.14.975,Main,2022.1.1,60.00376825136869,
positive,yellow,2,None,k,,,,,,,,,0,208,208,208,,,,,,,,,,,,,,,,,main,None,None,1,1.4996267999522388,705.4432468999876,None,None,1,,,,,,,,,,,,,,004,2022-05-06_10h37.14.975,Main,2022.1.1,60.00376825136869,
negative,yellow,1,k,None,,,,,,,,,0,209,209,209,,,,,,,,,,,,,,,,,main,k,k,1,0.847522099968046,707.9428969,None,None,0,,,,,,,,,,,,,,004,2022-05-06_10h37.14.975,Main,2022.1.1,60.00376825136869,
negative,red,2,None,None,,,,,,,,,0,210,210,210,,,,,,,,,,,,,,,,,main,None,None,1,1.4978519000578672,709.7932176999748,None,None,1,,,,,,,,,,,,,,004,2022-05-06_10h37.14.975,Main,2022.1.1,60.00376825136869,
negative,blue,1,None,k,,,,,,,,,0,211,211,211,,,,,,,,,,,,,,,,,main,None,None,1,1.4989465000107884,712.2930580000393,None,None,1,,,,,,,,,,,,,,004,2022-05-06_10h37.14.975,Main,2022.1.1,60.00376825136869,
negative,yellow,1,k,None,,,,,,,,,0,212,212,212,,,,,,,,,,,,,,,,,main,k,k,1,0.9974761999910697,714.7929681000533,None,None,0,,,,,,,,,,,,,,004,2022-05-06_10h37.14.975,Main,2022.1.1,60.00376825136869,
positive,blue,1,k,None,,,,,,,,,0,213,213,213,,,,,,,,,,,,,,,,,main,k,k,1,0.8325192999327555,716.7929245000705,None,None,0,,,,,,,,,,,,,,004,2022-05-06_10h37.14.975,Main,2022.1.1,60.00376825136869,
positive,blue,1,k,None,,,,,,,,,0,214,214,214,,,,,,,,,,,,,,,,,main,k,k,1,0.6158912000246346,718.62623970001,None,None,0,,,,,,,,,,,,,,004,2022-05-06_10h37.14.975,Main,2022.1.1,60.00376825136869,
positive,yellow,1,None,k,,,,,,,,,0,215,215,215,,,,,,,,,,,,,,,,,main,None,None,1,1.4987992000533268,720.2428546000738,None,None,1,,,,,,,,,,,,,,004,2022-05-06_10h37.14.975,Main,2022.1.1,60.00376825136869,
positive,yellow,1,None,k,,,,,,,,,0,216,216,216,,,,,,,,,,,,,,,,,main,None,None,1,1.4988236000062898,722.7429378000088,None,None,1,,,,,,,,,,,,,,004,2022-05-06_10h37.14.975,Main,2022.1.1,60.00376825136869,
positive,yellow,2,None,k,,,,,,,,,0,217,217,217,,,,,,,,,,,,,,,,,main,None,None,1,1.4992700999137014,725.2427737000398,None,None,1,,,,,,,,,,,,,,004,2022-05-06_10h37.14.975,Main,2022.1.1,60.00376825136869,
negative,blue,1,None,k,,,,,,,,,0,218,218,218,,,,,,,,,,,,,,,,,main,None,None,1,1.5013994000619277,727.7427005000645,None,None,1,,,,,,,,,,,,,,004,2022-05-06_10h37.14.975,Main,2022.1.1,60.00376825136869,
positive,red,2,None,None,,,,,,,,,0,219,219,219,,,,,,,,,,,,,,,,,main,None,None,1,1.4965333000291139,730.242677400005,None,None,1,,,,,,,,,,,,,,004,2022-05-06_10h37.14.975,Main,2022.1.1,60.00376825136869,
positive,yellow,1,None,k,,,,,,,,,0,220,220,220,,,,,,,,,,,,,,,,,main,None,None,1,1.4994119999464601,732.7425970999757,None,None,1,,,,,,,,,,,,,,004,2022-05-06_10h37.14.975,Main,2022.1.1,60.00376825136869,
positive,blue,1,k,None,,,,,,,,,0,221,221,221,,,,,,,,,,,,,,,,,main,k,k,1,0.8160725999623537,735.2425601000432,None,None,0,,,,,,,,,,,,,,004,2022-05-06_10h37.14.975,Main,2022.1.1,60.00376825136869,
positive,yellow,2,None,k,,,,,,,,,0,222,222,222,,,,,,,,,,,,,,,,,main,None,None,1,1.4988588000414893,737.0591903000604,None,None,1,,,,,,,,,,,,,,004,2022-05-06_10h37.14.975,Main,2022.1.1,60.00376825136869,
negative,yellow,1,k,None,,,,,,,,,0,223,223,223,,,,,,,,,,,,,,,,,main,k,k,1,0.9588726999936625,739.5591200999916,None,None,0,,,,,,,,,,,,,,004,2022-05-06_10h37.14.975,Main,2022.1.1,60.00376825136869,
positive,yellow,2,None,k,,,,,,,,,0,224,224,224,,,,,,,,,,,,,,,,,main,None,None,1,1.4894484999822453,741.5222707999637,None,None,1,,,,,,,,,,,,,,004,2022-05-06_10h37.14.975,Main,2022.1.1,60.00376825136869,
negative,yellow,2,k,None,,,,,,,,,0,225,225,225,,,,,,,,,,,,,,,,,main,k,k,1,0.7329390000086278,744.0090114000486,None,None,0,,,,,,,,,,,,,,004,2022-05-06_10h37.14.975,Main,2022.1.1,60.00376825136869,
negative,blue,2,None,k,,,,,,,,,0,226,226,226,,,,,,,,,,,,,,,,,main,None,None,1,1.4991982999490574,745.7423543999903,None,None,1,,,,,,,,,,,,,,004,2022-05-06_10h37.14.975,Main,2022.1.1,60.00376825136869,
positive,red,2,None,None,,,,,,,,,0,227,227,227,,,,,,,,,,,,,,,,,main,None,None,1,1.498948400025256,748.2422596999677,None,None,1,,,,,,,,,,,,,,004,2022-05-06_10h37.14.975,Main,2022.1.1,60.00376825136869,
positive,blue,2,k,None,,,,,,,,,0,228,228,228,,,,,,,,,,,,,,,,,main,k,k,1,0.9485462999437004,750.7422689000377,None,None,0,,,,,,,,,,,,,,004,2022-05-06_10h37.14.975,Main,2022.1.1,60.00376825136869,
negative,blue,1,None,k,,,,,,,,,0,229,229,229,,,,,,,,,,,,,,,,,main,None,None,1,1.4986488999566063,752.6921054000268,None,None,1,,,,,,,,,,,,,,004,2022-05-06_10h37.14.975,Main,2022.1.1,60.00376825136869,
positive,yellow,1,None,k,,,,,,,,,0,230,230,230,,,,,,,,,,,,,,,,,main,None,None,1,1.5000724999699742,755.1921599999769,None,None,1,,,,,,,,,,,,,,004,2022-05-06_10h37.14.975,Main,2022.1.1,60.00376825136869,
negative,blue,2,None,k,,,,,,,,,0,231,231,231,,,,,,,,,,,,,,,,,main,None,None,1,1.4980760000180453,757.6920530999778,None,None,1,,,,,,,,,,,,,,004,2022-05-06_10h37.14.975,Main,2022.1.1,60.00376825136869,
negative,red,1,None,None,,,,,,,,,0,232,232,232,,,,,,,,,,,,,,,,,main,None,None,1,1.498611900024116,760.1943558000494,None,None,1,,,,,,,,,,,,,,004,2022-05-06_10h37.14.975,Main,2022.1.1,60.00376825136869,
positive,blue,2,k,None,,,,,,,,,0,233,233,233,,,,,,,,,,,,,,,,,main,k,k,1,0.915646200068295,762.6919813000131,None,None,0,,,,,,,,,,,,,,004,2022-05-06_10h37.14.975,Main,2022.1.1,60.00376825136869,
negative,yellow,1,k,None,,,,,,,,,0,234,234,234,,,,,,,,,,,,,,,,,main,k,k,1,0.949735099915415,764.6083124000579,None,None,0,,,,,,,,,,,,,,004,2022-05-06_10h37.14.975,Main,2022.1.1,60.00376825136869,
negative,yellow,2,k,None,,,,,,,,,0,235,235,235,,,,,,,,,,,,,,,,,main,k,k,1,0.9493239999283105,766.5586590999737,None,None,0,,,,,,,,,,,,,,004,2022-05-06_10h37.14.975,Main,2022.1.1,60.00376825136869,
positive,red,1,None,None,,,,,,,,,0,236,236,236,,,,,,,,,,,,,,,,,main,None,None,1,1.504158700001426,768.5086350999773,None,None,1,,,,,,,,,,,,,,004,2022-05-06_10h37.14.975,Main,2022.1.1,60.00376825136869,
negative,red,2,None,None,,,,,,,,,0,237,237,237,,,,,,,,,,,,,,,,,main,None,None,1,1.4936518999747932,771.0119790000608,None,None,1,,,,,,,,,,,,,,004,2022-05-06_10h37.14.975,Main,2022.1.1,60.00376825136869,
negative,blue,1,None,k,,,,,,,,,0,238,238,238,,,,,,,,,,,,,,,,,main,None,None,1,1.4999438000377268,773.508388999966,None,None,1,,,,,,,,,,,,,,004,2022-05-06_10h37.14.975,Main,2022.1.1,60.00376825136869,
positive,blue,1,k,None,,,,,,,,,0,239,239,239,,,,,,,,,,,,,,,,,main,k,k,1,0.8316983999684453,776.0083949000109,None,None,0,,,,,,,,,,,,,,004,2022-05-06_10h37.14.975,Main,2022.1.1,60.00376825136869,
,,,,,,,,,,,,,,,,,,,,,,,,,,,,,,,,,,,,,,,,,,,,,,,,,,,,,777.8416418000124,None,,,,,,
