distractor,target,set,ans1,ans2,rep_loop4.thisRepN,rep_loop4.thisTrialN,rep_loop4.thisN,rep_loop4.thisIndex,st2_prac_loop.thisRepN,st2_prac_loop.thisTrialN,st2_prac_loop.thisN,st2_prac_loop.thisIndex,st2_main_loop.thisRepN,st2_main_loop.thisTrialN,st2_main_loop.thisN,st2_main_loop.thisIndex,image_4.started,image_4.stopped,sound_2.started,sound_2.stopped,key_resp_3.keys,key_resp_3.rt,image_5.started,image_5.stopped,st_prac_back.started,st_prac_back.stopped,st_prac_text.started,st_prac_text.stopped,st_fix_back.started,st_fix_back.stopped,st_fix_2.started,st_fix_2.stopped,main_prac,st_ans,st_res,st_corr,st_rt,st_back.started,st_back.stopped,st2_resp.keys,st2_resp.corr,st_main_back.started,st_main_back.stopped,st_main_text.started,st_main_text.stopped,mouse_4.x,mouse_4.y,mouse_4.leftButton,mouse_4.midButton,mouse_4.rightButton,mouse_4.clicked_name,mouse_4.started,mouse_4.stopped,text_2.started,text_2.stopped,id*,date,expName,psychopyVersion,frameRate,
negative,yellow,1,k,None,,,,,0,0,0,0,,,,,37.25955660000909,None,46.697204049967695,None,space,59.63646459998563,106.3615509000374,None,109.1591004000511,None,109.1591004000511,None,111.16163470002357,None,111.16163470002357,None,prac,None,None,1,1.4964247000170872,113.17480399995111,None,None,1,,,,,,,,,,,,,,,005,2022-05-06_17h36.20.569,Main,2022.1.1,59.14692393414104,
positive,red,2,None,None,,,,,0,1,1,1,,,,,,,,,,,,,,,,,,,,,prac,None,None,1,1.4972951000090688,115.67830140003935,None,None,1,,,,,,,,,,,,,,,005,2022-05-06_17h36.20.569,Main,2022.1.1,59.14692393414104,
negative,blue,2,None,k,,,,,0,2,2,2,,,,,,,,,,,,,,,,,,,,,prac,k,k,1,1.0172110999701545,118.17550110002048,None,None,0,,,,,,,,,,,,,,,005,2022-05-06_17h36.20.569,Main,2022.1.1,59.14692393414104,
positive,yellow,1,None,k,,,,,0,3,3,3,,,,,,,,,,,,,,,,,,,,,prac,k,k,1,0.9826612999895588,120.19529019994661,None,None,0,,,,,,,,,,,,,,,005,2022-05-06_17h36.20.569,Main,2022.1.1,59.14692393414104,
negative,blue,2,None,k,,,,,0,4,4,4,,,,,,,,,,,,,,,,,,,,,prac,k,k,1,0.7792849000543356,122.17952659993898,None,None,0,,,,,,,,,,,,,,,005,2022-05-06_17h36.20.569,Main,2022.1.1,59.14692393414104,
negative,blue,1,None,k,,,,,0,5,5,5,,,,,,,,,,,,,,,,,,,,,prac,k,k,1,1.0994921999517828,123.95861119998153,None,None,0,,,,,,,,,,,,,,,005,2022-05-06_17h36.20.569,Main,2022.1.1,59.14692393414104,
negative,yellow,2,k,None,,,,,0,6,6,6,,,,,,,,,,,,,,,,,,,,,prac,None,None,1,1.5011540999403223,126.06134380004369,None,None,1,,,,,,,,,,,,,,,005,2022-05-06_17h36.20.569,Main,2022.1.1,59.14692393414104,
negative,red,1,None,None,,,,,0,7,7,7,,,,,,,,,,,,,,,,,,,,,prac,None,None,1,1.4989471000153571,128.56128739996348,None,None,1,,,,,,,,,,,,,,,005,2022-05-06_17h36.20.569,Main,2022.1.1,59.14692393414104,
positive,yellow,2,None,k,,,,,0,8,8,8,,,,,,,,,,,,,,,,,,,,,prac,k,k,1,0.8966399999335408,131.061273099971,None,None,0,,,,,,,,,,,,,,,005,2022-05-06_17h36.20.569,Main,2022.1.1,59.14692393414104,
negative,yellow,1,k,None,,,,,0,9,9,9,,,,,,,,,,,,,,,,,,,,,prac,None,None,1,1.50122510001529,132.95842529996298,None,None,1,,,,,,,,,,,,,,,005,2022-05-06_17h36.20.569,Main,2022.1.1,59.14692393414104,
positive,yellow,2,None,k,,,,,0,10,10,10,,,,,,,,,,,,,,,,,,,,,prac,k,k,1,0.7803299999795854,135.46112280001398,None,None,0,,,,,,,,,,,,,,,005,2022-05-06_17h36.20.569,Main,2022.1.1,59.14692393414104,
negative,yellow,2,k,None,,,,,0,11,11,11,,,,,,,,,,,,,,,,,,,,,prac,None,None,1,1.5009570000693202,137.2444669000106,None,None,1,,,,,,,,,,,,,,,005,2022-05-06_17h36.20.569,Main,2022.1.1,59.14692393414104,
negative,red,2,None,None,,,,,0,12,12,12,,,,,,,,,,,,,,,,,,,,,prac,None,None,1,1.4974196999100968,139.74191900005098,None,None,1,,,,,,,,,,,,,,,005,2022-05-06_17h36.20.569,Main,2022.1.1,59.14692393414104,
positive,red,1,None,None,,,,,0,13,13,13,,,,,,,,,,,,,,,,,,,,,prac,None,None,1,1.5005679000169039,142.2415840999456,None,None,1,,,,,,,,,,,,,,,005,2022-05-06_17h36.20.569,Main,2022.1.1,59.14692393414104,
positive,blue,2,k,None,,,,,0,14,14,14,,,,,,,,,,,,,,,,,,,,,prac,None,None,1,1.4964893000433221,144.74429729999974,None,None,1,,,,,,,,,,,,,,,005,2022-05-06_17h36.20.569,Main,2022.1.1,59.14692393414104,
positive,blue,1,k,None,,,,,0,15,15,15,,,,,,,,,,,,,,,,,,,,,prac,None,None,1,1.4998682000441477,147.2417367999442,None,None,1,,,,,,,,,,,,,,,005,2022-05-06_17h36.20.569,Main,2022.1.1,59.14692393414104,
negative,blue,1,None,k,,,,,0,16,16,16,,,,,,,,,,,,,,,,,,,,,prac,k,k,1,0.7817889000289142,149.74138849996962,None,None,0,,,,,,,,,,,,,,,005,2022-05-06_17h36.20.569,Main,2022.1.1,59.14692393414104,
positive,blue,2,k,None,,,,,0,17,17,17,,,,,,,,,,,,,,,,,,,,,prac,None,None,1,1.5006765000289306,151.52520829997957,None,None,1,,,,,,,,,,,,,,,005,2022-05-06_17h36.20.569,Main,2022.1.1,59.14692393414104,
positive,blue,1,k,None,,,,,0,18,18,18,,,,,,,,,,,,,,,,,,,,,prac,None,None,1,1.497065700008534,154.02739139995538,None,None,1,,,,,,,,,,,,,,,005,2022-05-06_17h36.20.569,Main,2022.1.1,59.14692393414104,
positive,yellow,1,None,k,,,,,0,19,19,19,,,,,,,,,,,,,,,,,,,,,prac,k,k,1,1.1984548000618815,156.5252452000277,None,None,0,,,,,,,,,,,,,,,005,2022-05-06_17h36.20.569,Main,2022.1.1,59.14692393414104,
negative,yellow,1,k,None,,,,,1,0,20,0,,,,,,,,,,,,,,,,,,,,,prac,None,None,1,1.5017962000565603,158.72452729998622,None,None,1,,,,,,,,,,,,,,,005,2022-05-06_17h36.20.569,Main,2022.1.1,59.14692393414104,
positive,red,2,None,None,,,,,1,1,21,1,,,,,,,,,,,,,,,,,,,,,prac,None,None,1,1.4990380000090227,161.22816019994207,None,None,1,,,,,,,,,,,,,,,005,2022-05-06_17h36.20.569,Main,2022.1.1,59.14692393414104,
negative,blue,2,None,k,,,,,1,2,22,2,,,,,,,,,,,,,,,,,,,,,prac,k,k,1,0.7963894000276923,163.7272193999961,None,None,0,,,,,,,,,,,,,,,005,2022-05-06_17h36.20.569,Main,2022.1.1,59.14692393414104,
positive,yellow,1,None,k,,,,,1,3,23,3,,,,,,,,,,,,,,,,,,,,,prac,k,k,1,0.8998469000216573,165.52438219997566,None,None,0,,,,,,,,,,,,,,,005,2022-05-06_17h36.20.569,Main,2022.1.1,59.14692393414104,
negative,blue,2,None,k,,,,,1,4,24,4,,,,,,,,,,,,,,,,,,,,,prac,k,k,1,0.8512243999866769,167.42707560001872,None,None,0,,,,,,,,,,,,,,,005,2022-05-06_17h36.20.569,Main,2022.1.1,59.14692393414104,
negative,blue,1,None,k,,,,,1,5,25,5,,,,,,,,,,,,,,,,,,,,,prac,k,k,1,0.9808088999707252,169.2770654000342,None,None,0,,,,,,,,,,,,,,,005,2022-05-06_17h36.20.569,Main,2022.1.1,59.14692393414104,
negative,yellow,2,k,None,,,,,1,6,26,6,,,,,,,,,,,,,,,,,,,,,prac,None,None,1,1.500688000000082,171.25768219993915,None,None,1,,,,,,,,,,,,,,,005,2022-05-06_17h36.20.569,Main,2022.1.1,59.14692393414104,
negative,red,1,None,None,,,,,1,7,27,7,,,,,,,,,,,,,,,,,,,,,prac,None,None,1,1.4975320999510586,173.7605316999834,None,None,1,,,,,,,,,,,,,,,005,2022-05-06_17h36.20.569,Main,2022.1.1,59.14692393414104,
positive,yellow,2,None,k,,,,,1,8,28,8,,,,,,,,,,,,,,,,,,,,,prac,k,k,1,0.8811679999344051,176.25750780000817,None,None,0,,,,,,,,,,,,,,,005,2022-05-06_17h36.20.569,Main,2022.1.1,59.14692393414104,
negative,yellow,1,k,None,,,,,1,9,29,9,,,,,,,,,,,,,,,,,,,,,prac,None,None,1,1.5012538000009954,178.1408457000507,None,None,1,,,,,,,,,,,,,,,005,2022-05-06_17h36.20.569,Main,2022.1.1,59.14692393414104,
positive,yellow,2,None,k,,,,,1,10,30,10,,,,,,,,,,,,,,,,,,,,,prac,k,k,1,0.8472790000960231,180.64347809995525,None,None,0,,,,,,,,,,,,,,,005,2022-05-06_17h36.20.569,Main,2022.1.1,59.14692393414104,
negative,yellow,2,k,None,,,,,1,11,31,11,,,,,,,,,,,,,,,,,,,,,prac,None,None,1,1.502181600080803,182.49127949995454,None,None,1,,,,,,,,,,,,,,,005,2022-05-06_17h36.20.569,Main,2022.1.1,59.14692393414104,
negative,red,2,None,None,,,,,1,12,32,12,,,,,,,,,,,,,,,,,,,,,prac,None,None,1,1.4953372000018135,184.99086999997962,None,None,1,,,,,,,,,,,,,,,005,2022-05-06_17h36.20.569,Main,2022.1.1,59.14692393414104,
positive,red,1,None,None,,,,,1,13,33,13,,,,,,,,,,,,,,,,,,,,,prac,None,None,1,1.5005268000531942,187.49086400005035,None,None,1,,,,,,,,,,,,,,,005,2022-05-06_17h36.20.569,Main,2022.1.1,59.14692393414104,
positive,blue,2,k,None,,,,,1,14,34,14,,,,,,,,,,,,,,,,,,,,,prac,None,None,1,1.4967384999617934,189.9907460999675,None,None,1,,,,,,,,,,,,,,,005,2022-05-06_17h36.20.569,Main,2022.1.1,59.14692393414104,
positive,blue,1,k,None,,,,,1,15,35,15,,,,,,,,,,,,,,,,,,,,,prac,None,None,1,1.499123299960047,192.49109429994132,None,None,1,,,,,,,,,,,,,,,005,2022-05-06_17h36.20.569,Main,2022.1.1,59.14692393414104,
negative,blue,1,None,k,,,,,1,16,36,16,,,,,,,,,,,,,,,,,,,,,prac,k,k,1,0.6989679000107571,194.99061139998958,None,None,0,,,,,,,,,,,,,,,005,2022-05-06_17h36.20.569,Main,2022.1.1,59.14692393414104,
positive,blue,2,k,None,,,,,1,17,37,17,,,,,,,,,,,,,,,,,,,,,prac,None,None,1,1.501563400030136,196.69054610002786,None,None,1,,,,,,,,,,,,,,,005,2022-05-06_17h36.20.569,Main,2022.1.1,59.14692393414104,
positive,blue,1,k,None,,,,,1,18,38,18,,,,,,,,,,,,,,,,,,,,,prac,None,None,1,1.496630100067705,199.19314400001895,None,None,1,,,,,,,,,,,,,,,005,2022-05-06_17h36.20.569,Main,2022.1.1,59.14692393414104,
positive,yellow,1,None,k,,,,,1,19,39,19,,,,,,,,,,,,,,,,,,,,,prac,k,k,1,0.9995217999676242,201.69055209995713,None,None,0,,,,,,,,,,,,,,,005,2022-05-06_17h36.20.569,Main,2022.1.1,59.14692393414104,
,,,,,,,,,,,,,,,,,,,,,,,,,,,,,,,,,,,,,,,,,,203.69047499995213,None,203.69047499995213,None,-0.016666668,0.011111111,1,0,0,st_main_back,0.014177949982695282,None,,,005,2022-05-06_17h36.20.569,Main,2022.1.1,59.14692393414104,
negative,yellow,2,k,None,,,,,,,,,0,0,0,0,,,,,,,,,,,,,215.74287139996886,None,215.74287139996886,None,main,None,None,1,1.5073474999517202,217.79293080000207,None,None,1,,,,,,,,,,,,,,,005,2022-05-06_17h36.20.569,Main,2022.1.1,59.14692393414104,
positive,red,1,None,None,,,,,,,,,0,1,1,1,,,,,,,,,,,,,,,,,main,None,None,1,1.4989591999910772,220.30933089996688,None,None,1,,,,,,,,,,,,,,,005,2022-05-06_17h36.20.569,Main,2022.1.1,59.14692393414104,
positive,blue,2,k,None,,,,,,,,,0,2,2,2,,,,,,,,,,,,,,,,,main,None,None,1,1.4974024000111967,222.8093789999839,None,None,1,,,,,,,,,,,,,,,005,2022-05-06_17h36.20.569,Main,2022.1.1,59.14692393414104,
positive,blue,1,k,None,,,,,,,,,0,3,3,3,,,,,,,,,,,,,,,,,main,None,None,1,1.5006276000058278,225.30648779997136,None,None,1,,,,,,,,,,,,,,,005,2022-05-06_17h36.20.569,Main,2022.1.1,59.14692393414104,
negative,yellow,2,k,None,,,,,,,,,0,4,4,4,,,,,,,,,,,,,,,,,main,None,None,1,1.4970481999916956,227.80914939998183,None,None,1,,,,,,,,,,,,,,,005,2022-05-06_17h36.20.569,Main,2022.1.1,59.14692393414104,
positive,yellow,2,None,k,,,,,,,,,0,5,5,5,,,,,,,,,,,,,,,,,main,k,k,1,0.9158406000351533,230.3063031999627,None,None,0,,,,,,,,,,,,,,,005,2022-05-06_17h36.20.569,Main,2022.1.1,59.14692393414104,
negative,blue,2,None,k,,,,,,,,,0,6,6,6,,,,,,,,,,,,,,,,,main,k,k,1,0.9504729000618681,232.22298179997597,None,None,0,,,,,,,,,,,,,,,005,2022-05-06_17h36.20.569,Main,2022.1.1,59.14692393414104,
positive,red,2,None,None,,,,,,,,,0,7,7,7,,,,,,,,,,,,,,,,,main,None,None,1,1.4967470999108627,234.17566469998565,None,None,1,,,,,,,,,,,,,,,005,2022-05-06_17h36.20.569,Main,2022.1.1,59.14692393414104,
positive,yellow,1,None,k,,,,,,,,,0,8,8,8,,,,,,,,,,,,,,,,,main,k,k,1,0.8985332999145612,236.6755284999963,None,None,0,,,,,,,,,,,,,,,005,2022-05-06_17h36.20.569,Main,2022.1.1,59.14692393414104,
negative,red,1,None,None,,,,,,,,,0,9,9,9,,,,,,,,,,,,,,,,,main,None,None,1,1.501747899921611,238.57278259994928,None,None,1,,,,,,,,,,,,,,,005,2022-05-06_17h36.20.569,Main,2022.1.1,59.14692393414104,
positive,yellow,1,None,k,,,,,,,,,0,10,10,10,,,,,,,,,,,,,,,,,main,k,k,1,0.8993935000617057,241.0754524000222,None,None,0,,,,,,,,,,,,,,,005,2022-05-06_17h36.20.569,Main,2022.1.1,59.14692393414104,
negative,yellow,1,k,None,,,,,,,,,0,11,11,11,,,,,,,,,,,,,,,,,main,None,None,1,1.4985825000330806,242.9754403999541,None,None,1,,,,,,,,,,,,,,,005,2022-05-06_17h36.20.569,Main,2022.1.1,59.14692393414104,
negative,yellow,1,k,None,,,,,,,,,0,12,12,12,,,,,,,,,,,,,,,,,main,None,None,1,1.4966563999187201,245.47326390002854,None,None,1,,,,,,,,,,,,,,,005,2022-05-06_17h36.20.569,Main,2022.1.1,59.14692393414104,
negative,red,2,None,None,,,,,,,,,0,13,13,13,,,,,,,,,,,,,,,,,main,None,None,1,1.5026692999526858,247.9728190000169,None,None,1,,,,,,,,,,,,,,,005,2022-05-06_17h36.20.569,Main,2022.1.1,59.14692393414104,
positive,yellow,2,None,k,,,,,,,,,0,14,14,14,,,,,,,,,,,,,,,,,main,k,k,1,1.0165293000172824,250.4752368000336,None,None,0,,,,,,,,,,,,,,,005,2022-05-06_17h36.20.569,Main,2022.1.1,59.14692393414104,
positive,blue,1,k,None,,,,,,,,,0,15,15,15,,,,,,,,,,,,,,,,,main,None,None,1,1.4935819000238553,252.49839710001834,None,None,1,,,,,,,,,,,,,,,005,2022-05-06_17h36.20.569,Main,2022.1.1,59.14692393414104,
negative,blue,1,None,k,,,,,,,,,0,16,16,16,,,,,,,,,,,,,,,,,main,k,k,1,0.700888599967584,254.98948979994748,None,None,0,,,,,,,,,,,,,,,005,2022-05-06_17h36.20.569,Main,2022.1.1,59.14692393414104,
positive,blue,2,k,None,,,,,,,,,0,17,17,17,,,,,,,,,,,,,,,,,main,None,None,1,1.4963102999608964,256.6920168000506,None,None,1,,,,,,,,,,,,,,,005,2022-05-06_17h36.20.569,Main,2022.1.1,59.14692393414104,
negative,blue,2,None,k,,,,,,,,,0,18,18,18,,,,,,,,,,,,,,,,,main,k,k,1,0.8822813000297174,259.18971269996837,None,None,0,,,,,,,,,,,,,,,005,2022-05-06_17h36.20.569,Main,2022.1.1,59.14692393414104,
negative,blue,1,None,k,,,,,,,,,0,19,19,19,,,,,,,,,,,,,,,,,main,k,k,1,0.9324306999333203,261.0723068000516,None,None,0,,,,,,,,,,,,,,,005,2022-05-06_17h36.20.569,Main,2022.1.1,59.14692393414104,
negative,blue,1,None,k,,,,,,,,,0,20,20,20,,,,,,,,,,,,,,,,,main,k,k,1,0.7831495000282302,263.00565359997563,None,None,0,,,,,,,,,,,,,,,005,2022-05-06_17h36.20.569,Main,2022.1.1,59.14692393414104,
negative,blue,2,None,k,,,,,,,,,0,21,21,21,,,,,,,,,,,,,,,,,main,k,k,1,0.7677776999771595,264.79205139994156,None,None,0,,,,,,,,,,,,,,,005,2022-05-06_17h36.20.569,Main,2022.1.1,59.14692393414104,
negative,red,1,None,None,,,,,,,,,0,22,22,22,,,,,,,,,,,,,,,,,main,None,None,1,1.4971456000348553,266.55827929999214,None,None,1,,,,,,,,,,,,,,,005,2022-05-06_17h36.20.569,Main,2022.1.1,59.14692393414104,
positive,red,2,None,None,,,,,,,,,0,23,23,23,,,,,,,,,,,,,,,,,main,None,None,1,1.5014038000954315,269.0557854999788,None,None,1,,,,,,,,,,,,,,,005,2022-05-06_17h36.20.569,Main,2022.1.1,59.14692393414104,
negative,red,2,None,None,,,,,,,,,0,24,24,24,,,,,,,,,,,,,,,,,main,None,None,1,1.4978013000218198,271.55822959996294,None,None,1,,,,,,,,,,,,,,,005,2022-05-06_17h36.20.569,Main,2022.1.1,59.14692393414104,
positive,blue,2,k,None,,,,,,,,,0,25,25,25,,,,,,,,,,,,,,,,,main,None,None,1,1.4974984000436962,274.05815139994957,None,None,1,,,,,,,,,,,,,,,005,2022-05-06_17h36.20.569,Main,2022.1.1,59.14692393414104,
negative,yellow,1,k,None,,,,,,,,,0,26,26,26,,,,,,,,,,,,,,,,,main,None,None,1,1.5004799999296665,276.5555275999941,None,None,1,,,,,,,,,,,,,,,005,2022-05-06_17h36.20.569,Main,2022.1.1,59.14692393414104,
positive,blue,2,k,None,,,,,,,,,0,27,27,27,,,,,,,,,,,,,,,,,main,None,None,1,1.4967159000225365,279.05798509996384,None,None,1,,,,,,,,,,,,,,,005,2022-05-06_17h36.20.569,Main,2022.1.1,59.14692393414104,
negative,blue,2,None,k,,,,,,,,,0,28,28,28,,,,,,,,,,,,,,,,,main,k,k,1,0.704075500019826,281.55792429996654,None,None,0,,,,,,,,,,,,,,,005,2022-05-06_17h36.20.569,Main,2022.1.1,59.14692393414104,
positive,red,1,None,None,,,,,,,,,0,29,29,29,,,,,,,,,,,,,,,,,main,None,None,1,1.4947706999955699,283.26400269998703,None,None,1,,,,,,,,,,,,,,,005,2022-05-06_17h36.20.569,Main,2022.1.1,59.14692393414104,
positive,blue,1,k,None,,,,,,,,,0,30,30,30,,,,,,,,,,,,,,,,,main,None,None,1,1.5005629999795929,285.75792929995805,None,None,1,,,,,,,,,,,,,,,005,2022-05-06_17h36.20.569,Main,2022.1.1,59.14692393414104,
positive,yellow,1,None,k,,,,,,,,,0,31,31,31,,,,,,,,,,,,,,,,,main,k,k,1,0.7966846999479458,288.2579114999389,None,None,0,,,,,,,,,,,,,,,005,2022-05-06_17h36.20.569,Main,2022.1.1,59.14692393414104,
negative,yellow,2,k,None,,,,,,,,,0,32,32,32,,,,,,,,,,,,,,,,,main,None,None,1,1.4991092999698594,290.0552890000399,None,None,1,,,,,,,,,,,,,,,005,2022-05-06_17h36.20.569,Main,2022.1.1,59.14692393414104,
negative,blue,1,None,k,,,,,,,,,0,33,33,33,,,,,,,,,,,,,,,,,main,k,k,1,0.9173658000072464,292.5549692000495,None,None,0,,,,,,,,,,,,,,,005,2022-05-06_17h36.20.569,Main,2022.1.1,59.14692393414104,
positive,blue,1,k,None,,,,,,,,,0,34,34,34,,,,,,,,,,,,,,,,,main,None,None,1,1.4984497999539599,294.47441290004645,None,None,1,,,,,,,,,,,,,,,005,2022-05-06_17h36.20.569,Main,2022.1.1,59.14692393414104,
negative,yellow,1,k,None,,,,,,,,,0,35,35,35,,,,,,,,,,,,,,,,,main,None,None,1,1.4972816000226885,296.9743043000344,None,None,1,,,,,,,,,,,,,,,005,2022-05-06_17h36.20.569,Main,2022.1.1,59.14692393414104,
positive,yellow,2,None,k,,,,,,,,,0,36,36,36,,,,,,,,,,,,,,,,,main,k,k,1,0.815421300008893,299.47178849997,None,None,0,,,,,,,,,,,,,,,005,2022-05-06_17h36.20.569,Main,2022.1.1,59.14692393414104,
positive,yellow,2,None,k,,,,,,,,,0,37,37,37,,,,,,,,,,,,,,,,,main,k,k,1,1.1319273000117391,301.2883424999891,None,None,0,,,,,,,,,,,,,,,005,2022-05-06_17h36.20.569,Main,2022.1.1,59.14692393414104,
negative,yellow,2,k,None,,,,,,,,,0,38,38,38,,,,,,,,,,,,,,,,,main,None,None,1,1.5038779000751674,303.42401219997555,None,None,1,,,,,,,,,,,,,,,005,2022-05-06_17h36.20.569,Main,2022.1.1,59.14692393414104,
positive,yellow,1,None,k,,,,,,,,,0,39,39,39,,,,,,,,,,,,,,,,,main,k,k,1,0.8941830999683589,305.9249663000228,None,None,0,,,,,,,,,,,,,,,005,2022-05-06_17h36.20.569,Main,2022.1.1,59.14692393414104,
negative,yellow,2,k,None,,,,,,,,,0,40,40,40,,,,,,,,,,,,,,,,,main,None,None,1,1.501020900090225,307.82130720000714,None,None,1,,,,,,,,,,,,,,,005,2022-05-06_17h36.20.569,Main,2022.1.1,59.14692393414104,
positive,blue,2,k,None,,,,,,,,,0,41,41,41,,,,,,,,,,,,,,,,,main,None,None,1,1.4968092000344768,310.32397539995145,None,None,1,,,,,,,,,,,,,,,005,2022-05-06_17h36.20.569,Main,2022.1.1,59.14692393414104,
positive,blue,2,k,None,,,,,,,,,0,42,42,42,,,,,,,,,,,,,,,,,main,None,None,1,1.4997932000551373,312.8214397999691,None,None,1,,,,,,,,,,,,,,,005,2022-05-06_17h36.20.569,Main,2022.1.1,59.14692393414104,
negative,blue,2,None,k,,,,,,,,,0,43,43,43,,,,,,,,,,,,,,,,,main,k,k,1,0.7839402999961749,315.3219876999501,None,None,0,,,,,,,,,,,,,,,005,2022-05-06_17h36.20.569,Main,2022.1.1,59.14692393414104,
negative,red,1,None,None,,,,,,,,,0,44,44,44,,,,,,,,,,,,,,,,,main,None,None,1,1.4989096999634057,317.1071659999434,None,None,1,,,,,,,,,,,,,,,005,2022-05-06_17h36.20.569,Main,2022.1.1,59.14692393414104,
negative,yellow,1,k,None,,,,,,,,,0,45,45,45,,,,,,,,,,,,,,,,,main,None,None,1,1.4972590999677777,319.6071680999594,None,None,1,,,,,,,,,,,,,,,005,2022-05-06_17h36.20.569,Main,2022.1.1,59.14692393414104,
negative,yellow,1,k,None,,,,,,,,,0,46,46,46,,,,,,,,,,,,,,,,,main,None,None,1,1.500514499959536,322.1043124999851,None,None,1,,,,,,,,,,,,,,,005,2022-05-06_17h36.20.569,Main,2022.1.1,59.14692393414104,
positive,red,1,None,None,,,,,,,,,0,47,47,47,,,,,,,,,,,,,,,,,main,None,None,1,1.4966835000086576,324.607000399963,None,None,1,,,,,,,,,,,,,,,005,2022-05-06_17h36.20.569,Main,2022.1.1,59.14692393414104,
positive,yellow,1,None,k,,,,,,,,,0,48,48,48,,,,,,,,,,,,,,,,,main,k,k,1,0.8499024999327958,327.11002789996564,None,None,0,,,,,,,,,,,,,,,005,2022-05-06_17h36.20.569,Main,2022.1.1,59.14692393414104,
negative,blue,1,None,k,,,,,,,,,0,49,49,49,,,,,,,,,,,,,,,,,main,k,k,1,1.0151054000016302,328.9568268000148,None,None,0,,,,,,,,,,,,,,,005,2022-05-06_17h36.20.569,Main,2022.1.1,59.14692393414104,
positive,yellow,2,None,k,,,,,,,,,0,50,50,50,,,,,,,,,,,,,,,,,main,k,k,1,0.9160430999472737,330.97079920000397,None,None,0,,,,,,,,,,,,,,,005,2022-05-06_17h36.20.569,Main,2022.1.1,59.14692393414104,
negative,blue,1,None,k,,,,,,,,,0,51,51,51,,,,,,,,,,,,,,,,,main,k,k,1,0.8515779000008479,332.8878050999483,None,None,0,,,,,,,,,,,,,,,005,2022-05-06_17h36.20.569,Main,2022.1.1,59.14692393414104,
positive,red,2,None,None,,,,,,,,,0,52,52,52,,,,,,,,,,,,,,,,,main,None,None,1,1.4971608000341803,334.7401308999397,None,None,1,,,,,,,,,,,,,,,005,2022-05-06_17h36.20.569,Main,2022.1.1,59.14692393414104,
positive,yellow,2,None,k,,,,,,,,,0,53,53,53,,,,,,,,,,,,,,,,,main,k,k,1,0.7175751000177115,337.2373249999946,None,None,0,,,,,,,,,,,,,,,005,2022-05-06_17h36.20.569,Main,2022.1.1,59.14692393414104,
negative,red,2,None,None,,,,,,,,,0,54,54,54,,,,,,,,,,,,,,,,,main,None,None,1,1.4989225000608712,338.95668800000567,None,None,1,,,,,,,,,,,,,,,005,2022-05-06_17h36.20.569,Main,2022.1.1,59.14692393414104,
positive,yellow,1,None,k,,,,,,,,,0,55,55,55,,,,,,,,,,,,,,,,,main,k,k,1,0.9631924999412149,341.4566329000518,None,None,0,,,,,,,,,,,,,,,005,2022-05-06_17h36.20.569,Main,2022.1.1,59.14692393414104,
negative,blue,2,None,k,,,,,,,,,0,56,56,56,,,,,,,,,,,,,,,,,main,k,k,1,0.7991373999975622,343.42052329995204,None,None,0,,,,,,,,,,,,,,,005,2022-05-06_17h36.20.569,Main,2022.1.1,59.14692393414104,
positive,blue,1,k,None,,,,,,,,,0,57,57,57,,,,,,,,,,,,,,,,,main,None,None,1,1.5019005999201909,345.2233187999809,None,None,1,,,,,,,,,,,,,,,005,2022-05-06_17h36.20.569,Main,2022.1.1,59.14692393414104,
positive,blue,1,k,None,,,,,,,,,0,58,58,58,,,,,,,,,,,,,,,,,main,None,None,1,1.4959990000352263,347.7231979999924,None,None,1,,,,,,,,,,,,,,,005,2022-05-06_17h36.20.569,Main,2022.1.1,59.14692393414104,
negative,yellow,2,k,None,,,,,,,,,0,59,59,59,,,,,,,,,,,,,,,,,main,None,None,1,1.5015085999621078,350.22044009994715,None,None,1,,,,,,,,,,,,,,,005,2022-05-06_17h36.20.569,Main,2022.1.1,59.14692393414104,
positive,red,2,None,None,,,,,,,,,0,60,60,60,,,,,,,,,,,,,,,,,main,None,None,1,1.4971847999840975,352.72309730004054,None,None,1,,,,,,,,,,,,,,,005,2022-05-06_17h36.20.569,Main,2022.1.1,59.14692393414104,
negative,yellow,1,k,None,,,,,,,,,0,61,61,61,,,,,,,,,,,,,,,,,main,None,None,1,1.5005209000082687,355.22050329996273,None,None,1,,,,,,,,,,,,,,,005,2022-05-06_17h36.20.569,Main,2022.1.1,59.14692393414104,
negative,red,1,None,None,,,,,,,,,0,62,62,62,,,,,,,,,,,,,,,,,main,None,None,1,1.499106999952346,357.72293809999246,None,None,1,,,,,,,,,,,,,,,005,2022-05-06_17h36.20.569,Main,2022.1.1,59.14692393414104,
negative,blue,1,None,k,,,,,,,,,0,63,63,63,,,,,,,,,,,,,,,,,main,k,k,1,0.8298726000357419,360.2229164999444,None,None,0,,,,,,,,,,,,,,,005,2022-05-06_17h36.20.569,Main,2022.1.1,59.14692393414104,
positive,blue,2,k,None,,,,,,,,,0,64,64,64,,,,,,,,,,,,,,,,,main,None,None,1,1.5016792999813333,362.0534397000447,None,None,1,,,,,,,,,,,,,,,005,2022-05-06_17h36.20.569,Main,2022.1.1,59.14692393414104,
negative,yellow,2,k,None,,,,,,,,,0,65,65,65,,,,,,,,,,,,,,,,,main,None,None,1,1.4970045000081882,364.5561470000539,None,None,1,,,,,,,,,,,,,,,005,2022-05-06_17h36.20.569,Main,2022.1.1,59.14692393414104,
positive,yellow,2,None,k,,,,,,,,,0,66,66,66,,,,,,,,,,,,,,,,,main,k,k,1,0.8155931999208406,367.0559381999774,None,None,0,,,,,,,,,,,,,,,005,2022-05-06_17h36.20.569,Main,2022.1.1,59.14692393414104,
positive,yellow,2,None,k,,,,,,,,,0,67,67,67,,,,,,,,,,,,,,,,,main,k,k,1,0.7991076000034809,368.8699747000355,None,None,0,,,,,,,,,,,,,,,005,2022-05-06_17h36.20.569,Main,2022.1.1,59.14692393414104,
positive,red,1,None,None,,,,,,,,,0,68,68,68,,,,,,,,,,,,,,,,,main,None,None,1,1.5015614000149071,370.6700564000057,None,None,1,,,,,,,,,,,,,,,005,2022-05-06_17h36.20.569,Main,2022.1.1,59.14692393414104,
positive,yellow,1,None,k,,,,,,,,,0,69,69,69,,,,,,,,,,,,,,,,,main,k,k,1,0.8633587000658736,373.1729358000448,None,None,0,,,,,,,,,,,,,,,005,2022-05-06_17h36.20.569,Main,2022.1.1,59.14692393414104,
negative,yellow,2,k,None,,,,,,,,,0,70,70,70,,,,,,,,,,,,,,,,,main,None,None,1,1.4988954000873491,375.0367788999574,None,None,1,,,,,,,,,,,,,,,005,2022-05-06_17h36.20.569,Main,2022.1.1,59.14692393414104,
positive,yellow,1,None,k,,,,,,,,,0,71,71,71,,,,,,,,,,,,,,,,,main,k,k,1,0.815377099905163,377.5365688999882,None,None,0,,,,,,,,,,,,,,,005,2022-05-06_17h36.20.569,Main,2022.1.1,59.14692393414104,
negative,blue,1,None,k,,,,,,,,,0,72,72,72,,,,,,,,,,,,,,,,,main,k,k,1,0.9512457000091672,379.3533600999508,None,None,0,,,,,,,,,,,,,,,005,2022-05-06_17h36.20.569,Main,2022.1.1,59.14692393414104,
negative,red,2,None,None,,,,,,,,,0,73,73,73,,,,,,,,,,,,,,,,,main,None,None,1,1.497152299969457,381.3057818999514,None,None,1,,,,,,,,,,,,,,,005,2022-05-06_17h36.20.569,Main,2022.1.1,59.14692393414104,
positive,blue,2,k,None,,,,,,,,,0,74,74,74,,,,,,,,,,,,,,,,,main,None,None,1,1.5006413999944925,383.80295339995064,None,None,1,,,,,,,,,,,,,,,005,2022-05-06_17h36.20.569,Main,2022.1.1,59.14692393414104,
negative,blue,2,None,k,,,,,,,,,0,75,75,75,,,,,,,,,,,,,,,,,main,k,k,1,0.6161565999500453,386.30566069995984,None,None,0,,,,,,,,,,,,,,,005,2022-05-06_17h36.20.569,Main,2022.1.1,59.14692393414104,
negative,blue,2,None,k,,,,,,,,,0,76,76,76,,,,,,,,,,,,,,,,,main,k,k,1,0.6323839999968186,387.9222628000425,None,None,0,,,,,,,,,,,,,,,005,2022-05-06_17h36.20.569,Main,2022.1.1,59.14692393414104,
negative,yellow,1,k,None,,,,,,,,,0,77,77,77,,,,,,,,,,,,,,,,,main,None,None,1,1.4962872000178322,389.55584259994794,None,None,1,,,,,,,,,,,,,,,005,2022-05-06_17h36.20.569,Main,2022.1.1,59.14692393414104,
positive,blue,1,k,None,,,,,,,,,0,78,78,78,,,,,,,,,,,,,,,,,main,None,None,1,1.5003840000135824,392.0554272000445,None,None,1,,,,,,,,,,,,,,,005,2022-05-06_17h36.20.569,Main,2022.1.1,59.14692393414104,
positive,blue,1,k,None,,,,,,,,,0,79,79,79,,,,,,,,,,,,,,,,,main,None,None,1,1.4997631000587717,394.5527901999885,None,None,1,,,,,,,,,,,,,,,005,2022-05-06_17h36.20.569,Main,2022.1.1,59.14692393414104,
positive,red,2,None,None,,,,,,,,,0,80,80,80,,,,,,,,,,,,,,,,,main,None,None,1,1.4974164000013843,397.0554626999656,None,None,1,,,,,,,,,,,,,,,005,2022-05-06_17h36.20.569,Main,2022.1.1,59.14692393414104,
positive,yellow,2,None,k,,,,,,,,,0,81,81,81,,,,,,,,,,,,,,,,,main,k,k,1,0.39899459993466735,399.55263879999984,None,None,0,,,,,,,,,,,,,,,005,2022-05-06_17h36.20.569,Main,2022.1.1,59.14692393414104,
positive,blue,1,k,None,,,,,,,,,0,82,82,82,,,,,,,,,,,,,,,,,main,None,None,1,1.5002247000811622,400.95258389995433,None,None,1,,,,,,,,,,,,,,,005,2022-05-06_17h36.20.569,Main,2022.1.1,59.14692393414104,
negative,yellow,2,k,None,,,,,,,,,0,83,83,83,,,,,,,,,,,,,,,,,main,None,None,1,1.4965619998984039,403.45528059999924,None,None,1,,,,,,,,,,,,,,,005,2022-05-06_17h36.20.569,Main,2022.1.1,59.14692393414104,
positive,blue,2,k,None,,,,,,,,,0,84,84,84,,,,,,,,,,,,,,,,,main,None,None,1,1.4994878999423236,405.9527941000415,None,None,1,,,,,,,,,,,,,,,005,2022-05-06_17h36.20.569,Main,2022.1.1,59.14692393414104,
positive,yellow,1,None,k,,,,,,,,,0,85,85,85,,,,,,,,,,,,,,,,,main,k,k,1,0.9820438999449834,408.45267190004233,None,None,0,,,,,,,,,,,,,,,005,2022-05-06_17h36.20.569,Main,2022.1.1,59.14692393414104,
positive,blue,2,k,None,,,,,,,,,0,86,86,86,,,,,,,,,,,,,,,,,main,None,None,1,1.5010411000112072,410.43600059999153,None,None,1,,,,,,,,,,,,,,,005,2022-05-06_17h36.20.569,Main,2022.1.1,59.14692393414104,
positive,blue,1,k,None,,,,,,,,,0,87,87,87,,,,,,,,,,,,,,,,,main,None,None,1,1.4967894000001252,412.935975600034,None,None,1,,,,,,,,,,,,,,,005,2022-05-06_17h36.20.569,Main,2022.1.1,59.14692393414104,
negative,yellow,2,k,None,,,,,,,,,0,88,88,88,,,,,,,,,,,,,,,,,main,None,None,1,1.501677899970673,415.4359346999554,None,None,1,,,,,,,,,,,,,,,005,2022-05-06_17h36.20.569,Main,2022.1.1,59.14692393414104,
negative,blue,2,None,k,,,,,,,,,0,89,89,89,,,,,,,,,,,,,,,,,main,k,k,1,1.2125157000264153,417.9358661000151,None,None,0,,,,,,,,,,,,,,,005,2022-05-06_17h36.20.569,Main,2022.1.1,59.14692393414104,
positive,yellow,2,None,k,,,,,,,,,0,90,90,90,,,,,,,,,,,,,,,,,main,k,k,1,0.9348261000122875,420.15219359996263,None,None,0,,,,,,,,,,,,,,,005,2022-05-06_17h36.20.569,Main,2022.1.1,59.14692393414104,
negative,yellow,1,k,None,,,,,,,,,0,91,91,91,,,,,,,,,,,,,,,,,main,None,None,1,1.498716100002639,422.0882311000023,None,None,1,,,,,,,,,,,,,,,005,2022-05-06_17h36.20.569,Main,2022.1.1,59.14692393414104,
negative,red,2,None,None,,,,,,,,,0,92,92,92,,,,,,,,,,,,,,,,,main,None,None,1,1.4973205999704078,424.5881863000104,None,None,1,,,,,,,,,,,,,,,005,2022-05-06_17h36.20.569,Main,2022.1.1,59.14692393414104,
negative,blue,2,None,k,,,,,,,,,0,93,93,93,,,,,,,,,,,,,,,,,main,k,k,1,0.798825699952431,427.08539899997413,None,None,0,,,,,,,,,,,,,,,005,2022-05-06_17h36.20.569,Main,2022.1.1,59.14692393414104,
negative,blue,1,None,k,,,,,,,,,0,94,94,94,,,,,,,,,,,,,,,,,main,k,k,1,0.7844740999862552,428.88806369993836,None,None,0,,,,,,,,,,,,,,,005,2022-05-06_17h36.20.569,Main,2022.1.1,59.14692393414104,
negative,blue,1,None,k,,,,,,,,,0,95,95,95,,,,,,,,,,,,,,,,,main,k,k,1,0.7132712000748143,430.6714855999453,None,None,0,,,,,,,,,,,,,,,005,2022-05-06_17h36.20.569,Main,2022.1.1,59.14692393414104,
negative,red,1,None,None,,,,,,,,,0,96,96,96,,,,,,,,,,,,,,,,,main,None,None,1,1.4994371000211686,432.3855855000438,None,None,1,,,,,,,,,,,,,,,005,2022-05-06_17h36.20.569,Main,2022.1.1,59.14692393414104,
positive,yellow,1,None,k,,,,,,,,,0,97,97,97,,,,,,,,,,,,,,,,,main,k,k,1,0.7341869999654591,434.88536549999844,None,None,0,,,,,,,,,,,,,,,005,2022-05-06_17h36.20.569,Main,2022.1.1,59.14692393414104,
negative,yellow,1,k,None,,,,,,,,,0,98,98,98,,,,,,,,,,,,,,,,,main,None,None,1,1.4987104000756517,436.62128850002773,None,None,1,,,,,,,,,,,,,,,005,2022-05-06_17h36.20.569,Main,2022.1.1,59.14692393414104,
positive,red,1,None,None,,,,,,,,,0,99,99,99,,,,,,,,,,,,,,,,,main,None,None,1,1.4971056000795215,439.1211927999975,None,None,1,,,,,,,,,,,,,,,005,2022-05-06_17h36.20.569,Main,2022.1.1,59.14692393414104,
positive,blue,1,k,None,,,,,,,,,0,100,100,100,,,,,,,,,,,,,,,,,main,None,None,1,1.5006824999582022,441.6184404999949,None,None,1,,,,,,,,,,,,,,,005,2022-05-06_17h36.20.569,Main,2022.1.1,59.14692393414104,
negative,yellow,1,k,None,,,,,,,,,0,101,101,101,,,,,,,,,,,,,,,,,main,None,None,1,1.4968034999910742,444.1210796999512,None,None,1,,,,,,,,,,,,,,,005,2022-05-06_17h36.20.569,Main,2022.1.1,59.14692393414104,
negative,blue,2,None,k,,,,,,,,,0,102,102,102,,,,,,,,,,,,,,,,,main,k,k,1,0.9661726999329403,446.61856660002377,None,None,0,,,,,,,,,,,,,,,005,2022-05-06_17h36.20.569,Main,2022.1.1,59.14692393414104,
negative,yellow,2,k,None,,,,,,,,,0,103,103,103,,,,,,,,,,,,,,,,,main,None,None,1,1.5008744000224397,448.58762999996543,None,None,1,,,,,,,,,,,,,,,005,2022-05-06_17h36.20.569,Main,2022.1.1,59.14692393414104,
positive,yellow,2,None,k,,,,,,,,,0,104,104,104,,,,,,,,,,,,,,,,,main,k,k,1,0.6330040999455377,451.0850984000135,None,None,0,,,,,,,,,,,,,,,005,2022-05-06_17h36.20.569,Main,2022.1.1,59.14692393414104,
positive,blue,1,k,None,,,,,,,,,0,105,105,105,,,,,,,,,,,,,,,,,main,None,None,1,1.49709790002089,452.7184278999921,None,None,1,,,,,,,,,,,,,,,005,2022-05-06_17h36.20.569,Main,2022.1.1,59.14692393414104,
positive,blue,2,k,None,,,,,,,,,0,106,106,106,,,,,,,,,,,,,,,,,main,None,None,1,1.5012283999240026,455.2184858999681,None,None,1,,,,,,,,,,,,,,,005,2022-05-06_17h36.20.569,Main,2022.1.1,59.14692393414104,
negative,blue,1,None,k,,,,,,,,,0,107,107,107,,,,,,,,,,,,,,,,,main,k,k,1,0.6627145000966266,457.7183259000303,None,None,0,,,,,,,,,,,,,,,005,2022-05-06_17h36.20.569,Main,2022.1.1,59.14692393414104,
positive,yellow,2,None,k,,,,,,,,,0,108,108,108,,,,,,,,,,,,,,,,,main,k,k,1,0.7481596000725403,459.38732660003006,None,None,0,,,,,,,,,,,,,,,005,2022-05-06_17h36.20.569,Main,2022.1.1,59.14692393414104,
negative,yellow,1,k,None,,,,,,,,,0,109,109,109,,,,,,,,,,,,,,,,,main,None,None,1,1.5018095000414178,461.1346139999805,None,None,1,,,,,,,,,,,,,,,005,2022-05-06_17h36.20.569,Main,2022.1.1,59.14692393414104,
negative,blue,2,None,k,,,,,,,,,0,110,110,110,,,,,,,,,,,,,,,,,main,k,k,1,1.1148583000758663,463.6375713000307,None,None,0,,,,,,,,,,,,,,,005,2022-05-06_17h36.20.569,Main,2022.1.1,59.14692393414104,
positive,blue,2,k,None,,,,,,,,,0,111,111,111,,,,,,,,,,,,,,,,,main,None,None,1,1.499745500041172,465.7539485000307,None,None,1,,,,,,,,,,,,,,,005,2022-05-06_17h36.20.569,Main,2022.1.1,59.14692393414104,
negative,blue,1,None,k,,,,,,,,,0,112,112,112,,,,,,,,,,,,,,,,,main,k,k,1,0.9633370999945328,468.25141310004983,None,None,0,,,,,,,,,,,,,,,005,2022-05-06_17h36.20.569,Main,2022.1.1,59.14692393414104,
positive,yellow,1,None,k,,,,,,,,,0,113,113,113,,,,,,,,,,,,,,,,,main,k,k,1,0.7369793000398204,470.2177496999502,None,None,0,,,,,,,,,,,,,,,005,2022-05-06_17h36.20.569,Main,2022.1.1,59.14692393414104,
negative,red,1,None,None,,,,,,,,,0,114,114,114,,,,,,,,,,,,,,,,,main,None,None,1,1.4965521999401972,471.9513369000051,None,None,1,,,,,,,,,,,,,,,005,2022-05-06_17h36.20.569,Main,2022.1.1,59.14692393414104,
positive,red,1,None,None,,,,,,,,,0,115,115,115,,,,,,,,,,,,,,,,,main,None,None,1,1.4974010000005364,474.4537543000188,None,None,1,,,,,,,,,,,,,,,005,2022-05-06_17h36.20.569,Main,2022.1.1,59.14692393414104,
negative,red,2,None,None,,,,,,,,,0,116,116,116,,,,,,,,,,,,,,,,,main,None,None,1,1.500538699910976,476.95095680002123,None,None,1,,,,,,,,,,,,,,,005,2022-05-06_17h36.20.569,Main,2022.1.1,59.14692393414104,
negative,yellow,2,k,None,,,,,,,,,0,117,117,117,,,,,,,,,,,,,,,,,main,None,None,1,1.4991166999097914,479.45362809998915,None,None,1,,,,,,,,,,,,,,,005,2022-05-06_17h36.20.569,Main,2022.1.1,59.14692393414104,
positive,yellow,1,None,k,,,,,,,,,0,118,118,118,,,,,,,,,,,,,,,,,main,k,k,1,0.7636467000702396,481.95141630002763,None,None,0,,,,,,,,,,,,,,,005,2022-05-06_17h36.20.569,Main,2022.1.1,59.14692393414104,
positive,red,2,None,None,,,,,,,,,0,119,119,119,,,,,,,,,,,,,,,,,main,None,None,1,1.4988509999820963,483.7177685999777,None,None,1,,,,,,,,,,,,,,,005,2022-05-06_17h36.20.569,Main,2022.1.1,59.14692393414104,
positive,blue,2,k,None,,,,,,,,,0,120,120,120,,,,,,,,,,,,,,,,,main,None,None,1,1.5010156000498682,486.2173961000517,None,None,1,,,,,,,,,,,,,,,005,2022-05-06_17h36.20.569,Main,2022.1.1,59.14692393414104,
negative,red,1,None,None,,,,,,,,,0,121,121,121,,,,,,,,,,,,,,,,,main,None,None,1,1.4962788000702858,488.720160100027,None,None,1,,,,,,,,,,,,,,,005,2022-05-06_17h36.20.569,Main,2022.1.1,59.14692393414104,
positive,yellow,2,None,k,,,,,,,,,0,122,122,122,,,,,,,,,,,,,,,,,main,k,k,1,0.983052899944596,491.2199253999861,None,None,0,,,,,,,,,,,,,,,005,2022-05-06_17h36.20.569,Main,2022.1.1,59.14692393414104,
negative,red,2,None,None,,,,,,,,,0,123,123,123,,,,,,,,,,,,,,,,,main,None,None,1,1.4992339999880642,493.2008163999999,None,None,1,,,,,,,,,,,,,,,005,2022-05-06_17h36.20.569,Main,2022.1.1,59.14692393414104,
negative,yellow,2,k,None,,,,,,,,,0,124,124,124,,,,,,,,,,,,,,,,,main,None,None,1,1.5031074000289664,495.7031961999601,None,None,1,,,,,,,,,,,,,,,005,2022-05-06_17h36.20.569,Main,2022.1.1,59.14692393414104,
positive,red,1,None,None,,,,,,,,,0,125,125,125,,,,,,,,,,,,,,,,,main,None,None,1,1.4944303999654949,498.2007416000124,None,None,1,,,,,,,,,,,,,,,005,2022-05-06_17h36.20.569,Main,2022.1.1,59.14692393414104,
negative,blue,2,None,k,,,,,,,,,0,126,126,126,,,,,,,,,,,,,,,,,main,k,k,1,0.8493457000004128,500.7010184000246,None,None,0,,,,,,,,,,,,,,,005,2022-05-06_17h36.20.569,Main,2022.1.1,59.14692393414104,
negative,blue,1,None,k,,,,,,,,,0,127,127,127,,,,,,,,,,,,,,,,,main,k,k,1,0.7829171000048518,502.5509626000421,None,None,0,,,,,,,,,,,,,,,005,2022-05-06_17h36.20.569,Main,2022.1.1,59.14692393414104,
negative,yellow,1,k,None,,,,,,,,,0,128,128,128,,,,,,,,,,,,,,,,,main,None,None,1,1.4991396999685094,504.3339183999924,None,None,1,,,,,,,,,,,,,,,005,2022-05-06_17h36.20.569,Main,2022.1.1,59.14692393414104,
negative,yellow,1,k,None,,,,,,,,,0,129,129,129,,,,,,,,,,,,,,,,,main,None,None,1,1.4986228999914601,506.8365589999594,None,None,1,,,,,,,,,,,,,,,005,2022-05-06_17h36.20.569,Main,2022.1.1,59.14692393414104,
positive,blue,1,k,None,,,,,,,,,0,130,130,130,,,,,,,,,,,,,,,,,main,None,None,1,1.4975274000316858,509.3363443999551,None,None,1,,,,,,,,,,,,,,,005,2022-05-06_17h36.20.569,Main,2022.1.1,59.14692393414104,
negative,blue,1,None,k,,,,,,,,,0,131,131,131,,,,,,,,,,,,,,,,,main,k,k,1,0.6672629000386223,511.83364580001216,None,None,0,,,,,,,,,,,,,,,005,2022-05-06_17h36.20.569,Main,2022.1.1,59.14692393414104,
negative,blue,2,None,k,,,,,,,,,0,132,132,132,,,,,,,,,,,,,,,,,main,k,k,1,0.6805034999269992,513.5029068000149,None,None,0,,,,,,,,,,,,,,,005,2022-05-06_17h36.20.569,Main,2022.1.1,59.14692393414104,
positive,blue,2,k,None,,,,,,,,,0,133,133,133,,,,,,,,,,,,,,,,,main,None,None,1,1.4982383999740705,515.1862099999562,None,None,1,,,,,,,,,,,,,,,005,2022-05-06_17h36.20.569,Main,2022.1.1,59.14692393414104,
positive,red,2,None,None,,,,,,,,,0,134,134,134,,,,,,,,,,,,,,,,,main,None,None,1,1.498734400025569,517.6841120000463,None,None,1,,,,,,,,,,,,,,,005,2022-05-06_17h36.20.569,Main,2022.1.1,59.14692393414104,
negative,yellow,2,k,None,,,,,,,,,0,135,135,135,,,,,,,,,,,,,,,,,main,None,None,1,1.5019913000287488,520.1836279999698,None,None,1,,,,,,,,,,,,,,,005,2022-05-06_17h36.20.569,Main,2022.1.1,59.14692393414104,
positive,yellow,2,None,k,,,,,,,,,0,136,136,136,,,,,,,,,,,,,,,,,main,k,k,1,0.7033414000179619,522.6862263999647,None,None,0,,,,,,,,,,,,,,,005,2022-05-06_17h36.20.569,Main,2022.1.1,59.14692393414104,
positive,blue,1,k,None,,,,,,,,,0,137,137,137,,,,,,,,,,,,,,,,,main,None,None,1,1.493009600089863,524.3859251999529,None,None,1,,,,,,,,,,,,,,,005,2022-05-06_17h36.20.569,Main,2022.1.1,59.14692393414104,
positive,yellow,1,None,k,,,,,,,,,0,138,138,138,,,,,,,,,,,,,,,,,main,k,k,1,1.0481474999105558,526.8831929999869,None,None,0,,,,,,,,,,,,,,,005,2022-05-06_17h36.20.569,Main,2022.1.1,59.14692393414104,
positive,yellow,1,None,k,,,,,,,,,0,139,139,139,,,,,,,,,,,,,,,,,main,k,k,1,0.6351169999688864,528.933528500027,None,None,0,,,,,,,,,,,,,,,005,2022-05-06_17h36.20.569,Main,2022.1.1,59.14692393414104,
positive,yellow,1,None,k,,,,,,,,,0,140,140,140,,,,,,,,,,,,,,,,,main,k,k,1,0.5823392000747845,530.5691780999769,None,None,0,,,,,,,,,,,,,,,005,2022-05-06_17h36.20.569,Main,2022.1.1,59.14692393414104,
positive,blue,1,k,None,,,,,,,,,0,141,141,141,,,,,,,,,,,,,,,,,main,None,None,1,1.4964198999805376,532.1525008999743,None,None,1,,,,,,,,,,,,,,,005,2022-05-06_17h36.20.569,Main,2022.1.1,59.14692393414104,
positive,blue,2,k,None,,,,,,,,,0,142,142,142,,,,,,,,,,,,,,,,,main,None,None,1,1.5015650999266654,534.6499850000255,None,None,1,,,,,,,,,,,,,,,005,2022-05-06_17h36.20.569,Main,2022.1.1,59.14692393414104,
positive,yellow,2,None,k,,,,,,,,,0,143,143,143,,,,,,,,,,,,,,,,,main,k,k,1,1.0471552000381052,537.1523936999729,None,None,0,,,,,,,,,,,,,,,005,2022-05-06_17h36.20.569,Main,2022.1.1,59.14692393414104,
negative,yellow,2,k,None,,,,,,,,,0,144,144,144,,,,,,,,,,,,,,,,,main,None,None,1,1.4986277999123558,539.1999358000467,None,None,1,,,,,,,,,,,,,,,005,2022-05-06_17h36.20.569,Main,2022.1.1,59.14692393414104,
negative,blue,2,None,k,,,,,,,,,0,145,145,145,,,,,,,,,,,,,,,,,main,k,k,1,0.7991858000168577,541.6999426999828,None,None,0,,,,,,,,,,,,,,,005,2022-05-06_17h36.20.569,Main,2022.1.1,59.14692393414104,
negative,red,1,None,None,,,,,,,,,0,146,146,146,,,,,,,,,,,,,,,,,main,None,None,1,1.502565999981016,543.4995415000012,None,None,1,,,,,,,,,,,,,,,005,2022-05-06_17h36.20.569,Main,2022.1.1,59.14692393414104,
positive,blue,1,k,None,,,,,,,,,0,147,147,147,,,,,,,,,,,,,,,,,main,None,None,1,1.4958854999858886,546.0022176000057,None,None,1,,,,,,,,,,,,,,,005,2022-05-06_17h36.20.569,Main,2022.1.1,59.14692393414104,
positive,yellow,1,None,k,,,,,,,,,0,148,148,148,,,,,,,,,,,,,,,,,main,k,k,1,0.7841859000036493,548.4994719000533,None,None,0,,,,,,,,,,,,,,,005,2022-05-06_17h36.20.569,Main,2022.1.1,59.14692393414104,
negative,red,2,None,None,,,,,,,,,0,149,149,149,,,,,,,,,,,,,,,,,main,None,None,1,1.4989666000474244,550.2854293000419,None,None,1,,,,,,,,,,,,,,,005,2022-05-06_17h36.20.569,Main,2022.1.1,59.14692393414104,
negative,blue,1,None,k,,,,,,,,,0,150,150,150,,,,,,,,,,,,,,,,,main,k,k,1,0.9968177999835461,552.7854103000136,None,None,0,,,,,,,,,,,,,,,005,2022-05-06_17h36.20.569,Main,2022.1.1,59.14692393414104,
negative,yellow,2,k,None,,,,,,,,,0,151,151,151,,,,,,,,,,,,,,,,,main,None,None,1,1.5001531000016257,554.7852984999772,None,None,1,,,,,,,,,,,,,,,005,2022-05-06_17h36.20.569,Main,2022.1.1,59.14692393414104,
negative,blue,2,None,k,,,,,,,,,0,152,152,152,,,,,,,,,,,,,,,,,main,k,k,1,1.14964359998703,557.2826515999623,None,None,0,,,,,,,,,,,,,,,005,2022-05-06_17h36.20.569,Main,2022.1.1,59.14692393414104,
negative,yellow,1,k,None,,,,,,,,,0,153,153,153,,,,,,,,,,,,,,,,,main,None,None,1,1.4987097999546677,559.4352446999401,None,None,1,,,,,,,,,,,,,,,005,2022-05-06_17h36.20.569,Main,2022.1.1,59.14692393414104,
negative,blue,1,None,k,,,,,,,,,0,154,154,154,,,,,,,,,,,,,,,,,main,k,k,1,0.8136682999320328,561.9352431000443,None,None,0,,,,,,,,,,,,,,,005,2022-05-06_17h36.20.569,Main,2022.1.1,59.14692393414104,
positive,yellow,2,None,k,,,,,,,,,0,155,155,155,,,,,,,,,,,,,,,,,main,k,k,1,0.8150559000205249,563.7493554999819,None,None,0,,,,,,,,,,,,,,,005,2022-05-06_17h36.20.569,Main,2022.1.1,59.14692393414104,
positive,red,2,None,None,,,,,,,,,0,156,156,156,,,,,,,,,,,,,,,,,main,None,None,1,1.5018468999769539,565.565677799983,None,None,1,,,,,,,,,,,,,,,005,2022-05-06_17h36.20.569,Main,2022.1.1,59.14692393414104,
positive,red,1,None,None,,,,,,,,,0,157,157,157,,,,,,,,,,,,,,,,,main,None,None,1,1.4988179999636486,568.0684098999482,None,None,1,,,,,,,,,,,,,,,005,2022-05-06_17h36.20.569,Main,2022.1.1,59.14692393414104,
positive,blue,2,k,None,,,,,,,,,0,158,158,158,,,,,,,,,,,,,,,,,main,None,None,1,1.499026200035587,570.5683705999982,None,None,1,,,,,,,,,,,,,,,005,2022-05-06_17h36.20.569,Main,2022.1.1,59.14692393414104,
negative,yellow,1,k,None,,,,,,,,,0,159,159,159,,,,,,,,,,,,,,,,,main,None,None,1,1.4963031000224873,573.0660959000234,None,None,1,,,,,,,,,,,,,,,005,2022-05-06_17h36.20.569,Main,2022.1.1,59.14692393414104,
negative,red,2,None,None,,,,,,,,,0,160,160,160,,,,,,,,,,,,,,,,,main,None,None,1,1.5020251999376342,575.5655178000452,None,None,1,,,,,,,,,,,,,,,005,2022-05-06_17h36.20.569,Main,2022.1.1,59.14692393414104,
negative,blue,1,None,k,,,,,,,,,0,161,161,161,,,,,,,,,,,,,,,,,main,k,k,1,0.8629776000743732,578.0681963999523,None,None,0,,,,,,,,,,,,,,,005,2022-05-06_17h36.20.569,Main,2022.1.1,59.14692393414104,
negative,blue,1,None,k,,,,,,,,,0,162,162,162,,,,,,,,,,,,,,,,,main,k,k,1,0.7658653999678791,579.9320502999472,None,None,0,,,,,,,,,,,,,,,005,2022-05-06_17h36.20.569,Main,2022.1.1,59.14692393414104,
negative,yellow,1,k,None,,,,,,,,,0,163,163,163,,,,,,,,,,,,,,,,,main,None,None,1,1.5014531000051647,581.6990490000462,None,None,1,,,,,,,,,,,,,,,005,2022-05-06_17h36.20.569,Main,2022.1.1,59.14692393414104,
negative,yellow,1,k,None,,,,,,,,,0,164,164,164,,,,,,,,,,,,,,,,,main,None,None,1,1.4970167999854311,584.2013767999597,None,None,1,,,,,,,,,,,,,,,005,2022-05-06_17h36.20.569,Main,2022.1.1,59.14692393414104,
positive,yellow,1,None,k,,,,,,,,,0,165,165,165,,,,,,,,,,,,,,,,,main,k,k,1,1.148700000019744,586.6988681999501,None,None,0,,,,,,,,,,,,,,,005,2022-05-06_17h36.20.569,Main,2022.1.1,59.14692393414104,
negative,red,1,None,None,,,,,,,,,0,166,166,166,,,,,,,,,,,,,,,,,main,None,None,1,1.5015313000185415,588.8487725999439,None,None,1,,,,,,,,,,,,,,,005,2022-05-06_17h36.20.569,Main,2022.1.1,59.14692393414104,
negative,yellow,2,k,None,,,,,,,,,0,167,167,167,,,,,,,,,,,,,,,,,main,None,None,1,1.4970361000159755,591.3514553999994,None,None,1,,,,,,,,,,,,,,,005,2022-05-06_17h36.20.569,Main,2022.1.1,59.14692393414104,
positive,blue,2,k,None,,,,,,,,,0,168,168,168,,,,,,,,,,,,,,,,,main,None,None,1,1.4984992999816313,593.854246599949,None,None,1,,,,,,,,,,,,,,,005,2022-05-06_17h36.20.569,Main,2022.1.1,59.14692393414104,
positive,red,2,None,None,,,,,,,,,0,169,169,169,,,,,,,,,,,,,,,,,main,None,None,1,1.5017358999466524,596.3488367999671,None,None,1,,,,,,,,,,,,,,,005,2022-05-06_17h36.20.569,Main,2022.1.1,59.14692393414104,
positive,red,1,None,None,,,,,,,,,0,170,170,170,,,,,,,,,,,,,,,,,main,None,None,1,1.4971393999876454,598.8510324000381,None,None,1,,,,,,,,,,,,,,,005,2022-05-06_17h36.20.569,Main,2022.1.1,59.14692393414104,
negative,blue,2,None,k,,,,,,,,,0,171,171,171,,,,,,,,,,,,,,,,,main,k,k,1,0.9981789999874309,601.3483979000011,None,None,0,,,,,,,,,,,,,,,005,2022-05-06_17h36.20.569,Main,2022.1.1,59.14692393414104,
positive,blue,2,k,None,,,,,,,,,0,172,172,172,,,,,,,,,,,,,,,,,main,None,None,1,1.501780900056474,603.3482644000323,None,None,1,,,,,,,,,,,,,,,005,2022-05-06_17h36.20.569,Main,2022.1.1,59.14692393414104,
negative,yellow,2,k,None,,,,,,,,,0,173,173,173,,,,,,,,,,,,,,,,,main,None,None,1,1.4965194000396878,605.8508901000023,None,None,1,,,,,,,,,,,,,,,005,2022-05-06_17h36.20.569,Main,2022.1.1,59.14692393414104,
positive,yellow,2,None,k,,,,,,,,,0,174,174,174,,,,,,,,,,,,,,,,,main,k,k,1,1.1495692000025883,608.3488247999921,None,None,0,,,,,,,,,,,,,,,005,2022-05-06_17h36.20.569,Main,2022.1.1,59.14692393414104,
negative,blue,2,None,k,,,,,,,,,0,175,175,175,,,,,,,,,,,,,,,,,main,k,k,1,0.7177730998955667,610.4982599000214,None,None,0,,,,,,,,,,,,,,,005,2022-05-06_17h36.20.569,Main,2022.1.1,59.14692393414104,
positive,blue,1,k,None,,,,,,,,,0,176,176,176,,,,,,,,,,,,,,,,,main,None,None,1,1.499182099942118,612.2174521000125,None,None,1,,,,,,,,,,,,,,,005,2022-05-06_17h36.20.569,Main,2022.1.1,59.14692393414104,
positive,yellow,1,None,k,,,,,,,,,0,177,177,177,,,,,,,,,,,,,,,,,main,k,k,1,1.0129913999699056,614.7174762999639,None,None,0,,,,,,,,,,,,,,,005,2022-05-06_17h36.20.569,Main,2022.1.1,59.14692393414104,
positive,blue,1,k,None,,,,,,,,,0,178,178,178,,,,,,,,,,,,,,,,,main,None,None,1,1.5015077999560162,616.7315170000074,None,None,1,,,,,,,,,,,,,,,005,2022-05-06_17h36.20.569,Main,2022.1.1,59.14692393414104,
positive,yellow,2,None,k,,,,,,,,,0,179,179,179,,,,,,,,,,,,,,,,,main,k,k,1,0.8660416000057012,619.2339053000323,None,None,0,,,,,,,,,,,,,,,005,2022-05-06_17h36.20.569,Main,2022.1.1,59.14692393414104,
positive,blue,1,k,None,,,,,,,,,0,180,180,180,,,,,,,,,,,,,,,,,main,None,None,1,1.4963552999543026,621.1005675999913,None,None,1,,,,,,,,,,,,,,,005,2022-05-06_17h36.20.569,Main,2022.1.1,59.14692393414104,
negative,red,1,None,None,,,,,,,,,0,181,181,181,,,,,,,,,,,,,,,,,main,None,None,1,1.5014864000258967,623.598061800003,None,None,1,,,,,,,,,,,,,,,005,2022-05-06_17h36.20.569,Main,2022.1.1,59.14692393414104,
negative,blue,1,None,k,,,,,,,,,0,182,182,182,,,,,,,,,,,,,,,,,main,k,k,1,1.180228600045666,626.1004948000191,None,None,0,,,,,,,,,,,,,,,005,2022-05-06_17h36.20.569,Main,2022.1.1,59.14692393414104,
negative,yellow,2,k,None,,,,,,,,,0,183,183,183,,,,,,,,,,,,,,,,,main,None,None,1,1.498223099973984,628.2812702000374,None,None,1,,,,,,,,,,,,,,,005,2022-05-06_17h36.20.569,Main,2022.1.1,59.14692393414104,
positive,yellow,2,None,k,,,,,,,,,0,184,184,184,,,,,,,,,,,,,,,,,main,k,k,1,0.9674161999719217,630.780975200003,None,None,0,,,,,,,,,,,,,,,005,2022-05-06_17h36.20.569,Main,2022.1.1,59.14692393414104,
positive,yellow,1,None,k,,,,,,,,,0,185,185,185,,,,,,,,,,,,,,,,,main,k,k,1,0.8500242000445724,632.7505404000403,None,None,0,,,,,,,,,,,,,,,005,2022-05-06_17h36.20.569,Main,2022.1.1,59.14692393414104,
positive,red,2,None,None,,,,,,,,,0,186,186,186,,,,,,,,,,,,,,,,,main,None,None,1,1.4966980998869985,634.6003238999983,None,None,1,,,,,,,,,,,,,,,005,2022-05-06_17h36.20.569,Main,2022.1.1,59.14692393414104,
positive,blue,1,k,None,,,,,,,,,0,187,187,187,,,,,,,,,,,,,,,,,main,None,None,1,1.4989259999711066,637.0980292999884,None,None,1,,,,,,,,,,,,,,,005,2022-05-06_17h36.20.569,Main,2022.1.1,59.14692393414104,
negative,yellow,1,k,None,,,,,,,,,0,188,188,188,,,,,,,,,,,,,,,,,main,None,None,1,1.5024007000029087,639.5976400000509,None,None,1,,,,,,,,,,,,,,,005,2022-05-06_17h36.20.569,Main,2022.1.1,59.14692393414104,
positive,yellow,2,None,k,,,,,,,,,0,189,189,189,,,,,,,,,,,,,,,,,main,k,k,1,1.1453007999807596,642.098013699986,None,None,0,,,,,,,,,,,,,,,005,2022-05-06_17h36.20.569,Main,2022.1.1,59.14692393414104,
negative,yellow,2,k,None,,,,,,,,,0,190,190,190,,,,,,,,,,,,,,,,,main,None,None,1,1.5017671999521554,644.2472909999778,None,None,1,,,,,,,,,,,,,,,005,2022-05-06_17h36.20.569,Main,2022.1.1,59.14692393414104,
negative,yellow,1,k,None,,,,,,,,,0,191,191,191,,,,,,,,,,,,,,,,,main,None,None,1,1.4989205000456423,646.750050600036,None,None,1,,,,,,,,,,,,,,,005,2022-05-06_17h36.20.569,Main,2022.1.1,59.14692393414104,
positive,blue,2,k,None,,,,,,,,,0,192,192,192,,,,,,,,,,,,,,,,,main,None,None,1,1.4966627999674529,649.2499632999534,None,None,1,,,,,,,,,,,,,,,005,2022-05-06_17h36.20.569,Main,2022.1.1,59.14692393414104,
positive,yellow,1,None,k,,,,,,,,,0,193,193,193,,,,,,,,,,,,,,,,,main,k,k,1,0.7490918999537826,651.7497529999819,None,None,0,,,,,,,,,,,,,,,005,2022-05-06_17h36.20.569,Main,2022.1.1,59.14692393414104,
negative,red,2,None,None,,,,,,,,,0,194,194,194,,,,,,,,,,,,,,,,,main,None,None,1,1.5014874000335112,653.4973983999807,None,None,1,,,,,,,,,,,,,,,005,2022-05-06_17h36.20.569,Main,2022.1.1,59.14692393414104,
positive,red,1,None,None,,,,,,,,,0,195,195,195,,,,,,,,,,,,,,,,,main,None,None,1,1.49663910001982,655.9998301999876,None,None,1,,,,,,,,,,,,,,,005,2022-05-06_17h36.20.569,Main,2022.1.1,59.14692393414104,
negative,blue,1,None,k,,,,,,,,,0,196,196,196,,,,,,,,,,,,,,,,,main,k,k,1,0.9541527000255883,658.5030006000306,None,None,0,,,,,,,,,,,,,,,005,2022-05-06_17h36.20.569,Main,2022.1.1,59.14692393414104,
positive,blue,2,k,None,,,,,,,,,0,197,197,197,,,,,,,,,,,,,,,,,main,None,None,1,1.4949765999335796,660.4545310999965,None,None,1,,,,,,,,,,,,,,,005,2022-05-06_17h36.20.569,Main,2022.1.1,59.14692393414104,
negative,blue,2,None,k,,,,,,,,,0,198,198,198,,,,,,,,,,,,,,,,,main,k,k,1,0.783940099994652,662.9472123000305,None,None,0,,,,,,,,,,,,,,,005,2022-05-06_17h36.20.569,Main,2022.1.1,59.14692393414104,
negative,blue,2,None,k,,,,,,,,,0,199,199,199,,,,,,,,,,,,,,,,,main,k,k,1,0.6823863000608981,664.7329276000382,None,None,0,,,,,,,,,,,,,,,005,2022-05-06_17h36.20.569,Main,2022.1.1,59.14692393414104,
positive,blue,2,k,None,,,,,,,,,0,200,200,200,,,,,,,,,,,,,,,,,main,None,None,1,1.4971338999457657,666.4136941999895,None,None,1,,,,,,,,,,,,,,,005,2022-05-06_17h36.20.569,Main,2022.1.1,59.14692393414104,
positive,blue,2,k,None,,,,,,,,,0,201,201,201,,,,,,,,,,,,,,,,,main,None,None,1,1.5004307000199333,668.9135547999758,None,None,1,,,,,,,,,,,,,,,005,2022-05-06_17h36.20.569,Main,2022.1.1,59.14692393414104,
negative,yellow,2,k,None,,,,,,,,,0,202,202,202,,,,,,,,,,,,,,,,,main,None,None,1,1.4990699000190943,671.4161543999799,None,None,1,,,,,,,,,,,,,,,005,2022-05-06_17h36.20.569,Main,2022.1.1,59.14692393414104,
positive,red,1,None,None,,,,,,,,,0,203,203,203,,,,,,,,,,,,,,,,,main,None,None,1,1.4972380000399426,673.9136140999617,None,None,1,,,,,,,,,,,,,,,005,2022-05-06_17h36.20.569,Main,2022.1.1,59.14692393414104,
negative,blue,2,None,k,,,,,,,,,0,204,204,204,,,,,,,,,,,,,,,,,main,k,k,1,0.7982117000501603,676.4133372999495,None,None,0,,,,,,,,,,,,,,,005,2022-05-06_17h36.20.569,Main,2022.1.1,59.14692393414104,
negative,red,1,None,None,,,,,,,,,0,205,205,205,,,,,,,,,,,,,,,,,main,None,None,1,1.5013177999062464,678.213353500003,None,None,1,,,,,,,,,,,,,,,005,2022-05-06_17h36.20.569,Main,2022.1.1,59.14692393414104,
negative,blue,2,None,k,,,,,,,,,0,206,206,206,,,,,,,,,,,,,,,,,main,k,k,1,0.780586100067012,680.7159571000375,None,None,0,,,,,,,,,,,,,,,005,2022-05-06_17h36.20.569,Main,2022.1.1,59.14692393414104,
negative,yellow,2,k,None,,,,,,,,,0,207,207,207,,,,,,,,,,,,,,,,,main,None,None,1,1.4990411000326276,682.4967368999496,None,None,1,,,,,,,,,,,,,,,005,2022-05-06_17h36.20.569,Main,2022.1.1,59.14692393414104,
positive,yellow,2,None,k,,,,,,,,,0,208,208,208,,,,,,,,,,,,,,,,,main,k,k,1,1.3987229999620467,684.9964276000392,None,None,0,,,,,,,,,,,,,,,005,2022-05-06_17h36.20.569,Main,2022.1.1,59.14692393414104,
negative,yellow,1,k,None,,,,,,,,,0,209,209,209,,,,,,,,,,,,,,,,,main,None,k,0,-0.7157601000508294,687.3992575999582,None,None,1,,,,,,,,,,,,,,,005,2022-05-06_17h36.20.569,Main,2022.1.1,59.14692393414104,
negative,red,2,None,None,,,,,,,,,0,210,210,210,,,,,,,,,,,,,,,,,main,None,None,1,1.4994060000171885,690.6824078999925,None,None,1,,,,,,,,,,,,,,,005,2022-05-06_17h36.20.569,Main,2022.1.1,59.14692393414104,
negative,blue,1,None,k,,,,,,,,,0,211,211,211,,,,,,,,,,,,,,,,,main,k,k,1,0.9500848000170663,693.1799567999551,None,None,0,,,,,,,,,,,,,,,005,2022-05-06_17h36.20.569,Main,2022.1.1,59.14692393414104,
negative,yellow,1,k,None,,,,,,,,,0,212,212,212,,,,,,,,,,,,,,,,,main,None,None,1,1.4989277001004666,695.1322862999514,None,None,1,,,,,,,,,,,,,,,005,2022-05-06_17h36.20.569,Main,2022.1.1,59.14692393414104,
positive,blue,1,k,None,,,,,,,,,0,213,213,213,,,,,,,,,,,,,,,,,main,None,None,1,1.4975913000525907,697.6297341999598,None,None,1,,,,,,,,,,,,,,,005,2022-05-06_17h36.20.569,Main,2022.1.1,59.14692393414104,
positive,blue,1,k,None,,,,,,,,,0,214,214,214,,,,,,,,,,,,,,,,,main,None,None,1,1.4988870999077335,700.1295532999793,None,None,1,,,,,,,,,,,,,,,005,2022-05-06_17h36.20.569,Main,2022.1.1,59.14692393414104,
positive,yellow,1,None,k,,,,,,,,,0,215,215,215,,,,,,,,,,,,,,,,,main,k,k,1,0.9507064999779686,702.6296301999828,None,None,0,,,,,,,,,,,,,,,005,2022-05-06_17h36.20.569,Main,2022.1.1,59.14692393414104,
positive,yellow,1,None,k,,,,,,,,,0,216,216,216,,,,,,,,,,,,,,,,,main,k,k,1,0.8657616999698803,704.5820824999828,None,None,0,,,,,,,,,,,,,,,005,2022-05-06_17h36.20.569,Main,2022.1.1,59.14692393414104,
positive,yellow,2,None,k,,,,,,,,,0,217,217,217,,,,,,,,,,,,,,,,,main,k,k,1,0.9128665999742225,706.4487183999736,None,None,0,,,,,,,,,,,,,,,005,2022-05-06_17h36.20.569,Main,2022.1.1,59.14692393414104,
negative,blue,1,None,k,,,,,,,,,0,218,218,218,,,,,,,,,,,,,,,,,main,k,k,1,1.0184856000123546,708.3625867000083,None,None,0,,,,,,,,,,,,,,,005,2022-05-06_17h36.20.569,Main,2022.1.1,59.14692393414104,
positive,red,2,None,None,,,,,,,,,0,219,219,219,,,,,,,,,,,,,,,,,main,None,None,1,1.4962236999999732,710.3819355999585,None,None,1,,,,,,,,,,,,,,,005,2022-05-06_17h36.20.569,Main,2022.1.1,59.14692393414104,
positive,yellow,1,None,k,,,,,,,,,0,220,220,220,,,,,,,,,,,,,,,,,main,k,k,1,1.1826187999686226,712.8854272000026,None,None,0,,,,,,,,,,,,,,,005,2022-05-06_17h36.20.569,Main,2022.1.1,59.14692393414104,
positive,blue,1,k,None,,,,,,,,,0,221,221,221,,,,,,,,,,,,,,,,,main,None,None,1,1.5035917999921367,715.0624546000035,None,None,1,,,,,,,,,,,,,,,005,2022-05-06_17h36.20.569,Main,2022.1.1,59.14692393414104,
positive,yellow,2,None,k,,,,,,,,,0,222,222,222,,,,,,,,,,,,,,,,,main,k,k,1,1.0803902000188828,717.5651893999893,None,None,0,,,,,,,,,,,,,,,005,2022-05-06_17h36.20.569,Main,2022.1.1,59.14692393414104,
negative,yellow,1,k,None,,,,,,,,,0,223,223,223,,,,,,,,,,,,,,,,,main,None,None,1,1.4964126000413671,719.6484263000311,None,None,1,,,,,,,,,,,,,,,005,2022-05-06_17h36.20.569,Main,2022.1.1,59.14692393414104,
positive,yellow,2,None,k,,,,,,,,,0,224,224,224,,,,,,,,,,,,,,,,,main,k,k,1,2.532530799973756,722.1458819999825,None,None,0,,,,,,,,,,,,,,,005,2022-05-06_17h36.20.569,Main,2022.1.1,59.14692393414104,
negative,yellow,2,k,None,,,,,,,,,0,225,225,225,,,,,,,,,,,,,,,,,main,None,None,1,1.500979600008577,726.6816521999426,None,None,1,,,,,,,,,,,,,,,005,2022-05-06_17h36.20.569,Main,2022.1.1,59.14692393414104,
negative,blue,2,None,k,,,,,,,,,0,226,226,226,,,,,,,,,,,,,,,,,main,k,k,1,1.0305410000728443,729.1815610999474,None,None,0,,,,,,,,,,,,,,,005,2022-05-06_17h36.20.569,Main,2022.1.1,59.14692393414104,
positive,red,2,None,None,,,,,,,,,0,227,227,227,,,,,,,,,,,,,,,,,main,None,None,1,1.5005490999901667,731.2120708000148,None,None,1,,,,,,,,,,,,,,,005,2022-05-06_17h36.20.569,Main,2022.1.1,59.14692393414104,
positive,blue,2,k,None,,,,,,,,,0,228,228,228,,,,,,,,,,,,,,,,,main,None,None,1,1.4991571001010016,733.714798699948,None,None,1,,,,,,,,,,,,,,,005,2022-05-06_17h36.20.569,Main,2022.1.1,59.14692393414104,
negative,blue,1,None,k,,,,,,,,,0,229,229,229,,,,,,,,,,,,,,,,,main,k,k,1,0.7627986000152305,736.2147267999826,None,None,0,,,,,,,,,,,,,,,005,2022-05-06_17h36.20.569,Main,2022.1.1,59.14692393414104,
positive,yellow,1,None,k,,,,,,,,,0,230,230,230,,,,,,,,,,,,,,,,,main,k,k,1,0.7685782000189647,737.9788292000303,None,None,0,,,,,,,,,,,,,,,005,2022-05-06_17h36.20.569,Main,2022.1.1,59.14692393414104,
negative,blue,2,None,k,,,,,,,,,0,231,231,231,,,,,,,,,,,,,,,,,main,k,k,1,0.7635753999929875,739.7481280999491,None,None,0,,,,,,,,,,,,,,,005,2022-05-06_17h36.20.569,Main,2022.1.1,59.14692393414104,
negative,red,1,None,None,,,,,,,,,0,232,232,232,,,,,,,,,,,,,,,,,main,None,None,1,1.5005370000144467,741.514657999971,None,None,1,,,,,,,,,,,,,,,005,2022-05-06_17h36.20.569,Main,2022.1.1,59.14692393414104,
positive,blue,2,k,None,,,,,,,,,0,233,233,233,,,,,,,,,,,,,,,,,main,None,None,1,1.4975216999882832,744.0144425999606,None,None,1,,,,,,,,,,,,,,,005,2022-05-06_17h36.20.569,Main,2022.1.1,59.14692393414104,
negative,yellow,1,k,None,,,,,,,,,0,234,234,234,,,,,,,,,,,,,,,,,main,None,None,1,1.500291100004688,746.5117560999934,None,None,1,,,,,,,,,,,,,,,005,2022-05-06_17h36.20.569,Main,2022.1.1,59.14692393414104,
negative,yellow,2,k,None,,,,,,,,,0,235,235,235,,,,,,,,,,,,,,,,,main,None,None,1,1.5022307999897748,749.0144592999713,None,None,1,,,,,,,,,,,,,,,005,2022-05-06_17h36.20.569,Main,2022.1.1,59.14692393414104,
positive,red,1,None,None,,,,,,,,,0,236,236,236,,,,,,,,,,,,,,,,,main,None,None,1,1.4932679999619722,751.5156845999882,None,None,1,,,,,,,,,,,,,,,005,2022-05-06_17h36.20.569,Main,2022.1.1,59.14692393414104,
negative,red,2,None,None,,,,,,,,,0,237,237,237,,,,,,,,,,,,,,,,,main,None,None,1,1.5016134000616148,754.0116378000239,None,None,1,,,,,,,,,,,,,,,005,2022-05-06_17h36.20.569,Main,2022.1.1,59.14692393414104,
negative,blue,1,None,k,,,,,,,,,0,238,238,238,,,,,,,,,,,,,,,,,main,k,k,1,1.7824977999553084,756.5143067999743,None,None,0,,,,,,,,,,,,,,,005,2022-05-06_17h36.20.569,Main,2022.1.1,59.14692393414104,
positive,blue,1,k,None,,,,,,,,,0,239,239,239,,,,,,,,,,,,,,,,,main,None,None,1,1.5018456000834703,760.3114569999743,None,None,1,,,,,,,,,,,,,,,005,2022-05-06_17h36.20.569,Main,2022.1.1,59.14692393414104,
,,,,,,,,,,,,,,,,,,,,,,,,,,,,,,,,,,,,,,,,,,,,,,,,,,,,,,762.8114619000116,None,,,,,,
