distractor,target,set,ans1,ans2,rep_loop4.thisRepN,rep_loop4.thisTrialN,rep_loop4.thisN,rep_loop4.thisIndex,st2_prac_loop.thisRepN,st2_prac_loop.thisTrialN,st2_prac_loop.thisN,st2_prac_loop.thisIndex,st2_main_loop.thisRepN,st2_main_loop.thisTrialN,st2_main_loop.thisN,st2_main_loop.thisIndex,image_4.started,image_4.stopped,sound_2.started,sound_2.stopped,key_resp_3.keys,key_resp_3.rt,image_5.started,image_5.stopped,st_prac_back.started,st_prac_back.stopped,st_prac_text.started,st_prac_text.stopped,st_fix_back.started,st_fix_back.stopped,st_fix_2.started,st_fix_2.stopped,main_prac,st_ans,st_res,st_corr,st_rt,st_back.started,st_back.stopped,st2_resp.keys,st2_resp.corr,st_main_back.started,st_main_back.stopped,st_main_text.started,st_main_text.stopped,mouse_4.x,mouse_4.y,mouse_4.leftButton,mouse_4.midButton,mouse_4.rightButton,mouse_4.started,mouse_4.stopped,text_2.started,text_2.stopped,id*,date,expName,psychopyVersion,frameRate,
negative,yellow,1,k,None,,,,,0,0,0,0,,,,,34.40808920003474,None,105.57224572005217,None,space,1.9587335000978783,107.55512979999185,None,108.28332399995998,None,108.28332399995998,None,110.28333669994026,None,110.28333669994026,None,prac,k,k,1,-0.1889603000599891,112.28466600005049,None,None,0,,,,,,,,,,,,,,006,2022-05-06_19h30.58.794,Main,2022.1.1,61.18778962190159,
positive,red,2,None,None,,,,,0,1,1,1,,,,,,,,,,,,,,,,,,,,,prac,None,None,1,1.5034724000142887,116.10058199998457,None,None,1,,,,,,,,,,,,,,006,2022-05-06_19h30.58.794,Main,2022.1.1,61.18778962190159,
negative,blue,2,None,k,,,,,0,2,2,2,,,,,,,,,,,,,,,,,,,,,prac,None,k,0,0.21333039994351566,118.600050500012,None,None,1,,,,,,,,,,,,,,006,2022-05-06_19h30.58.794,Main,2022.1.1,61.18778962190159,
positive,yellow,1,None,k,,,,,0,3,3,3,,,,,,,,,,,,,,,,,,,,,prac,None,None,1,1.50361240003258,120.81625259993598,None,None,1,,,,,,,,,,,,,,006,2022-05-06_19h30.58.794,Main,2022.1.1,61.18778962190159,
negative,blue,2,None,k,,,,,0,4,4,4,,,,,,,,,,,,,,,,,,,,,prac,None,None,1,1.4985608999850228,123.31902980001178,None,None,1,,,,,,,,,,,,,,006,2022-05-06_19h30.58.794,Main,2022.1.1,61.18778962190159,
negative,blue,1,None,k,,,,,0,5,5,5,,,,,,,,,,,,,,,,,,,,,prac,None,None,1,1.4965822000522166,125.8190305000171,None,None,1,,,,,,,,,,,,,,006,2022-05-06_19h30.58.794,Main,2022.1.1,61.18778962190159,
negative,yellow,2,k,None,,,,,0,6,6,6,,,,,,,,,,,,,,,,,,,,,prac,k,k,1,1.0492622000165284,128.31642369995825,None,None,0,,,,,,,,,,,,,,006,2022-05-06_19h30.58.794,Main,2022.1.1,61.18778962190159,
negative,red,1,None,None,,,,,0,7,7,7,,,,,,,,,,,,,,,,,,,,,prac,None,None,1,1.5011679000454023,130.36632010003086,None,None,1,,,,,,,,,,,,,,006,2022-05-06_19h30.58.794,Main,2022.1.1,61.18778962190159,
positive,yellow,2,None,k,,,,,0,8,8,8,,,,,,,,,,,,,,,,,,,,,prac,None,None,1,1.4975034999661148,132.86631339997984,None,None,1,,,,,,,,,,,,,,006,2022-05-06_19h30.58.794,Main,2022.1.1,61.18778962190159,
negative,yellow,1,k,None,,,,,0,9,9,9,,,,,,,,,,,,,,,,,,,,,prac,k,k,1,0.8653230000054464,135.3659495000029,None,None,0,,,,,,,,,,,,,,006,2022-05-06_19h30.58.794,Main,2022.1.1,61.18778962190159,
positive,yellow,2,None,k,,,,,0,10,10,10,,,,,,,,,,,,,,,,,,,,,prac,None,None,1,1.501134599908255,137.23533609998412,None,None,1,,,,,,,,,,,,,,006,2022-05-06_19h30.58.794,Main,2022.1.1,61.18778962190159,
negative,yellow,2,k,None,,,,,0,11,11,11,,,,,,,,,,,,,,,,,,,,,prac,k,k,1,0.7633511000312865,139.735320399981,None,None,0,,,,,,,,,,,,,,006,2022-05-06_19h30.58.794,Main,2022.1.1,61.18778962190159,
negative,red,2,None,None,,,,,0,12,12,12,,,,,,,,,,,,,,,,,,,,,prac,None,None,1,1.500578899984248,141.4991215999471,None,None,1,,,,,,,,,,,,,,006,2022-05-06_19h30.58.794,Main,2022.1.1,61.18778962190159,
positive,red,1,None,None,,,,,0,13,13,13,,,,,,,,,,,,,,,,,,,,,prac,None,None,1,1.4995103999972343,143.9991330000339,None,None,1,,,,,,,,,,,,,,006,2022-05-06_19h30.58.794,Main,2022.1.1,61.18778962190159,
positive,blue,2,k,None,,,,,0,14,14,14,,,,,,,,,,,,,,,,,,,,,prac,k,k,1,0.7806011999491602,146.5018930999795,None,None,0,,,,,,,,,,,,,,006,2022-05-06_19h30.58.794,Main,2022.1.1,61.18778962190159,
positive,blue,1,k,None,,,,,0,15,15,15,,,,,,,,,,,,,,,,,,,,,prac,k,k,1,1.1663648000685498,148.28516359999776,None,None,0,,,,,,,,,,,,,,006,2022-05-06_19h30.58.794,Main,2022.1.1,61.18778962190159,
negative,blue,1,None,k,,,,,0,16,16,16,,,,,,,,,,,,,,,,,,,,,prac,None,None,1,1.497460399987176,150.4516635000473,None,None,1,,,,,,,,,,,,,,006,2022-05-06_19h30.58.794,Main,2022.1.1,61.18778962190159,
positive,blue,2,k,None,,,,,0,17,17,17,,,,,,,,,,,,,,,,,,,,,prac,k,k,1,0.9160156999714673,152.94913820002694,None,None,0,,,,,,,,,,,,,,006,2022-05-06_19h30.58.794,Main,2022.1.1,61.18778962190159,
positive,blue,1,k,None,,,,,0,18,18,18,,,,,,,,,,,,,,,,,,,,,prac,k,k,1,0.7656824999721721,154.86826699995436,None,None,0,,,,,,,,,,,,,,006,2022-05-06_19h30.58.794,Main,2022.1.1,61.18778962190159,
positive,yellow,1,None,k,,,,,0,19,19,19,,,,,,,,,,,,,,,,,,,,,prac,None,None,1,1.4988756999373436,156.63238990004174,None,None,1,,,,,,,,,,,,,,006,2022-05-06_19h30.58.794,Main,2022.1.1,61.18778962190159,
negative,yellow,1,k,None,,,,,1,0,20,0,,,,,,,,,,,,,,,,,,,,,prac,k,k,1,0.7994926000246778,159.13273990002926,None,None,0,,,,,,,,,,,,,,006,2022-05-06_19h30.58.794,Main,2022.1.1,61.18778962190159,
positive,red,2,None,None,,,,,1,1,21,1,,,,,,,,,,,,,,,,,,,,,prac,None,None,1,1.4986402000067756,160.93236239999533,None,None,1,,,,,,,,,,,,,,006,2022-05-06_19h30.58.794,Main,2022.1.1,61.18778962190159,
negative,blue,2,None,k,,,,,1,2,22,2,,,,,,,,,,,,,,,,,,,,,prac,None,None,1,1.4990202999906614,163.4322445000289,None,None,1,,,,,,,,,,,,,,006,2022-05-06_19h30.58.794,Main,2022.1.1,61.18778962190159,
positive,yellow,1,None,k,,,,,1,3,23,3,,,,,,,,,,,,,,,,,,,,,prac,None,None,1,1.4995193000650033,165.93225259997416,None,None,1,,,,,,,,,,,,,,006,2022-05-06_19h30.58.794,Main,2022.1.1,61.18778962190159,
negative,blue,2,None,k,,,,,1,4,24,4,,,,,,,,,,,,,,,,,,,,,prac,None,None,1,1.498599800048396,168.4324087999994,None,None,1,,,,,,,,,,,,,,006,2022-05-06_19h30.58.794,Main,2022.1.1,61.18778962190159,
negative,blue,1,None,k,,,,,1,5,25,5,,,,,,,,,,,,,,,,,,,,,prac,None,None,1,1.4999502999708056,170.93212360003963,None,None,1,,,,,,,,,,,,,,006,2022-05-06_19h30.58.794,Main,2022.1.1,61.18778962190159,
negative,yellow,2,k,None,,,,,1,6,26,6,,,,,,,,,,,,,,,,,,,,,prac,k,k,1,1.2316430000355467,173.43201400002,None,None,0,,,,,,,,,,,,,,006,2022-05-06_19h30.58.794,Main,2022.1.1,61.18778962190159,
negative,red,1,None,None,,,,,1,7,27,7,,,,,,,,,,,,,,,,,,,,,prac,None,None,1,1.498574799974449,175.66533039999194,None,None,1,,,,,,,,,,,,,,006,2022-05-06_19h30.58.794,Main,2022.1.1,61.18778962190159,
positive,yellow,2,None,k,,,,,1,8,28,8,,,,,,,,,,,,,,,,,,,,,prac,None,None,1,1.4998824000358582,178.17119549994823,None,None,1,,,,,,,,,,,,,,006,2022-05-06_19h30.58.794,Main,2022.1.1,61.18778962190159,
negative,yellow,1,k,None,,,,,1,9,29,9,,,,,,,,,,,,,,,,,,,,,prac,k,k,1,0.9986621999414638,180.66502610000316,None,None,0,,,,,,,,,,,,,,006,2022-05-06_19h30.58.794,Main,2022.1.1,61.18778962190159,
positive,yellow,2,None,k,,,,,1,10,30,10,,,,,,,,,,,,,,,,,,,,,prac,None,None,1,1.4985876000719145,182.66770440002438,None,None,1,,,,,,,,,,,,,,006,2022-05-06_19h30.58.794,Main,2022.1.1,61.18778962190159,
negative,yellow,2,k,None,,,,,1,11,31,11,,,,,,,,,,,,,,,,,,,,,prac,k,k,1,0.7159110000357032,185.1676280000247,None,None,0,,,,,,,,,,,,,,006,2022-05-06_19h30.58.794,Main,2022.1.1,61.18778962190159,
negative,red,2,None,None,,,,,1,12,32,12,,,,,,,,,,,,,,,,,,,,,prac,None,None,1,1.4988052999833599,186.8817321000388,None,None,1,,,,,,,,,,,,,,006,2022-05-06_19h30.58.794,Main,2022.1.1,61.18778962190159,
positive,red,1,None,None,,,,,1,13,33,13,,,,,,,,,,,,,,,,,,,,,prac,None,None,1,1.5045786000555381,189.38171250000596,None,None,1,,,,,,,,,,,,,,006,2022-05-06_19h30.58.794,Main,2022.1.1,61.18778962190159,
positive,blue,2,k,None,,,,,1,14,34,14,,,,,,,,,,,,,,,,,,,,,prac,k,k,1,0.6768177999183536,191.88768159993924,None,None,0,,,,,,,,,,,,,,006,2022-05-06_19h30.58.794,Main,2022.1.1,61.18778962190159,
positive,blue,1,k,None,,,,,1,15,35,15,,,,,,,,,,,,,,,,,,,,,prac,k,k,1,0.7995582999428734,193.56469429994468,None,None,0,,,,,,,,,,,,,,006,2022-05-06_19h30.58.794,Main,2022.1.1,61.18778962190159,
negative,blue,1,None,k,,,,,1,16,36,16,,,,,,,,,,,,,,,,,,,,,prac,None,None,1,1.5010026999516413,195.36737779993564,None,None,1,,,,,,,,,,,,,,006,2022-05-06_19h30.58.794,Main,2022.1.1,61.18778962190159,
positive,blue,2,k,None,,,,,1,17,37,17,,,,,,,,,,,,,,,,,,,,,prac,k,k,1,0.7471205999609083,197.8674227000447,None,None,0,,,,,,,,,,,,,,006,2022-05-06_19h30.58.794,Main,2022.1.1,61.18778962190159,
positive,blue,1,k,None,,,,,1,18,38,18,,,,,,,,,,,,,,,,,,,,,prac,k,k,1,0.732276099966839,199.61485340003856,None,None,0,,,,,,,,,,,,,,006,2022-05-06_19h30.58.794,Main,2022.1.1,61.18778962190159,
positive,yellow,1,None,k,,,,,1,19,39,19,,,,,,,,,,,,,,,,,,,,,prac,None,None,1,1.4986752999247983,201.3480832000496,None,None,1,,,,,,,,,,,,,,006,2022-05-06_19h30.58.794,Main,2022.1.1,61.18778962190159,
,,,,,,,,,,,,,,,,,,,,,,,,,,,,,,,,,,,,,,,,,,203.84806690004189,None,203.84806690004189,None,0.017592592,-0.046296295,0,0,0,0.014203520026057959,None,,,006,2022-05-06_19h30.58.794,Main,2022.1.1,61.18778962190159,
negative,yellow,2,k,None,,,,,,,,,0,0,0,0,,,,,,,,,,,,,205.38143489998765,None,205.38143489998765,None,main,k,k,1,0.7447428000159562,207.4092044000281,None,None,0,,,,,,,,,,,,,,006,2022-05-06_19h30.58.794,Main,2022.1.1,61.18778962190159,
positive,red,1,None,None,,,,,,,,,0,1,1,1,,,,,,,,,,,,,,,,,main,None,None,1,1.5009799000108615,209.1671498999931,None,None,1,,,,,,,,,,,,,,006,2022-05-06_19h30.58.794,Main,2022.1.1,61.18778962190159,
positive,blue,2,k,None,,,,,,,,,0,2,2,2,,,,,,,,,,,,,,,,,main,k,k,1,0.7134925000136718,211.66697100002784,None,None,0,,,,,,,,,,,,,,006,2022-05-06_19h30.58.794,Main,2022.1.1,61.18778962190159,
positive,blue,1,k,None,,,,,,,,,0,3,3,3,,,,,,,,,,,,,,,,,main,k,k,1,0.899006100022234,213.38120599999093,None,None,0,,,,,,,,,,,,,,006,2022-05-06_19h30.58.794,Main,2022.1.1,61.18778962190159,
negative,yellow,2,k,None,,,,,,,,,0,4,4,4,,,,,,,,,,,,,,,,,main,k,k,1,0.8157853999873623,215.28110419993754,None,None,0,,,,,,,,,,,,,,006,2022-05-06_19h30.58.794,Main,2022.1.1,61.18778962190159,
positive,yellow,2,None,k,,,,,,,,,0,5,5,5,,,,,,,,,,,,,,,,,main,None,None,1,1.499340599984862,217.09777079999913,None,None,1,,,,,,,,,,,,,,006,2022-05-06_19h30.58.794,Main,2022.1.1,61.18778962190159,
negative,blue,2,None,k,,,,,,,,,0,6,6,6,,,,,,,,,,,,,,,,,main,None,None,1,1.5004085000837222,219.60023260000162,None,None,1,,,,,,,,,,,,,,006,2022-05-06_19h30.58.794,Main,2022.1.1,61.18778962190159,
positive,red,2,None,None,,,,,,,,,0,7,7,7,,,,,,,,,,,,,,,,,main,None,None,1,1.4990643999772146,222.09766390000004,None,None,1,,,,,,,,,,,,,,006,2022-05-06_19h30.58.794,Main,2022.1.1,61.18778962190159,
positive,yellow,1,None,k,,,,,,,,,0,8,8,8,,,,,,,,,,,,,,,,,main,None,None,1,1.496933399932459,224.59765100001823,None,None,1,,,,,,,,,,,,,,006,2022-05-06_19h30.58.794,Main,2022.1.1,61.18778962190159,
negative,red,1,None,None,,,,,,,,,0,9,9,9,,,,,,,,,,,,,,,,,main,None,None,1,1.4987861000699922,227.09762440004852,None,None,1,,,,,,,,,,,,,,006,2022-05-06_19h30.58.794,Main,2022.1.1,61.18778962190159,
positive,yellow,1,None,k,,,,,,,,,0,10,10,10,,,,,,,,,,,,,,,,,main,None,None,1,1.4999385999981314,229.59753519995138,None,None,1,,,,,,,,,,,,,,006,2022-05-06_19h30.58.794,Main,2022.1.1,61.18778962190159,
negative,yellow,1,k,None,,,,,,,,,0,11,11,11,,,,,,,,,,,,,,,,,main,k,k,1,0.765560399973765,232.09741239994764,None,None,0,,,,,,,,,,,,,,006,2022-05-06_19h30.58.794,Main,2022.1.1,61.18778962190159,
negative,yellow,1,k,None,,,,,,,,,0,12,12,12,,,,,,,,,,,,,,,,,main,k,k,1,0.681429999996908,233.86407779995352,None,None,0,,,,,,,,,,,,,,006,2022-05-06_19h30.58.794,Main,2022.1.1,61.18778962190159,
negative,red,2,None,None,,,,,,,,,0,13,13,13,,,,,,,,,,,,,,,,,main,None,None,1,1.4993026000447571,235.54737159993965,None,None,1,,,,,,,,,,,,,,006,2022-05-06_19h30.58.794,Main,2022.1.1,61.18778962190159,
positive,yellow,2,None,k,,,,,,,,,0,14,14,14,,,,,,,,,,,,,,,,,main,None,None,1,1.501001900061965,238.0472876999993,None,None,1,,,,,,,,,,,,,,006,2022-05-06_19h30.58.794,Main,2022.1.1,61.18778962190159,
positive,blue,1,k,None,,,,,,,,,0,15,15,15,,,,,,,,,,,,,,,,,main,k,k,1,0.7303675999864936,240.54762500000652,None,None,0,,,,,,,,,,,,,,006,2022-05-06_19h30.58.794,Main,2022.1.1,61.18778962190159,
negative,blue,1,None,k,,,,,,,,,0,16,16,16,,,,,,,,,,,,,,,,,main,None,None,1,1.4983456999761984,242.28105460002553,None,None,1,,,,,,,,,,,,,,006,2022-05-06_19h30.58.794,Main,2022.1.1,61.18778962190159,
positive,blue,2,k,None,,,,,,,,,0,17,17,17,,,,,,,,,,,,,,,,,main,k,k,1,0.6497782999649644,244.78031039994676,None,None,0,,,,,,,,,,,,,,006,2022-05-06_19h30.58.794,Main,2022.1.1,61.18778962190159,
negative,blue,2,None,k,,,,,,,,,0,18,18,18,,,,,,,,,,,,,,,,,main,None,None,1,1.504537699976936,246.432984199957,None,None,1,,,,,,,,,,,,,,006,2022-05-06_19h30.58.794,Main,2022.1.1,61.18778962190159,
negative,blue,1,None,k,,,,,,,,,0,19,19,19,,,,,,,,,,,,,,,,,main,None,None,1,1.493215800030157,248.93462229997385,None,None,1,,,,,,,,,,,,,,006,2022-05-06_19h30.58.794,Main,2022.1.1,61.18778962190159,
negative,blue,1,None,k,,,,,,,,,0,20,20,20,,,,,,,,,,,,,,,,,main,None,None,1,1.4988257000222802,251.43060319998767,None,None,1,,,,,,,,,,,,,,006,2022-05-06_19h30.58.794,Main,2022.1.1,61.18778962190159,
negative,blue,2,None,k,,,,,,,,,0,21,21,21,,,,,,,,,,,,,,,,,main,None,None,1,1.4993411999894306,253.93031990004238,None,None,1,,,,,,,,,,,,,,006,2022-05-06_19h30.58.794,Main,2022.1.1,61.18778962190159,
negative,red,1,None,None,,,,,,,,,0,22,22,22,,,,,,,,,,,,,,,,,main,None,None,1,1.4989088999573141,256.4305399999721,None,None,1,,,,,,,,,,,,,,006,2022-05-06_19h30.58.794,Main,2022.1.1,61.18778962190159,
positive,red,2,None,None,,,,,,,,,0,23,23,23,,,,,,,,,,,,,,,,,main,None,None,1,1.4995070999721065,258.9302076000022,None,None,1,,,,,,,,,,,,,,006,2022-05-06_19h30.58.794,Main,2022.1.1,61.18778962190159,
negative,red,2,None,None,,,,,,,,,0,24,24,24,,,,,,,,,,,,,,,,,main,None,None,1,1.4985588999697939,261.4300175999524,None,None,1,,,,,,,,,,,,,,006,2022-05-06_19h30.58.794,Main,2022.1.1,61.18778962190159,
positive,blue,2,k,None,,,,,,,,,0,25,25,25,,,,,,,,,,,,,,,,,main,k,k,1,0.8992842000443488,263.92980949999765,None,None,0,,,,,,,,,,,,,,006,2022-05-06_19h30.58.794,Main,2022.1.1,61.18778962190159,
negative,yellow,1,k,None,,,,,,,,,0,26,26,26,,,,,,,,,,,,,,,,,main,k,k,1,1.315913000027649,265.8301640000427,None,None,0,,,,,,,,,,,,,,006,2022-05-06_19h30.58.794,Main,2022.1.1,61.18778962190159,
positive,blue,2,k,None,,,,,,,,,0,27,27,27,,,,,,,,,,,,,,,,,main,k,k,1,0.8152782999677584,268.146785799996,None,None,0,,,,,,,,,,,,,,006,2022-05-06_19h30.58.794,Main,2022.1.1,61.18778962190159,
negative,blue,2,None,k,,,,,,,,,0,28,28,28,,,,,,,,,,,,,,,,,main,None,None,1,1.5015986000653356,269.96301619999576,None,None,1,,,,,,,,,,,,,,006,2022-05-06_19h30.58.794,Main,2022.1.1,61.18778962190159,
positive,red,1,None,None,,,,,,,,,0,29,29,29,,,,,,,,,,,,,,,,,main,None,None,1,1.4966689000139013,272.4657929999521,None,None,1,,,,,,,,,,,,,,006,2022-05-06_19h30.58.794,Main,2022.1.1,61.18778962190159,
positive,blue,1,k,None,,,,,,,,,0,30,30,30,,,,,,,,,,,,,,,,,main,k,k,1,0.7661340000340715,274.9632090999512,None,None,0,,,,,,,,,,,,,,006,2022-05-06_19h30.58.794,Main,2022.1.1,61.18778962190159,
positive,yellow,1,None,k,,,,,,,,,0,31,31,31,,,,,,,,,,,,,,,,,main,None,None,1,1.499642499955371,276.7295498000458,None,None,1,,,,,,,,,,,,,,006,2022-05-06_19h30.58.794,Main,2022.1.1,61.18778962190159,
negative,yellow,2,k,None,,,,,,,,,0,32,32,32,,,,,,,,,,,,,,,,,main,k,k,1,0.7820129999890924,279.22956180002075,None,None,0,,,,,,,,,,,,,,006,2022-05-06_19h30.58.794,Main,2022.1.1,61.18778962190159,
negative,blue,1,None,k,,,,,,,,,0,33,33,33,,,,,,,,,,,,,,,,,main,None,None,1,1.498625300009735,281.01567220001016,None,None,1,,,,,,,,,,,,,,006,2022-05-06_19h30.58.794,Main,2022.1.1,61.18778962190159,
positive,blue,1,k,None,,,,,,,,,0,34,34,34,,,,,,,,,,,,,,,,,main,k,k,1,0.7660577000351623,283.5130429000128,None,None,0,,,,,,,,,,,,,,006,2022-05-06_19h30.58.794,Main,2022.1.1,61.18778962190159,
negative,yellow,1,k,None,,,,,,,,,0,35,35,35,,,,,,,,,,,,,,,,,main,k,k,1,0.7991597999352962,285.2795933999587,None,None,0,,,,,,,,,,,,,,006,2022-05-06_19h30.58.794,Main,2022.1.1,61.18778962190159,
positive,yellow,2,None,k,,,,,,,,,0,36,36,36,,,,,,,,,,,,,,,,,main,None,None,1,1.5011066999286413,287.07959810004104,None,None,1,,,,,,,,,,,,,,006,2022-05-06_19h30.58.794,Main,2022.1.1,61.18778962190159,
positive,yellow,2,None,k,,,,,,,,,0,37,37,37,,,,,,,,,,,,,,,,,main,None,None,1,1.4973764000460505,289.579576899996,None,None,1,,,,,,,,,,,,,,006,2022-05-06_19h30.58.794,Main,2022.1.1,61.18778962190159,
negative,yellow,2,k,None,,,,,,,,,0,38,38,38,,,,,,,,,,,,,,,,,main,k,k,1,0.7510758000425994,292.07926030003,None,None,0,,,,,,,,,,,,,,006,2022-05-06_19h30.58.794,Main,2022.1.1,61.18778962190159,
positive,yellow,1,None,k,,,,,,,,,0,39,39,39,,,,,,,,,,,,,,,,,main,None,None,1,1.4960652999579906,293.83195040002465,None,None,1,,,,,,,,,,,,,,006,2022-05-06_19h30.58.794,Main,2022.1.1,61.18778962190159,
negative,yellow,2,k,None,,,,,,,,,0,40,40,40,,,,,,,,,,,,,,,,,main,k,k,1,0.7663892999989912,296.32940139994025,None,None,0,,,,,,,,,,,,,,006,2022-05-06_19h30.58.794,Main,2022.1.1,61.18778962190159,
positive,blue,2,k,None,,,,,,,,,0,41,41,41,,,,,,,,,,,,,,,,,main,k,k,1,0.7654600999085233,298.09608639997896,None,None,0,,,,,,,,,,,,,,006,2022-05-06_19h30.58.794,Main,2022.1.1,61.18778962190159,
positive,blue,2,k,None,,,,,,,,,0,42,42,42,,,,,,,,,,,,,,,,,main,k,k,1,0.7329912999412045,299.8623718000017,None,None,0,,,,,,,,,,,,,,006,2022-05-06_19h30.58.794,Main,2022.1.1,61.18778962190159,
negative,blue,2,None,k,,,,,,,,,0,43,43,43,,,,,,,,,,,,,,,,,main,None,None,1,1.5009304999839514,301.5984607000137,None,None,1,,,,,,,,,,,,,,006,2022-05-06_19h30.58.794,Main,2022.1.1,61.18778962190159,
negative,red,1,None,None,,,,,,,,,0,44,44,44,,,,,,,,,,,,,,,,,main,None,None,1,1.4971688999794424,304.0983869000338,None,None,1,,,,,,,,,,,,,,006,2022-05-06_19h30.58.794,Main,2022.1.1,61.18778962190159,
negative,yellow,1,k,None,,,,,,,,,0,45,45,45,,,,,,,,,,,,,,,,,main,k,k,1,0.7821129000512883,306.59565949998796,None,None,0,,,,,,,,,,,,,,006,2022-05-06_19h30.58.794,Main,2022.1.1,61.18778962190159,
negative,yellow,1,k,None,,,,,,,,,0,46,46,46,,,,,,,,,,,,,,,,,main,k,k,1,0.699235099949874,308.3816504999995,None,None,0,,,,,,,,,,,,,,006,2022-05-06_19h30.58.794,Main,2022.1.1,61.18778962190159,
positive,red,1,None,None,,,,,,,,,0,47,47,47,,,,,,,,,,,,,,,,,main,None,None,1,1.4984058999689296,310.0816321000457,None,None,1,,,,,,,,,,,,,,006,2022-05-06_19h30.58.794,Main,2022.1.1,61.18778962190159,
positive,yellow,1,None,k,,,,,,,,,0,48,48,48,,,,,,,,,,,,,,,,,main,None,None,1,1.5019176000496373,312.57877999998163,None,None,1,,,,,,,,,,,,,,006,2022-05-06_19h30.58.794,Main,2022.1.1,61.18778962190159,
negative,blue,1,None,k,,,,,,,,,0,49,49,49,,,,,,,,,,,,,,,,,main,None,None,1,1.4964922000654042,315.08152510004584,None,None,1,,,,,,,,,,,,,,006,2022-05-06_19h30.58.794,Main,2022.1.1,61.18778962190159,
positive,yellow,2,None,k,,,,,,,,,0,50,50,50,,,,,,,,,,,,,,,,,main,None,None,1,1.4989485000260174,317.5789679000154,None,None,1,,,,,,,,,,,,,,006,2022-05-06_19h30.58.794,Main,2022.1.1,61.18778962190159,
negative,blue,1,None,k,,,,,,,,,0,51,51,51,,,,,,,,,,,,,,,,,main,None,None,1,1.499101399909705,320.0789555000374,None,None,1,,,,,,,,,,,,,,006,2022-05-06_19h30.58.794,Main,2022.1.1,61.18778962190159,
positive,red,2,None,None,,,,,,,,,0,52,52,52,,,,,,,,,,,,,,,,,main,None,None,1,1.4999286000384018,322.57884049997665,None,None,1,,,,,,,,,,,,,,006,2022-05-06_19h30.58.794,Main,2022.1.1,61.18778962190159,
positive,yellow,2,None,k,,,,,,,,,0,53,53,53,,,,,,,,,,,,,,,,,main,None,None,1,1.497986700036563,325.07870259997435,None,None,1,,,,,,,,,,,,,,006,2022-05-06_19h30.58.794,Main,2022.1.1,61.18778962190159,
negative,red,2,None,None,,,,,,,,,0,54,54,54,,,,,,,,,,,,,,,,,main,None,None,1,1.4988154000602663,327.5787095000269,None,None,1,,,,,,,,,,,,,,006,2022-05-06_19h30.58.794,Main,2022.1.1,61.18778962190159,
positive,yellow,1,None,k,,,,,,,,,0,55,55,55,,,,,,,,,,,,,,,,,main,None,None,1,1.4992101999232545,330.08458399993833,None,None,1,,,,,,,,,,,,,,006,2022-05-06_19h30.58.794,Main,2022.1.1,61.18778962190159,
negative,blue,2,None,k,,,,,,,,,0,56,56,56,,,,,,,,,,,,,,,,,main,None,None,1,1.4993637000443414,332.57861590001266,None,None,1,,,,,,,,,,,,,,006,2022-05-06_19h30.58.794,Main,2022.1.1,61.18778962190159,
positive,blue,1,k,None,,,,,,,,,0,57,57,57,,,,,,,,,,,,,,,,,main,k,k,1,1.0164773999713361,335.07858640002087,None,None,0,,,,,,,,,,,,,,006,2022-05-06_19h30.58.794,Main,2022.1.1,61.18778962190159,
positive,blue,1,k,None,,,,,,,,,0,58,58,58,,,,,,,,,,,,,,,,,main,k,k,1,0.8317967000184581,337.0948798999889,None,None,0,,,,,,,,,,,,,,006,2022-05-06_19h30.58.794,Main,2022.1.1,61.18778962190159,
negative,yellow,2,k,None,,,,,,,,,0,59,59,59,,,,,,,,,,,,,,,,,main,k,k,1,0.8489932999946177,338.93095019995235,None,None,0,,,,,,,,,,,,,,006,2022-05-06_19h30.58.794,Main,2022.1.1,61.18778962190159,
positive,red,2,None,None,,,,,,,,,0,60,60,60,,,,,,,,,,,,,,,,,main,None,None,1,1.4989203000441194,340.78097329998855,None,None,1,,,,,,,,,,,,,,006,2022-05-06_19h30.58.794,Main,2022.1.1,61.18778962190159,
negative,yellow,1,k,None,,,,,,,,,0,61,61,61,,,,,,,,,,,,,,,,,main,k,k,1,0.8493111999705434,343.27840469998773,None,None,0,,,,,,,,,,,,,,006,2022-05-06_19h30.58.794,Main,2022.1.1,61.18778962190159,
negative,red,1,None,None,,,,,,,,,0,62,62,62,,,,,,,,,,,,,,,,,main,None,None,1,1.5012680999934673,345.1283116999548,None,None,1,,,,,,,,,,,,,,006,2022-05-06_19h30.58.794,Main,2022.1.1,61.18778962190159,
negative,blue,1,None,k,,,,,,,,,0,63,63,63,,,,,,,,,,,,,,,,,main,None,None,1,1.497389500029385,347.62831800000276,None,None,1,,,,,,,,,,,,,,006,2022-05-06_19h30.58.794,Main,2022.1.1,61.18778962190159,
positive,blue,2,k,None,,,,,,,,,0,64,64,64,,,,,,,,,,,,,,,,,main,k,k,1,0.8985100999707356,350.1281732999487,None,None,0,,,,,,,,,,,,,,006,2022-05-06_19h30.58.794,Main,2022.1.1,61.18778962190159,
negative,yellow,2,k,None,,,,,,,,,0,65,65,65,,,,,,,,,,,,,,,,,main,k,k,1,0.832321900059469,352.02817539998796,None,None,0,,,,,,,,,,,,,,006,2022-05-06_19h30.58.794,Main,2022.1.1,61.18778962190159,
positive,yellow,2,None,k,,,,,,,,,0,66,66,66,,,,,,,,,,,,,,,,,main,None,None,1,1.49963239999488,353.8639669000404,None,None,1,,,,,,,,,,,,,,006,2022-05-06_19h30.58.794,Main,2022.1.1,61.18778962190159,
positive,yellow,2,None,k,,,,,,,,,0,67,67,67,,,,,,,,,,,,,,,,,main,None,None,1,1.4980682000750676,356.36136860004626,None,None,1,,,,,,,,,,,,,,006,2022-05-06_19h30.58.794,Main,2022.1.1,61.18778962190159,
positive,red,1,None,None,,,,,,,,,0,68,68,68,,,,,,,,,,,,,,,,,main,None,None,1,1.5000173000153154,358.86138459993526,None,None,1,,,,,,,,,,,,,,006,2022-05-06_19h30.58.794,Main,2022.1.1,61.18778962190159,
positive,yellow,1,None,k,,,,,,,,,0,69,69,69,,,,,,,,,,,,,,,,,main,None,None,1,1.498879799968563,361.36131479998585,None,None,1,,,,,,,,,,,,,,006,2022-05-06_19h30.58.794,Main,2022.1.1,61.18778962190159,
negative,yellow,2,k,None,,,,,,,,,0,70,70,70,,,,,,,,,,,,,,,,,main,k,k,1,0.731993299908936,363.86132929997984,None,None,0,,,,,,,,,,,,,,006,2022-05-06_19h30.58.794,Main,2022.1.1,61.18778962190159,
positive,yellow,1,None,k,,,,,,,,,0,71,71,71,,,,,,,,,,,,,,,,,main,None,None,1,1.4983396999305114,365.59459280001465,None,None,1,,,,,,,,,,,,,,006,2022-05-06_19h30.58.794,Main,2022.1.1,61.18778962190159,
negative,blue,1,None,k,,,,,,,,,0,72,72,72,,,,,,,,,,,,,,,,,main,None,None,1,1.4992926000850275,368.0945414999733,None,None,1,,,,,,,,,,,,,,006,2022-05-06_19h30.58.794,Main,2022.1.1,61.18778962190159,
negative,red,2,None,None,,,,,,,,,0,73,73,73,,,,,,,,,,,,,,,,,main,None,None,1,1.4997966999653727,370.5944897000445,None,None,1,,,,,,,,,,,,,,006,2022-05-06_19h30.58.794,Main,2022.1.1,61.18778962190159,
positive,blue,2,k,None,,,,,,,,,0,74,74,74,,,,,,,,,,,,,,,,,main,k,k,1,0.8315295999636874,373.0943758999929,None,None,0,,,,,,,,,,,,,,006,2022-05-06_19h30.58.794,Main,2022.1.1,61.18778962190159,
negative,blue,2,None,k,,,,,,,,,0,75,75,75,,,,,,,,,,,,,,,,,main,None,None,1,1.5057393999304622,374.92771089996677,None,None,1,,,,,,,,,,,,,,006,2022-05-06_19h30.58.794,Main,2022.1.1,61.18778962190159,
negative,blue,2,None,k,,,,,,,,,0,76,76,76,,,,,,,,,,,,,,,,,main,None,None,1,1.4920268000569195,377.43383550003637,None,None,1,,,,,,,,,,,,,,006,2022-05-06_19h30.58.794,Main,2022.1.1,61.18778962190159,
negative,yellow,1,k,None,,,,,,,,,0,77,77,77,,,,,,,,,,,,,,,,,main,k,k,1,0.7165606999769807,379.92758549994323,None,None,0,,,,,,,,,,,,,,006,2022-05-06_19h30.58.794,Main,2022.1.1,61.18778962190159,
positive,blue,1,k,None,,,,,,,,,0,78,78,78,,,,,,,,,,,,,,,,,main,k,k,1,0.881874299957417,381.6466360000195,None,None,0,,,,,,,,,,,,,,006,2022-05-06_19h30.58.794,Main,2022.1.1,61.18778962190159,
positive,blue,1,k,None,,,,,,,,,0,79,79,79,,,,,,,,,,,,,,,,,main,k,k,1,0.6489505999488756,383.5274612000212,None,None,0,,,,,,,,,,,,,,006,2022-05-06_19h30.58.794,Main,2022.1.1,61.18778962190159,
positive,red,2,None,None,,,,,,,,,0,80,80,80,,,,,,,,,,,,,,,,,main,None,None,1,1.501466599991545,385.1774505999638,None,None,1,,,,,,,,,,,,,,006,2022-05-06_19h30.58.794,Main,2022.1.1,61.18778962190159,
positive,yellow,2,None,k,,,,,,,,,0,81,81,81,,,,,,,,,,,,,,,,,main,None,None,1,1.496658300049603,387.6774594000308,None,None,1,,,,,,,,,,,,,,006,2022-05-06_19h30.58.794,Main,2022.1.1,61.18778962190159,
positive,blue,1,k,None,,,,,,,,,0,82,82,82,,,,,,,,,,,,,,,,,main,k,k,1,0.8659092000452802,390.1777667000424,None,None,0,,,,,,,,,,,,,,006,2022-05-06_19h30.58.794,Main,2022.1.1,61.18778962190159,
negative,yellow,2,k,None,,,,,,,,,0,83,83,83,,,,,,,,,,,,,,,,,main,k,k,1,0.7826098999939859,392.04401830001734,None,None,0,,,,,,,,,,,,,,006,2022-05-06_19h30.58.794,Main,2022.1.1,61.18778962190159,
positive,blue,2,k,None,,,,,,,,,0,84,84,84,,,,,,,,,,,,,,,,,main,k,k,1,0.7321181000443175,393.8273554999614,None,None,0,,,,,,,,,,,,,,006,2022-05-06_19h30.58.794,Main,2022.1.1,61.18778962190159,
positive,yellow,1,None,k,,,,,,,,,0,85,85,85,,,,,,,,,,,,,,,,,main,None,None,1,1.5015254999743775,395.56032579997554,None,None,1,,,,,,,,,,,,,,006,2022-05-06_19h30.58.794,Main,2022.1.1,61.18778962190159,
positive,blue,2,k,None,,,,,,,,,0,86,86,86,,,,,,,,,,,,,,,,,main,k,k,1,0.8638375999871641,398.06064249994233,None,None,0,,,,,,,,,,,,,,006,2022-05-06_19h30.58.794,Main,2022.1.1,61.18778962190159,
positive,blue,1,k,None,,,,,,,,,0,87,87,87,,,,,,,,,,,,,,,,,main,k,k,1,0.7821847000159323,399.929714399972,None,None,0,,,,,,,,,,,,,,006,2022-05-06_19h30.58.794,Main,2022.1.1,61.18778962190159,
negative,yellow,2,k,None,,,,,,,,,0,88,88,88,,,,,,,,,,,,,,,,,main,k,k,1,1.3489464999875054,401.71050319995265,None,None,0,,,,,,,,,,,,,,006,2022-05-06_19h30.58.794,Main,2022.1.1,61.18778962190159,
negative,blue,2,None,k,,,,,,,,,0,89,89,89,,,,,,,,,,,,,,,,,main,None,None,1,1.4996227000374347,404.0603683999507,None,None,1,,,,,,,,,,,,,,006,2022-05-06_19h30.58.794,Main,2022.1.1,61.18778962190159,
positive,yellow,2,None,k,,,,,,,,,0,90,90,90,,,,,,,,,,,,,,,,,main,None,None,1,1.498749899910763,406.5604159999639,None,None,1,,,,,,,,,,,,,,006,2022-05-06_19h30.58.794,Main,2022.1.1,61.18778962190159,
negative,yellow,1,k,None,,,,,,,,,0,91,91,91,,,,,,,,,,,,,,,,,main,k,k,1,1.565190099994652,409.0603056999389,None,None,0,,,,,,,,,,,,,,006,2022-05-06_19h30.58.794,Main,2022.1.1,61.18778962190159,
negative,red,2,None,None,,,,,,,,,0,92,92,92,,,,,,,,,,,,,,,,,main,None,None,1,1.4989063000539318,412.62934420001693,None,None,1,,,,,,,,,,,,,,006,2022-05-06_19h30.58.794,Main,2022.1.1,61.18778962190159,
negative,blue,2,None,k,,,,,,,,,0,93,93,93,,,,,,,,,,,,,,,,,main,None,None,1,1.5004386000800878,415.12653819995467,None,None,1,,,,,,,,,,,,,,006,2022-05-06_19h30.58.794,Main,2022.1.1,61.18778962190159,
negative,blue,1,None,k,,,,,,,,,0,94,94,94,,,,,,,,,,,,,,,,,main,None,None,1,1.499054400017485,417.6293601000216,None,None,1,,,,,,,,,,,,,,006,2022-05-06_19h30.58.794,Main,2022.1.1,61.18778962190159,
negative,blue,1,None,k,,,,,,,,,0,95,95,95,,,,,,,,,,,,,,,,,main,None,None,1,1.4967377000721171,420.12723290000577,None,None,1,,,,,,,,,,,,,,006,2022-05-06_19h30.58.794,Main,2022.1.1,61.18778962190159,
negative,red,1,None,None,,,,,,,,,0,96,96,96,,,,,,,,,,,,,,,,,main,None,None,1,1.4991824000608176,422.6266446999507,None,None,1,,,,,,,,,,,,,,006,2022-05-06_19h30.58.794,Main,2022.1.1,61.18778962190159,
positive,yellow,1,None,k,,,,,,,,,0,97,97,97,,,,,,,,,,,,,,,,,main,None,None,1,1.4990333000896499,425.1266505999956,None,None,1,,,,,,,,,,,,,,006,2022-05-06_19h30.58.794,Main,2022.1.1,61.18778962190159,
negative,yellow,1,k,None,,,,,,,,,0,98,98,98,,,,,,,,,,,,,,,,,main,k,k,1,0.7162533999653533,427.62652399996296,None,None,0,,,,,,,,,,,,,,006,2022-05-06_19h30.58.794,Main,2022.1.1,61.18778962190159,
positive,red,1,None,None,,,,,,,,,0,99,99,99,,,,,,,,,,,,,,,,,main,None,None,1,1.4985552999423817,429.3435740999412,None,None,1,,,,,,,,,,,,,,006,2022-05-06_19h30.58.794,Main,2022.1.1,61.18778962190159,
positive,blue,1,k,None,,,,,,,,,0,100,100,100,,,,,,,,,,,,,,,,,main,k,k,1,0.7160774999065325,431.8431904000463,None,None,0,,,,,,,,,,,,,,006,2022-05-06_19h30.58.794,Main,2022.1.1,61.18778962190159,
negative,yellow,1,k,None,,,,,,,,,0,101,101,101,,,,,,,,,,,,,,,,,main,k,k,1,0.7490607999498025,433.5597392000491,None,None,0,,,,,,,,,,,,,,006,2022-05-06_19h30.58.794,Main,2022.1.1,61.18778962190159,
negative,blue,2,None,k,,,,,,,,,0,102,102,102,,,,,,,,,,,,,,,,,main,None,None,1,1.4988736000377685,435.3095911999699,None,None,1,,,,,,,,,,,,,,006,2022-05-06_19h30.58.794,Main,2022.1.1,61.18778962190159,
negative,yellow,2,k,None,,,,,,,,,0,103,103,103,,,,,,,,,,,,,,,,,main,k,k,1,0.8490819999715313,437.80940959998406,None,None,0,,,,,,,,,,,,,,006,2022-05-06_19h30.58.794,Main,2022.1.1,61.18778962190159,
positive,yellow,2,None,k,,,,,,,,,0,104,104,104,,,,,,,,,,,,,,,,,main,None,None,1,1.5014427999267355,439.6594367000507,None,None,1,,,,,,,,,,,,,,006,2022-05-06_19h30.58.794,Main,2022.1.1,61.18778962190159,
positive,blue,1,k,None,,,,,,,,,0,105,105,105,,,,,,,,,,,,,,,,,main,k,k,1,0.7858026999747381,442.16208929999266,None,None,0,,,,,,,,,,,,,,006,2022-05-06_19h30.58.794,Main,2022.1.1,61.18778962190159,
positive,blue,2,k,None,,,,,,,,,0,106,106,106,,,,,,,,,,,,,,,,,main,k,k,1,0.6605716000776738,443.9520387999946,None,None,0,,,,,,,,,,,,,,006,2022-05-06_19h30.58.794,Main,2022.1.1,61.18778962190159,
negative,blue,1,None,k,,,,,,,,,0,107,107,107,,,,,,,,,,,,,,,,,main,None,None,1,1.4985715999500826,445.6095664999448,None,None,1,,,,,,,,,,,,,,006,2022-05-06_19h30.58.794,Main,2022.1.1,61.18778962190159,
positive,yellow,2,None,k,,,,,,,,,0,108,108,108,,,,,,,,,,,,,,,,,main,None,None,1,1.4995467000408098,448.10921989998315,None,None,1,,,,,,,,,,,,,,006,2022-05-06_19h30.58.794,Main,2022.1.1,61.18778962190159,
negative,yellow,1,k,None,,,,,,,,,0,109,109,109,,,,,,,,,,,,,,,,,main,k,k,1,0.8170644999481738,450.61184959998354,None,None,0,,,,,,,,,,,,,,006,2022-05-06_19h30.58.794,Main,2022.1.1,61.18778962190159,
negative,blue,2,None,k,,,,,,,,,0,110,110,110,,,,,,,,,,,,,,,,,main,None,None,1,1.4948249999433756,452.4333391999826,None,None,1,,,,,,,,,,,,,,006,2022-05-06_19h30.58.794,Main,2022.1.1,61.18778962190159,
positive,blue,2,k,None,,,,,,,,,0,111,111,111,,,,,,,,,,,,,,,,,main,k,k,1,0.7815263000084087,454.9257115999935,None,None,0,,,,,,,,,,,,,,006,2022-05-06_19h30.58.794,Main,2022.1.1,61.18778962190159,
negative,blue,1,None,k,,,,,,,,,0,112,112,112,,,,,,,,,,,,,,,,,main,None,None,1,1.4994640999939293,456.7090536999749,None,None,1,,,,,,,,,,,,,,006,2022-05-06_19h30.58.794,Main,2022.1.1,61.18778962190159,
positive,yellow,1,None,k,,,,,,,,,0,113,113,113,,,,,,,,,,,,,,,,,main,None,None,1,1.5012198999756947,459.2117749999743,None,None,1,,,,,,,,,,,,,,006,2022-05-06_19h30.58.794,Main,2022.1.1,61.18778962190159,
negative,red,1,None,None,,,,,,,,,0,114,114,114,,,,,,,,,,,,,,,,,main,None,None,1,1.4969086000928655,461.7095695999451,None,None,1,,,,,,,,,,,,,,006,2022-05-06_19h30.58.794,Main,2022.1.1,61.18778962190159,
positive,red,1,None,None,,,,,,,,,0,115,115,115,,,,,,,,,,,,,,,,,main,None,None,1,1.5023437000345439,464.209068999975,None,None,1,,,,,,,,,,,,,,006,2022-05-06_19h30.58.794,Main,2022.1.1,61.18778962190159,
negative,red,2,None,None,,,,,,,,,0,116,116,116,,,,,,,,,,,,,,,,,main,None,None,1,1.4950485000154004,466.7091121999547,None,None,1,,,,,,,,,,,,,,006,2022-05-06_19h30.58.794,Main,2022.1.1,61.18778962190159,
negative,yellow,2,k,None,,,,,,,,,0,117,117,117,,,,,,,,,,,,,,,,,main,k,k,1,0.8328709000488743,469.2089475999819,None,None,0,,,,,,,,,,,,,,006,2022-05-06_19h30.58.794,Main,2022.1.1,61.18778962190159,
positive,yellow,1,None,k,,,,,,,,,0,118,118,118,,,,,,,,,,,,,,,,,main,None,None,1,1.501037499983795,471.0422879999969,None,None,1,,,,,,,,,,,,,,006,2022-05-06_19h30.58.794,Main,2022.1.1,61.18778962190159,
positive,red,2,None,None,,,,,,,,,0,119,119,119,,,,,,,,,,,,,,,,,main,None,None,1,1.497238599928096,473.54228119994514,None,None,1,,,,,,,,,,,,,,006,2022-05-06_19h30.58.794,Main,2022.1.1,61.18778962190159,
positive,blue,2,k,None,,,,,,,,,0,120,120,120,,,,,,,,,,,,,,,,,main,k,k,1,0.748994099907577,476.041917799972,None,None,0,,,,,,,,,,,,,,006,2022-05-06_19h30.58.794,Main,2022.1.1,61.18778962190159,
negative,red,1,None,None,,,,,,,,,0,121,121,121,,,,,,,,,,,,,,,,,main,None,None,1,1.4987498000264168,477.7946640000446,None,None,1,,,,,,,,,,,,,,006,2022-05-06_19h30.58.794,Main,2022.1.1,61.18778962190159,
positive,yellow,2,None,k,,,,,,,,,0,122,122,122,,,,,,,,,,,,,,,,,main,None,None,1,1.4984397001098841,480.2950812999625,None,None,1,,,,,,,,,,,,,,006,2022-05-06_19h30.58.794,Main,2022.1.1,61.18778962190159,
negative,red,2,None,None,,,,,,,,,0,123,123,123,,,,,,,,,,,,,,,,,main,None,None,1,1.501873799948953,482.7918259999715,None,None,1,,,,,,,,,,,,,,006,2022-05-06_19h30.58.794,Main,2022.1.1,61.18778962190159,
negative,yellow,2,k,None,,,,,,,,,0,124,124,124,,,,,,,,,,,,,,,,,main,k,k,1,0.7301559000043198,485.2920838999562,None,None,0,,,,,,,,,,,,,,006,2022-05-06_19h30.58.794,Main,2022.1.1,61.18778962190159,
positive,red,1,None,None,,,,,,,,,0,125,125,125,,,,,,,,,,,,,,,,,main,None,None,1,1.4994129000697285,487.0278036999516,None,None,1,,,,,,,,,,,,,,006,2022-05-06_19h30.58.794,Main,2022.1.1,61.18778962190159,
negative,blue,2,None,k,,,,,,,,,0,126,126,126,,,,,,,,,,,,,,,,,main,None,None,1,1.5007129000732675,489.5249883000506,None,None,1,,,,,,,,,,,,,,006,2022-05-06_19h30.58.794,Main,2022.1.1,61.18778962190159,
negative,blue,1,None,k,,,,,,,,,0,127,127,127,,,,,,,,,,,,,,,,,main,None,None,1,1.4999960999703035,492.027715299977,None,None,1,,,,,,,,,,,,,,006,2022-05-06_19h30.58.794,Main,2022.1.1,61.18778962190159,
negative,yellow,1,k,None,,,,,,,,,0,128,128,128,,,,,,,,,,,,,,,,,main,k,k,1,0.7127820999594405,494.52510019997135,None,None,0,,,,,,,,,,,,,,006,2022-05-06_19h30.58.794,Main,2022.1.1,61.18778962190159,
negative,yellow,1,k,None,,,,,,,,,0,129,129,129,,,,,,,,,,,,,,,,,main,k,k,1,0.63208939996548,496.24178319994826,None,None,0,,,,,,,,,,,,,,006,2022-05-06_19h30.58.794,Main,2022.1.1,61.18778962190159,
positive,blue,1,k,None,,,,,,,,,0,130,130,130,,,,,,,,,,,,,,,,,main,k,k,1,0.5827797999372706,497.8747627999401,None,None,0,,,,,,,,,,,,,,006,2022-05-06_19h30.58.794,Main,2022.1.1,61.18778962190159,
negative,blue,1,None,k,,,,,,,,,0,131,131,131,,,,,,,,,,,,,,,,,main,None,None,1,1.5013652000343427,499.4608751999913,None,None,1,,,,,,,,,,,,,,006,2022-05-06_19h30.58.794,Main,2022.1.1,61.18778962190159,
negative,blue,2,None,k,,,,,,,,,0,132,132,132,,,,,,,,,,,,,,,,,main,None,None,1,1.4965549000771716,501.96088200004306,None,None,1,,,,,,,,,,,,,,006,2022-05-06_19h30.58.794,Main,2022.1.1,61.18778962190159,
positive,blue,2,k,None,,,,,,,,,0,133,133,133,,,,,,,,,,,,,,,,,main,k,k,1,0.8825480000814423,504.46061579999514,None,None,0,,,,,,,,,,,,,,006,2022-05-06_19h30.58.794,Main,2022.1.1,61.18778962190159,
positive,red,2,None,None,,,,,,,,,0,134,134,134,,,,,,,,,,,,,,,,,main,None,None,1,1.5013529999414459,506.34149819996674,None,None,1,,,,,,,,,,,,,,006,2022-05-06_19h30.58.794,Main,2022.1.1,61.18778962190159,
negative,yellow,2,k,None,,,,,,,,,0,135,135,135,,,,,,,,,,,,,,,,,main,k,k,1,0.7138641000492498,508.8414626000449,None,None,0,,,,,,,,,,,,,,006,2022-05-06_19h30.58.794,Main,2022.1.1,61.18778962190159,
positive,yellow,2,None,k,,,,,,,,,0,136,136,136,,,,,,,,,,,,,,,,,main,None,None,1,1.498730399995111,510.5580744999461,None,None,1,,,,,,,,,,,,,,006,2022-05-06_19h30.58.794,Main,2022.1.1,61.18778962190159,
positive,blue,1,k,None,,,,,,,,,0,137,137,137,,,,,,,,,,,,,,,,,main,k,k,1,0.6492609999841079,513.0580883000512,None,None,0,,,,,,,,,,,,,,006,2022-05-06_19h30.58.794,Main,2022.1.1,61.18778962190159,
positive,yellow,1,None,k,,,,,,,,,0,138,138,138,,,,,,,,,,,,,,,,,main,None,None,1,1.4988678999943659,514.7080241000513,None,None,1,,,,,,,,,,,,,,006,2022-05-06_19h30.58.794,Main,2022.1.1,61.18778962190159,
positive,yellow,1,None,k,,,,,,,,,0,139,139,139,,,,,,,,,,,,,,,,,main,None,None,1,1.5000345000298694,517.2079215999693,None,None,1,,,,,,,,,,,,,,006,2022-05-06_19h30.58.794,Main,2022.1.1,61.18778962190159,
positive,yellow,1,None,k,,,,,,,,,0,140,140,140,,,,,,,,,,,,,,,,,main,None,None,1,1.4984384999843314,519.707940399996,None,None,1,,,,,,,,,,,,,,006,2022-05-06_19h30.58.794,Main,2022.1.1,61.18778962190159,
positive,blue,1,k,None,,,,,,,,,0,141,141,141,,,,,,,,,,,,,,,,,main,k,k,1,0.7150853999191895,522.2078699000413,None,None,0,,,,,,,,,,,,,,006,2022-05-06_19h30.58.794,Main,2022.1.1,61.18778962190159,
positive,blue,2,k,None,,,,,,,,,0,142,142,142,,,,,,,,,,,,,,,,,main,k,k,1,0.6990762000204995,523.924497299944,None,None,0,,,,,,,,,,,,,,006,2022-05-06_19h30.58.794,Main,2022.1.1,61.18778962190159,
positive,yellow,2,None,k,,,,,,,,,0,143,143,143,,,,,,,,,,,,,,,,,main,None,None,1,1.498491600039415,525.6248385999352,None,None,1,,,,,,,,,,,,,,006,2022-05-06_19h30.58.794,Main,2022.1.1,61.18778962190159,
negative,yellow,2,k,None,,,,,,,,,0,144,144,144,,,,,,,,,,,,,,,,,main,k,k,1,0.6833042000653222,528.1241105999798,None,None,0,,,,,,,,,,,,,,006,2022-05-06_19h30.58.794,Main,2022.1.1,61.18778962190159,
negative,blue,2,None,k,,,,,,,,,0,145,145,145,,,,,,,,,,,,,,,,,main,None,None,1,1.5011522999266163,529.810221199994,None,None,1,,,,,,,,,,,,,,006,2022-05-06_19h30.58.794,Main,2022.1.1,61.18778962190159,
negative,red,1,None,None,,,,,,,,,0,146,146,146,,,,,,,,,,,,,,,,,main,None,None,1,1.497119199950248,532.3102368999971,None,None,1,,,,,,,,,,,,,,006,2022-05-06_19h30.58.794,Main,2022.1.1,61.18778962190159,
positive,blue,1,k,None,,,,,,,,,0,147,147,147,,,,,,,,,,,,,,,,,main,k,k,1,0.9488282001111656,534.8073937000008,None,None,0,,,,,,,,,,,,,,006,2022-05-06_19h30.58.794,Main,2022.1.1,61.18778962190159,
positive,yellow,1,None,k,,,,,,,,,0,148,148,148,,,,,,,,,,,,,,,,,main,None,None,1,1.5009994000429288,536.760014200001,None,None,1,,,,,,,,,,,,,,006,2022-05-06_19h30.58.794,Main,2022.1.1,61.18778962190159,
negative,red,2,None,None,,,,,,,,,0,149,149,149,,,,,,,,,,,,,,,,,main,None,None,1,1.4972527000354603,539.2599798999727,None,None,1,,,,,,,,,,,,,,006,2022-05-06_19h30.58.794,Main,2022.1.1,61.18778962190159,
negative,blue,1,None,k,,,,,,,,,0,150,150,150,,,,,,,,,,,,,,,,,main,None,None,1,1.5007078999187797,541.7572019000072,None,None,1,,,,,,,,,,,,,,006,2022-05-06_19h30.58.794,Main,2022.1.1,61.18778962190159,
negative,yellow,2,k,None,,,,,,,,,0,151,151,151,,,,,,,,,,,,,,,,,main,k,k,1,0.6969309999840334,544.2598021000158,None,None,0,,,,,,,,,,,,,,006,2022-05-06_19h30.58.794,Main,2022.1.1,61.18778962190159,
negative,blue,2,None,k,,,,,,,,,0,152,152,152,,,,,,,,,,,,,,,,,main,None,None,1,1.499574700021185,545.9573827999411,None,None,1,,,,,,,,,,,,,,006,2022-05-06_19h30.58.794,Main,2022.1.1,61.18778962190159,
negative,yellow,1,k,None,,,,,,,,,0,153,153,153,,,,,,,,,,,,,,,,,main,k,k,1,0.9659553000237793,548.4572665999876,None,None,0,,,,,,,,,,,,,,006,2022-05-06_19h30.58.794,Main,2022.1.1,61.18778962190159,
negative,blue,1,None,k,,,,,,,,,0,154,154,154,,,,,,,,,,,,,,,,,main,None,None,1,1.497692000004463,550.423886399949,None,None,1,,,,,,,,,,,,,,006,2022-05-06_19h30.58.794,Main,2022.1.1,61.18778962190159,
positive,yellow,2,None,k,,,,,,,,,0,155,155,155,,,,,,,,,,,,,,,,,main,None,None,1,1.4995757000287995,552.9239324999508,None,None,1,,,,,,,,,,,,,,006,2022-05-06_19h30.58.794,Main,2022.1.1,61.18778962190159,
positive,red,2,None,None,,,,,,,,,0,156,156,156,,,,,,,,,,,,,,,,,main,None,None,1,1.5007638001115993,555.4235073999735,None,None,1,,,,,,,,,,,,,,006,2022-05-06_19h30.58.794,Main,2022.1.1,61.18778962190159,
positive,red,1,None,None,,,,,,,,,0,157,157,157,,,,,,,,,,,,,,,,,main,None,None,1,1.4965601000003517,557.9262684000423,None,None,1,,,,,,,,,,,,,,006,2022-05-06_19h30.58.794,Main,2022.1.1,61.18778962190159,
positive,blue,2,k,None,,,,,,,,,0,158,158,158,,,,,,,,,,,,,,,,,main,k,k,1,0.6549586000619456,560.4240199000342,None,None,0,,,,,,,,,,,,,,006,2022-05-06_19h30.58.794,Main,2022.1.1,61.18778962190159,
negative,yellow,1,k,None,,,,,,,,,0,159,159,159,,,,,,,,,,,,,,,,,main,k,k,1,0.6765507999807596,562.0830141999759,None,None,0,,,,,,,,,,,,,,006,2022-05-06_19h30.58.794,Main,2022.1.1,61.18778962190159,
negative,red,2,None,None,,,,,,,,,0,160,160,160,,,,,,,,,,,,,,,,,main,None,None,1,1.50120090006385,563.7569192999508,None,None,1,,,,,,,,,,,,,,006,2022-05-06_19h30.58.794,Main,2022.1.1,61.18778962190159,
negative,blue,1,None,k,,,,,,,,,0,161,161,161,,,,,,,,,,,,,,,,,main,None,None,1,1.4975052000954747,566.2569337999448,None,None,1,,,,,,,,,,,,,,006,2022-05-06_19h30.58.794,Main,2022.1.1,61.18778962190159,
negative,blue,1,None,k,,,,,,,,,0,162,162,162,,,,,,,,,,,,,,,,,main,None,None,1,1.4980122999986634,568.7567867999896,None,None,1,,,,,,,,,,,,,,006,2022-05-06_19h30.58.794,Main,2022.1.1,61.18778962190159,
negative,yellow,1,k,None,,,,,,,,,0,163,163,163,,,,,,,,,,,,,,,,,main,k,k,1,0.8327851999783888,571.2568192000035,None,None,0,,,,,,,,,,,,,,006,2022-05-06_19h30.58.794,Main,2022.1.1,61.18778962190159,
negative,yellow,1,k,None,,,,,,,,,0,164,164,164,,,,,,,,,,,,,,,,,main,k,k,1,0.7652926999144256,573.0900186999934,None,None,0,,,,,,,,,,,,,,006,2022-05-06_19h30.58.794,Main,2022.1.1,61.18778962190159,
positive,yellow,1,None,k,,,,,,,,,0,165,165,165,,,,,,,,,,,,,,,,,main,None,None,1,1.4988065999932587,574.8565577999689,None,None,1,,,,,,,,,,,,,,006,2022-05-06_19h30.58.794,Main,2022.1.1,61.18778962190159,
negative,red,1,None,None,,,,,,,,,0,166,166,166,,,,,,,,,,,,,,,,,main,None,None,1,1.4990810999879614,577.3566933999537,None,None,1,,,,,,,,,,,,,,006,2022-05-06_19h30.58.794,Main,2022.1.1,61.18778962190159,
negative,yellow,2,k,None,,,,,,,,,0,167,167,167,,,,,,,,,,,,,,,,,main,k,k,1,0.7659855999518186,579.8565596999833,None,None,0,,,,,,,,,,,,,,006,2022-05-06_19h30.58.794,Main,2022.1.1,61.18778962190159,
positive,blue,2,k,None,,,,,,,,,0,168,168,168,,,,,,,,,,,,,,,,,main,k,k,1,0.8158122000750154,581.6232350999489,None,None,0,,,,,,,,,,,,,,006,2022-05-06_19h30.58.794,Main,2022.1.1,61.18778962190159,
positive,red,2,None,None,,,,,,,,,0,169,169,169,,,,,,,,,,,,,,,,,main,None,None,1,1.4988350999774411,583.4399502000306,None,None,1,,,,,,,,,,,,,,006,2022-05-06_19h30.58.794,Main,2022.1.1,61.18778962190159,
positive,red,1,None,None,,,,,,,,,0,170,170,170,,,,,,,,,,,,,,,,,main,None,None,1,1.5015752000035718,585.9399053000379,None,None,1,,,,,,,,,,,,,,006,2022-05-06_19h30.58.794,Main,2022.1.1,61.18778962190159,
negative,blue,2,None,k,,,,,,,,,0,171,171,171,,,,,,,,,,,,,,,,,main,None,None,1,1.4964579000370577,588.4422010999406,None,None,1,,,,,,,,,,,,,,006,2022-05-06_19h30.58.794,Main,2022.1.1,61.18778962190159,
positive,blue,2,k,None,,,,,,,,,0,172,172,172,,,,,,,,,,,,,,,,,main,k,k,1,0.78254799998831,590.9397199000232,None,None,0,,,,,,,,,,,,,,006,2022-05-06_19h30.58.794,Main,2022.1.1,61.18778962190159,
negative,yellow,2,k,None,,,,,,,,,0,173,173,173,,,,,,,,,,,,,,,,,main,k,k,1,0.6327960999915376,592.7229652999667,None,None,0,,,,,,,,,,,,,,006,2022-05-06_19h30.58.794,Main,2022.1.1,61.18778962190159,
positive,yellow,2,None,k,,,,,,,,,0,174,174,174,,,,,,,,,,,,,,,,,main,None,None,1,1.4991802000440657,594.3563345000148,None,None,1,,,,,,,,,,,,,,006,2022-05-06_19h30.58.794,Main,2022.1.1,61.18778962190159,
negative,blue,2,None,k,,,,,,,,,0,175,175,175,,,,,,,,,,,,,,,,,main,None,None,1,1.498467699973844,596.8586950999452,None,None,1,,,,,,,,,,,,,,006,2022-05-06_19h30.58.794,Main,2022.1.1,61.18778962190159,
positive,blue,1,k,None,,,,,,,,,0,176,176,176,,,,,,,,,,,,,,,,,main,k,k,1,0.9328046999871731,599.3561619999819,None,None,0,,,,,,,,,,,,,,006,2022-05-06_19h30.58.794,Main,2022.1.1,61.18778962190159,
positive,yellow,1,None,k,,,,,,,,,0,177,177,177,,,,,,,,,,,,,,,,,main,None,None,1,1.4986234999960288,601.2893371999962,None,None,1,,,,,,,,,,,,,,006,2022-05-06_19h30.58.794,Main,2022.1.1,61.18778962190159,
positive,blue,1,k,None,,,,,,,,,0,178,178,178,,,,,,,,,,,,,,,,,main,k,k,1,0.7829071999294683,603.7893732000375,None,None,0,,,,,,,,,,,,,,006,2022-05-06_19h30.58.794,Main,2022.1.1,61.18778962190159,
positive,yellow,2,None,k,,,,,,,,,0,179,179,179,,,,,,,,,,,,,,,,,main,None,None,1,1.5027168999658898,605.5727419999894,None,None,1,,,,,,,,,,,,,,006,2022-05-06_19h30.58.794,Main,2022.1.1,61.18778962190159,
positive,blue,1,k,None,,,,,,,,,0,180,180,180,,,,,,,,,,,,,,,,,main,k,k,1,0.7782132000429556,608.0727253999794,None,None,0,,,,,,,,,,,,,,006,2022-05-06_19h30.58.794,Main,2022.1.1,61.18778962190159,
negative,red,1,None,None,,,,,,,,,0,181,181,181,,,,,,,,,,,,,,,,,main,None,None,1,1.5016334000974894,609.8556873999769,None,None,1,,,,,,,,,,,,,,006,2022-05-06_19h30.58.794,Main,2022.1.1,61.18778962190159,
negative,blue,1,None,k,,,,,,,,,0,182,182,182,,,,,,,,,,,,,,,,,main,None,None,1,1.4990693000145257,612.3584580000024,None,None,1,,,,,,,,,,,,,,006,2022-05-06_19h30.58.794,Main,2022.1.1,61.18778962190159,
negative,yellow,2,k,None,,,,,,,,,0,183,183,183,,,,,,,,,,,,,,,,,main,k,k,1,0.6636145999655128,614.8584139000159,None,None,0,,,,,,,,,,,,,,006,2022-05-06_19h30.58.794,Main,2022.1.1,61.18778962190159,
positive,yellow,2,None,k,,,,,,,,,0,184,184,184,,,,,,,,,,,,,,,,,main,None,None,1,1.4989201000425965,616.5225027999841,None,None,1,,,,,,,,,,,,,,006,2022-05-06_19h30.58.794,Main,2022.1.1,61.18778962190159,
positive,yellow,1,None,k,,,,,,,,,0,185,185,185,,,,,,,,,,,,,,,,,main,None,None,1,1.4991403000894934,619.0223910999484,None,None,1,,,,,,,,,,,,,,006,2022-05-06_19h30.58.794,Main,2022.1.1,61.18778962190159,
positive,red,2,None,None,,,,,,,,,0,186,186,186,,,,,,,,,,,,,,,,,main,None,None,1,1.4990209999959916,621.5226746000117,None,None,1,,,,,,,,,,,,,,006,2022-05-06_19h30.58.794,Main,2022.1.1,61.18778962190159,
positive,blue,1,k,None,,,,,,,,,0,187,187,187,,,,,,,,,,,,,,,,,main,k,k,1,0.6994598000310361,624.0222702999599,None,None,0,,,,,,,,,,,,,,006,2022-05-06_19h30.58.794,Main,2022.1.1,61.18778962190159,
negative,yellow,1,k,None,,,,,,,,,0,188,188,188,,,,,,,,,,,,,,,,,main,k,k,1,0.682306099915877,625.7222802999895,None,None,0,,,,,,,,,,,,,,006,2022-05-06_19h30.58.794,Main,2022.1.1,61.18778962190159,
positive,yellow,2,None,k,,,,,,,,,0,189,189,189,,,,,,,,,,,,,,,,,main,None,None,1,1.4995222999714315,627.4056191999698,None,None,1,,,,,,,,,,,,,,006,2022-05-06_19h30.58.794,Main,2022.1.1,61.18778962190159,
negative,yellow,2,k,None,,,,,,,,,0,190,190,190,,,,,,,,,,,,,,,,,main,k,k,1,0.7320517000043765,629.9052541999845,None,None,0,,,,,,,,,,,,,,006,2022-05-06_19h30.58.794,Main,2022.1.1,61.18778962190159,
negative,yellow,1,k,None,,,,,,,,,0,191,191,191,,,,,,,,,,,,,,,,,main,k,k,1,0.6656129999319091,631.6414307999657,None,None,0,,,,,,,,,,,,,,006,2022-05-06_19h30.58.794,Main,2022.1.1,61.18778962190159,
positive,blue,2,k,None,,,,,,,,,0,192,192,192,,,,,,,,,,,,,,,,,main,k,k,1,0.7491103999782354,633.3079590999987,None,None,0,,,,,,,,,,,,,,006,2022-05-06_19h30.58.794,Main,2022.1.1,61.18778962190159,
positive,yellow,1,None,k,,,,,,,,,0,193,193,193,,,,,,,,,,,,,,,,,main,None,None,1,1.4995530999731272,635.0554436999373,None,None,1,,,,,,,,,,,,,,006,2022-05-06_19h30.58.794,Main,2022.1.1,61.18778962190159,
negative,red,2,None,None,,,,,,,,,0,194,194,194,,,,,,,,,,,,,,,,,main,None,None,1,1.4979998000198975,637.555350300041,None,None,1,,,,,,,,,,,,,,006,2022-05-06_19h30.58.794,Main,2022.1.1,61.18778962190159,
positive,red,1,None,None,,,,,,,,,0,195,195,195,,,,,,,,,,,,,,,,,main,None,None,1,1.499906299985014,640.057657700032,None,None,1,,,,,,,,,,,,,,006,2022-05-06_19h30.58.794,Main,2022.1.1,61.18778962190159,
negative,blue,1,None,k,,,,,,,,,0,196,196,196,,,,,,,,,,,,,,,,,main,None,None,1,1.498972799978219,642.5551749999868,None,None,1,,,,,,,,,,,,,,006,2022-05-06_19h30.58.794,Main,2022.1.1,61.18778962190159,
positive,blue,2,k,None,,,,,,,,,0,197,197,197,,,,,,,,,,,,,,,,,main,k,k,1,0.7151279000099748,645.0552122000372,None,None,0,,,,,,,,,,,,,,006,2022-05-06_19h30.58.794,Main,2022.1.1,61.18778962190159,
negative,blue,2,None,k,,,,,,,,,0,198,198,198,,,,,,,,,,,,,,,,,main,None,None,1,1.4996570999501273,646.7718482000055,None,None,1,,,,,,,,,,,,,,006,2022-05-06_19h30.58.794,Main,2022.1.1,61.18778962190159,
negative,blue,2,None,k,,,,,,,,,0,199,199,199,,,,,,,,,,,,,,,,,main,None,None,1,1.4979642999824136,649.2717399999965,None,None,1,,,,,,,,,,,,,,006,2022-05-06_19h30.58.794,Main,2022.1.1,61.18778962190159,
positive,blue,2,k,None,,,,,,,,,0,200,200,200,,,,,,,,,,,,,,,,,main,k,k,1,0.7327067999867722,651.7718027000083,None,None,0,,,,,,,,,,,,,,006,2022-05-06_19h30.58.794,Main,2022.1.1,61.18778962190159,
positive,blue,2,k,None,,,,,,,,,0,201,201,201,,,,,,,,,,,,,,,,,main,k,k,1,0.5825250999769196,653.5049716000212,None,None,0,,,,,,,,,,,,,,006,2022-05-06_19h30.58.794,Main,2022.1.1,61.18778962190159,
negative,yellow,2,k,None,,,,,,,,,0,202,202,202,,,,,,,,,,,,,,,,,main,k,k,1,0.7991051999852061,655.0882591999834,None,None,0,,,,,,,,,,,,,,006,2022-05-06_19h30.58.794,Main,2022.1.1,61.18778962190159,
positive,red,1,None,None,,,,,,,,,0,203,203,203,,,,,,,,,,,,,,,,,main,None,None,1,1.4995173999341205,656.8882771000499,None,None,1,,,,,,,,,,,,,,006,2022-05-06_19h30.58.794,Main,2022.1.1,61.18778962190159,
negative,blue,2,None,k,,,,,,,,,0,204,204,204,,,,,,,,,,,,,,,,,main,None,None,1,1.5010340999579057,659.388182500028,None,None,1,,,,,,,,,,,,,,006,2022-05-06_19h30.58.794,Main,2022.1.1,61.18778962190159,
negative,red,1,None,None,,,,,,,,,0,205,205,205,,,,,,,,,,,,,,,,,main,None,None,1,1.4960304000414908,661.8881208000239,None,None,1,,,,,,,,,,,,,,006,2022-05-06_19h30.58.794,Main,2022.1.1,61.18778962190159,
negative,blue,2,None,k,,,,,,,,,0,206,206,206,,,,,,,,,,,,,,,,,main,None,None,1,1.4995288000209257,664.3880732000107,None,None,1,,,,,,,,,,,,,,006,2022-05-06_19h30.58.794,Main,2022.1.1,61.18778962190159,
negative,yellow,2,k,None,,,,,,,,,0,207,207,207,,,,,,,,,,,,,,,,,main,k,k,1,0.7482779999263585,666.8880380999763,None,None,0,,,,,,,,,,,,,,006,2022-05-06_19h30.58.794,Main,2022.1.1,61.18778962190159,
positive,yellow,2,None,k,,,,,,,,,0,208,208,208,,,,,,,,,,,,,,,,,main,None,None,1,1.498657500022091,668.6381089000497,None,None,1,,,,,,,,,,,,,,006,2022-05-06_19h30.58.794,Main,2022.1.1,61.18778962190159,
negative,yellow,1,k,None,,,,,,,,,0,209,209,209,,,,,,,,,,,,,,,,,main,k,k,1,0.749488600064069,671.1380072999746,None,None,0,,,,,,,,,,,,,,006,2022-05-06_19h30.58.794,Main,2022.1.1,61.18778962190159,
negative,red,2,None,None,,,,,,,,,0,210,210,210,,,,,,,,,,,,,,,,,main,None,None,1,1.4987620000028983,672.8879103999352,None,None,1,,,,,,,,,,,,,,006,2022-05-06_19h30.58.794,Main,2022.1.1,61.18778962190159,
negative,blue,1,None,k,,,,,,,,,0,211,211,211,,,,,,,,,,,,,,,,,main,None,None,1,1.4992577000521123,675.387847200036,None,None,1,,,,,,,,,,,,,,006,2022-05-06_19h30.58.794,Main,2022.1.1,61.18778962190159,
negative,yellow,1,k,None,,,,,,,,,0,212,212,212,,,,,,,,,,,,,,,,,main,k,k,1,0.7827645998913795,677.8879128999542,None,None,0,,,,,,,,,,,,,,006,2022-05-06_19h30.58.794,Main,2022.1.1,61.18778962190159,
positive,blue,1,k,None,,,,,,,,,0,213,213,213,,,,,,,,,,,,,,,,,main,k,k,1,0.6990368000697345,679.6711466000415,None,None,0,,,,,,,,,,,,,,006,2022-05-06_19h30.58.794,Main,2022.1.1,61.18778962190159,
positive,blue,1,k,None,,,,,,,,,0,214,214,214,,,,,,,,,,,,,,,,,main,k,k,1,0.6490323999896646,681.3710361999692,None,None,0,,,,,,,,,,,,,,006,2022-05-06_19h30.58.794,Main,2022.1.1,61.18778962190159,
positive,yellow,1,None,k,,,,,,,,,0,215,215,215,,,,,,,,,,,,,,,,,main,None,None,1,1.4987023000139743,683.0234651999781,None,None,1,,,,,,,,,,,,,,006,2022-05-06_19h30.58.794,Main,2022.1.1,61.18778962190159,
positive,yellow,1,None,k,,,,,,,,,0,216,216,216,,,,,,,,,,,,,,,,,main,None,None,1,1.5014109999174252,685.5234078000067,None,None,1,,,,,,,,,,,,,,006,2022-05-06_19h30.58.794,Main,2022.1.1,61.18778962190159,
positive,yellow,2,None,k,,,,,,,,,0,217,217,217,,,,,,,,,,,,,,,,,main,None,None,1,1.4968519000103697,688.0209242999554,None,None,1,,,,,,,,,,,,,,006,2022-05-06_19h30.58.794,Main,2022.1.1,61.18778962190159,
negative,blue,1,None,k,,,,,,,,,0,218,218,218,,,,,,,,,,,,,,,,,main,None,None,1,1.5001608000602573,690.5209228999447,None,None,1,,,,,,,,,,,,,,006,2022-05-06_19h30.58.794,Main,2022.1.1,61.18778962190159,
positive,red,2,None,None,,,,,,,,,0,219,219,219,,,,,,,,,,,,,,,,,main,None,None,1,1.4977964999852702,693.0207737999735,None,None,1,,,,,,,,,,,,,,006,2022-05-06_19h30.58.794,Main,2022.1.1,61.18778962190159,
positive,yellow,1,None,k,,,,,,,,,0,220,220,220,,,,,,,,,,,,,,,,,main,None,None,1,1.500137299997732,695.520752600045,None,None,1,,,,,,,,,,,,,,006,2022-05-06_19h30.58.794,Main,2022.1.1,61.18778962190159,
positive,blue,1,k,None,,,,,,,,,0,221,221,221,,,,,,,,,,,,,,,,,main,k,k,1,0.7150810000021011,698.0207201000303,None,None,0,,,,,,,,,,,,,,006,2022-05-06_19h30.58.794,Main,2022.1.1,61.18778962190159,
positive,yellow,2,None,k,,,,,,,,,0,222,222,222,,,,,,,,,,,,,,,,,main,None,None,1,1.5020643000025302,699.7373513999628,None,None,1,,,,,,,,,,,,,,006,2022-05-06_19h30.58.794,Main,2022.1.1,61.18778962190159,
negative,yellow,1,k,None,,,,,,,,,0,223,223,223,,,,,,,,,,,,,,,,,main,k,k,1,1.3457334999693558,702.2372925999807,None,None,0,,,,,,,,,,,,,,006,2022-05-06_19h30.58.794,Main,2022.1.1,61.18778962190159,
positive,yellow,2,None,k,,,,,,,,,0,224,224,224,,,,,,,,,,,,,,,,,main,None,None,1,1.4985814000247046,704.5872335999738,None,None,1,,,,,,,,,,,,,,006,2022-05-06_19h30.58.794,Main,2022.1.1,61.18778962190159,
negative,yellow,2,k,None,,,,,,,,,0,225,225,225,,,,,,,,,,,,,,,,,main,k,k,1,0.7327954999636859,707.0895772000076,None,None,0,,,,,,,,,,,,,,006,2022-05-06_19h30.58.794,Main,2022.1.1,61.18778962190159,
negative,blue,2,None,k,,,,,,,,,0,226,226,226,,,,,,,,,,,,,,,,,main,None,None,1,1.4989326000213623,708.8204355000053,None,None,1,,,,,,,,,,,,,,006,2022-05-06_19h30.58.794,Main,2022.1.1,61.18778962190159,
positive,red,2,None,None,,,,,,,,,0,227,227,227,,,,,,,,,,,,,,,,,main,None,None,1,1.4991357000544667,711.3204511000076,None,None,1,,,,,,,,,,,,,,006,2022-05-06_19h30.58.794,Main,2022.1.1,61.18778962190159,
positive,blue,2,k,None,,,,,,,,,0,228,228,228,,,,,,,,,,,,,,,,,main,k,k,1,0.9663659000070766,713.8203233999666,None,None,0,,,,,,,,,,,,,,006,2022-05-06_19h30.58.794,Main,2022.1.1,61.18778962190159,
negative,blue,1,None,k,,,,,,,,,0,229,229,229,,,,,,,,,,,,,,,,,main,None,None,1,1.4987025000154972,715.787000900018,None,None,1,,,,,,,,,,,,,,006,2022-05-06_19h30.58.794,Main,2022.1.1,61.18778962190159,
positive,yellow,1,None,k,,,,,,,,,0,230,230,230,,,,,,,,,,,,,,,,,main,None,None,1,1.4996671000262722,718.286983500002,None,None,1,,,,,,,,,,,,,,006,2022-05-06_19h30.58.794,Main,2022.1.1,61.18778962190159,
negative,blue,2,None,k,,,,,,,,,0,231,231,231,,,,,,,,,,,,,,,,,main,None,None,1,1.5005129999481142,720.7866436999757,None,None,1,,,,,,,,,,,,,,006,2022-05-06_19h30.58.794,Main,2022.1.1,61.18778962190159,
negative,red,1,None,None,,,,,,,,,0,232,232,232,,,,,,,,,,,,,,,,,main,None,None,1,1.4992937999777496,723.2894359000493,None,None,1,,,,,,,,,,,,,,006,2022-05-06_19h30.58.794,Main,2022.1.1,61.18778962190159,
positive,blue,2,k,None,,,,,,,,,0,233,233,233,,,,,,,,,,,,,,,,,main,k,k,1,0.8469691999489442,725.7869266000343,None,None,0,,,,,,,,,,,,,,006,2022-05-06_19h30.58.794,Main,2022.1.1,61.18778962190159,
negative,yellow,1,k,None,,,,,,,,,0,234,234,234,,,,,,,,,,,,,,,,,main,k,k,1,0.7155858000041917,727.6367331000511,None,None,0,,,,,,,,,,,,,,006,2022-05-06_19h30.58.794,Main,2022.1.1,61.18778962190159,
negative,yellow,2,k,None,,,,,,,,,0,235,235,235,,,,,,,,,,,,,,,,,main,k,k,1,0.7158171999035403,729.3533095000312,None,None,0,,,,,,,,,,,,,,006,2022-05-06_19h30.58.794,Main,2022.1.1,61.18778962190159,
positive,red,1,None,None,,,,,,,,,0,236,236,236,,,,,,,,,,,,,,,,,main,None,None,1,1.4986038999632,731.0702745999442,None,None,1,,,,,,,,,,,,,,006,2022-05-06_19h30.58.794,Main,2022.1.1,61.18778962190159,
negative,red,2,None,None,,,,,,,,,0,237,237,237,,,,,,,,,,,,,,,,,main,None,None,1,1.5000285999849439,733.5758799000178,None,None,1,,,,,,,,,,,,,,006,2022-05-06_19h30.58.794,Main,2022.1.1,61.18778962190159,
negative,blue,1,None,k,,,,,,,,,0,238,238,238,,,,,,,,,,,,,,,,,main,None,None,1,1.5004783999174833,736.0696639999514,None,None,1,,,,,,,,,,,,,,006,2022-05-06_19h30.58.794,Main,2022.1.1,61.18778962190159,
positive,blue,1,k,None,,,,,,,,,0,239,239,239,,,,,,,,,,,,,,,,,main,k,k,1,0.7636305000633001,738.572427200037,None,None,0,,,,,,,,,,,,,,006,2022-05-06_19h30.58.794,Main,2022.1.1,61.18778962190159,
,,,,,,,,,,,,,,,,,,,,,,,,,,,,,,,,,,,,,,,,,,,,,,,,,,,,,740.336473000003,None,,,,,,
