distractor,target,set,ans1,ans2,rep_loop4.thisRepN,rep_loop4.thisTrialN,rep_loop4.thisN,rep_loop4.thisIndex,st2_prac_loop.thisRepN,st2_prac_loop.thisTrialN,st2_prac_loop.thisN,st2_prac_loop.thisIndex,st2_main_loop.thisRepN,st2_main_loop.thisTrialN,st2_main_loop.thisN,st2_main_loop.thisIndex,image_4.started,image_4.stopped,sound_2.started,sound_2.stopped,key_resp_3.keys,key_resp_3.rt,image_5.started,image_5.stopped,st_prac_back.started,st_prac_back.stopped,st_prac_text.started,st_prac_text.stopped,st_fix_back.started,st_fix_back.stopped,st_fix_2.started,st_fix_2.stopped,main_prac,st_ans,st_res,st_corr,st_rt,st_back.started,st_back.stopped,st2_resp.keys,st2_resp.corr,st_main_back.started,st_main_back.stopped,st_main_text.started,st_main_text.stopped,mouse_4.x,mouse_4.y,mouse_4.leftButton,mouse_4.midButton,mouse_4.rightButton,mouse_4.started,mouse_4.stopped,text_2.started,text_2.stopped,id*,date,expName,psychopyVersion,frameRate,
negative,yellow,1,k,None,,,,,0,0,0,0,,,,,29.868339400039986,None,33.68065501002129,None,space,62.015360399964266,95.71268310002051,None,100.6958719000686,None,100.6958719000686,None,102.69585490005556,None,102.69585490005556,None,prac,None,None,1,1.4928946000291035,104.70950440003071,None,None,1,,,,,,,,,,,,,,007,2022-05-09_13h46.11.272,Main,2022.1.1,61.440157251379034,
positive,red,2,None,None,,,,,0,1,1,1,,,,,,,,,,,,,,,,,,,,,prac,None,None,1,1.5033600999740884,107.21075860003475,None,None,1,,,,,,,,,,,,,,007,2022-05-09_13h46.11.272,Main,2022.1.1,61.440157251379034,
negative,blue,2,None,k,,,,,0,2,2,2,,,,,,,,,,,,,,,,,,,,,prac,k,k,1,1.1945230000419542,109.7095060000429,None,None,0,,,,,,,,,,,,,,007,2022-05-09_13h46.11.272,Main,2022.1.1,61.440157251379034,
positive,yellow,1,None,k,,,,,0,3,3,3,,,,,,,,,,,,,,,,,,,,,prac,k,k,1,1.3819727000081912,111.90914220002014,None,None,0,,,,,,,,,,,,,,007,2022-05-09_13h46.11.272,Main,2022.1.1,61.440157251379034,
negative,blue,2,None,k,,,,,0,4,4,4,,,,,,,,,,,,,,,,,,,,,prac,k,k,1,1.282314999960363,114.2923504000064,None,None,0,,,,,,,,,,,,,,007,2022-05-09_13h46.11.272,Main,2022.1.1,61.440157251379034,
negative,blue,1,None,k,,,,,0,5,5,5,,,,,,,,,,,,,,,,,,,,,prac,k,k,1,1.0995665000518784,116.57567020005081,None,None,0,,,,,,,,,,,,,,007,2022-05-09_13h46.11.272,Main,2022.1.1,61.440157251379034,
negative,yellow,2,k,None,,,,,0,6,6,6,,,,,,,,,,,,,,,,,,,,,prac,None,None,1,1.4986794999567792,118.67599180003162,None,None,1,,,,,,,,,,,,,,007,2022-05-09_13h46.11.272,Main,2022.1.1,61.440157251379034,
negative,red,1,None,None,,,,,0,7,7,7,,,,,,,,,,,,,,,,,,,,,prac,None,None,1,1.5019867999944836,121.17592780000996,None,None,1,,,,,,,,,,,,,,007,2022-05-09_13h46.11.272,Main,2022.1.1,61.440157251379034,
positive,yellow,2,None,k,,,,,0,8,8,8,,,,,,,,,,,,,,,,,,,,,prac,k,k,1,1.1461320999078453,123.68018700007815,None,None,0,,,,,,,,,,,,,,007,2022-05-09_13h46.11.272,Main,2022.1.1,61.440157251379034,
negative,yellow,1,k,None,,,,,0,9,9,9,,,,,,,,,,,,,,,,,,,,,prac,None,None,1,1.5012517999857664,125.82543900003657,None,None,1,,,,,,,,,,,,,,007,2022-05-09_13h46.11.272,Main,2022.1.1,61.440157251379034,
positive,yellow,2,None,k,,,,,0,10,10,10,,,,,,,,,,,,,,,,,,,,,prac,k,k,1,0.962243799935095,128.32577490003314,None,None,0,,,,,,,,,,,,,,007,2022-05-09_13h46.11.272,Main,2022.1.1,61.440157251379034,
negative,yellow,2,k,None,,,,,0,11,11,11,,,,,,,,,,,,,,,,,,,,,prac,None,None,1,1.4985840999288484,130.29239790001884,None,None,1,,,,,,,,,,,,,,007,2022-05-09_13h46.11.272,Main,2022.1.1,61.440157251379034,
negative,red,2,None,None,,,,,0,12,12,12,,,,,,,,,,,,,,,,,,,,,prac,None,None,1,1.5001977999927476,132.79528630001005,None,None,1,,,,,,,,,,,,,,007,2022-05-09_13h46.11.272,Main,2022.1.1,61.440157251379034,
positive,red,1,None,None,,,,,0,13,13,13,,,,,,,,,,,,,,,,,,,,,prac,None,None,1,1.4987761999946088,135.29565290000755,None,None,1,,,,,,,,,,,,,,007,2022-05-09_13h46.11.272,Main,2022.1.1,61.440157251379034,
positive,blue,2,k,None,,,,,0,14,14,14,,,,,,,,,,,,,,,,,,,,,prac,None,None,1,1.4978093999670818,137.79198229999747,None,None,1,,,,,,,,,,,,,,007,2022-05-09_13h46.11.272,Main,2022.1.1,61.440157251379034,
positive,blue,1,k,None,,,,,0,15,15,15,,,,,,,,,,,,,,,,,,,,,prac,None,None,1,1.4988447999348864,140.29216700000688,None,None,1,,,,,,,,,,,,,,007,2022-05-09_13h46.11.272,Main,2022.1.1,61.440157251379034,
negative,blue,1,None,k,,,,,0,16,16,16,,,,,,,,,,,,,,,,,,,,,prac,k,k,1,0.8498871000483632,142.79176769999322,None,None,0,,,,,,,,,,,,,,007,2022-05-09_13h46.11.272,Main,2022.1.1,61.440157251379034,
positive,blue,2,k,None,,,,,0,17,17,17,,,,,,,,,,,,,,,,,,,,,prac,None,None,1,1.4988115000305697,144.64179090003017,None,None,1,,,,,,,,,,,,,,007,2022-05-09_13h46.11.272,Main,2022.1.1,61.440157251379034,
positive,blue,1,k,None,,,,,0,18,18,18,,,,,,,,,,,,,,,,,,,,,prac,None,None,1,1.4988991999998689,147.14212340000086,None,None,1,,,,,,,,,,,,,,007,2022-05-09_13h46.11.272,Main,2022.1.1,61.440157251379034,
positive,yellow,1,None,k,,,,,0,19,19,19,,,,,,,,,,,,,,,,,,,,,prac,k,k,1,0.9655964999692515,149.64198750001378,None,None,0,,,,,,,,,,,,,,007,2022-05-09_13h46.11.272,Main,2022.1.1,61.440157251379034,
negative,yellow,1,k,None,,,,,1,0,20,0,,,,,,,,,,,,,,,,,,,,,prac,None,None,1,1.503324499935843,151.60823370004073,None,None,1,,,,,,,,,,,,,,007,2022-05-09_13h46.11.272,Main,2022.1.1,61.440157251379034,
positive,red,2,None,None,,,,,1,1,21,1,,,,,,,,,,,,,,,,,,,,,prac,None,k,0,1.0950719999382272,154.10850810003467,None,None,1,,,,,,,,,,,,,,007,2022-05-09_13h46.11.272,Main,2022.1.1,61.440157251379034,
negative,blue,2,None,k,,,,,1,2,22,2,,,,,,,,,,,,,,,,,,,,,prac,k,k,1,1.2982948999851942,157.21152520005126,None,None,0,,,,,,,,,,,,,,007,2022-05-09_13h46.11.272,Main,2022.1.1,61.440157251379034,
positive,yellow,1,None,k,,,,,1,3,23,3,,,,,,,,,,,,,,,,,,,,,prac,k,k,1,0.9993543000891805,159.5114572000457,None,None,0,,,,,,,,,,,,,,007,2022-05-09_13h46.11.272,Main,2022.1.1,61.440157251379034,
negative,blue,2,None,k,,,,,1,4,24,4,,,,,,,,,,,,,,,,,,,,,prac,k,k,1,1.5825899000046775,161.50801760004833,None,None,0,,,,,,,,,,,,,,007,2022-05-09_13h46.11.272,Main,2022.1.1,61.440157251379034,
negative,blue,1,None,k,,,,,1,5,25,5,,,,,,,,,,,,,,,,,,,,,prac,k,k,1,1.0484594000736251,165.09163810010068,None,None,0,,,,,,,,,,,,,,007,2022-05-09_13h46.11.272,Main,2022.1.1,61.440157251379034,
negative,yellow,2,k,None,,,,,1,6,26,6,,,,,,,,,,,,,,,,,,,,,prac,None,None,1,1.4892372000031173,167.14159820007626,None,None,1,,,,,,,,,,,,,,007,2022-05-09_13h46.11.272,Main,2022.1.1,61.440157251379034,
negative,red,1,None,None,,,,,1,7,27,7,,,,,,,,,,,,,,,,,,,,,prac,None,None,1,1.4920413000509143,169.63063240004703,None,None,1,,,,,,,,,,,,,,007,2022-05-09_13h46.11.272,Main,2022.1.1,61.440157251379034,
positive,yellow,2,None,k,,,,,1,8,28,8,,,,,,,,,,,,,,,,,,,,,prac,k,k,1,1.4154052999801934,172.12449200008996,None,None,0,,,,,,,,,,,,,,007,2022-05-09_13h46.11.272,Main,2022.1.1,61.440157251379034,
negative,yellow,1,k,None,,,,,1,9,29,9,,,,,,,,,,,,,,,,,,,,,prac,None,None,1,1.4996367999119684,174.54151640005875,None,None,1,,,,,,,,,,,,,,007,2022-05-09_13h46.11.272,Main,2022.1.1,61.440157251379034,
positive,yellow,2,None,k,,,,,1,10,30,10,,,,,,,,,,,,,,,,,,,,,prac,k,k,1,1.214640500023961,177.04137690004427,None,None,0,,,,,,,,,,,,,,007,2022-05-09_13h46.11.272,Main,2022.1.1,61.440157251379034,
negative,yellow,2,k,None,,,,,1,11,31,11,,,,,,,,,,,,,,,,,,,,,prac,None,None,1,1.4992701999144629,179.25798860006034,None,None,1,,,,,,,,,,,,,,007,2022-05-09_13h46.11.272,Main,2022.1.1,61.440157251379034,
negative,red,2,None,None,,,,,1,12,32,12,,,,,,,,,,,,,,,,,,,,,prac,None,None,1,1.4987046000314876,181.7581812000135,None,None,1,,,,,,,,,,,,,,007,2022-05-09_13h46.11.272,Main,2022.1.1,61.440157251379034,
positive,red,1,None,None,,,,,1,13,33,13,,,,,,,,,,,,,,,,,,,,,prac,None,None,1,1.489454000024125,184.25783050002065,None,None,1,,,,,,,,,,,,,,007,2022-05-09_13h46.11.272,Main,2022.1.1,61.440157251379034,
positive,blue,2,k,None,,,,,1,14,34,14,,,,,,,,,,,,,,,,,,,,,prac,None,None,1,1.4928034000331536,186.7459833000321,None,None,1,,,,,,,,,,,,,,007,2022-05-09_13h46.11.272,Main,2022.1.1,61.440157251379034,
positive,blue,1,k,None,,,,,1,15,35,15,,,,,,,,,,,,,,,,,,,,,prac,None,None,1,1.5012023999588564,189.24082820001058,None,None,1,,,,,,,,,,,,,,007,2022-05-09_13h46.11.272,Main,2022.1.1,61.440157251379034,
negative,blue,1,None,k,,,,,1,16,36,16,,,,,,,,,,,,,,,,,,,,,prac,k,k,1,1.0796753000468016,191.74154050007928,None,None,0,,,,,,,,,,,,,,007,2022-05-09_13h46.11.272,Main,2022.1.1,61.440157251379034,
positive,blue,2,k,None,,,,,1,17,37,17,,,,,,,,,,,,,,,,,,,,,prac,None,None,1,1.4987914999946952,193.82438340003137,None,None,1,,,,,,,,,,,,,,007,2022-05-09_13h46.11.272,Main,2022.1.1,61.440157251379034,
positive,blue,1,k,None,,,,,1,18,38,18,,,,,,,,,,,,,,,,,,,,,prac,None,None,1,1.4990867000306025,196.3242092001019,None,None,1,,,,,,,,,,,,,,007,2022-05-09_13h46.11.272,Main,2022.1.1,61.440157251379034,
positive,yellow,1,None,k,,,,,1,19,39,19,,,,,,,,,,,,,,,,,,,,,prac,k,k,1,1.3337306999601424,198.82415650004987,None,None,0,,,,,,,,,,,,,,007,2022-05-09_13h46.11.272,Main,2022.1.1,61.440157251379034,
,,,,,,,,,,,,,,,,,,,,,,,,,,,,,,,,,,,,,,,,,,201.15756359999068,None,201.15756359999068,None,-0.0712963,-0.13796297,0,0,0,0.012780310004018247,None,,,007,2022-05-09_13h46.11.272,Main,2022.1.1,61.440157251379034,
negative,yellow,2,k,None,,,,,,,,,0,0,0,0,,,,,,,,,,,,,203.7071763999993,None,203.7071763999993,None,main,None,None,1,1.506583100068383,205.74521220009774,None,None,1,,,,,,,,,,,,,,007,2022-05-09_13h46.11.272,Main,2022.1.1,61.440157251379034,
positive,red,1,None,None,,,,,,,,,0,1,1,1,,,,,,,,,,,,,,,,,main,None,None,1,1.4989944000262767,208.25738409999758,None,None,1,,,,,,,,,,,,,,007,2022-05-09_13h46.11.272,Main,2022.1.1,61.440157251379034,
positive,blue,2,k,None,,,,,,,,,0,2,2,2,,,,,,,,,,,,,,,,,main,None,None,1,1.4959680000320077,210.75735160009935,None,None,1,,,,,,,,,,,,,,007,2022-05-09_13h46.11.272,Main,2022.1.1,61.440157251379034,
positive,blue,1,k,None,,,,,,,,,0,3,3,3,,,,,,,,,,,,,,,,,main,None,None,1,1.4998023000080138,213.25747290009167,None,None,1,,,,,,,,,,,,,,007,2022-05-09_13h46.11.272,Main,2022.1.1,61.440157251379034,
negative,yellow,2,k,None,,,,,,,,,0,4,4,4,,,,,,,,,,,,,,,,,main,None,None,1,1.4986001999350265,215.7575781000778,None,None,1,,,,,,,,,,,,,,007,2022-05-09_13h46.11.272,Main,2022.1.1,61.440157251379034,
positive,yellow,2,None,k,,,,,,,,,0,5,5,5,,,,,,,,,,,,,,,,,main,k,k,1,0.9312091999454424,218.25717220001388,None,None,0,,,,,,,,,,,,,,007,2022-05-09_13h46.11.272,Main,2022.1.1,61.440157251379034,
negative,blue,2,None,k,,,,,,,,,0,6,6,6,,,,,,,,,,,,,,,,,main,k,k,1,0.8991248999955133,220.19034450000618,None,None,0,,,,,,,,,,,,,,007,2022-05-09_13h46.11.272,Main,2022.1.1,61.440157251379034,
positive,red,2,None,None,,,,,,,,,0,7,7,7,,,,,,,,,,,,,,,,,main,None,None,1,1.4991788000334054,222.09034160000738,None,None,1,,,,,,,,,,,,,,007,2022-05-09_13h46.11.272,Main,2022.1.1,61.440157251379034,
positive,yellow,1,None,k,,,,,,,,,0,8,8,8,,,,,,,,,,,,,,,,,main,k,k,1,0.9997552999993786,224.59039400005713,None,None,0,,,,,,,,,,,,,,007,2022-05-09_13h46.11.272,Main,2022.1.1,61.440157251379034,
negative,red,1,None,None,,,,,,,,,0,9,9,9,,,,,,,,,,,,,,,,,main,None,None,1,1.4997244999976829,226.59036550007295,None,None,1,,,,,,,,,,,,,,007,2022-05-09_13h46.11.272,Main,2022.1.1,61.440157251379034,
positive,yellow,1,None,k,,,,,,,,,0,10,10,10,,,,,,,,,,,,,,,,,main,k,k,1,1.181245099985972,229.09319730009884,None,None,0,,,,,,,,,,,,,,007,2022-05-09_13h46.11.272,Main,2022.1.1,61.440157251379034,
negative,yellow,1,k,None,,,,,,,,,0,11,11,11,,,,,,,,,,,,,,,,,main,None,None,1,1.4985352999065071,231.27350110001862,None,None,1,,,,,,,,,,,,,,007,2022-05-09_13h46.11.272,Main,2022.1.1,61.440157251379034,
negative,yellow,1,k,None,,,,,,,,,0,12,12,12,,,,,,,,,,,,,,,,,main,None,None,1,1.4995911000296474,233.77346990001388,None,None,1,,,,,,,,,,,,,,007,2022-05-09_13h46.11.272,Main,2022.1.1,61.440157251379034,
negative,red,2,None,None,,,,,,,,,0,13,13,13,,,,,,,,,,,,,,,,,main,None,None,1,1.5012400998966768,236.2730926000513,None,None,1,,,,,,,,,,,,,,007,2022-05-09_13h46.11.272,Main,2022.1.1,61.440157251379034,
positive,yellow,2,None,k,,,,,,,,,0,14,14,14,,,,,,,,,,,,,,,,,main,k,k,1,0.9796687999041751,238.77341350005008,None,None,0,,,,,,,,,,,,,,007,2022-05-09_13h46.11.272,Main,2022.1.1,61.440157251379034,
positive,blue,1,k,None,,,,,,,,,0,15,15,15,,,,,,,,,,,,,,,,,main,None,None,1,1.4988266000291333,240.75672550010495,None,None,1,,,,,,,,,,,,,,007,2022-05-09_13h46.11.272,Main,2022.1.1,61.440157251379034,
negative,blue,1,None,k,,,,,,,,,0,16,16,16,,,,,,,,,,,,,,,,,main,k,k,1,1.2841879000188783,243.2596254000673,None,None,0,,,,,,,,,,,,,,007,2022-05-09_13h46.11.272,Main,2022.1.1,61.440157251379034,
positive,blue,2,k,None,,,,,,,,,0,17,17,17,,,,,,,,,,,,,,,,,main,None,None,1,1.497960100066848,245.53985050006304,None,None,1,,,,,,,,,,,,,,007,2022-05-09_13h46.11.272,Main,2022.1.1,61.440157251379034,
negative,blue,2,None,k,,,,,,,,,0,18,18,18,,,,,,,,,,,,,,,,,main,k,k,1,0.8648148999782279,248.03991380007938,None,None,0,,,,,,,,,,,,,,007,2022-05-09_13h46.11.272,Main,2022.1.1,61.440157251379034,
negative,blue,1,None,k,,,,,,,,,0,19,19,19,,,,,,,,,,,,,,,,,main,k,k,1,1.0155483999988064,249.90647710009944,None,None,0,,,,,,,,,,,,,,007,2022-05-09_13h46.11.272,Main,2022.1.1,61.440157251379034,
negative,blue,1,None,k,,,,,,,,,0,20,20,20,,,,,,,,,,,,,,,,,main,k,k,1,1.1494593999814242,251.9227650000248,None,None,0,,,,,,,,,,,,,,007,2022-05-09_13h46.11.272,Main,2022.1.1,61.440157251379034,
negative,blue,2,None,k,,,,,,,,,0,21,21,21,,,,,,,,,,,,,,,,,main,k,k,1,1.2822678000666201,254.07309960003477,None,None,0,,,,,,,,,,,,,,007,2022-05-09_13h46.11.272,Main,2022.1.1,61.440157251379034,
negative,red,1,None,None,,,,,,,,,0,22,22,22,,,,,,,,,,,,,,,,,main,None,None,1,1.4988443000474945,256.3563599000918,None,None,1,,,,,,,,,,,,,,007,2022-05-09_13h46.11.272,Main,2022.1.1,61.440157251379034,
positive,red,2,None,None,,,,,,,,,0,23,23,23,,,,,,,,,,,,,,,,,main,None,None,1,1.499324099975638,258.85629140003584,None,None,1,,,,,,,,,,,,,,007,2022-05-09_13h46.11.272,Main,2022.1.1,61.440157251379034,
negative,red,2,None,None,,,,,,,,,0,24,24,24,,,,,,,,,,,,,,,,,main,None,None,1,1.4997591000283137,261.3564372000983,None,None,1,,,,,,,,,,,,,,007,2022-05-09_13h46.11.272,Main,2022.1.1,61.440157251379034,
positive,blue,2,k,None,,,,,,,,,0,25,25,25,,,,,,,,,,,,,,,,,main,None,None,1,1.4988741999259219,263.8561417000601,None,None,1,,,,,,,,,,,,,,007,2022-05-09_13h46.11.272,Main,2022.1.1,61.440157251379034,
negative,yellow,1,k,None,,,,,,,,,0,26,26,26,,,,,,,,,,,,,,,,,main,None,k,0,0.7644290999742225,266.35607119998895,None,None,1,,,,,,,,,,,,,,007,2022-05-09_13h46.11.272,Main,2022.1.1,61.440157251379034,
positive,blue,2,k,None,,,,,,,,,0,27,27,27,,,,,,,,,,,,,,,,,main,None,None,1,1.5010289000347257,269.1224674000405,None,None,1,,,,,,,,,,,,,,007,2022-05-09_13h46.11.272,Main,2022.1.1,61.440157251379034,
negative,blue,2,None,k,,,,,,,,,0,28,28,28,,,,,,,,,,,,,,,,,main,k,k,1,1.5823453000048175,271.6257012001006,None,None,0,,,,,,,,,,,,,,007,2022-05-09_13h46.11.272,Main,2022.1.1,61.440157251379034,
positive,red,1,None,None,,,,,,,,,0,29,29,29,,,,,,,,,,,,,,,,,main,None,None,1,1.5025006000651047,275.20604000007734,None,None,1,,,,,,,,,,,,,,007,2022-05-09_13h46.11.272,Main,2022.1.1,61.440157251379034,
positive,blue,1,k,None,,,,,,,,,0,30,30,30,,,,,,,,,,,,,,,,,main,None,None,1,1.5007823000196368,277.70554610004183,None,None,1,,,,,,,,,,,,,,007,2022-05-09_13h46.11.272,Main,2022.1.1,61.440157251379034,
positive,yellow,1,None,k,,,,,,,,,0,31,31,31,,,,,,,,,,,,,,,,,main,k,k,1,0.9619958000257611,280.20612119999714,None,None,0,,,,,,,,,,,,,,007,2022-05-09_13h46.11.272,Main,2022.1.1,61.440157251379034,
negative,yellow,2,k,None,,,,,,,,,0,32,32,32,,,,,,,,,,,,,,,,,main,None,None,1,1.4985052000265568,282.1725630000001,None,None,1,,,,,,,,,,,,,,007,2022-05-09_13h46.11.272,Main,2022.1.1,61.440157251379034,
negative,blue,1,None,k,,,,,,,,,0,33,33,33,,,,,,,,,,,,,,,,,main,k,k,1,1.1327558000339195,284.67241150001064,None,None,0,,,,,,,,,,,,,,007,2022-05-09_13h46.11.272,Main,2022.1.1,61.440157251379034,
positive,blue,1,k,None,,,,,,,,,0,34,34,34,,,,,,,,,,,,,,,,,main,None,None,1,1.4987426999723539,286.8056533000199,None,None,1,,,,,,,,,,,,,,007,2022-05-09_13h46.11.272,Main,2022.1.1,61.440157251379034,
negative,yellow,1,k,None,,,,,,,,,0,35,35,35,,,,,,,,,,,,,,,,,main,None,None,1,1.5021468999329954,289.3085976000875,None,None,1,,,,,,,,,,,,,,007,2022-05-09_13h46.11.272,Main,2022.1.1,61.440157251379034,
positive,yellow,2,None,k,,,,,,,,,0,36,36,36,,,,,,,,,,,,,,,,,main,k,k,1,1.2357685000170022,291.8056376000168,None,None,0,,,,,,,,,,,,,,007,2022-05-09_13h46.11.272,Main,2022.1.1,61.440157251379034,
positive,yellow,2,None,k,,,,,,,,,0,37,37,37,,,,,,,,,,,,,,,,,main,k,k,1,0.7096002999460325,294.0502672001021,None,None,0,,,,,,,,,,,,,,007,2022-05-09_13h46.11.272,Main,2022.1.1,61.440157251379034,
negative,yellow,2,k,None,,,,,,,,,0,38,38,38,,,,,,,,,,,,,,,,,main,None,None,1,1.4989752999972552,295.75525320007,None,None,1,,,,,,,,,,,,,,007,2022-05-09_13h46.11.272,Main,2022.1.1,61.440157251379034,
positive,yellow,1,None,k,,,,,,,,,0,39,39,39,,,,,,,,,,,,,,,,,main,k,k,1,1.1659195999382064,298.2554687000811,None,None,0,,,,,,,,,,,,,,007,2022-05-09_13h46.11.272,Main,2022.1.1,61.440157251379034,
negative,yellow,2,k,None,,,,,,,,,0,40,40,40,,,,,,,,,,,,,,,,,main,None,None,1,1.4995356000727043,300.4223123000702,None,None,1,,,,,,,,,,,,,,007,2022-05-09_13h46.11.272,Main,2022.1.1,61.440157251379034,
positive,blue,2,k,None,,,,,,,,,0,41,41,41,,,,,,,,,,,,,,,,,main,None,None,1,1.498589999973774,302.9220194000518,None,None,1,,,,,,,,,,,,,,007,2022-05-09_13h46.11.272,Main,2022.1.1,61.440157251379034,
positive,blue,2,k,None,,,,,,,,,0,42,42,42,,,,,,,,,,,,,,,,,main,None,None,1,1.4983597000828013,305.42171090003103,None,None,1,,,,,,,,,,,,,,007,2022-05-09_13h46.11.272,Main,2022.1.1,61.440157251379034,
negative,blue,2,None,k,,,,,,,,,0,43,43,43,,,,,,,,,,,,,,,,,main,k,k,1,0.48256859998218715,307.92196390009485,None,None,0,,,,,,,,,,,,,,007,2022-05-09_13h46.11.272,Main,2022.1.1,61.440157251379034,
negative,red,1,None,None,,,,,,,,,0,44,44,44,,,,,,,,,,,,,,,,,main,None,None,1,1.4991632000310346,309.4053843000438,None,None,1,,,,,,,,,,,,,,007,2022-05-09_13h46.11.272,Main,2022.1.1,61.440157251379034,
negative,yellow,1,k,None,,,,,,,,,0,45,45,45,,,,,,,,,,,,,,,,,main,None,None,1,1.498681400087662,311.90518860006705,None,None,1,,,,,,,,,,,,,,007,2022-05-09_13h46.11.272,Main,2022.1.1,61.440157251379034,
negative,yellow,1,k,None,,,,,,,,,0,46,46,46,,,,,,,,,,,,,,,,,main,None,None,1,1.5000217999331653,314.405029800022,None,None,1,,,,,,,,,,,,,,007,2022-05-09_13h46.11.272,Main,2022.1.1,61.440157251379034,
positive,red,1,None,None,,,,,,,,,0,47,47,47,,,,,,,,,,,,,,,,,main,None,None,1,1.5017270999960601,316.90496610000264,None,None,1,,,,,,,,,,,,,,007,2022-05-09_13h46.11.272,Main,2022.1.1,61.440157251379034,
positive,yellow,1,None,k,,,,,,,,,0,48,48,48,,,,,,,,,,,,,,,,,main,k,k,1,0.7784153000684455,319.40494510007557,None,None,0,,,,,,,,,,,,,,007,2022-05-09_13h46.11.272,Main,2022.1.1,61.440157251379034,
negative,blue,1,None,k,,,,,,,,,0,49,49,49,,,,,,,,,,,,,,,,,main,k,k,1,1.015970400068909,321.18792940001003,None,None,0,,,,,,,,,,,,,,007,2022-05-09_13h46.11.272,Main,2022.1.1,61.440157251379034,
positive,yellow,2,None,k,,,,,,,,,0,50,50,50,,,,,,,,,,,,,,,,,main,k,k,1,0.8824036000296474,323.20797680004034,None,None,0,,,,,,,,,,,,,,007,2022-05-09_13h46.11.272,Main,2022.1.1,61.440157251379034,
negative,blue,1,None,k,,,,,,,,,0,51,51,51,,,,,,,,,,,,,,,,,main,k,k,1,0.8154352999990806,325.08820720005315,None,None,0,,,,,,,,,,,,,,007,2022-05-09_13h46.11.272,Main,2022.1.1,61.440157251379034,
positive,red,2,None,None,,,,,,,,,0,52,52,52,,,,,,,,,,,,,,,,,main,None,None,1,1.499187699984759,326.9048563000979,None,None,1,,,,,,,,,,,,,,007,2022-05-09_13h46.11.272,Main,2022.1.1,61.440157251379034,
positive,yellow,2,None,k,,,,,,,,,0,53,53,53,,,,,,,,,,,,,,,,,main,k,k,1,1.4659547000192106,329.4044519000454,None,None,0,,,,,,,,,,,,,,007,2022-05-09_13h46.11.272,Main,2022.1.1,61.440157251379034,
negative,red,2,None,None,,,,,,,,,0,54,54,54,,,,,,,,,,,,,,,,,main,None,None,1,1.4978490000357851,331.8710713000037,None,None,1,,,,,,,,,,,,,,007,2022-05-09_13h46.11.272,Main,2022.1.1,61.440157251379034,
positive,yellow,1,None,k,,,,,,,,,0,55,55,55,,,,,,,,,,,,,,,,,main,k,k,1,0.9828843999421224,334.3713914999971,None,None,0,,,,,,,,,,,,,,007,2022-05-09_13h46.11.272,Main,2022.1.1,61.440157251379034,
negative,blue,2,None,k,,,,,,,,,0,56,56,56,,,,,,,,,,,,,,,,,main,k,k,1,0.8815080000786111,336.35464949999005,None,None,0,,,,,,,,,,,,,,007,2022-05-09_13h46.11.272,Main,2022.1.1,61.440157251379034,
positive,blue,1,k,None,,,,,,,,,0,57,57,57,,,,,,,,,,,,,,,,,main,None,None,1,1.500184000004083,338.23715820000507,None,None,1,,,,,,,,,,,,,,007,2022-05-09_13h46.11.272,Main,2022.1.1,61.440157251379034,
positive,blue,1,k,None,,,,,,,,,0,58,58,58,,,,,,,,,,,,,,,,,main,None,None,1,1.4984007000457495,340.7375789000653,None,None,1,,,,,,,,,,,,,,007,2022-05-09_13h46.11.272,Main,2022.1.1,61.440157251379034,
negative,yellow,2,k,None,,,,,,,,,0,59,59,59,,,,,,,,,,,,,,,,,main,None,None,1,1.4991124999942258,343.2378277000971,None,None,1,,,,,,,,,,,,,,007,2022-05-09_13h46.11.272,Main,2022.1.1,61.440157251379034,
positive,red,2,None,None,,,,,,,,,0,60,60,60,,,,,,,,,,,,,,,,,main,None,None,1,1.4999599000439048,345.73776600009296,None,None,1,,,,,,,,,,,,,,007,2022-05-09_13h46.11.272,Main,2022.1.1,61.440157251379034,
negative,yellow,1,k,None,,,,,,,,,0,61,61,61,,,,,,,,,,,,,,,,,main,None,None,1,1.5007075000321493,348.23760710004717,None,None,1,,,,,,,,,,,,,,007,2022-05-09_13h46.11.272,Main,2022.1.1,61.440157251379034,
negative,red,1,None,None,,,,,,,,,0,62,62,62,,,,,,,,,,,,,,,,,main,None,None,1,1.497723100008443,350.73758160008583,None,None,1,,,,,,,,,,,,,,007,2022-05-09_13h46.11.272,Main,2022.1.1,61.440157251379034,
negative,blue,1,None,k,,,,,,,,,0,63,63,63,,,,,,,,,,,,,,,,,main,k,k,1,1.0139661999419332,353.2376125000883,None,None,0,,,,,,,,,,,,,,007,2022-05-09_13h46.11.272,Main,2022.1.1,61.440157251379034,
positive,blue,2,k,None,,,,,,,,,0,64,64,64,,,,,,,,,,,,,,,,,main,None,None,1,1.4997318000532687,355.2538382000057,None,None,1,,,,,,,,,,,,,,007,2022-05-09_13h46.11.272,Main,2022.1.1,61.440157251379034,
negative,yellow,2,k,None,,,,,,,,,0,65,65,65,,,,,,,,,,,,,,,,,main,None,None,1,1.4996006999863312,357.7544271000661,None,None,1,,,,,,,,,,,,,,007,2022-05-09_13h46.11.272,Main,2022.1.1,61.440157251379034,
positive,yellow,2,None,k,,,,,,,,,0,66,66,66,,,,,,,,,,,,,,,,,main,k,k,1,0.8647266000043601,360.2541295000119,None,None,0,,,,,,,,,,,,,,007,2022-05-09_13h46.11.272,Main,2022.1.1,61.440157251379034,
positive,yellow,2,None,k,,,,,,,,,0,67,67,67,,,,,,,,,,,,,,,,,main,k,k,1,0.8155460000270978,362.1207740000682,None,None,0,,,,,,,,,,,,,,007,2022-05-09_13h46.11.272,Main,2022.1.1,61.440157251379034,
positive,red,1,None,None,,,,,,,,,0,68,68,68,,,,,,,,,,,,,,,,,main,None,None,1,1.4987971000373363,363.937260500039,None,None,1,,,,,,,,,,,,,,007,2022-05-09_13h46.11.272,Main,2022.1.1,61.440157251379034,
positive,yellow,1,None,k,,,,,,,,,0,69,69,69,,,,,,,,,,,,,,,,,main,k,k,1,1.199299499974586,366.43723440007307,None,None,0,,,,,,,,,,,,,,007,2022-05-09_13h46.11.272,Main,2022.1.1,61.440157251379034,
negative,yellow,2,k,None,,,,,,,,,0,70,70,70,,,,,,,,,,,,,,,,,main,None,None,1,1.4992541000247002,368.63759160006884,None,None,1,,,,,,,,,,,,,,007,2022-05-09_13h46.11.272,Main,2022.1.1,61.440157251379034,
positive,yellow,1,None,k,,,,,,,,,0,71,71,71,,,,,,,,,,,,,,,,,main,k,k,1,1.4328385000117123,371.136901400052,None,None,0,,,,,,,,,,,,,,007,2022-05-09_13h46.11.272,Main,2022.1.1,61.440157251379034,
negative,blue,1,None,k,,,,,,,,,0,72,72,72,,,,,,,,,,,,,,,,,main,k,k,1,0.8812156000640243,373.5705267000012,None,None,0,,,,,,,,,,,,,,007,2022-05-09_13h46.11.272,Main,2022.1.1,61.440157251379034,
negative,red,2,None,None,,,,,,,,,0,73,73,73,,,,,,,,,,,,,,,,,main,None,None,1,1.4989794000284746,375.4538024000358,None,None,1,,,,,,,,,,,,,,007,2022-05-09_13h46.11.272,Main,2022.1.1,61.440157251379034,
positive,blue,2,k,None,,,,,,,,,0,74,74,74,,,,,,,,,,,,,,,,,main,None,k,0,1.1320186000084504,377.9542083000997,None,None,1,,,,,,,,,,,,,,007,2022-05-09_13h46.11.272,Main,2022.1.1,61.440157251379034,
negative,blue,2,None,k,,,,,,,,,0,75,75,75,,,,,,,,,,,,,,,,,main,k,k,1,1.4191012000665069,381.0868844999932,None,None,0,,,,,,,,,,,,,,007,2022-05-09_13h46.11.272,Main,2022.1.1,61.440157251379034,
negative,blue,2,None,k,,,,,,,,,0,76,76,76,,,,,,,,,,,,,,,,,main,k,k,1,0.6640398000599816,383.5036710000131,None,None,0,,,,,,,,,,,,,,007,2022-05-09_13h46.11.272,Main,2022.1.1,61.440157251379034,
negative,yellow,1,k,None,,,,,,,,,0,77,77,77,,,,,,,,,,,,,,,,,main,None,None,1,1.501992299919948,385.17026540008374,None,None,1,,,,,,,,,,,,,,007,2022-05-09_13h46.11.272,Main,2022.1.1,61.440157251379034,
positive,blue,1,k,None,,,,,,,,,0,78,78,78,,,,,,,,,,,,,,,,,main,None,None,1,1.496229200041853,387.67321640008595,None,None,1,,,,,,,,,,,,,,007,2022-05-09_13h46.11.272,Main,2022.1.1,61.440157251379034,
positive,blue,1,k,None,,,,,,,,,0,79,79,79,,,,,,,,,,,,,,,,,main,None,None,1,1.498957599978894,390.17008220008574,None,None,1,,,,,,,,,,,,,,007,2022-05-09_13h46.11.272,Main,2022.1.1,61.440157251379034,
positive,red,2,None,None,,,,,,,,,0,80,80,80,,,,,,,,,,,,,,,,,main,None,None,1,1.499650300014764,392.67004620004445,None,None,1,,,,,,,,,,,,,,007,2022-05-09_13h46.11.272,Main,2022.1.1,61.440157251379034,
positive,yellow,2,None,k,,,,,,,,,0,81,81,81,,,,,,,,,,,,,,,,,main,k,k,1,0.7647708000149578,395.1698774000397,None,None,0,,,,,,,,,,,,,,007,2022-05-09_13h46.11.272,Main,2022.1.1,61.440157251379034,
positive,blue,1,k,None,,,,,,,,,0,82,82,82,,,,,,,,,,,,,,,,,main,None,None,1,1.498982400051318,396.93639280006755,None,None,1,,,,,,,,,,,,,,007,2022-05-09_13h46.11.272,Main,2022.1.1,61.440157251379034,
negative,yellow,2,k,None,,,,,,,,,0,83,83,83,,,,,,,,,,,,,,,,,main,None,None,1,1.502845500013791,399.43661920004524,None,None,1,,,,,,,,,,,,,,007,2022-05-09_13h46.11.272,Main,2022.1.1,61.440157251379034,
positive,blue,2,k,None,,,,,,,,,0,84,84,84,,,,,,,,,,,,,,,,,main,None,None,1,1.4954994999570772,401.9366028000368,None,None,1,,,,,,,,,,,,,,007,2022-05-09_13h46.11.272,Main,2022.1.1,61.440157251379034,
positive,yellow,1,None,k,,,,,,,,,0,85,85,85,,,,,,,,,,,,,,,,,main,k,k,1,1.1163170000072569,404.43619949999265,None,None,0,,,,,,,,,,,,,,007,2022-05-09_13h46.11.272,Main,2022.1.1,61.440157251379034,
positive,blue,2,k,None,,,,,,,,,0,86,86,86,,,,,,,,,,,,,,,,,main,None,None,1,1.49759540008381,406.55319890007377,None,None,1,,,,,,,,,,,,,,007,2022-05-09_13h46.11.272,Main,2022.1.1,61.440157251379034,
positive,blue,1,k,None,,,,,,,,,0,87,87,87,,,,,,,,,,,,,,,,,main,None,None,1,1.499358700006269,409.05604470008984,None,None,1,,,,,,,,,,,,,,007,2022-05-09_13h46.11.272,Main,2022.1.1,61.440157251379034,
negative,yellow,2,k,None,,,,,,,,,0,88,88,88,,,,,,,,,,,,,,,,,main,None,None,1,1.4988723000278696,411.55352750001475,None,None,1,,,,,,,,,,,,,,007,2022-05-09_13h46.11.272,Main,2022.1.1,61.440157251379034,
negative,blue,2,None,k,,,,,,,,,0,89,89,89,,,,,,,,,,,,,,,,,main,k,k,1,1.1155260000377893,414.0526340000797,None,None,0,,,,,,,,,,,,,,007,2022-05-09_13h46.11.272,Main,2022.1.1,61.440157251379034,
positive,yellow,2,None,k,,,,,,,,,0,90,90,90,,,,,,,,,,,,,,,,,main,k,k,1,1.3988794999895617,416.169595100102,None,None,0,,,,,,,,,,,,,,007,2022-05-09_13h46.11.272,Main,2022.1.1,61.440157251379034,
negative,yellow,1,k,None,,,,,,,,,0,91,91,91,,,,,,,,,,,,,,,,,main,None,None,1,1.4987590999808162,418.56955800007563,None,None,1,,,,,,,,,,,,,,007,2022-05-09_13h46.11.272,Main,2022.1.1,61.440157251379034,
negative,red,2,None,None,,,,,,,,,0,92,92,92,,,,,,,,,,,,,,,,,main,None,None,1,1.4995316000422463,421.0725259000901,None,None,1,,,,,,,,,,,,,,007,2022-05-09_13h46.11.272,Main,2022.1.1,61.440157251379034,
negative,blue,2,None,k,,,,,,,,,0,93,93,93,,,,,,,,,,,,,,,,,main,k,k,1,1.3486231999704614,423.5691105000442,None,None,0,,,,,,,,,,,,,,007,2022-05-09_13h46.11.272,Main,2022.1.1,61.440157251379034,
negative,blue,1,None,k,,,,,,,,,0,94,94,94,,,,,,,,,,,,,,,,,main,k,k,1,1.0324157000286505,425.922294100048,None,None,0,,,,,,,,,,,,,,007,2022-05-09_13h46.11.272,Main,2022.1.1,61.440157251379034,
negative,blue,1,None,k,,,,,,,,,0,95,95,95,,,,,,,,,,,,,,,,,main,k,k,1,1.6336234000045806,427.95268630003557,None,None,0,,,,,,,,,,,,,,007,2022-05-09_13h46.11.272,Main,2022.1.1,61.440157251379034,
negative,red,1,None,None,,,,,,,,,0,96,96,96,,,,,,,,,,,,,,,,,main,None,None,1,1.5039457000093535,431.5858407000778,None,None,1,,,,,,,,,,,,,,007,2022-05-09_13h46.11.272,Main,2022.1.1,61.440157251379034,
positive,yellow,1,None,k,,,,,,,,,0,97,97,97,,,,,,,,,,,,,,,,,main,k,k,1,1.1295199999585748,434.0860702000791,None,None,0,,,,,,,,,,,,,,007,2022-05-09_13h46.11.272,Main,2022.1.1,61.440157251379034,
negative,yellow,1,k,None,,,,,,,,,0,98,98,98,,,,,,,,,,,,,,,,,main,None,None,1,1.4987002999987453,436.21955250005703,None,None,1,,,,,,,,,,,,,,007,2022-05-09_13h46.11.272,Main,2022.1.1,61.440157251379034,
positive,red,1,None,None,,,,,,,,,0,99,99,99,,,,,,,,,,,,,,,,,main,None,None,1,1.4995143000269309,438.718731900095,None,None,1,,,,,,,,,,,,,,007,2022-05-09_13h46.11.272,Main,2022.1.1,61.440157251379034,
positive,blue,1,k,None,,,,,,,,,0,100,100,100,,,,,,,,,,,,,,,,,main,None,None,1,1.497728000045754,441.2191476000007,None,None,1,,,,,,,,,,,,,,007,2022-05-09_13h46.11.272,Main,2022.1.1,61.440157251379034,
negative,yellow,1,k,None,,,,,,,,,0,101,101,101,,,,,,,,,,,,,,,,,main,None,None,1,1.5027651999844238,443.71936280000955,None,None,1,,,,,,,,,,,,,,007,2022-05-09_13h46.11.272,Main,2022.1.1,61.440157251379034,
negative,blue,2,None,k,,,,,,,,,0,102,102,102,,,,,,,,,,,,,,,,,main,k,k,1,1.6953758999006823,446.22202430001926,None,None,0,,,,,,,,,,,,,,007,2022-05-09_13h46.11.272,Main,2022.1.1,61.440157251379034,
negative,yellow,2,k,None,,,,,,,,,0,103,103,103,,,,,,,,,,,,,,,,,main,None,None,1,1.5019650999456644,449.91883800004143,None,None,1,,,,,,,,,,,,,,007,2022-05-09_13h46.11.272,Main,2022.1.1,61.440157251379034,
positive,yellow,2,None,k,,,,,,,,,0,104,104,104,,,,,,,,,,,,,,,,,main,k,k,1,3.5638339000288397,452.4188770999899,None,None,0,,,,,,,,,,,,,,007,2022-05-09_13h46.11.272,Main,2022.1.1,61.440157251379034,
positive,blue,1,k,None,,,,,,,,,0,105,105,105,,,,,,,,,,,,,,,,,main,None,None,1,1.4990576999261975,457.9853957000887,None,None,1,,,,,,,,,,,,,,007,2022-05-09_13h46.11.272,Main,2022.1.1,61.440157251379034,
positive,blue,2,k,None,,,,,,,,,0,106,106,106,,,,,,,,,,,,,,,,,main,None,None,1,1.498507700045593,460.48537150002085,None,None,1,,,,,,,,,,,,,,007,2022-05-09_13h46.11.272,Main,2022.1.1,61.440157251379034,
negative,blue,1,None,k,,,,,,,,,0,107,107,107,,,,,,,,,,,,,,,,,main,k,k,1,0.8820294999750331,462.9852656000294,None,None,0,,,,,,,,,,,,,,007,2022-05-09_13h46.11.272,Main,2022.1.1,61.440157251379034,
positive,yellow,2,None,k,,,,,,,,,0,108,108,108,,,,,,,,,,,,,,,,,main,k,k,1,1.2324653000105172,464.8684216000838,None,None,0,,,,,,,,,,,,,,007,2022-05-09_13h46.11.272,Main,2022.1.1,61.440157251379034,
negative,yellow,1,k,None,,,,,,,,,0,109,109,109,,,,,,,,,,,,,,,,,main,None,None,1,1.501545700011775,467.10190030001104,None,None,1,,,,,,,,,,,,,,007,2022-05-09_13h46.11.272,Main,2022.1.1,61.440157251379034,
negative,blue,2,None,k,,,,,,,,,0,110,110,110,,,,,,,,,,,,,,,,,main,k,k,1,0.9634626999031752,469.6017640000209,None,None,0,,,,,,,,,,,,,,007,2022-05-09_13h46.11.272,Main,2022.1.1,61.440157251379034,
positive,blue,2,k,None,,,,,,,,,0,111,111,111,,,,,,,,,,,,,,,,,main,None,None,1,1.4993389999726787,471.568367500091,None,None,1,,,,,,,,,,,,,,007,2022-05-09_13h46.11.272,Main,2022.1.1,61.440157251379034,
negative,blue,1,None,k,,,,,,,,,0,112,112,112,,,,,,,,,,,,,,,,,main,k,k,1,1.4815056000370532,474.0681128000142,None,None,0,,,,,,,,,,,,,,007,2022-05-09_13h46.11.272,Main,2022.1.1,61.440157251379034,
positive,yellow,1,None,k,,,,,,,,,0,113,113,113,,,,,,,,,,,,,,,,,main,k,k,1,1.3156718000536785,476.55163960007485,None,None,0,,,,,,,,,,,,,,007,2022-05-09_13h46.11.272,Main,2022.1.1,61.440157251379034,
negative,red,1,None,None,,,,,,,,,0,114,114,114,,,,,,,,,,,,,,,,,main,None,None,1,1.4996885999571532,478.86826260003727,None,None,1,,,,,,,,,,,,,,007,2022-05-09_13h46.11.272,Main,2022.1.1,61.440157251379034,
positive,red,1,None,None,,,,,,,,,0,115,115,115,,,,,,,,,,,,,,,,,main,None,None,1,1.4976523999357596,481.3680583999958,None,None,1,,,,,,,,,,,,,,007,2022-05-09_13h46.11.272,Main,2022.1.1,61.440157251379034,
negative,red,2,None,None,,,,,,,,,0,116,116,116,,,,,,,,,,,,,,,,,main,None,None,1,1.4993975999532267,483.8681373000145,None,None,1,,,,,,,,,,,,,,007,2022-05-09_13h46.11.272,Main,2022.1.1,61.440157251379034,
negative,yellow,2,k,None,,,,,,,,,0,117,117,117,,,,,,,,,,,,,,,,,main,None,None,1,1.4896882999455556,486.3680110001005,None,None,1,,,,,,,,,,,,,,007,2022-05-09_13h46.11.272,Main,2022.1.1,61.440157251379034,
positive,yellow,1,None,k,,,,,,,,,0,118,118,118,,,,,,,,,,,,,,,,,main,k,k,1,0.8248298999387771,488.85688570002094,None,None,0,,,,,,,,,,,,,,007,2022-05-09_13h46.11.272,Main,2022.1.1,61.440157251379034,
positive,red,2,None,None,,,,,,,,,0,119,119,119,,,,,,,,,,,,,,,,,main,None,None,1,1.5023481999523938,490.68429580004886,None,None,1,,,,,,,,,,,,,,007,2022-05-09_13h46.11.272,Main,2022.1.1,61.440157251379034,
positive,blue,2,k,None,,,,,,,,,0,120,120,120,,,,,,,,,,,,,,,,,main,None,None,1,1.4963027000194415,493.1846647000639,None,None,1,,,,,,,,,,,,,,007,2022-05-09_13h46.11.272,Main,2022.1.1,61.440157251379034,
negative,red,1,None,None,,,,,,,,,0,121,121,121,,,,,,,,,,,,,,,,,main,None,None,1,1.499125499976799,495.6845593000762,None,None,1,,,,,,,,,,,,,,007,2022-05-09_13h46.11.272,Main,2022.1.1,61.440157251379034,
positive,yellow,2,None,k,,,,,,,,,0,122,122,122,,,,,,,,,,,,,,,,,main,k,k,1,1.0325254000490531,498.1874040000839,None,None,0,,,,,,,,,,,,,,007,2022-05-09_13h46.11.272,Main,2022.1.1,61.440157251379034,
negative,red,2,None,None,,,,,,,,,0,123,123,123,,,,,,,,,,,,,,,,,main,None,None,1,1.4988481000764295,500.2175911000231,None,None,1,,,,,,,,,,,,,,007,2022-05-09_13h46.11.272,Main,2022.1.1,61.440157251379034,
negative,yellow,2,k,None,,,,,,,,,0,124,124,124,,,,,,,,,,,,,,,,,main,None,k,0,1.3994642000179738,502.71782390004955,None,None,1,,,,,,,,,,,,,,007,2022-05-09_13h46.11.272,Main,2022.1.1,61.440157251379034,
positive,red,1,None,None,,,,,,,,,0,125,125,125,,,,,,,,,,,,,,,,,main,None,None,1,1.5012444999301806,506.1206567999907,None,None,1,,,,,,,,,,,,,,007,2022-05-09_13h46.11.272,Main,2022.1.1,61.440157251379034,
negative,blue,2,None,k,,,,,,,,,0,126,126,126,,,,,,,,,,,,,,,,,main,k,k,1,0.914473699987866,508.61723209999036,None,None,0,,,,,,,,,,,,,,007,2022-05-09_13h46.11.272,Main,2022.1.1,61.440157251379034,
negative,blue,1,None,k,,,,,,,,,0,127,127,127,,,,,,,,,,,,,,,,,main,k,k,1,0.9513249000301585,510.533920600079,None,None,0,,,,,,,,,,,,,,007,2022-05-09_13h46.11.272,Main,2022.1.1,61.440157251379034,
negative,yellow,1,k,None,,,,,,,,,0,128,128,128,,,,,,,,,,,,,,,,,main,None,None,1,1.4964663001010194,512.4872347000055,None,None,1,,,,,,,,,,,,,,007,2022-05-09_13h46.11.272,Main,2022.1.1,61.440157251379034,
negative,yellow,1,k,None,,,,,,,,,0,129,129,129,,,,,,,,,,,,,,,,,main,None,None,1,1.4996456000953913,514.9871487000491,None,None,1,,,,,,,,,,,,,,007,2022-05-09_13h46.11.272,Main,2022.1.1,61.440157251379034,
positive,blue,1,k,None,,,,,,,,,0,130,130,130,,,,,,,,,,,,,,,,,main,None,None,1,1.4984181999461725,517.4837209000252,None,None,1,,,,,,,,,,,,,,007,2022-05-09_13h46.11.272,Main,2022.1.1,61.440157251379034,
negative,blue,1,None,k,,,,,,,,,0,131,131,131,,,,,,,,,,,,,,,,,main,k,k,1,0.7326538000488654,519.9840576000279,None,None,0,,,,,,,,,,,,,,007,2022-05-09_13h46.11.272,Main,2022.1.1,61.440157251379034,
negative,blue,2,None,k,,,,,,,,,0,132,132,132,,,,,,,,,,,,,,,,,main,k,k,1,0.8490942999487743,521.7173829000676,None,None,0,,,,,,,,,,,,,,007,2022-05-09_13h46.11.272,Main,2022.1.1,61.440157251379034,
positive,blue,2,k,None,,,,,,,,,0,133,133,133,,,,,,,,,,,,,,,,,main,None,None,1,1.4986744000343606,523.5673569000792,None,None,1,,,,,,,,,,,,,,007,2022-05-09_13h46.11.272,Main,2022.1.1,61.440157251379034,
positive,red,2,None,None,,,,,,,,,0,134,134,134,,,,,,,,,,,,,,,,,main,None,None,1,1.5034287000307813,526.0672462000512,None,None,1,,,,,,,,,,,,,,007,2022-05-09_13h46.11.272,Main,2022.1.1,61.440157251379034,
negative,yellow,2,k,None,,,,,,,,,0,135,135,135,,,,,,,,,,,,,,,,,main,None,None,1,1.4943781999172643,528.5668705001008,None,None,1,,,,,,,,,,,,,,007,2022-05-09_13h46.11.272,Main,2022.1.1,61.440157251379034,
positive,yellow,2,None,k,,,,,,,,,0,136,136,136,,,,,,,,,,,,,,,,,main,k,k,1,0.7831608999986202,531.0670812000753,None,None,0,,,,,,,,,,,,,,007,2022-05-09_13h46.11.272,Main,2022.1.1,61.440157251379034,
positive,blue,1,k,None,,,,,,,,,0,137,137,137,,,,,,,,,,,,,,,,,main,None,None,1,1.4985184000106528,532.8505609000567,None,None,1,,,,,,,,,,,,,,007,2022-05-09_13h46.11.272,Main,2022.1.1,61.440157251379034,
positive,yellow,1,None,k,,,,,,,,,0,138,138,138,,,,,,,,,,,,,,,,,main,k,k,1,1.0990708000026643,535.350760600064,None,None,0,,,,,,,,,,,,,,007,2022-05-09_13h46.11.272,Main,2022.1.1,61.440157251379034,
positive,yellow,1,None,k,,,,,,,,,0,139,139,139,,,,,,,,,,,,,,,,,main,k,k,1,0.7674923000158742,537.4503347000573,None,None,0,,,,,,,,,,,,,,007,2022-05-09_13h46.11.272,Main,2022.1.1,61.440157251379034,
positive,yellow,1,None,k,,,,,,,,,0,140,140,140,,,,,,,,,,,,,,,,,main,k,k,1,0.7971734999446198,539.2168563000159,None,None,0,,,,,,,,,,,,,,007,2022-05-09_13h46.11.272,Main,2022.1.1,61.440157251379034,
positive,blue,1,k,None,,,,,,,,,0,141,141,141,,,,,,,,,,,,,,,,,main,None,None,1,1.4988194999750704,541.0169144000392,None,None,1,,,,,,,,,,,,,,007,2022-05-09_13h46.11.272,Main,2022.1.1,61.440157251379034,
positive,blue,2,k,None,,,,,,,,,0,142,142,142,,,,,,,,,,,,,,,,,main,None,None,1,1.4997632999438792,543.5168045000173,None,None,1,,,,,,,,,,,,,,007,2022-05-09_13h46.11.272,Main,2022.1.1,61.440157251379034,
positive,yellow,2,None,k,,,,,,,,,0,143,143,143,,,,,,,,,,,,,,,,,main,k,k,1,0.9482884000753984,546.0164432000602,None,None,0,,,,,,,,,,,,,,007,2022-05-09_13h46.11.272,Main,2022.1.1,61.440157251379034,
negative,yellow,2,k,None,,,,,,,,,0,144,144,144,,,,,,,,,,,,,,,,,main,None,None,1,1.5025341000873595,547.9667898000916,None,None,1,,,,,,,,,,,,,,007,2022-05-09_13h46.11.272,Main,2022.1.1,61.440157251379034,
negative,blue,2,None,k,,,,,,,,,0,145,145,145,,,,,,,,,,,,,,,,,main,k,k,1,0.9122894000029191,550.466773900087,None,None,0,,,,,,,,,,,,,,007,2022-05-09_13h46.11.272,Main,2022.1.1,61.440157251379034,
negative,red,1,None,None,,,,,,,,,0,146,146,146,,,,,,,,,,,,,,,,,main,None,None,1,1.4987028000177816,552.3833831000375,None,None,1,,,,,,,,,,,,,,007,2022-05-09_13h46.11.272,Main,2022.1.1,61.440157251379034,
positive,blue,1,k,None,,,,,,,,,0,147,147,147,,,,,,,,,,,,,,,,,main,None,None,1,1.4986848999978974,554.8831988000311,None,None,1,,,,,,,,,,,,,,007,2022-05-09_13h46.11.272,Main,2022.1.1,61.440157251379034,
positive,yellow,1,None,k,,,,,,,,,0,148,148,148,,,,,,,,,,,,,,,,,main,k,k,1,0.8994020000100136,557.3832411000039,None,None,0,,,,,,,,,,,,,,007,2022-05-09_13h46.11.272,Main,2022.1.1,61.440157251379034,
negative,red,2,None,None,,,,,,,,,0,149,149,149,,,,,,,,,,,,,,,,,main,None,None,1,1.4982868999941275,559.2832362999907,None,None,1,,,,,,,,,,,,,,007,2022-05-09_13h46.11.272,Main,2022.1.1,61.440157251379034,
negative,blue,1,None,k,,,,,,,,,0,150,150,150,,,,,,,,,,,,,,,,,main,k,k,1,2.0515568000264466,561.7827805000124,None,None,0,,,,,,,,,,,,,,007,2022-05-09_13h46.11.272,Main,2022.1.1,61.440157251379034,
negative,yellow,2,k,None,,,,,,,,,0,151,151,151,,,,,,,,,,,,,,,,,main,None,None,1,1.4992040999932215,565.8333402000135,None,None,1,,,,,,,,,,,,,,007,2022-05-09_13h46.11.272,Main,2022.1.1,61.440157251379034,
negative,blue,2,None,k,,,,,,,,,0,152,152,152,,,,,,,,,,,,,,,,,main,k,k,1,1.181250499910675,568.3331252000062,None,None,0,,,,,,,,,,,,,,007,2022-05-09_13h46.11.272,Main,2022.1.1,61.440157251379034,
negative,yellow,1,k,None,,,,,,,,,0,153,153,153,,,,,,,,,,,,,,,,,main,None,None,1,1.4985740999691188,570.5163567001,None,None,1,,,,,,,,,,,,,,007,2022-05-09_13h46.11.272,Main,2022.1.1,61.440157251379034,
negative,blue,1,None,k,,,,,,,,,0,154,154,154,,,,,,,,,,,,,,,,,main,k,k,1,2.532613500021398,573.0161392000737,None,None,0,,,,,,,,,,,,,,007,2022-05-09_13h46.11.272,Main,2022.1.1,61.440157251379034,
positive,yellow,2,None,k,,,,,,,,,0,155,155,155,,,,,,,,,,,,,,,,,main,k,k,1,0.9145115000428632,577.5495575000532,None,None,0,,,,,,,,,,,,,,007,2022-05-09_13h46.11.272,Main,2022.1.1,61.440157251379034,
positive,red,2,None,None,,,,,,,,,0,156,156,156,,,,,,,,,,,,,,,,,main,None,None,1,1.501933200052008,579.465748900082,None,None,1,,,,,,,,,,,,,,007,2022-05-09_13h46.11.272,Main,2022.1.1,61.440157251379034,
positive,red,1,None,None,,,,,,,,,0,157,157,157,,,,,,,,,,,,,,,,,main,None,None,1,1.4991713999770582,581.966073299991,None,None,1,,,,,,,,,,,,,,007,2022-05-09_13h46.11.272,Main,2022.1.1,61.440157251379034,
positive,blue,2,k,None,,,,,,,,,0,158,158,158,,,,,,,,,,,,,,,,,main,None,None,1,1.496116099995561,584.4659691000124,None,None,1,,,,,,,,,,,,,,007,2022-05-09_13h46.11.272,Main,2022.1.1,61.440157251379034,
negative,yellow,1,k,None,,,,,,,,,0,159,159,159,,,,,,,,,,,,,,,,,main,None,None,1,1.499758999911137,586.9660192000447,None,None,1,,,,,,,,,,,,,,007,2022-05-09_13h46.11.272,Main,2022.1.1,61.440157251379034,
negative,red,2,None,None,,,,,,,,,0,160,160,160,,,,,,,,,,,,,,,,,main,None,None,1,1.4988196999765933,589.4659442000557,None,None,1,,,,,,,,,,,,,,007,2022-05-09_13h46.11.272,Main,2022.1.1,61.440157251379034,
negative,blue,1,None,k,,,,,,,,,0,161,161,161,,,,,,,,,,,,,,,,,main,k,k,1,1.0429617000045255,591.9658157000085,None,None,0,,,,,,,,,,,,,,007,2022-05-09_13h46.11.272,Main,2022.1.1,61.440157251379034,
negative,blue,1,None,k,,,,,,,,,0,162,162,162,,,,,,,,,,,,,,,,,main,k,k,1,0.9049906000727788,594.0149308000691,None,None,0,,,,,,,,,,,,,,007,2022-05-09_13h46.11.272,Main,2022.1.1,61.440157251379034,
negative,yellow,1,k,None,,,,,,,,,0,163,163,163,,,,,,,,,,,,,,,,,main,None,None,1,1.4980651000514627,595.9154189000838,None,None,1,,,,,,,,,,,,,,007,2022-05-09_13h46.11.272,Main,2022.1.1,61.440157251379034,
negative,yellow,1,k,None,,,,,,,,,0,164,164,164,,,,,,,,,,,,,,,,,main,None,None,1,1.5020342000061646,598.4156823999947,None,None,1,,,,,,,,,,,,,,007,2022-05-09_13h46.11.272,Main,2022.1.1,61.440157251379034,
positive,yellow,1,None,k,,,,,,,,,0,165,165,165,,,,,,,,,,,,,,,,,main,k,k,1,1.7969807999907061,600.9156718000304,None,None,0,,,,,,,,,,,,,,007,2022-05-09_13h46.11.272,Main,2022.1.1,61.440157251379034,
negative,red,1,None,None,,,,,,,,,0,166,166,166,,,,,,,,,,,,,,,,,main,None,None,1,1.487316699931398,604.7152686000336,None,None,1,,,,,,,,,,,,,,007,2022-05-09_13h46.11.272,Main,2022.1.1,61.440157251379034,
negative,yellow,2,k,None,,,,,,,,,0,167,167,167,,,,,,,,,,,,,,,,,main,None,None,1,1.4959267999511212,607.1988690000726,None,None,1,,,,,,,,,,,,,,007,2022-05-09_13h46.11.272,Main,2022.1.1,61.440157251379034,
positive,blue,2,k,None,,,,,,,,,0,168,168,168,,,,,,,,,,,,,,,,,main,None,None,1,1.4999837999930605,609.6987774000736,None,None,1,,,,,,,,,,,,,,007,2022-05-09_13h46.11.272,Main,2022.1.1,61.440157251379034,
positive,red,2,None,None,,,,,,,,,0,169,169,169,,,,,,,,,,,,,,,,,main,None,None,1,1.4986054999753833,612.1986041000346,None,None,1,,,,,,,,,,,,,,007,2022-05-09_13h46.11.272,Main,2022.1.1,61.440157251379034,
positive,red,1,None,None,,,,,,,,,0,170,170,170,,,,,,,,,,,,,,,,,main,None,None,1,1.4986631999490783,614.6985985999927,None,None,1,,,,,,,,,,,,,,007,2022-05-09_13h46.11.272,Main,2022.1.1,61.440157251379034,
negative,blue,2,None,k,,,,,,,,,0,171,171,171,,,,,,,,,,,,,,,,,main,k,k,1,0.8310820000478998,617.1985929000657,None,None,0,,,,,,,,,,,,,,007,2022-05-09_13h46.11.272,Main,2022.1.1,61.440157251379034,
positive,blue,2,k,None,,,,,,,,,0,172,172,172,,,,,,,,,,,,,,,,,main,None,None,1,1.5021288000280038,619.0315554999979,None,None,1,,,,,,,,,,,,,,007,2022-05-09_13h46.11.272,Main,2022.1.1,61.440157251379034,
negative,yellow,2,k,None,,,,,,,,,0,173,173,173,,,,,,,,,,,,,,,,,main,None,None,1,1.496166600030847,621.5321529000066,None,None,1,,,,,,,,,,,,,,007,2022-05-09_13h46.11.272,Main,2022.1.1,61.440157251379034,
positive,yellow,2,None,k,,,,,,,,,0,174,174,174,,,,,,,,,,,,,,,,,main,k,k,1,0.732539499993436,624.0320605000015,None,None,0,,,,,,,,,,,,,,007,2022-05-09_13h46.11.272,Main,2022.1.1,61.440157251379034,
negative,blue,2,None,k,,,,,,,,,0,175,175,175,,,,,,,,,,,,,,,,,main,k,k,1,1.2155086999991909,625.7651646001032,None,None,0,,,,,,,,,,,,,,007,2022-05-09_13h46.11.272,Main,2022.1.1,61.440157251379034,
positive,blue,1,k,None,,,,,,,,,0,176,176,176,,,,,,,,,,,,,,,,,main,None,None,1,1.5002867999719456,627.9813466999913,None,None,1,,,,,,,,,,,,,,007,2022-05-09_13h46.11.272,Main,2022.1.1,61.440157251379034,
positive,yellow,1,None,k,,,,,,,,,0,177,177,177,,,,,,,,,,,,,,,,,main,k,k,1,1.4312783000059426,630.4817691000644,None,None,0,,,,,,,,,,,,,,007,2022-05-09_13h46.11.272,Main,2022.1.1,61.440157251379034,
positive,blue,1,k,None,,,,,,,,,0,178,178,178,,,,,,,,,,,,,,,,,main,None,None,1,1.4986633999506012,632.9149808000075,None,None,1,,,,,,,,,,,,,,007,2022-05-09_13h46.11.272,Main,2022.1.1,61.440157251379034,
positive,yellow,2,None,k,,,,,,,,,0,179,179,179,,,,,,,,,,,,,,,,,main,k,k,1,1.1656114999204874,635.4149325999897,None,None,0,,,,,,,,,,,,,,007,2022-05-09_13h46.11.272,Main,2022.1.1,61.440157251379034,
positive,blue,1,k,None,,,,,,,,,0,180,180,180,,,,,,,,,,,,,,,,,main,None,None,1,1.5020118000684306,637.5811523000011,None,None,1,,,,,,,,,,,,,,007,2022-05-09_13h46.11.272,Main,2022.1.1,61.440157251379034,
negative,red,1,None,None,,,,,,,,,0,181,181,181,,,,,,,,,,,,,,,,,main,None,None,1,1.497187600005418,640.0814639000455,None,None,1,,,,,,,,,,,,,,007,2022-05-09_13h46.11.272,Main,2022.1.1,61.440157251379034,
negative,blue,1,None,k,,,,,,,,,0,182,182,182,,,,,,,,,,,,,,,,,main,k,k,1,0.9481292000273243,642.5814318000339,None,None,0,,,,,,,,,,,,,,007,2022-05-09_13h46.11.272,Main,2022.1.1,61.440157251379034,
negative,yellow,2,k,None,,,,,,,,,0,183,183,183,,,,,,,,,,,,,,,,,main,None,None,1,1.4982548999832943,644.5315369000891,None,None,1,,,,,,,,,,,,,,007,2022-05-09_13h46.11.272,Main,2022.1.1,61.440157251379034,
positive,yellow,2,None,k,,,,,,,,,0,184,184,184,,,,,,,,,,,,,,,,,main,k,k,1,1.0644615999190137,647.0309874000959,None,None,0,,,,,,,,,,,,,,007,2022-05-09_13h46.11.272,Main,2022.1.1,61.440157251379034,
positive,yellow,1,None,k,,,,,,,,,0,185,185,185,,,,,,,,,,,,,,,,,main,k,k,1,0.6825120999710634,649.0979771000566,None,None,0,,,,,,,,,,,,,,007,2022-05-09_13h46.11.272,Main,2022.1.1,61.440157251379034,
positive,red,2,None,None,,,,,,,,,0,186,186,186,,,,,,,,,,,,,,,,,main,None,None,1,1.5018814000068232,650.7812922000885,None,None,1,,,,,,,,,,,,,,007,2022-05-09_13h46.11.272,Main,2022.1.1,61.440157251379034,
positive,blue,1,k,None,,,,,,,,,0,187,187,187,,,,,,,,,,,,,,,,,main,None,None,1,1.5008330999407917,653.2811849000864,None,None,1,,,,,,,,,,,,,,007,2022-05-09_13h46.11.272,Main,2022.1.1,61.440157251379034,
negative,yellow,1,k,None,,,,,,,,,0,188,188,188,,,,,,,,,,,,,,,,,main,None,None,1,1.4940610999474302,655.7810650001047,None,None,1,,,,,,,,,,,,,,007,2022-05-09_13h46.11.272,Main,2022.1.1,61.440157251379034,
positive,yellow,2,None,k,,,,,,,,,0,189,189,189,,,,,,,,,,,,,,,,,main,k,k,1,0.8993658000836149,658.2810454000719,None,None,0,,,,,,,,,,,,,,007,2022-05-09_13h46.11.272,Main,2022.1.1,61.440157251379034,
negative,yellow,2,k,None,,,,,,,,,0,190,190,190,,,,,,,,,,,,,,,,,main,None,None,1,1.4995540000963956,660.1809798000613,None,None,1,,,,,,,,,,,,,,007,2022-05-09_13h46.11.272,Main,2022.1.1,61.440157251379034,
negative,yellow,1,k,None,,,,,,,,,0,191,191,191,,,,,,,,,,,,,,,,,main,None,None,1,1.4980377000756562,662.6808922000928,None,None,1,,,,,,,,,,,,,,007,2022-05-09_13h46.11.272,Main,2022.1.1,61.440157251379034,
positive,blue,2,k,None,,,,,,,,,0,192,192,192,,,,,,,,,,,,,,,,,main,None,k,0,1.1993219000287354,665.1809960000683,None,None,1,,,,,,,,,,,,,,007,2022-05-09_13h46.11.272,Main,2022.1.1,61.440157251379034,
positive,yellow,1,None,k,,,,,,,,,0,193,193,193,,,,,,,,,,,,,,,,,main,k,k,1,0.7438839999958873,668.3838578000432,None,None,0,,,,,,,,,,,,,,007,2022-05-09_13h46.11.272,Main,2022.1.1,61.440157251379034,
negative,red,2,None,None,,,,,,,,,0,194,194,194,,,,,,,,,,,,,,,,,main,None,None,1,1.5031740000704303,670.1300229000626,None,None,1,,,,,,,,,,,,,,007,2022-05-09_13h46.11.272,Main,2022.1.1,61.440157251379034,
positive,red,1,None,None,,,,,,,,,0,195,195,195,,,,,,,,,,,,,,,,,main,None,None,1,1.5015968000516295,672.6304180000443,None,None,1,,,,,,,,,,,,,,007,2022-05-09_13h46.11.272,Main,2022.1.1,61.440157251379034,
negative,blue,1,None,k,,,,,,,,,0,196,196,196,,,,,,,,,,,,,,,,,main,k,k,1,0.8463358000153676,675.1311265000841,None,None,0,,,,,,,,,,,,,,007,2022-05-09_13h46.11.272,Main,2022.1.1,61.440157251379034,
positive,blue,2,k,None,,,,,,,,,0,197,197,197,,,,,,,,,,,,,,,,,main,None,None,1,1.4986200000857934,676.9806851000758,None,None,1,,,,,,,,,,,,,,007,2022-05-09_13h46.11.272,Main,2022.1.1,61.440157251379034,
negative,blue,2,None,k,,,,,,,,,0,198,198,198,,,,,,,,,,,,,,,,,main,k,k,1,0.8990439000772312,679.4809486001031,None,None,0,,,,,,,,,,,,,,007,2022-05-09_13h46.11.272,Main,2022.1.1,61.440157251379034,
negative,blue,2,None,k,,,,,,,,,0,199,199,199,,,,,,,,,,,,,,,,,main,k,k,1,0.999080799985677,681.3804836000782,None,None,0,,,,,,,,,,,,,,007,2022-05-09_13h46.11.272,Main,2022.1.1,61.440157251379034,
positive,blue,2,k,None,,,,,,,,,0,200,200,200,,,,,,,,,,,,,,,,,main,None,k,0,0.9826398999430239,683.3804710000986,None,None,1,,,,,,,,,,,,,,007,2022-05-09_13h46.11.272,Main,2022.1.1,61.440157251379034,
positive,blue,2,k,None,,,,,,,,,0,201,201,201,,,,,,,,,,,,,,,,,main,None,None,1,1.5011400999501348,686.366715000011,None,None,1,,,,,,,,,,,,,,007,2022-05-09_13h46.11.272,Main,2022.1.1,61.440157251379034,
negative,yellow,2,k,None,,,,,,,,,0,202,202,202,,,,,,,,,,,,,,,,,main,None,None,1,1.5012064999900758,688.863378600101,None,None,1,,,,,,,,,,,,,,007,2022-05-09_13h46.11.272,Main,2022.1.1,61.440157251379034,
positive,red,1,None,None,,,,,,,,,0,203,203,203,,,,,,,,,,,,,,,,,main,None,None,1,1.4988467999501154,691.3666507001035,None,None,1,,,,,,,,,,,,,,007,2022-05-09_13h46.11.272,Main,2022.1.1,61.440157251379034,
negative,blue,2,None,k,,,,,,,,,0,204,204,204,,,,,,,,,,,,,,,,,main,k,k,1,2.629825499956496,693.8636477000546,None,None,0,,,,,,,,,,,,,,007,2022-05-09_13h46.11.272,Main,2022.1.1,61.440157251379034,
negative,red,1,None,None,,,,,,,,,0,205,205,205,,,,,,,,,,,,,,,,,main,None,None,1,1.5053257999243215,698.4968080000253,None,None,1,,,,,,,,,,,,,,007,2022-05-09_13h46.11.272,Main,2022.1.1,61.440157251379034,
negative,blue,2,None,k,,,,,,,,,0,206,206,206,,,,,,,,,,,,,,,,,main,k,k,1,0.9280867000343278,700.9967852000846,None,None,0,,,,,,,,,,,,,,007,2022-05-09_13h46.11.272,Main,2022.1.1,61.440157251379034,
negative,yellow,2,k,None,,,,,,,,,0,207,207,207,,,,,,,,,,,,,,,,,main,None,None,1,1.4994810000061989,702.9301632000133,None,None,1,,,,,,,,,,,,,,007,2022-05-09_13h46.11.272,Main,2022.1.1,61.440157251379034,
positive,yellow,2,None,k,,,,,,,,,0,208,208,208,,,,,,,,,,,,,,,,,main,k,k,1,1.364993300056085,705.4297384000383,None,None,0,,,,,,,,,,,,,,007,2022-05-09_13h46.11.272,Main,2022.1.1,61.440157251379034,
negative,yellow,1,k,None,,,,,,,,,0,209,209,209,,,,,,,,,,,,,,,,,main,None,None,1,1.4986320999450982,707.7967005000683,None,None,1,,,,,,,,,,,,,,007,2022-05-09_13h46.11.272,Main,2022.1.1,61.440157251379034,
negative,red,2,None,None,,,,,,,,,0,210,210,210,,,,,,,,,,,,,,,,,main,None,None,1,1.4993088999763131,710.2966114000883,None,None,1,,,,,,,,,,,,,,007,2022-05-09_13h46.11.272,Main,2022.1.1,61.440157251379034,
negative,blue,1,None,k,,,,,,,,,0,211,211,211,,,,,,,,,,,,,,,,,main,k,k,1,1.0657738000154495,712.7975273000775,None,None,0,,,,,,,,,,,,,,007,2022-05-09_13h46.11.272,Main,2022.1.1,61.440157251379034,
negative,yellow,1,k,None,,,,,,,,,0,212,212,212,,,,,,,,,,,,,,,,,main,None,None,1,1.4983463999815285,714.8630839000689,None,None,1,,,,,,,,,,,,,,007,2022-05-09_13h46.11.272,Main,2022.1.1,61.440157251379034,
positive,blue,1,k,None,,,,,,,,,0,213,213,213,,,,,,,,,,,,,,,,,main,None,None,1,1.4991927000228316,717.3631170000881,None,None,1,,,,,,,,,,,,,,007,2022-05-09_13h46.11.272,Main,2022.1.1,61.440157251379034,
positive,blue,1,k,None,,,,,,,,,0,214,214,214,,,,,,,,,,,,,,,,,main,None,None,1,1.4987631000112742,719.8660110000055,None,None,1,,,,,,,,,,,,,,007,2022-05-09_13h46.11.272,Main,2022.1.1,61.440157251379034,
positive,yellow,1,None,k,,,,,,,,,0,215,215,215,,,,,,,,,,,,,,,,,main,k,k,1,0.7830100000137463,722.3627393000061,None,None,0,,,,,,,,,,,,,,007,2022-05-09_13h46.11.272,Main,2022.1.1,61.440157251379034,
positive,yellow,1,None,k,,,,,,,,,0,216,216,216,,,,,,,,,,,,,,,,,main,k,k,1,0.9491116999415681,724.1463203000603,None,None,0,,,,,,,,,,,,,,007,2022-05-09_13h46.11.272,Main,2022.1.1,61.440157251379034,
positive,yellow,2,None,k,,,,,,,,,0,217,217,217,,,,,,,,,,,,,,,,,main,k,k,1,0.8656373000703752,726.0962747000158,None,None,0,,,,,,,,,,,,,,007,2022-05-09_13h46.11.272,Main,2022.1.1,61.440157251379034,
negative,blue,1,None,k,,,,,,,,,0,218,218,218,,,,,,,,,,,,,,,,,main,k,k,1,2.5332043999806046,727.962916700053,None,None,0,,,,,,,,,,,,,,007,2022-05-09_13h46.11.272,Main,2022.1.1,61.440157251379034,
positive,red,2,None,None,,,,,,,,,0,219,219,219,,,,,,,,,,,,,,,,,main,None,None,1,1.5006058999570087,732.4961312999949,None,None,1,,,,,,,,,,,,,,007,2022-05-09_13h46.11.272,Main,2022.1.1,61.440157251379034,
positive,yellow,1,None,k,,,,,,,,,0,220,220,220,,,,,,,,,,,,,,,,,main,k,k,1,1.0156668999698013,734.9960361000849,None,None,0,,,,,,,,,,,,,,007,2022-05-09_13h46.11.272,Main,2022.1.1,61.440157251379034,
positive,blue,1,k,None,,,,,,,,,0,221,221,221,,,,,,,,,,,,,,,,,main,None,None,1,1.4993399999802932,737.0126656000502,None,None,1,,,,,,,,,,,,,,007,2022-05-09_13h46.11.272,Main,2022.1.1,61.440157251379034,
positive,yellow,2,None,k,,,,,,,,,0,222,222,222,,,,,,,,,,,,,,,,,main,k,k,1,0.9985729000763968,739.5123475000728,None,None,0,,,,,,,,,,,,,,007,2022-05-09_13h46.11.272,Main,2022.1.1,61.440157251379034,
negative,yellow,1,k,None,,,,,,,,,0,223,223,223,,,,,,,,,,,,,,,,,main,None,None,1,1.498743599979207,741.5156879000133,None,None,1,,,,,,,,,,,,,,007,2022-05-09_13h46.11.272,Main,2022.1.1,61.440157251379034,
positive,yellow,2,None,k,,,,,,,,,0,224,224,224,,,,,,,,,,,,,,,,,main,k,k,1,1.116435799980536,744.015516799991,None,None,0,,,,,,,,,,,,,,007,2022-05-09_13h46.11.272,Main,2022.1.1,61.440157251379034,
negative,yellow,2,k,None,,,,,,,,,0,225,225,225,,,,,,,,,,,,,,,,,main,None,None,1,1.4987370000453666,746.129088900052,None,None,1,,,,,,,,,,,,,,007,2022-05-09_13h46.11.272,Main,2022.1.1,61.440157251379034,
negative,blue,2,None,k,,,,,,,,,0,226,226,226,,,,,,,,,,,,,,,,,main,k,k,1,1.6985463999444619,748.6288647000911,None,None,0,,,,,,,,,,,,,,007,2022-05-09_13h46.11.272,Main,2022.1.1,61.440157251379034,
positive,red,2,None,None,,,,,,,,,0,227,227,227,,,,,,,,,,,,,,,,,main,None,None,1,1.4981699999189004,752.3290602000197,None,None,1,,,,,,,,,,,,,,007,2022-05-09_13h46.11.272,Main,2022.1.1,61.440157251379034,
positive,blue,2,k,None,,,,,,,,,0,228,228,228,,,,,,,,,,,,,,,,,main,None,None,1,1.4998429999686778,754.8290279000066,None,None,1,,,,,,,,,,,,,,007,2022-05-09_13h46.11.272,Main,2022.1.1,61.440157251379034,
negative,blue,1,None,k,,,,,,,,,0,229,229,229,,,,,,,,,,,,,,,,,main,k,k,1,-0.7345141000114381,757.3288508000551,None,None,0,,,,,,,,,,,,,,007,2022-05-09_13h46.11.272,Main,2022.1.1,61.440157251379034,
positive,yellow,1,None,k,,,,,,,,,0,230,230,230,,,,,,,,,,,,,,,,,main,k,k,1,1.5682776999892667,760.5954712000675,None,None,0,,,,,,,,,,,,,,007,2022-05-09_13h46.11.272,Main,2022.1.1,61.440157251379034,
negative,blue,2,None,k,,,,,,,,,0,231,231,231,,,,,,,,,,,,,,,,,main,k,k,1,0.9509054999798536,764.1617666000966,None,None,0,,,,,,,,,,,,,,007,2022-05-09_13h46.11.272,Main,2022.1.1,61.440157251379034,
negative,red,1,None,None,,,,,,,,,0,232,232,232,,,,,,,,,,,,,,,,,main,None,None,1,1.4989366999361664,766.1117852000752,None,None,1,,,,,,,,,,,,,,007,2022-05-09_13h46.11.272,Main,2022.1.1,61.440157251379034,
positive,blue,2,k,None,,,,,,,,,0,233,233,233,,,,,,,,,,,,,,,,,main,None,None,1,1.5039130999939516,768.6120160000864,None,None,1,,,,,,,,,,,,,,007,2022-05-09_13h46.11.272,Main,2022.1.1,61.440157251379034,
negative,yellow,1,k,None,,,,,,,,,0,234,234,234,,,,,,,,,,,,,,,,,main,None,None,1,1.4938601000467315,771.1120494999923,None,None,1,,,,,,,,,,,,,,007,2022-05-09_13h46.11.272,Main,2022.1.1,61.440157251379034,
negative,yellow,2,k,None,,,,,,,,,0,235,235,235,,,,,,,,,,,,,,,,,main,None,None,1,1.4998497000196949,773.6117911000038,None,None,1,,,,,,,,,,,,,,007,2022-05-09_13h46.11.272,Main,2022.1.1,61.440157251379034,
positive,red,1,None,None,,,,,,,,,0,236,236,236,,,,,,,,,,,,,,,,,main,None,None,1,1.498601899947971,776.1119678000687,None,None,1,,,,,,,,,,,,,,007,2022-05-09_13h46.11.272,Main,2022.1.1,61.440157251379034,
negative,red,2,None,None,,,,,,,,,0,237,237,237,,,,,,,,,,,,,,,,,main,None,None,1,1.499185899971053,778.6117837000638,None,None,1,,,,,,,,,,,,,,007,2022-05-09_13h46.11.272,Main,2022.1.1,61.440157251379034,
negative,blue,1,None,k,,,,,,,,,0,238,238,238,,,,,,,,,,,,,,,,,main,k,k,1,0.8484261999838054,781.1115139999893,None,None,0,,,,,,,,,,,,,,007,2022-05-09_13h46.11.272,Main,2022.1.1,61.440157251379034,
positive,blue,1,k,None,,,,,,,,,0,239,239,239,,,,,,,,,,,,,,,,,main,None,None,1,1.4989880999783054,782.9647603000049,None,None,1,,,,,,,,,,,,,,007,2022-05-09_13h46.11.272,Main,2022.1.1,61.440157251379034,
,,,,,,,,,,,,,,,,,,,,,,,,,,,,,,,,,,,,,,,,,,,,,,,,,,,,,785.4616923000431,None,,,,,,
