distractor,target,set,ans1,ans2,rep_loop4.thisRepN,rep_loop4.thisTrialN,rep_loop4.thisN,rep_loop4.thisIndex,st2_prac_loop.thisRepN,st2_prac_loop.thisTrialN,st2_prac_loop.thisN,st2_prac_loop.thisIndex,st2_main_loop.thisRepN,st2_main_loop.thisTrialN,st2_main_loop.thisN,st2_main_loop.thisIndex,image_4.started,image_4.stopped,sound_2.started,sound_2.stopped,key_resp_3.keys,key_resp_3.rt,image_5.started,image_5.stopped,st_prac_back.started,st_prac_back.stopped,st_prac_text.started,st_prac_text.stopped,st_fix_back.started,st_fix_back.stopped,st_fix_2.started,st_fix_2.stopped,main_prac,st_ans,st_res,st_corr,st_rt,st_back.started,st_back.stopped,st2_resp.keys,st2_resp.corr,st_main_back.started,st_main_back.stopped,st_main_text.started,st_main_text.stopped,mouse_4.x,mouse_4.y,mouse_4.leftButton,mouse_4.midButton,mouse_4.rightButton,mouse_4.started,mouse_4.stopped,text_2.started,text_2.stopped,id*,date,expName,psychopyVersion,frameRate,
negative,yellow,1,k,None,,,,,0,0,0,0,,,,,30.45345210004598,None,101.70317349001998,None,space,1.7786798999877647,103.50021800003015,None,104.76690499996766,None,104.76690499996766,None,106.76684269995894,None,106.76684269995894,None,prac,k,k,1,2.1605389999458566,108.7665026000468,None,None,0,,,,,,,,,,,,,,008,2022-05-09_15h38.49.575,Main,2022.1.1,60.1942589059272,
positive,red,2,None,None,,,,,0,1,1,1,,,,,,,,,,,,,,,,,,,,,prac,None,None,1,1.487388499896042,112.93344519997481,None,None,1,,,,,,,,,,,,,,008,2022-05-09_15h38.49.575,Main,2022.1.1,60.1942589059272,
negative,blue,2,None,k,,,,,0,2,2,2,,,,,,,,,,,,,,,,,,,,,prac,None,None,1,1.495364399976097,115.41671999997925,None,None,1,,,,,,,,,,,,,,008,2022-05-09_15h38.49.575,Main,2022.1.1,60.1942589059272,
positive,yellow,1,None,k,,,,,0,3,3,3,,,,,,,,,,,,,,,,,,,,,prac,None,None,1,1.499424000037834,117.91630300006364,None,None,1,,,,,,,,,,,,,,008,2022-05-09_15h38.49.575,Main,2022.1.1,60.1942589059272,
negative,blue,2,None,k,,,,,0,4,4,4,,,,,,,,,,,,,,,,,,,,,prac,None,None,1,1.5019348999485373,120.41660900006536,None,None,1,,,,,,,,,,,,,,008,2022-05-09_15h38.49.575,Main,2022.1.1,60.1942589059272,
negative,blue,1,None,k,,,,,0,5,5,5,,,,,,,,,,,,,,,,,,,,,prac,None,None,1,1.4960784999420866,122.91951070004143,None,None,1,,,,,,,,,,,,,,008,2022-05-09_15h38.49.575,Main,2022.1.1,60.1942589059272,
negative,yellow,2,k,None,,,,,0,6,6,6,,,,,,,,,,,,,,,,,,,,,prac,k,k,1,1.0155593000818044,125.41650649998337,None,None,0,,,,,,,,,,,,,,008,2022-05-09_15h38.49.575,Main,2022.1.1,60.1942589059272,
negative,red,1,None,None,,,,,0,7,7,7,,,,,,,,,,,,,,,,,,,,,prac,None,None,1,1.502195299952291,127.43275280005764,None,None,1,,,,,,,,,,,,,,008,2022-05-09_15h38.49.575,Main,2022.1.1,60.1942589059272,
positive,yellow,2,None,k,,,,,0,8,8,8,,,,,,,,,,,,,,,,,,,,,prac,None,None,1,1.4960537999868393,129.93604119995143,None,None,1,,,,,,,,,,,,,,008,2022-05-09_15h38.49.575,Main,2022.1.1,60.1942589059272,
negative,yellow,1,k,None,,,,,0,9,9,9,,,,,,,,,,,,,,,,,,,,,prac,k,k,1,-0.750874700024724,132.43597600003704,None,None,0,,,,,,,,,,,,,,008,2022-05-09_15h38.49.575,Main,2022.1.1,60.1942589059272,
positive,yellow,2,None,k,,,,,0,10,10,10,,,,,,,,,,,,,,,,,,,,,prac,None,None,1,1.5005892000626773,135.68289120006375,None,None,1,,,,,,,,,,,,,,008,2022-05-09_15h38.49.575,Main,2022.1.1,60.1942589059272,
negative,yellow,2,k,None,,,,,0,11,11,11,,,,,,,,,,,,,,,,,,,,,prac,k,k,1,1.0600132999243215,138.1827867999673,None,None,0,,,,,,,,,,,,,,008,2022-05-09_15h38.49.575,Main,2022.1.1,60.1942589059272,
negative,red,2,None,None,,,,,0,12,12,12,,,,,,,,,,,,,,,,,,,,,prac,None,None,1,1.5012387000024319,140.24000270001125,None,None,1,,,,,,,,,,,,,,008,2022-05-09_15h38.49.575,Main,2022.1.1,60.1942589059272,
positive,red,1,None,None,,,,,0,13,13,13,,,,,,,,,,,,,,,,,,,,,prac,None,None,1,1.4996173999970779,142.7494007999776,None,None,1,,,,,,,,,,,,,,008,2022-05-09_15h38.49.575,Main,2022.1.1,60.1942589059272,
positive,blue,2,k,None,,,,,0,14,14,14,,,,,,,,,,,,,,,,,,,,,prac,k,k,1,0.814700199989602,145.24908910004888,None,None,0,,,,,,,,,,,,,,008,2022-05-09_15h38.49.575,Main,2022.1.1,60.1942589059272,
positive,blue,1,k,None,,,,,0,15,15,15,,,,,,,,,,,,,,,,,,,,,prac,k,k,1,1.0663372999988496,147.06569209997542,None,None,0,,,,,,,,,,,,,,008,2022-05-09_15h38.49.575,Main,2022.1.1,60.1942589059272,
negative,blue,1,None,k,,,,,0,16,16,16,,,,,,,,,,,,,,,,,,,,,prac,None,None,1,1.4983555999351665,149.13563889998477,None,None,1,,,,,,,,,,,,,,008,2022-05-09_15h38.49.575,Main,2022.1.1,60.1942589059272,
positive,blue,2,k,None,,,,,0,17,17,17,,,,,,,,,,,,,,,,,,,,,prac,k,k,1,0.9492021000478417,151.63259739999194,None,None,0,,,,,,,,,,,,,,008,2022-05-09_15h38.49.575,Main,2022.1.1,60.1942589059272,
positive,blue,1,k,None,,,,,0,18,18,18,,,,,,,,,,,,,,,,,,,,,prac,k,k,1,0.9653920000419021,153.5825495000463,None,None,0,,,,,,,,,,,,,,008,2022-05-09_15h38.49.575,Main,2022.1.1,60.1942589059272,
positive,yellow,1,None,k,,,,,0,19,19,19,,,,,,,,,,,,,,,,,,,,,prac,None,None,1,1.500439300085418,155.54879869997967,None,None,1,,,,,,,,,,,,,,008,2022-05-09_15h38.49.575,Main,2022.1.1,60.1942589059272,
negative,yellow,1,k,None,,,,,1,0,20,0,,,,,,,,,,,,,,,,,,,,,prac,k,k,1,0.9307968999492005,158.04881710000336,None,None,0,,,,,,,,,,,,,,008,2022-05-09_15h38.49.575,Main,2022.1.1,60.1942589059272,
positive,red,2,None,None,,,,,1,1,21,1,,,,,,,,,,,,,,,,,,,,,prac,None,None,1,1.5015583999920636,159.98238309996668,None,None,1,,,,,,,,,,,,,,008,2022-05-09_15h38.49.575,Main,2022.1.1,60.1942589059272,
negative,blue,2,None,k,,,,,1,2,22,2,,,,,,,,,,,,,,,,,,,,,prac,None,k,0,0.9795461999019608,162.4853103000205,None,None,1,,,,,,,,,,,,,,008,2022-05-09_15h38.49.575,Main,2022.1.1,60.1942589059272,
positive,yellow,1,None,k,,,,,1,3,23,3,,,,,,,,,,,,,,,,,,,,,prac,None,None,1,1.5014292999403551,165.46551210002508,None,None,1,,,,,,,,,,,,,,008,2022-05-09_15h38.49.575,Main,2022.1.1,60.1942589059272,
negative,blue,2,None,k,,,,,1,4,24,4,,,,,,,,,,,,,,,,,,,,,prac,None,None,1,1.4974347000243142,167.96544699999504,None,None,1,,,,,,,,,,,,,,008,2022-05-09_15h38.49.575,Main,2022.1.1,60.1942589059272,
negative,blue,1,None,k,,,,,1,5,25,5,,,,,,,,,,,,,,,,,,,,,prac,None,None,1,1.5013906999956816,170.46544429997448,None,None,1,,,,,,,,,,,,,,008,2022-05-09_15h38.49.575,Main,2022.1.1,60.1942589059272,
negative,yellow,2,k,None,,,,,1,6,26,6,,,,,,,,,,,,,,,,,,,,,prac,k,k,1,1.0959768000757322,172.96838590002153,None,None,0,,,,,,,,,,,,,,008,2022-05-09_15h38.49.575,Main,2022.1.1,60.1942589059272,
negative,red,1,None,None,,,,,1,7,27,7,,,,,,,,,,,,,,,,,,,,,prac,None,None,1,1.4994940999895334,175.06505169998854,None,None,1,,,,,,,,,,,,,,008,2022-05-09_15h38.49.575,Main,2022.1.1,60.1942589059272,
positive,yellow,2,None,k,,,,,1,8,28,8,,,,,,,,,,,,,,,,,,,,,prac,None,None,1,1.4987559000728652,177.5653628000291,None,None,1,,,,,,,,,,,,,,008,2022-05-09_15h38.49.575,Main,2022.1.1,60.1942589059272,
negative,yellow,1,k,None,,,,,1,9,29,9,,,,,,,,,,,,,,,,,,,,,prac,k,k,1,1.0991884999675676,180.06530979997478,None,None,0,,,,,,,,,,,,,,008,2022-05-09_15h38.49.575,Main,2022.1.1,60.1942589059272,
positive,yellow,2,None,k,,,,,1,10,30,10,,,,,,,,,,,,,,,,,,,,,prac,None,None,1,1.4989842999493703,182.1652617000509,None,None,1,,,,,,,,,,,,,,008,2022-05-09_15h38.49.575,Main,2022.1.1,60.1942589059272,
negative,yellow,2,k,None,,,,,1,11,31,11,,,,,,,,,,,,,,,,,,,,,prac,k,k,1,0.8482690999517217,184.6648956000572,None,None,0,,,,,,,,,,,,,,008,2022-05-09_15h38.49.575,Main,2022.1.1,60.1942589059272,
negative,red,2,None,None,,,,,1,12,32,12,,,,,,,,,,,,,,,,,,,,,prac,None,None,1,1.5027216000016779,186.51542219996918,None,None,1,,,,,,,,,,,,,,008,2022-05-09_15h38.49.575,Main,2022.1.1,60.1942589059272,
positive,red,1,None,None,,,,,1,13,33,13,,,,,,,,,,,,,,,,,,,,,prac,None,None,1,1.4947367999702692,189.0151070000138,None,None,1,,,,,,,,,,,,,,008,2022-05-09_15h38.49.575,Main,2022.1.1,60.1942589059272,
positive,blue,2,k,None,,,,,1,14,34,14,,,,,,,,,,,,,,,,,,,,,prac,k,k,1,0.7823497999925166,191.5146875999635,None,None,0,,,,,,,,,,,,,,008,2022-05-09_15h38.49.575,Main,2022.1.1,60.1942589059272,
positive,blue,1,k,None,,,,,1,15,35,15,,,,,,,,,,,,,,,,,,,,,prac,k,k,1,0.9160995000274852,193.29795999999624,None,None,0,,,,,,,,,,,,,,008,2022-05-09_15h38.49.575,Main,2022.1.1,60.1942589059272,
negative,blue,1,None,k,,,,,1,16,36,16,,,,,,,,,,,,,,,,,,,,,prac,None,None,1,1.4983497000066563,195.21498299995437,None,None,1,,,,,,,,,,,,,,008,2022-05-09_15h38.49.575,Main,2022.1.1,60.1942589059272,
positive,blue,2,k,None,,,,,1,17,37,17,,,,,,,,,,,,,,,,,,,,,prac,k,k,1,0.9159138000104576,197.7149183000438,None,None,0,,,,,,,,,,,,,,008,2022-05-09_15h38.49.575,Main,2022.1.1,60.1942589059272,
positive,blue,1,k,None,,,,,1,18,38,18,,,,,,,,,,,,,,,,,,,,,prac,k,k,1,0.9986668999772519,199.63154650002252,None,None,0,,,,,,,,,,,,,,008,2022-05-09_15h38.49.575,Main,2022.1.1,60.1942589059272,
positive,yellow,1,None,k,,,,,1,19,39,19,,,,,,,,,,,,,,,,,,,,,prac,None,None,1,1.502172900014557,201.63113190000877,None,None,1,,,,,,,,,,,,,,008,2022-05-09_15h38.49.575,Main,2022.1.1,60.1942589059272,
,,,,,,,,,,,,,,,,,,,,,,,,,,,,,,,,,,,,,,,,,,204.13433939998504,None,204.13433939998504,None,0.09351852,-0.16111112,0,0,0,0.014267290011048317,None,,,008,2022-05-09_15h38.49.575,Main,2022.1.1,60.1942589059272,
negative,yellow,2,k,None,,,,,,,,,0,0,0,0,,,,,,,,,,,,,205.8814947999781,None,205.8814947999781,None,main,k,k,1,0.965917200082913,207.90695590001997,None,None,0,,,,,,,,,,,,,,008,2022-05-09_15h38.49.575,Main,2022.1.1,60.1942589059272,
positive,red,1,None,None,,,,,,,,,0,1,1,1,,,,,,,,,,,,,,,,,main,None,None,1,1.4986021000659093,209.88119850005023,None,None,1,,,,,,,,,,,,,,008,2022-05-09_15h38.49.575,Main,2022.1.1,60.1942589059272,
positive,blue,2,k,None,,,,,,,,,0,2,2,2,,,,,,,,,,,,,,,,,main,k,k,1,1.0668716999934986,212.381162900012,None,None,0,,,,,,,,,,,,,,008,2022-05-09_15h38.49.575,Main,2022.1.1,60.1942589059272,
positive,blue,1,k,None,,,,,,,,,0,3,3,3,,,,,,,,,,,,,,,,,main,k,k,1,1.0314384000375867,214.4478216000134,None,None,0,,,,,,,,,,,,,,008,2022-05-09_15h38.49.575,Main,2022.1.1,60.1942589059272,
negative,yellow,2,k,None,,,,,,,,,0,4,4,4,,,,,,,,,,,,,,,,,main,k,k,1,0.9486999999498948,216.48117729998194,None,None,0,,,,,,,,,,,,,,008,2022-05-09_15h38.49.575,Main,2022.1.1,60.1942589059272,
positive,yellow,2,None,k,,,,,,,,,0,5,5,5,,,,,,,,,,,,,,,,,main,None,None,1,1.5024234000593424,218.43076160002965,None,None,1,,,,,,,,,,,,,,008,2022-05-09_15h38.49.575,Main,2022.1.1,60.1942589059272,
negative,blue,2,None,k,,,,,,,,,0,6,6,6,,,,,,,,,,,,,,,,,main,None,None,1,1.4958098999923095,220.93415610003285,None,None,1,,,,,,,,,,,,,,008,2022-05-09_15h38.49.575,Main,2022.1.1,60.1942589059272,
positive,red,2,None,None,,,,,,,,,0,7,7,7,,,,,,,,,,,,,,,,,main,None,None,1,1.4990082000149414,223.43399000004865,None,None,1,,,,,,,,,,,,,,008,2022-05-09_15h38.49.575,Main,2022.1.1,60.1942589059272,
positive,yellow,1,None,k,,,,,,,,,0,8,8,8,,,,,,,,,,,,,,,,,main,None,None,1,1.4989011998986825,225.93100970005617,None,None,1,,,,,,,,,,,,,,008,2022-05-09_15h38.49.575,Main,2022.1.1,60.1942589059272,
negative,red,1,None,None,,,,,,,,,0,9,9,9,,,,,,,,,,,,,,,,,main,None,None,1,1.4988890000386164,228.4308117000619,None,None,1,,,,,,,,,,,,,,008,2022-05-09_15h38.49.575,Main,2022.1.1,60.1942589059272,
positive,yellow,1,None,k,,,,,,,,,0,10,10,10,,,,,,,,,,,,,,,,,main,None,None,1,1.502041499945335,230.93085350003093,None,None,1,,,,,,,,,,,,,,008,2022-05-09_15h38.49.575,Main,2022.1.1,60.1942589059272,
negative,yellow,1,k,None,,,,,,,,,0,11,11,11,,,,,,,,,,,,,,,,,main,k,k,1,0.9466366999549791,233.4307462000288,None,None,0,,,,,,,,,,,,,,008,2022-05-09_15h38.49.575,Main,2022.1.1,60.1942589059272,
negative,yellow,1,k,None,,,,,,,,,0,12,12,12,,,,,,,,,,,,,,,,,main,k,k,1,0.8483715000329539,235.38072450004984,None,None,0,,,,,,,,,,,,,,008,2022-05-09_15h38.49.575,Main,2022.1.1,60.1942589059272,
negative,red,2,None,None,,,,,,,,,0,13,13,13,,,,,,,,,,,,,,,,,main,None,None,1,1.5021660999627784,237.2303649999667,None,None,1,,,,,,,,,,,,,,008,2022-05-09_15h38.49.575,Main,2022.1.1,60.1942589059272,
positive,yellow,2,None,k,,,,,,,,,0,14,14,14,,,,,,,,,,,,,,,,,main,None,None,1,1.4990961999865249,239.73065469996072,None,None,1,,,,,,,,,,,,,,008,2022-05-09_15h38.49.575,Main,2022.1.1,60.1942589059272,
positive,blue,1,k,None,,,,,,,,,0,15,15,15,,,,,,,,,,,,,,,,,main,k,k,1,1.1629354999167845,242.2335167999845,None,None,0,,,,,,,,,,,,,,008,2022-05-09_15h38.49.575,Main,2022.1.1,60.1942589059272,
negative,blue,1,None,k,,,,,,,,,0,16,16,16,,,,,,,,,,,,,,,,,main,None,None,1,1.4984944000607356,244.400202000048,None,None,1,,,,,,,,,,,,,,008,2022-05-09_15h38.49.575,Main,2022.1.1,60.1942589059272,
positive,blue,2,k,None,,,,,,,,,0,17,17,17,,,,,,,,,,,,,,,,,main,k,k,1,0.897647799924016,246.8968742999714,None,None,0,,,,,,,,,,,,,,008,2022-05-09_15h38.49.575,Main,2022.1.1,60.1942589059272,
negative,blue,2,None,k,,,,,,,,,0,18,18,18,,,,,,,,,,,,,,,,,main,None,None,1,1.4989900999935344,248.80001500004437,None,None,1,,,,,,,,,,,,,,008,2022-05-09_15h38.49.575,Main,2022.1.1,60.1942589059272,
negative,blue,1,None,k,,,,,,,,,0,19,19,19,,,,,,,,,,,,,,,,,main,None,None,1,1.4984537001000717,251.29707950004376,None,None,1,,,,,,,,,,,,,,008,2022-05-09_15h38.49.575,Main,2022.1.1,60.1942589059272,
negative,blue,1,None,k,,,,,,,,,0,20,20,20,,,,,,,,,,,,,,,,,main,None,None,1,1.499352699960582,253.7966520000482,None,None,1,,,,,,,,,,,,,,008,2022-05-09_15h38.49.575,Main,2022.1.1,60.1942589059272,
negative,blue,2,None,k,,,,,,,,,0,21,21,21,,,,,,,,,,,,,,,,,main,None,None,1,1.499017900088802,256.2999476999976,None,None,1,,,,,,,,,,,,,,008,2022-05-09_15h38.49.575,Main,2022.1.1,60.1942589059272,
negative,red,1,None,None,,,,,,,,,0,22,22,22,,,,,,,,,,,,,,,,,main,None,None,1,1.4990833000047132,258.79989599995315,None,None,1,,,,,,,,,,,,,,008,2022-05-09_15h38.49.575,Main,2022.1.1,60.1942589059272,
positive,red,2,None,None,,,,,,,,,0,23,23,23,,,,,,,,,,,,,,,,,main,None,None,1,1.4986073999898508,261.2968594999984,None,None,1,,,,,,,,,,,,,,008,2022-05-09_15h38.49.575,Main,2022.1.1,60.1942589059272,
negative,red,2,None,None,,,,,,,,,0,24,24,24,,,,,,,,,,,,,,,,,main,None,None,1,1.499458899954334,263.7964443999808,None,None,1,,,,,,,,,,,,,,008,2022-05-09_15h38.49.575,Main,2022.1.1,60.1942589059272,
positive,blue,2,k,None,,,,,,,,,0,25,25,25,,,,,,,,,,,,,,,,,main,k,k,1,1.1657472000224516,266.29675720003434,None,None,0,,,,,,,,,,,,,,008,2022-05-09_15h38.49.575,Main,2022.1.1,60.1942589059272,
negative,yellow,1,k,None,,,,,,,,,0,26,26,26,,,,,,,,,,,,,,,,,main,k,k,1,1.0353186000138521,268.4662911000196,None,None,0,,,,,,,,,,,,,,008,2022-05-09_15h38.49.575,Main,2022.1.1,60.1942589059272,
positive,blue,2,k,None,,,,,,,,,0,27,27,27,,,,,,,,,,,,,,,,,main,k,k,1,0.7457155999727547,270.49962010001764,None,None,0,,,,,,,,,,,,,,008,2022-05-09_15h38.49.575,Main,2022.1.1,60.1942589059272,
negative,blue,2,None,k,,,,,,,,,0,28,28,28,,,,,,,,,,,,,,,,,main,None,None,1,1.5023305000504479,272.2462199999718,None,None,1,,,,,,,,,,,,,,008,2022-05-09_15h38.49.575,Main,2022.1.1,60.1942589059272,
positive,red,1,None,None,,,,,,,,,0,29,29,29,,,,,,,,,,,,,,,,,main,None,None,1,1.4960497999563813,274.7494813000085,None,None,1,,,,,,,,,,,,,,008,2022-05-09_15h38.49.575,Main,2022.1.1,60.1942589059272,
positive,blue,1,k,None,,,,,,,,,0,30,30,30,,,,,,,,,,,,,,,,,main,k,k,1,1.7492138999514282,277.2494663000107,None,None,0,,,,,,,,,,,,,,008,2022-05-09_15h38.49.575,Main,2022.1.1,60.1942589059272,
positive,yellow,1,None,k,,,,,,,,,0,31,31,31,,,,,,,,,,,,,,,,,main,None,None,1,1.4981146999634802,280.9963263999671,None,None,1,,,,,,,,,,,,,,008,2022-05-09_15h38.49.575,Main,2022.1.1,60.1942589059272,
negative,yellow,2,k,None,,,,,,,,,0,32,32,32,,,,,,,,,,,,,,,,,main,k,k,1,0.950609799940139,283.4963170000119,None,None,0,,,,,,,,,,,,,,008,2022-05-09_15h38.49.575,Main,2022.1.1,60.1942589059272,
negative,blue,1,None,k,,,,,,,,,0,33,33,33,,,,,,,,,,,,,,,,,main,None,None,1,1.4971809999551624,285.446262100013,None,None,1,,,,,,,,,,,,,,008,2022-05-09_15h38.49.575,Main,2022.1.1,60.1942589059272,
positive,blue,1,k,None,,,,,,,,,0,34,34,34,,,,,,,,,,,,,,,,,main,k,k,1,0.6991943999892101,287.94623160001356,None,None,0,,,,,,,,,,,,,,008,2022-05-09_15h38.49.575,Main,2022.1.1,60.1942589059272,
negative,yellow,1,k,None,,,,,,,,,0,35,35,35,,,,,,,,,,,,,,,,,main,k,k,1,1.0653062999481335,289.64621210005134,None,None,0,,,,,,,,,,,,,,008,2022-05-09_15h38.49.575,Main,2022.1.1,60.1942589059272,
positive,yellow,2,None,k,,,,,,,,,0,36,36,36,,,,,,,,,,,,,,,,,main,None,None,1,1.4993994000833482,291.71250569995027,None,None,1,,,,,,,,,,,,,,008,2022-05-09_15h38.49.575,Main,2022.1.1,60.1942589059272,
positive,yellow,2,None,k,,,,,,,,,0,37,37,37,,,,,,,,,,,,,,,,,main,None,None,1,1.4990588000509888,294.21582080004737,None,None,1,,,,,,,,,,,,,,008,2022-05-09_15h38.49.575,Main,2022.1.1,60.1942589059272,
negative,yellow,2,k,None,,,,,,,,,0,38,38,38,,,,,,,,,,,,,,,,,main,k,k,1,1.015986300073564,296.715721399989,None,None,0,,,,,,,,,,,,,,008,2022-05-09_15h38.49.575,Main,2022.1.1,60.1942589059272,
positive,yellow,1,None,k,,,,,,,,,0,39,39,39,,,,,,,,,,,,,,,,,main,None,None,1,1.4993136998964474,298.73233919998165,None,None,1,,,,,,,,,,,,,,008,2022-05-09_15h38.49.575,Main,2022.1.1,60.1942589059272,
negative,yellow,2,k,None,,,,,,,,,0,40,40,40,,,,,,,,,,,,,,,,,main,k,k,1,1.566990000079386,301.2290139000397,None,None,0,,,,,,,,,,,,,,008,2022-05-09_15h38.49.575,Main,2022.1.1,60.1942589059272,
positive,blue,2,k,None,,,,,,,,,0,41,41,41,,,,,,,,,,,,,,,,,main,k,k,1,0.9512587999925017,304.79887870000675,None,None,0,,,,,,,,,,,,,,008,2022-05-09_15h38.49.575,Main,2022.1.1,60.1942589059272,
positive,blue,2,k,None,,,,,,,,,0,42,42,42,,,,,,,,,,,,,,,,,main,k,k,1,0.815338599961251,306.7458831999684,None,None,0,,,,,,,,,,,,,,008,2022-05-09_15h38.49.575,Main,2022.1.1,60.1942589059272,
negative,blue,2,None,k,,,,,,,,,0,43,43,43,,,,,,,,,,,,,,,,,main,None,None,1,1.498537400038913,308.56238480005413,None,None,1,,,,,,,,,,,,,,008,2022-05-09_15h38.49.575,Main,2022.1.1,60.1942589059272,
negative,red,1,None,None,,,,,,,,,0,44,44,44,,,,,,,,,,,,,,,,,main,None,None,1,1.4984874000074342,311.06240539997816,None,None,1,,,,,,,,,,,,,,008,2022-05-09_15h38.49.575,Main,2022.1.1,60.1942589059272,
negative,yellow,1,k,None,,,,,,,,,0,45,45,45,,,,,,,,,,,,,,,,,main,k,k,1,0.8327285000123084,313.5623207000317,None,None,0,,,,,,,,,,,,,,008,2022-05-09_15h38.49.575,Main,2022.1.1,60.1942589059272,
negative,yellow,1,k,None,,,,,,,,,0,46,46,46,,,,,,,,,,,,,,,,,main,k,k,1,0.8505594000453129,315.39563899999484,None,None,0,,,,,,,,,,,,,,008,2022-05-09_15h38.49.575,Main,2022.1.1,60.1942589059272,
positive,red,1,None,None,,,,,,,,,0,47,47,47,,,,,,,,,,,,,,,,,main,None,None,1,1.4970193000044674,317.2456441000104,None,None,1,,,,,,,,,,,,,,008,2022-05-09_15h38.49.575,Main,2022.1.1,60.1942589059272,
positive,yellow,1,None,k,,,,,,,,,0,48,48,48,,,,,,,,,,,,,,,,,main,None,None,1,1.4991437999997288,319.7452648000326,None,None,1,,,,,,,,,,,,,,008,2022-05-09_15h38.49.575,Main,2022.1.1,60.1942589059272,
negative,blue,1,None,k,,,,,,,,,0,49,49,49,,,,,,,,,,,,,,,,,main,None,None,1,1.4990811999887228,322.24850129999686,None,None,1,,,,,,,,,,,,,,008,2022-05-09_15h38.49.575,Main,2022.1.1,60.1942589059272,
positive,yellow,2,None,k,,,,,,,,,0,50,50,50,,,,,,,,,,,,,,,,,main,None,None,1,1.4997660000808537,324.745457299985,None,None,1,,,,,,,,,,,,,,008,2022-05-09_15h38.49.575,Main,2022.1.1,60.1942589059272,
negative,blue,1,None,k,,,,,,,,,0,51,51,51,,,,,,,,,,,,,,,,,main,None,None,1,1.4987965999171138,327.2454149000114,None,None,1,,,,,,,,,,,,,,008,2022-05-09_15h38.49.575,Main,2022.1.1,60.1942589059272,
positive,red,2,None,None,,,,,,,,,0,52,52,52,,,,,,,,,,,,,,,,,main,None,None,1,1.498721900046803,329.7452972000465,None,None,1,,,,,,,,,,,,,,008,2022-05-09_15h38.49.575,Main,2022.1.1,60.1942589059272,
positive,yellow,2,None,k,,,,,,,,,0,53,53,53,,,,,,,,,,,,,,,,,main,None,None,1,1.4980872999876738,332.24524239997845,None,None,1,,,,,,,,,,,,,,008,2022-05-09_15h38.49.575,Main,2022.1.1,60.1942589059272,
negative,red,2,None,None,,,,,,,,,0,54,54,54,,,,,,,,,,,,,,,,,main,None,None,1,1.4994703000411391,334.7452132999897,None,None,1,,,,,,,,,,,,,,008,2022-05-09_15h38.49.575,Main,2022.1.1,60.1942589059272,
positive,yellow,1,None,k,,,,,,,,,0,55,55,55,,,,,,,,,,,,,,,,,main,None,None,1,1.5009749000892043,337.2448511000257,None,None,1,,,,,,,,,,,,,,008,2022-05-09_15h38.49.575,Main,2022.1.1,60.1942589059272,
negative,blue,2,None,k,,,,,,,,,0,56,56,56,,,,,,,,,,,,,,,,,main,None,None,1,1.4991748998872936,339.74812490004115,None,None,1,,,,,,,,,,,,,,008,2022-05-09_15h38.49.575,Main,2022.1.1,60.1942589059272,
positive,blue,1,k,None,,,,,,,,,0,57,57,57,,,,,,,,,,,,,,,,,main,k,k,1,1.000138400006108,342.2480603000149,None,None,0,,,,,,,,,,,,,,008,2022-05-09_15h38.49.575,Main,2022.1.1,60.1942589059272,
positive,blue,1,k,None,,,,,,,,,0,58,58,58,,,,,,,,,,,,,,,,,main,k,k,1,0.7954750000499189,344.2450561999576,None,None,0,,,,,,,,,,,,,,008,2022-05-09_15h38.49.575,Main,2022.1.1,60.1942589059272,
negative,yellow,2,k,None,,,,,,,,,0,59,59,59,,,,,,,,,,,,,,,,,main,k,k,1,0.914553300011903,346.04464930004906,None,None,0,,,,,,,,,,,,,,008,2022-05-09_15h38.49.575,Main,2022.1.1,60.1942589059272,
positive,red,2,None,None,,,,,,,,,0,60,60,60,,,,,,,,,,,,,,,,,main,None,None,1,1.4991275999927893,347.9613401000388,None,None,1,,,,,,,,,,,,,,008,2022-05-09_15h38.49.575,Main,2022.1.1,60.1942589059272,
negative,yellow,1,k,None,,,,,,,,,0,61,61,61,,,,,,,,,,,,,,,,,main,k,k,1,1.1826000000583008,350.46159690001514,None,None,0,,,,,,,,,,,,,,008,2022-05-09_15h38.49.575,Main,2022.1.1,60.1942589059272,
negative,red,1,None,None,,,,,,,,,0,62,62,62,,,,,,,,,,,,,,,,,main,None,None,1,1.500419299933128,352.64774549996946,None,None,1,,,,,,,,,,,,,,008,2022-05-09_15h38.49.575,Main,2022.1.1,60.1942589059272,
negative,blue,1,None,k,,,,,,,,,0,63,63,63,,,,,,,,,,,,,,,,,main,None,None,1,1.4968322000931948,355.1445335999597,None,None,1,,,,,,,,,,,,,,008,2022-05-09_15h38.49.575,Main,2022.1.1,60.1942589059272,
positive,blue,2,k,None,,,,,,,,,0,64,64,64,,,,,,,,,,,,,,,,,main,k,k,1,0.8158434999641031,357.64778140001,None,None,0,,,,,,,,,,,,,,008,2022-05-09_15h38.49.575,Main,2022.1.1,60.1942589059272,
negative,yellow,2,k,None,,,,,,,,,0,65,65,65,,,,,,,,,,,,,,,,,main,k,k,1,0.9520142000401393,359.4614083999768,None,None,0,,,,,,,,,,,,,,008,2022-05-09_15h38.49.575,Main,2022.1.1,60.1942589059272,
positive,yellow,2,None,k,,,,,,,,,0,66,66,66,,,,,,,,,,,,,,,,,main,None,None,1,1.4963072000537068,361.4143243000144,None,None,1,,,,,,,,,,,,,,008,2022-05-09_15h38.49.575,Main,2022.1.1,60.1942589059272,
positive,yellow,2,None,k,,,,,,,,,0,67,67,67,,,,,,,,,,,,,,,,,main,None,None,1,1.4988684999989346,363.9109361000592,None,None,1,,,,,,,,,,,,,,008,2022-05-09_15h38.49.575,Main,2022.1.1,60.1942589059272,
positive,red,1,None,None,,,,,,,,,0,68,68,68,,,,,,,,,,,,,,,,,main,None,None,1,1.4980682999594137,366.4109896000009,None,None,1,,,,,,,,,,,,,,008,2022-05-09_15h38.49.575,Main,2022.1.1,60.1942589059272,
positive,yellow,1,None,k,,,,,,,,,0,69,69,69,,,,,,,,,,,,,,,,,main,None,None,1,1.502034799894318,368.91414340003394,None,None,1,,,,,,,,,,,,,,008,2022-05-09_15h38.49.575,Main,2022.1.1,60.1942589059272,
negative,yellow,2,k,None,,,,,,,,,0,70,70,70,,,,,,,,,,,,,,,,,main,k,k,1,0.9792151000583544,371.4111261999933,None,None,0,,,,,,,,,,,,,,008,2022-05-09_15h38.49.575,Main,2022.1.1,60.1942589059272,
positive,yellow,1,None,k,,,,,,,,,0,71,71,71,,,,,,,,,,,,,,,,,main,None,None,1,1.5022262999555096,373.3940641999943,None,None,1,,,,,,,,,,,,,,008,2022-05-09_15h38.49.575,Main,2022.1.1,60.1942589059272,
negative,blue,1,None,k,,,,,,,,,0,72,72,72,,,,,,,,,,,,,,,,,main,None,None,1,1.4960347999585792,375.8975839000195,None,None,1,,,,,,,,,,,,,,008,2022-05-09_15h38.49.575,Main,2022.1.1,60.1942589059272,
negative,red,2,None,None,,,,,,,,,0,73,73,73,,,,,,,,,,,,,,,,,main,None,None,1,1.4988478999584913,378.39432590000797,None,None,1,,,,,,,,,,,,,,008,2022-05-09_15h38.49.575,Main,2022.1.1,60.1942589059272,
positive,blue,2,k,None,,,,,,,,,0,74,74,74,,,,,,,,,,,,,,,,,main,k,k,1,0.9656314000021666,380.89425660006236,None,None,0,,,,,,,,,,,,,,008,2022-05-09_15h38.49.575,Main,2022.1.1,60.1942589059272,
negative,blue,2,None,k,,,,,,,,,0,75,75,75,,,,,,,,,,,,,,,,,main,None,None,1,1.4998098999494687,382.86087760003284,None,None,1,,,,,,,,,,,,,,008,2022-05-09_15h38.49.575,Main,2022.1.1,60.1942589059272,
negative,blue,2,None,k,,,,,,,,,0,76,76,76,,,,,,,,,,,,,,,,,main,None,None,1,1.500861500040628,385.3607446999522,None,None,1,,,,,,,,,,,,,,008,2022-05-09_15h38.49.575,Main,2022.1.1,60.1942589059272,
negative,yellow,1,k,None,,,,,,,,,0,77,77,77,,,,,,,,,,,,,,,,,main,k,k,1,1.7307368000037968,387.86071100004483,None,None,0,,,,,,,,,,,,,,008,2022-05-09_15h38.49.575,Main,2022.1.1,60.1942589059272,
positive,blue,1,k,None,,,,,,,,,0,78,78,78,,,,,,,,,,,,,,,,,main,k,k,1,0.9174505000701174,391.5937420000555,None,None,0,,,,,,,,,,,,,,008,2022-05-09_15h38.49.575,Main,2022.1.1,60.1942589059272,
positive,blue,1,k,None,,,,,,,,,0,79,79,79,,,,,,,,,,,,,,,,,main,k,k,1,0.8820058000274003,393.51034839998465,None,None,0,,,,,,,,,,,,,,008,2022-05-09_15h38.49.575,Main,2022.1.1,60.1942589059272,
positive,red,2,None,None,,,,,,,,,0,80,80,80,,,,,,,,,,,,,,,,,main,None,None,1,1.4985598999774083,395.39395679999143,None,None,1,,,,,,,,,,,,,,008,2022-05-09_15h38.49.575,Main,2022.1.1,60.1942589059272,
positive,yellow,2,None,k,,,,,,,,,0,81,81,81,,,,,,,,,,,,,,,,,main,None,None,1,1.4988495000870898,397.89389179996215,None,None,1,,,,,,,,,,,,,,008,2022-05-09_15h38.49.575,Main,2022.1.1,60.1942589059272,
positive,blue,1,k,None,,,,,,,,,0,82,82,82,,,,,,,,,,,,,,,,,main,k,k,1,0.8324334999779239,400.39372960000765,None,None,0,,,,,,,,,,,,,,008,2022-05-09_15h38.49.575,Main,2022.1.1,60.1942589059272,
negative,yellow,2,k,None,,,,,,,,,0,83,83,83,,,,,,,,,,,,,,,,,main,k,k,1,0.8159160999348387,402.22703740000725,None,None,0,,,,,,,,,,,,,,008,2022-05-09_15h38.49.575,Main,2022.1.1,60.1942589059272,
positive,blue,2,k,None,,,,,,,,,0,84,84,84,,,,,,,,,,,,,,,,,main,k,k,1,0.8486944999312982,404.043680200004,None,None,0,,,,,,,,,,,,,,008,2022-05-09_15h38.49.575,Main,2022.1.1,60.1942589059272,
positive,yellow,1,None,k,,,,,,,,,0,85,85,85,,,,,,,,,,,,,,,,,main,None,None,1,1.4989572999766096,405.8936547000194,None,None,1,,,,,,,,,,,,,,008,2022-05-09_15h38.49.575,Main,2022.1.1,60.1942589059272,
positive,blue,2,k,None,,,,,,,,,0,86,86,86,,,,,,,,,,,,,,,,,main,k,k,1,1.4155620000092313,408.39358929998707,None,None,0,,,,,,,,,,,,,,008,2022-05-09_15h38.49.575,Main,2022.1.1,60.1942589059272,
positive,blue,1,k,None,,,,,,,,,0,87,87,87,,,,,,,,,,,,,,,,,main,k,k,1,0.9524074000073597,410.80994569999166,None,None,0,,,,,,,,,,,,,,008,2022-05-09_15h38.49.575,Main,2022.1.1,60.1942589059272,
negative,yellow,2,k,None,,,,,,,,,0,88,88,88,,,,,,,,,,,,,,,,,main,k,k,1,0.7293351000407711,412.763194500003,None,None,0,,,,,,,,,,,,,,008,2022-05-09_15h38.49.575,Main,2022.1.1,60.1942589059272,
negative,blue,2,None,k,,,,,,,,,0,89,89,89,,,,,,,,,,,,,,,,,main,None,None,1,1.4990175999701023,414.49683359998744,None,None,1,,,,,,,,,,,,,,008,2022-05-09_15h38.49.575,Main,2022.1.1,60.1942589059272,
positive,yellow,2,None,k,,,,,,,,,0,90,90,90,,,,,,,,,,,,,,,,,main,None,None,1,1.4979056000011042,416.9934744000202,None,None,1,,,,,,,,,,,,,,008,2022-05-09_15h38.49.575,Main,2022.1.1,60.1942589059272,
negative,yellow,1,k,None,,,,,,,,,0,91,91,91,,,,,,,,,,,,,,,,,main,k,k,1,0.9526075000176206,419.4930841999594,None,None,0,,,,,,,,,,,,,,008,2022-05-09_15h38.49.575,Main,2022.1.1,60.1942589059272,
negative,red,2,None,None,,,,,,,,,0,92,92,92,,,,,,,,,,,,,,,,,main,None,None,1,1.495877300039865,421.44637240003794,None,None,1,,,,,,,,,,,,,,008,2022-05-09_15h38.49.575,Main,2022.1.1,60.1942589059272,
negative,blue,2,None,k,,,,,,,,,0,93,93,93,,,,,,,,,,,,,,,,,main,None,None,1,1.4994069000240415,423.9435637999559,None,None,1,,,,,,,,,,,,,,008,2022-05-09_15h38.49.575,Main,2022.1.1,60.1942589059272,
negative,blue,1,None,k,,,,,,,,,0,94,94,94,,,,,,,,,,,,,,,,,main,None,None,1,1.498374600079842,426.4432668000227,None,None,1,,,,,,,,,,,,,,008,2022-05-09_15h38.49.575,Main,2022.1.1,60.1942589059272,
negative,blue,1,None,k,,,,,,,,,0,95,95,95,,,,,,,,,,,,,,,,,main,None,None,1,1.4998424999648705,428.9431475000456,None,None,1,,,,,,,,,,,,,,008,2022-05-09_15h38.49.575,Main,2022.1.1,60.1942589059272,
negative,red,1,None,None,,,,,,,,,0,96,96,96,,,,,,,,,,,,,,,,,main,None,None,1,1.4982038999442011,431.4460662000347,None,None,1,,,,,,,,,,,,,,008,2022-05-09_15h38.49.575,Main,2022.1.1,60.1942589059272,
positive,yellow,1,None,k,,,,,,,,,0,97,97,97,,,,,,,,,,,,,,,,,main,None,None,1,1.4983089999295771,433.94307160004973,None,None,1,,,,,,,,,,,,,,008,2022-05-09_15h38.49.575,Main,2022.1.1,60.1942589059272,
negative,yellow,1,k,None,,,,,,,,,0,98,98,98,,,,,,,,,,,,,,,,,main,k,k,1,1.382354800007306,436.4429746000096,None,None,0,,,,,,,,,,,,,,008,2022-05-09_15h38.49.575,Main,2022.1.1,60.1942589059272,
positive,red,1,None,None,,,,,,,,,0,99,99,99,,,,,,,,,,,,,,,,,main,None,None,1,1.4992254000389948,438.8259676999878,None,None,1,,,,,,,,,,,,,,008,2022-05-09_15h38.49.575,Main,2022.1.1,60.1942589059272,
positive,blue,1,k,None,,,,,,,,,0,100,100,100,,,,,,,,,,,,,,,,,main,k,k,1,1.1656781000783667,441.3292272000108,None,None,0,,,,,,,,,,,,,,008,2022-05-09_15h38.49.575,Main,2022.1.1,60.1942589059272,
negative,yellow,1,k,None,,,,,,,,,0,101,101,101,,,,,,,,,,,,,,,,,main,k,k,1,0.8989670999580994,443.4928609000053,None,None,0,,,,,,,,,,,,,,008,2022-05-09_15h38.49.575,Main,2022.1.1,60.1942589059272,
negative,blue,2,None,k,,,,,,,,,0,102,102,102,,,,,,,,,,,,,,,,,main,None,None,1,1.499103399924934,445.3928452000255,None,None,1,,,,,,,,,,,,,,008,2022-05-09_15h38.49.575,Main,2022.1.1,60.1942589059272,
negative,yellow,2,k,None,,,,,,,,,0,103,103,103,,,,,,,,,,,,,,,,,main,k,k,1,0.9678713999455795,447.892491000006,None,None,0,,,,,,,,,,,,,,008,2022-05-09_15h38.49.575,Main,2022.1.1,60.1942589059272,
positive,yellow,2,None,k,,,,,,,,,0,104,104,104,,,,,,,,,,,,,,,,,main,None,k,0,0.931616099900566,449.85942710004747,None,None,1,,,,,,,,,,,,,,008,2022-05-09_15h38.49.575,Main,2022.1.1,60.1942589059272,
positive,blue,1,k,None,,,,,,,,,0,105,105,105,,,,,,,,,,,,,,,,,main,k,k,1,0.9873705999925733,452.79269699996803,None,None,0,,,,,,,,,,,,,,008,2022-05-09_15h38.49.575,Main,2022.1.1,60.1942589059272,
positive,blue,2,k,None,,,,,,,,,0,106,106,106,,,,,,,,,,,,,,,,,main,k,k,1,1.0120910999830812,454.778966999962,None,None,0,,,,,,,,,,,,,,008,2022-05-09_15h38.49.575,Main,2022.1.1,60.1942589059272,
negative,blue,1,None,k,,,,,,,,,0,107,107,107,,,,,,,,,,,,,,,,,main,None,None,1,1.5011133999796584,456.7922395999776,None,None,1,,,,,,,,,,,,,,008,2022-05-09_15h38.49.575,Main,2022.1.1,60.1942589059272,
positive,yellow,2,None,k,,,,,,,,,0,108,108,108,,,,,,,,,,,,,,,,,main,None,None,1,1.499790900037624,459.2956304999534,None,None,1,,,,,,,,,,,,,,008,2022-05-09_15h38.49.575,Main,2022.1.1,60.1942589059272,
negative,yellow,1,k,None,,,,,,,,,0,109,109,109,,,,,,,,,,,,,,,,,main,k,k,1,1.0296502999262884,461.7925003999844,None,None,0,,,,,,,,,,,,,,008,2022-05-09_15h38.49.575,Main,2022.1.1,60.1942589059272,
negative,blue,2,None,k,,,,,,,,,0,110,110,110,,,,,,,,,,,,,,,,,main,None,None,1,1.499130200012587,463.8287466999609,None,None,1,,,,,,,,,,,,,,008,2022-05-09_15h38.49.575,Main,2022.1.1,60.1942589059272,
positive,blue,2,k,None,,,,,,,,,0,111,111,111,,,,,,,,,,,,,,,,,main,k,k,1,0.9150563000002876,466.3254707000451,None,None,0,,,,,,,,,,,,,,008,2022-05-09_15h38.49.575,Main,2022.1.1,60.1942589059272,
negative,blue,1,None,k,,,,,,,,,0,112,112,112,,,,,,,,,,,,,,,,,main,None,None,1,1.5003505001077428,468.24236200004816,None,None,1,,,,,,,,,,,,,,008,2022-05-09_15h38.49.575,Main,2022.1.1,60.1942589059272,
positive,yellow,1,None,k,,,,,,,,,0,113,113,113,,,,,,,,,,,,,,,,,main,None,None,1,1.5045936000533402,470.74228290002793,None,None,1,,,,,,,,,,,,,,008,2022-05-09_15h38.49.575,Main,2022.1.1,60.1942589059272,
negative,red,1,None,None,,,,,,,,,0,114,114,114,,,,,,,,,,,,,,,,,main,None,None,1,1.4924995999317616,473.2418508999981,None,None,1,,,,,,,,,,,,,,008,2022-05-09_15h38.49.575,Main,2022.1.1,60.1942589059272,
positive,red,1,None,None,,,,,,,,,0,115,115,115,,,,,,,,,,,,,,,,,main,None,None,1,1.4981465000892058,475.7418859000318,None,None,1,,,,,,,,,,,,,,008,2022-05-09_15h38.49.575,Main,2022.1.1,60.1942589059272,
negative,red,2,None,None,,,,,,,,,0,116,116,116,,,,,,,,,,,,,,,,,main,None,None,1,1.49919709993992,478.2451090000104,None,None,1,,,,,,,,,,,,,,008,2022-05-09_15h38.49.575,Main,2022.1.1,60.1942589059272,
negative,yellow,2,k,None,,,,,,,,,0,117,117,117,,,,,,,,,,,,,,,,,main,k,k,1,0.9831143000628799,480.7420845000306,None,None,0,,,,,,,,,,,,,,008,2022-05-09_15h38.49.575,Main,2022.1.1,60.1942589059272,
positive,yellow,1,None,k,,,,,,,,,0,118,118,118,,,,,,,,,,,,,,,,,main,None,None,1,1.500974899972789,482.7250099000521,None,None,1,,,,,,,,,,,,,,008,2022-05-09_15h38.49.575,Main,2022.1.1,60.1942589059272,
positive,red,2,None,None,,,,,,,,,0,119,119,119,,,,,,,,,,,,,,,,,main,None,None,1,1.4990133000537753,485.22533080005087,None,None,1,,,,,,,,,,,,,,008,2022-05-09_15h38.49.575,Main,2022.1.1,60.1942589059272,
positive,blue,2,k,None,,,,,,,,,0,120,120,120,,,,,,,,,,,,,,,,,main,k,k,1,0.9131952000316232,487.72820240003057,None,None,0,,,,,,,,,,,,,,008,2022-05-09_15h38.49.575,Main,2022.1.1,60.1942589059272,
negative,red,1,None,None,,,,,,,,,0,121,121,121,,,,,,,,,,,,,,,,,main,None,None,1,1.499329200014472,489.6448700999608,None,None,1,,,,,,,,,,,,,,008,2022-05-09_15h38.49.575,Main,2022.1.1,60.1942589059272,
positive,yellow,2,None,k,,,,,,,,,0,122,122,122,,,,,,,,,,,,,,,,,main,None,None,1,1.501262699952349,492.1415374999633,None,None,1,,,,,,,,,,,,,,008,2022-05-09_15h38.49.575,Main,2022.1.1,60.1942589059272,
negative,red,2,None,None,,,,,,,,,0,123,123,123,,,,,,,,,,,,,,,,,main,None,None,1,1.4989096000790596,494.6417961999541,None,None,1,,,,,,,,,,,,,,008,2022-05-09_15h38.49.575,Main,2022.1.1,60.1942589059272,
negative,yellow,2,k,None,,,,,,,,,0,124,124,124,,,,,,,,,,,,,,,,,main,k,k,1,1.0324122000019997,497.14169630000833,None,None,0,,,,,,,,,,,,,,008,2022-05-09_15h38.49.575,Main,2022.1.1,60.1942589059272,
positive,red,1,None,None,,,,,,,,,0,125,125,125,,,,,,,,,,,,,,,,,main,None,None,1,1.4964426000369713,499.17498350003734,None,None,1,,,,,,,,,,,,,,008,2022-05-09_15h38.49.575,Main,2022.1.1,60.1942589059272,
negative,blue,2,None,k,,,,,,,,,0,126,126,126,,,,,,,,,,,,,,,,,main,None,None,1,1.4982694999780506,501.67459459998645,None,None,1,,,,,,,,,,,,,,008,2022-05-09_15h38.49.575,Main,2022.1.1,60.1942589059272,
negative,blue,1,None,k,,,,,,,,,0,127,127,127,,,,,,,,,,,,,,,,,main,None,None,1,1.4990117000415921,504.1778847000096,None,None,1,,,,,,,,,,,,,,008,2022-05-09_15h38.49.575,Main,2022.1.1,60.1942589059272,
negative,yellow,1,k,None,,,,,,,,,0,128,128,128,,,,,,,,,,,,,,,,,main,k,k,1,0.8174868999049067,506.6748486000579,None,None,0,,,,,,,,,,,,,,008,2022-05-09_15h38.49.575,Main,2022.1.1,60.1942589059272,
negative,yellow,1,k,None,,,,,,,,,0,129,129,129,,,,,,,,,,,,,,,,,main,k,k,1,0.914044399978593,508.4914942999603,None,None,0,,,,,,,,,,,,,,008,2022-05-09_15h38.49.575,Main,2022.1.1,60.1942589059272,
positive,blue,1,k,None,,,,,,,,,0,130,130,130,,,,,,,,,,,,,,,,,main,k,k,1,0.9491450999630615,510.4079992000479,None,None,0,,,,,,,,,,,,,,008,2022-05-09_15h38.49.575,Main,2022.1.1,60.1942589059272,
negative,blue,1,None,k,,,,,,,,,0,131,131,131,,,,,,,,,,,,,,,,,main,None,None,1,1.4989055000478402,512.3580605000025,None,None,1,,,,,,,,,,,,,,008,2022-05-09_15h38.49.575,Main,2022.1.1,60.1942589059272,
negative,blue,2,None,k,,,,,,,,,0,132,132,132,,,,,,,,,,,,,,,,,main,None,None,1,1.5028258999809623,514.8579191999743,None,None,1,,,,,,,,,,,,,,008,2022-05-09_15h38.49.575,Main,2022.1.1,60.1942589059272,
positive,blue,2,k,None,,,,,,,,,0,133,133,133,,,,,,,,,,,,,,,,,main,k,k,1,1.0281516999239102,517.3609119000612,None,None,0,,,,,,,,,,,,,,008,2022-05-09_15h38.49.575,Main,2022.1.1,60.1942589059272,
positive,red,2,None,None,,,,,,,,,0,134,134,134,,,,,,,,,,,,,,,,,main,None,None,1,1.5021238001063466,519.3908873000182,None,None,1,,,,,,,,,,,,,,008,2022-05-09_15h38.49.575,Main,2022.1.1,60.1942589059272,
negative,yellow,2,k,None,,,,,,,,,0,135,135,135,,,,,,,,,,,,,,,,,main,k,k,1,0.8463960000080988,521.8911952000344,None,None,0,,,,,,,,,,,,,,008,2022-05-09_15h38.49.575,Main,2022.1.1,60.1942589059272,
positive,yellow,2,None,k,,,,,,,,,0,136,136,136,,,,,,,,,,,,,,,,,main,None,None,1,1.4988490000832826,523.7411502000177,None,None,1,,,,,,,,,,,,,,008,2022-05-09_15h38.49.575,Main,2022.1.1,60.1942589059272,
positive,blue,1,k,None,,,,,,,,,0,137,137,137,,,,,,,,,,,,,,,,,main,k,k,1,0.8156322999857366,526.241087900009,None,None,0,,,,,,,,,,,,,,008,2022-05-09_15h38.49.575,Main,2022.1.1,60.1942589059272,
positive,yellow,1,None,k,,,,,,,,,0,138,138,138,,,,,,,,,,,,,,,,,main,None,None,1,1.5020058000227436,528.0573504000204,None,None,1,,,,,,,,,,,,,,008,2022-05-09_15h38.49.575,Main,2022.1.1,60.1942589059272,
positive,yellow,1,None,k,,,,,,,,,0,139,139,139,,,,,,,,,,,,,,,,,main,None,None,1,1.4959847000427544,530.5605842999648,None,None,1,,,,,,,,,,,,,,008,2022-05-09_15h38.49.575,Main,2022.1.1,60.1942589059272,
positive,yellow,1,None,k,,,,,,,,,0,140,140,140,,,,,,,,,,,,,,,,,main,None,None,1,1.499085900024511,533.060500200023,None,None,1,,,,,,,,,,,,,,008,2022-05-09_15h38.49.575,Main,2022.1.1,60.1942589059272,
positive,blue,1,k,None,,,,,,,,,0,141,141,141,,,,,,,,,,,,,,,,,main,k,k,1,1.1821845000376925,535.557561900001,None,None,0,,,,,,,,,,,,,,008,2022-05-09_15h38.49.575,Main,2022.1.1,60.1942589059272,
positive,blue,2,k,None,,,,,,,,,0,142,142,142,,,,,,,,,,,,,,,,,main,k,k,1,1.0991929000010714,537.7404717999743,None,None,0,,,,,,,,,,,,,,008,2022-05-09_15h38.49.575,Main,2022.1.1,60.1942589059272,
positive,yellow,2,None,k,,,,,,,,,0,143,143,143,,,,,,,,,,,,,,,,,main,None,None,1,1.501803299994208,539.8437967000064,None,None,1,,,,,,,,,,,,,,008,2022-05-09_15h38.49.575,Main,2022.1.1,60.1942589059272,
negative,yellow,2,k,None,,,,,,,,,0,144,144,144,,,,,,,,,,,,,,,,,main,k,k,1,2.046257899957709,542.3437718000496,None,None,0,,,,,,,,,,,,,,008,2022-05-09_15h38.49.575,Main,2022.1.1,60.1942589059272,
negative,blue,2,None,k,,,,,,,,,0,145,145,145,,,,,,,,,,,,,,,,,main,None,None,1,1.504709400003776,546.3902878999943,None,None,1,,,,,,,,,,,,,,008,2022-05-09_15h38.49.575,Main,2022.1.1,60.1942589059272,
negative,red,1,None,None,,,,,,,,,0,146,146,146,,,,,,,,,,,,,,,,,main,None,None,1,1.4993734000017866,548.893586799968,None,None,1,,,,,,,,,,,,,,008,2022-05-09_15h38.49.575,Main,2022.1.1,60.1942589059272,
positive,blue,1,k,None,,,,,,,,,0,147,147,147,,,,,,,,,,,,,,,,,main,k,k,1,0.7106858999468386,551.3934357999824,None,None,0,,,,,,,,,,,,,,008,2022-05-09_15h38.49.575,Main,2022.1.1,60.1942589059272,
positive,yellow,1,None,k,,,,,,,,,0,148,148,148,,,,,,,,,,,,,,,,,main,None,None,1,1.4982687000883743,553.1071526999585,None,None,1,,,,,,,,,,,,,,008,2022-05-09_15h38.49.575,Main,2022.1.1,60.1942589059272,
negative,red,2,None,None,,,,,,,,,0,149,149,149,,,,,,,,,,,,,,,,,main,None,None,1,1.5022560000652447,555.6067087999545,None,None,1,,,,,,,,,,,,,,008,2022-05-09_15h38.49.575,Main,2022.1.1,60.1942589059272,
negative,blue,1,None,k,,,,,,,,,0,150,150,150,,,,,,,,,,,,,,,,,main,None,None,1,1.4963789999019355,558.1099371999735,None,None,1,,,,,,,,,,,,,,008,2022-05-09_15h38.49.575,Main,2022.1.1,60.1942589059272,
negative,yellow,2,k,None,,,,,,,,,0,151,151,151,,,,,,,,,,,,,,,,,main,k,k,1,1.6020482999738306,560.6070158999646,None,None,0,,,,,,,,,,,,,,008,2022-05-09_15h38.49.575,Main,2022.1.1,60.1942589059272,
negative,blue,2,None,k,,,,,,,,,0,152,152,152,,,,,,,,,,,,,,,,,main,None,None,1,1.4885262000607327,564.2234880999895,None,None,1,,,,,,,,,,,,,,008,2022-05-09_15h38.49.575,Main,2022.1.1,60.1942589059272,
negative,yellow,1,k,None,,,,,,,,,0,153,153,153,,,,,,,,,,,,,,,,,main,k,k,1,0.8602855999488384,566.7068691999884,None,None,0,,,,,,,,,,,,,,008,2022-05-09_15h38.49.575,Main,2022.1.1,60.1942589059272,
negative,blue,1,None,k,,,,,,,,,0,154,154,154,,,,,,,,,,,,,,,,,main,None,None,1,1.4989016000181437,568.5734294999857,None,None,1,,,,,,,,,,,,,,008,2022-05-09_15h38.49.575,Main,2022.1.1,60.1942589059272,
positive,yellow,2,None,k,,,,,,,,,0,155,155,155,,,,,,,,,,,,,,,,,main,None,k,0,0.9322779000503942,571.0735453000525,None,None,1,,,,,,,,,,,,,,008,2022-05-09_15h38.49.575,Main,2022.1.1,60.1942589059272,
positive,red,2,None,None,,,,,,,,,0,156,156,156,,,,,,,,,,,,,,,,,main,None,None,1,1.487224700045772,574.0064389000181,None,None,1,,,,,,,,,,,,,,008,2022-05-09_15h38.49.575,Main,2022.1.1,60.1942589059272,
positive,red,1,None,None,,,,,,,,,0,157,157,157,,,,,,,,,,,,,,,,,main,None,None,1,1.4972529000369832,576.4900079000508,None,None,1,,,,,,,,,,,,,,008,2022-05-09_15h38.49.575,Main,2022.1.1,60.1942589059272,
positive,blue,2,k,None,,,,,,,,,0,158,158,158,,,,,,,,,,,,,,,,,main,k,k,1,1.1340664000017568,578.9929337999783,None,None,0,,,,,,,,,,,,,,008,2022-05-09_15h38.49.575,Main,2022.1.1,60.1942589059272,
negative,yellow,1,k,None,,,,,,,,,0,159,159,159,,,,,,,,,,,,,,,,,main,k,k,1,0.8622907999670133,581.1262013999512,None,None,0,,,,,,,,,,,,,,008,2022-05-09_15h38.49.575,Main,2022.1.1,60.1942589059272,
negative,red,2,None,None,,,,,,,,,0,160,160,160,,,,,,,,,,,,,,,,,main,None,None,1,1.5022302999859676,582.989509099978,None,None,1,,,,,,,,,,,,,,008,2022-05-09_15h38.49.575,Main,2022.1.1,60.1942589059272,
negative,blue,1,None,k,,,,,,,,,0,161,161,161,,,,,,,,,,,,,,,,,main,None,None,1,1.496102900011465,585.4927089000121,None,None,1,,,,,,,,,,,,,,008,2022-05-09_15h38.49.575,Main,2022.1.1,60.1942589059272,
negative,blue,1,None,k,,,,,,,,,0,162,162,162,,,,,,,,,,,,,,,,,main,None,None,1,1.489867499913089,587.9897560999962,None,None,1,,,,,,,,,,,,,,008,2022-05-09_15h38.49.575,Main,2022.1.1,60.1942589059272,
negative,yellow,1,k,None,,,,,,,,,0,163,163,163,,,,,,,,,,,,,,,,,main,k,k,1,1.5248845999594778,590.4785863000434,None,None,0,,,,,,,,,,,,,,008,2022-05-09_15h38.49.575,Main,2022.1.1,60.1942589059272,
negative,yellow,1,k,None,,,,,,,,,0,164,164,164,,,,,,,,,,,,,,,,,main,k,k,1,0.7176327999914065,594.0091828999575,None,None,0,,,,,,,,,,,,,,008,2022-05-09_15h38.49.575,Main,2022.1.1,60.1942589059272,
positive,yellow,1,None,k,,,,,,,,,0,165,165,165,,,,,,,,,,,,,,,,,main,None,None,1,1.4990860000252724,595.7257976999972,None,None,1,,,,,,,,,,,,,,008,2022-05-09_15h38.49.575,Main,2022.1.1,60.1942589059272,
negative,red,1,None,None,,,,,,,,,0,166,166,166,,,,,,,,,,,,,,,,,main,None,None,1,1.4988060999894515,598.2228029000107,None,None,1,,,,,,,,,,,,,,008,2022-05-09_15h38.49.575,Main,2022.1.1,60.1942589059272,
negative,yellow,2,k,None,,,,,,,,,0,167,167,167,,,,,,,,,,,,,,,,,main,k,k,1,1.23180319997482,600.7224432999501,None,None,0,,,,,,,,,,,,,,008,2022-05-09_15h38.49.575,Main,2022.1.1,60.1942589059272,
positive,blue,2,k,None,,,,,,,,,0,168,168,168,,,,,,,,,,,,,,,,,main,k,k,1,0.7990865000756457,602.9590874999994,None,None,0,,,,,,,,,,,,,,008,2022-05-09_15h38.49.575,Main,2022.1.1,60.1942589059272,
positive,red,2,None,None,,,,,,,,,0,169,169,169,,,,,,,,,,,,,,,,,main,None,None,1,1.4989829000551254,604.756052199984,None,None,1,,,,,,,,,,,,,,008,2022-05-09_15h38.49.575,Main,2022.1.1,60.1942589059272,
positive,red,1,None,None,,,,,,,,,0,170,170,170,,,,,,,,,,,,,,,,,main,None,None,1,1.498798199929297,607.2589008000214,None,None,1,,,,,,,,,,,,,,008,2022-05-09_15h38.49.575,Main,2022.1.1,60.1942589059272,
negative,blue,2,None,k,,,,,,,,,0,171,171,171,,,,,,,,,,,,,,,,,main,None,None,1,1.4990895999362692,609.7558308000444,None,None,1,,,,,,,,,,,,,,008,2022-05-09_15h38.49.575,Main,2022.1.1,60.1942589059272,
positive,blue,2,k,None,,,,,,,,,0,172,172,172,,,,,,,,,,,,,,,,,main,k,k,1,1.4160591999534518,612.255649000057,None,None,0,,,,,,,,,,,,,,008,2022-05-09_15h38.49.575,Main,2022.1.1,60.1942589059272,
negative,yellow,2,k,None,,,,,,,,,0,173,173,173,,,,,,,,,,,,,,,,,main,k,k,1,0.8489944000029936,614.6724743000232,None,None,0,,,,,,,,,,,,,,008,2022-05-09_15h38.49.575,Main,2022.1.1,60.1942589059272,
positive,yellow,2,None,k,,,,,,,,,0,174,174,174,,,,,,,,,,,,,,,,,main,None,k,0,0.8318014000542462,616.5224237999646,None,None,1,,,,,,,,,,,,,,008,2022-05-09_15h38.49.575,Main,2022.1.1,60.1942589059272,
negative,blue,2,None,k,,,,,,,,,0,175,175,175,,,,,,,,,,,,,,,,,main,None,None,1,1.5038580999244004,619.3555062999949,None,None,1,,,,,,,,,,,,,,008,2022-05-09_15h38.49.575,Main,2022.1.1,60.1942589059272,
positive,blue,1,k,None,,,,,,,,,0,176,176,176,,,,,,,,,,,,,,,,,main,k,k,1,1.9293603000696748,621.858627300011,None,None,0,,,,,,,,,,,,,,008,2022-05-09_15h38.49.575,Main,2022.1.1,60.1942589059272,
positive,yellow,1,None,k,,,,,,,,,0,177,177,177,,,,,,,,,,,,,,,,,main,None,None,1,1.5011789000127465,625.7889183999505,None,None,1,,,,,,,,,,,,,,008,2022-05-09_15h38.49.575,Main,2022.1.1,60.1942589059272,
positive,blue,1,k,None,,,,,,,,,0,178,178,178,,,,,,,,,,,,,,,,,main,k,k,1,0.9287320000585169,628.2887955000624,None,None,0,,,,,,,,,,,,,,008,2022-05-09_15h38.49.575,Main,2022.1.1,60.1942589059272,
positive,yellow,2,None,k,,,,,,,,,0,179,179,179,,,,,,,,,,,,,,,,,main,None,None,1,1.498863899963908,630.222067499999,None,None,1,,,,,,,,,,,,,,008,2022-05-09_15h38.49.575,Main,2022.1.1,60.1942589059272,
positive,blue,1,k,None,,,,,,,,,0,180,180,180,,,,,,,,,,,,,,,,,main,k,k,1,0.9659408000297844,632.7220297000604,None,None,0,,,,,,,,,,,,,,008,2022-05-09_15h38.49.575,Main,2022.1.1,60.1942589059272,
negative,red,1,None,None,,,,,,,,,0,181,181,181,,,,,,,,,,,,,,,,,main,None,None,1,1.4993892000056803,634.6886764999945,None,None,1,,,,,,,,,,,,,,008,2022-05-09_15h38.49.575,Main,2022.1.1,60.1942589059272,
negative,blue,1,None,k,,,,,,,,,0,182,182,182,,,,,,,,,,,,,,,,,main,None,None,1,1.5012206999817863,637.1883105000015,None,None,1,,,,,,,,,,,,,,008,2022-05-09_15h38.49.575,Main,2022.1.1,60.1942589059272,
negative,yellow,2,k,None,,,,,,,,,0,183,183,183,,,,,,,,,,,,,,,,,main,k,k,1,1.1964241000823677,639.6916096999776,None,None,0,,,,,,,,,,,,,,008,2022-05-09_15h38.49.575,Main,2022.1.1,60.1942589059272,
positive,yellow,2,None,k,,,,,,,,,0,184,184,184,,,,,,,,,,,,,,,,,main,None,None,1,1.4984470999334008,641.8886528000003,None,None,1,,,,,,,,,,,,,,008,2022-05-09_15h38.49.575,Main,2022.1.1,60.1942589059272,
positive,yellow,1,None,k,,,,,,,,,0,185,185,185,,,,,,,,,,,,,,,,,main,None,None,1,1.4997293000342324,644.3887839999516,None,None,1,,,,,,,,,,,,,,008,2022-05-09_15h38.49.575,Main,2022.1.1,60.1942589059272,
positive,red,2,None,None,,,,,,,,,0,186,186,186,,,,,,,,,,,,,,,,,main,None,k,0,1.4984915000386536,646.8883445999818,None,None,1,,,,,,,,,,,,,,008,2022-05-09_15h38.49.575,Main,2022.1.1,60.1942589059272,
positive,blue,1,k,None,,,,,,,,,0,187,187,187,,,,,,,,,,,,,,,,,main,k,k,1,1.3812601000536233,650.3883102999534,None,None,0,,,,,,,,,,,,,,008,2022-05-09_15h38.49.575,Main,2022.1.1,60.1942589059272,
negative,yellow,1,k,None,,,,,,,,,0,188,188,188,,,,,,,,,,,,,,,,,main,k,k,1,1.0319213001057506,652.7716206000187,None,None,0,,,,,,,,,,,,,,008,2022-05-09_15h38.49.575,Main,2022.1.1,60.1942589059272,
positive,yellow,2,None,k,,,,,,,,,0,189,189,189,,,,,,,,,,,,,,,,,main,None,None,1,1.4996973000233993,654.8124305000529,None,None,1,,,,,,,,,,,,,,008,2022-05-09_15h38.49.575,Main,2022.1.1,60.1942589059272,
negative,yellow,2,k,None,,,,,,,,,0,190,190,190,,,,,,,,,,,,,,,,,main,k,k,1,1.198593399953097,657.304660600028,None,None,0,,,,,,,,,,,,,,008,2022-05-09_15h38.49.575,Main,2022.1.1,60.1942589059272,
negative,yellow,1,k,None,,,,,,,,,0,191,191,191,,,,,,,,,,,,,,,,,main,k,k,1,0.9153111000778154,659.5048701000633,None,None,0,,,,,,,,,,,,,,008,2022-05-09_15h38.49.575,Main,2022.1.1,60.1942589059272,
positive,blue,2,k,None,,,,,,,,,0,192,192,192,,,,,,,,,,,,,,,,,main,k,k,1,1.399609199957922,661.421484200051,None,None,0,,,,,,,,,,,,,,008,2022-05-09_15h38.49.575,Main,2022.1.1,60.1942589059272,
positive,yellow,1,None,k,,,,,,,,,0,193,193,193,,,,,,,,,,,,,,,,,main,None,None,1,1.500992099987343,663.8210645000217,None,None,1,,,,,,,,,,,,,,008,2022-05-09_15h38.49.575,Main,2022.1.1,60.1942589059272,
negative,red,2,None,None,,,,,,,,,0,194,194,194,,,,,,,,,,,,,,,,,main,None,None,1,1.4960295000346377,666.3213812999893,None,None,1,,,,,,,,,,,,,,008,2022-05-09_15h38.49.575,Main,2022.1.1,60.1942589059272,
positive,red,1,None,None,,,,,,,,,0,195,195,195,,,,,,,,,,,,,,,,,main,None,None,1,1.502826299984008,668.8213173999684,None,None,1,,,,,,,,,,,,,,008,2022-05-09_15h38.49.575,Main,2022.1.1,60.1942589059272,
negative,blue,1,None,k,,,,,,,,,0,196,196,196,,,,,,,,,,,,,,,,,main,None,None,1,1.4946506000123918,671.3212571999757,None,None,1,,,,,,,,,,,,,,008,2022-05-09_15h38.49.575,Main,2022.1.1,60.1942589059272,
positive,blue,2,k,None,,,,,,,,,0,197,197,197,,,,,,,,,,,,,,,,,main,k,k,1,0.8159738999092951,673.821077200002,None,None,0,,,,,,,,,,,,,,008,2022-05-09_15h38.49.575,Main,2022.1.1,60.1942589059272,
negative,blue,2,None,k,,,,,,,,,0,198,198,198,,,,,,,,,,,,,,,,,main,None,None,1,1.5004063999513164,675.63774809998,None,None,1,,,,,,,,,,,,,,008,2022-05-09_15h38.49.575,Main,2022.1.1,60.1942589059272,
negative,blue,2,None,k,,,,,,,,,0,199,199,199,,,,,,,,,,,,,,,,,main,None,None,1,1.4975080001167953,678.137698699953,None,None,1,,,,,,,,,,,,,,008,2022-05-09_15h38.49.575,Main,2022.1.1,60.1942589059272,
positive,blue,2,k,None,,,,,,,,,0,200,200,200,,,,,,,,,,,,,,,,,main,k,k,1,0.722180400043726,680.6406580999028,None,None,0,,,,,,,,,,,,,,008,2022-05-09_15h38.49.575,Main,2022.1.1,60.1942589059272,
positive,blue,2,k,None,,,,,,,,,0,201,201,201,,,,,,,,,,,,,,,,,main,k,k,1,1.042579700006172,682.3657800999936,None,None,0,,,,,,,,,,,,,,008,2022-05-09_15h38.49.575,Main,2022.1.1,60.1942589059272,
negative,yellow,2,k,None,,,,,,,,,0,202,202,202,,,,,,,,,,,,,,,,,main,k,k,1,0.8827237000223249,684.4040113999508,None,None,0,,,,,,,,,,,,,,008,2022-05-09_15h38.49.575,Main,2022.1.1,60.1942589059272,
positive,red,1,None,None,,,,,,,,,0,203,203,203,,,,,,,,,,,,,,,,,main,None,None,1,1.501566399820149,686.2876176000573,None,None,1,,,,,,,,,,,,,,008,2022-05-09_15h38.49.575,Main,2022.1.1,60.1942589059272,
negative,blue,2,None,k,,,,,,,,,0,204,204,204,,,,,,,,,,,,,,,,,main,None,None,1,1.4960515999700874,688.7875210999046,None,None,1,,,,,,,,,,,,,,008,2022-05-09_15h38.49.575,Main,2022.1.1,60.1942589059272,
negative,red,1,None,None,,,,,,,,,0,205,205,205,,,,,,,,,,,,,,,,,main,None,None,1,1.5005801999941468,691.2946186999325,None,None,1,,,,,,,,,,,,,,008,2022-05-09_15h38.49.575,Main,2022.1.1,60.1942589059272,
negative,blue,2,None,k,,,,,,,,,0,206,206,206,,,,,,,,,,,,,,,,,main,None,None,1,1.4986183000728488,693.7873557999264,None,None,1,,,,,,,,,,,,,,008,2022-05-09_15h38.49.575,Main,2022.1.1,60.1942589059272,
negative,yellow,2,k,None,,,,,,,,,0,207,207,207,,,,,,,,,,,,,,,,,main,k,k,1,0.8809634998906404,696.2873132000677,None,None,0,,,,,,,,,,,,,,008,2022-05-09_15h38.49.575,Main,2022.1.1,60.1942589059272,
positive,yellow,2,None,k,,,,,,,,,0,208,208,208,,,,,,,,,,,,,,,,,main,None,None,1,1.5065409999806434,698.1706169000827,None,None,1,,,,,,,,,,,,,,008,2022-05-09_15h38.49.575,Main,2022.1.1,60.1942589059272,
negative,yellow,1,k,None,,,,,,,,,0,209,209,209,,,,,,,,,,,,,,,,,main,k,k,1,1.0423502000048757,700.676504699979,None,None,0,,,,,,,,,,,,,,008,2022-05-09_15h38.49.575,Main,2022.1.1,60.1942589059272,
negative,red,2,None,None,,,,,,,,,0,210,210,210,,,,,,,,,,,,,,,,,main,None,None,1,1.5019733998924494,702.7202806000132,None,None,1,,,,,,,,,,,,,,008,2022-05-09_15h38.49.575,Main,2022.1.1,60.1942589059272,
negative,blue,1,None,k,,,,,,,,,0,211,211,211,,,,,,,,,,,,,,,,,main,None,None,1,1.495807999977842,705.2236093999818,None,None,1,,,,,,,,,,,,,,008,2022-05-09_15h38.49.575,Main,2022.1.1,60.1942589059272,
negative,yellow,1,k,None,,,,,,,,,0,212,212,212,,,,,,,,,,,,,,,,,main,k,k,1,0.7816624999977648,707.7234781999141,None,None,0,,,,,,,,,,,,,,008,2022-05-09_15h38.49.575,Main,2022.1.1,60.1942589059272,
positive,blue,1,k,None,,,,,,,,,0,213,213,213,,,,,,,,,,,,,,,,,main,k,k,1,1.1663246001116931,709.5067193999421,None,None,0,,,,,,,,,,,,,,008,2022-05-09_15h38.49.575,Main,2022.1.1,60.1942589059272,
positive,blue,1,k,None,,,,,,,,,0,214,214,214,,,,,,,,,,,,,,,,,main,k,k,1,2.734516999917105,711.6700045999605,None,None,0,,,,,,,,,,,,,,008,2022-05-09_15h38.49.575,Main,2022.1.1,60.1942589059272,
positive,yellow,1,None,k,,,,,,,,,0,215,215,215,,,,,,,,,,,,,,,,,main,None,None,1,1.5008074999786913,716.4036230000202,None,None,1,,,,,,,,,,,,,,008,2022-05-09_15h38.49.575,Main,2022.1.1,60.1942589059272,
positive,yellow,1,None,k,,,,,,,,,0,216,216,216,,,,,,,,,,,,,,,,,main,None,None,1,1.495587000157684,718.9064404000528,None,None,1,,,,,,,,,,,,,,008,2022-05-09_15h38.49.575,Main,2022.1.1,60.1942589059272,
positive,yellow,2,None,k,,,,,,,,,0,217,217,217,,,,,,,,,,,,,,,,,main,None,None,1,1.499062200076878,721.4033888000995,None,None,1,,,,,,,,,,,,,,008,2022-05-09_15h38.49.575,Main,2022.1.1,60.1942589059272,
negative,blue,1,None,k,,,,,,,,,0,218,218,218,,,,,,,,,,,,,,,,,main,None,None,1,1.4989924000110477,723.9033677000552,None,None,1,,,,,,,,,,,,,,008,2022-05-09_15h38.49.575,Main,2022.1.1,60.1942589059272,
positive,red,2,None,None,,,,,,,,,0,219,219,219,,,,,,,,,,,,,,,,,main,None,None,1,1.499941200017929,726.4033359000459,None,None,1,,,,,,,,,,,,,,008,2022-05-09_15h38.49.575,Main,2022.1.1,60.1942589059272,
positive,yellow,1,None,k,,,,,,,,,0,220,220,220,,,,,,,,,,,,,,,,,main,None,None,1,1.4984275000169873,728.9033250999637,None,None,1,,,,,,,,,,,,,,008,2022-05-09_15h38.49.575,Main,2022.1.1,60.1942589059272,
positive,blue,1,k,None,,,,,,,,,0,221,221,221,,,,,,,,,,,,,,,,,main,k,k,1,3.334654999896884,731.4029256000649,None,None,0,,,,,,,,,,,,,,008,2022-05-09_15h38.49.575,Main,2022.1.1,60.1942589059272,
positive,yellow,2,None,k,,,,,,,,,0,222,222,222,,,,,,,,,,,,,,,,,main,None,None,1,1.5010274001397192,736.7364880999085,None,None,1,,,,,,,,,,,,,,008,2022-05-09_15h38.49.575,Main,2022.1.1,60.1942589059272,
negative,yellow,1,k,None,,,,,,,,,0,223,223,223,,,,,,,,,,,,,,,,,main,k,k,1,0.9321890000719577,739.2363261000719,None,None,0,,,,,,,,,,,,,,008,2022-05-09_15h38.49.575,Main,2022.1.1,60.1942589059272,
positive,yellow,2,None,k,,,,,,,,,0,224,224,224,,,,,,,,,,,,,,,,,main,None,None,1,1.4997600000351667,741.1697339001112,None,None,1,,,,,,,,,,,,,,008,2022-05-09_15h38.49.575,Main,2022.1.1,60.1942589059272,
negative,yellow,2,k,None,,,,,,,,,0,225,225,225,,,,,,,,,,,,,,,,,main,k,k,1,0.7647448000498116,743.6726279000286,None,None,0,,,,,,,,,,,,,,008,2022-05-09_15h38.49.575,Main,2022.1.1,60.1942589059272,
negative,blue,2,None,k,,,,,,,,,0,226,226,226,,,,,,,,,,,,,,,,,main,None,None,1,1.4994431000668555,745.4362689000554,None,None,1,,,,,,,,,,,,,,008,2022-05-09_15h38.49.575,Main,2022.1.1,60.1942589059272,
positive,red,2,None,None,,,,,,,,,0,227,227,227,,,,,,,,,,,,,,,,,main,None,None,1,1.500832400051877,747.9359607999213,None,None,1,,,,,,,,,,,,,,008,2022-05-09_15h38.49.575,Main,2022.1.1,60.1942589059272,
positive,blue,2,k,None,,,,,,,,,0,228,228,228,,,,,,,,,,,,,,,,,main,k,k,1,0.7478972999379039,750.439118700102,None,None,0,,,,,,,,,,,,,,008,2022-05-09_15h38.49.575,Main,2022.1.1,60.1942589059272,
negative,blue,1,None,k,,,,,,,,,0,229,229,229,,,,,,,,,,,,,,,,,main,None,None,1,1.4972269998397678,752.1861604000442,None,None,1,,,,,,,,,,,,,,008,2022-05-09_15h38.49.575,Main,2022.1.1,60.1942589059272,
positive,yellow,1,None,k,,,,,,,,,0,230,230,230,,,,,,,,,,,,,,,,,main,None,None,1,1.4995332998223603,754.6861137999222,None,None,1,,,,,,,,,,,,,,008,2022-05-09_15h38.49.575,Main,2022.1.1,60.1942589059272,
negative,blue,2,None,k,,,,,,,,,0,231,231,231,,,,,,,,,,,,,,,,,main,None,None,1,1.501123599940911,757.1856986000203,None,None,1,,,,,,,,,,,,,,008,2022-05-09_15h38.49.575,Main,2022.1.1,60.1942589059272,
negative,red,1,None,None,,,,,,,,,0,232,232,232,,,,,,,,,,,,,,,,,main,None,None,1,1.4961622999981046,759.6889923999552,None,None,1,,,,,,,,,,,,,,008,2022-05-09_15h38.49.575,Main,2022.1.1,60.1942589059272,
positive,blue,2,k,None,,,,,,,,,0,233,233,233,,,,,,,,,,,,,,,,,main,k,k,1,0.8187056998722255,762.185952699976,None,None,0,,,,,,,,,,,,,,008,2022-05-09_15h38.49.575,Main,2022.1.1,60.1942589059272,
negative,yellow,1,k,None,,,,,,,,,0,234,234,234,,,,,,,,,,,,,,,,,main,k,k,1,0.8808554001152515,764.0025855998974,None,None,0,,,,,,,,,,,,,,008,2022-05-09_15h38.49.575,Main,2022.1.1,60.1942589059272,
negative,yellow,2,k,None,,,,,,,,,0,235,235,235,,,,,,,,,,,,,,,,,main,k,k,1,1.3974693999625742,765.8855141999666,None,None,0,,,,,,,,,,,,,,008,2022-05-09_15h38.49.575,Main,2022.1.1,60.1942589059272,
positive,red,1,None,None,,,,,,,,,0,236,236,236,,,,,,,,,,,,,,,,,main,None,None,1,1.5021077999845147,768.2855207000393,None,None,1,,,,,,,,,,,,,,008,2022-05-09_15h38.49.575,Main,2022.1.1,60.1942589059272,
negative,red,2,None,None,,,,,,,,,0,237,237,237,,,,,,,,,,,,,,,,,main,None,None,1,1.4960447000339627,770.7857802999206,None,None,1,,,,,,,,,,,,,,008,2022-05-09_15h38.49.575,Main,2022.1.1,60.1942589059272,
negative,blue,1,None,k,,,,,,,,,0,238,238,238,,,,,,,,,,,,,,,,,main,None,None,1,1.4996753998566419,773.2886602000799,None,None,1,,,,,,,,,,,,,,008,2022-05-09_15h38.49.575,Main,2022.1.1,60.1942589059272,
positive,blue,1,k,None,,,,,,,,,0,239,239,239,,,,,,,,,,,,,,,,,main,k,k,1,0.748092999914661,775.7853023000062,None,None,0,,,,,,,,,,,,,,008,2022-05-09_15h38.49.575,Main,2022.1.1,60.1942589059272,
,,,,,,,,,,,,,,,,,,,,,,,,,,,,,,,,,,,,,,,,,,,,,,,,,,,,,777.5353125000838,None,,,,,,
