distractor,target,set,ans1,ans2,rep_loop4.thisRepN,rep_loop4.thisTrialN,rep_loop4.thisN,rep_loop4.thisIndex,st2_prac_loop.thisRepN,st2_prac_loop.thisTrialN,st2_prac_loop.thisN,st2_prac_loop.thisIndex,st2_main_loop.thisRepN,st2_main_loop.thisTrialN,st2_main_loop.thisN,st2_main_loop.thisIndex,image_4.started,image_4.stopped,sound_2.started,sound_2.stopped,key_resp_3.keys,key_resp_3.rt,image_5.started,image_5.stopped,st_prac_back.started,st_prac_back.stopped,st_prac_text.started,st_prac_text.stopped,st_fix_back.started,st_fix_back.stopped,st_fix_2.started,st_fix_2.stopped,main_prac,st_ans,st_res,st_corr,st_rt,st_back.started,st_back.stopped,st2_resp.keys,st2_resp.corr,st_main_back.started,st_main_back.stopped,st_main_text.started,st_main_text.stopped,mouse_4.x,mouse_4.y,mouse_4.leftButton,mouse_4.midButton,mouse_4.rightButton,mouse_4.started,mouse_4.stopped,text_2.started,text_2.stopped,id*,date,expName,psychopyVersion,frameRate,
negative,yellow,1,k,None,,,,,0,0,0,0,,,,,29.69221289991401,None,33.470642299973406,None,space,57.86091300006956,91.35022389981896,None,93.8360424998682,None,93.8360424998682,None,95.85002429992892,None,95.85002429992892,None,prac,None,None,1,1.495737599907443,97.86721589998342,None,None,1,,,,,,,,,,,,,,009,2022-05-10_10h55.10.492,Main,2022.1.1,58.997850728333944,
positive,red,2,None,None,,,,,0,1,1,1,,,,,,,,,,,,,,,,,,,,,prac,None,None,1,1.4970976999029517,100.36983069987036,None,None,1,,,,,,,,,,,,,,009,2022-05-10_10h55.10.492,Main,2022.1.1,58.997850728333944,
negative,blue,2,None,k,,,,,0,2,2,2,,,,,,,,,,,,,,,,,,,,,prac,k,k,1,1.93424309999682,102.86912679998204,None,None,0,,,,,,,,,,,,,,009,2022-05-10_10h55.10.492,Main,2022.1.1,58.997850728333944,
positive,yellow,1,None,k,,,,,0,3,3,3,,,,,,,,,,,,,,,,,,,,,prac,k,k,1,0.8176470000762492,106.7997039000038,None,None,0,,,,,,,,,,,,,,009,2022-05-10_10h55.10.492,Main,2022.1.1,58.997850728333944,
negative,blue,2,None,k,,,,,0,4,4,4,,,,,,,,,,,,,,,,,,,,,prac,k,k,1,7.0487667000852525,108.61839019996114,None,None,0,,,,,,,,,,,,,,009,2022-05-10_10h55.10.492,Main,2022.1.1,58.997850728333944,
negative,blue,1,None,k,,,,,0,5,5,5,,,,,,,,,,,,,,,,,,,,,prac,k,k,1,2.215393800055608,117.66641439986415,None,None,0,,,,,,,,,,,,,,009,2022-05-10_10h55.10.492,Main,2022.1.1,58.997850728333944,
negative,yellow,2,k,None,,,,,0,6,6,6,,,,,,,,,,,,,,,,,,,,,prac,None,None,1,1.501090900041163,121.88296779990196,None,None,1,,,,,,,,,,,,,,009,2022-05-10_10h55.10.492,Main,2022.1.1,58.997850728333944,
negative,red,1,None,None,,,,,0,7,7,7,,,,,,,,,,,,,,,,,,,,,prac,None,None,1,1.4984190999530256,124.3829619998578,None,None,1,,,,,,,,,,,,,,009,2022-05-10_10h55.10.492,Main,2022.1.1,58.997850728333944,
positive,yellow,2,None,k,,,,,0,8,8,8,,,,,,,,,,,,,,,,,,,,,prac,k,k,1,1.2021870999597013,126.88260989985429,None,None,0,,,,,,,,,,,,,,009,2022-05-10_10h55.10.492,Main,2022.1.1,58.997850728333944,
negative,yellow,1,k,None,,,,,0,9,9,9,,,,,,,,,,,,,,,,,,,,,prac,None,None,1,1.4990185000933707,129.0853907999117,None,None,1,,,,,,,,,,,,,,009,2022-05-10_10h55.10.492,Main,2022.1.1,58.997850728333944,
positive,yellow,2,None,k,,,,,0,10,10,10,,,,,,,,,,,,,,,,,,,,,prac,k,k,1,1.1128021001350135,131.58536599995568,None,None,0,,,,,,,,,,,,,,009,2022-05-10_10h55.10.492,Main,2022.1.1,58.997850728333944,
negative,yellow,2,k,None,,,,,0,11,11,11,,,,,,,,,,,,,,,,,,,,,prac,None,None,1,1.5013998998329043,133.6991268999409,None,None,1,,,,,,,,,,,,,,009,2022-05-10_10h55.10.492,Main,2022.1.1,58.997850728333944,
negative,red,2,None,None,,,,,0,12,12,12,,,,,,,,,,,,,,,,,,,,,prac,None,None,1,1.5026552001945674,136.20189749985002,None,None,1,,,,,,,,,,,,,,009,2022-05-10_10h55.10.492,Main,2022.1.1,58.997850728333944,
positive,red,1,None,None,,,,,0,13,13,13,,,,,,,,,,,,,,,,,,,,,prac,None,None,1,1.4989783000200987,138.7068658999633,None,None,1,,,,,,,,,,,,,,009,2022-05-10_10h55.10.492,Main,2022.1.1,58.997850728333944,
positive,blue,2,k,None,,,,,0,14,14,14,,,,,,,,,,,,,,,,,,,,,prac,None,None,1,1.4931030999869108,141.20350879989564,None,None,1,,,,,,,,,,,,,,009,2022-05-10_10h55.10.492,Main,2022.1.1,58.997850728333944,
positive,blue,1,k,None,,,,,0,15,15,15,,,,,,,,,,,,,,,,,,,,,prac,None,None,1,1.4990105000324547,143.69919269997627,None,None,1,,,,,,,,,,,,,,009,2022-05-10_10h55.10.492,Main,2022.1.1,58.997850728333944,
negative,blue,1,None,k,,,,,0,16,16,16,,,,,,,,,,,,,,,,,,,,,prac,k,k,1,0.7989175000693649,146.1991765999701,None,None,0,,,,,,,,,,,,,,009,2022-05-10_10h55.10.492,Main,2022.1.1,58.997850728333944,
positive,blue,2,k,None,,,,,0,17,17,17,,,,,,,,,,,,,,,,,,,,,prac,None,None,1,1.50157199986279,147.99883689987473,None,None,1,,,,,,,,,,,,,,009,2022-05-10_10h55.10.492,Main,2022.1.1,58.997850728333944,
positive,blue,1,k,None,,,,,0,18,18,18,,,,,,,,,,,,,,,,,,,,,prac,None,None,1,1.4964987998828292,150.50161279994063,None,None,1,,,,,,,,,,,,,,009,2022-05-10_10h55.10.492,Main,2022.1.1,58.997850728333944,
positive,yellow,1,None,k,,,,,0,19,19,19,,,,,,,,,,,,,,,,,,,,,prac,k,k,1,0.9323895999696106,152.99904749984853,None,None,0,,,,,,,,,,,,,,009,2022-05-10_10h55.10.492,Main,2022.1.1,58.997850728333944,
negative,yellow,1,k,None,,,,,1,0,20,0,,,,,,,,,,,,,,,,,,,,,prac,None,None,1,1.4985438999719918,154.93233719980344,None,None,1,,,,,,,,,,,,,,009,2022-05-10_10h55.10.492,Main,2022.1.1,58.997850728333944,
positive,red,2,None,None,,,,,1,1,21,1,,,,,,,,,,,,,,,,,,,,,prac,None,None,1,1.4883441000711173,157.4322317999322,None,None,1,,,,,,,,,,,,,,009,2022-05-10_10h55.10.492,Main,2022.1.1,58.997850728333944,
negative,blue,2,None,k,,,,,1,2,22,2,,,,,,,,,,,,,,,,,,,,,prac,k,k,1,1.2603148000780493,159.9194439998828,None,None,0,,,,,,,,,,,,,,009,2022-05-10_10h55.10.492,Main,2022.1.1,58.997850728333944,
positive,yellow,1,None,k,,,,,1,3,23,3,,,,,,,,,,,,,,,,,,,,,prac,k,k,1,0.9323815000243485,162.18220609985292,None,None,0,,,,,,,,,,,,,,009,2022-05-10_10h55.10.492,Main,2022.1.1,58.997850728333944,
negative,blue,2,None,k,,,,,1,4,24,4,,,,,,,,,,,,,,,,,,,,,prac,k,k,1,1.5154808999504894,164.11545649985783,None,None,0,,,,,,,,,,,,,,009,2022-05-10_10h55.10.492,Main,2022.1.1,58.997850728333944,
negative,blue,1,None,k,,,,,1,5,25,5,,,,,,,,,,,,,,,,,,,,,prac,k,k,1,1.1654540000017732,167.6343427998945,None,None,0,,,,,,,,,,,,,,009,2022-05-10_10h55.10.492,Main,2022.1.1,58.997850728333944,
negative,yellow,2,k,None,,,,,1,6,26,6,,,,,,,,,,,,,,,,,,,,,prac,None,None,1,1.4989328000228852,169.79866769979708,None,None,1,,,,,,,,,,,,,,009,2022-05-10_10h55.10.492,Main,2022.1.1,58.997850728333944,
negative,red,1,None,None,,,,,1,7,27,7,,,,,,,,,,,,,,,,,,,,,prac,None,None,1,1.4979336000978947,172.2983248999808,None,None,1,,,,,,,,,,,,,,009,2022-05-10_10h55.10.492,Main,2022.1.1,58.997850728333944,
positive,yellow,2,None,k,,,,,1,8,28,8,,,,,,,,,,,,,,,,,,,,,prac,k,k,1,0.7663221000693738,174.79841399984434,None,None,0,,,,,,,,,,,,,,009,2022-05-10_10h55.10.492,Main,2022.1.1,58.997850728333944,
negative,yellow,1,k,None,,,,,1,9,29,9,,,,,,,,,,,,,,,,,,,,,prac,None,None,1,1.5011558001860976,176.56774499989115,None,None,1,,,,,,,,,,,,,,009,2022-05-10_10h55.10.492,Main,2022.1.1,58.997850728333944,
positive,yellow,2,None,k,,,,,1,10,30,10,,,,,,,,,,,,,,,,,,,,,prac,k,k,1,0.6810812999028713,179.06766299996525,None,None,0,,,,,,,,,,,,,,009,2022-05-10_10h55.10.492,Main,2022.1.1,58.997850728333944,
negative,yellow,2,k,None,,,,,1,11,31,11,,,,,,,,,,,,,,,,,,,,,prac,None,None,1,1.5014184000901878,180.74814699986018,None,None,1,,,,,,,,,,,,,,009,2022-05-10_10h55.10.492,Main,2022.1.1,58.997850728333944,
negative,red,2,None,None,,,,,1,12,32,12,,,,,,,,,,,,,,,,,,,,,prac,None,None,1,1.4987842999398708,183.2485011999961,None,None,1,,,,,,,,,,,,,,009,2022-05-10_10h55.10.492,Main,2022.1.1,58.997850728333944,
positive,red,1,None,None,,,,,1,13,33,13,,,,,,,,,,,,,,,,,,,,,prac,None,None,1,1.4968022999819368,185.7483474998735,None,None,1,,,,,,,,,,,,,,009,2022-05-10_10h55.10.492,Main,2022.1.1,58.997850728333944,
positive,blue,2,k,None,,,,,1,14,34,14,,,,,,,,,,,,,,,,,,,,,prac,None,k,0,0.6500764999072999,188.2482232998591,None,None,1,,,,,,,,,,,,,,009,2022-05-10_10h55.10.492,Main,2022.1.1,58.997850728333944,
positive,blue,1,k,None,,,,,1,15,35,15,,,,,,,,,,,,,,,,,,,,,prac,None,None,1,1.4982326000463217,190.89821089990437,None,None,1,,,,,,,,,,,,,,009,2022-05-10_10h55.10.492,Main,2022.1.1,58.997850728333944,
negative,blue,1,None,k,,,,,1,16,36,16,,,,,,,,,,,,,,,,,,,,,prac,k,k,1,1.315411000046879,193.3981067999266,None,None,0,,,,,,,,,,,,,,009,2022-05-10_10h55.10.492,Main,2022.1.1,58.997850728333944,
positive,blue,2,k,None,,,,,1,17,37,17,,,,,,,,,,,,,,,,,,,,,prac,None,None,1,1.4987404998391867,195.71476949984208,None,None,1,,,,,,,,,,,,,,009,2022-05-10_10h55.10.492,Main,2022.1.1,58.997850728333944,
positive,blue,1,k,None,,,,,1,18,38,18,,,,,,,,,,,,,,,,,,,,,prac,None,None,1,1.49984659999609,198.21474969992414,None,None,1,,,,,,,,,,,,,,009,2022-05-10_10h55.10.492,Main,2022.1.1,58.997850728333944,
positive,yellow,1,None,k,,,,,1,19,39,19,,,,,,,,,,,,,,,,,,,,,prac,k,k,1,0.6350229999516159,200.71449429984204,None,None,0,,,,,,,,,,,,,,009,2022-05-10_10h55.10.492,Main,2022.1.1,58.997850728333944,
,,,,,,,,,,,,,,,,,,,,,,,,,,,,,,,,,,,,,,,,,,202.34797349991277,None,202.34797349991277,None,0.11666667,0.072222225,0,0,0,0.01275019976310432,None,,,009,2022-05-10_10h55.10.492,Main,2022.1.1,58.997850728333944,
negative,yellow,2,k,None,,,,,,,,,0,0,0,0,,,,,,,,,,,,,211.16423619980924,None,211.16423619980924,None,main,None,None,1,1.5004843999631703,213.1912038999144,None,None,1,,,,,,,,,,,,,,009,2022-05-10_10h55.10.492,Main,2022.1.1,58.997850728333944,
positive,red,1,None,None,,,,,,,,,0,1,1,1,,,,,,,,,,,,,,,,,main,None,None,1,1.4986012999434024,215.6977777997963,None,None,1,,,,,,,,,,,,,,009,2022-05-10_10h55.10.492,Main,2022.1.1,58.997850728333944,
positive,blue,2,k,None,,,,,,,,,0,2,2,2,,,,,,,,,,,,,,,,,main,None,None,1,1.4972634001169354,218.19769129995257,None,None,1,,,,,,,,,,,,,,009,2022-05-10_10h55.10.492,Main,2022.1.1,58.997850728333944,
positive,blue,1,k,None,,,,,,,,,0,3,3,3,,,,,,,,,,,,,,,,,main,None,None,1,1.5005669998936355,220.6973524999339,None,None,1,,,,,,,,,,,,,,009,2022-05-10_10h55.10.492,Main,2022.1.1,58.997850728333944,
negative,yellow,2,k,None,,,,,,,,,0,4,4,4,,,,,,,,,,,,,,,,,main,None,None,1,1.4973627000581473,223.19997819978744,None,None,1,,,,,,,,,,,,,,009,2022-05-10_10h55.10.492,Main,2022.1.1,58.997850728333944,
positive,yellow,2,None,k,,,,,,,,,0,5,5,5,,,,,,,,,,,,,,,,,main,k,k,1,0.7311311999801546,225.69744909997098,None,None,0,,,,,,,,,,,,,,009,2022-05-10_10h55.10.492,Main,2022.1.1,58.997850728333944,
negative,blue,2,None,k,,,,,,,,,0,6,6,6,,,,,,,,,,,,,,,,,main,k,k,1,1.282819899963215,227.4304876998067,None,None,0,,,,,,,,,,,,,,009,2022-05-10_10h55.10.492,Main,2022.1.1,58.997850728333944,
positive,red,2,None,None,,,,,,,,,0,7,7,7,,,,,,,,,,,,,,,,,main,None,None,1,1.501226200023666,229.7141456999816,None,None,1,,,,,,,,,,,,,,009,2022-05-10_10h55.10.492,Main,2022.1.1,58.997850728333944,
positive,yellow,1,None,k,,,,,,,,,0,8,8,8,,,,,,,,,,,,,,,,,main,k,k,1,0.6800120000261813,232.21649319981225,None,None,0,,,,,,,,,,,,,,009,2022-05-10_10h55.10.492,Main,2022.1.1,58.997850728333944,
negative,red,1,None,None,,,,,,,,,0,9,9,9,,,,,,,,,,,,,,,,,main,None,None,1,1.4999530999921262,233.89701669989154,None,None,1,,,,,,,,,,,,,,009,2022-05-10_10h55.10.492,Main,2022.1.1,58.997850728333944,
positive,yellow,1,None,k,,,,,,,,,0,10,10,10,,,,,,,,,,,,,,,,,main,k,k,1,0.6646521000657231,236.397074499866,None,None,0,,,,,,,,,,,,,,009,2022-05-10_10h55.10.492,Main,2022.1.1,58.997850728333944,
negative,yellow,1,k,None,,,,,,,,,0,11,11,11,,,,,,,,,,,,,,,,,main,None,None,1,1.5014150999486446,238.06637899996713,None,None,1,,,,,,,,,,,,,,009,2022-05-10_10h55.10.492,Main,2022.1.1,58.997850728333944,
negative,yellow,1,k,None,,,,,,,,,0,12,12,12,,,,,,,,,,,,,,,,,main,None,None,1,1.4967716000974178,240.56632199999876,None,None,1,,,,,,,,,,,,,,009,2022-05-10_10h55.10.492,Main,2022.1.1,58.997850728333944,
negative,red,2,None,None,,,,,,,,,0,13,13,13,,,,,,,,,,,,,,,,,main,None,None,1,1.500555400038138,243.06354219978675,None,None,1,,,,,,,,,,,,,,009,2022-05-10_10h55.10.492,Main,2022.1.1,58.997850728333944,
positive,yellow,2,None,k,,,,,,,,,0,14,14,14,,,,,,,,,,,,,,,,,main,k,k,1,0.6137604999821633,245.56385369994678,None,None,0,,,,,,,,,,,,,,009,2022-05-10_10h55.10.492,Main,2022.1.1,58.997850728333944,
positive,blue,1,k,None,,,,,,,,,0,15,15,15,,,,,,,,,,,,,,,,,main,None,None,1,1.4983940999954939,247.18290099990554,None,None,1,,,,,,,,,,,,,,009,2022-05-10_10h55.10.492,Main,2022.1.1,58.997850728333944,
negative,blue,1,None,k,,,,,,,,,0,16,16,16,,,,,,,,,,,,,,,,,main,k,k,1,0.8330353000201285,249.68006799998693,None,None,0,,,,,,,,,,,,,,009,2022-05-10_10h55.10.492,Main,2022.1.1,58.997850728333944,
positive,blue,2,k,None,,,,,,,,,0,17,17,17,,,,,,,,,,,,,,,,,main,None,None,1,1.5009872999507934,251.51645189989358,None,None,1,,,,,,,,,,,,,,009,2022-05-10_10h55.10.492,Main,2022.1.1,58.997850728333944,
negative,blue,2,None,k,,,,,,,,,0,18,18,18,,,,,,,,,,,,,,,,,main,k,k,1,0.9635713000316173,254.01366789988242,None,None,0,,,,,,,,,,,,,,009,2022-05-10_10h55.10.492,Main,2022.1.1,58.997850728333944,
negative,blue,1,None,k,,,,,,,,,0,19,19,19,,,,,,,,,,,,,,,,,main,k,k,1,1.2168134001549333,255.9801209999714,None,None,0,,,,,,,,,,,,,,009,2022-05-10_10h55.10.492,Main,2022.1.1,58.997850728333944,
negative,blue,1,None,k,,,,,,,,,0,20,20,20,,,,,,,,,,,,,,,,,main,k,k,1,0.6314274999313056,258.1967822997831,None,None,0,,,,,,,,,,,,,,009,2022-05-10_10h55.10.492,Main,2022.1.1,58.997850728333944,
negative,blue,2,None,k,,,,,,,,,0,21,21,21,,,,,,,,,,,,,,,,,main,k,k,1,0.8170715000014752,259.83009159984067,None,None,0,,,,,,,,,,,,,,009,2022-05-10_10h55.10.492,Main,2022.1.1,58.997850728333944,
negative,red,1,None,None,,,,,,,,,0,22,22,22,,,,,,,,,,,,,,,,,main,None,None,1,1.497133299941197,261.64666819991544,None,None,1,,,,,,,,,,,,,,009,2022-05-10_10h55.10.492,Main,2022.1.1,58.997850728333944,
positive,red,2,None,None,,,,,,,,,0,23,23,23,,,,,,,,,,,,,,,,,main,None,None,1,1.4990445000585169,264.14670829987153,None,None,1,,,,,,,,,,,,,,009,2022-05-10_10h55.10.492,Main,2022.1.1,58.997850728333944,
negative,red,2,None,None,,,,,,,,,0,24,24,24,,,,,,,,,,,,,,,,,main,None,None,1,1.4995339999441057,266.6463676998392,None,None,1,,,,,,,,,,,,,,009,2022-05-10_10h55.10.492,Main,2022.1.1,58.997850728333944,
positive,blue,2,k,None,,,,,,,,,0,25,25,25,,,,,,,,,,,,,,,,,main,None,None,1,1.500664300052449,269.14633149979636,None,None,1,,,,,,,,,,,,,,009,2022-05-10_10h55.10.492,Main,2022.1.1,58.997850728333944,
negative,yellow,1,k,None,,,,,,,,,0,26,26,26,,,,,,,,,,,,,,,,,main,None,None,1,1.4976050001569092,271.6490083998069,None,None,1,,,,,,,,,,,,,,009,2022-05-10_10h55.10.492,Main,2022.1.1,58.997850728333944,
positive,blue,2,k,None,,,,,,,,,0,27,27,27,,,,,,,,,,,,,,,,,main,None,k,0,0.6815070000011474,274.1464516997803,None,None,1,,,,,,,,,,,,,,009,2022-05-10_10h55.10.492,Main,2022.1.1,58.997850728333944,
negative,blue,2,None,k,,,,,,,,,0,28,28,28,,,,,,,,,,,,,,,,,main,k,k,1,0.8344070999883115,276.8296690999996,None,None,0,,,,,,,,,,,,,,009,2022-05-10_10h55.10.492,Main,2022.1.1,58.997850728333944,
positive,red,1,None,None,,,,,,,,,0,29,29,29,,,,,,,,,,,,,,,,,main,None,None,1,1.4983589998446405,278.66301449993625,None,None,1,,,,,,,,,,,,,,009,2022-05-10_10h55.10.492,Main,2022.1.1,58.997850728333944,
positive,blue,1,k,None,,,,,,,,,0,30,30,30,,,,,,,,,,,,,,,,,main,None,None,1,1.503664999967441,281.1629064998124,None,None,1,,,,,,,,,,,,,,009,2022-05-10_10h55.10.492,Main,2022.1.1,58.997850728333944,
positive,yellow,1,None,k,,,,,,,,,0,31,31,31,,,,,,,,,,,,,,,,,main,k,k,1,0.8778129001148045,283.6629609998781,None,None,0,,,,,,,,,,,,,,009,2022-05-10_10h55.10.492,Main,2022.1.1,58.997850728333944,
negative,yellow,2,k,None,,,,,,,,,0,32,32,32,,,,,,,,,,,,,,,,,main,None,None,1,1.501115099992603,285.5462162999902,None,None,1,,,,,,,,,,,,,,009,2022-05-10_10h55.10.492,Main,2022.1.1,58.997850728333944,
negative,blue,1,None,k,,,,,,,,,0,33,33,33,,,,,,,,,,,,,,,,,main,k,k,1,0.9470931000541896,288.04612939991057,None,None,0,,,,,,,,,,,,,,009,2022-05-10_10h55.10.492,Main,2022.1.1,58.997850728333944,
positive,blue,1,k,None,,,,,,,,,0,34,34,34,,,,,,,,,,,,,,,,,main,None,None,1,1.498495499836281,289.99609909998253,None,None,1,,,,,,,,,,,,,,009,2022-05-10_10h55.10.492,Main,2022.1.1,58.997850728333944,
negative,yellow,1,k,None,,,,,,,,,0,35,35,35,,,,,,,,,,,,,,,,,main,None,None,1,1.49920849991031,292.4960150998086,None,None,1,,,,,,,,,,,,,,009,2022-05-10_10h55.10.492,Main,2022.1.1,58.997850728333944,
positive,yellow,2,None,k,,,,,,,,,0,36,36,36,,,,,,,,,,,,,,,,,main,k,k,1,0.7157672001048923,294.99606329994276,None,None,0,,,,,,,,,,,,,,009,2022-05-10_10h55.10.492,Main,2022.1.1,58.997850728333944,
positive,yellow,2,None,k,,,,,,,,,0,37,37,37,,,,,,,,,,,,,,,,,main,k,k,1,0.6157427998259664,296.71512409998104,None,None,0,,,,,,,,,,,,,,009,2022-05-10_10h55.10.492,Main,2022.1.1,58.997850728333944,
negative,yellow,2,k,None,,,,,,,,,0,38,38,38,,,,,,,,,,,,,,,,,main,None,None,1,1.4986392999999225,298.32922159996815,None,None,1,,,,,,,,,,,,,,009,2022-05-10_10h55.10.492,Main,2022.1.1,58.997850728333944,
positive,yellow,1,None,k,,,,,,,,,0,39,39,39,,,,,,,,,,,,,,,,,main,k,k,1,0.7161789000965655,300.82921849982813,None,None,0,,,,,,,,,,,,,,009,2022-05-10_10h55.10.492,Main,2022.1.1,58.997850728333944,
negative,yellow,2,k,None,,,,,,,,,0,40,40,40,,,,,,,,,,,,,,,,,main,None,None,1,1.49923610012047,302.54588879994117,None,None,1,,,,,,,,,,,,,,009,2022-05-10_10h55.10.492,Main,2022.1.1,58.997850728333944,
positive,blue,2,k,None,,,,,,,,,0,41,41,41,,,,,,,,,,,,,,,,,main,None,None,1,1.5006671999581158,305.04557579988614,None,None,1,,,,,,,,,,,,,,009,2022-05-10_10h55.10.492,Main,2022.1.1,58.997850728333944,
positive,blue,2,k,None,,,,,,,,,0,42,42,42,,,,,,,,,,,,,,,,,main,None,None,1,1.4964739000424743,307.5483261998743,None,None,1,,,,,,,,,,,,,,009,2022-05-10_10h55.10.492,Main,2022.1.1,58.997850728333944,
negative,blue,2,None,k,,,,,,,,,0,43,43,43,,,,,,,,,,,,,,,,,main,k,k,1,1.0157957000192255,310.0457559998613,None,None,0,,,,,,,,,,,,,,009,2022-05-10_10h55.10.492,Main,2022.1.1,58.997850728333944,
negative,red,1,None,None,,,,,,,,,0,44,44,44,,,,,,,,,,,,,,,,,main,None,None,1,1.498630200047046,312.06234439997934,None,None,1,,,,,,,,,,,,,,009,2022-05-10_10h55.10.492,Main,2022.1.1,58.997850728333944,
negative,yellow,1,k,None,,,,,,,,,0,45,45,45,,,,,,,,,,,,,,,,,main,None,None,1,1.4997680999804288,314.5622670999728,None,None,1,,,,,,,,,,,,,,009,2022-05-10_10h55.10.492,Main,2022.1.1,58.997850728333944,
negative,yellow,1,k,None,,,,,,,,,0,46,46,46,,,,,,,,,,,,,,,,,main,None,None,1,1.4979910999536514,317.0621723998338,None,None,1,,,,,,,,,,,,,,009,2022-05-10_10h55.10.492,Main,2022.1.1,58.997850728333944,
positive,red,1,None,None,,,,,,,,,0,47,47,47,,,,,,,,,,,,,,,,,main,None,None,1,1.4990336000919342,319.5621555999387,None,None,1,,,,,,,,,,,,,,009,2022-05-10_10h55.10.492,Main,2022.1.1,58.997850728333944,
positive,yellow,1,None,k,,,,,,,,,0,48,48,48,,,,,,,,,,,,,,,,,main,k,k,1,0.682534100022167,322.0620150999166,None,None,0,,,,,,,,,,,,,,009,2022-05-10_10h55.10.492,Main,2022.1.1,58.997850728333944,
negative,blue,1,None,k,,,,,,,,,0,49,49,49,,,,,,,,,,,,,,,,,main,k,k,1,0.8823299999348819,323.7454623999074,None,None,0,,,,,,,,,,,,,,009,2022-05-10_10h55.10.492,Main,2022.1.1,58.997850728333944,
positive,yellow,2,None,k,,,,,,,,,0,50,50,50,,,,,,,,,,,,,,,,,main,k,k,1,0.6325160001870245,325.6286989999935,None,None,0,,,,,,,,,,,,,,009,2022-05-10_10h55.10.492,Main,2022.1.1,58.997850728333944,
negative,blue,1,None,k,,,,,,,,,0,51,51,51,,,,,,,,,,,,,,,,,main,k,k,1,0.6986241999547929,327.26212629978545,None,None,0,,,,,,,,,,,,,,009,2022-05-10_10h55.10.492,Main,2022.1.1,58.997850728333944,
positive,red,2,None,None,,,,,,,,,0,52,52,52,,,,,,,,,,,,,,,,,main,None,None,1,1.5005703999195248,328.96168479998596,None,None,1,,,,,,,,,,,,,,009,2022-05-10_10h55.10.492,Main,2022.1.1,58.997850728333944,
positive,yellow,2,None,k,,,,,,,,,0,53,53,53,,,,,,,,,,,,,,,,,main,k,k,1,0.6460209998767823,331.4620569997933,None,None,0,,,,,,,,,,,,,,009,2022-05-10_10h55.10.492,Main,2022.1.1,58.997850728333944,
negative,red,2,None,None,,,,,,,,,0,54,54,54,,,,,,,,,,,,,,,,,main,None,None,1,1.4992670000065118,333.1143556998577,None,None,1,,,,,,,,,,,,,,009,2022-05-10_10h55.10.492,Main,2022.1.1,58.997850728333944,
positive,yellow,1,None,k,,,,,,,,,0,55,55,55,,,,,,,,,,,,,,,,,main,k,k,1,0.6318435999564826,335.6115919998847,None,None,0,,,,,,,,,,,,,,009,2022-05-10_10h55.10.492,Main,2022.1.1,58.997850728333944,
negative,blue,2,None,k,,,,,,,,,0,56,56,56,,,,,,,,,,,,,,,,,main,k,k,1,0.7155029000714421,337.2476111999713,None,None,0,,,,,,,,,,,,,,009,2022-05-10_10h55.10.492,Main,2022.1.1,58.997850728333944,
positive,blue,1,k,None,,,,,,,,,0,57,57,57,,,,,,,,,,,,,,,,,main,None,None,1,1.4989331001415849,338.9643383999355,None,None,1,,,,,,,,,,,,,,009,2022-05-10_10h55.10.492,Main,2022.1.1,58.997850728333944,
positive,blue,1,k,None,,,,,,,,,0,58,58,58,,,,,,,,,,,,,,,,,main,None,None,1,1.4984796000644565,341.46169929997995,None,None,1,,,,,,,,,,,,,,009,2022-05-10_10h55.10.492,Main,2022.1.1,58.997850728333944,
negative,yellow,2,k,None,,,,,,,,,0,59,59,59,,,,,,,,,,,,,,,,,main,None,None,1,1.5017078001983464,343.9614186999388,None,None,1,,,,,,,,,,,,,,009,2022-05-10_10h55.10.492,Main,2022.1.1,58.997850728333944,
positive,red,2,None,None,,,,,,,,,0,60,60,60,,,,,,,,,,,,,,,,,main,None,None,1,1.4972011998761445,346.4641650998965,None,None,1,,,,,,,,,,,,,,009,2022-05-10_10h55.10.492,Main,2022.1.1,58.997850728333944,
negative,yellow,1,k,None,,,,,,,,,0,61,61,61,,,,,,,,,,,,,,,,,main,None,None,1,1.498337599914521,348.9615420999471,None,None,1,,,,,,,,,,,,,,009,2022-05-10_10h55.10.492,Main,2022.1.1,58.997850728333944,
negative,red,1,None,None,,,,,,,,,0,62,62,62,,,,,,,,,,,,,,,,,main,None,None,1,1.4994294999632984,351.46144619979896,None,None,1,,,,,,,,,,,,,,009,2022-05-10_10h55.10.492,Main,2022.1.1,58.997850728333944,
negative,blue,1,None,k,,,,,,,,,0,63,63,63,,,,,,,,,,,,,,,,,main,k,k,1,0.7656242998782545,353.9614447997883,None,None,0,,,,,,,,,,,,,,009,2022-05-10_10h55.10.492,Main,2022.1.1,58.997850728333944,
positive,blue,2,k,None,,,,,,,,,0,64,64,64,,,,,,,,,,,,,,,,,main,None,None,1,1.4988599000498652,355.72801759978756,None,None,1,,,,,,,,,,,,,,009,2022-05-10_10h55.10.492,Main,2022.1.1,58.997850728333944,
negative,yellow,2,k,None,,,,,,,,,0,65,65,65,,,,,,,,,,,,,,,,,main,None,None,1,1.4989467000123113,358.2281023999676,None,None,1,,,,,,,,,,,,,,009,2022-05-10_10h55.10.492,Main,2022.1.1,58.997850728333944,
positive,yellow,2,None,k,,,,,,,,,0,66,66,66,,,,,,,,,,,,,,,,,main,k,k,1,0.6161555000580847,360.72790279984474,None,None,0,,,,,,,,,,,,,,009,2022-05-10_10h55.10.492,Main,2022.1.1,58.997850728333944,
positive,yellow,2,None,k,,,,,,,,,0,67,67,67,,,,,,,,,,,,,,,,,main,k,k,1,0.5165284001268446,362.344536999939,None,None,0,,,,,,,,,,,,,,009,2022-05-10_10h55.10.492,Main,2022.1.1,58.997850728333944,
positive,red,1,None,None,,,,,,,,,0,68,68,68,,,,,,,,,,,,,,,,,main,None,None,1,1.4975781000684947,363.86129619996063,None,None,1,,,,,,,,,,,,,,009,2022-05-10_10h55.10.492,Main,2022.1.1,58.997850728333944,
positive,yellow,1,None,k,,,,,,,,,0,69,69,69,,,,,,,,,,,,,,,,,main,k,k,1,1.1828151000663638,366.36109249992296,None,None,0,,,,,,,,,,,,,,009,2022-05-10_10h55.10.492,Main,2022.1.1,58.997850728333944,
negative,yellow,2,k,None,,,,,,,,,0,70,70,70,,,,,,,,,,,,,,,,,main,None,None,1,1.4985984999220818,368.5444421998691,None,None,1,,,,,,,,,,,,,,009,2022-05-10_10h55.10.492,Main,2022.1.1,58.997850728333944,
positive,yellow,1,None,k,,,,,,,,,0,71,71,71,,,,,,,,,,,,,,,,,main,k,k,1,0.6323977999854833,371.0444250998553,None,None,0,,,,,,,,,,,,,,009,2022-05-10_10h55.10.492,Main,2022.1.1,58.997850728333944,
negative,blue,1,None,k,,,,,,,,,0,72,72,72,,,,,,,,,,,,,,,,,main,k,k,1,0.7324801001232117,372.6774287999142,None,None,0,,,,,,,,,,,,,,009,2022-05-10_10h55.10.492,Main,2022.1.1,58.997850728333944,
negative,red,2,None,None,,,,,,,,,0,73,73,73,,,,,,,,,,,,,,,,,main,None,None,1,1.5015826001763344,374.4107543998398,None,None,1,,,,,,,,,,,,,,009,2022-05-10_10h55.10.492,Main,2022.1.1,58.997850728333944,
positive,blue,2,k,None,,,,,,,,,0,74,74,74,,,,,,,,,,,,,,,,,main,None,None,1,1.4967569001019,376.9134556998033,None,None,1,,,,,,,,,,,,,,009,2022-05-10_10h55.10.492,Main,2022.1.1,58.997850728333944,
negative,blue,2,None,k,,,,,,,,,0,75,75,75,,,,,,,,,,,,,,,,,main,k,k,1,0.6986511999275535,379.410896099871,None,None,0,,,,,,,,,,,,,,009,2022-05-10_10h55.10.492,Main,2022.1.1,58.997850728333944,
negative,blue,2,None,k,,,,,,,,,0,76,76,76,,,,,,,,,,,,,,,,,main,k,k,1,0.6158059001900256,381.110582199879,None,None,0,,,,,,,,,,,,,,009,2022-05-10_10h55.10.492,Main,2022.1.1,58.997850728333944,
negative,yellow,1,k,None,,,,,,,,,0,77,77,77,,,,,,,,,,,,,,,,,main,None,None,1,1.5015044999308884,382.72724769986235,None,None,1,,,,,,,,,,,,,,009,2022-05-10_10h55.10.492,Main,2022.1.1,58.997850728333944,
positive,blue,1,k,None,,,,,,,,,0,78,78,78,,,,,,,,,,,,,,,,,main,None,None,1,1.499225900042802,385.22984980000183,None,None,1,,,,,,,,,,,,,,009,2022-05-10_10h55.10.492,Main,2022.1.1,58.997850728333944,
positive,blue,1,k,None,,,,,,,,,0,79,79,79,,,,,,,,,,,,,,,,,main,None,None,1,1.497250999789685,387.72994649992324,None,None,1,,,,,,,,,,,,,,009,2022-05-10_10h55.10.492,Main,2022.1.1,58.997850728333944,
positive,red,2,None,None,,,,,,,,,0,80,80,80,,,,,,,,,,,,,,,,,main,None,None,1,1.5005465000867844,390.22710559982806,None,None,1,,,,,,,,,,,,,,009,2022-05-10_10h55.10.492,Main,2022.1.1,58.997850728333944,
positive,yellow,2,None,k,,,,,,,,,0,81,81,81,,,,,,,,,,,,,,,,,main,k,k,1,0.8135666998568922,392.7297445998993,None,None,0,,,,,,,,,,,,,,009,2022-05-10_10h55.10.492,Main,2022.1.1,58.997850728333944,
positive,blue,1,k,None,,,,,,,,,0,82,82,82,,,,,,,,,,,,,,,,,main,None,None,1,1.4993400999810547,394.54391159978695,None,None,1,,,,,,,,,,,,,,009,2022-05-10_10h55.10.492,Main,2022.1.1,58.997850728333944,
negative,yellow,2,k,None,,,,,,,,,0,83,83,83,,,,,,,,,,,,,,,,,main,None,None,1,1.4978855999652296,397.043808999937,None,None,1,,,,,,,,,,,,,,009,2022-05-10_10h55.10.492,Main,2022.1.1,58.997850728333944,
positive,blue,2,k,None,,,,,,,,,0,84,84,84,,,,,,,,,,,,,,,,,main,None,None,1,1.4988508999813348,399.5437965998426,None,None,1,,,,,,,,,,,,,,009,2022-05-10_10h55.10.492,Main,2022.1.1,58.997850728333944,
positive,yellow,1,None,k,,,,,,,,,0,85,85,85,,,,,,,,,,,,,,,,,main,k,k,1,1.1162372999824584,402.04366919980384,None,None,0,,,,,,,,,,,,,,009,2022-05-10_10h55.10.492,Main,2022.1.1,58.997850728333944,
positive,blue,2,k,None,,,,,,,,,0,86,86,86,,,,,,,,,,,,,,,,,main,None,None,1,1.4987377999350429,404.16035859985277,None,None,1,,,,,,,,,,,,,,009,2022-05-10_10h55.10.492,Main,2022.1.1,58.997850728333944,
positive,blue,1,k,None,,,,,,,,,0,87,87,87,,,,,,,,,,,,,,,,,main,None,None,1,1.4997014999389648,406.6628339998424,None,None,1,,,,,,,,,,,,,,009,2022-05-10_10h55.10.492,Main,2022.1.1,58.997850728333944,
negative,yellow,2,k,None,,,,,,,,,0,88,88,88,,,,,,,,,,,,,,,,,main,None,None,1,1.5004537000786513,409.1600424000062,None,None,1,,,,,,,,,,,,,,009,2022-05-10_10h55.10.492,Main,2022.1.1,58.997850728333944,
negative,blue,2,None,k,,,,,,,,,0,89,89,89,,,,,,,,,,,,,,,,,main,k,k,1,1.097994799958542,411.6627229999285,None,None,0,,,,,,,,,,,,,,009,2022-05-10_10h55.10.492,Main,2022.1.1,58.997850728333944,
positive,yellow,2,None,k,,,,,,,,,0,90,90,90,,,,,,,,,,,,,,,,,main,k,k,1,0.7975572000723332,413.7601802998688,None,None,0,,,,,,,,,,,,,,009,2022-05-10_10h55.10.492,Main,2022.1.1,58.997850728333944,
negative,yellow,1,k,None,,,,,,,,,0,91,91,91,,,,,,,,,,,,,,,,,main,None,None,1,1.4987289998680353,415.560141999973,None,None,1,,,,,,,,,,,,,,009,2022-05-10_10h55.10.492,Main,2022.1.1,58.997850728333944,
negative,red,2,None,None,,,,,,,,,0,92,92,92,,,,,,,,,,,,,,,,,main,None,None,1,1.496500999899581,418.0601187997963,None,None,1,,,,,,,,,,,,,,009,2022-05-10_10h55.10.492,Main,2022.1.1,58.997850728333944,
negative,blue,2,None,k,,,,,,,,,0,93,93,93,,,,,,,,,,,,,,,,,main,k,k,1,0.798195700161159,420.56004639994353,None,None,0,,,,,,,,,,,,,,009,2022-05-10_10h55.10.492,Main,2022.1.1,58.997850728333944,
negative,blue,1,None,k,,,,,,,,,0,94,94,94,,,,,,,,,,,,,,,,,main,k,k,1,0.9829374998807907,422.35971399978735,None,None,0,,,,,,,,,,,,,,009,2022-05-10_10h55.10.492,Main,2022.1.1,58.997850728333944,
negative,blue,1,None,k,,,,,,,,,0,95,95,95,,,,,,,,,,,,,,,,,main,k,k,1,0.7322273999452591,424.34342459985055,None,None,0,,,,,,,,,,,,,,009,2022-05-10_10h55.10.492,Main,2022.1.1,58.997850728333944,
negative,red,1,None,None,,,,,,,,,0,96,96,96,,,,,,,,,,,,,,,,,main,None,None,1,1.4986958999652416,426.0767003998626,None,None,1,,,,,,,,,,,,,,009,2022-05-10_10h55.10.492,Main,2022.1.1,58.997850728333944,
positive,yellow,1,None,k,,,,,,,,,0,97,97,97,,,,,,,,,,,,,,,,,main,k,k,1,0.6851129999849945,428.57651059981436,None,None,0,,,,,,,,,,,,,,009,2022-05-10_10h55.10.492,Main,2022.1.1,58.997850728333944,
negative,yellow,1,k,None,,,,,,,,,0,98,98,98,,,,,,,,,,,,,,,,,main,None,None,1,1.4963579999748617,430.25977629981935,None,None,1,,,,,,,,,,,,,,009,2022-05-10_10h55.10.492,Main,2022.1.1,58.997850728333944,
positive,red,1,None,None,,,,,,,,,0,99,99,99,,,,,,,,,,,,,,,,,main,None,None,1,1.4996144000906497,432.7597427999135,None,None,1,,,,,,,,,,,,,,009,2022-05-10_10h55.10.492,Main,2022.1.1,58.997850728333944,
positive,blue,1,k,None,,,,,,,,,0,100,100,100,,,,,,,,,,,,,,,,,main,None,None,1,1.5008253001142293,435.2594393999316,None,None,1,,,,,,,,,,,,,,009,2022-05-10_10h55.10.492,Main,2022.1.1,58.997850728333944,
negative,yellow,1,k,None,,,,,,,,,0,101,101,101,,,,,,,,,,,,,,,,,main,None,None,1,1.4988477998413146,437.7622446999885,None,None,1,,,,,,,,,,,,,,009,2022-05-10_10h55.10.492,Main,2022.1.1,58.997850728333944,
negative,blue,2,None,k,,,,,,,,,0,102,102,102,,,,,,,,,,,,,,,,,main,k,k,1,0.9134144000709057,440.26214109989814,None,None,0,,,,,,,,,,,,,,009,2022-05-10_10h55.10.492,Main,2022.1.1,58.997850728333944,
negative,yellow,2,k,None,,,,,,,,,0,103,103,103,,,,,,,,,,,,,,,,,main,None,None,1,1.5016395999118686,442.17596059991047,None,None,1,,,,,,,,,,,,,,009,2022-05-10_10h55.10.492,Main,2022.1.1,58.997850728333944,
positive,yellow,2,None,k,,,,,,,,,0,104,104,104,,,,,,,,,,,,,,,,,main,k,k,1,0.7136615000199527,444.678657699842,None,None,0,,,,,,,,,,,,,,009,2022-05-10_10h55.10.492,Main,2022.1.1,58.997850728333944,
positive,blue,1,k,None,,,,,,,,,0,105,105,105,,,,,,,,,,,,,,,,,main,None,None,1,1.499393600039184,446.39295669994317,None,None,1,,,,,,,,,,,,,,009,2022-05-10_10h55.10.492,Main,2022.1.1,58.997850728333944,
positive,blue,2,k,None,,,,,,,,,0,106,106,106,,,,,,,,,,,,,,,,,main,None,None,1,1.49780200002715,448.89275939995423,None,None,1,,,,,,,,,,,,,,009,2022-05-10_10h55.10.492,Main,2022.1.1,58.997850728333944,
negative,blue,1,None,k,,,,,,,,,0,107,107,107,,,,,,,,,,,,,,,,,main,k,k,1,0.8660550999920815,451.39276759978384,None,None,0,,,,,,,,,,,,,,009,2022-05-10_10h55.10.492,Main,2022.1.1,58.997850728333944,
positive,yellow,2,None,k,,,,,,,,,0,108,108,108,,,,,,,,,,,,,,,,,main,k,k,1,1.1489138000179082,453.2593381998595,None,None,0,,,,,,,,,,,,,,009,2022-05-10_10h55.10.492,Main,2022.1.1,58.997850728333944,
negative,yellow,1,k,None,,,,,,,,,0,109,109,109,,,,,,,,,,,,,,,,,main,None,None,1,1.4987733999732882,455.4092488999013,None,None,1,,,,,,,,,,,,,,009,2022-05-10_10h55.10.492,Main,2022.1.1,58.997850728333944,
negative,blue,2,None,k,,,,,,,,,0,110,110,110,,,,,,,,,,,,,,,,,main,k,k,1,1.2495498999487609,457.9092285998631,None,None,0,,,,,,,,,,,,,,009,2022-05-10_10h55.10.492,Main,2022.1.1,58.997850728333944,
positive,blue,2,k,None,,,,,,,,,0,111,111,111,,,,,,,,,,,,,,,,,main,None,None,1,1.4992576001677662,460.15923299989663,None,None,1,,,,,,,,,,,,,,009,2022-05-10_10h55.10.492,Main,2022.1.1,58.997850728333944,
negative,blue,1,None,k,,,,,,,,,0,112,112,112,,,,,,,,,,,,,,,,,main,k,k,1,0.8153458000160754,462.6588889998384,None,None,0,,,,,,,,,,,,,,009,2022-05-10_10h55.10.492,Main,2022.1.1,58.997850728333944,
positive,yellow,1,None,k,,,,,,,,,0,113,113,113,,,,,,,,,,,,,,,,,main,k,k,1,0.7181669999845326,464.4783171999734,None,None,0,,,,,,,,,,,,,,009,2022-05-10_10h55.10.492,Main,2022.1.1,58.997850728333944,
negative,red,1,None,None,,,,,,,,,0,114,114,114,,,,,,,,,,,,,,,,,main,None,None,1,1.4960829999763519,466.1949523999356,None,None,1,,,,,,,,,,,,,,009,2022-05-10_10h55.10.492,Main,2022.1.1,58.997850728333944,
positive,red,1,None,None,,,,,,,,,0,115,115,115,,,,,,,,,,,,,,,,,main,None,None,1,1.5018049001228064,468.69208809989505,None,None,1,,,,,,,,,,,,,,009,2022-05-10_10h55.10.492,Main,2022.1.1,58.997850728333944,
negative,red,2,None,None,,,,,,,,,0,116,116,116,,,,,,,,,,,,,,,,,main,None,None,1,1.4966014998499304,471.1923906998709,None,None,1,,,,,,,,,,,,,,009,2022-05-10_10h55.10.492,Main,2022.1.1,58.997850728333944,
negative,yellow,2,k,None,,,,,,,,,0,117,117,117,,,,,,,,,,,,,,,,,main,None,None,1,1.4987967000342906,473.6923119998537,None,None,1,,,,,,,,,,,,,,009,2022-05-10_10h55.10.492,Main,2022.1.1,58.997850728333944,
positive,yellow,1,None,k,,,,,,,,,0,118,118,118,,,,,,,,,,,,,,,,,main,k,k,1,0.5994076998904347,476.19213189999573,None,None,0,,,,,,,,,,,,,,009,2022-05-10_10h55.10.492,Main,2022.1.1,58.997850728333944,
positive,red,2,None,None,,,,,,,,,0,119,119,119,,,,,,,,,,,,,,,,,main,None,None,1,1.5042213997803628,477.79219319997355,None,None,1,,,,,,,,,,,,,,009,2022-05-10_10h55.10.492,Main,2022.1.1,58.997850728333944,
positive,blue,2,k,None,,,,,,,,,0,120,120,120,,,,,,,,,,,,,,,,,main,None,None,1,1.4931523001287133,480.2961222999729,None,None,1,,,,,,,,,,,,,,009,2022-05-10_10h55.10.492,Main,2022.1.1,58.997850728333944,
negative,red,1,None,None,,,,,,,,,0,121,121,121,,,,,,,,,,,,,,,,,main,None,None,1,1.5013987000565976,482.79208769998513,None,None,1,,,,,,,,,,,,,,009,2022-05-10_10h55.10.492,Main,2022.1.1,58.997850728333944,
positive,yellow,2,None,k,,,,,,,,,0,122,122,122,,,,,,,,,,,,,,,,,main,k,k,1,0.5966839999891818,485.29201749991626,None,None,0,,,,,,,,,,,,,,009,2022-05-10_10h55.10.492,Main,2022.1.1,58.997850728333944,
negative,red,2,None,None,,,,,,,,,0,123,123,123,,,,,,,,,,,,,,,,,main,None,None,1,1.5015326999127865,486.8916572998278,None,None,1,,,,,,,,,,,,,,009,2022-05-10_10h55.10.492,Main,2022.1.1,58.997850728333944,
negative,yellow,2,k,None,,,,,,,,,0,124,124,124,,,,,,,,,,,,,,,,,main,None,None,1,1.499224300030619,489.3944527998101,None,None,1,,,,,,,,,,,,,,009,2022-05-10_10h55.10.492,Main,2022.1.1,58.997850728333944,
positive,red,1,None,None,,,,,,,,,0,125,125,125,,,,,,,,,,,,,,,,,main,None,None,1,1.4969329999294132,491.8944028997794,None,None,1,,,,,,,,,,,,,,009,2022-05-10_10h55.10.492,Main,2022.1.1,58.997850728333944,
negative,blue,2,None,k,,,,,,,,,0,126,126,126,,,,,,,,,,,,,,,,,main,k,k,1,0.731928699882701,494.3915736998897,None,None,0,,,,,,,,,,,,,,009,2022-05-10_10h55.10.492,Main,2022.1.1,58.997850728333944,
negative,blue,1,None,k,,,,,,,,,0,127,127,127,,,,,,,,,,,,,,,,,main,k,k,1,0.9346437000203878,496.1275794999674,None,None,0,,,,,,,,,,,,,,009,2022-05-10_10h55.10.492,Main,2022.1.1,58.997850728333944,
negative,yellow,1,k,None,,,,,,,,,0,128,128,128,,,,,,,,,,,,,,,,,main,None,None,1,1.4963223000522703,498.0585078999866,None,None,1,,,,,,,,,,,,,,009,2022-05-10_10h55.10.492,Main,2022.1.1,58.997850728333944,
negative,yellow,1,k,None,,,,,,,,,0,129,129,129,,,,,,,,,,,,,,,,,main,None,None,1,1.4996853000484407,500.55833769985475,None,None,1,,,,,,,,,,,,,,009,2022-05-10_10h55.10.492,Main,2022.1.1,58.997850728333944,
positive,blue,1,k,None,,,,,,,,,0,130,130,130,,,,,,,,,,,,,,,,,main,None,None,1,1.5006887998897582,503.0580617999658,None,None,1,,,,,,,,,,,,,,009,2022-05-10_10h55.10.492,Main,2022.1.1,58.997850728333944,
negative,blue,1,None,k,,,,,,,,,0,131,131,131,,,,,,,,,,,,,,,,,main,k,k,1,0.763566300040111,505.56076849997044,None,None,0,,,,,,,,,,,,,,009,2022-05-10_10h55.10.492,Main,2022.1.1,58.997850728333944,
negative,blue,2,None,k,,,,,,,,,0,132,132,132,,,,,,,,,,,,,,,,,main,k,k,1,0.7321883998811245,507.32741169980727,None,None,0,,,,,,,,,,,,,,009,2022-05-10_10h55.10.492,Main,2022.1.1,58.997850728333944,
positive,blue,2,k,None,,,,,,,,,0,133,133,133,,,,,,,,,,,,,,,,,main,None,None,1,1.4986139999236912,509.058128999779,None,None,1,,,,,,,,,,,,,,009,2022-05-10_10h55.10.492,Main,2022.1.1,58.997850728333944,
positive,red,2,None,None,,,,,,,,,0,134,134,134,,,,,,,,,,,,,,,,,main,None,None,1,1.501723799854517,511.5578249997925,None,None,1,,,,,,,,,,,,,,009,2022-05-10_10h55.10.492,Main,2022.1.1,58.997850728333944,
negative,yellow,2,k,None,,,,,,,,,0,135,135,135,,,,,,,,,,,,,,,,,main,None,None,1,1.4965337000321597,514.0581860998645,None,None,1,,,,,,,,,,,,,,009,2022-05-10_10h55.10.492,Main,2022.1.1,58.997850728333944,
positive,yellow,2,None,k,,,,,,,,,0,136,136,136,,,,,,,,,,,,,,,,,main,k,k,1,0.6882319999858737,516.5580181998666,None,None,0,,,,,,,,,,,,,,009,2022-05-10_10h55.10.492,Main,2022.1.1,58.997850728333944,
positive,blue,1,k,None,,,,,,,,,0,137,137,137,,,,,,,,,,,,,,,,,main,None,None,1,1.4942940000910312,518.245319099864,None,None,1,,,,,,,,,,,,,,009,2022-05-10_10h55.10.492,Main,2022.1.1,58.997850728333944,
positive,yellow,1,None,k,,,,,,,,,0,138,138,138,,,,,,,,,,,,,,,,,main,k,k,1,0.7314736000262201,520.7436602998059,None,None,0,,,,,,,,,,,,,,009,2022-05-10_10h55.10.492,Main,2022.1.1,58.997850728333944,
positive,yellow,1,None,k,,,,,,,,,0,139,139,139,,,,,,,,,,,,,,,,,main,k,k,1,0.6989992000162601,522.4746107999235,None,None,0,,,,,,,,,,,,,,009,2022-05-10_10h55.10.492,Main,2022.1.1,58.997850728333944,
positive,yellow,1,None,k,,,,,,,,,0,140,140,140,,,,,,,,,,,,,,,,,main,k,k,1,0.5323057998903096,524.1745748999529,None,None,0,,,,,,,,,,,,,,009,2022-05-10_10h55.10.492,Main,2022.1.1,58.997850728333944,
positive,blue,1,k,None,,,,,,,,,0,141,141,141,,,,,,,,,,,,,,,,,main,None,None,1,1.2535021998919547,525.7077986998484,None,None,1,,,,,,,,,,,,,,009,2022-05-10_10h55.10.492,Main,2022.1.1,58.997850728333944,
positive,blue,2,k,None,,,,,,,,,0,142,142,142,,,,,,,,,,,,,,,,,main,None,k,0,-0.7558427001349628,527.9577850999776,None,None,1,,,,,,,,,,,,,,009,2022-05-10_10h55.10.492,Main,2022.1.1,58.997850728333944,
positive,yellow,2,None,k,,,,,,,,,0,143,143,143,,,,,,,,,,,,,,,,,main,k,k,1,0.7037667999975383,531.2075575999916,None,None,0,,,,,,,,,,,,,,009,2022-05-10_10h55.10.492,Main,2022.1.1,58.997850728333944,
negative,yellow,2,k,None,,,,,,,,,0,144,144,144,,,,,,,,,,,,,,,,,main,None,None,1,1.4968080001417547,532.9077447999734,None,None,1,,,,,,,,,,,,,,009,2022-05-10_10h55.10.492,Main,2022.1.1,58.997850728333944,
negative,blue,2,None,k,,,,,,,,,0,145,145,145,,,,,,,,,,,,,,,,,main,k,k,1,0.7980019999668002,535.4076390999835,None,None,0,,,,,,,,,,,,,,009,2022-05-10_10h55.10.492,Main,2022.1.1,58.997850728333944,
negative,red,1,None,None,,,,,,,,,0,146,146,146,,,,,,,,,,,,,,,,,main,None,None,1,1.4987042001448572,537.2074836997781,None,None,1,,,,,,,,,,,,,,009,2022-05-10_10h55.10.492,Main,2022.1.1,58.997850728333944,
positive,blue,1,k,None,,,,,,,,,0,147,147,147,,,,,,,,,,,,,,,,,main,None,None,1,1.5001906999386847,539.7075230998453,None,None,1,,,,,,,,,,,,,,009,2022-05-10_10h55.10.492,Main,2022.1.1,58.997850728333944,
positive,yellow,1,None,k,,,,,,,,,0,148,148,148,,,,,,,,,,,,,,,,,main,k,k,1,0.614377100020647,542.2074843998998,None,None,0,,,,,,,,,,,,,,009,2022-05-10_10h55.10.492,Main,2022.1.1,58.997850728333944,
negative,red,2,None,None,,,,,,,,,0,149,149,149,,,,,,,,,,,,,,,,,main,None,None,1,1.501576699782163,543.8238083999604,None,None,1,,,,,,,,,,,,,,009,2022-05-10_10h55.10.492,Main,2022.1.1,58.997850728333944,
negative,blue,1,None,k,,,,,,,,,0,150,150,150,,,,,,,,,,,,,,,,,main,k,k,1,0.8301383999641985,546.32662839978,None,None,0,,,,,,,,,,,,,,009,2022-05-10_10h55.10.492,Main,2022.1.1,58.997850728333944,
negative,yellow,2,k,None,,,,,,,,,0,151,151,151,,,,,,,,,,,,,,,,,main,None,None,1,1.499280400108546,548.1574482999276,None,None,1,,,,,,,,,,,,,,009,2022-05-10_10h55.10.492,Main,2022.1.1,58.997850728333944,
negative,blue,2,None,k,,,,,,,,,0,152,152,152,,,,,,,,,,,,,,,,,main,k,k,1,0.7825976999010891,550.6569961998612,None,None,0,,,,,,,,,,,,,,009,2022-05-10_10h55.10.492,Main,2022.1.1,58.997850728333944,
negative,yellow,1,k,None,,,,,,,,,0,153,153,153,,,,,,,,,,,,,,,,,main,None,None,1,1.4977194000966847,552.4406649000011,None,None,1,,,,,,,,,,,,,,009,2022-05-10_10h55.10.492,Main,2022.1.1,58.997850728333944,
negative,blue,1,None,k,,,,,,,,,0,154,154,154,,,,,,,,,,,,,,,,,main,k,k,1,0.6663567998912185,554.946210199967,None,None,0,,,,,,,,,,,,,,009,2022-05-10_10h55.10.492,Main,2022.1.1,58.997850728333944,
positive,yellow,2,None,k,,,,,,,,,0,155,155,155,,,,,,,,,,,,,,,,,main,k,k,1,0.865272399969399,556.6071474999189,None,None,0,,,,,,,,,,,,,,009,2022-05-10_10h55.10.492,Main,2022.1.1,58.997850728333944,
positive,red,2,None,None,,,,,,,,,0,156,156,156,,,,,,,,,,,,,,,,,main,None,None,1,1.501422799890861,558.4735062997788,None,None,1,,,,,,,,,,,,,,009,2022-05-10_10h55.10.492,Main,2022.1.1,58.997850728333944,
positive,red,1,None,None,,,,,,,,,0,157,157,157,,,,,,,,,,,,,,,,,main,None,None,1,1.496322900056839,560.976207899861,None,None,1,,,,,,,,,,,,,,009,2022-05-10_10h55.10.492,Main,2022.1.1,58.997850728333944,
positive,blue,2,k,None,,,,,,,,,0,158,158,158,,,,,,,,,,,,,,,,,main,None,None,1,1.4999053999781609,563.4792186999694,None,None,1,,,,,,,,,,,,,,009,2022-05-10_10h55.10.492,Main,2022.1.1,58.997850728333944,
negative,yellow,1,k,None,,,,,,,,,0,159,159,159,,,,,,,,,,,,,,,,,main,None,None,1,1.5005475000943989,565.9733416999225,None,None,1,,,,,,,,,,,,,,009,2022-05-10_10h55.10.492,Main,2022.1.1,58.997850728333944,
negative,red,2,None,None,,,,,,,,,0,160,160,160,,,,,,,,,,,,,,,,,main,None,None,1,1.499060899950564,568.4760502998251,None,None,1,,,,,,,,,,,,,,009,2022-05-10_10h55.10.492,Main,2022.1.1,58.997850728333944,
negative,blue,1,None,k,,,,,,,,,0,161,161,161,,,,,,,,,,,,,,,,,main,k,k,1,0.8649210999719799,570.9760758997872,None,None,0,,,,,,,,,,,,,,009,2022-05-10_10h55.10.492,Main,2022.1.1,58.997850728333944,
negative,blue,1,None,k,,,,,,,,,0,162,162,162,,,,,,,,,,,,,,,,,main,k,k,1,1.3312588999979198,572.8398740999401,None,None,0,,,,,,,,,,,,,,009,2022-05-10_10h55.10.492,Main,2022.1.1,58.997850728333944,
negative,yellow,1,k,None,,,,,,,,,0,163,163,163,,,,,,,,,,,,,,,,,main,None,None,1,1.5012294999323785,575.173192899907,None,None,1,,,,,,,,,,,,,,009,2022-05-10_10h55.10.492,Main,2022.1.1,58.997850728333944,
negative,yellow,1,k,None,,,,,,,,,0,164,164,164,,,,,,,,,,,,,,,,,main,None,None,1,1.497152900090441,577.6759663999546,None,None,1,,,,,,,,,,,,,,009,2022-05-10_10h55.10.492,Main,2022.1.1,58.997850728333944,
positive,yellow,1,None,k,,,,,,,,,0,165,165,165,,,,,,,,,,,,,,,,,main,k,k,1,0.7481821998953819,580.1730467998423,None,None,0,,,,,,,,,,,,,,009,2022-05-10_10h55.10.492,Main,2022.1.1,58.997850728333944,
negative,red,1,None,None,,,,,,,,,0,166,166,166,,,,,,,,,,,,,,,,,main,None,None,1,1.5014116999227554,581.9230852997862,None,None,1,,,,,,,,,,,,,,009,2022-05-10_10h55.10.492,Main,2022.1.1,58.997850728333944,
negative,yellow,2,k,None,,,,,,,,,0,167,167,167,,,,,,,,,,,,,,,,,main,None,None,1,1.4965734002180398,584.4258154998533,None,None,1,,,,,,,,,,,,,,009,2022-05-10_10h55.10.492,Main,2022.1.1,58.997850728333944,
positive,blue,2,k,None,,,,,,,,,0,168,168,168,,,,,,,,,,,,,,,,,main,None,None,1,1.499642000067979,586.9231803999282,None,None,1,,,,,,,,,,,,,,009,2022-05-10_10h55.10.492,Main,2022.1.1,58.997850728333944,
positive,red,2,None,None,,,,,,,,,0,169,169,169,,,,,,,,,,,,,,,,,main,None,None,1,1.5007834997959435,589.4228960999753,None,None,1,,,,,,,,,,,,,,009,2022-05-10_10h55.10.492,Main,2022.1.1,58.997850728333944,
positive,red,1,None,None,,,,,,,,,0,170,170,170,,,,,,,,,,,,,,,,,main,None,None,1,1.499062200076878,591.9256228997838,None,None,1,,,,,,,,,,,,,,009,2022-05-10_10h55.10.492,Main,2022.1.1,58.997850728333944,
negative,blue,2,None,k,,,,,,,,,0,171,171,171,,,,,,,,,,,,,,,,,main,k,k,1,0.729754899861291,594.4255613998976,None,None,0,,,,,,,,,,,,,,009,2022-05-10_10h55.10.492,Main,2022.1.1,58.997850728333944,
positive,blue,2,k,None,,,,,,,,,0,172,172,172,,,,,,,,,,,,,,,,,main,None,None,1,1.5014132000505924,596.1561151999049,None,None,1,,,,,,,,,,,,,,009,2022-05-10_10h55.10.492,Main,2022.1.1,58.997850728333944,
negative,yellow,2,k,None,,,,,,,,,0,173,173,173,,,,,,,,,,,,,,,,,main,None,None,1,1.499482800019905,598.6586712999269,None,None,1,,,,,,,,,,,,,,009,2022-05-10_10h55.10.492,Main,2022.1.1,58.997850728333944,
positive,yellow,2,None,k,,,,,,,,,0,174,174,174,,,,,,,,,,,,,,,,,main,k,k,1,0.6633860000874847,601.1586640998721,None,None,0,,,,,,,,,,,,,,009,2022-05-10_10h55.10.492,Main,2022.1.1,58.997850728333944,
negative,blue,2,None,k,,,,,,,,,0,175,175,175,,,,,,,,,,,,,,,,,main,k,k,1,0.5989443999715149,602.8228380999062,None,None,0,,,,,,,,,,,,,,009,2022-05-10_10h55.10.492,Main,2022.1.1,58.997850728333944,
positive,blue,1,k,None,,,,,,,,,0,176,176,176,,,,,,,,,,,,,,,,,main,None,None,1,1.498951599933207,604.4227626000065,None,None,1,,,,,,,,,,,,,,009,2022-05-10_10h55.10.492,Main,2022.1.1,58.997850728333944,
positive,yellow,1,None,k,,,,,,,,,0,177,177,177,,,,,,,,,,,,,,,,,main,k,k,1,0.5492253999691457,606.9227562998421,None,None,0,,,,,,,,,,,,,,009,2022-05-10_10h55.10.492,Main,2022.1.1,58.997850728333944,
positive,blue,1,k,None,,,,,,,,,0,178,178,178,,,,,,,,,,,,,,,,,main,None,None,1,1.498165400000289,608.4727739999071,None,None,1,,,,,,,,,,,,,,009,2022-05-10_10h55.10.492,Main,2022.1.1,58.997850728333944,
positive,yellow,2,None,k,,,,,,,,,0,179,179,179,,,,,,,,,,,,,,,,,main,k,k,1,0.5473607000894845,610.972401099978,None,None,0,,,,,,,,,,,,,,009,2022-05-10_10h55.10.492,Main,2022.1.1,58.997850728333944,
positive,blue,1,k,None,,,,,,,,,0,180,180,180,,,,,,,,,,,,,,,,,main,None,None,1,1.501234200084582,612.5252023998182,None,None,1,,,,,,,,,,,,,,009,2022-05-10_10h55.10.492,Main,2022.1.1,58.997850728333944,
negative,red,1,None,None,,,,,,,,,0,181,181,181,,,,,,,,,,,,,,,,,main,None,None,1,1.4962420999072492,615.0251139998436,None,None,1,,,,,,,,,,,,,,009,2022-05-10_10h55.10.492,Main,2022.1.1,58.997850728333944,
negative,blue,1,None,k,,,,,,,,,0,182,182,182,,,,,,,,,,,,,,,,,main,k,k,1,0.8827231999021024,617.5225613999646,None,None,0,,,,,,,,,,,,,,009,2022-05-10_10h55.10.492,Main,2022.1.1,58.997850728333944,
negative,yellow,2,k,None,,,,,,,,,0,183,183,183,,,,,,,,,,,,,,,,,main,None,None,1,1.501393600134179,619.4055530999321,None,None,1,,,,,,,,,,,,,,009,2022-05-10_10h55.10.492,Main,2022.1.1,58.997850728333944,
positive,yellow,2,None,k,,,,,,,,,0,184,184,184,,,,,,,,,,,,,,,,,main,k,k,1,0.6494223000481725,621.9083468997851,None,None,0,,,,,,,,,,,,,,009,2022-05-10_10h55.10.492,Main,2022.1.1,58.997850728333944,
positive,yellow,1,None,k,,,,,,,,,0,185,185,185,,,,,,,,,,,,,,,,,main,k,k,1,1.2962664000224322,623.5558630998712,None,None,0,,,,,,,,,,,,,,009,2022-05-10_10h55.10.492,Main,2022.1.1,58.997850728333944,
positive,red,2,None,None,,,,,,,,,0,186,186,186,,,,,,,,,,,,,,,,,main,None,None,1,1.5014585999306291,625.8554682999384,None,None,1,,,,,,,,,,,,,,009,2022-05-10_10h55.10.492,Main,2022.1.1,58.997850728333944,
positive,blue,1,k,None,,,,,,,,,0,187,187,187,,,,,,,,,,,,,,,,,main,None,None,1,1.4965725999791175,628.3557448999491,None,None,1,,,,,,,,,,,,,,009,2022-05-10_10h55.10.492,Main,2022.1.1,58.997850728333944,
negative,yellow,1,k,None,,,,,,,,,0,188,188,188,,,,,,,,,,,,,,,,,main,None,None,1,1.4995337999425828,630.8555904999375,None,None,1,,,,,,,,,,,,,,009,2022-05-10_10h55.10.492,Main,2022.1.1,58.997850728333944,
positive,yellow,2,None,k,,,,,,,,,0,189,189,189,,,,,,,,,,,,,,,,,main,k,k,1,0.648827999830246,633.3552664997987,None,None,0,,,,,,,,,,,,,,009,2022-05-10_10h55.10.492,Main,2022.1.1,58.997850728333944,
negative,yellow,2,k,None,,,,,,,,,0,190,190,190,,,,,,,,,,,,,,,,,main,None,None,1,1.5009967999067158,635.0056468998082,None,None,1,,,,,,,,,,,,,,009,2022-05-10_10h55.10.492,Main,2022.1.1,58.997850728333944,
negative,yellow,1,k,None,,,,,,,,,0,191,191,191,,,,,,,,,,,,,,,,,main,None,None,1,1.4972379000391811,637.507911299821,None,None,1,,,,,,,,,,,,,,009,2022-05-10_10h55.10.492,Main,2022.1.1,58.997850728333944,
positive,blue,2,k,None,,,,,,,,,0,192,192,192,,,,,,,,,,,,,,,,,main,None,None,1,1.5006231998559088,640.0051061999984,None,None,1,,,,,,,,,,,,,,009,2022-05-10_10h55.10.492,Main,2022.1.1,58.997850728333944,
positive,yellow,1,None,k,,,,,,,,,0,193,193,193,,,,,,,,,,,,,,,,,main,k,k,1,0.7470621999818832,642.5078177999239,None,None,0,,,,,,,,,,,,,,009,2022-05-10_10h55.10.492,Main,2022.1.1,58.997850728333944,
negative,red,2,None,None,,,,,,,,,0,194,194,194,,,,,,,,,,,,,,,,,main,None,None,1,1.5010065999813378,644.2555203000084,None,None,1,,,,,,,,,,,,,,009,2022-05-10_10h55.10.492,Main,2022.1.1,58.997850728333944,
positive,red,1,None,None,,,,,,,,,0,195,195,195,,,,,,,,,,,,,,,,,main,None,None,1,1.4966308001894504,646.7552445998881,None,None,1,,,,,,,,,,,,,,009,2022-05-10_10h55.10.492,Main,2022.1.1,58.997850728333944,
negative,blue,1,None,k,,,,,,,,,0,196,196,196,,,,,,,,,,,,,,,,,main,k,k,1,0.7158075000625104,649.255152199883,None,None,0,,,,,,,,,,,,,,009,2022-05-10_10h55.10.492,Main,2022.1.1,58.997850728333944,
positive,blue,2,k,None,,,,,,,,,0,197,197,197,,,,,,,,,,,,,,,,,main,None,None,1,1.4985848001670092,650.9718257999048,None,None,1,,,,,,,,,,,,,,009,2022-05-10_10h55.10.492,Main,2022.1.1,58.997850728333944,
negative,blue,2,None,k,,,,,,,,,0,198,198,198,,,,,,,,,,,,,,,,,main,k,k,1,0.7828711001202464,653.4714853998739,None,None,0,,,,,,,,,,,,,,009,2022-05-10_10h55.10.492,Main,2022.1.1,58.997850728333944,
negative,blue,2,None,k,,,,,,,,,0,199,199,199,,,,,,,,,,,,,,,,,main,k,k,1,0.7167623999994248,655.2548515999224,None,None,0,,,,,,,,,,,,,,009,2022-05-10_10h55.10.492,Main,2022.1.1,58.997850728333944,
positive,blue,2,k,None,,,,,,,,,0,200,200,200,,,,,,,,,,,,,,,,,main,None,None,1,1.4970267000608146,656.9718466999475,None,None,1,,,,,,,,,,,,,,009,2022-05-10_10h55.10.492,Main,2022.1.1,58.997850728333944,
positive,blue,2,k,None,,,,,,,,,0,201,201,201,,,,,,,,,,,,,,,,,main,None,None,1,1.49987079994753,659.4716457999311,None,None,1,,,,,,,,,,,,,,009,2022-05-10_10h55.10.492,Main,2022.1.1,58.997850728333944,
negative,yellow,2,k,None,,,,,,,,,0,202,202,202,,,,,,,,,,,,,,,,,main,None,None,1,1.5012579001486301,661.9715173000004,None,None,1,,,,,,,,,,,,,,009,2022-05-10_10h55.10.492,Main,2022.1.1,58.997850728333944,
positive,red,1,None,None,,,,,,,,,0,203,203,203,,,,,,,,,,,,,,,,,main,None,None,1,1.4954210000578314,664.4738984999713,None,None,1,,,,,,,,,,,,,,009,2022-05-10_10h55.10.492,Main,2022.1.1,58.997850728333944,
negative,blue,2,None,k,,,,,,,,,0,204,204,204,,,,,,,,,,,,,,,,,main,k,k,1,0.6495403998997062,666.9714408,None,None,0,,,,,,,,,,,,,,009,2022-05-10_10h55.10.492,Main,2022.1.1,58.997850728333944,
negative,red,1,None,None,,,,,,,,,0,205,205,205,,,,,,,,,,,,,,,,,main,None,None,1,1.4985881000757217,668.6214472998399,None,None,1,,,,,,,,,,,,,,009,2022-05-10_10h55.10.492,Main,2022.1.1,58.997850728333944,
negative,blue,2,None,k,,,,,,,,,0,206,206,206,,,,,,,,,,,,,,,,,main,k,k,1,0.6016585000324994,671.1214287998155,None,None,0,,,,,,,,,,,,,,009,2022-05-10_10h55.10.492,Main,2022.1.1,58.997850728333944,
negative,yellow,2,k,None,,,,,,,,,0,207,207,207,,,,,,,,,,,,,,,,,main,None,None,1,1.4980067000724375,672.7210621999111,None,None,1,,,,,,,,,,,,,,009,2022-05-10_10h55.10.492,Main,2022.1.1,58.997850728333944,
positive,yellow,2,None,k,,,,,,,,,0,208,208,208,,,,,,,,,,,,,,,,,main,k,k,1,0.7974990999791771,675.22114459984,None,None,0,,,,,,,,,,,,,,009,2022-05-10_10h55.10.492,Main,2022.1.1,58.997850728333944,
negative,yellow,1,k,None,,,,,,,,,0,209,209,209,,,,,,,,,,,,,,,,,main,None,None,1,1.4989718000870198,677.0214203000069,None,None,1,,,,,,,,,,,,,,009,2022-05-10_10h55.10.492,Main,2022.1.1,58.997850728333944,
negative,red,2,None,None,,,,,,,,,0,210,210,210,,,,,,,,,,,,,,,,,main,None,None,1,1.499240400036797,679.5271668999922,None,None,1,,,,,,,,,,,,,,009,2022-05-10_10h55.10.492,Main,2022.1.1,58.997850728333944,
negative,blue,1,None,k,,,,,,,,,0,211,211,211,,,,,,,,,,,,,,,,,main,k,k,1,0.5482197001110762,682.0212194998749,None,None,0,,,,,,,,,,,,,,009,2022-05-10_10h55.10.492,Main,2022.1.1,58.997850728333944,
negative,yellow,1,k,None,,,,,,,,,0,212,212,212,,,,,,,,,,,,,,,,,main,None,None,1,1.5013178000226617,683.5711584999226,None,None,1,,,,,,,,,,,,,,009,2022-05-10_10h55.10.492,Main,2022.1.1,58.997850728333944,
positive,blue,1,k,None,,,,,,,,,0,213,213,213,,,,,,,,,,,,,,,,,main,None,None,1,1.4965730998665094,686.0711012999527,None,None,1,,,,,,,,,,,,,,009,2022-05-10_10h55.10.492,Main,2022.1.1,58.997850728333944,
positive,blue,1,k,None,,,,,,,,,0,214,214,214,,,,,,,,,,,,,,,,,main,None,None,1,1.499058999819681,688.5709727997892,None,None,1,,,,,,,,,,,,,,009,2022-05-10_10h55.10.492,Main,2022.1.1,58.997850728333944,
positive,yellow,1,None,k,,,,,,,,,0,215,215,215,,,,,,,,,,,,,,,,,main,k,k,1,2.9158241997938603,691.0710402999539,None,None,0,,,,,,,,,,,,,,009,2022-05-10_10h55.10.492,Main,2022.1.1,58.997850728333944,
positive,yellow,1,None,k,,,,,,,,,0,216,216,216,,,,,,,,,,,,,,,,,main,k,k,1,0.6154169000219554,695.9898615998682,None,None,0,,,,,,,,,,,,,,009,2022-05-10_10h55.10.492,Main,2022.1.1,58.997850728333944,
positive,yellow,2,None,k,,,,,,,,,0,217,217,217,,,,,,,,,,,,,,,,,main,k,k,1,0.6817830000072718,697.6041829998139,None,None,0,,,,,,,,,,,,,,009,2022-05-10_10h55.10.492,Main,2022.1.1,58.997850728333944,
negative,blue,1,None,k,,,,,,,,,0,218,218,218,,,,,,,,,,,,,,,,,main,k,k,1,1.0161146000027657,699.2871958999895,None,None,0,,,,,,,,,,,,,,009,2022-05-10_10h55.10.492,Main,2022.1.1,58.997850728333944,
positive,red,2,None,None,,,,,,,,,0,219,219,219,,,,,,,,,,,,,,,,,main,None,None,1,1.5012898000422865,701.3042354998179,None,None,1,,,,,,,,,,,,,,009,2022-05-10_10h55.10.492,Main,2022.1.1,58.997850728333944,
positive,yellow,1,None,k,,,,,,,,,0,220,220,220,,,,,,,,,,,,,,,,,main,k,k,1,0.6642819000408053,703.8065816999879,None,None,0,,,,,,,,,,,,,,009,2022-05-10_10h55.10.492,Main,2022.1.1,58.997850728333944,
positive,blue,1,k,None,,,,,,,,,0,221,221,221,,,,,,,,,,,,,,,,,main,None,k,0,0.6312220001127571,705.4703945999499,None,None,1,,,,,,,,,,,,,,009,2022-05-10_10h55.10.492,Main,2022.1.1,58.997850728333944,
positive,yellow,2,None,k,,,,,,,,,0,222,222,222,,,,,,,,,,,,,,,,,main,k,k,1,0.6824297001585364,708.1064369999804,None,None,0,,,,,,,,,,,,,,009,2022-05-10_10h55.10.492,Main,2022.1.1,58.997850728333944,
negative,yellow,1,k,None,,,,,,,,,0,223,223,223,,,,,,,,,,,,,,,,,main,None,None,1,1.4987894999794662,709.787342999829,None,None,1,,,,,,,,,,,,,,009,2022-05-10_10h55.10.492,Main,2022.1.1,58.997850728333944,
positive,yellow,2,None,k,,,,,,,,,0,224,224,224,,,,,,,,,,,,,,,,,main,k,k,1,0.632337799994275,712.28701859992,None,None,0,,,,,,,,,,,,,,009,2022-05-10_10h55.10.492,Main,2022.1.1,58.997850728333944,
negative,yellow,2,k,None,,,,,,,,,0,225,225,225,,,,,,,,,,,,,,,,,main,None,None,1,1.4980839998461306,713.9205813999288,None,None,1,,,,,,,,,,,,,,009,2022-05-10_10h55.10.492,Main,2022.1.1,58.997850728333944,
negative,blue,2,None,k,,,,,,,,,0,226,226,226,,,,,,,,,,,,,,,,,main,k,k,1,0.7327297001611441,716.4259629999287,None,None,0,,,,,,,,,,,,,,009,2022-05-10_10h55.10.492,Main,2022.1.1,58.997850728333944,
positive,red,2,None,None,,,,,,,,,0,227,227,227,,,,,,,,,,,,,,,,,main,None,None,1,1.4987513001542538,718.1537402998656,None,None,1,,,,,,,,,,,,,,009,2022-05-10_10h55.10.492,Main,2022.1.1,58.997850728333944,
positive,blue,2,k,None,,,,,,,,,0,228,228,228,,,,,,,,,,,,,,,,,main,None,None,1,1.5023427000269294,720.6536684997845,None,None,1,,,,,,,,,,,,,,009,2022-05-10_10h55.10.492,Main,2022.1.1,58.997850728333944,
negative,blue,1,None,k,,,,,,,,,0,229,229,229,,,,,,,,,,,,,,,,,main,k,k,1,0.612142900004983,723.1536432998255,None,None,0,,,,,,,,,,,,,,009,2022-05-10_10h55.10.492,Main,2022.1.1,58.997850728333944,
positive,yellow,1,None,k,,,,,,,,,0,230,230,230,,,,,,,,,,,,,,,,,main,k,k,1,0.6989947000984102,724.7699827000033,None,None,0,,,,,,,,,,,,,,009,2022-05-10_10h55.10.492,Main,2022.1.1,58.997850728333944,
negative,blue,2,None,k,,,,,,,,,0,231,231,231,,,,,,,,,,,,,,,,,main,k,k,1,0.7661613000091165,726.4699946998153,None,None,0,,,,,,,,,,,,,,009,2022-05-10_10h55.10.492,Main,2022.1.1,58.997850728333944,
negative,red,1,None,None,,,,,,,,,0,232,232,232,,,,,,,,,,,,,,,,,main,None,None,1,1.4983727999497205,728.2369862999767,None,None,1,,,,,,,,,,,,,,009,2022-05-10_10h55.10.492,Main,2022.1.1,58.997850728333944,
positive,blue,2,k,None,,,,,,,,,0,233,233,233,,,,,,,,,,,,,,,,,main,None,k,0,0.5880595999769866,730.7368169999681,None,None,1,,,,,,,,,,,,,,009,2022-05-10_10h55.10.492,Main,2022.1.1,58.997850728333944,
negative,yellow,1,k,None,,,,,,,,,0,234,234,234,,,,,,,,,,,,,,,,,main,None,None,1,1.48684179992415,733.3364636998158,None,None,1,,,,,,,,,,,,,,009,2022-05-10_10h55.10.492,Main,2022.1.1,58.997850728333944,
negative,yellow,2,k,None,,,,,,,,,0,235,235,235,,,,,,,,,,,,,,,,,main,None,None,1,1.4991544999647886,735.8201048998162,None,None,1,,,,,,,,,,,,,,009,2022-05-10_10h55.10.492,Main,2022.1.1,58.997850728333944,
positive,red,1,None,None,,,,,,,,,0,236,236,236,,,,,,,,,,,,,,,,,main,None,None,1,1.4971191000659019,738.322508999845,None,None,1,,,,,,,,,,,,,,009,2022-05-10_10h55.10.492,Main,2022.1.1,58.997850728333944,
negative,red,2,None,None,,,,,,,,,0,237,237,237,,,,,,,,,,,,,,,,,main,None,None,1,1.498600599821657,740.8199595999904,None,None,1,,,,,,,,,,,,,,009,2022-05-10_10h55.10.492,Main,2022.1.1,58.997850728333944,
negative,blue,1,None,k,,,,,,,,,0,238,238,238,,,,,,,,,,,,,,,,,main,k,k,1,0.8149637000169605,743.3199324999005,None,None,0,,,,,,,,,,,,,,009,2022-05-10_10h55.10.492,Main,2022.1.1,58.997850728333944,
positive,blue,1,k,None,,,,,,,,,0,239,239,239,,,,,,,,,,,,,,,,,main,None,None,1,1.4996124999597669,745.1363492999226,None,None,1,,,,,,,,,,,,,,009,2022-05-10_10h55.10.492,Main,2022.1.1,58.997850728333944,
,,,,,,,,,,,,,,,,,,,,,,,,,,,,,,,,,,,,,,,,,,,,,,,,,,,,,747.6363841998391,None,,,,,,
