distractor,target,set,ans1,ans2,rep_loop4.thisRepN,rep_loop4.thisTrialN,rep_loop4.thisN,rep_loop4.thisIndex,st2_prac_loop.thisRepN,st2_prac_loop.thisTrialN,st2_prac_loop.thisN,st2_prac_loop.thisIndex,st2_main_loop.thisRepN,st2_main_loop.thisTrialN,st2_main_loop.thisN,st2_main_loop.thisIndex,image_4.started,image_4.stopped,sound_2.started,sound_2.stopped,key_resp_3.keys,key_resp_3.rt,image_5.started,image_5.stopped,st_prac_back.started,st_prac_back.stopped,st_prac_text.started,st_prac_text.stopped,st_fix_back.started,st_fix_back.stopped,st_fix_2.started,st_fix_2.stopped,main_prac,st_ans,st_res,st_corr,st_rt,st_back.started,st_back.stopped,st2_resp.keys,st2_resp.corr,st_main_back.started,st_main_back.stopped,st_main_text.started,st_main_text.stopped,mouse_4.x,mouse_4.y,mouse_4.leftButton,mouse_4.midButton,mouse_4.rightButton,mouse_4.started,mouse_4.stopped,text_2.started,text_2.stopped,id*,date,expName,psychopyVersion,frameRate,
negative,yellow,1,k,None,,,,,0,0,0,0,,,,,34.42669159988873,None,39.27704697984736,None,space,55.90377760026604,95.20889569981955,None,98.13977849995717,None,98.13977849995717,None,100.14236349985003,None,100.14236349985003,None,prac,k,k,1,1.976851399987936,102.13977599982172,None,None,0,,,,,,,,,,,,,,010,2022-05-10_19h44.45.994,Main,2022.1.1,61.12488111386942,
positive,red,2,None,None,,,,,0,1,1,1,,,,,,,,,,,,,,,,,,,,,prac,None,None,1,1.4987218999303877,106.13977919984609,None,None,1,,,,,,,,,,,,,,010,2022-05-10_19h44.45.994,Main,2022.1.1,61.12488111386942,
negative,blue,2,None,k,,,,,0,2,2,2,,,,,,,,,,,,,,,,,,,,,prac,None,k,0,0.6201587000396103,108.63973969989456,None,None,1,,,,,,,,,,,,,,010,2022-05-10_19h44.45.994,Main,2022.1.1,61.12488111386942,
positive,yellow,1,None,k,,,,,0,3,3,3,,,,,,,,,,,,,,,,,,,,,prac,None,None,1,1.5033642000053078,111.27274939999916,None,None,1,,,,,,,,,,,,,,010,2022-05-10_19h44.45.994,Main,2022.1.1,61.12488111386942,
negative,blue,2,None,k,,,,,0,4,4,4,,,,,,,,,,,,,,,,,,,,,prac,None,None,1,1.4987812999170274,113.77548859990202,None,None,1,,,,,,,,,,,,,,010,2022-05-10_19h44.45.994,Main,2022.1.1,61.12488111386942,
negative,blue,1,None,k,,,,,0,5,5,5,,,,,,,,,,,,,,,,,,,,,prac,None,None,1,1.4967139000073075,116.27534980000928,None,None,1,,,,,,,,,,,,,,010,2022-05-10_19h44.45.994,Main,2022.1.1,61.12488111386942,
negative,yellow,2,k,None,,,,,0,6,6,6,,,,,,,,,,,,,,,,,,,,,prac,k,k,1,5.021606200141832,118.77289759996347,None,None,0,,,,,,,,,,,,,,010,2022-05-10_19h44.45.994,Main,2022.1.1,61.12488111386942,
negative,red,1,None,None,,,,,0,7,7,7,,,,,,,,,,,,,,,,,,,,,prac,None,None,1,1.4868264999240637,125.8057440998964,None,None,1,,,,,,,,,,,,,,010,2022-05-10_19h44.45.994,Main,2022.1.1,61.12488111386942,
positive,yellow,2,None,k,,,,,0,8,8,8,,,,,,,,,,,,,,,,,,,,,prac,None,None,1,1.4987868999596685,128.29183479980566,None,None,1,,,,,,,,,,,,,,010,2022-05-10_19h44.45.994,Main,2022.1.1,61.12488111386942,
negative,yellow,1,k,None,,,,,0,9,9,9,,,,,,,,,,,,,,,,,,,,,prac,k,k,1,0.8814918999560177,130.79183569992892,None,None,0,,,,,,,,,,,,,,010,2022-05-10_19h44.45.994,Main,2022.1.1,61.12488111386942,
positive,yellow,2,None,k,,,,,0,10,10,10,,,,,,,,,,,,,,,,,,,,,prac,None,None,1,1.4997630999423563,132.67227219999768,None,None,1,,,,,,,,,,,,,,010,2022-05-10_19h44.45.994,Main,2022.1.1,61.12488111386942,
negative,yellow,2,k,None,,,,,0,11,11,11,,,,,,,,,,,,,,,,,,,,,prac,k,k,1,0.6161326000001281,135.17494689999148,None,None,0,,,,,,,,,,,,,,010,2022-05-10_19h44.45.994,Main,2022.1.1,61.12488111386942,
negative,red,2,None,None,,,,,0,12,12,12,,,,,,,,,,,,,,,,,,,,,prac,None,None,1,1.4964220998808742,136.79167829989456,None,None,1,,,,,,,,,,,,,,010,2022-05-10_19h44.45.994,Main,2022.1.1,61.12488111386942,
positive,red,1,None,None,,,,,0,13,13,13,,,,,,,,,,,,,,,,,,,,,prac,None,None,1,1.4987938001286238,139.28916399995796,None,None,1,,,,,,,,,,,,,,010,2022-05-10_19h44.45.994,Main,2022.1.1,61.12488111386942,
positive,blue,2,k,None,,,,,0,14,14,14,,,,,,,,,,,,,,,,,,,,,prac,k,k,1,0.6829083000775427,141.78876989986748,None,None,0,,,,,,,,,,,,,,010,2022-05-10_19h44.45.994,Main,2022.1.1,61.12488111386942,
positive,blue,1,k,None,,,,,0,15,15,15,,,,,,,,,,,,,,,,,,,,,prac,k,k,1,0.5685592999216169,143.47486869990826,None,None,0,,,,,,,,,,,,,,010,2022-05-10_19h44.45.994,Main,2022.1.1,61.12488111386942,
negative,blue,1,None,k,,,,,0,16,16,16,,,,,,,,,,,,,,,,,,,,,prac,None,None,1,1.4984148000366986,145.03911479981616,None,None,1,,,,,,,,,,,,,,010,2022-05-10_19h44.45.994,Main,2022.1.1,61.12488111386942,
positive,blue,2,k,None,,,,,0,17,17,17,,,,,,,,,,,,,,,,,,,,,prac,k,k,1,0.8138436998706311,147.53892479999922,None,None,0,,,,,,,,,,,,,,010,2022-05-10_19h44.45.994,Main,2022.1.1,61.12488111386942,
positive,blue,1,k,None,,,,,0,18,18,18,,,,,,,,,,,,,,,,,,,,,prac,k,k,1,0.5655878998804837,149.35561269987375,None,None,0,,,,,,,,,,,,,,010,2022-05-10_19h44.45.994,Main,2022.1.1,61.12488111386942,
positive,yellow,1,None,k,,,,,0,19,19,19,,,,,,,,,,,,,,,,,,,,,prac,None,None,1,1.5009627998806536,150.92217919998802,None,None,1,,,,,,,,,,,,,,010,2022-05-10_19h44.45.994,Main,2022.1.1,61.12488111386942,
negative,yellow,1,k,None,,,,,1,0,20,0,,,,,,,,,,,,,,,,,,,,,prac,k,k,1,0.8138729999773204,153.42220499995165,None,None,0,,,,,,,,,,,,,,010,2022-05-10_19h44.45.994,Main,2022.1.1,61.12488111386942,
positive,red,2,None,None,,,,,1,1,21,1,,,,,,,,,,,,,,,,,,,,,prac,None,None,1,1.499062100192532,155.23869999987073,None,None,1,,,,,,,,,,,,,,010,2022-05-10_19h44.45.994,Main,2022.1.1,61.12488111386942,
negative,blue,2,None,k,,,,,1,2,22,2,,,,,,,,,,,,,,,,,,,,,prac,None,None,1,1.4987536000553519,157.73877820000052,None,None,1,,,,,,,,,,,,,,010,2022-05-10_19h44.45.994,Main,2022.1.1,61.12488111386942,
positive,yellow,1,None,k,,,,,1,3,23,3,,,,,,,,,,,,,,,,,,,,,prac,None,None,1,1.499935599975288,160.23913409980014,None,None,1,,,,,,,,,,,,,,010,2022-05-10_19h44.45.994,Main,2022.1.1,61.12488111386942,
negative,blue,2,None,k,,,,,1,4,24,4,,,,,,,,,,,,,,,,,,,,,prac,None,None,1,1.4979757000692189,162.73866779985838,None,None,1,,,,,,,,,,,,,,010,2022-05-10_19h44.45.994,Main,2022.1.1,61.12488111386942,
negative,blue,1,None,k,,,,,1,5,25,5,,,,,,,,,,,,,,,,,,,,,prac,None,None,1,1.5009989000391215,165.2385875999462,None,None,1,,,,,,,,,,,,,,010,2022-05-10_19h44.45.994,Main,2022.1.1,61.12488111386942,
negative,yellow,2,k,None,,,,,1,6,26,6,,,,,,,,,,,,,,,,,,,,,prac,k,k,1,0.9641348000150174,167.73847589991055,None,None,0,,,,,,,,,,,,,,010,2022-05-10_19h44.45.994,Main,2022.1.1,61.12488111386942,
negative,red,1,None,None,,,,,1,7,27,7,,,,,,,,,,,,,,,,,,,,,prac,None,None,1,1.4977689001243562,169.7051473997999,None,None,1,,,,,,,,,,,,,,010,2022-05-10_19h44.45.994,Main,2022.1.1,61.12488111386942,
positive,yellow,2,None,k,,,,,1,8,28,8,,,,,,,,,,,,,,,,,,,,,prac,None,None,1,1.501949500059709,172.20485019986518,None,None,1,,,,,,,,,,,,,,010,2022-05-10_19h44.45.994,Main,2022.1.1,61.12488111386942,
negative,yellow,1,k,None,,,,,1,9,29,9,,,,,,,,,,,,,,,,,,,,,prac,k,k,1,0.8524123998358846,174.7076014999766,None,None,0,,,,,,,,,,,,,,010,2022-05-10_19h44.45.994,Main,2022.1.1,61.12488111386942,
positive,yellow,2,None,k,,,,,1,10,30,10,,,,,,,,,,,,,,,,,,,,,prac,None,None,1,1.4941300998907536,176.5641894999426,None,None,1,,,,,,,,,,,,,,010,2022-05-10_19h44.45.994,Main,2022.1.1,61.12488111386942,
negative,yellow,2,k,None,,,,,1,11,31,11,,,,,,,,,,,,,,,,,,,,,prac,k,k,1,1.0819338001310825,179.0547246998176,None,None,0,,,,,,,,,,,,,,010,2022-05-10_19h44.45.994,Main,2022.1.1,61.12488111386942,
negative,red,2,None,None,,,,,1,12,32,12,,,,,,,,,,,,,,,,,,,,,prac,None,None,1,1.4988412000238895,181.1381074998062,None,None,1,,,,,,,,,,,,,,010,2022-05-10_19h44.45.994,Main,2022.1.1,61.12488111386942,
positive,red,1,None,None,,,,,1,13,33,13,,,,,,,,,,,,,,,,,,,,,prac,None,None,1,1.4993545999750495,183.63839729991741,None,None,1,,,,,,,,,,,,,,010,2022-05-10_19h44.45.994,Main,2022.1.1,61.12488111386942,
positive,blue,2,k,None,,,,,1,14,34,14,,,,,,,,,,,,,,,,,,,,,prac,k,k,1,0.6993726000655442,186.13815819984302,None,None,0,,,,,,,,,,,,,,010,2022-05-10_19h44.45.994,Main,2022.1.1,61.12488111386942,
positive,blue,1,k,None,,,,,1,15,35,15,,,,,,,,,,,,,,,,,,,,,prac,k,k,1,0.9657101999036968,187.83807009994052,None,None,0,,,,,,,,,,,,,,010,2022-05-10_19h44.45.994,Main,2022.1.1,61.12488111386942,
negative,blue,1,None,k,,,,,1,16,36,16,,,,,,,,,,,,,,,,,,,,,prac,None,None,1,1.498474400024861,189.80469999997877,None,None,1,,,,,,,,,,,,,,010,2022-05-10_19h44.45.994,Main,2022.1.1,61.12488111386942,
positive,blue,2,k,None,,,,,1,17,37,17,,,,,,,,,,,,,,,,,,,,,prac,k,k,1,0.6991063000168651,192.30460039991885,None,None,0,,,,,,,,,,,,,,010,2022-05-10_19h44.45.994,Main,2022.1.1,61.12488111386942,
positive,blue,1,k,None,,,,,1,18,38,18,,,,,,,,,,,,,,,,,,,,,prac,k,k,1,0.7489763000048697,194.00503949983977,None,None,0,,,,,,,,,,,,,,010,2022-05-10_19h44.45.994,Main,2022.1.1,61.12488111386942,
positive,yellow,1,None,k,,,,,1,19,39,19,,,,,,,,,,,,,,,,,,,,,prac,None,None,1,1.4988456000573933,195.75457709981129,None,None,1,,,,,,,,,,,,,,010,2022-05-10_19h44.45.994,Main,2022.1.1,61.12488111386942,
,,,,,,,,,,,,,,,,,,,,,,,,,,,,,,,,,,,,,,,,,,198.2543154999148,None,198.2543154999148,None,-0.019444445,-0.021296296,0,0,0,0.013260280014947057,None,,,010,2022-05-10_19h44.45.994,Main,2022.1.1,61.12488111386942,
negative,yellow,2,k,None,,,,,,,,,0,0,0,0,,,,,,,,,,,,,199.07104739989154,None,199.07104739989154,None,main,k,k,1,0.902211399981752,201.09409349993803,None,None,0,,,,,,,,,,,,,,010,2022-05-10_19h44.45.994,Main,2022.1.1,61.12488111386942,
positive,red,1,None,None,,,,,,,,,0,1,1,1,,,,,,,,,,,,,,,,,main,None,None,1,1.499082800000906,203.00681059993804,None,None,1,,,,,,,,,,,,,,010,2022-05-10_19h44.45.994,Main,2022.1.1,61.12488111386942,
positive,blue,2,k,None,,,,,,,,,0,2,2,2,,,,,,,,,,,,,,,,,main,k,k,1,0.6152943000197411,205.5041123998817,None,None,0,,,,,,,,,,,,,,010,2022-05-10_19h44.45.994,Main,2022.1.1,61.12488111386942,
positive,blue,1,k,None,,,,,,,,,0,3,3,3,,,,,,,,,,,,,,,,,main,k,k,1,0.6827105998527259,207.12349719996564,None,None,0,,,,,,,,,,,,,,010,2022-05-10_19h44.45.994,Main,2022.1.1,61.12488111386942,
negative,yellow,2,k,None,,,,,,,,,0,4,4,4,,,,,,,,,,,,,,,,,main,k,k,1,0.7321917000226676,208.80680199991912,None,None,0,,,,,,,,,,,,,,010,2022-05-10_19h44.45.994,Main,2022.1.1,61.12488111386942,
positive,yellow,2,None,k,,,,,,,,,0,5,5,5,,,,,,,,,,,,,,,,,main,None,None,1,1.5009767999872565,210.53730849991553,None,None,1,,,,,,,,,,,,,,010,2022-05-10_19h44.45.994,Main,2022.1.1,61.12488111386942,
negative,blue,2,None,k,,,,,,,,,0,6,6,6,,,,,,,,,,,,,,,,,main,None,None,1,1.4991041999310255,213.03761509992182,None,None,1,,,,,,,,,,,,,,010,2022-05-10_19h44.45.994,Main,2022.1.1,61.12488111386942,
positive,red,2,None,None,,,,,,,,,0,7,7,7,,,,,,,,,,,,,,,,,main,None,None,1,1.4964492998551577,215.53988939989358,None,None,1,,,,,,,,,,,,,,010,2022-05-10_19h44.45.994,Main,2022.1.1,61.12488111386942,
positive,yellow,1,None,k,,,,,,,,,0,8,8,8,,,,,,,,,,,,,,,,,main,None,None,1,1.5017053000628948,218.03720989986323,None,None,1,,,,,,,,,,,,,,010,2022-05-10_19h44.45.994,Main,2022.1.1,61.12488111386942,
negative,red,1,None,None,,,,,,,,,0,9,9,9,,,,,,,,,,,,,,,,,main,None,None,1,1.496694500092417,220.53746649995446,None,None,1,,,,,,,,,,,,,,010,2022-05-10_19h44.45.994,Main,2022.1.1,61.12488111386942,
positive,yellow,1,None,k,,,,,,,,,0,10,10,10,,,,,,,,,,,,,,,,,main,None,None,1,1.4993315001484007,223.0373046998866,None,None,1,,,,,,,,,,,,,,010,2022-05-10_19h44.45.994,Main,2022.1.1,61.12488111386942,
negative,yellow,1,k,None,,,,,,,,,0,11,11,11,,,,,,,,,,,,,,,,,main,k,k,1,0.7827762998640537,225.53720109979622,None,None,0,,,,,,,,,,,,,,010,2022-05-10_19h44.45.994,Main,2022.1.1,61.12488111386942,
negative,yellow,1,k,None,,,,,,,,,0,12,12,12,,,,,,,,,,,,,,,,,main,k,k,1,0.6818689000792801,227.32065869984217,None,None,0,,,,,,,,,,,,,,010,2022-05-10_19h44.45.994,Main,2022.1.1,61.12488111386942,
negative,red,2,None,None,,,,,,,,,0,13,13,13,,,,,,,,,,,,,,,,,main,None,None,1,1.4981692999135703,229.00387659994885,None,None,1,,,,,,,,,,,,,,010,2022-05-10_19h44.45.994,Main,2022.1.1,61.12488111386942,
positive,yellow,2,None,k,,,,,,,,,0,14,14,14,,,,,,,,,,,,,,,,,main,None,None,1,1.499644699972123,231.50380859989673,None,None,1,,,,,,,,,,,,,,010,2022-05-10_19h44.45.994,Main,2022.1.1,61.12488111386942,
positive,blue,1,k,None,,,,,,,,,0,15,15,15,,,,,,,,,,,,,,,,,main,k,k,1,0.7493352999445051,234.0037661998067,None,None,0,,,,,,,,,,,,,,010,2022-05-10_19h44.45.994,Main,2022.1.1,61.12488111386942,
negative,blue,1,None,k,,,,,,,,,0,16,16,16,,,,,,,,,,,,,,,,,main,None,None,1,1.4979326000902802,235.75380019983277,None,None,1,,,,,,,,,,,,,,010,2022-05-10_19h44.45.994,Main,2022.1.1,61.12488111386942,
positive,blue,2,k,None,,,,,,,,,0,17,17,17,,,,,,,,,,,,,,,,,main,k,k,1,0.8006917999591678,238.25374719989486,None,None,0,,,,,,,,,,,,,,010,2022-05-10_19h44.45.994,Main,2022.1.1,61.12488111386942,
negative,blue,2,None,k,,,,,,,,,0,18,18,18,,,,,,,,,,,,,,,,,main,None,None,1,1.4984915999229997,240.0562012998853,None,None,1,,,,,,,,,,,,,,010,2022-05-10_19h44.45.994,Main,2022.1.1,61.12488111386942,
negative,blue,1,None,k,,,,,,,,,0,19,19,19,,,,,,,,,,,,,,,,,main,None,None,1,1.5000234001781791,242.55356119992211,None,None,1,,,,,,,,,,,,,,010,2022-05-10_19h44.45.994,Main,2022.1.1,61.12488111386942,
negative,blue,1,None,k,,,,,,,,,0,20,20,20,,,,,,,,,,,,,,,,,main,None,None,1,1.4982340999413282,245.0538185997866,None,None,1,,,,,,,,,,,,,,010,2022-05-10_19h44.45.994,Main,2022.1.1,61.12488111386942,
negative,blue,2,None,k,,,,,,,,,0,21,21,21,,,,,,,,,,,,,,,,,main,None,None,1,1.5003071001265198,247.55347279994749,None,None,1,,,,,,,,,,,,,,010,2022-05-10_19h44.45.994,Main,2022.1.1,61.12488111386942,
negative,red,1,None,None,,,,,,,,,0,22,22,22,,,,,,,,,,,,,,,,,main,None,None,1,1.500058599980548,250.05334649980068,None,None,1,,,,,,,,,,,,,,010,2022-05-10_19h44.45.994,Main,2022.1.1,61.12488111386942,
positive,red,2,None,None,,,,,,,,,0,23,23,23,,,,,,,,,,,,,,,,,main,None,None,1,1.496878799982369,252.55339969997294,None,None,1,,,,,,,,,,,,,,010,2022-05-10_19h44.45.994,Main,2022.1.1,61.12488111386942,
negative,red,2,None,None,,,,,,,,,0,24,24,24,,,,,,,,,,,,,,,,,main,None,None,1,1.500099099939689,255.05324379983358,None,None,1,,,,,,,,,,,,,,010,2022-05-10_19h44.45.994,Main,2022.1.1,61.12488111386942,
positive,blue,2,k,None,,,,,,,,,0,25,25,25,,,,,,,,,,,,,,,,,main,k,k,1,0.6971442999783903,257.5556573998183,None,None,0,,,,,,,,,,,,,,010,2022-05-10_19h44.45.994,Main,2022.1.1,61.12488111386942,
negative,yellow,1,k,None,,,,,,,,,0,26,26,26,,,,,,,,,,,,,,,,,main,k,k,1,0.8159278000239283,259.25325199984945,None,None,0,,,,,,,,,,,,,,010,2022-05-10_19h44.45.994,Main,2022.1.1,61.12488111386942,
positive,blue,2,k,None,,,,,,,,,0,27,27,27,,,,,,,,,,,,,,,,,main,k,k,1,0.7158498999197036,261.06979879993014,None,None,0,,,,,,,,,,,,,,010,2022-05-10_19h44.45.994,Main,2022.1.1,61.12488111386942,
negative,blue,2,None,k,,,,,,,,,0,28,28,28,,,,,,,,,,,,,,,,,main,None,None,1,1.5043995999731123,262.786511000013,None,None,1,,,,,,,,,,,,,,010,2022-05-10_19h44.45.994,Main,2022.1.1,61.12488111386942,
positive,red,1,None,None,,,,,,,,,0,29,29,29,,,,,,,,,,,,,,,,,main,None,None,1,1.4939099999610335,265.29000049992464,None,None,1,,,,,,,,,,,,,,010,2022-05-10_19h44.45.994,Main,2022.1.1,61.12488111386942,
positive,blue,1,k,None,,,,,,,,,0,30,30,30,,,,,,,,,,,,,,,,,main,k,k,1,0.682479300070554,267.7863315998111,None,None,0,,,,,,,,,,,,,,010,2022-05-10_19h44.45.994,Main,2022.1.1,61.12488111386942,
positive,yellow,1,None,k,,,,,,,,,0,31,31,31,,,,,,,,,,,,,,,,,main,None,None,1,1.4993026000447571,269.4696725998074,None,None,1,,,,,,,,,,,,,,010,2022-05-10_19h44.45.994,Main,2022.1.1,61.12488111386942,
negative,yellow,2,k,None,,,,,,,,,0,32,32,32,,,,,,,,,,,,,,,,,main,k,k,1,0.7487649000249803,271.9695677999407,None,None,0,,,,,,,,,,,,,,010,2022-05-10_19h44.45.994,Main,2022.1.1,61.12488111386942,
negative,blue,1,None,k,,,,,,,,,0,33,33,33,,,,,,,,,,,,,,,,,main,None,None,1,1.4979781999718398,273.7195495998021,None,None,1,,,,,,,,,,,,,,010,2022-05-10_19h44.45.994,Main,2022.1.1,61.12488111386942,
positive,blue,1,k,None,,,,,,,,,0,34,34,34,,,,,,,,,,,,,,,,,main,k,k,1,0.5825366999488324,276.21955439983867,None,None,0,,,,,,,,,,,,,,010,2022-05-10_19h44.45.994,Main,2022.1.1,61.12488111386942,
negative,yellow,1,k,None,,,,,,,,,0,35,35,35,,,,,,,,,,,,,,,,,main,k,k,1,0.7148461998440325,277.8025164999999,None,None,0,,,,,,,,,,,,,,010,2022-05-10_19h44.45.994,Main,2022.1.1,61.12488111386942,
positive,yellow,2,None,k,,,,,,,,,0,36,36,36,,,,,,,,,,,,,,,,,main,None,None,1,1.5008388999849558,279.51920349989086,None,None,1,,,,,,,,,,,,,,010,2022-05-10_19h44.45.994,Main,2022.1.1,61.12488111386942,
positive,yellow,2,None,k,,,,,,,,,0,37,37,37,,,,,,,,,,,,,,,,,main,None,None,1,1.496675199829042,282.0218210997991,None,None,1,,,,,,,,,,,,,,010,2022-05-10_19h44.45.994,Main,2022.1.1,61.12488111386942,
negative,yellow,2,k,None,,,,,,,,,0,38,38,38,,,,,,,,,,,,,,,,,main,k,k,1,0.6825882000848651,284.5193345998414,None,None,0,,,,,,,,,,,,,,010,2022-05-10_19h44.45.994,Main,2022.1.1,61.12488111386942,
positive,yellow,1,None,k,,,,,,,,,0,39,39,39,,,,,,,,,,,,,,,,,main,None,None,1,1.4981951999943703,286.20263249985874,None,None,1,,,,,,,,,,,,,,010,2022-05-10_19h44.45.994,Main,2022.1.1,61.12488111386942,
negative,yellow,2,k,None,,,,,,,,,0,40,40,40,,,,,,,,,,,,,,,,,main,k,k,1,0.8664502000901848,288.7023438999895,None,None,0,,,,,,,,,,,,,,010,2022-05-10_19h44.45.994,Main,2022.1.1,61.12488111386942,
positive,blue,2,k,None,,,,,,,,,0,41,41,41,,,,,,,,,,,,,,,,,main,k,k,1,0.732352000195533,290.5717150999699,None,None,0,,,,,,,,,,,,,,010,2022-05-10_19h44.45.994,Main,2022.1.1,61.12488111386942,
positive,blue,2,k,None,,,,,,,,,0,42,42,42,,,,,,,,,,,,,,,,,main,k,k,1,0.5986025000456721,292.30506869987585,None,None,0,,,,,,,,,,,,,,010,2022-05-10_19h44.45.994,Main,2022.1.1,61.12488111386942,
negative,blue,2,None,k,,,,,,,,,0,43,43,43,,,,,,,,,,,,,,,,,main,None,None,1,1.5006027000490576,293.9022011999041,None,None,1,,,,,,,,,,,,,,010,2022-05-10_19h44.45.994,Main,2022.1.1,61.12488111386942,
negative,red,1,None,None,,,,,,,,,0,44,44,44,,,,,,,,,,,,,,,,,main,None,None,1,1.4997670000884682,296.40220859996043,None,None,1,,,,,,,,,,,,,,010,2022-05-10_19h44.45.994,Main,2022.1.1,61.12488111386942,
negative,yellow,1,k,None,,,,,,,,,0,45,45,45,,,,,,,,,,,,,,,,,main,k,k,1,0.7470424000639468,298.9024702999741,None,None,0,,,,,,,,,,,,,,010,2022-05-10_19h44.45.994,Main,2022.1.1,61.12488111386942,
negative,yellow,1,k,None,,,,,,,,,0,46,46,46,,,,,,,,,,,,,,,,,main,k,k,1,0.5990871998947114,300.6523372998927,None,None,0,,,,,,,,,,,,,,010,2022-05-10_19h44.45.994,Main,2022.1.1,61.12488111386942,
positive,red,1,None,None,,,,,,,,,0,47,47,47,,,,,,,,,,,,,,,,,main,None,None,1,1.4972017998807132,302.2522352999076,None,None,1,,,,,,,,,,,,,,010,2022-05-10_19h44.45.994,Main,2022.1.1,61.12488111386942,
positive,yellow,1,None,k,,,,,,,,,0,48,48,48,,,,,,,,,,,,,,,,,main,None,None,1,1.5040198001079261,304.7522394999396,None,None,1,,,,,,,,,,,,,,010,2022-05-10_19h44.45.994,Main,2022.1.1,61.12488111386942,
negative,blue,1,None,k,,,,,,,,,0,49,49,49,,,,,,,,,,,,,,,,,main,None,None,1,1.4947508999612182,307.25724679999985,None,None,1,,,,,,,,,,,,,,010,2022-05-10_19h44.45.994,Main,2022.1.1,61.12488111386942,
positive,yellow,2,None,k,,,,,,,,,0,50,50,50,,,,,,,,,,,,,,,,,main,None,None,1,1.495949100004509,309.75219589984044,None,None,1,,,,,,,,,,,,,,010,2022-05-10_19h44.45.994,Main,2022.1.1,61.12488111386942,
negative,blue,1,None,k,,,,,,,,,0,51,51,51,,,,,,,,,,,,,,,,,main,None,None,1,1.4980540999677032,312.2522050999105,None,None,1,,,,,,,,,,,,,,010,2022-05-10_19h44.45.994,Main,2022.1.1,61.12488111386942,
positive,red,2,None,None,,,,,,,,,0,52,52,52,,,,,,,,,,,,,,,,,main,None,None,1,1.4981712000444531,314.7520381999202,None,None,1,,,,,,,,,,,,,,010,2022-05-10_19h44.45.994,Main,2022.1.1,61.12488111386942,
positive,yellow,2,None,k,,,,,,,,,0,53,53,53,,,,,,,,,,,,,,,,,main,None,None,1,1.4987268999684602,317.2520224999171,None,None,1,,,,,,,,,,,,,,010,2022-05-10_19h44.45.994,Main,2022.1.1,61.12488111386942,
negative,red,2,None,None,,,,,,,,,0,54,54,54,,,,,,,,,,,,,,,,,main,None,None,1,1.4987542000599205,319.751868999796,None,None,1,,,,,,,,,,,,,,010,2022-05-10_19h44.45.994,Main,2022.1.1,61.12488111386942,
positive,yellow,1,None,k,,,,,,,,,0,55,55,55,,,,,,,,,,,,,,,,,main,None,None,1,1.4966011000797153,322.25225749984384,None,None,1,,,,,,,,,,,,,,010,2022-05-10_19h44.45.994,Main,2022.1.1,61.12488111386942,
negative,blue,2,None,k,,,,,,,,,0,56,56,56,,,,,,,,,,,,,,,,,main,None,None,1,1.498577499995008,324.75188519991934,None,None,1,,,,,,,,,,,,,,010,2022-05-10_19h44.45.994,Main,2022.1.1,61.12488111386942,
positive,blue,1,k,None,,,,,,,,,0,57,57,57,,,,,,,,,,,,,,,,,main,k,k,1,0.7365544000640512,327.251774400007,None,None,0,,,,,,,,,,,,,,010,2022-05-10_19h44.45.994,Main,2022.1.1,61.12488111386942,
positive,blue,1,k,None,,,,,,,,,0,58,58,58,,,,,,,,,,,,,,,,,main,k,k,1,0.8267882999498397,328.98932639998384,None,None,0,,,,,,,,,,,,,,010,2022-05-10_19h44.45.994,Main,2022.1.1,61.12488111386942,
negative,yellow,2,k,None,,,,,,,,,0,59,59,59,,,,,,,,,,,,,,,,,main,k,k,1,0.7322964000049978,330.8184297999833,None,None,0,,,,,,,,,,,,,,010,2022-05-10_19h44.45.994,Main,2022.1.1,61.12488111386942,
positive,red,2,None,None,,,,,,,,,0,60,60,60,,,,,,,,,,,,,,,,,main,None,None,1,1.4987480000127107,332.55166489980184,None,None,1,,,,,,,,,,,,,,010,2022-05-10_19h44.45.994,Main,2022.1.1,61.12488111386942,
negative,yellow,1,k,None,,,,,,,,,0,61,61,61,,,,,,,,,,,,,,,,,main,k,k,1,0.8990808001253754,335.0516770000104,None,None,0,,,,,,,,,,,,,,010,2022-05-10_19h44.45.994,Main,2022.1.1,61.12488111386942,
negative,red,1,None,None,,,,,,,,,0,62,62,62,,,,,,,,,,,,,,,,,main,None,None,1,1.4984955000691116,336.95153139997274,None,None,1,,,,,,,,,,,,,,010,2022-05-10_19h44.45.994,Main,2022.1.1,61.12488111386942,
negative,blue,1,None,k,,,,,,,,,0,63,63,63,,,,,,,,,,,,,,,,,main,None,None,1,1.5013228000607342,339.4514365999494,None,None,1,,,,,,,,,,,,,,010,2022-05-10_19h44.45.994,Main,2022.1.1,61.12488111386942,
positive,blue,2,k,None,,,,,,,,,0,64,64,64,,,,,,,,,,,,,,,,,main,k,k,1,0.8478891998529434,341.95143019990064,None,None,0,,,,,,,,,,,,,,010,2022-05-10_19h44.45.994,Main,2022.1.1,61.12488111386942,
negative,yellow,2,k,None,,,,,,,,,0,65,65,65,,,,,,,,,,,,,,,,,main,k,k,1,0.9646824998781085,343.80387989990413,None,None,0,,,,,,,,,,,,,,010,2022-05-10_19h44.45.994,Main,2022.1.1,61.12488111386942,
positive,yellow,2,None,k,,,,,,,,,0,66,66,66,,,,,,,,,,,,,,,,,main,None,None,1,1.49917809991166,345.76796989981085,None,None,1,,,,,,,,,,,,,,010,2022-05-10_19h44.45.994,Main,2022.1.1,61.12488111386942,
positive,yellow,2,None,k,,,,,,,,,0,67,67,67,,,,,,,,,,,,,,,,,main,None,None,1,1.4982929998077452,348.26800739998,None,None,1,,,,,,,,,,,,,,010,2022-05-10_19h44.45.994,Main,2022.1.1,61.12488111386942,
positive,red,1,None,None,,,,,,,,,0,68,68,68,,,,,,,,,,,,,,,,,main,None,None,1,1.5014402999076992,350.7678944999352,None,None,1,,,,,,,,,,,,,,010,2022-05-10_19h44.45.994,Main,2022.1.1,61.12488111386942,
positive,yellow,1,None,k,,,,,,,,,0,69,69,69,,,,,,,,,,,,,,,,,main,None,None,1,1.4967634999193251,353.2678797999397,None,None,1,,,,,,,,,,,,,,010,2022-05-10_19h44.45.994,Main,2022.1.1,61.12488111386942,
negative,yellow,2,k,None,,,,,,,,,0,70,70,70,,,,,,,,,,,,,,,,,main,k,k,1,1.5828270998317748,355.76787159987725,None,None,0,,,,,,,,,,,,,,010,2022-05-10_19h44.45.994,Main,2022.1.1,61.12488111386942,
positive,yellow,1,None,k,,,,,,,,,0,71,71,71,,,,,,,,,,,,,,,,,main,None,None,1,1.4985138999763876,359.3512301999144,None,None,1,,,,,,,,,,,,,,010,2022-05-10_19h44.45.994,Main,2022.1.1,61.12488111386942,
negative,blue,1,None,k,,,,,,,,,0,72,72,72,,,,,,,,,,,,,,,,,main,None,None,1,1.5012390001211315,361.85108989989385,None,None,1,,,,,,,,,,,,,,010,2022-05-10_19h44.45.994,Main,2022.1.1,61.12488111386942,
negative,red,2,None,None,,,,,,,,,0,73,73,73,,,,,,,,,,,,,,,,,main,None,None,1,1.4968553998041898,364.35096879978664,None,None,1,,,,,,,,,,,,,,010,2022-05-10_19h44.45.994,Main,2022.1.1,61.12488111386942,
positive,blue,2,k,None,,,,,,,,,0,74,74,74,,,,,,,,,,,,,,,,,main,k,k,1,0.7151317000389099,366.8508736998774,None,None,0,,,,,,,,,,,,,,010,2022-05-10_19h44.45.994,Main,2022.1.1,61.12488111386942,
negative,blue,2,None,k,,,,,,,,,0,75,75,75,,,,,,,,,,,,,,,,,main,None,None,1,1.499288400169462,368.5675134998746,None,None,1,,,,,,,,,,,,,,010,2022-05-10_19h44.45.994,Main,2022.1.1,61.12488111386942,
negative,blue,2,None,k,,,,,,,,,0,76,76,76,,,,,,,,,,,,,,,,,main,None,None,1,1.4993024999275804,371.0675168999005,None,None,1,,,,,,,,,,,,,,010,2022-05-10_19h44.45.994,Main,2022.1.1,61.12488111386942,
negative,yellow,1,k,None,,,,,,,,,0,77,77,77,,,,,,,,,,,,,,,,,main,k,k,1,0.8322346000932157,373.5674619998317,None,None,0,,,,,,,,,,,,,,010,2022-05-10_19h44.45.994,Main,2022.1.1,61.12488111386942,
positive,blue,1,k,None,,,,,,,,,0,78,78,78,,,,,,,,,,,,,,,,,main,k,k,1,0.8156348001211882,375.4008626998402,None,None,0,,,,,,,,,,,,,,010,2022-05-10_19h44.45.994,Main,2022.1.1,61.12488111386942,
positive,blue,1,k,None,,,,,,,,,0,79,79,79,,,,,,,,,,,,,,,,,main,k,k,1,0.6158185000531375,377.21978549985215,None,None,0,,,,,,,,,,,,,,010,2022-05-10_19h44.45.994,Main,2022.1.1,61.12488111386942,
positive,red,2,None,None,,,,,,,,,0,80,80,80,,,,,,,,,,,,,,,,,main,None,None,1,1.4989551999606192,378.83402820001356,None,None,1,,,,,,,,,,,,,,010,2022-05-10_19h44.45.994,Main,2022.1.1,61.12488111386942,
positive,yellow,2,None,k,,,,,,,,,0,81,81,81,,,,,,,,,,,,,,,,,main,None,None,1,1.4985704999417067,381.3362921997905,None,None,1,,,,,,,,,,,,,,010,2022-05-10_19h44.45.994,Main,2022.1.1,61.12488111386942,
positive,blue,1,k,None,,,,,,,,,0,82,82,82,,,,,,,,,,,,,,,,,main,k,k,1,0.6827492001466453,383.83381519978866,None,None,0,,,,,,,,,,,,,,010,2022-05-10_19h44.45.994,Main,2022.1.1,61.12488111386942,
negative,yellow,2,k,None,,,,,,,,,0,83,83,83,,,,,,,,,,,,,,,,,main,k,k,1,1.0668975000735372,385.51715289987624,None,None,0,,,,,,,,,,,,,,010,2022-05-10_19h44.45.994,Main,2022.1.1,61.12488111386942,
positive,blue,2,k,None,,,,,,,,,0,84,84,84,,,,,,,,,,,,,,,,,main,k,k,1,0.7979172999039292,387.58383259992115,None,None,0,,,,,,,,,,,,,,010,2022-05-10_19h44.45.994,Main,2022.1.1,61.12488111386942,
positive,yellow,1,None,k,,,,,,,,,0,85,85,85,,,,,,,,,,,,,,,,,main,None,None,1,1.4987592999823391,389.3837397999596,None,None,1,,,,,,,,,,,,,,010,2022-05-10_19h44.45.994,Main,2022.1.1,61.12488111386942,
positive,blue,2,k,None,,,,,,,,,0,86,86,86,,,,,,,,,,,,,,,,,main,k,k,1,0.849324099952355,391.8836900999304,None,None,0,,,,,,,,,,,,,,010,2022-05-10_19h44.45.994,Main,2022.1.1,61.12488111386942,
positive,blue,1,k,None,,,,,,,,,0,87,87,87,,,,,,,,,,,,,,,,,main,k,k,1,0.6497953000944108,393.73370369989425,None,None,0,,,,,,,,,,,,,,010,2022-05-10_19h44.45.994,Main,2022.1.1,61.12488111386942,
negative,yellow,2,k,None,,,,,,,,,0,88,88,88,,,,,,,,,,,,,,,,,main,k,k,1,0.9813407000619918,395.38343799998984,None,None,0,,,,,,,,,,,,,,010,2022-05-10_19h44.45.994,Main,2022.1.1,61.12488111386942,
negative,blue,2,None,k,,,,,,,,,0,89,89,89,,,,,,,,,,,,,,,,,main,None,None,1,1.5011855999473482,397.36951429978944,None,None,1,,,,,,,,,,,,,,010,2022-05-10_19h44.45.994,Main,2022.1.1,61.12488111386942,
positive,yellow,2,None,k,,,,,,,,,0,90,90,90,,,,,,,,,,,,,,,,,main,None,None,1,1.500642400002107,399.86938799987547,None,None,1,,,,,,,,,,,,,,010,2022-05-10_19h44.45.994,Main,2022.1.1,61.12488111386942,
negative,yellow,1,k,None,,,,,,,,,0,91,91,91,,,,,,,,,,,,,,,,,main,k,k,1,0.8474073999095708,402.36690999986604,None,None,0,,,,,,,,,,,,,,010,2022-05-10_19h44.45.994,Main,2022.1.1,61.12488111386942,
negative,red,2,None,None,,,,,,,,,0,92,92,92,,,,,,,,,,,,,,,,,main,None,None,1,1.4967523999512196,404.2167675998062,None,None,1,,,,,,,,,,,,,,010,2022-05-10_19h44.45.994,Main,2022.1.1,61.12488111386942,
negative,blue,2,None,k,,,,,,,,,0,93,93,93,,,,,,,,,,,,,,,,,main,None,None,1,1.4998254000674933,406.7191680998076,None,None,1,,,,,,,,,,,,,,010,2022-05-10_19h44.45.994,Main,2022.1.1,61.12488111386942,
negative,blue,1,None,k,,,,,,,,,0,94,94,94,,,,,,,,,,,,,,,,,main,None,None,1,1.49867850006558,409.2164174998179,None,None,1,,,,,,,,,,,,,,010,2022-05-10_19h44.45.994,Main,2022.1.1,61.12488111386942,
negative,blue,1,None,k,,,,,,,,,0,95,95,95,,,,,,,,,,,,,,,,,main,None,None,1,1.5007877999451011,411.7192090000026,None,None,1,,,,,,,,,,,,,,010,2022-05-10_19h44.45.994,Main,2022.1.1,61.12488111386942,
negative,red,1,None,None,,,,,,,,,0,96,96,96,,,,,,,,,,,,,,,,,main,None,None,1,1.4972294999752194,414.21672059991397,None,None,1,,,,,,,,,,,,,,010,2022-05-10_19h44.45.994,Main,2022.1.1,61.12488111386942,
positive,yellow,1,None,k,,,,,,,,,0,97,97,97,,,,,,,,,,,,,,,,,main,None,None,1,1.5008044000715017,416.71625079982914,None,None,1,,,,,,,,,,,,,,010,2022-05-10_19h44.45.994,Main,2022.1.1,61.12488111386942,
negative,yellow,1,k,None,,,,,,,,,0,98,98,98,,,,,,,,,,,,,,,,,main,k,k,1,1.4635870000347495,419.21657569985837,None,None,0,,,,,,,,,,,,,,010,2022-05-10_19h44.45.994,Main,2022.1.1,61.12488111386942,
positive,red,1,None,None,,,,,,,,,0,99,99,99,,,,,,,,,,,,,,,,,main,None,None,1,1.4992358000017703,421.68315009982325,None,None,1,,,,,,,,,,,,,,010,2022-05-10_19h44.45.994,Main,2022.1.1,61.12488111386942,
positive,blue,1,k,None,,,,,,,,,0,100,100,100,,,,,,,,,,,,,,,,,main,k,k,1,0.899017000105232,424.1830076999031,None,None,0,,,,,,,,,,,,,,010,2022-05-10_19h44.45.994,Main,2022.1.1,61.12488111386942,
negative,yellow,1,k,None,,,,,,,,,0,101,101,101,,,,,,,,,,,,,,,,,main,k,k,1,0.9826526001561433,426.08534609992057,None,None,0,,,,,,,,,,,,,,010,2022-05-10_19h44.45.994,Main,2022.1.1,61.12488111386942,
negative,blue,2,None,k,,,,,,,,,0,102,102,102,,,,,,,,,,,,,,,,,main,None,None,1,1.498700600117445,428.0662284998689,None,None,1,,,,,,,,,,,,,,010,2022-05-10_19h44.45.994,Main,2022.1.1,61.12488111386942,
negative,yellow,2,k,None,,,,,,,,,0,103,103,103,,,,,,,,,,,,,,,,,main,k,k,1,7.966052399948239,430.5662760999985,None,None,0,,,,,,,,,,,,,,010,2022-05-10_19h44.45.994,Main,2022.1.1,61.12488111386942,
positive,yellow,2,None,k,,,,,,,,,0,104,104,104,,,,,,,,,,,,,,,,,main,None,None,1,1.4982758997939527,440.5328240999952,None,None,1,,,,,,,,,,,,,,010,2022-05-10_19h44.45.994,Main,2022.1.1,61.12488111386942,
positive,blue,1,k,None,,,,,,,,,0,105,105,105,,,,,,,,,,,,,,,,,main,k,k,1,0.8821193999610841,443.032765599899,None,None,0,,,,,,,,,,,,,,010,2022-05-10_19h44.45.994,Main,2022.1.1,61.12488111386942,
positive,blue,2,k,None,,,,,,,,,0,106,106,106,,,,,,,,,,,,,,,,,main,k,k,1,0.5988963001873344,444.9156474999618,None,None,0,,,,,,,,,,,,,,010,2022-05-10_19h44.45.994,Main,2022.1.1,61.12488111386942,
negative,blue,1,None,k,,,,,,,,,0,107,107,107,,,,,,,,,,,,,,,,,main,None,None,1,1.5018825000151992,446.51600179984234,None,None,1,,,,,,,,,,,,,,010,2022-05-10_19h44.45.994,Main,2022.1.1,61.12488111386942,
positive,yellow,2,None,k,,,,,,,,,0,108,108,108,,,,,,,,,,,,,,,,,main,None,None,1,1.4989440001081675,449.01595499995165,None,None,1,,,,,,,,,,,,,,010,2022-05-10_19h44.45.994,Main,2022.1.1,61.12488111386942,
negative,yellow,1,k,None,,,,,,,,,0,109,109,109,,,,,,,,,,,,,,,,,main,k,k,1,0.5972284998279065,451.5157840999309,None,None,0,,,,,,,,,,,,,,010,2022-05-10_19h44.45.994,Main,2022.1.1,61.12488111386942,
negative,blue,2,None,k,,,,,,,,,0,110,110,110,,,,,,,,,,,,,,,,,main,None,None,1,1.498832100071013,453.1158330999315,None,None,1,,,,,,,,,,,,,,010,2022-05-10_19h44.45.994,Main,2022.1.1,61.12488111386942,
positive,blue,2,k,None,,,,,,,,,0,111,111,111,,,,,,,,,,,,,,,,,main,k,k,1,0.6993026998825371,455.6156952998135,None,None,0,,,,,,,,,,,,,,010,2022-05-10_19h44.45.994,Main,2022.1.1,61.12488111386942,
negative,blue,1,None,k,,,,,,,,,0,112,112,112,,,,,,,,,,,,,,,,,main,None,None,1,1.4995609999168664,457.3157906997949,None,None,1,,,,,,,,,,,,,,010,2022-05-10_19h44.45.994,Main,2022.1.1,61.12488111386942,
positive,yellow,1,None,k,,,,,,,,,0,113,113,113,,,,,,,,,,,,,,,,,main,None,None,1,1.5006786999292672,459.81536909984425,None,None,1,,,,,,,,,,,,,,010,2022-05-10_19h44.45.994,Main,2022.1.1,61.12488111386942,
negative,red,1,None,None,,,,,,,,,0,114,114,114,,,,,,,,,,,,,,,,,main,None,None,1,1.4962954998482019,462.3180296998471,None,None,1,,,,,,,,,,,,,,010,2022-05-10_19h44.45.994,Main,2022.1.1,61.12488111386942,
positive,red,1,None,None,,,,,,,,,0,115,115,115,,,,,,,,,,,,,,,,,main,None,None,1,1.5000533999409527,464.8155531999655,None,None,1,,,,,,,,,,,,,,010,2022-05-10_19h44.45.994,Main,2022.1.1,61.12488111386942,
negative,red,2,None,None,,,,,,,,,0,116,116,116,,,,,,,,,,,,,,,,,main,None,None,1,1.4983504998963326,467.3154622998554,None,None,1,,,,,,,,,,,,,,010,2022-05-10_19h44.45.994,Main,2022.1.1,61.12488111386942,
negative,yellow,2,k,None,,,,,,,,,0,117,117,117,,,,,,,,,,,,,,,,,main,k,k,1,0.8824076999444515,469.8178618999664,None,None,0,,,,,,,,,,,,,,010,2022-05-10_19h44.45.994,Main,2022.1.1,61.12488111386942,
positive,yellow,1,None,k,,,,,,,,,0,118,118,118,,,,,,,,,,,,,,,,,main,None,None,1,1.501034300075844,471.6987110998016,None,None,1,,,,,,,,,,,,,,010,2022-05-10_19h44.45.994,Main,2022.1.1,61.12488111386942,
positive,red,2,None,None,,,,,,,,,0,119,119,119,,,,,,,,,,,,,,,,,main,None,None,1,1.4972983000334352,474.1986660999246,None,None,1,,,,,,,,,,,,,,010,2022-05-10_19h44.45.994,Main,2022.1.1,61.12488111386942,
positive,blue,2,k,None,,,,,,,,,0,120,120,120,,,,,,,,,,,,,,,,,main,k,k,1,0.6153420000337064,476.6985503998585,None,None,0,,,,,,,,,,,,,,010,2022-05-10_19h44.45.994,Main,2022.1.1,61.12488111386942,
negative,red,1,None,None,,,,,,,,,0,121,121,121,,,,,,,,,,,,,,,,,main,None,None,1,1.4991096002049744,478.3151560998522,None,None,1,,,,,,,,,,,,,,010,2022-05-10_19h44.45.994,Main,2022.1.1,61.12488111386942,
positive,yellow,2,None,k,,,,,,,,,0,122,122,122,,,,,,,,,,,,,,,,,main,None,None,1,1.4989356000442058,480.81519529991783,None,None,1,,,,,,,,,,,,,,010,2022-05-10_19h44.45.994,Main,2022.1.1,61.12488111386942,
negative,red,2,None,None,,,,,,,,,0,123,123,123,,,,,,,,,,,,,,,,,main,None,None,1,1.4994098001625389,483.3150629999582,None,None,1,,,,,,,,,,,,,,010,2022-05-10_19h44.45.994,Main,2022.1.1,61.12488111386942,
negative,yellow,2,k,None,,,,,,,,,0,124,124,124,,,,,,,,,,,,,,,,,main,k,k,1,0.8044173000380397,485.81744179991074,None,None,0,,,,,,,,,,,,,,010,2022-05-10_19h44.45.994,Main,2022.1.1,61.12488111386942,
positive,red,1,None,None,,,,,,,,,0,125,125,125,,,,,,,,,,,,,,,,,main,None,None,1,1.4927852998953313,487.6195737000089,None,None,1,,,,,,,,,,,,,,010,2022-05-10_19h44.45.994,Main,2022.1.1,61.12488111386942,
negative,blue,2,None,k,,,,,,,,,0,126,126,126,,,,,,,,,,,,,,,,,main,None,None,1,1.4994105000514537,490.1150161998812,None,None,1,,,,,,,,,,,,,,010,2022-05-10_19h44.45.994,Main,2022.1.1,61.12488111386942,
negative,blue,1,None,k,,,,,,,,,0,127,127,127,,,,,,,,,,,,,,,,,main,None,None,1,1.501361500006169,492.6149267000146,None,None,1,,,,,,,,,,,,,,010,2022-05-10_19h44.45.994,Main,2022.1.1,61.12488111386942,
negative,yellow,1,k,None,,,,,,,,,0,128,128,128,,,,,,,,,,,,,,,,,main,k,k,1,0.796941899927333,495.1148431999609,None,None,0,,,,,,,,,,,,,,010,2022-05-10_19h44.45.994,Main,2022.1.1,61.12488111386942,
negative,yellow,1,k,None,,,,,,,,,0,129,129,129,,,,,,,,,,,,,,,,,main,k,k,1,0.6315316997934133,496.91494719986804,None,None,0,,,,,,,,,,,,,,010,2022-05-10_19h44.45.994,Main,2022.1.1,61.12488111386942,
positive,blue,1,k,None,,,,,,,,,0,130,130,130,,,,,,,,,,,,,,,,,main,k,k,1,0.7825394000392407,498.54809469985776,None,None,0,,,,,,,,,,,,,,010,2022-05-10_19h44.45.994,Main,2022.1.1,61.12488111386942,
negative,blue,1,None,k,,,,,,,,,0,131,131,131,,,,,,,,,,,,,,,,,main,None,None,1,1.4991079000756145,500.3314029998146,None,None,1,,,,,,,,,,,,,,010,2022-05-10_19h44.45.994,Main,2022.1.1,61.12488111386942,
negative,blue,2,None,k,,,,,,,,,0,132,132,132,,,,,,,,,,,,,,,,,main,None,None,1,1.4988649999722838,502.8314547999762,None,None,1,,,,,,,,,,,,,,010,2022-05-10_19h44.45.994,Main,2022.1.1,61.12488111386942,
positive,blue,2,k,None,,,,,,,,,0,133,133,133,,,,,,,,,,,,,,,,,main,k,k,1,1.0827428998891264,505.3312677999493,None,None,0,,,,,,,,,,,,,,010,2022-05-10_19h44.45.994,Main,2022.1.1,61.12488111386942,
positive,red,2,None,None,,,,,,,,,0,134,134,134,,,,,,,,,,,,,,,,,main,None,None,1,1.5031411999370903,507.4147159999702,None,None,1,,,,,,,,,,,,,,010,2022-05-10_19h44.45.994,Main,2022.1.1,61.12488111386942,
negative,yellow,2,k,None,,,,,,,,,0,135,135,135,,,,,,,,,,,,,,,,,main,k,k,1,1.4945419998839498,509.9145932998508,None,None,0,,,,,,,,,,,,,,010,2022-05-10_19h44.45.994,Main,2022.1.1,61.12488111386942,
positive,yellow,2,None,k,,,,,,,,,0,136,136,136,,,,,,,,,,,,,,,,,main,None,None,1,1.4996316998731345,512.4168166997842,None,None,1,,,,,,,,,,,,,,010,2022-05-10_19h44.45.994,Main,2022.1.1,61.12488111386942,
positive,blue,1,k,None,,,,,,,,,0,137,137,137,,,,,,,,,,,,,,,,,main,k,k,1,0.7649126001633704,514.9143995998893,None,None,0,,,,,,,,,,,,,,010,2022-05-10_19h44.45.994,Main,2022.1.1,61.12488111386942,
positive,yellow,1,None,k,,,,,,,,,0,138,138,138,,,,,,,,,,,,,,,,,main,None,None,1,1.499297499889508,516.6810449999757,None,None,1,,,,,,,,,,,,,,010,2022-05-10_19h44.45.994,Main,2022.1.1,61.12488111386942,
positive,yellow,1,None,k,,,,,,,,,0,139,139,139,,,,,,,,,,,,,,,,,main,None,None,1,1.4977218999993056,519.1811176999472,None,None,1,,,,,,,,,,,,,,010,2022-05-10_19h44.45.994,Main,2022.1.1,61.12488111386942,
positive,yellow,1,None,k,,,,,,,,,0,140,140,140,,,,,,,,,,,,,,,,,main,None,None,1,1.5002636001445353,521.6810033000074,None,None,1,,,,,,,,,,,,,,010,2022-05-10_19h44.45.994,Main,2022.1.1,61.12488111386942,
positive,blue,1,k,None,,,,,,,,,0,141,141,141,,,,,,,,,,,,,,,,,main,k,k,1,0.8648524999152869,524.1809421000071,None,None,0,,,,,,,,,,,,,,010,2022-05-10_19h44.45.994,Main,2022.1.1,61.12488111386942,
positive,blue,2,k,None,,,,,,,,,0,142,142,142,,,,,,,,,,,,,,,,,main,k,k,1,0.7323602000251412,526.0475904999766,None,None,0,,,,,,,,,,,,,,010,2022-05-10_19h44.45.994,Main,2022.1.1,61.12488111386942,
positive,yellow,2,None,k,,,,,,,,,0,143,143,143,,,,,,,,,,,,,,,,,main,None,None,1,1.4988718999084085,527.7808058999944,None,None,1,,,,,,,,,,,,,,010,2022-05-10_19h44.45.994,Main,2022.1.1,61.12488111386942,
negative,yellow,2,k,None,,,,,,,,,0,144,144,144,,,,,,,,,,,,,,,,,main,k,k,1,0.9825910001527518,530.2812313998584,None,None,0,,,,,,,,,,,,,,010,2022-05-10_19h44.45.994,Main,2022.1.1,61.12488111386942,
negative,blue,2,None,k,,,,,,,,,0,145,145,145,,,,,,,,,,,,,,,,,main,None,None,1,1.499131300020963,532.2640366000123,None,None,1,,,,,,,,,,,,,,010,2022-05-10_19h44.45.994,Main,2022.1.1,61.12488111386942,
negative,red,1,None,None,,,,,,,,,0,146,146,146,,,,,,,,,,,,,,,,,main,None,None,1,1.4995133997872472,534.7640124999452,None,None,1,,,,,,,,,,,,,,010,2022-05-10_19h44.45.994,Main,2022.1.1,61.12488111386942,
positive,blue,1,k,None,,,,,,,,,0,147,147,147,,,,,,,,,,,,,,,,,main,k,k,1,1.5989736998453736,537.2639134998899,None,None,0,,,,,,,,,,,,,,010,2022-05-10_19h44.45.994,Main,2022.1.1,61.12488111386942,
positive,yellow,1,None,k,,,,,,,,,0,148,148,148,,,,,,,,,,,,,,,,,main,None,None,1,1.5029634002130479,540.863884099992,None,None,1,,,,,,,,,,,,,,010,2022-05-10_19h44.45.994,Main,2022.1.1,61.12488111386942,
negative,red,2,None,None,,,,,,,,,0,149,149,149,,,,,,,,,,,,,,,,,main,None,None,1,1.494585500098765,543.3637750998605,None,None,1,,,,,,,,,,,,,,010,2022-05-10_19h44.45.994,Main,2022.1.1,61.12488111386942,
negative,blue,1,None,k,,,,,,,,,0,150,150,150,,,,,,,,,,,,,,,,,main,None,None,1,1.499100600136444,545.863759299973,None,None,1,,,,,,,,,,,,,,010,2022-05-10_19h44.45.994,Main,2022.1.1,61.12488111386942,
negative,yellow,2,k,None,,,,,,,,,0,151,151,151,,,,,,,,,,,,,,,,,main,k,k,1,0.8664947999641299,548.3637440998573,None,None,0,,,,,,,,,,,,,,010,2022-05-10_19h44.45.994,Main,2022.1.1,61.12488111386942,
negative,blue,2,None,k,,,,,,,,,0,152,152,152,,,,,,,,,,,,,,,,,main,None,None,1,1.4982255999930203,550.230360499816,None,None,1,,,,,,,,,,,,,,010,2022-05-10_19h44.45.994,Main,2022.1.1,61.12488111386942,
negative,yellow,1,k,None,,,,,,,,,0,153,153,153,,,,,,,,,,,,,,,,,main,k,k,1,0.9153845000546426,552.7303153998218,None,None,0,,,,,,,,,,,,,,010,2022-05-10_19h44.45.994,Main,2022.1.1,61.12488111386942,
negative,blue,1,None,k,,,,,,,,,0,154,154,154,,,,,,,,,,,,,,,,,main,None,None,1,1.498840100131929,554.646985600004,None,None,1,,,,,,,,,,,,,,010,2022-05-10_19h44.45.994,Main,2022.1.1,61.12488111386942,
positive,yellow,2,None,k,,,,,,,,,0,155,155,155,,,,,,,,,,,,,,,,,main,None,None,1,1.4990178998559713,557.1469516998623,None,None,1,,,,,,,,,,,,,,010,2022-05-10_19h44.45.994,Main,2022.1.1,61.12488111386942,
positive,red,2,None,None,,,,,,,,,0,156,156,156,,,,,,,,,,,,,,,,,main,None,None,1,1.5013198000378907,559.646746999817,None,None,1,,,,,,,,,,,,,,010,2022-05-10_19h44.45.994,Main,2022.1.1,61.12488111386942,
positive,red,1,None,None,,,,,,,,,0,157,157,157,,,,,,,,,,,,,,,,,main,None,None,1,1.4963398999534547,562.146789399907,None,None,1,,,,,,,,,,,,,,010,2022-05-10_19h44.45.994,Main,2022.1.1,61.12488111386942,
positive,blue,2,k,None,,,,,,,,,0,158,158,158,,,,,,,,,,,,,,,,,main,k,k,1,0.8496447999496013,564.6464254998136,None,None,0,,,,,,,,,,,,,,010,2022-05-10_19h44.45.994,Main,2022.1.1,61.12488111386942,
negative,yellow,1,k,None,,,,,,,,,0,159,159,159,,,,,,,,,,,,,,,,,main,k,k,1,0.7657485001254827,566.496443899814,None,None,0,,,,,,,,,,,,,,010,2022-05-10_19h44.45.994,Main,2022.1.1,61.12488111386942,
negative,red,2,None,None,,,,,,,,,0,160,160,160,,,,,,,,,,,,,,,,,main,None,None,1,1.4989688999485224,568.2634212998673,None,None,1,,,,,,,,,,,,,,010,2022-05-10_19h44.45.994,Main,2022.1.1,61.12488111386942,
negative,blue,1,None,k,,,,,,,,,0,161,161,161,,,,,,,,,,,,,,,,,main,None,None,1,1.4988330001942813,570.7632495998405,None,None,1,,,,,,,,,,,,,,010,2022-05-10_19h44.45.994,Main,2022.1.1,61.12488111386942,
negative,blue,1,None,k,,,,,,,,,0,162,162,162,,,,,,,,,,,,,,,,,main,None,None,1,1.4990899001713842,573.2631698998157,None,None,1,,,,,,,,,,,,,,010,2022-05-10_19h44.45.994,Main,2022.1.1,61.12488111386942,
negative,yellow,1,k,None,,,,,,,,,0,163,163,163,,,,,,,,,,,,,,,,,main,k,k,1,0.8329305001534522,575.7631440998521,None,None,0,,,,,,,,,,,,,,010,2022-05-10_19h44.45.994,Main,2022.1.1,61.12488111386942,
negative,yellow,1,k,None,,,,,,,,,0,164,164,164,,,,,,,,,,,,,,,,,main,k,k,1,0.7325459001585841,577.5963824999053,None,None,0,,,,,,,,,,,,,,010,2022-05-10_19h44.45.994,Main,2022.1.1,61.12488111386942,
positive,yellow,1,None,k,,,,,,,,,0,165,165,165,,,,,,,,,,,,,,,,,main,None,None,1,1.498385100159794,579.3297107999679,None,None,1,,,,,,,,,,,,,,010,2022-05-10_19h44.45.994,Main,2022.1.1,61.12488111386942,
negative,red,1,None,None,,,,,,,,,0,166,166,166,,,,,,,,,,,,,,,,,main,None,None,1,1.4996470999903977,581.830065799877,None,None,1,,,,,,,,,,,,,,010,2022-05-10_19h44.45.994,Main,2022.1.1,61.12488111386942,
negative,yellow,2,k,None,,,,,,,,,0,167,167,167,,,,,,,,,,,,,,,,,main,k,k,1,3.381990799913183,584.3293930999935,None,None,0,,,,,,,,,,,,,,010,2022-05-10_19h44.45.994,Main,2022.1.1,61.12488111386942,
positive,blue,2,k,None,,,,,,,,,0,168,168,168,,,,,,,,,,,,,,,,,main,k,k,1,0.7006870000623167,589.7292746999301,None,None,0,,,,,,,,,,,,,,010,2022-05-10_19h44.45.994,Main,2022.1.1,61.12488111386942,
positive,red,2,None,None,,,,,,,,,0,169,169,169,,,,,,,,,,,,,,,,,main,None,None,1,1.5014067001175135,591.4292575998697,None,None,1,,,,,,,,,,,,,,010,2022-05-10_19h44.45.994,Main,2022.1.1,61.12488111386942,
positive,red,1,None,None,,,,,,,,,0,170,170,170,,,,,,,,,,,,,,,,,main,None,None,1,1.4972190000116825,593.9319809998851,None,None,1,,,,,,,,,,,,,,010,2022-05-10_19h44.45.994,Main,2022.1.1,61.12488111386942,
negative,blue,2,None,k,,,,,,,,,0,171,171,171,,,,,,,,,,,,,,,,,main,None,None,1,1.4992793998681009,596.4294553999789,None,None,1,,,,,,,,,,,,,,010,2022-05-10_19h44.45.994,Main,2022.1.1,61.12488111386942,
positive,blue,2,k,None,,,,,,,,,0,172,172,172,,,,,,,,,,,,,,,,,main,k,k,1,0.6819609999656677,598.9290775000118,None,None,0,,,,,,,,,,,,,,010,2022-05-10_19h44.45.994,Main,2022.1.1,61.12488111386942,
negative,yellow,2,k,None,,,,,,,,,0,173,173,173,,,,,,,,,,,,,,,,,main,k,k,1,0.6991325998678803,600.6127447998151,None,None,0,,,,,,,,,,,,,,010,2022-05-10_19h44.45.994,Main,2022.1.1,61.12488111386942,
positive,yellow,2,None,k,,,,,,,,,0,174,174,174,,,,,,,,,,,,,,,,,main,None,None,1,1.498828899813816,602.3150823998731,None,None,1,,,,,,,,,,,,,,010,2022-05-10_19h44.45.994,Main,2022.1.1,61.12488111386942,
negative,blue,2,None,k,,,,,,,,,0,175,175,175,,,,,,,,,,,,,,,,,main,None,k,0,0.8656176999211311,604.8126012999564,None,None,1,,,,,,,,,,,,,,010,2022-05-10_19h44.45.994,Main,2022.1.1,61.12488111386942,
positive,blue,1,k,None,,,,,,,,,0,176,176,176,,,,,,,,,,,,,,,,,main,k,k,1,0.732176800025627,607.6789953999687,None,None,0,,,,,,,,,,,,,,010,2022-05-10_19h44.45.994,Main,2022.1.1,61.12488111386942,
positive,yellow,1,None,k,,,,,,,,,0,177,177,177,,,,,,,,,,,,,,,,,main,None,None,1,1.498620399972424,609.4124576000031,None,None,1,,,,,,,,,,,,,,010,2022-05-10_19h44.45.994,Main,2022.1.1,61.12488111386942,
positive,blue,1,k,None,,,,,,,,,0,178,178,178,,,,,,,,,,,,,,,,,main,k,k,1,0.6985128000378609,611.9123024998698,None,None,0,,,,,,,,,,,,,,010,2022-05-10_19h44.45.994,Main,2022.1.1,61.12488111386942,
positive,yellow,2,None,k,,,,,,,,,0,179,179,179,,,,,,,,,,,,,,,,,main,None,None,1,1.4988519998732954,613.612318799831,None,None,1,,,,,,,,,,,,,,010,2022-05-10_19h44.45.994,Main,2022.1.1,61.12488111386942,
positive,blue,1,k,None,,,,,,,,,0,180,180,180,,,,,,,,,,,,,,,,,main,k,k,1,0.5995920000132173,616.1123256999999,None,None,0,,,,,,,,,,,,,,010,2022-05-10_19h44.45.994,Main,2022.1.1,61.12488111386942,
negative,red,1,None,None,,,,,,,,,0,181,181,181,,,,,,,,,,,,,,,,,main,None,None,1,1.501186199951917,617.7122639999725,None,None,1,,,,,,,,,,,,,,010,2022-05-10_19h44.45.994,Main,2022.1.1,61.12488111386942,
negative,blue,1,None,k,,,,,,,,,0,182,182,182,,,,,,,,,,,,,,,,,main,None,None,1,1.4967400000896305,620.2122820999939,None,None,1,,,,,,,,,,,,,,010,2022-05-10_19h44.45.994,Main,2022.1.1,61.12488111386942,
negative,yellow,2,k,None,,,,,,,,,0,183,183,183,,,,,,,,,,,,,,,,,main,k,k,1,1.182976100128144,622.7121593998745,None,None,0,,,,,,,,,,,,,,010,2022-05-10_19h44.45.994,Main,2022.1.1,61.12488111386942,
positive,yellow,2,None,k,,,,,,,,,0,184,184,184,,,,,,,,,,,,,,,,,main,None,None,1,1.4988060998730361,624.8954840998631,None,None,1,,,,,,,,,,,,,,010,2022-05-10_19h44.45.994,Main,2022.1.1,61.12488111386942,
positive,yellow,1,None,k,,,,,,,,,0,185,185,185,,,,,,,,,,,,,,,,,main,None,None,1,1.4998442998621613,627.3953894998413,None,None,1,,,,,,,,,,,,,,010,2022-05-10_19h44.45.994,Main,2022.1.1,61.12488111386942,
positive,red,2,None,None,,,,,,,,,0,186,186,186,,,,,,,,,,,,,,,,,main,None,None,1,1.5005167999770492,629.8953789998777,None,None,1,,,,,,,,,,,,,,010,2022-05-10_19h44.45.994,Main,2022.1.1,61.12488111386942,
positive,blue,1,k,None,,,,,,,,,0,187,187,187,,,,,,,,,,,,,,,,,main,k,k,1,0.7471479999367148,632.3977724998258,None,None,0,,,,,,,,,,,,,,010,2022-05-10_19h44.45.994,Main,2022.1.1,61.12488111386942,
negative,yellow,1,k,None,,,,,,,,,0,188,188,188,,,,,,,,,,,,,,,,,main,k,k,1,3.5992680001072586,634.1478098998778,None,None,0,,,,,,,,,,,,,,010,2022-05-10_19h44.45.994,Main,2022.1.1,61.12488111386942,
positive,yellow,2,None,k,,,,,,,,,0,189,189,189,,,,,,,,,,,,,,,,,main,None,None,1,1.4993141000159085,639.7452119998634,None,None,1,,,,,,,,,,,,,,010,2022-05-10_19h44.45.994,Main,2022.1.1,61.12488111386942,
negative,yellow,2,k,None,,,,,,,,,0,190,190,190,,,,,,,,,,,,,,,,,main,k,k,1,1.1316019999794662,642.2447898997925,None,None,0,,,,,,,,,,,,,,010,2022-05-10_19h44.45.994,Main,2022.1.1,61.12488111386942,
negative,yellow,1,k,None,,,,,,,,,0,191,191,191,,,,,,,,,,,,,,,,,main,k,k,1,1.95032860012725,644.3809149998706,None,None,0,,,,,,,,,,,,,,010,2022-05-10_19h44.45.994,Main,2022.1.1,61.12488111386942,
positive,blue,2,k,None,,,,,,,,,0,192,192,192,,,,,,,,,,,,,,,,,main,k,k,1,2.2203211998566985,648.3280839999206,None,None,0,,,,,,,,,,,,,,010,2022-05-10_19h44.45.994,Main,2022.1.1,61.12488111386942,
positive,yellow,1,None,k,,,,,,,,,0,193,193,193,,,,,,,,,,,,,,,,,main,None,None,1,1.4987580999732018,652.5472915999126,None,None,1,,,,,,,,,,,,,,010,2022-05-10_19h44.45.994,Main,2022.1.1,61.12488111386942,
negative,red,2,None,None,,,,,,,,,0,194,194,194,,,,,,,,,,,,,,,,,main,None,None,1,1.498442400014028,655.0448721998837,None,None,1,,,,,,,,,,,,,,010,2022-05-10_19h44.45.994,Main,2022.1.1,61.12488111386942,
positive,red,1,None,None,,,,,,,,,0,195,195,195,,,,,,,,,,,,,,,,,main,None,None,1,1.4988861999008805,657.5447199998889,None,None,1,,,,,,,,,,,,,,010,2022-05-10_19h44.45.994,Main,2022.1.1,61.12488111386942,
negative,blue,1,None,k,,,,,,,,,0,196,196,196,,,,,,,,,,,,,,,,,main,None,None,1,1.4995037999469787,660.0447026998736,None,None,1,,,,,,,,,,,,,,010,2022-05-10_19h44.45.994,Main,2022.1.1,61.12488111386942,
positive,blue,2,k,None,,,,,,,,,0,197,197,197,,,,,,,,,,,,,,,,,main,k,k,1,2.1992144000250846,662.5446899998933,None,None,0,,,,,,,,,,,,,,010,2022-05-10_19h44.45.994,Main,2022.1.1,61.12488111386942,
negative,blue,2,None,k,,,,,,,,,0,198,198,198,,,,,,,,,,,,,,,,,main,None,None,1,1.5033102000597864,666.7445576000027,None,None,1,,,,,,,,,,,,,,010,2022-05-10_19h44.45.994,Main,2022.1.1,61.12488111386942,
negative,blue,2,None,k,,,,,,,,,0,199,199,199,,,,,,,,,,,,,,,,,main,None,None,1,1.4990080001298338,669.2445803999435,None,None,1,,,,,,,,,,,,,,010,2022-05-10_19h44.45.994,Main,2022.1.1,61.12488111386942,
positive,blue,2,k,None,,,,,,,,,0,200,200,200,,,,,,,,,,,,,,,,,main,k,k,1,0.6965304999612272,671.7445307997987,None,None,0,,,,,,,,,,,,,,010,2022-05-10_19h44.45.994,Main,2022.1.1,61.12488111386942,
positive,blue,2,k,None,,,,,,,,,0,201,201,201,,,,,,,,,,,,,,,,,main,k,k,1,0.6162163999397308,673.4440935999155,None,None,0,,,,,,,,,,,,,,010,2022-05-10_19h44.45.994,Main,2022.1.1,61.12488111386942,
negative,yellow,2,k,None,,,,,,,,,0,202,202,202,,,,,,,,,,,,,,,,,main,k,k,1,0.7159247999079525,675.0611585997976,None,None,0,,,,,,,,,,,,,,010,2022-05-10_19h44.45.994,Main,2022.1.1,61.12488111386942,
positive,red,1,None,None,,,,,,,,,0,203,203,203,,,,,,,,,,,,,,,,,main,None,None,1,1.502587700029835,676.7801828999072,None,None,1,,,,,,,,,,,,,,010,2022-05-10_19h44.45.994,Main,2022.1.1,61.12488111386942,
negative,blue,2,None,k,,,,,,,,,0,204,204,204,,,,,,,,,,,,,,,,,main,None,None,1,1.4953074001241475,679.280035099946,None,None,1,,,,,,,,,,,,,,010,2022-05-10_19h44.45.994,Main,2022.1.1,61.12488111386942,
negative,red,1,None,None,,,,,,,,,0,205,205,205,,,,,,,,,,,,,,,,,main,None,None,1,1.4995752000249922,681.777485099854,None,None,1,,,,,,,,,,,,,,010,2022-05-10_19h44.45.994,Main,2022.1.1,61.12488111386942,
negative,blue,2,None,k,,,,,,,,,0,206,206,206,,,,,,,,,,,,,,,,,main,None,None,1,1.4995403001084924,684.2775141999591,None,None,1,,,,,,,,,,,,,,010,2022-05-10_19h44.45.994,Main,2022.1.1,61.12488111386942,
negative,yellow,2,k,None,,,,,,,,,0,207,207,207,,,,,,,,,,,,,,,,,main,k,k,1,0.7484627000521868,686.7773698999081,None,None,0,,,,,,,,,,,,,,010,2022-05-10_19h44.45.994,Main,2022.1.1,61.12488111386942,
positive,yellow,2,None,k,,,,,,,,,0,208,208,208,,,,,,,,,,,,,,,,,main,None,None,1,1.5046600000932813,688.5274203999434,None,None,1,,,,,,,,,,,,,,010,2022-05-10_19h44.45.994,Main,2022.1.1,61.12488111386942,
negative,yellow,1,k,None,,,,,,,,,0,209,209,209,,,,,,,,,,,,,,,,,main,k,k,1,0.9116463998798281,691.0311380999628,None,None,0,,,,,,,,,,,,,,010,2022-05-10_19h44.45.994,Main,2022.1.1,61.12488111386942,
negative,red,2,None,None,,,,,,,,,0,210,210,210,,,,,,,,,,,,,,,,,main,None,None,1,1.4995888001285493,692.9437611999456,None,None,1,,,,,,,,,,,,,,010,2022-05-10_19h44.45.994,Main,2022.1.1,61.12488111386942,
negative,blue,1,None,k,,,,,,,,,0,211,211,211,,,,,,,,,,,,,,,,,main,None,None,1,1.496687099803239,695.4463811998721,None,None,1,,,,,,,,,,,,,,010,2022-05-10_19h44.45.994,Main,2022.1.1,61.12488111386942,
negative,yellow,1,k,None,,,,,,,,,0,212,212,212,,,,,,,,,,,,,,,,,main,k,k,1,0.9379112999886274,697.9439163999632,None,None,0,,,,,,,,,,,,,,010,2022-05-10_19h44.45.994,Main,2022.1.1,61.12488111386942,
positive,blue,1,k,None,,,,,,,,,0,213,213,213,,,,,,,,,,,,,,,,,main,k,k,1,0.6942441000137478,699.8857320998795,None,None,0,,,,,,,,,,,,,,010,2022-05-10_19h44.45.994,Main,2022.1.1,61.12488111386942,
positive,blue,1,k,None,,,,,,,,,0,214,214,214,,,,,,,,,,,,,,,,,main,k,k,1,0.7828350998461246,701.577066199854,None,None,0,,,,,,,,,,,,,,010,2022-05-10_19h44.45.994,Main,2022.1.1,61.12488111386942,
positive,yellow,1,None,k,,,,,,,,,0,215,215,215,,,,,,,,,,,,,,,,,main,None,None,1,1.4980452999006957,703.3627838999964,None,None,1,,,,,,,,,,,,,,010,2022-05-10_19h44.45.994,Main,2022.1.1,61.12488111386942,
positive,yellow,1,None,k,,,,,,,,,0,216,216,216,,,,,,,,,,,,,,,,,main,None,None,1,1.500016000121832,705.8603137999307,None,None,1,,,,,,,,,,,,,,010,2022-05-10_19h44.45.994,Main,2022.1.1,61.12488111386942,
positive,yellow,2,None,k,,,,,,,,,0,217,217,217,,,,,,,,,,,,,,,,,main,None,None,1,1.4976063999347389,708.3603280999232,None,None,1,,,,,,,,,,,,,,010,2022-05-10_19h44.45.994,Main,2022.1.1,61.12488111386942,
negative,blue,1,None,k,,,,,,,,,0,218,218,218,,,,,,,,,,,,,,,,,main,None,None,1,1.5022195999044925,710.8600031000096,None,None,1,,,,,,,,,,,,,,010,2022-05-10_19h44.45.994,Main,2022.1.1,61.12488111386942,
positive,red,2,None,None,,,,,,,,,0,219,219,219,,,,,,,,,,,,,,,,,main,None,None,1,1.498860500054434,713.3603262999095,None,None,1,,,,,,,,,,,,,,010,2022-05-10_19h44.45.994,Main,2022.1.1,61.12488111386942,
positive,yellow,1,None,k,,,,,,,,,0,220,220,220,,,,,,,,,,,,,,,,,main,None,None,1,1.4967924000229686,715.8602983998135,None,None,1,,,,,,,,,,,,,,010,2022-05-10_19h44.45.994,Main,2022.1.1,61.12488111386942,
positive,blue,1,k,None,,,,,,,,,0,221,221,221,,,,,,,,,,,,,,,,,main,k,k,1,1.2987364998552948,718.3602207999211,None,None,0,,,,,,,,,,,,,,010,2022-05-10_19h44.45.994,Main,2022.1.1,61.12488111386942,
positive,yellow,2,None,k,,,,,,,,,0,222,222,222,,,,,,,,,,,,,,,,,main,None,None,1,1.5015283999964595,720.6597956998739,None,None,1,,,,,,,,,,,,,,010,2022-05-10_19h44.45.994,Main,2022.1.1,61.12488111386942,
negative,yellow,1,k,None,,,,,,,,,0,223,223,223,,,,,,,,,,,,,,,,,main,k,k,1,0.8636150998063385,723.1625796000008,None,None,0,,,,,,,,,,,,,,010,2022-05-10_19h44.45.994,Main,2022.1.1,61.12488111386942,
positive,yellow,2,None,k,,,,,,,,,0,224,224,224,,,,,,,,,,,,,,,,,main,None,None,1,1.498777500120923,725.0267443999182,None,None,1,,,,,,,,,,,,,,010,2022-05-10_19h44.45.994,Main,2022.1.1,61.12488111386942,
negative,yellow,2,k,None,,,,,,,,,0,225,225,225,,,,,,,,,,,,,,,,,main,k,k,1,1.2163224001415074,727.5265777998138,None,None,0,,,,,,,,,,,,,,010,2022-05-10_19h44.45.994,Main,2022.1.1,61.12488111386942,
negative,blue,2,None,k,,,,,,,,,0,226,226,226,,,,,,,,,,,,,,,,,main,None,None,1,1.4991762998979539,729.7431384997908,None,None,1,,,,,,,,,,,,,,010,2022-05-10_19h44.45.994,Main,2022.1.1,61.12488111386942,
positive,red,2,None,None,,,,,,,,,0,227,227,227,,,,,,,,,,,,,,,,,main,None,None,1,1.4984816000796854,732.2431663000025,None,None,1,,,,,,,,,,,,,,010,2022-05-10_19h44.45.994,Main,2022.1.1,61.12488111386942,
positive,blue,2,k,None,,,,,,,,,0,228,228,228,,,,,,,,,,,,,,,,,main,k,k,1,0.8508493001572788,734.7428499998059,None,None,0,,,,,,,,,,,,,,010,2022-05-10_19h44.45.994,Main,2022.1.1,61.12488111386942,
negative,blue,1,None,k,,,,,,,,,0,229,229,229,,,,,,,,,,,,,,,,,main,None,None,1,1.4987711000721902,736.593153399881,None,None,1,,,,,,,,,,,,,,010,2022-05-10_19h44.45.994,Main,2022.1.1,61.12488111386942,
positive,yellow,1,None,k,,,,,,,,,0,230,230,230,,,,,,,,,,,,,,,,,main,None,None,1,1.4968866999261081,739.0931229998823,None,None,1,,,,,,,,,,,,,,010,2022-05-10_19h44.45.994,Main,2022.1.1,61.12488111386942,
negative,blue,2,None,k,,,,,,,,,0,231,231,231,,,,,,,,,,,,,,,,,main,None,None,1,1.499216000083834,741.592951099854,None,None,1,,,,,,,,,,,,,,010,2022-05-10_19h44.45.994,Main,2022.1.1,61.12488111386942,
negative,red,1,None,None,,,,,,,,,0,232,232,232,,,,,,,,,,,,,,,,,main,None,None,1,1.5026763000059873,744.0928586998489,None,None,1,,,,,,,,,,,,,,010,2022-05-10_19h44.45.994,Main,2022.1.1,61.12488111386942,
positive,blue,2,k,None,,,,,,,,,0,233,233,233,,,,,,,,,,,,,,,,,main,k,k,1,1.7112247999757528,746.5929214998614,None,None,0,,,,,,,,,,,,,,010,2022-05-10_19h44.45.994,Main,2022.1.1,61.12488111386942,
negative,yellow,1,k,None,,,,,,,,,0,234,234,234,,,,,,,,,,,,,,,,,main,k,k,1,0.7822811000514776,750.3092453000136,None,None,0,,,,,,,,,,,,,,010,2022-05-10_19h44.45.994,Main,2022.1.1,61.12488111386942,
negative,yellow,2,k,None,,,,,,,,,0,235,235,235,,,,,,,,,,,,,,,,,main,k,k,1,0.7311434999573976,752.0927552999929,None,None,0,,,,,,,,,,,,,,010,2022-05-10_19h44.45.994,Main,2022.1.1,61.12488111386942,
positive,red,1,None,None,,,,,,,,,0,236,236,236,,,,,,,,,,,,,,,,,main,None,None,1,1.499216000083834,753.8259593998082,None,None,1,,,,,,,,,,,,,,010,2022-05-10_19h44.45.994,Main,2022.1.1,61.12488111386942,
negative,red,2,None,None,,,,,,,,,0,237,237,237,,,,,,,,,,,,,,,,,main,None,None,1,1.498586499830708,756.325970799895,None,None,1,,,,,,,,,,,,,,010,2022-05-10_19h44.45.994,Main,2022.1.1,61.12488111386942,
negative,blue,1,None,k,,,,,,,,,0,238,238,238,,,,,,,,,,,,,,,,,main,None,None,1,1.4996156000997871,758.8259690999985,None,None,1,,,,,,,,,,,,,,010,2022-05-10_19h44.45.994,Main,2022.1.1,61.12488111386942,
positive,blue,1,k,None,,,,,,,,,0,239,239,239,,,,,,,,,,,,,,,,,main,k,k,1,2.122773200040683,761.3258344999049,None,None,0,,,,,,,,,,,,,,010,2022-05-10_19h44.45.994,Main,2022.1.1,61.12488111386942,
,,,,,,,,,,,,,,,,,,,,,,,,,,,,,,,,,,,,,,,,,,,,,,,,,,,,,765.4592675999738,None,,,,,,
