distractor,target,set,ans1,ans2,rep_loop4.thisRepN,rep_loop4.thisTrialN,rep_loop4.thisN,rep_loop4.thisIndex,st2_prac_loop.thisRepN,st2_prac_loop.thisTrialN,st2_prac_loop.thisN,st2_prac_loop.thisIndex,st2_main_loop.thisRepN,st2_main_loop.thisTrialN,st2_main_loop.thisN,st2_main_loop.thisIndex,image_4.started,image_4.stopped,sound_2.started,sound_2.stopped,key_resp_3.keys,key_resp_3.rt,image_5.started,image_5.stopped,st_prac_back.started,st_prac_back.stopped,st_prac_text.started,st_prac_text.stopped,st_fix_back.started,st_fix_back.stopped,st_fix_2.started,st_fix_2.stopped,main_prac,st_ans,st_res,st_corr,st_rt,st_back.started,st_back.stopped,st2_resp.keys,st2_resp.corr,st_main_back.started,st_main_back.stopped,st_main_text.started,st_main_text.stopped,mouse_4.x,mouse_4.y,mouse_4.leftButton,mouse_4.midButton,mouse_4.rightButton,mouse_4.started,mouse_4.stopped,text_2.started,text_2.stopped,id*,date,expName,psychopyVersion,frameRate,
negative,yellow,1,k,None,,,,,0,0,0,0,,,,,33.278778700158,None,41.06626022004057,None,space,58.14761699992232,99.2342326999642,None,103.91499590012245,None,103.91499590012245,None,105.91749390005134,None,105.91749390005134,None,prac,None,None,1,1.5010617000516504,107.93060700013302,None,None,1,,,,,,,,,,,,,,011,2022-05-11_13h59.28.392,Main,2022.1.1,61.20194498725742,
positive,red,2,None,None,,,,,0,1,1,1,,,,,,,,,,,,,,,,,,,,,prac,None,None,1,1.4966659999918193,110.43505179998465,None,None,1,,,,,,,,,,,,,,011,2022-05-11_13h59.28.392,Main,2022.1.1,61.20194498725742,
negative,blue,2,None,k,,,,,0,2,2,2,,,,,,,,,,,,,,,,,,,,,prac,k,k,1,0.7659930000081658,112.93164380011149,None,None,0,,,,,,,,,,,,,,011,2022-05-11_13h59.28.392,Main,2022.1.1,61.20194498725742,
positive,yellow,1,None,k,,,,,0,3,3,3,,,,,,,,,,,,,,,,,,,,,prac,k,k,1,0.838818000163883,114.69992929999717,None,None,0,,,,,,,,,,,,,,011,2022-05-11_13h59.28.392,Main,2022.1.1,61.20194498725742,
negative,blue,2,None,k,,,,,0,4,4,4,,,,,,,,,,,,,,,,,,,,,prac,k,k,1,0.5933948999736458,116.54562370013446,None,None,0,,,,,,,,,,,,,,011,2022-05-11_13h59.28.392,Main,2022.1.1,61.20194498725742,
negative,blue,1,None,k,,,,,0,5,5,5,,,,,,,,,,,,,,,,,,,,,prac,k,k,1,1.4146952999290079,118.13142910017632,None,None,0,,,,,,,,,,,,,,011,2022-05-11_13h59.28.392,Main,2022.1.1,61.20194498725742,
negative,yellow,2,k,None,,,,,0,6,6,6,,,,,,,,,,,,,,,,,,,,,prac,None,None,1,1.499157699989155,120.54811209999025,None,None,1,,,,,,,,,,,,,,011,2022-05-11_13h59.28.392,Main,2022.1.1,61.20194498725742,
negative,red,1,None,None,,,,,0,7,7,7,,,,,,,,,,,,,,,,,,,,,prac,None,None,1,1.4988516999874264,123.05036270013079,None,None,1,,,,,,,,,,,,,,011,2022-05-11_13h59.28.392,Main,2022.1.1,61.20194498725742,
positive,yellow,2,None,k,,,,,0,8,8,8,,,,,,,,,,,,,,,,,,,,,prac,k,k,1,0.8994119002018124,125.5479856999591,None,None,0,,,,,,,,,,,,,,011,2022-05-11_13h59.28.392,Main,2022.1.1,61.20194498725742,
negative,yellow,1,k,None,,,,,0,9,9,9,,,,,,,,,,,,,,,,,,,,,prac,None,None,1,1.4987135999836028,127.44790320005268,None,None,1,,,,,,,,,,,,,,011,2022-05-11_13h59.28.392,Main,2022.1.1,61.20194498725742,
positive,yellow,2,None,k,,,,,0,10,10,10,,,,,,,,,,,,,,,,,,,,,prac,k,k,1,2.3492510998621583,129.94908819999546,None,None,0,,,,,,,,,,,,,,011,2022-05-11_13h59.28.392,Main,2022.1.1,61.20194498725742,
negative,yellow,2,k,None,,,,,0,11,11,11,,,,,,,,,,,,,,,,,,,,,prac,None,None,1,1.4983832999132574,134.29784799995832,None,None,1,,,,,,,,,,,,,,011,2022-05-11_13h59.28.392,Main,2022.1.1,61.20194498725742,
negative,red,2,None,None,,,,,0,12,12,12,,,,,,,,,,,,,,,,,,,,,prac,None,None,1,1.4993223000783473,136.79776770016178,None,None,1,,,,,,,,,,,,,,011,2022-05-11_13h59.28.392,Main,2022.1.1,61.20194498725742,
positive,red,1,None,None,,,,,0,13,13,13,,,,,,,,,,,,,,,,,,,,,prac,None,None,1,1.5005285998340696,139.31413380010054,None,None,1,,,,,,,,,,,,,,011,2022-05-11_13h59.28.392,Main,2022.1.1,61.20194498725742,
positive,blue,2,k,None,,,,,0,14,14,14,,,,,,,,,,,,,,,,,,,,,prac,None,None,1,1.4966881000436842,141.80008880002424,None,None,1,,,,,,,,,,,,,,011,2022-05-11_13h59.28.392,Main,2022.1.1,61.20194498725742,
positive,blue,1,k,None,,,,,0,15,15,15,,,,,,,,,,,,,,,,,,,,,prac,None,None,1,1.4991130998823792,144.29759550001472,None,None,1,,,,,,,,,,,,,,011,2022-05-11_13h59.28.392,Main,2022.1.1,61.20194498725742,
negative,blue,1,None,k,,,,,0,16,16,16,,,,,,,,,,,,,,,,,,,,,prac,k,k,1,1.1161908998619765,146.79745199996978,None,None,0,,,,,,,,,,,,,,011,2022-05-11_13h59.28.392,Main,2022.1.1,61.20194498725742,
positive,blue,2,k,None,,,,,0,17,17,17,,,,,,,,,,,,,,,,,,,,,prac,None,None,1,1.4985669001471251,148.91412550001405,None,None,1,,,,,,,,,,,,,,011,2022-05-11_13h59.28.392,Main,2022.1.1,61.20194498725742,
positive,blue,1,k,None,,,,,0,18,18,18,,,,,,,,,,,,,,,,,,,,,prac,None,None,1,1.502501100068912,151.4196403999813,None,None,1,,,,,,,,,,,,,,011,2022-05-11_13h59.28.392,Main,2022.1.1,61.20194498725742,
positive,yellow,1,None,k,,,,,0,19,19,19,,,,,,,,,,,,,,,,,,,,,prac,k,k,1,0.6962039000354707,153.91401690011844,None,None,0,,,,,,,,,,,,,,011,2022-05-11_13h59.28.392,Main,2022.1.1,61.20194498725742,
negative,yellow,1,k,None,,,,,1,0,20,0,,,,,,,,,,,,,,,,,,,,,prac,None,None,1,1.498565300134942,155.61401500017382,None,None,1,,,,,,,,,,,,,,011,2022-05-11_13h59.28.392,Main,2022.1.1,61.20194498725742,
positive,red,2,None,None,,,,,1,1,21,1,,,,,,,,,,,,,,,,,,,,,prac,None,None,1,1.4995357999578118,158.11390080000274,None,None,1,,,,,,,,,,,,,,011,2022-05-11_13h59.28.392,Main,2022.1.1,61.20194498725742,
negative,blue,2,None,k,,,,,1,2,22,2,,,,,,,,,,,,,,,,,,,,,prac,k,k,1,0.6700957999564707,160.61428830004297,None,None,0,,,,,,,,,,,,,,011,2022-05-11_13h59.28.392,Main,2022.1.1,61.20194498725742,
positive,yellow,1,None,k,,,,,1,3,23,3,,,,,,,,,,,,,,,,,,,,,prac,k,k,1,0.47726919990964234,162.28461130009964,None,None,0,,,,,,,,,,,,,,011,2022-05-11_13h59.28.392,Main,2022.1.1,61.20194498725742,
negative,blue,2,None,k,,,,,1,4,24,4,,,,,,,,,,,,,,,,,,,,,prac,k,k,1,0.6159590999595821,163.76377380010672,None,None,0,,,,,,,,,,,,,,011,2022-05-11_13h59.28.392,Main,2022.1.1,61.20194498725742,
negative,blue,1,None,k,,,,,1,5,25,5,,,,,,,,,,,,,,,,,,,,,prac,k,k,1,0.8317933999933302,165.38073120010085,None,None,0,,,,,,,,,,,,,,011,2022-05-11_13h59.28.392,Main,2022.1.1,61.20194498725742,
negative,yellow,2,k,None,,,,,1,6,26,6,,,,,,,,,,,,,,,,,,,,,prac,None,None,1,1.4975550998933613,167.21383709996007,None,None,1,,,,,,,,,,,,,,011,2022-05-11_13h59.28.392,Main,2022.1.1,61.20194498725742,
negative,red,1,None,None,,,,,1,7,27,7,,,,,,,,,,,,,,,,,,,,,prac,None,None,1,1.501094400184229,169.71345360018313,None,None,1,,,,,,,,,,,,,,011,2022-05-11_13h59.28.392,Main,2022.1.1,61.20194498725742,
positive,yellow,2,None,k,,,,,1,8,28,8,,,,,,,,,,,,,,,,,,,,,prac,k,k,1,0.9300375001039356,172.2137564001605,None,None,0,,,,,,,,,,,,,,011,2022-05-11_13h59.28.392,Main,2022.1.1,61.20194498725742,
negative,yellow,1,k,None,,,,,1,9,29,9,,,,,,,,,,,,,,,,,,,,,prac,None,None,1,1.501376299886033,174.14693340007216,None,None,1,,,,,,,,,,,,,,011,2022-05-11_13h59.28.392,Main,2022.1.1,61.20194498725742,
positive,yellow,2,None,k,,,,,1,10,30,10,,,,,,,,,,,,,,,,,,,,,prac,k,k,1,0.8792824000120163,176.64684249996208,None,None,0,,,,,,,,,,,,,,011,2022-05-11_13h59.28.392,Main,2022.1.1,61.20194498725742,
negative,yellow,2,k,None,,,,,1,11,31,11,,,,,,,,,,,,,,,,,,,,,prac,None,None,1,1.4989944000262767,178.5302216000855,None,None,1,,,,,,,,,,,,,,011,2022-05-11_13h59.28.392,Main,2022.1.1,61.20194498725742,
negative,red,2,None,None,,,,,1,12,32,12,,,,,,,,,,,,,,,,,,,,,prac,None,None,1,1.498896500095725,181.0305222000461,None,None,1,,,,,,,,,,,,,,011,2022-05-11_13h59.28.392,Main,2022.1.1,61.20194498725742,
positive,red,1,None,None,,,,,1,13,33,13,,,,,,,,,,,,,,,,,,,,,prac,None,None,1,1.4988158999476582,183.5304169000592,None,None,1,,,,,,,,,,,,,,011,2022-05-11_13h59.28.392,Main,2022.1.1,61.20194498725742,
positive,blue,2,k,None,,,,,1,14,34,14,,,,,,,,,,,,,,,,,,,,,prac,None,None,1,1.499454899923876,186.0299698000308,None,None,1,,,,,,,,,,,,,,011,2022-05-11_13h59.28.392,Main,2022.1.1,61.20194498725742,
positive,blue,1,k,None,,,,,1,15,35,15,,,,,,,,,,,,,,,,,,,,,prac,None,None,1,1.4989364999346435,188.53029599995352,None,None,1,,,,,,,,,,,,,,011,2022-05-11_13h59.28.392,Main,2022.1.1,61.20194498725742,
negative,blue,1,None,k,,,,,1,16,36,16,,,,,,,,,,,,,,,,,,,,,prac,k,k,1,0.5985266999341547,191.02986540016718,None,None,0,,,,,,,,,,,,,,011,2022-05-11_13h59.28.392,Main,2022.1.1,61.20194498725742,
positive,blue,2,k,None,,,,,1,17,37,17,,,,,,,,,,,,,,,,,,,,,prac,None,None,1,1.4988957999739796,192.62986650015227,None,None,1,,,,,,,,,,,,,,011,2022-05-11_13h59.28.392,Main,2022.1.1,61.20194498725742,
positive,blue,1,k,None,,,,,1,18,38,18,,,,,,,,,,,,,,,,,,,,,prac,None,None,1,1.4988687001168728,195.13034719997086,None,None,1,,,,,,,,,,,,,,011,2022-05-11_13h59.28.392,Main,2022.1.1,61.20194498725742,
positive,yellow,1,None,k,,,,,1,19,39,19,,,,,,,,,,,,,,,,,,,,,prac,k,k,1,0.8325060999486595,197.63009740016423,None,None,0,,,,,,,,,,,,,,011,2022-05-11_13h59.28.392,Main,2022.1.1,61.20194498725742,
,,,,,,,,,,,,,,,,,,,,,,,,,,,,,,,,,,,,,,,,,,199.4630573000759,None,199.4630573000759,None,0.16018519,-0.026851851,0,0,0,0.013626719824969769,None,,,011,2022-05-11_13h59.28.392,Main,2022.1.1,61.20194498725742,
negative,yellow,2,k,None,,,,,,,,,0,0,0,0,,,,,,,,,,,,,200.9321237001568,None,200.9321237001568,None,main,None,None,1,1.5052324999123812,202.98244519997388,None,None,1,,,,,,,,,,,,,,011,2022-05-11_13h59.28.392,Main,2022.1.1,61.20194498725742,
positive,red,1,None,None,,,,,,,,,0,1,1,1,,,,,,,,,,,,,,,,,main,None,None,1,1.4963380000554025,205.4963652000297,None,None,1,,,,,,,,,,,,,,011,2022-05-11_13h59.28.392,Main,2022.1.1,61.20194498725742,
positive,blue,2,k,None,,,,,,,,,0,2,2,2,,,,,,,,,,,,,,,,,main,None,None,1,1.50024630012922,207.99865920003504,None,None,1,,,,,,,,,,,,,,011,2022-05-11_13h59.28.392,Main,2022.1.1,61.20194498725742,
positive,blue,1,k,None,,,,,,,,,0,3,3,3,,,,,,,,,,,,,,,,,main,None,None,1,1.4977712000254542,210.49614870012738,None,None,1,,,,,,,,,,,,,,011,2022-05-11_13h59.28.392,Main,2022.1.1,61.20194498725742,
negative,yellow,2,k,None,,,,,,,,,0,4,4,4,,,,,,,,,,,,,,,,,main,None,None,1,1.5000924000050873,212.9960744001437,None,None,1,,,,,,,,,,,,,,011,2022-05-11_13h59.28.392,Main,2022.1.1,61.20194498725742,
positive,yellow,2,None,k,,,,,,,,,0,5,5,5,,,,,,,,,,,,,,,,,main,k,k,1,0.8313643001019955,215.49613380013034,None,None,0,,,,,,,,,,,,,,011,2022-05-11_13h59.28.392,Main,2022.1.1,61.20194498725742,
negative,blue,2,None,k,,,,,,,,,0,6,6,6,,,,,,,,,,,,,,,,,main,k,k,1,0.9655568001326174,217.329323500162,None,None,0,,,,,,,,,,,,,,011,2022-05-11_13h59.28.392,Main,2022.1.1,61.20194498725742,
positive,red,2,None,None,,,,,,,,,0,7,7,7,,,,,,,,,,,,,,,,,main,None,None,1,1.499026499921456,219.2959849999752,None,None,1,,,,,,,,,,,,,,011,2022-05-11_13h59.28.392,Main,2022.1.1,61.20194498725742,
positive,yellow,1,None,k,,,,,,,,,0,8,8,8,,,,,,,,,,,,,,,,,main,k,k,1,0.782664000056684,221.79583159997128,None,None,0,,,,,,,,,,,,,,011,2022-05-11_13h59.28.392,Main,2022.1.1,61.20194498725742,
negative,red,1,None,None,,,,,,,,,0,9,9,9,,,,,,,,,,,,,,,,,main,None,None,1,1.4990847997833043,223.57919190009125,None,None,1,,,,,,,,,,,,,,011,2022-05-11_13h59.28.392,Main,2022.1.1,61.20194498725742,
positive,yellow,1,None,k,,,,,,,,,0,10,10,10,,,,,,,,,,,,,,,,,main,k,k,1,1.0155332998838276,226.07953790016472,None,None,0,,,,,,,,,,,,,,011,2022-05-11_13h59.28.392,Main,2022.1.1,61.20194498725742,
negative,yellow,1,k,None,,,,,,,,,0,11,11,11,,,,,,,,,,,,,,,,,main,None,None,1,1.5012572000268847,228.0957448000554,None,None,1,,,,,,,,,,,,,,011,2022-05-11_13h59.28.392,Main,2022.1.1,61.20194498725742,
negative,yellow,1,k,None,,,,,,,,,0,12,12,12,,,,,,,,,,,,,,,,,main,None,None,1,1.4965185998007655,230.5981374999974,None,None,1,,,,,,,,,,,,,,011,2022-05-11_13h59.28.392,Main,2022.1.1,61.20194498725742,
negative,red,2,None,None,,,,,,,,,0,13,13,13,,,,,,,,,,,,,,,,,main,None,None,1,1.501515399897471,233.09562120004557,None,None,1,,,,,,,,,,,,,,011,2022-05-11_13h59.28.392,Main,2022.1.1,61.20194498725742,
positive,yellow,2,None,k,,,,,,,,,0,14,14,14,,,,,,,,,,,,,,,,,main,k,k,1,0.7637281001079828,235.59562150016427,None,None,0,,,,,,,,,,,,,,011,2022-05-11_13h59.28.392,Main,2022.1.1,61.20194498725742,
positive,blue,1,k,None,,,,,,,,,0,15,15,15,,,,,,,,,,,,,,,,,main,None,None,1,1.4989058000501245,237.36249690013938,None,None,1,,,,,,,,,,,,,,011,2022-05-11_13h59.28.392,Main,2022.1.1,61.20194498725742,
negative,blue,1,None,k,,,,,,,,,0,16,16,16,,,,,,,,,,,,,,,,,main,k,k,1,0.615991499973461,239.86454219999723,None,None,0,,,,,,,,,,,,,,011,2022-05-11_13h59.28.392,Main,2022.1.1,61.20194498725742,
positive,blue,2,k,None,,,,,,,,,0,17,17,17,,,,,,,,,,,,,,,,,main,None,None,1,1.4986959998495877,241.47865290008485,None,None,1,,,,,,,,,,,,,,011,2022-05-11_13h59.28.392,Main,2022.1.1,61.20194498725742,
negative,blue,2,None,k,,,,,,,,,0,18,18,18,,,,,,,,,,,,,,,,,main,k,k,1,0.8660014001652598,243.97877470008098,None,None,0,,,,,,,,,,,,,,011,2022-05-11_13h59.28.392,Main,2022.1.1,61.20194498725742,
negative,blue,1,None,k,,,,,,,,,0,19,19,19,,,,,,,,,,,,,,,,,main,k,k,1,0.9218395999632776,245.8454923001118,None,None,0,,,,,,,,,,,,,,011,2022-05-11_13h59.28.392,Main,2022.1.1,61.20194498725742,
negative,blue,1,None,k,,,,,,,,,0,20,20,20,,,,,,,,,,,,,,,,,main,k,k,1,0.8095348000060767,247.76643660012633,None,None,0,,,,,,,,,,,,,,011,2022-05-11_13h59.28.392,Main,2022.1.1,61.20194498725742,
negative,blue,2,None,k,,,,,,,,,0,21,21,21,,,,,,,,,,,,,,,,,main,k,k,1,0.8328831999097019,249.57836570008658,None,None,0,,,,,,,,,,,,,,011,2022-05-11_13h59.28.392,Main,2022.1.1,61.20194498725742,
negative,red,1,None,None,,,,,,,,,0,22,22,22,,,,,,,,,,,,,,,,,main,None,None,1,1.5012816998641938,251.41443040012382,None,None,1,,,,,,,,,,,,,,011,2022-05-11_13h59.28.392,Main,2022.1.1,61.20194498725742,
positive,red,2,None,None,,,,,,,,,0,23,23,23,,,,,,,,,,,,,,,,,main,None,None,1,1.4964062999933958,253.9119667999912,None,None,1,,,,,,,,,,,,,,011,2022-05-11_13h59.28.392,Main,2022.1.1,61.20194498725742,
negative,red,2,None,None,,,,,,,,,0,24,24,24,,,,,,,,,,,,,,,,,main,None,None,1,1.5016699000261724,256.4116001999937,None,None,1,,,,,,,,,,,,,,011,2022-05-11_13h59.28.392,Main,2022.1.1,61.20194498725742,
positive,blue,2,k,None,,,,,,,,,0,25,25,25,,,,,,,,,,,,,,,,,main,None,None,1,1.4967824001796544,258.9142395001836,None,None,1,,,,,,,,,,,,,,011,2022-05-11_13h59.28.392,Main,2022.1.1,61.20194498725742,
negative,yellow,1,k,None,,,,,,,,,0,26,26,26,,,,,,,,,,,,,,,,,main,None,None,1,1.4990875001531094,261.4117315001786,None,None,1,,,,,,,,,,,,,,011,2022-05-11_13h59.28.392,Main,2022.1.1,61.20194498725742,
positive,blue,2,k,None,,,,,,,,,0,27,27,27,,,,,,,,,,,,,,,,,main,None,None,1,1.499389800010249,263.91161880013533,None,None,1,,,,,,,,,,,,,,011,2022-05-11_13h59.28.392,Main,2022.1.1,61.20194498725742,
negative,blue,2,None,k,,,,,,,,,0,28,28,28,,,,,,,,,,,,,,,,,main,k,k,1,0.6656644998583943,266.41392530011944,None,None,0,,,,,,,,,,,,,,011,2022-05-11_13h59.28.392,Main,2022.1.1,61.20194498725742,
positive,red,1,None,None,,,,,,,,,0,29,29,29,,,,,,,,,,,,,,,,,main,None,None,1,1.4984629000537097,268.07825989997946,None,None,1,,,,,,,,,,,,,,011,2022-05-11_13h59.28.392,Main,2022.1.1,61.20194498725742,
positive,blue,1,k,None,,,,,,,,,0,30,30,30,,,,,,,,,,,,,,,,,main,None,None,1,1.5012354999780655,270.578171600122,None,None,1,,,,,,,,,,,,,,011,2022-05-11_13h59.28.392,Main,2022.1.1,61.20194498725742,
positive,yellow,1,None,k,,,,,,,,,0,31,31,31,,,,,,,,,,,,,,,,,main,k,k,1,0.7972136000171304,273.0782459001057,None,None,0,,,,,,,,,,,,,,011,2022-05-11_13h59.28.392,Main,2022.1.1,61.20194498725742,
negative,yellow,2,k,None,,,,,,,,,0,32,32,32,,,,,,,,,,,,,,,,,main,None,None,1,1.4987897998653352,274.8780773000326,None,None,1,,,,,,,,,,,,,,011,2022-05-11_13h59.28.392,Main,2022.1.1,61.20194498725742,
negative,blue,1,None,k,,,,,,,,,0,33,33,33,,,,,,,,,,,,,,,,,main,k,k,1,0.765804799972102,277.3779700000305,None,None,0,,,,,,,,,,,,,,011,2022-05-11_13h59.28.392,Main,2022.1.1,61.20194498725742,
positive,blue,1,k,None,,,,,,,,,0,34,34,34,,,,,,,,,,,,,,,,,main,None,None,1,1.4986672000959516,279.1446480001323,None,None,1,,,,,,,,,,,,,,011,2022-05-11_13h59.28.392,Main,2022.1.1,61.20194498725742,
negative,yellow,1,k,None,,,,,,,,,0,35,35,35,,,,,,,,,,,,,,,,,main,None,None,1,1.499278400093317,281.65048260008916,None,None,1,,,,,,,,,,,,,,011,2022-05-11_13h59.28.392,Main,2022.1.1,61.20194498725742,
positive,yellow,2,None,k,,,,,,,,,0,36,36,36,,,,,,,,,,,,,,,,,main,k,k,1,0.6828572999220341,284.1445127001498,None,None,0,,,,,,,,,,,,,,011,2022-05-11_13h59.28.392,Main,2022.1.1,61.20194498725742,
positive,yellow,2,None,k,,,,,,,,,0,37,37,37,,,,,,,,,,,,,,,,,main,k,k,1,0.8657207998912781,285.8278423000593,None,None,0,,,,,,,,,,,,,,011,2022-05-11_13h59.28.392,Main,2022.1.1,61.20194498725742,
negative,yellow,2,k,None,,,,,,,,,0,38,38,38,,,,,,,,,,,,,,,,,main,None,None,1,1.4990209001116455,287.69442520011216,None,None,1,,,,,,,,,,,,,,011,2022-05-11_13h59.28.392,Main,2022.1.1,61.20194498725742,
positive,yellow,1,None,k,,,,,,,,,0,39,39,39,,,,,,,,,,,,,,,,,main,k,k,1,4.582443000050262,290.1944383000955,None,None,0,,,,,,,,,,,,,,011,2022-05-11_13h59.28.392,Main,2022.1.1,61.20194498725742,
negative,yellow,2,k,None,,,,,,,,,0,40,40,40,,,,,,,,,,,,,,,,,main,None,None,1,1.5020358001347631,296.77766160015017,None,None,1,,,,,,,,,,,,,,011,2022-05-11_13h59.28.392,Main,2022.1.1,61.20194498725742,
positive,blue,2,k,None,,,,,,,,,0,41,41,41,,,,,,,,,,,,,,,,,main,None,None,1,1.4975910000503063,299.27750189998187,None,None,1,,,,,,,,,,,,,,011,2022-05-11_13h59.28.392,Main,2022.1.1,61.20194498725742,
positive,blue,2,k,None,,,,,,,,,0,42,42,42,,,,,,,,,,,,,,,,,main,None,None,1,1.4996667001396418,301.77978760004044,None,None,1,,,,,,,,,,,,,,011,2022-05-11_13h59.28.392,Main,2022.1.1,61.20194498725742,
negative,blue,2,None,k,,,,,,,,,0,43,43,43,,,,,,,,,,,,,,,,,main,k,k,1,0.5148608000017703,304.27743160002865,None,None,0,,,,,,,,,,,,,,011,2022-05-11_13h59.28.392,Main,2022.1.1,61.20194498725742,
negative,red,1,None,None,,,,,,,,,0,44,44,44,,,,,,,,,,,,,,,,,main,None,None,1,1.4988985999953002,305.7940534001682,None,None,1,,,,,,,,,,,,,,011,2022-05-11_13h59.28.392,Main,2022.1.1,61.20194498725742,
negative,yellow,1,k,None,,,,,,,,,0,45,45,45,,,,,,,,,,,,,,,,,main,None,None,1,1.4982356000691652,308.2940652000252,None,None,1,,,,,,,,,,,,,,011,2022-05-11_13h59.28.392,Main,2022.1.1,61.20194498725742,
negative,yellow,1,k,None,,,,,,,,,0,46,46,46,,,,,,,,,,,,,,,,,main,None,None,1,1.499842899851501,310.7939274001401,None,None,1,,,,,,,,,,,,,,011,2022-05-11_13h59.28.392,Main,2022.1.1,61.20194498725742,
positive,red,1,None,None,,,,,,,,,0,47,47,47,,,,,,,,,,,,,,,,,main,None,None,1,1.4999295000452548,313.29403310013004,None,None,1,,,,,,,,,,,,,,011,2022-05-11_13h59.28.392,Main,2022.1.1,61.20194498725742,
positive,yellow,1,None,k,,,,,,,,,0,48,48,48,,,,,,,,,,,,,,,,,main,k,k,1,1.1640169001184404,315.79382809996605,None,None,0,,,,,,,,,,,,,,011,2022-05-11_13h59.28.392,Main,2022.1.1,61.20194498725742,
negative,blue,1,None,k,,,,,,,,,0,49,49,49,,,,,,,,,,,,,,,,,main,k,k,1,0.5491311999503523,317.96047640009783,None,None,0,,,,,,,,,,,,,,011,2022-05-11_13h59.28.392,Main,2022.1.1,61.20194498725742,
positive,yellow,2,None,k,,,,,,,,,0,50,50,50,,,,,,,,,,,,,,,,,main,k,k,1,0.715448800008744,319.51046769996174,None,None,0,,,,,,,,,,,,,,011,2022-05-11_13h59.28.392,Main,2022.1.1,61.20194498725742,
negative,blue,1,None,k,,,,,,,,,0,51,51,51,,,,,,,,,,,,,,,,,main,k,k,1,0.6490126000717282,321.22709559998475,None,None,0,,,,,,,,,,,,,,011,2022-05-11_13h59.28.392,Main,2022.1.1,61.20194498725742,
positive,red,2,None,None,,,,,,,,,0,52,52,52,,,,,,,,,,,,,,,,,main,None,None,1,1.5008990000933409,322.877121000085,None,None,1,,,,,,,,,,,,,,011,2022-05-11_13h59.28.392,Main,2022.1.1,61.20194498725742,
positive,yellow,2,None,k,,,,,,,,,0,53,53,53,,,,,,,,,,,,,,,,,main,k,k,1,0.7150153999682516,325.3794895000756,None,None,0,,,,,,,,,,,,,,011,2022-05-11_13h59.28.392,Main,2022.1.1,61.20194498725742,
negative,red,2,None,None,,,,,,,,,0,54,54,54,,,,,,,,,,,,,,,,,main,None,None,1,1.4994206000119448,327.0933575001545,None,None,1,,,,,,,,,,,,,,011,2022-05-11_13h59.28.392,Main,2022.1.1,61.20194498725742,
positive,yellow,1,None,k,,,,,,,,,0,55,55,55,,,,,,,,,,,,,,,,,main,k,k,1,0.7471932000480592,329.59364700014703,None,None,0,,,,,,,,,,,,,,011,2022-05-11_13h59.28.392,Main,2022.1.1,61.20194498725742,
negative,blue,2,None,k,,,,,,,,,0,56,56,56,,,,,,,,,,,,,,,,,main,k,k,1,0.71694550011307,331.3436416001059,None,None,0,,,,,,,,,,,,,,011,2022-05-11_13h59.28.392,Main,2022.1.1,61.20194498725742,
positive,blue,1,k,None,,,,,,,,,0,57,57,57,,,,,,,,,,,,,,,,,main,None,None,1,1.4997018000576645,333.0598977000918,None,None,1,,,,,,,,,,,,,,011,2022-05-11_13h59.28.392,Main,2022.1.1,61.20194498725742,
positive,blue,1,k,None,,,,,,,,,0,58,58,58,,,,,,,,,,,,,,,,,main,None,None,1,1.498229700140655,335.56256510014646,None,None,1,,,,,,,,,,,,,,011,2022-05-11_13h59.28.392,Main,2022.1.1,61.20194498725742,
negative,yellow,2,k,None,,,,,,,,,0,59,59,59,,,,,,,,,,,,,,,,,main,None,None,1,1.4973639999516308,338.0656827001367,None,None,1,,,,,,,,,,,,,,011,2022-05-11_13h59.28.392,Main,2022.1.1,61.20194498725742,
positive,red,2,None,None,,,,,,,,,0,60,60,60,,,,,,,,,,,,,,,,,main,None,None,1,1.5016899998299778,340.5597173999995,None,None,1,,,,,,,,,,,,,,011,2022-05-11_13h59.28.392,Main,2022.1.1,61.20194498725742,
negative,yellow,1,k,None,,,,,,,,,0,61,61,61,,,,,,,,,,,,,,,,,main,None,None,1,1.4991639000363648,343.0624196000863,None,None,1,,,,,,,,,,,,,,011,2022-05-11_13h59.28.392,Main,2022.1.1,61.20194498725742,
negative,red,1,None,None,,,,,,,,,0,62,62,62,,,,,,,,,,,,,,,,,main,None,None,1,1.496718400157988,345.56236089998856,None,None,1,,,,,,,,,,,,,,011,2022-05-11_13h59.28.392,Main,2022.1.1,61.20194498725742,
negative,blue,1,None,k,,,,,,,,,0,63,63,63,,,,,,,,,,,,,,,,,main,k,k,1,0.848853100091219,348.05982940015383,None,None,0,,,,,,,,,,,,,,011,2022-05-11_13h59.28.392,Main,2022.1.1,61.20194498725742,
positive,blue,2,k,None,,,,,,,,,0,64,64,64,,,,,,,,,,,,,,,,,main,None,None,1,1.502169799990952,349.90974709996954,None,None,1,,,,,,,,,,,,,,011,2022-05-11_13h59.28.392,Main,2022.1.1,61.20194498725742,
negative,yellow,2,k,None,,,,,,,,,0,65,65,65,,,,,,,,,,,,,,,,,main,None,None,1,1.4956668999511749,352.4098583001178,None,None,1,,,,,,,,,,,,,,011,2022-05-11_13h59.28.392,Main,2022.1.1,61.20194498725742,
positive,yellow,2,None,k,,,,,,,,,0,66,66,66,,,,,,,,,,,,,,,,,main,k,k,1,0.7147236000746489,354.91004460002296,None,None,0,,,,,,,,,,,,,,011,2022-05-11_13h59.28.392,Main,2022.1.1,61.20194498725742,
positive,yellow,2,None,k,,,,,,,,,0,67,67,67,,,,,,,,,,,,,,,,,main,k,k,1,0.8988860999234021,356.62668190011755,None,None,0,,,,,,,,,,,,,,011,2022-05-11_13h59.28.392,Main,2022.1.1,61.20194498725742,
positive,red,1,None,None,,,,,,,,,0,68,68,68,,,,,,,,,,,,,,,,,main,None,None,1,1.4979890000540763,358.5262863000389,None,None,1,,,,,,,,,,,,,,011,2022-05-11_13h59.28.392,Main,2022.1.1,61.20194498725742,
positive,yellow,1,None,k,,,,,,,,,0,69,69,69,,,,,,,,,,,,,,,,,main,k,k,1,1.5997935999184847,361.0259611001238,None,None,0,,,,,,,,,,,,,,011,2022-05-11_13h59.28.392,Main,2022.1.1,61.20194498725742,
negative,yellow,2,k,None,,,,,,,,,0,70,70,70,,,,,,,,,,,,,,,,,main,None,None,1,1.5009818999096751,364.6267451001331,None,None,1,,,,,,,,,,,,,,011,2022-05-11_13h59.28.392,Main,2022.1.1,61.20194498725742,
positive,yellow,1,None,k,,,,,,,,,0,71,71,71,,,,,,,,,,,,,,,,,main,k,k,1,0.9301115998532623,367.1285409000702,None,None,0,,,,,,,,,,,,,,011,2022-05-11_13h59.28.392,Main,2022.1.1,61.20194498725742,
negative,blue,1,None,k,,,,,,,,,0,72,72,72,,,,,,,,,,,,,,,,,main,k,k,1,0.7155462999362499,369.05932330014184,None,None,0,,,,,,,,,,,,,,011,2022-05-11_13h59.28.392,Main,2022.1.1,61.20194498725742,
negative,red,2,None,None,,,,,,,,,0,73,73,73,,,,,,,,,,,,,,,,,main,None,None,1,1.4991087999660522,370.77598430006765,None,None,1,,,,,,,,,,,,,,011,2022-05-11_13h59.28.392,Main,2022.1.1,61.20194498725742,
positive,blue,2,k,None,,,,,,,,,0,74,74,74,,,,,,,,,,,,,,,,,main,None,None,1,1.498644300037995,373.2761902001221,None,None,1,,,,,,,,,,,,,,011,2022-05-11_13h59.28.392,Main,2022.1.1,61.20194498725742,
negative,blue,2,None,k,,,,,,,,,0,75,75,75,,,,,,,,,,,,,,,,,main,k,k,1,1.0569335999898612,375.77586599998176,None,None,0,,,,,,,,,,,,,,011,2022-05-11_13h59.28.392,Main,2022.1.1,61.20194498725742,
negative,blue,2,None,k,,,,,,,,,0,76,76,76,,,,,,,,,,,,,,,,,main,k,k,1,0.6249608998186886,377.83331750007346,None,None,0,,,,,,,,,,,,,,011,2022-05-11_13h59.28.392,Main,2022.1.1,61.20194498725742,
negative,yellow,1,k,None,,,,,,,,,0,77,77,77,,,,,,,,,,,,,,,,,main,None,None,1,1.4990012000780553,379.4591328999959,None,None,1,,,,,,,,,,,,,,011,2022-05-11_13h59.28.392,Main,2022.1.1,61.20194498725742,
positive,blue,1,k,None,,,,,,,,,0,78,78,78,,,,,,,,,,,,,,,,,main,None,None,1,1.5004724999889731,381.95909160003066,None,None,1,,,,,,,,,,,,,,011,2022-05-11_13h59.28.392,Main,2022.1.1,61.20194498725742,
positive,blue,1,k,None,,,,,,,,,0,79,79,79,,,,,,,,,,,,,,,,,main,None,None,1,1.4974187000188977,384.4590215999633,None,None,1,,,,,,,,,,,,,,011,2022-05-11_13h59.28.392,Main,2022.1.1,61.20194498725742,
positive,red,2,None,None,,,,,,,,,0,80,80,80,,,,,,,,,,,,,,,,,main,None,None,1,1.4987002001143992,386.95897000003606,None,None,1,,,,,,,,,,,,,,011,2022-05-11_13h59.28.392,Main,2022.1.1,61.20194498725742,
positive,yellow,2,None,k,,,,,,,,,0,81,81,81,,,,,,,,,,,,,,,,,main,k,k,1,0.8991884000133723,389.4589730000589,None,None,0,,,,,,,,,,,,,,011,2022-05-11_13h59.28.392,Main,2022.1.1,61.20194498725742,
positive,blue,1,k,None,,,,,,,,,0,82,82,82,,,,,,,,,,,,,,,,,main,None,None,1,1.499075099825859,391.358892200049,None,None,1,,,,,,,,,,,,,,011,2022-05-11_13h59.28.392,Main,2022.1.1,61.20194498725742,
negative,yellow,2,k,None,,,,,,,,,0,83,83,83,,,,,,,,,,,,,,,,,main,None,None,1,1.4987248999532312,393.8588439000305,None,None,1,,,,,,,,,,,,,,011,2022-05-11_13h59.28.392,Main,2022.1.1,61.20194498725742,
positive,blue,2,k,None,,,,,,,,,0,84,84,84,,,,,,,,,,,,,,,,,main,None,None,1,1.5016876999288797,396.35855140001513,None,None,1,,,,,,,,,,,,,,011,2022-05-11_13h59.28.392,Main,2022.1.1,61.20194498725742,
positive,yellow,1,None,k,,,,,,,,,0,85,85,85,,,,,,,,,,,,,,,,,main,k,k,1,0.9637224001344293,398.8611779999919,None,None,0,,,,,,,,,,,,,,011,2022-05-11_13h59.28.392,Main,2022.1.1,61.20194498725742,
positive,blue,2,k,None,,,,,,,,,0,86,86,86,,,,,,,,,,,,,,,,,main,None,None,1,1.4997022000607103,400.82534380001016,None,None,1,,,,,,,,,,,,,,011,2022-05-11_13h59.28.392,Main,2022.1.1,61.20194498725742,
positive,blue,1,k,None,,,,,,,,,0,87,87,87,,,,,,,,,,,,,,,,,main,None,None,1,1.5000587000977248,403.325317800045,None,None,1,,,,,,,,,,,,,,011,2022-05-11_13h59.28.392,Main,2022.1.1,61.20194498725742,
negative,yellow,2,k,None,,,,,,,,,0,88,88,88,,,,,,,,,,,,,,,,,main,None,None,1,1.4980297998990864,405.82521759998053,None,None,1,,,,,,,,,,,,,,011,2022-05-11_13h59.28.392,Main,2022.1.1,61.20194498725742,
negative,blue,2,None,k,,,,,,,,,0,89,89,89,,,,,,,,,,,,,,,,,main,k,k,1,0.8979555000551045,408.3249008001294,None,None,0,,,,,,,,,,,,,,011,2022-05-11_13h59.28.392,Main,2022.1.1,61.20194498725742,
positive,yellow,2,None,k,,,,,,,,,0,90,90,90,,,,,,,,,,,,,,,,,main,k,k,1,0.8349909000098705,410.22492259996943,None,None,0,,,,,,,,,,,,,,011,2022-05-11_13h59.28.392,Main,2022.1.1,61.20194498725742,
negative,yellow,1,k,None,,,,,,,,,0,91,91,91,,,,,,,,,,,,,,,,,main,None,None,1,1.4962762999348342,412.05853669997305,None,None,1,,,,,,,,,,,,,,011,2022-05-11_13h59.28.392,Main,2022.1.1,61.20194498725742,
negative,red,2,None,None,,,,,,,,,0,92,92,92,,,,,,,,,,,,,,,,,main,None,None,1,1.4988696998916566,414.55842959997244,None,None,1,,,,,,,,,,,,,,011,2022-05-11_13h59.28.392,Main,2022.1.1,61.20194498725742,
negative,blue,2,None,k,,,,,,,,,0,93,93,93,,,,,,,,,,,,,,,,,main,k,k,1,1.0162905999459326,417.05825710017234,None,None,0,,,,,,,,,,,,,,011,2022-05-11_13h59.28.392,Main,2022.1.1,61.20194498725742,
negative,blue,1,None,k,,,,,,,,,0,94,94,94,,,,,,,,,,,,,,,,,main,k,k,1,0.7991424000356346,419.0749196000397,None,None,0,,,,,,,,,,,,,,011,2022-05-11_13h59.28.392,Main,2022.1.1,61.20194498725742,
negative,blue,1,None,k,,,,,,,,,0,95,95,95,,,,,,,,,,,,,,,,,main,k,k,1,0.6820906000211835,420.8749273000285,None,None,0,,,,,,,,,,,,,,011,2022-05-11_13h59.28.392,Main,2022.1.1,61.20194498725742,
negative,red,1,None,None,,,,,,,,,0,96,96,96,,,,,,,,,,,,,,,,,main,None,None,1,1.5018076000269502,422.557909599971,None,None,1,,,,,,,,,,,,,,011,2022-05-11_13h59.28.392,Main,2022.1.1,61.20194498725742,
positive,yellow,1,None,k,,,,,,,,,0,97,97,97,,,,,,,,,,,,,,,,,main,k,k,1,0.6304258999880403,425.0606245000381,None,None,0,,,,,,,,,,,,,,011,2022-05-11_13h59.28.392,Main,2022.1.1,61.20194498725742,
negative,yellow,1,k,None,,,,,,,,,0,98,98,98,,,,,,,,,,,,,,,,,main,None,k,0,0.5325049001257867,426.6939491000958,None,None,1,,,,,,,,,,,,,,011,2022-05-11_13h59.28.392,Main,2022.1.1,61.20194498725742,
positive,red,1,None,None,,,,,,,,,0,99,99,99,,,,,,,,,,,,,,,,,main,None,None,1,1.498385100159794,429.2247067000717,None,None,1,,,,,,,,,,,,,,011,2022-05-11_13h59.28.392,Main,2022.1.1,61.20194498725742,
positive,blue,1,k,None,,,,,,,,,0,100,100,100,,,,,,,,,,,,,,,,,main,None,None,1,1.4984500999562442,431.7247111001052,None,None,1,,,,,,,,,,,,,,011,2022-05-11_13h59.28.392,Main,2022.1.1,61.20194498725742,
negative,yellow,1,k,None,,,,,,,,,0,101,101,101,,,,,,,,,,,,,,,,,main,None,None,1,1.4984919999260455,434.22463670000434,None,None,1,,,,,,,,,,,,,,011,2022-05-11_13h59.28.392,Main,2022.1.1,61.20194498725742,
negative,blue,2,None,k,,,,,,,,,0,102,102,102,,,,,,,,,,,,,,,,,main,k,k,1,0.6659834000747651,436.72494100010954,None,None,0,,,,,,,,,,,,,,011,2022-05-11_13h59.28.392,Main,2022.1.1,61.20194498725742,
negative,yellow,2,k,None,,,,,,,,,0,103,103,103,,,,,,,,,,,,,,,,,main,None,None,1,1.4986650000791997,438.391193700023,None,None,1,,,,,,,,,,,,,,011,2022-05-11_13h59.28.392,Main,2022.1.1,61.20194498725742,
positive,yellow,2,None,k,,,,,,,,,0,104,104,104,,,,,,,,,,,,,,,,,main,k,k,1,0.7326571999583393,440.8911769001279,None,None,0,,,,,,,,,,,,,,011,2022-05-11_13h59.28.392,Main,2022.1.1,61.20194498725742,
positive,blue,1,k,None,,,,,,,,,0,105,105,105,,,,,,,,,,,,,,,,,main,None,None,1,1.5008940999396145,442.6244175999891,None,None,1,,,,,,,,,,,,,,011,2022-05-11_13h59.28.392,Main,2022.1.1,61.20194498725742,
positive,blue,2,k,None,,,,,,,,,0,106,106,106,,,,,,,,,,,,,,,,,main,None,None,1,1.4970486999955028,445.1243690000847,None,None,1,,,,,,,,,,,,,,011,2022-05-11_13h59.28.392,Main,2022.1.1,61.20194498725742,
negative,blue,1,None,k,,,,,,,,,0,107,107,107,,,,,,,,,,,,,,,,,main,k,k,1,0.7158625000156462,447.6242794999853,None,None,0,,,,,,,,,,,,,,011,2022-05-11_13h59.28.392,Main,2022.1.1,61.20194498725742,
positive,yellow,2,None,k,,,,,,,,,0,108,108,108,,,,,,,,,,,,,,,,,main,k,k,1,0.8657342998776585,449.34097809996456,None,None,0,,,,,,,,,,,,,,011,2022-05-11_13h59.28.392,Main,2022.1.1,61.20194498725742,
negative,yellow,1,k,None,,,,,,,,,0,109,109,109,,,,,,,,,,,,,,,,,main,None,None,1,1.4992040998768061,451.20759200002067,None,None,1,,,,,,,,,,,,,,011,2022-05-11_13h59.28.392,Main,2022.1.1,61.20194498725742,
negative,blue,2,None,k,,,,,,,,,0,110,110,110,,,,,,,,,,,,,,,,,main,k,k,1,1.0153904999606311,453.7075684000738,None,None,0,,,,,,,,,,,,,,011,2022-05-11_13h59.28.392,Main,2022.1.1,61.20194498725742,
positive,blue,2,k,None,,,,,,,,,0,111,111,111,,,,,,,,,,,,,,,,,main,None,None,1,1.4989556001964957,455.7241905000992,None,None,1,,,,,,,,,,,,,,011,2022-05-11_13h59.28.392,Main,2022.1.1,61.20194498725742,
negative,blue,1,None,k,,,,,,,,,0,112,112,112,,,,,,,,,,,,,,,,,main,k,k,1,0.7004503000061959,458.22403050004505,None,None,0,,,,,,,,,,,,,,011,2022-05-11_13h59.28.392,Main,2022.1.1,61.20194498725742,
positive,yellow,1,None,k,,,,,,,,,0,113,113,113,,,,,,,,,,,,,,,,,main,k,k,1,0.581671099876985,459.92388000013307,None,None,0,,,,,,,,,,,,,,011,2022-05-11_13h59.28.392,Main,2022.1.1,61.20194498725742,
negative,red,1,None,None,,,,,,,,,0,114,114,114,,,,,,,,,,,,,,,,,main,None,None,1,1.4994413000531495,461.5073500000872,None,None,1,,,,,,,,,,,,,,011,2022-05-11_13h59.28.392,Main,2022.1.1,61.20194498725742,
positive,red,1,None,None,,,,,,,,,0,115,115,115,,,,,,,,,,,,,,,,,main,None,None,1,1.5005632999818772,464.0072268000804,None,None,1,,,,,,,,,,,,,,011,2022-05-11_13h59.28.392,Main,2022.1.1,61.20194498725742,
negative,red,2,None,None,,,,,,,,,0,116,116,116,,,,,,,,,,,,,,,,,main,None,None,1,1.4981207998935133,466.5072699000593,None,None,1,,,,,,,,,,,,,,011,2022-05-11_13h59.28.392,Main,2022.1.1,61.20194498725742,
negative,yellow,2,k,None,,,,,,,,,0,117,117,117,,,,,,,,,,,,,,,,,main,None,None,1,1.496813700068742,469.007222100161,None,None,1,,,,,,,,,,,,,,011,2022-05-11_13h59.28.392,Main,2022.1.1,61.20194498725742,
positive,yellow,1,None,k,,,,,,,,,0,118,118,118,,,,,,,,,,,,,,,,,main,k,k,1,0.8544768001884222,471.50714720017277,None,None,0,,,,,,,,,,,,,,011,2022-05-11_13h59.28.392,Main,2022.1.1,61.20194498725742,
positive,red,2,None,None,,,,,,,,,0,119,119,119,,,,,,,,,,,,,,,,,main,None,None,1,1.4945771999191493,473.3659358001314,None,None,1,,,,,,,,,,,,,,011,2022-05-11_13h59.28.392,Main,2022.1.1,61.20194498725742,
positive,blue,2,k,None,,,,,,,,,0,120,120,120,,,,,,,,,,,,,,,,,main,None,None,1,1.500377600081265,475.8568671999965,None,None,1,,,,,,,,,,,,,,011,2022-05-11_13h59.28.392,Main,2022.1.1,61.20194498725742,
negative,red,1,None,None,,,,,,,,,0,121,121,121,,,,,,,,,,,,,,,,,main,None,None,1,1.4965925000142306,478.3596803001128,None,None,1,,,,,,,,,,,,,,011,2022-05-11_13h59.28.392,Main,2022.1.1,61.20194498725742,
positive,yellow,2,None,k,,,,,,,,,0,122,122,122,,,,,,,,,,,,,,,,,main,k,k,1,0.6824862998910248,480.85694650001824,None,None,0,,,,,,,,,,,,,,011,2022-05-11_13h59.28.392,Main,2022.1.1,61.20194498725742,
negative,red,2,None,None,,,,,,,,,0,123,123,123,,,,,,,,,,,,,,,,,main,None,None,1,1.499424299923703,482.5399313000962,None,None,1,,,,,,,,,,,,,,011,2022-05-11_13h59.28.392,Main,2022.1.1,61.20194498725742,
negative,yellow,2,k,None,,,,,,,,,0,124,124,124,,,,,,,,,,,,,,,,,main,None,None,1,1.5010077999904752,485.0427302001044,None,None,1,,,,,,,,,,,,,,011,2022-05-11_13h59.28.392,Main,2022.1.1,61.20194498725742,
positive,red,1,None,None,,,,,,,,,0,125,125,125,,,,,,,,,,,,,,,,,main,None,None,1,1.4976015998981893,487.5426115000155,None,None,1,,,,,,,,,,,,,,011,2022-05-11_13h59.28.392,Main,2022.1.1,61.20194498725742,
negative,blue,2,None,k,,,,,,,,,0,126,126,126,,,,,,,,,,,,,,,,,main,k,k,1,0.7815700999926776,490.04239790001884,None,None,0,,,,,,,,,,,,,,011,2022-05-11_13h59.28.392,Main,2022.1.1,61.20194498725742,
negative,blue,1,None,k,,,,,,,,,0,127,127,127,,,,,,,,,,,,,,,,,main,k,k,1,0.8491146999876946,491.8232975001447,None,None,0,,,,,,,,,,,,,,011,2022-05-11_13h59.28.392,Main,2022.1.1,61.20194498725742,
negative,yellow,1,k,None,,,,,,,,,0,128,128,128,,,,,,,,,,,,,,,,,main,None,None,1,1.4986638000700623,493.6734331001062,None,None,1,,,,,,,,,,,,,,011,2022-05-11_13h59.28.392,Main,2022.1.1,61.20194498725742,
negative,yellow,1,k,None,,,,,,,,,0,129,129,129,,,,,,,,,,,,,,,,,main,None,None,1,1.4990107000339776,496.17326890002005,None,None,1,,,,,,,,,,,,,,011,2022-05-11_13h59.28.392,Main,2022.1.1,61.20194498725742,
positive,blue,1,k,None,,,,,,,,,0,130,130,130,,,,,,,,,,,,,,,,,main,None,None,1,1.4991319999098778,498.67559540015645,None,None,1,,,,,,,,,,,,,,011,2022-05-11_13h59.28.392,Main,2022.1.1,61.20194498725742,
negative,blue,1,None,k,,,,,,,,,0,131,131,131,,,,,,,,,,,,,,,,,main,k,k,1,0.6487412999849766,501.17352970014326,None,None,0,,,,,,,,,,,,,,011,2022-05-11_13h59.28.392,Main,2022.1.1,61.20194498725742,
negative,blue,2,None,k,,,,,,,,,0,132,132,132,,,,,,,,,,,,,,,,,main,k,k,1,0.9486933001317084,502.8253967000637,None,None,0,,,,,,,,,,,,,,011,2022-05-11_13h59.28.392,Main,2022.1.1,61.20194498725742,
positive,blue,2,k,None,,,,,,,,,0,133,133,133,,,,,,,,,,,,,,,,,main,None,None,1,1.4985738000832498,504.7732158000581,None,None,1,,,,,,,,,,,,,,011,2022-05-11_13h59.28.392,Main,2022.1.1,61.20194498725742,
positive,red,2,None,None,,,,,,,,,0,134,134,134,,,,,,,,,,,,,,,,,main,None,None,1,1.4986837999895215,507.273051999975,None,None,1,,,,,,,,,,,,,,011,2022-05-11_13h59.28.392,Main,2022.1.1,61.20194498725742,
negative,yellow,2,k,None,,,,,,,,,0,135,135,135,,,,,,,,,,,,,,,,,main,None,None,1,1.5015672999434173,509.7727553001605,None,None,1,,,,,,,,,,,,,,011,2022-05-11_13h59.28.392,Main,2022.1.1,61.20194498725742,
positive,yellow,2,None,k,,,,,,,,,0,136,136,136,,,,,,,,,,,,,,,,,main,k,k,1,0.9980593000072986,512.2754210000858,None,None,0,,,,,,,,,,,,,,011,2022-05-11_13h59.28.392,Main,2022.1.1,61.20194498725742,
positive,blue,1,k,None,,,,,,,,,0,137,137,137,,,,,,,,,,,,,,,,,main,None,None,1,1.4986703998874873,514.2728572001215,None,None,1,,,,,,,,,,,,,,011,2022-05-11_13h59.28.392,Main,2022.1.1,61.20194498725742,
positive,yellow,1,None,k,,,,,,,,,0,138,138,138,,,,,,,,,,,,,,,,,main,k,k,1,0.8146347000729293,516.7728657000698,None,None,0,,,,,,,,,,,,,,011,2022-05-11_13h59.28.392,Main,2022.1.1,61.20194498725742,
positive,yellow,1,None,k,,,,,,,,,0,139,139,139,,,,,,,,,,,,,,,,,main,k,k,1,0.832454500021413,518.589485200122,None,None,0,,,,,,,,,,,,,,011,2022-05-11_13h59.28.392,Main,2022.1.1,61.20194498725742,
positive,yellow,1,None,k,,,,,,,,,0,140,140,140,,,,,,,,,,,,,,,,,main,k,k,1,0.7150098001584411,520.4227289999835,None,None,0,,,,,,,,,,,,,,011,2022-05-11_13h59.28.392,Main,2022.1.1,61.20194498725742,
positive,blue,1,k,None,,,,,,,,,0,141,141,141,,,,,,,,,,,,,,,,,main,None,None,1,1.499775999924168,522.1390774000902,None,None,1,,,,,,,,,,,,,,011,2022-05-11_13h59.28.392,Main,2022.1.1,61.20194498725742,
positive,blue,2,k,None,,,,,,,,,0,142,142,142,,,,,,,,,,,,,,,,,main,None,None,1,1.5009775999933481,524.6418894000817,None,None,1,,,,,,,,,,,,,,011,2022-05-11_13h59.28.392,Main,2022.1.1,61.20194498725742,
positive,yellow,2,None,k,,,,,,,,,0,143,143,143,,,,,,,,,,,,,,,,,main,k,k,1,0.7131960999686271,527.141791400034,None,None,0,,,,,,,,,,,,,,011,2022-05-11_13h59.28.392,Main,2022.1.1,61.20194498725742,
negative,yellow,2,k,None,,,,,,,,,0,144,144,144,,,,,,,,,,,,,,,,,main,None,None,1,1.4998252999503165,528.8555837001186,None,None,1,,,,,,,,,,,,,,011,2022-05-11_13h59.28.392,Main,2022.1.1,61.20194498725742,
negative,blue,2,None,k,,,,,,,,,0,145,145,145,,,,,,,,,,,,,,,,,main,k,k,1,0.6818661999423057,531.3556151001249,None,None,0,,,,,,,,,,,,,,011,2022-05-11_13h59.28.392,Main,2022.1.1,61.20194498725742,
negative,red,1,None,None,,,,,,,,,0,146,146,146,,,,,,,,,,,,,,,,,main,None,None,1,1.5011003999970853,533.039231200004,None,None,1,,,,,,,,,,,,,,011,2022-05-11_13h59.28.392,Main,2022.1.1,61.20194498725742,
positive,blue,1,k,None,,,,,,,,,0,147,147,147,,,,,,,,,,,,,,,,,main,None,None,1,1.497492800001055,535.5415815000888,None,None,1,,,,,,,,,,,,,,011,2022-05-11_13h59.28.392,Main,2022.1.1,61.20194498725742,
positive,yellow,1,None,k,,,,,,,,,0,148,148,148,,,,,,,,,,,,,,,,,main,k,k,1,0.731703600147739,538.0390704001766,None,None,0,,,,,,,,,,,,,,011,2022-05-11_13h59.28.392,Main,2022.1.1,61.20194498725742,
negative,red,2,None,None,,,,,,,,,0,149,149,149,,,,,,,,,,,,,,,,,main,None,None,1,1.5011102000717074,539.7722871000879,None,None,1,,,,,,,,,,,,,,011,2022-05-11_13h59.28.392,Main,2022.1.1,61.20194498725742,
negative,blue,1,None,k,,,,,,,,,0,150,150,150,,,,,,,,,,,,,,,,,main,k,k,1,0.7804654000792652,542.2722732000984,None,None,0,,,,,,,,,,,,,,011,2022-05-11_13h59.28.392,Main,2022.1.1,61.20194498725742,
negative,yellow,2,k,None,,,,,,,,,0,151,151,151,,,,,,,,,,,,,,,,,main,None,None,1,1.4983955000061542,544.0555214001797,None,None,1,,,,,,,,,,,,,,011,2022-05-11_13h59.28.392,Main,2022.1.1,61.20194498725742,
negative,blue,2,None,k,,,,,,,,,0,152,152,152,,,,,,,,,,,,,,,,,main,k,k,1,0.9388244999572635,546.5555082000792,None,None,0,,,,,,,,,,,,,,011,2022-05-11_13h59.28.392,Main,2022.1.1,61.20194498725742,
negative,yellow,1,k,None,,,,,,,,,0,153,153,153,,,,,,,,,,,,,,,,,main,None,None,1,1.4929253000300378,548.495908100158,None,None,1,,,,,,,,,,,,,,011,2022-05-11_13h59.28.392,Main,2022.1.1,61.20194498725742,
negative,blue,1,None,k,,,,,,,,,0,154,154,154,,,,,,,,,,,,,,,,,main,k,k,1,0.6993572001811117,550.9887165999971,None,None,0,,,,,,,,,,,,,,011,2022-05-11_13h59.28.392,Main,2022.1.1,61.20194498725742,
positive,yellow,2,None,k,,,,,,,,,0,155,155,155,,,,,,,,,,,,,,,,,main,k,k,1,0.5487275999039412,552.6888081000652,None,None,0,,,,,,,,,,,,,,011,2022-05-11_13h59.28.392,Main,2022.1.1,61.20194498725742,
positive,red,2,None,None,,,,,,,,,0,156,156,156,,,,,,,,,,,,,,,,,main,None,None,1,1.5015585999935865,554.2383867001627,None,None,1,,,,,,,,,,,,,,011,2022-05-11_13h59.28.392,Main,2022.1.1,61.20194498725742,
positive,red,1,None,None,,,,,,,,,0,157,157,157,,,,,,,,,,,,,,,,,main,None,None,1,1.4991852999664843,556.7411203000229,None,None,1,,,,,,,,,,,,,,011,2022-05-11_13h59.28.392,Main,2022.1.1,61.20194498725742,
positive,blue,2,k,None,,,,,,,,,0,158,158,158,,,,,,,,,,,,,,,,,main,None,None,1,1.4973122999072075,559.2410721001215,None,None,1,,,,,,,,,,,,,,011,2022-05-11_13h59.28.392,Main,2022.1.1,61.20194498725742,
negative,yellow,1,k,None,,,,,,,,,0,159,159,159,,,,,,,,,,,,,,,,,main,None,None,1,1.5005093000363559,561.738275700016,None,None,1,,,,,,,,,,,,,,011,2022-05-11_13h59.28.392,Main,2022.1.1,61.20194498725742,
negative,red,2,None,None,,,,,,,,,0,160,160,160,,,,,,,,,,,,,,,,,main,None,None,1,1.502058600075543,564.238544800086,None,None,1,,,,,,,,,,,,,,011,2022-05-11_13h59.28.392,Main,2022.1.1,61.20194498725742,
negative,blue,1,None,k,,,,,,,,,0,161,161,161,,,,,,,,,,,,,,,,,main,k,k,1,0.6616243000607938,566.742158900015,None,None,0,,,,,,,,,,,,,,011,2022-05-11_13h59.28.392,Main,2022.1.1,61.20194498725742,
negative,blue,1,None,k,,,,,,,,,0,162,162,162,,,,,,,,,,,,,,,,,main,k,k,1,0.6647320000920445,568.4051062001381,None,None,0,,,,,,,,,,,,,,011,2022-05-11_13h59.28.392,Main,2022.1.1,61.20194498725742,
negative,yellow,1,k,None,,,,,,,,,0,163,163,163,,,,,,,,,,,,,,,,,main,None,None,1,1.4988615000620484,570.071585000027,None,None,1,,,,,,,,,,,,,,011,2022-05-11_13h59.28.392,Main,2022.1.1,61.20194498725742,
negative,yellow,1,k,None,,,,,,,,,0,164,164,164,,,,,,,,,,,,,,,,,main,None,None,1,1.4990036999806762,572.5715849001426,None,None,1,,,,,,,,,,,,,,011,2022-05-11_13h59.28.392,Main,2022.1.1,61.20194498725742,
positive,yellow,1,None,k,,,,,,,,,0,165,165,165,,,,,,,,,,,,,,,,,main,k,k,1,0.5661325000692159,575.0715288000647,None,None,0,,,,,,,,,,,,,,011,2022-05-11_13h59.28.392,Main,2022.1.1,61.20194498725742,
negative,red,1,None,None,,,,,,,,,0,166,166,166,,,,,,,,,,,,,,,,,main,None,None,1,1.4987985000479966,576.6381543001626,None,None,1,,,,,,,,,,,,,,011,2022-05-11_13h59.28.392,Main,2022.1.1,61.20194498725742,
negative,yellow,2,k,None,,,,,,,,,0,167,167,167,,,,,,,,,,,,,,,,,main,None,None,1,1.4990007998421788,579.1405881999526,None,None,1,,,,,,,,,,,,,,011,2022-05-11_13h59.28.392,Main,2022.1.1,61.20194498725742,
positive,blue,2,k,None,,,,,,,,,0,168,168,168,,,,,,,,,,,,,,,,,main,None,None,1,1.5016478998586535,581.6377986001316,None,None,1,,,,,,,,,,,,,,011,2022-05-11_13h59.28.392,Main,2022.1.1,61.20194498725742,
positive,red,2,None,None,,,,,,,,,0,169,169,169,,,,,,,,,,,,,,,,,main,None,None,1,1.4968713000416756,584.140492200153,None,None,1,,,,,,,,,,,,,,011,2022-05-11_13h59.28.392,Main,2022.1.1,61.20194498725742,
positive,red,1,None,None,,,,,,,,,0,170,170,170,,,,,,,,,,,,,,,,,main,None,None,1,1.498369300039485,586.6404420000035,None,None,1,,,,,,,,,,,,,,011,2022-05-11_13h59.28.392,Main,2022.1.1,61.20194498725742,
negative,blue,2,None,k,,,,,,,,,0,171,171,171,,,,,,,,,,,,,,,,,main,k,k,1,0.8161333999596536,589.1378650001716,None,None,0,,,,,,,,,,,,,,011,2022-05-11_13h59.28.392,Main,2022.1.1,61.20194498725742,
positive,blue,2,k,None,,,,,,,,,0,172,172,172,,,,,,,,,,,,,,,,,main,None,None,1,1.4987629000097513,590.9545228001662,None,None,1,,,,,,,,,,,,,,011,2022-05-11_13h59.28.392,Main,2022.1.1,61.20194498725742,
negative,yellow,2,k,None,,,,,,,,,0,173,173,173,,,,,,,,,,,,,,,,,main,None,None,1,1.499193400144577,593.4544183001854,None,None,1,,,,,,,,,,,,,,011,2022-05-11_13h59.28.392,Main,2022.1.1,61.20194498725742,
positive,yellow,2,None,k,,,,,,,,,0,174,174,174,,,,,,,,,,,,,,,,,main,k,k,1,0.7851933999918401,595.9544095001183,None,None,0,,,,,,,,,,,,,,011,2022-05-11_13h59.28.392,Main,2022.1.1,61.20194498725742,
negative,blue,2,None,k,,,,,,,,,0,175,175,175,,,,,,,,,,,,,,,,,main,k,k,1,0.8965949998237193,597.7377611000556,None,None,0,,,,,,,,,,,,,,011,2022-05-11_13h59.28.392,Main,2022.1.1,61.20194498725742,
positive,blue,1,k,None,,,,,,,,,0,176,176,176,,,,,,,,,,,,,,,,,main,None,None,1,1.5020087000448257,599.6376214001793,None,None,1,,,,,,,,,,,,,,011,2022-05-11_13h59.28.392,Main,2022.1.1,61.20194498725742,
positive,yellow,1,None,k,,,,,,,,,0,177,177,177,,,,,,,,,,,,,,,,,main,k,k,1,0.7292601000517607,602.137611299986,None,None,0,,,,,,,,,,,,,,011,2022-05-11_13h59.28.392,Main,2022.1.1,61.20194498725742,
positive,blue,1,k,None,,,,,,,,,0,178,178,178,,,,,,,,,,,,,,,,,main,None,None,1,1.4994022001046687,603.8709414000623,None,None,1,,,,,,,,,,,,,,011,2022-05-11_13h59.28.392,Main,2022.1.1,61.20194498725742,
positive,yellow,2,None,k,,,,,,,,,0,179,179,179,,,,,,,,,,,,,,,,,main,k,k,1,1.06744599994272,606.3708546000998,None,None,0,,,,,,,,,,,,,,011,2022-05-11_13h59.28.392,Main,2022.1.1,61.20194498725742,
positive,blue,1,k,None,,,,,,,,,0,180,180,180,,,,,,,,,,,,,,,,,main,None,None,1,1.4968467999715358,608.440035100095,None,None,1,,,,,,,,,,,,,,011,2022-05-11_13h59.28.392,Main,2022.1.1,61.20194498725742,
negative,red,1,None,None,,,,,,,,,0,181,181,181,,,,,,,,,,,,,,,,,main,None,None,1,1.5011543999426067,610.9374176000711,None,None,1,,,,,,,,,,,,,,011,2022-05-11_13h59.28.392,Main,2022.1.1,61.20194498725742,
negative,blue,1,None,k,,,,,,,,,0,182,182,182,,,,,,,,,,,,,,,,,main,k,k,1,2.668876600218937,613.4373394001741,None,None,0,,,,,,,,,,,,,,011,2022-05-11_13h59.28.392,Main,2022.1.1,61.20194498725742,
negative,yellow,2,k,None,,,,,,,,,0,183,183,183,,,,,,,,,,,,,,,,,main,None,None,1,1.5010032998397946,618.1204286001157,None,None,1,,,,,,,,,,,,,,011,2022-05-11_13h59.28.392,Main,2022.1.1,61.20194498725742,
positive,yellow,2,None,k,,,,,,,,,0,184,184,184,,,,,,,,,,,,,,,,,main,k,k,1,0.9490406999830157,620.6206431000028,None,None,0,,,,,,,,,,,,,,011,2022-05-11_13h59.28.392,Main,2022.1.1,61.20194498725742,
positive,yellow,1,None,k,,,,,,,,,0,185,185,185,,,,,,,,,,,,,,,,,main,k,k,1,2.9990550999064,622.5730199001264,None,None,0,,,,,,,,,,,,,,011,2022-05-11_13h59.28.392,Main,2022.1.1,61.20194498725742,
positive,red,2,None,None,,,,,,,,,0,186,186,186,,,,,,,,,,,,,,,,,main,None,None,1,1.5006471001543105,627.5704143000767,None,None,1,,,,,,,,,,,,,,011,2022-05-11_13h59.28.392,Main,2022.1.1,61.20194498725742,
positive,blue,1,k,None,,,,,,,,,0,187,187,187,,,,,,,,,,,,,,,,,main,None,None,1,1.499584399862215,630.0703655001707,None,None,1,,,,,,,,,,,,,,011,2022-05-11_13h59.28.392,Main,2022.1.1,61.20194498725742,
negative,yellow,1,k,None,,,,,,,,,0,188,188,188,,,,,,,,,,,,,,,,,main,None,None,1,1.4974579999689013,632.5702667001169,None,None,1,,,,,,,,,,,,,,011,2022-05-11_13h59.28.392,Main,2022.1.1,61.20194498725742,
positive,yellow,2,None,k,,,,,,,,,0,189,189,189,,,,,,,,,,,,,,,,,main,k,k,1,0.7993884000461549,635.0702521000057,None,None,0,,,,,,,,,,,,,,011,2022-05-11_13h59.28.392,Main,2022.1.1,61.20194498725742,
negative,yellow,2,k,None,,,,,,,,,0,190,190,190,,,,,,,,,,,,,,,,,main,None,None,1,1.4994697000365704,636.8701282001566,None,None,1,,,,,,,,,,,,,,011,2022-05-11_13h59.28.392,Main,2022.1.1,61.20194498725742,
negative,yellow,1,k,None,,,,,,,,,0,191,191,191,,,,,,,,,,,,,,,,,main,None,None,1,1.5033200001344085,639.3704129001126,None,None,1,,,,,,,,,,,,,,011,2022-05-11_13h59.28.392,Main,2022.1.1,61.20194498725742,
positive,blue,2,k,None,,,,,,,,,0,192,192,192,,,,,,,,,,,,,,,,,main,None,None,1,1.4936708000022918,641.8742072000168,None,None,1,,,,,,,,,,,,,,011,2022-05-11_13h59.28.392,Main,2022.1.1,61.20194498725742,
positive,yellow,1,None,k,,,,,,,,,0,193,193,193,,,,,,,,,,,,,,,,,main,k,k,1,0.8321234998293221,644.3703153000679,None,None,0,,,,,,,,,,,,,,011,2022-05-11_13h59.28.392,Main,2022.1.1,61.20194498725742,
negative,red,2,None,None,,,,,,,,,0,194,194,194,,,,,,,,,,,,,,,,,main,None,None,1,1.4987589998636395,646.2033451001626,None,None,1,,,,,,,,,,,,,,011,2022-05-11_13h59.28.392,Main,2022.1.1,61.20194498725742,
positive,red,1,None,None,,,,,,,,,0,195,195,195,,,,,,,,,,,,,,,,,main,None,None,1,1.5015929001383483,648.7032286999747,None,None,1,,,,,,,,,,,,,,011,2022-05-11_13h59.28.392,Main,2022.1.1,61.20194498725742,
negative,blue,1,None,k,,,,,,,,,0,196,196,196,,,,,,,,,,,,,,,,,main,k,k,1,0.6966597998980433,651.2032071000431,None,None,0,,,,,,,,,,,,,,011,2022-05-11_13h59.28.392,Main,2022.1.1,61.20194498725742,
positive,blue,2,k,None,,,,,,,,,0,197,197,197,,,,,,,,,,,,,,,,,main,None,None,1,1.499440000159666,652.9090446999762,None,None,1,,,,,,,,,,,,,,011,2022-05-11_13h59.28.392,Main,2022.1.1,61.20194498725742,
negative,blue,2,None,k,,,,,,,,,0,198,198,198,,,,,,,,,,,,,,,,,main,k,k,1,1.2325130999088287,655.4032076001167,None,None,0,,,,,,,,,,,,,,011,2022-05-11_13h59.28.392,Main,2022.1.1,61.20194498725742,
negative,blue,2,None,k,,,,,,,,,0,199,199,199,,,,,,,,,,,,,,,,,main,k,k,1,0.582733399933204,657.6364513000008,None,None,0,,,,,,,,,,,,,,011,2022-05-11_13h59.28.392,Main,2022.1.1,61.20194498725742,
positive,blue,2,k,None,,,,,,,,,0,200,200,200,,,,,,,,,,,,,,,,,main,None,None,1,0.900726999854669,659.2199411001056,None,None,1,,,,,,,,,,,,,,011,2022-05-11_13h59.28.392,Main,2022.1.1,61.20194498725742,
positive,blue,2,k,None,,,,,,,,,0,201,201,201,,,,,,,,,,,,,,,,,main,None,k,0,1.4968606000766158,661.1196471001022,None,None,1,,,,,,,,,,,,,,011,2022-05-11_13h59.28.392,Main,2022.1.1,61.20194498725742,
negative,yellow,2,k,None,,,,,,,,,0,202,202,202,,,,,,,,,,,,,,,,,main,None,None,1,1.486811200156808,664.6192836000118,None,None,1,,,,,,,,,,,,,,011,2022-05-11_13h59.28.392,Main,2022.1.1,61.20194498725742,
positive,red,1,None,None,,,,,,,,,0,203,203,203,,,,,,,,,,,,,,,,,main,None,None,1,1.4988269000314176,667.1029680999927,None,None,1,,,,,,,,,,,,,,011,2022-05-11_13h59.28.392,Main,2022.1.1,61.20194498725742,
negative,blue,2,None,k,,,,,,,,,0,204,204,204,,,,,,,,,,,,,,,,,main,k,k,1,0.7295850999653339,669.6053417001385,None,None,0,,,,,,,,,,,,,,011,2022-05-11_13h59.28.392,Main,2022.1.1,61.20194498725742,
negative,red,1,None,None,,,,,,,,,0,205,205,205,,,,,,,,,,,,,,,,,main,None,None,1,1.4992443998344243,671.3361202001106,None,None,1,,,,,,,,,,,,,,011,2022-05-11_13h59.28.392,Main,2022.1.1,61.20194498725742,
negative,blue,2,None,k,,,,,,,,,0,206,206,206,,,,,,,,,,,,,,,,,main,k,k,1,0.9825743001420051,673.835787900025,None,None,0,,,,,,,,,,,,,,011,2022-05-11_13h59.28.392,Main,2022.1.1,61.20194498725742,
negative,yellow,2,k,None,,,,,,,,,0,207,207,207,,,,,,,,,,,,,,,,,main,None,None,1,1.499056400032714,675.8218086000998,None,None,1,,,,,,,,,,,,,,011,2022-05-11_13h59.28.392,Main,2022.1.1,61.20194498725742,
positive,yellow,2,None,k,,,,,,,,,0,208,208,208,,,,,,,,,,,,,,,,,main,k,k,1,0.6316565000452101,678.319685800001,None,None,0,,,,,,,,,,,,,,011,2022-05-11_13h59.28.392,Main,2022.1.1,61.20194498725742,
negative,yellow,1,k,None,,,,,,,,,0,209,209,209,,,,,,,,,,,,,,,,,main,None,None,1,1.4993203000631183,679.9525790000334,None,None,1,,,,,,,,,,,,,,011,2022-05-11_13h59.28.392,Main,2022.1.1,61.20194498725742,
negative,red,2,None,None,,,,,,,,,0,210,210,210,,,,,,,,,,,,,,,,,main,None,None,1,1.5008247001096606,682.4522696000058,None,None,1,,,,,,,,,,,,,,011,2022-05-11_13h59.28.392,Main,2022.1.1,61.20194498725742,
negative,blue,1,None,k,,,,,,,,,0,211,211,211,,,,,,,,,,,,,,,,,main,k,k,1,0.6827982999384403,684.9550175999757,None,None,0,,,,,,,,,,,,,,011,2022-05-11_13h59.28.392,Main,2022.1.1,61.20194498725742,
negative,yellow,1,k,None,,,,,,,,,0,212,212,212,,,,,,,,,,,,,,,,,main,None,None,1,1.496329199988395,686.6382810999639,None,None,1,,,,,,,,,,,,,,011,2022-05-11_13h59.28.392,Main,2022.1.1,61.20194498725742,
positive,blue,1,k,None,,,,,,,,,0,213,213,213,,,,,,,,,,,,,,,,,main,None,None,1,1.4988073001150042,689.1357303000987,None,None,1,,,,,,,,,,,,,,011,2022-05-11_13h59.28.392,Main,2022.1.1,61.20194498725742,
positive,blue,1,k,None,,,,,,,,,0,214,214,214,,,,,,,,,,,,,,,,,main,None,None,1,1.5018719001673162,691.6353949001059,None,None,1,,,,,,,,,,,,,,011,2022-05-11_13h59.28.392,Main,2022.1.1,61.20194498725742,
positive,yellow,1,None,k,,,,,,,,,0,215,215,215,,,,,,,,,,,,,,,,,main,k,k,1,1.0537006000522524,694.1357158001047,None,None,0,,,,,,,,,,,,,,011,2022-05-11_13h59.28.392,Main,2022.1.1,61.20194498725742,
positive,yellow,1,None,k,,,,,,,,,0,216,216,216,,,,,,,,,,,,,,,,,main,k,k,1,0.6254914999008179,696.1976594000589,None,None,0,,,,,,,,,,,,,,011,2022-05-11_13h59.28.392,Main,2022.1.1,61.20194498725742,
positive,yellow,2,None,k,,,,,,,,,0,217,217,217,,,,,,,,,,,,,,,,,main,k,k,1,0.6318388998042792,697.8189116001595,None,None,0,,,,,,,,,,,,,,011,2022-05-11_13h59.28.392,Main,2022.1.1,61.20194498725742,
negative,blue,1,None,k,,,,,,,,,0,218,218,218,,,,,,,,,,,,,,,,,main,k,k,1,0.6006642000284046,699.4518824999686,None,None,0,,,,,,,,,,,,,,011,2022-05-11_13h59.28.392,Main,2022.1.1,61.20194498725742,
positive,red,2,None,None,,,,,,,,,0,219,219,219,,,,,,,,,,,,,,,,,main,None,None,1,1.499685199931264,701.0519463000819,None,None,1,,,,,,,,,,,,,,011,2022-05-11_13h59.28.392,Main,2022.1.1,61.20194498725742,
positive,yellow,1,None,k,,,,,,,,,0,220,220,220,,,,,,,,,,,,,,,,,main,k,k,1,0.6637486999388784,703.5545958001167,None,None,0,,,,,,,,,,,,,,011,2022-05-11_13h59.28.392,Main,2022.1.1,61.20194498725742,
positive,blue,1,k,None,,,,,,,,,0,221,221,221,,,,,,,,,,,,,,,,,main,None,None,1,1.4998435999732465,705.2187090001535,None,None,1,,,,,,,,,,,,,,011,2022-05-11_13h59.28.392,Main,2022.1.1,61.20194498725742,
positive,yellow,2,None,k,,,,,,,,,0,222,222,222,,,,,,,,,,,,,,,,,main,k,k,1,0.6979312999173999,707.7186451000161,None,None,0,,,,,,,,,,,,,,011,2022-05-11_13h59.28.392,Main,2022.1.1,61.20194498725742,
negative,yellow,1,k,None,,,,,,,,,0,223,223,223,,,,,,,,,,,,,,,,,main,None,None,1,1.5000049001537263,709.4187050999608,None,None,1,,,,,,,,,,,,,,011,2022-05-11_13h59.28.392,Main,2022.1.1,61.20194498725742,
positive,yellow,2,None,k,,,,,,,,,0,224,224,224,,,,,,,,,,,,,,,,,main,k,k,1,0.8621624999213964,711.9278339999728,None,None,0,,,,,,,,,,,,,,011,2022-05-11_13h59.28.392,Main,2022.1.1,61.20194498725742,
negative,yellow,2,k,None,,,,,,,,,0,225,225,225,,,,,,,,,,,,,,,,,main,None,None,1,1.5003662998788059,713.784924400039,None,None,1,,,,,,,,,,,,,,011,2022-05-11_13h59.28.392,Main,2022.1.1,61.20194498725742,
negative,blue,2,None,k,,,,,,,,,0,226,226,226,,,,,,,,,,,,,,,,,main,k,k,1,0.5129637999925762,716.2852527999785,None,None,0,,,,,,,,,,,,,,011,2022-05-11_13h59.28.392,Main,2022.1.1,61.20194498725742,
positive,red,2,None,None,,,,,,,,,0,227,227,227,,,,,,,,,,,,,,,,,main,None,None,1,1.4994389000348747,717.8042874000967,None,None,1,,,,,,,,,,,,,,011,2022-05-11_13h59.28.392,Main,2022.1.1,61.20194498725742,
positive,blue,2,k,None,,,,,,,,,0,228,228,228,,,,,,,,,,,,,,,,,main,None,None,1,1.5005768998526037,720.3015062001068,None,None,1,,,,,,,,,,,,,,011,2022-05-11_13h59.28.392,Main,2022.1.1,61.20194498725742,
negative,blue,1,None,k,,,,,,,,,0,229,229,229,,,,,,,,,,,,,,,,,main,k,k,1,0.597251099999994,722.80175470002,None,None,0,,,,,,,,,,,,,,011,2022-05-11_13h59.28.392,Main,2022.1.1,61.20194498725742,
positive,yellow,1,None,k,,,,,,,,,0,230,230,230,,,,,,,,,,,,,,,,,main,k,k,1,0.48227020003832877,724.4016384000424,None,None,0,,,,,,,,,,,,,,011,2022-05-11_13h59.28.392,Main,2022.1.1,61.20194498725742,
negative,blue,2,None,k,,,,,,,,,0,231,231,231,,,,,,,,,,,,,,,,,main,k,k,1,0.49893940007314086,725.8849540001247,None,None,0,,,,,,,,,,,,,,011,2022-05-11_13h59.28.392,Main,2022.1.1,61.20194498725742,
negative,red,1,None,None,,,,,,,,,0,232,232,232,,,,,,,,,,,,,,,,,main,None,None,1,1.5013226999435574,727.3846183000132,None,None,1,,,,,,,,,,,,,,011,2022-05-11_13h59.28.392,Main,2022.1.1,61.20194498725742,
positive,blue,2,k,None,,,,,,,,,0,233,233,233,,,,,,,,,,,,,,,,,main,None,None,1,1.4969762000255287,729.8873324000742,None,None,1,,,,,,,,,,,,,,011,2022-05-11_13h59.28.392,Main,2022.1.1,61.20194498725742,
negative,yellow,1,k,None,,,,,,,,,0,234,234,234,,,,,,,,,,,,,,,,,main,None,None,1,1.5028496000450104,732.3847708001267,None,None,1,,,,,,,,,,,,,,011,2022-05-11_13h59.28.392,Main,2022.1.1,61.20194498725742,
negative,yellow,2,k,None,,,,,,,,,0,235,235,235,,,,,,,,,,,,,,,,,main,None,None,1,1.4945074000861496,734.8869948000647,None,None,1,,,,,,,,,,,,,,011,2022-05-11_13h59.28.392,Main,2022.1.1,61.20194498725742,
positive,red,1,None,None,,,,,,,,,0,236,236,236,,,,,,,,,,,,,,,,,main,None,None,1,1.4996897999662906,737.3846669001505,None,None,1,,,,,,,,,,,,,,011,2022-05-11_13h59.28.392,Main,2022.1.1,61.20194498725742,
negative,red,2,None,None,,,,,,,,,0,237,237,237,,,,,,,,,,,,,,,,,main,None,None,1,1.4992523998953402,739.8846611999907,None,None,1,,,,,,,,,,,,,,011,2022-05-11_13h59.28.392,Main,2022.1.1,61.20194498725742,
negative,blue,1,None,k,,,,,,,,,0,238,238,238,,,,,,,,,,,,,,,,,main,k,k,1,0.7985475000459701,742.3843181000557,None,None,0,,,,,,,,,,,,,,011,2022-05-11_13h59.28.392,Main,2022.1.1,61.20194498725742,
positive,blue,1,k,None,,,,,,,,,0,239,239,239,,,,,,,,,,,,,,,,,main,None,None,1,1.499250799883157,744.1870960001834,None,None,1,,,,,,,,,,,,,,011,2022-05-11_13h59.28.392,Main,2022.1.1,61.20194498725742,
,,,,,,,,,,,,,,,,,,,,,,,,,,,,,,,,,,,,,,,,,,,,,,,,,,,,,746.6844935000408,None,,,,,,
