distractor,target,set,ans1,ans2,rep_loop4.thisRepN,rep_loop4.thisTrialN,rep_loop4.thisN,rep_loop4.thisIndex,st2_prac_loop.thisRepN,st2_prac_loop.thisTrialN,st2_prac_loop.thisN,st2_prac_loop.thisIndex,st2_main_loop.thisRepN,st2_main_loop.thisTrialN,st2_main_loop.thisN,st2_main_loop.thisIndex,image_4.started,image_4.stopped,sound_2.started,sound_2.stopped,key_resp_3.keys,key_resp_3.rt,image_5.started,image_5.stopped,st_prac_back.started,st_prac_back.stopped,st_prac_text.started,st_prac_text.stopped,st_fix_back.started,st_fix_back.stopped,st_fix_2.started,st_fix_2.stopped,main_prac,st_ans,st_res,st_corr,st_rt,st_back.started,st_back.stopped,st2_resp.keys,st2_resp.corr,st_main_back.started,st_main_back.stopped,st_main_text.started,st_main_text.stopped,mouse_4.x,mouse_4.y,mouse_4.leftButton,mouse_4.midButton,mouse_4.rightButton,mouse_4.started,mouse_4.stopped,text_2.started,text_2.stopped,id*,date,expName,psychopyVersion,frameRate,
negative,yellow,1,k,None,,,,,0,0,0,0,,,,,32.781261699972674,None,34.77504003015347,None,space,3.320668099913746,38.127375500043854,None,39.80828660004772,None,39.80828660004772,None,41.80830490007065,None,41.80830490007065,None,prac,k,k,1,6.891945000039414,43.80823790002614,None,None,0,,,,,,,,,,,,,,012,2022-05-11_15h53.01.774,Main,2022.1.1,59.782904364413525,
positive,red,2,None,None,,,,,0,1,1,1,,,,,,,,,,,,,,,,,,,,,prac,None,None,1,1.4981216001324356,52.70814760006033,None,None,1,,,,,,,,,,,,,,012,2022-05-11_15h53.01.774,Main,2022.1.1,59.782904364413525,
negative,blue,2,None,k,,,,,0,2,2,2,,,,,,,,,,,,,,,,,,,,,prac,None,None,1,1.501149300020188,55.20806879992597,None,None,1,,,,,,,,,,,,,,012,2022-05-11_15h53.01.774,Main,2022.1.1,59.782904364413525,
positive,yellow,1,None,k,,,,,0,3,3,3,,,,,,,,,,,,,,,,,,,,,prac,None,None,1,1.4975163999479264,57.70801039994694,None,None,1,,,,,,,,,,,,,,012,2022-05-11_15h53.01.774,Main,2022.1.1,59.782904364413525,
negative,blue,2,None,k,,,,,0,4,4,4,,,,,,,,,,,,,,,,,,,,,prac,None,None,1,1.4977865000255406,60.207902000052854,None,None,1,,,,,,,,,,,,,,012,2022-05-11_15h53.01.774,Main,2022.1.1,59.782904364413525,
negative,blue,1,None,k,,,,,0,5,5,5,,,,,,,,,,,,,,,,,,,,,prac,None,None,1,1.505040000192821,62.70790149993263,None,None,1,,,,,,,,,,,,,,012,2022-05-11_15h53.01.774,Main,2022.1.1,59.782904364413525,
negative,yellow,2,k,None,,,,,0,6,6,6,,,,,,,,,,,,,,,,,,,,,prac,k,k,1,1.0098498999141157,65.21187789994292,None,None,0,,,,,,,,,,,,,,012,2022-05-11_15h53.01.774,Main,2022.1.1,59.782904364413525,
negative,red,1,None,None,,,,,0,7,7,7,,,,,,,,,,,,,,,,,,,,,prac,None,None,1,1.5014430000446737,67.22427519992925,None,None,1,,,,,,,,,,,,,,012,2022-05-11_15h53.01.774,Main,2022.1.1,59.782904364413525,
positive,yellow,2,None,k,,,,,0,8,8,8,,,,,,,,,,,,,,,,,,,,,prac,None,None,1,1.4998312999960035,69.72690310003236,None,None,1,,,,,,,,,,,,,,012,2022-05-11_15h53.01.774,Main,2022.1.1,59.782904364413525,
negative,yellow,1,k,None,,,,,0,9,9,9,,,,,,,,,,,,,,,,,,,,,prac,k,k,1,18.612886799965054,72.22436110000126,None,None,0,,,,,,,,,,,,,,012,2022-05-11_15h53.01.774,Main,2022.1.1,59.782904364413525,
positive,yellow,2,None,k,,,,,0,10,10,10,,,,,,,,,,,,,,,,,,,,,prac,None,None,1,1.5005667998921126,92.84065370005555,None,None,1,,,,,,,,,,,,,,012,2022-05-11_15h53.01.774,Main,2022.1.1,59.782904364413525,
negative,yellow,2,k,None,,,,,0,11,11,11,,,,,,,,,,,,,,,,,,,,,prac,k,k,1,1.4988440999295563,95.34302109992132,None,None,0,,,,,,,,,,,,,,012,2022-05-11_15h53.01.774,Main,2022.1.1,59.782904364413525,
negative,red,2,None,None,,,,,0,12,12,12,,,,,,,,,,,,,,,,,,,,,prac,None,None,1,1.499060200061649,97.84052389999852,None,None,1,,,,,,,,,,,,,,012,2022-05-11_15h53.01.774,Main,2022.1.1,59.782904364413525,
positive,red,1,None,None,,,,,0,13,13,13,,,,,,,,,,,,,,,,,,,,,prac,None,None,1,1.499769400106743,100.3404484000057,None,None,1,,,,,,,,,,,,,,012,2022-05-11_15h53.01.774,Main,2022.1.1,59.782904364413525,
positive,blue,2,k,None,,,,,0,14,14,14,,,,,,,,,,,,,,,,,,,,,prac,k,k,1,0.7657433999702334,102.84010010003112,None,None,0,,,,,,,,,,,,,,012,2022-05-11_15h53.01.774,Main,2022.1.1,59.782904364413525,
positive,blue,1,k,None,,,,,0,15,15,15,,,,,,,,,,,,,,,,,,,,,prac,k,k,1,9.447829199954867,104.6067606001161,None,None,0,,,,,,,,,,,,,,012,2022-05-11_15h53.01.774,Main,2022.1.1,59.782904364413525,
negative,blue,1,None,k,,,,,0,16,16,16,,,,,,,,,,,,,,,,,,,,,prac,None,None,1,1.4992396999150515,116.0567783000879,None,None,1,,,,,,,,,,,,,,012,2022-05-11_15h53.01.774,Main,2022.1.1,59.782904364413525,
positive,blue,2,k,None,,,,,0,17,17,17,,,,,,,,,,,,,,,,,,,,,prac,k,k,1,1.11432099994272,118.55664640013129,None,None,0,,,,,,,,,,,,,,012,2022-05-11_15h53.01.774,Main,2022.1.1,59.782904364413525,
positive,blue,1,k,None,,,,,0,18,18,18,,,,,,,,,,,,,,,,,,,,,prac,k,k,1,5.015695799840614,120.6756711001508,None,None,0,,,,,,,,,,,,,,012,2022-05-11_15h53.01.774,Main,2022.1.1,59.782904364413525,
positive,yellow,1,None,k,,,,,0,19,19,19,,,,,,,,,,,,,,,,,,,,,prac,None,None,1,1.4989398000761867,127.68983489996754,None,None,1,,,,,,,,,,,,,,012,2022-05-11_15h53.01.774,Main,2022.1.1,59.782904364413525,
negative,yellow,1,k,None,,,,,1,0,20,0,,,,,,,,,,,,,,,,,,,,,prac,k,k,1,1.964547900017351,130.18948840000667,None,None,0,,,,,,,,,,,,,,012,2022-05-11_15h53.01.774,Main,2022.1.1,59.782904364413525,
positive,red,2,None,None,,,,,1,1,21,1,,,,,,,,,,,,,,,,,,,,,prac,None,None,1,1.498346600215882,134.15887650009245,None,None,1,,,,,,,,,,,,,,012,2022-05-11_15h53.01.774,Main,2022.1.1,59.782904364413525,
negative,blue,2,None,k,,,,,1,2,22,2,,,,,,,,,,,,,,,,,,,,,prac,None,None,1,1.5015332999173552,136.65608930005692,None,None,1,,,,,,,,,,,,,,012,2022-05-11_15h53.01.774,Main,2022.1.1,59.782904364413525,
positive,yellow,1,None,k,,,,,1,3,23,3,,,,,,,,,,,,,,,,,,,,,prac,None,None,1,1.4972167999949306,139.15877220011316,None,None,1,,,,,,,,,,,,,,012,2022-05-11_15h53.01.774,Main,2022.1.1,59.782904364413525,
negative,blue,2,None,k,,,,,1,4,24,4,,,,,,,,,,,,,,,,,,,,,prac,None,None,1,1.5005479000974447,141.6559238000773,None,None,1,,,,,,,,,,,,,,012,2022-05-11_15h53.01.774,Main,2022.1.1,59.782904364413525,
negative,blue,1,None,k,,,,,1,5,25,5,,,,,,,,,,,,,,,,,,,,,prac,None,None,1,1.4966257999185473,144.15861869999208,None,None,1,,,,,,,,,,,,,,012,2022-05-11_15h53.01.774,Main,2022.1.1,59.782904364413525,
negative,yellow,2,k,None,,,,,1,6,26,6,,,,,,,,,,,,,,,,,,,,,prac,k,k,1,1.2681471998803318,146.66163630015217,None,None,0,,,,,,,,,,,,,,012,2022-05-11_15h53.01.774,Main,2022.1.1,59.782904364413525,
negative,red,1,None,None,,,,,1,7,27,7,,,,,,,,,,,,,,,,,,,,,prac,None,None,1,1.4973387999925762,148.92275119991973,None,None,1,,,,,,,,,,,,,,012,2022-05-11_15h53.01.774,Main,2022.1.1,59.782904364413525,
positive,yellow,2,None,k,,,,,1,8,28,8,,,,,,,,,,,,,,,,,,,,,prac,None,None,1,1.500545000191778,151.42242159997113,None,None,1,,,,,,,,,,,,,,012,2022-05-11_15h53.01.774,Main,2022.1.1,59.782904364413525,
negative,yellow,1,k,None,,,,,1,9,29,9,,,,,,,,,,,,,,,,,,,,,prac,k,k,1,1.5973642999306321,153.92508780001663,None,None,0,,,,,,,,,,,,,,012,2022-05-11_15h53.01.774,Main,2022.1.1,59.782904364413525,
positive,yellow,2,None,k,,,,,1,10,30,10,,,,,,,,,,,,,,,,,,,,,prac,None,None,1,1.5041513999458402,157.5223161999602,None,None,1,,,,,,,,,,,,,,012,2022-05-11_15h53.01.774,Main,2022.1.1,59.782904364413525,
negative,yellow,2,k,None,,,,,1,11,31,11,,,,,,,,,,,,,,,,,,,,,prac,k,k,1,0.995776099851355,160.02491179993376,None,None,0,,,,,,,,,,,,,,012,2022-05-11_15h53.01.774,Main,2022.1.1,59.782904364413525,
negative,red,2,None,None,,,,,1,12,32,12,,,,,,,,,,,,,,,,,,,,,prac,None,None,1,1.4996682000346482,162.02240810007788,None,None,1,,,,,,,,,,,,,,012,2022-05-11_15h53.01.774,Main,2022.1.1,59.782904364413525,
positive,red,1,None,None,,,,,1,13,33,13,,,,,,,,,,,,,,,,,,,,,prac,None,None,1,1.5017078998498619,164.522298600059,None,None,1,,,,,,,,,,,,,,012,2022-05-11_15h53.01.774,Main,2022.1.1,59.782904364413525,
positive,blue,2,k,None,,,,,1,14,34,14,,,,,,,,,,,,,,,,,,,,,prac,k,k,1,0.6781192000489682,167.0223338000942,None,None,0,,,,,,,,,,,,,,012,2022-05-11_15h53.01.774,Main,2022.1.1,59.782904364413525,
positive,blue,1,k,None,,,,,1,15,35,15,,,,,,,,,,,,,,,,,,,,,prac,k,k,1,0.9159906001295894,168.7056295000948,None,None,0,,,,,,,,,,,,,,012,2022-05-11_15h53.01.774,Main,2022.1.1,59.782904364413525,
negative,blue,1,None,k,,,,,1,16,36,16,,,,,,,,,,,,,,,,,,,,,prac,None,None,1,1.4989930000156164,170.62218960002065,None,None,1,,,,,,,,,,,,,,012,2022-05-11_15h53.01.774,Main,2022.1.1,59.782904364413525,
positive,blue,2,k,None,,,,,1,17,37,17,,,,,,,,,,,,,,,,,,,,,prac,k,k,1,0.9704615001101047,173.12217590003274,None,None,0,,,,,,,,,,,,,,012,2022-05-11_15h53.01.774,Main,2022.1.1,59.782904364413525,
positive,blue,1,k,None,,,,,1,18,38,18,,,,,,,,,,,,,,,,,,,,,prac,k,k,1,0.9438450001180172,175.0911463999655,None,None,0,,,,,,,,,,,,,,012,2022-05-11_15h53.01.774,Main,2022.1.1,59.782904364413525,
positive,yellow,1,None,k,,,,,1,19,39,19,,,,,,,,,,,,,,,,,,,,,prac,None,None,1,1.501711499877274,177.03848810005002,None,None,1,,,,,,,,,,,,,,012,2022-05-11_15h53.01.774,Main,2022.1.1,59.782904364413525,
,,,,,,,,,,,,,,,,,,,,,,,,,,,,,,,,,,,,,,,,,,179.54123919992708,None,179.54123919992708,None,0.05740741,-0.012037037,0,0,0,0.014307230012491345,None,,,012,2022-05-11_15h53.01.774,Main,2022.1.1,59.782904364413525,
negative,yellow,2,k,None,,,,,,,,,0,0,0,0,,,,,,,,,,,,,187.37444410007447,None,187.37444410007447,None,main,k,k,1,1.2504225999582559,189.41029220004566,None,None,0,,,,,,,,,,,,,,012,2022-05-11_15h53.01.774,Main,2022.1.1,59.782904364413525,
positive,red,1,None,None,,,,,,,,,0,1,1,1,,,,,,,,,,,,,,,,,main,None,None,1,1.5011593999806792,191.67427280009724,None,None,1,,,,,,,,,,,,,,012,2022-05-11_15h53.01.774,Main,2022.1.1,59.782904364413525,
positive,blue,2,k,None,,,,,,,,,0,2,2,2,,,,,,,,,,,,,,,,,main,k,k,1,0.729726399993524,194.17417010013014,None,None,0,,,,,,,,,,,,,,012,2022-05-11_15h53.01.774,Main,2022.1.1,59.782904364413525,
positive,blue,1,k,None,,,,,,,,,0,3,3,3,,,,,,,,,,,,,,,,,main,k,k,1,0.7828213998582214,195.9047467999626,None,None,0,,,,,,,,,,,,,,012,2022-05-11_15h53.01.774,Main,2022.1.1,59.782904364413525,
negative,yellow,2,k,None,,,,,,,,,0,4,4,4,,,,,,,,,,,,,,,,,main,k,k,1,0.6991603998467326,197.68841010006145,None,None,0,,,,,,,,,,,,,,012,2022-05-11_15h53.01.774,Main,2022.1.1,59.782904364413525,
positive,yellow,2,None,k,,,,,,,,,0,5,5,5,,,,,,,,,,,,,,,,,main,None,None,1,1.501152299810201,199.3907687999308,None,None,1,,,,,,,,,,,,,,012,2022-05-11_15h53.01.774,Main,2022.1.1,59.782904364413525,
negative,blue,2,None,k,,,,,,,,,0,6,6,6,,,,,,,,,,,,,,,,,main,None,None,1,1.497125499881804,201.89055290003307,None,None,1,,,,,,,,,,,,,,012,2022-05-11_15h53.01.774,Main,2022.1.1,59.782904364413525,
positive,red,2,None,None,,,,,,,,,0,7,7,7,,,,,,,,,,,,,,,,,main,None,None,1,1.5007682000286877,204.387870100094,None,None,1,,,,,,,,,,,,,,012,2022-05-11_15h53.01.774,Main,2022.1.1,59.782904364413525,
positive,yellow,1,None,k,,,,,,,,,0,8,8,8,,,,,,,,,,,,,,,,,main,None,None,1,1.4974167000036687,206.89060009992681,None,None,1,,,,,,,,,,,,,,012,2022-05-11_15h53.01.774,Main,2022.1.1,59.782904364413525,
negative,red,1,None,None,,,,,,,,,0,9,9,9,,,,,,,,,,,,,,,,,main,None,None,1,1.4990044999867678,209.39051830000244,None,None,1,,,,,,,,,,,,,,012,2022-05-11_15h53.01.774,Main,2022.1.1,59.782904364413525,
positive,yellow,1,None,k,,,,,,,,,0,10,10,10,,,,,,,,,,,,,,,,,main,None,None,1,1.500565499998629,211.88770640012808,None,None,1,,,,,,,,,,,,,,012,2022-05-11_15h53.01.774,Main,2022.1.1,59.782904364413525,
negative,yellow,1,k,None,,,,,,,,,0,11,11,11,,,,,,,,,,,,,,,,,main,k,k,1,0.9490628999192268,214.3903787001036,None,None,0,,,,,,,,,,,,,,012,2022-05-11_15h53.01.774,Main,2022.1.1,59.782904364413525,
negative,yellow,1,k,None,,,,,,,,,0,12,12,12,,,,,,,,,,,,,,,,,main,k,k,1,0.8297882000915706,216.34034699993208,None,None,0,,,,,,,,,,,,,,012,2022-05-11_15h53.01.774,Main,2022.1.1,59.782904364413525,
negative,red,2,None,None,,,,,,,,,0,13,13,13,,,,,,,,,,,,,,,,,main,None,None,1,1.499193999916315,218.17673059995286,None,None,1,,,,,,,,,,,,,,012,2022-05-11_15h53.01.774,Main,2022.1.1,59.782904364413525,
positive,yellow,2,None,k,,,,,,,,,0,14,14,14,,,,,,,,,,,,,,,,,main,None,None,1,1.498899499885738,220.67108849994838,None,None,1,,,,,,,,,,,,,,012,2022-05-11_15h53.01.774,Main,2022.1.1,59.782904364413525,
positive,blue,1,k,None,,,,,,,,,0,15,15,15,,,,,,,,,,,,,,,,,main,k,k,1,0.7826213000807911,223.17111840005964,None,None,0,,,,,,,,,,,,,,012,2022-05-11_15h53.01.774,Main,2022.1.1,59.782904364413525,
negative,blue,1,None,k,,,,,,,,,0,16,16,16,,,,,,,,,,,,,,,,,main,None,None,1,1.4994016999844462,224.95677049993537,None,None,1,,,,,,,,,,,,,,012,2022-05-11_15h53.01.774,Main,2022.1.1,59.782904364413525,
positive,blue,2,k,None,,,,,,,,,0,17,17,17,,,,,,,,,,,,,,,,,main,k,k,1,0.9151801001280546,227.4540862001013,None,None,0,,,,,,,,,,,,,,012,2022-05-11_15h53.01.774,Main,2022.1.1,59.782904364413525,
negative,blue,2,None,k,,,,,,,,,0,18,18,18,,,,,,,,,,,,,,,,,main,None,None,1,1.50139439990744,229.3734236001037,None,None,1,,,,,,,,,,,,,,012,2022-05-11_15h53.01.774,Main,2022.1.1,59.782904364413525,
negative,blue,1,None,k,,,,,,,,,0,19,19,19,,,,,,,,,,,,,,,,,main,None,None,1,1.497224599821493,231.8734156000428,None,None,1,,,,,,,,,,,,,,012,2022-05-11_15h53.01.774,Main,2022.1.1,59.782904364413525,
negative,blue,1,None,k,,,,,,,,,0,20,20,20,,,,,,,,,,,,,,,,,main,None,None,1,1.5006814999505877,234.37057229992934,None,None,1,,,,,,,,,,,,,,012,2022-05-11_15h53.01.774,Main,2022.1.1,59.782904364413525,
negative,blue,2,None,k,,,,,,,,,0,21,21,21,,,,,,,,,,,,,,,,,main,None,None,1,1.4991709999740124,236.87328519998118,None,None,1,,,,,,,,,,,,,,012,2022-05-11_15h53.01.774,Main,2022.1.1,59.782904364413525,
negative,red,1,None,None,,,,,,,,,0,22,22,22,,,,,,,,,,,,,,,,,main,None,None,1,1.4970068999100477,239.37326280004345,None,None,1,,,,,,,,,,,,,,012,2022-05-11_15h53.01.774,Main,2022.1.1,59.782904364413525,
positive,red,2,None,None,,,,,,,,,0,23,23,23,,,,,,,,,,,,,,,,,main,None,None,1,1.500873199896887,241.87046490004286,None,None,1,,,,,,,,,,,,,,012,2022-05-11_15h53.01.774,Main,2022.1.1,59.782904364413525,
negative,red,2,None,None,,,,,,,,,0,24,24,24,,,,,,,,,,,,,,,,,main,None,None,1,1.4972377000376582,244.37308020005003,None,None,1,,,,,,,,,,,,,,012,2022-05-11_15h53.01.774,Main,2022.1.1,59.782904364413525,
positive,blue,2,k,None,,,,,,,,,0,25,25,25,,,,,,,,,,,,,,,,,main,k,k,1,0.6313877999782562,246.8702775000129,None,None,0,,,,,,,,,,,,,,012,2022-05-11_15h53.01.774,Main,2022.1.1,59.782904364413525,
negative,yellow,1,k,None,,,,,,,,,0,26,26,26,,,,,,,,,,,,,,,,,main,k,k,1,0.7995728999376297,248.50362180010416,None,None,0,,,,,,,,,,,,,,012,2022-05-11_15h53.01.774,Main,2022.1.1,59.782904364413525,
positive,blue,2,k,None,,,,,,,,,0,27,27,27,,,,,,,,,,,,,,,,,main,k,k,1,0.8514829999767244,250.30629199999385,None,None,0,,,,,,,,,,,,,,012,2022-05-11_15h53.01.774,Main,2022.1.1,59.782904364413525,
negative,blue,2,None,k,,,,,,,,,0,28,28,28,,,,,,,,,,,,,,,,,main,None,None,1,1.4969264999963343,252.15627759997733,None,None,1,,,,,,,,,,,,,,012,2022-05-11_15h53.01.774,Main,2022.1.1,59.782904364413525,
positive,red,1,None,None,,,,,,,,,0,29,29,29,,,,,,,,,,,,,,,,,main,None,None,1,1.5006027000490576,254.653484800132,None,None,1,,,,,,,,,,,,,,012,2022-05-11_15h53.01.774,Main,2022.1.1,59.782904364413525,
positive,blue,1,k,None,,,,,,,,,0,30,30,30,,,,,,,,,,,,,,,,,main,k,k,1,0.6809932000469416,257.156187399989,None,None,0,,,,,,,,,,,,,,012,2022-05-11_15h53.01.774,Main,2022.1.1,59.782904364413525,
positive,yellow,1,None,k,,,,,,,,,0,31,31,31,,,,,,,,,,,,,,,,,main,None,None,1,1.4973486999515444,258.83924310002476,None,None,1,,,,,,,,,,,,,,012,2022-05-11_15h53.01.774,Main,2022.1.1,59.782904364413525,
negative,yellow,2,k,None,,,,,,,,,0,32,32,32,,,,,,,,,,,,,,,,,main,k,k,1,0.7993654001038522,261.3366452001501,None,None,0,,,,,,,,,,,,,,012,2022-05-11_15h53.01.774,Main,2022.1.1,59.782904364413525,
negative,blue,1,None,k,,,,,,,,,0,33,33,33,,,,,,,,,,,,,,,,,main,None,None,1,1.5015267999842763,263.1393415001221,None,None,1,,,,,,,,,,,,,,012,2022-05-11_15h53.01.774,Main,2022.1.1,59.782904364413525,
positive,blue,1,k,None,,,,,,,,,0,34,34,34,,,,,,,,,,,,,,,,,main,k,k,1,0.7469444000162184,265.6392695000395,None,None,0,,,,,,,,,,,,,,012,2022-05-11_15h53.01.774,Main,2022.1.1,59.782904364413525,
negative,yellow,1,k,None,,,,,,,,,0,35,35,35,,,,,,,,,,,,,,,,,main,k,k,1,0.7990165001247078,267.38681149994954,None,None,0,,,,,,,,,,,,,,012,2022-05-11_15h53.01.774,Main,2022.1.1,59.782904364413525,
positive,yellow,2,None,k,,,,,,,,,0,36,36,36,,,,,,,,,,,,,,,,,main,None,None,1,1.4998637998942286,269.1923193000257,None,None,1,,,,,,,,,,,,,,012,2022-05-11_15h53.01.774,Main,2022.1.1,59.782904364413525,
positive,yellow,2,None,k,,,,,,,,,0,37,37,37,,,,,,,,,,,,,,,,,main,None,None,1,1.5001143000554293,271.6865218000021,None,None,1,,,,,,,,,,,,,,012,2022-05-11_15h53.01.774,Main,2022.1.1,59.782904364413525,
negative,yellow,2,k,None,,,,,,,,,0,38,38,38,,,,,,,,,,,,,,,,,main,k,k,1,0.897776999976486,274.1891368001234,None,None,0,,,,,,,,,,,,,,012,2022-05-11_15h53.01.774,Main,2022.1.1,59.782904364413525,
positive,yellow,1,None,k,,,,,,,,,0,39,39,39,,,,,,,,,,,,,,,,,main,None,None,1,1.4985496001318097,276.08662820002064,None,None,1,,,,,,,,,,,,,,012,2022-05-11_15h53.01.774,Main,2022.1.1,59.782904364413525,
negative,yellow,2,k,None,,,,,,,,,0,40,40,40,,,,,,,,,,,,,,,,,main,k,k,1,0.8646273000631481,278.5865418999456,None,None,0,,,,,,,,,,,,,,012,2022-05-11_15h53.01.774,Main,2022.1.1,59.782904364413525,
positive,blue,2,k,None,,,,,,,,,0,41,41,41,,,,,,,,,,,,,,,,,main,k,k,1,0.8158521000295877,280.4531465000473,None,None,0,,,,,,,,,,,,,,012,2022-05-11_15h53.01.774,Main,2022.1.1,59.782904364413525,
positive,blue,2,k,None,,,,,,,,,0,42,42,42,,,,,,,,,,,,,,,,,main,k,k,1,0.7830409999005497,282.2698373000603,None,None,0,,,,,,,,,,,,,,012,2022-05-11_15h53.01.774,Main,2022.1.1,59.782904364413525,
negative,blue,2,None,k,,,,,,,,,0,43,43,43,,,,,,,,,,,,,,,,,main,None,None,1,1.5003007999621332,284.0528220999986,None,None,1,,,,,,,,,,,,,,012,2022-05-11_15h53.01.774,Main,2022.1.1,59.782904364413525,
negative,red,1,None,None,,,,,,,,,0,44,44,44,,,,,,,,,,,,,,,,,main,None,None,1,1.4991417999844998,286.55551109998487,None,None,1,,,,,,,,,,,,,,012,2022-05-11_15h53.01.774,Main,2022.1.1,59.782904364413525,
negative,yellow,1,k,None,,,,,,,,,0,45,45,45,,,,,,,,,,,,,,,,,main,k,k,1,0.89744389988482,289.05545480013825,None,None,0,,,,,,,,,,,,,,012,2022-05-11_15h53.01.774,Main,2022.1.1,59.782904364413525,
negative,yellow,1,k,None,,,,,,,,,0,46,46,46,,,,,,,,,,,,,,,,,main,k,k,1,0.6825496000237763,290.95266900002025,None,None,0,,,,,,,,,,,,,,012,2022-05-11_15h53.01.774,Main,2022.1.1,59.782904364413525,
positive,red,1,None,None,,,,,,,,,0,47,47,47,,,,,,,,,,,,,,,,,main,None,None,1,1.501365999924019,292.6360086000059,None,None,1,,,,,,,,,,,,,,012,2022-05-11_15h53.01.774,Main,2022.1.1,59.782904364413525,
positive,yellow,1,None,k,,,,,,,,,0,48,48,48,,,,,,,,,,,,,,,,,main,None,None,1,1.496240200009197,295.13866170006804,None,None,1,,,,,,,,,,,,,,012,2022-05-11_15h53.01.774,Main,2022.1.1,59.782904364413525,
negative,blue,1,None,k,,,,,,,,,0,49,49,49,,,,,,,,,,,,,,,,,main,None,None,1,1.5026448999997228,297.63615639996715,None,None,1,,,,,,,,,,,,,,012,2022-05-11_15h53.01.774,Main,2022.1.1,59.782904364413525,
positive,yellow,2,None,k,,,,,,,,,0,50,50,50,,,,,,,,,,,,,,,,,main,None,None,1,1.4951216999907047,300.1360337000806,None,None,1,,,,,,,,,,,,,,012,2022-05-11_15h53.01.774,Main,2022.1.1,59.782904364413525,
negative,blue,1,None,k,,,,,,,,,0,51,51,51,,,,,,,,,,,,,,,,,main,None,None,1,1.559677000157535,302.6358507000841,None,None,1,,,,,,,,,,,,,,012,2022-05-11_15h53.01.774,Main,2022.1.1,59.782904364413525,
positive,red,2,None,None,,,,,,,,,0,52,52,52,,,,,,,,,,,,,,,,,main,None,None,1,1.505004300037399,305.1895705999341,None,None,1,,,,,,,,,,,,,,012,2022-05-11_15h53.01.774,Main,2022.1.1,59.782904364413525,
positive,yellow,2,None,k,,,,,,,,,0,53,53,53,,,,,,,,,,,,,,,,,main,None,None,1,1.4982211999595165,307.7026062000077,None,None,1,,,,,,,,,,,,,,012,2022-05-11_15h53.01.774,Main,2022.1.1,59.782904364413525,
negative,red,2,None,None,,,,,,,,,0,54,54,54,,,,,,,,,,,,,,,,,main,None,None,1,1.4995349999517202,310.20254430011846,None,None,1,,,,,,,,,,,,,,012,2022-05-11_15h53.01.774,Main,2022.1.1,59.782904364413525,
positive,yellow,1,None,k,,,,,,,,,0,55,55,55,,,,,,,,,,,,,,,,,main,None,None,1,1.5006782000418752,312.70223130006343,None,None,1,,,,,,,,,,,,,,012,2022-05-11_15h53.01.774,Main,2022.1.1,59.782904364413525,
negative,blue,2,None,k,,,,,,,,,0,56,56,56,,,,,,,,,,,,,,,,,main,None,None,1,1.4991931000258774,315.2048941999674,None,None,1,,,,,,,,,,,,,,012,2022-05-11_15h53.01.774,Main,2022.1.1,59.782904364413525,
positive,blue,1,k,None,,,,,,,,,0,57,57,57,,,,,,,,,,,,,,,,,main,k,k,1,0.8131555002182722,317.7047727999743,None,None,0,,,,,,,,,,,,,,012,2022-05-11_15h53.01.774,Main,2022.1.1,59.782904364413525,
positive,blue,1,k,None,,,,,,,,,0,58,58,58,,,,,,,,,,,,,,,,,main,k,k,1,0.6161993998102844,319.5187163001392,None,None,0,,,,,,,,,,,,,,012,2022-05-11_15h53.01.774,Main,2022.1.1,59.782904364413525,
negative,yellow,2,k,None,,,,,,,,,0,59,59,59,,,,,,,,,,,,,,,,,main,k,k,1,0.5848001001868397,321.13810590002686,None,None,0,,,,,,,,,,,,,,012,2022-05-11_15h53.01.774,Main,2022.1.1,59.782904364413525,
positive,red,2,None,None,,,,,,,,,0,60,60,60,,,,,,,,,,,,,,,,,main,None,None,1,1.4972576000727713,322.721391600091,None,None,1,,,,,,,,,,,,,,012,2022-05-11_15h53.01.774,Main,2022.1.1,59.782904364413525,
negative,yellow,1,k,None,,,,,,,,,0,61,61,61,,,,,,,,,,,,,,,,,main,k,k,1,0.8150110000278801,325.2242954999674,None,None,0,,,,,,,,,,,,,,012,2022-05-11_15h53.01.774,Main,2022.1.1,59.782904364413525,
negative,red,1,None,None,,,,,,,,,0,62,62,62,,,,,,,,,,,,,,,,,main,None,None,1,1.4996759998612106,327.03535709995776,None,None,1,,,,,,,,,,,,,,012,2022-05-11_15h53.01.774,Main,2022.1.1,59.782904364413525,
negative,blue,1,None,k,,,,,,,,,0,63,63,63,,,,,,,,,,,,,,,,,main,None,None,1,1.5006365000735968,329.53522650012746,None,None,1,,,,,,,,,,,,,,012,2022-05-11_15h53.01.774,Main,2022.1.1,59.782904364413525,
positive,blue,2,k,None,,,,,,,,,0,64,64,64,,,,,,,,,,,,,,,,,main,k,k,1,0.7479336000978947,332.0378596999217,None,None,0,,,,,,,,,,,,,,012,2022-05-11_15h53.01.774,Main,2022.1.1,59.782904364413525,
negative,yellow,2,k,None,,,,,,,,,0,65,65,65,,,,,,,,,,,,,,,,,main,k,k,1,0.797891000052914,333.78532949998043,None,None,0,,,,,,,,,,,,,,012,2022-05-11_15h53.01.774,Main,2022.1.1,59.782904364413525,
positive,yellow,2,None,k,,,,,,,,,0,66,66,66,,,,,,,,,,,,,,,,,main,None,None,1,1.4995689999777824,335.585352800088,None,None,1,,,,,,,,,,,,,,012,2022-05-11_15h53.01.774,Main,2022.1.1,59.782904364413525,
positive,yellow,2,None,k,,,,,,,,,0,67,67,67,,,,,,,,,,,,,,,,,main,None,None,1,1.5005773000884801,338.0850184999872,None,None,1,,,,,,,,,,,,,,012,2022-05-11_15h53.01.774,Main,2022.1.1,59.782904364413525,
positive,red,1,None,None,,,,,,,,,0,68,68,68,,,,,,,,,,,,,,,,,main,None,None,1,1.4967058999463916,340.5877012000419,None,None,1,,,,,,,,,,,,,,012,2022-05-11_15h53.01.774,Main,2022.1.1,59.782904364413525,
positive,yellow,1,None,k,,,,,,,,,0,69,69,69,,,,,,,,,,,,,,,,,main,None,None,1,1.4998943998944014,343.08513560006395,None,None,1,,,,,,,,,,,,,,012,2022-05-11_15h53.01.774,Main,2022.1.1,59.782904364413525,
negative,yellow,2,k,None,,,,,,,,,0,70,70,70,,,,,,,,,,,,,,,,,main,k,k,1,0.7836744000669569,345.5850454000756,None,None,0,,,,,,,,,,,,,,012,2022-05-11_15h53.01.774,Main,2022.1.1,59.782904364413525,
positive,yellow,1,None,k,,,,,,,,,0,71,71,71,,,,,,,,,,,,,,,,,main,None,None,1,1.4967592998873442,347.3683639999945,None,None,1,,,,,,,,,,,,,,012,2022-05-11_15h53.01.774,Main,2022.1.1,59.782904364413525,
negative,blue,1,None,k,,,,,,,,,0,72,72,72,,,,,,,,,,,,,,,,,main,None,None,1,1.499080200213939,349.86825800011866,None,None,1,,,,,,,,,,,,,,012,2022-05-11_15h53.01.774,Main,2022.1.1,59.782904364413525,
negative,red,2,None,None,,,,,,,,,0,73,73,73,,,,,,,,,,,,,,,,,main,None,None,1,1.4988624998368323,352.36831000004895,None,None,1,,,,,,,,,,,,,,012,2022-05-11_15h53.01.774,Main,2022.1.1,59.782904364413525,
positive,blue,2,k,None,,,,,,,,,0,74,74,74,,,,,,,,,,,,,,,,,main,k,k,1,0.8660894001368433,354.87062920001335,None,None,0,,,,,,,,,,,,,,012,2022-05-11_15h53.01.774,Main,2022.1.1,59.782904364413525,
negative,blue,2,None,k,,,,,,,,,0,75,75,75,,,,,,,,,,,,,,,,,main,None,None,1,1.498755999840796,356.7347870999947,None,None,1,,,,,,,,,,,,,,012,2022-05-11_15h53.01.774,Main,2022.1.1,59.782904364413525,
negative,blue,2,None,k,,,,,,,,,0,76,76,76,,,,,,,,,,,,,,,,,main,None,None,1,1.4994037998840213,359.2348032000009,None,None,1,,,,,,,,,,,,,,012,2022-05-11_15h53.01.774,Main,2022.1.1,59.782904364413525,
negative,yellow,1,k,None,,,,,,,,,0,77,77,77,,,,,,,,,,,,,,,,,main,k,k,1,0.782116899965331,361.7347508999519,None,None,0,,,,,,,,,,,,,,012,2022-05-11_15h53.01.774,Main,2022.1.1,59.782904364413525,
positive,blue,1,k,None,,,,,,,,,0,78,78,78,,,,,,,,,,,,,,,,,main,k,k,1,0.8991597001440823,363.5179940001108,None,None,0,,,,,,,,,,,,,,012,2022-05-11_15h53.01.774,Main,2022.1.1,59.782904364413525,
positive,blue,1,k,None,,,,,,,,,0,79,79,79,,,,,,,,,,,,,,,,,main,k,k,1,0.6488283998332918,365.4180109000299,None,None,0,,,,,,,,,,,,,,012,2022-05-11_15h53.01.774,Main,2022.1.1,59.782904364413525,
positive,red,2,None,None,,,,,,,,,0,80,80,80,,,,,,,,,,,,,,,,,main,None,None,1,1.5014501998666674,367.0676812999882,None,None,1,,,,,,,,,,,,,,012,2022-05-11_15h53.01.774,Main,2022.1.1,59.782904364413525,
positive,yellow,2,None,k,,,,,,,,,0,81,81,81,,,,,,,,,,,,,,,,,main,None,None,1,1.4992166999727488,369.5703660999425,None,None,1,,,,,,,,,,,,,,012,2022-05-11_15h53.01.774,Main,2022.1.1,59.782904364413525,
positive,blue,1,k,None,,,,,,,,,0,82,82,82,,,,,,,,,,,,,,,,,main,k,k,1,0.813316399930045,372.0703470001463,None,None,0,,,,,,,,,,,,,,012,2022-05-11_15h53.01.774,Main,2022.1.1,59.782904364413525,
negative,yellow,2,k,None,,,,,,,,,0,83,83,83,,,,,,,,,,,,,,,,,main,k,k,1,0.635137400124222,373.88417510013096,None,None,0,,,,,,,,,,,,,,012,2022-05-11_15h53.01.774,Main,2022.1.1,59.782904364413525,
positive,blue,2,k,None,,,,,,,,,0,84,84,84,,,,,,,,,,,,,,,,,main,k,k,1,1.1133639998733997,375.52029160014354,None,None,0,,,,,,,,,,,,,,012,2022-05-11_15h53.01.774,Main,2022.1.1,59.782904364413525,
positive,yellow,1,None,k,,,,,,,,,0,85,85,85,,,,,,,,,,,,,,,,,main,None,None,1,1.4988878997974098,377.6369195000734,None,None,1,,,,,,,,,,,,,,012,2022-05-11_15h53.01.774,Main,2022.1.1,59.782904364413525,
positive,blue,2,k,None,,,,,,,,,0,86,86,86,,,,,,,,,,,,,,,,,main,k,k,1,0.8038157999981195,380.1367273000069,None,None,0,,,,,,,,,,,,,,012,2022-05-11_15h53.01.774,Main,2022.1.1,59.782904364413525,
positive,blue,1,k,None,,,,,,,,,0,87,87,87,,,,,,,,,,,,,,,,,main,k,k,1,1.0608397000469267,381.94132490013726,None,None,0,,,,,,,,,,,,,,012,2022-05-11_15h53.01.774,Main,2022.1.1,59.782904364413525,
negative,yellow,2,k,None,,,,,,,,,0,88,88,88,,,,,,,,,,,,,,,,,main,k,k,1,0.9351103000808507,384.0006778999232,None,None,0,,,,,,,,,,,,,,012,2022-05-11_15h53.01.774,Main,2022.1.1,59.782904364413525,
negative,blue,2,None,k,,,,,,,,,0,89,89,89,,,,,,,,,,,,,,,,,main,None,None,1,1.4991669999435544,385.93666419992223,None,None,1,,,,,,,,,,,,,,012,2022-05-11_15h53.01.774,Main,2022.1.1,59.782904364413525,
positive,yellow,2,None,k,,,,,,,,,0,90,90,90,,,,,,,,,,,,,,,,,main,None,None,1,1.4969437001273036,388.436627499992,None,None,1,,,,,,,,,,,,,,012,2022-05-11_15h53.01.774,Main,2022.1.1,59.782904364413525,
negative,yellow,1,k,None,,,,,,,,,0,91,91,91,,,,,,,,,,,,,,,,,main,k,k,1,0.8320073001086712,390.93385799997486,None,None,0,,,,,,,,,,,,,,012,2022-05-11_15h53.01.774,Main,2022.1.1,59.782904364413525,
negative,red,2,None,None,,,,,,,,,0,92,92,92,,,,,,,,,,,,,,,,,main,None,None,1,1.5009605002123863,392.76989770005457,None,None,1,,,,,,,,,,,,,,012,2022-05-11_15h53.01.774,Main,2022.1.1,59.782904364413525,
negative,blue,2,None,k,,,,,,,,,0,93,93,93,,,,,,,,,,,,,,,,,main,None,None,1,1.497365300077945,395.26733350008726,None,None,1,,,,,,,,,,,,,,012,2022-05-11_15h53.01.774,Main,2022.1.1,59.782904364413525,
negative,blue,1,None,k,,,,,,,,,0,94,94,94,,,,,,,,,,,,,,,,,main,None,None,1,1.5005365998949856,397.7670134000946,None,None,1,,,,,,,,,,,,,,012,2022-05-11_15h53.01.774,Main,2022.1.1,59.782904364413525,
negative,blue,1,None,k,,,,,,,,,0,95,95,95,,,,,,,,,,,,,,,,,main,None,None,1,1.4992986998986453,400.26972179999575,None,None,1,,,,,,,,,,,,,,012,2022-05-11_15h53.01.774,Main,2022.1.1,59.782904364413525,
negative,red,1,None,None,,,,,,,,,0,96,96,96,,,,,,,,,,,,,,,,,main,None,None,1,1.4971619001589715,402.7696808001492,None,None,1,,,,,,,,,,,,,,012,2022-05-11_15h53.01.774,Main,2022.1.1,59.782904364413525,
positive,yellow,1,None,k,,,,,,,,,0,97,97,97,,,,,,,,,,,,,,,,,main,None,None,1,1.5007021999917924,405.2668791001197,None,None,1,,,,,,,,,,,,,,012,2022-05-11_15h53.01.774,Main,2022.1.1,59.782904364413525,
negative,yellow,1,k,None,,,,,,,,,0,98,98,98,,,,,,,,,,,,,,,,,main,k,k,1,0.8326234000269324,407.76962219993584,None,None,0,,,,,,,,,,,,,,012,2022-05-11_15h53.01.774,Main,2022.1.1,59.782904364413525,
positive,red,1,None,None,,,,,,,,,0,99,99,99,,,,,,,,,,,,,,,,,main,None,None,1,1.4971340000629425,409.60286610014737,None,None,1,,,,,,,,,,,,,,012,2022-05-11_15h53.01.774,Main,2022.1.1,59.782904364413525,
positive,blue,1,k,None,,,,,,,,,0,100,100,100,,,,,,,,,,,,,,,,,main,k,k,1,0.7175505999475718,412.100073199952,None,None,0,,,,,,,,,,,,,,012,2022-05-11_15h53.01.774,Main,2022.1.1,59.782904364413525,
negative,yellow,1,k,None,,,,,,,,,0,101,101,101,,,,,,,,,,,,,,,,,main,k,k,1,0.8158887999597937,413.81942520011216,None,None,0,,,,,,,,,,,,,,012,2022-05-11_15h53.01.774,Main,2022.1.1,59.782904364413525,
negative,blue,2,None,k,,,,,,,,,0,102,102,102,,,,,,,,,,,,,,,,,main,None,None,1,1.4969302001409233,415.63602890004404,None,None,1,,,,,,,,,,,,,,012,2022-05-11_15h53.01.774,Main,2022.1.1,59.782904364413525,
negative,yellow,2,k,None,,,,,,,,,0,103,103,103,,,,,,,,,,,,,,,,,main,k,k,1,0.8009244999848306,418.1333354001399,None,None,0,,,,,,,,,,,,,,012,2022-05-11_15h53.01.774,Main,2022.1.1,59.782904364413525,
positive,yellow,2,None,k,,,,,,,,,0,104,104,104,,,,,,,,,,,,,,,,,main,None,None,1,1.4963035001419485,419.9358491001185,None,None,1,,,,,,,,,,,,,,012,2022-05-11_15h53.01.774,Main,2022.1.1,59.782904364413525,
positive,blue,1,k,None,,,,,,,,,0,105,105,105,,,,,,,,,,,,,,,,,main,k,k,1,0.8538718000054359,422.4334257999435,None,None,0,,,,,,,,,,,,,,012,2022-05-11_15h53.01.774,Main,2022.1.1,59.782904364413525,
positive,blue,2,k,None,,,,,,,,,0,106,106,106,,,,,,,,,,,,,,,,,main,k,k,1,0.7442693000193685,424.29032650007866,None,None,0,,,,,,,,,,,,,,012,2022-05-11_15h53.01.774,Main,2022.1.1,59.782904364413525,
negative,blue,1,None,k,,,,,,,,,0,107,107,107,,,,,,,,,,,,,,,,,main,None,None,1,1.5015503999311477,426.0330638999585,None,None,1,,,,,,,,,,,,,,012,2022-05-11_15h53.01.774,Main,2022.1.1,59.782904364413525,
positive,yellow,2,None,k,,,,,,,,,0,108,108,108,,,,,,,,,,,,,,,,,main,None,None,1,1.4964598999358714,428.53579490003176,None,None,1,,,,,,,,,,,,,,012,2022-05-11_15h53.01.774,Main,2022.1.1,59.782904364413525,
negative,yellow,1,k,None,,,,,,,,,0,109,109,109,,,,,,,,,,,,,,,,,main,k,k,1,0.9496353999711573,431.03863979992457,None,None,0,,,,,,,,,,,,,,012,2022-05-11_15h53.01.774,Main,2022.1.1,59.782904364413525,
negative,blue,2,None,k,,,,,,,,,0,110,110,110,,,,,,,,,,,,,,,,,main,None,None,1,1.4987626001238823,432.9829389001243,None,None,1,,,,,,,,,,,,,,012,2022-05-11_15h53.01.774,Main,2022.1.1,59.782904364413525,
positive,blue,2,k,None,,,,,,,,,0,111,111,111,,,,,,,,,,,,,,,,,main,k,k,1,0.616058100014925,435.4856146001257,None,None,0,,,,,,,,,,,,,,012,2022-05-11_15h53.01.774,Main,2022.1.1,59.782904364413525,
negative,blue,1,None,k,,,,,,,,,0,112,112,112,,,,,,,,,,,,,,,,,main,None,None,1,1.4992772999685258,437.099552199943,None,None,1,,,,,,,,,,,,,,012,2022-05-11_15h53.01.774,Main,2022.1.1,59.782904364413525,
positive,yellow,1,None,k,,,,,,,,,0,113,113,113,,,,,,,,,,,,,,,,,main,None,None,1,1.4983703999314457,439.5997103000991,None,None,1,,,,,,,,,,,,,,012,2022-05-11_15h53.01.774,Main,2022.1.1,59.782904364413525,
negative,red,1,None,None,,,,,,,,,0,114,114,114,,,,,,,,,,,,,,,,,main,None,None,1,1.4991339999251068,442.1019266000949,None,None,1,,,,,,,,,,,,,,012,2022-05-11_15h53.01.774,Main,2022.1.1,59.782904364413525,
positive,red,1,None,None,,,,,,,,,0,115,115,115,,,,,,,,,,,,,,,,,main,None,None,1,1.4996869000606239,444.60198489995673,None,None,1,,,,,,,,,,,,,,012,2022-05-11_15h53.01.774,Main,2022.1.1,59.782904364413525,
negative,red,2,None,None,,,,,,,,,0,116,116,116,,,,,,,,,,,,,,,,,main,None,None,1,1.5006270001176745,447.0993514000438,None,None,1,,,,,,,,,,,,,,012,2022-05-11_15h53.01.774,Main,2022.1.1,59.782904364413525,
negative,yellow,2,k,None,,,,,,,,,0,117,117,117,,,,,,,,,,,,,,,,,main,k,k,1,0.8972606000024825,449.60198800009675,None,None,0,,,,,,,,,,,,,,012,2022-05-11_15h53.01.774,Main,2022.1.1,59.782904364413525,
positive,yellow,1,None,k,,,,,,,,,0,118,118,118,,,,,,,,,,,,,,,,,main,None,None,1,1.4984820000827312,451.4994280000683,None,None,1,,,,,,,,,,,,,,012,2022-05-11_15h53.01.774,Main,2022.1.1,59.782904364413525,
positive,red,2,None,None,,,,,,,,,0,119,119,119,,,,,,,,,,,,,,,,,main,None,None,1,1.4989803000353277,453.99938910012133,None,None,1,,,,,,,,,,,,,,012,2022-05-11_15h53.01.774,Main,2022.1.1,59.782904364413525,
positive,blue,2,k,None,,,,,,,,,0,120,120,120,,,,,,,,,,,,,,,,,main,k,k,1,0.849336399929598,456.4993217999581,None,None,0,,,,,,,,,,,,,,012,2022-05-11_15h53.01.774,Main,2022.1.1,59.782904364413525,
negative,red,1,None,None,,,,,,,,,0,121,121,121,,,,,,,,,,,,,,,,,main,None,None,1,1.4995506999548525,458.34929689997807,None,None,1,,,,,,,,,,,,,,012,2022-05-11_15h53.01.774,Main,2022.1.1,59.782904364413525,
positive,yellow,2,None,k,,,,,,,,,0,122,122,122,,,,,,,,,,,,,,,,,main,None,None,1,1.4979907001834363,460.84921310003847,None,None,1,,,,,,,,,,,,,,012,2022-05-11_15h53.01.774,Main,2022.1.1,59.782904364413525,
negative,red,2,None,None,,,,,,,,,0,123,123,123,,,,,,,,,,,,,,,,,main,None,None,1,1.4992802999913692,463.34921619994566,None,None,1,,,,,,,,,,,,,,012,2022-05-11_15h53.01.774,Main,2022.1.1,59.782904364413525,
negative,yellow,2,k,None,,,,,,,,,0,124,124,124,,,,,,,,,,,,,,,,,main,k,k,1,0.7819776998367161,465.84917689999565,None,None,0,,,,,,,,,,,,,,012,2022-05-11_15h53.01.774,Main,2022.1.1,59.782904364413525,
positive,red,1,None,None,,,,,,,,,0,125,125,125,,,,,,,,,,,,,,,,,main,None,None,1,1.4988069999963045,467.6324614000041,None,None,1,,,,,,,,,,,,,,012,2022-05-11_15h53.01.774,Main,2022.1.1,59.782904364413525,
negative,blue,2,None,k,,,,,,,,,0,126,126,126,,,,,,,,,,,,,,,,,main,None,None,1,1.4998653000220656,470.13240210013464,None,None,1,,,,,,,,,,,,,,012,2022-05-11_15h53.01.774,Main,2022.1.1,59.782904364413525,
negative,blue,1,None,k,,,,,,,,,0,127,127,127,,,,,,,,,,,,,,,,,main,None,None,1,1.50054100016132,472.63210349995643,None,None,1,,,,,,,,,,,,,,012,2022-05-11_15h53.01.774,Main,2022.1.1,59.782904364413525,
negative,yellow,1,k,None,,,,,,,,,0,128,128,128,,,,,,,,,,,,,,,,,main,k,k,1,0.7635391000658274,475.13472720002756,None,None,0,,,,,,,,,,,,,,012,2022-05-11_15h53.01.774,Main,2022.1.1,59.782904364413525,
negative,yellow,1,k,None,,,,,,,,,0,129,129,129,,,,,,,,,,,,,,,,,main,k,k,1,0.7206542999483645,476.89888989995234,None,None,0,,,,,,,,,,,,,,012,2022-05-11_15h53.01.774,Main,2022.1.1,59.782904364413525,
positive,blue,1,k,None,,,,,,,,,0,130,130,130,,,,,,,,,,,,,,,,,main,k,k,1,0.810580600053072,478.6241975999437,None,None,0,,,,,,,,,,,,,,012,2022-05-11_15h53.01.774,Main,2022.1.1,59.782904364413525,
negative,blue,1,None,k,,,,,,,,,0,131,131,131,,,,,,,,,,,,,,,,,main,None,None,1,1.4988917000591755,480.43214010004885,None,None,1,,,,,,,,,,,,,,012,2022-05-11_15h53.01.774,Main,2022.1.1,59.782904364413525,
negative,blue,2,None,k,,,,,,,,,0,132,132,132,,,,,,,,,,,,,,,,,main,None,None,1,1.4989988000597805,482.93210149998777,None,None,1,,,,,,,,,,,,,,012,2022-05-11_15h53.01.774,Main,2022.1.1,59.782904364413525,
positive,blue,2,k,None,,,,,,,,,0,133,133,133,,,,,,,,,,,,,,,,,main,k,k,1,0.749226899817586,485.4320050999522,None,None,0,,,,,,,,,,,,,,012,2022-05-11_15h53.01.774,Main,2022.1.1,59.782904364413525,
positive,red,2,None,None,,,,,,,,,0,134,134,134,,,,,,,,,,,,,,,,,main,None,None,1,1.498872400028631,487.1819690000266,None,None,1,,,,,,,,,,,,,,012,2022-05-11_15h53.01.774,Main,2022.1.1,59.782904364413525,
negative,yellow,2,k,None,,,,,,,,,0,135,135,135,,,,,,,,,,,,,,,,,main,k,k,1,0.8667093000840396,489.6819941001013,None,None,0,,,,,,,,,,,,,,012,2022-05-11_15h53.01.774,Main,2022.1.1,59.782904364413525,
positive,yellow,2,None,k,,,,,,,,,0,136,136,136,,,,,,,,,,,,,,,,,main,None,None,1,1.5003704000264406,491.54827379994094,None,None,1,,,,,,,,,,,,,,012,2022-05-11_15h53.01.774,Main,2022.1.1,59.782904364413525,
positive,blue,1,k,None,,,,,,,,,0,137,137,137,,,,,,,,,,,,,,,,,main,k,k,1,0.7828611999284476,494.0509703999851,None,None,0,,,,,,,,,,,,,,012,2022-05-11_15h53.01.774,Main,2022.1.1,59.782904364413525,
positive,yellow,1,None,k,,,,,,,,,0,138,138,138,,,,,,,,,,,,,,,,,main,None,None,1,1.4961347000207752,495.83428160008043,None,None,1,,,,,,,,,,,,,,012,2022-05-11_15h53.01.774,Main,2022.1.1,59.782904364413525,
positive,yellow,1,None,k,,,,,,,,,0,139,139,139,,,,,,,,,,,,,,,,,main,None,None,1,1.4997465999331325,498.33411030005664,None,None,1,,,,,,,,,,,,,,012,2022-05-11_15h53.01.774,Main,2022.1.1,59.782904364413525,
positive,yellow,1,None,k,,,,,,,,,0,140,140,140,,,,,,,,,,,,,,,,,main,None,None,1,1.5005225001368672,500.8314587001223,None,None,1,,,,,,,,,,,,,,012,2022-05-11_15h53.01.774,Main,2022.1.1,59.782904364413525,
positive,blue,1,k,None,,,,,,,,,0,141,141,141,,,,,,,,,,,,,,,,,main,k,k,1,0.6661425998900086,503.3340968999546,None,None,0,,,,,,,,,,,,,,012,2022-05-11_15h53.01.774,Main,2022.1.1,59.782904364413525,
positive,blue,2,k,None,,,,,,,,,0,142,142,142,,,,,,,,,,,,,,,,,main,k,k,1,0.9808008999098092,505.0007714999374,None,None,0,,,,,,,,,,,,,,012,2022-05-11_15h53.01.774,Main,2022.1.1,59.782904364413525,
positive,yellow,2,None,k,,,,,,,,,0,143,143,143,,,,,,,,,,,,,,,,,main,None,None,1,1.5002754000015557,506.9812996999826,None,None,1,,,,,,,,,,,,,,012,2022-05-11_15h53.01.774,Main,2022.1.1,59.782904364413525,
negative,yellow,2,k,None,,,,,,,,,0,144,144,144,,,,,,,,,,,,,,,,,main,k,k,1,0.7801884000655264,509.48405440011993,None,None,0,,,,,,,,,,,,,,012,2022-05-11_15h53.01.774,Main,2022.1.1,59.782904364413525,
negative,blue,2,None,k,,,,,,,,,0,145,145,145,,,,,,,,,,,,,,,,,main,None,None,1,1.4994947998784482,511.26731409993954,None,None,1,,,,,,,,,,,,,,012,2022-05-11_15h53.01.774,Main,2022.1.1,59.782904364413525,
negative,red,1,None,None,,,,,,,,,0,146,146,146,,,,,,,,,,,,,,,,,main,None,None,1,1.5005224999040365,513.7645276000258,None,None,1,,,,,,,,,,,,,,012,2022-05-11_15h53.01.774,Main,2022.1.1,59.782904364413525,
positive,blue,1,k,None,,,,,,,,,0,147,147,147,,,,,,,,,,,,,,,,,main,k,k,1,0.9468030999414623,516.2672049999237,None,None,0,,,,,,,,,,,,,,012,2022-05-11_15h53.01.774,Main,2022.1.1,59.782904364413525,
positive,yellow,1,None,k,,,,,,,,,0,148,148,148,,,,,,,,,,,,,,,,,main,None,None,1,1.5014313999563456,518.2143685999326,None,None,1,,,,,,,,,,,,,,012,2022-05-11_15h53.01.774,Main,2022.1.1,59.782904364413525,
negative,red,2,None,None,,,,,,,,,0,149,149,149,,,,,,,,,,,,,,,,,main,None,None,1,1.4991220000665635,520.7170828999951,None,None,1,,,,,,,,,,,,,,012,2022-05-11_15h53.01.774,Main,2022.1.1,59.782904364413525,
negative,blue,1,None,k,,,,,,,,,0,150,150,150,,,,,,,,,,,,,,,,,main,None,None,1,1.4973456000443548,523.2170148000587,None,None,1,,,,,,,,,,,,,,012,2022-05-11_15h53.01.774,Main,2022.1.1,59.782904364413525,
negative,yellow,2,k,None,,,,,,,,,0,151,151,151,,,,,,,,,,,,,,,,,main,k,k,1,0.7482467999216169,525.7143240000587,None,None,0,,,,,,,,,,,,,,012,2022-05-11_15h53.01.774,Main,2022.1.1,59.782904364413525,
negative,blue,2,None,k,,,,,,,,,0,152,152,152,,,,,,,,,,,,,,,,,main,None,None,1,1.498692899942398,527.4669238000643,None,None,1,,,,,,,,,,,,,,012,2022-05-11_15h53.01.774,Main,2022.1.1,59.782904364413525,
negative,yellow,1,k,None,,,,,,,,,0,153,153,153,,,,,,,,,,,,,,,,,main,k,k,1,0.9167181001976132,529.9643979000393,None,None,0,,,,,,,,,,,,,,012,2022-05-11_15h53.01.774,Main,2022.1.1,59.782904364413525,
negative,blue,1,None,k,,,,,,,,,0,154,154,154,,,,,,,,,,,,,,,,,main,None,None,1,1.49773080018349,531.8809628000017,None,None,1,,,,,,,,,,,,,,012,2022-05-11_15h53.01.774,Main,2022.1.1,59.782904364413525,
positive,yellow,2,None,k,,,,,,,,,0,155,155,155,,,,,,,,,,,,,,,,,main,None,None,1,1.498854599893093,534.3809621999972,None,None,1,,,,,,,,,,,,,,012,2022-05-11_15h53.01.774,Main,2022.1.1,59.782904364413525,
positive,red,2,None,None,,,,,,,,,0,156,156,156,,,,,,,,,,,,,,,,,main,None,None,1,1.4998274000827223,536.8809621001128,None,None,1,,,,,,,,,,,,,,012,2022-05-11_15h53.01.774,Main,2022.1.1,59.782904364413525,
positive,red,1,None,None,,,,,,,,,0,157,157,157,,,,,,,,,,,,,,,,,main,None,None,1,1.5005771999713033,539.3806247999892,None,None,1,,,,,,,,,,,,,,012,2022-05-11_15h53.01.774,Main,2022.1.1,59.782904364413525,
positive,blue,2,k,None,,,,,,,,,0,158,158,158,,,,,,,,,,,,,,,,,main,k,k,1,0.8967124000191689,541.8832811000757,None,None,0,,,,,,,,,,,,,,012,2022-05-11_15h53.01.774,Main,2022.1.1,59.782904364413525,
negative,yellow,1,k,None,,,,,,,,,0,159,159,159,,,,,,,,,,,,,,,,,main,k,k,1,0.8016969999298453,543.7807821999304,None,None,0,,,,,,,,,,,,,,012,2022-05-11_15h53.01.774,Main,2022.1.1,59.782904364413525,
negative,red,2,None,None,,,,,,,,,0,160,160,160,,,,,,,,,,,,,,,,,main,None,None,1,1.4968852999154478,545.5831051999703,None,None,1,,,,,,,,,,,,,,012,2022-05-11_15h53.01.774,Main,2022.1.1,59.782904364413525,
negative,blue,1,None,k,,,,,,,,,0,161,161,161,,,,,,,,,,,,,,,,,main,None,None,1,1.5008205000776798,548.0804588000756,None,None,1,,,,,,,,,,,,,,012,2022-05-11_15h53.01.774,Main,2022.1.1,59.782904364413525,
negative,blue,1,None,k,,,,,,,,,0,162,162,162,,,,,,,,,,,,,,,,,main,None,None,1,1.4990097000263631,550.583105500089,None,None,1,,,,,,,,,,,,,,012,2022-05-11_15h53.01.774,Main,2022.1.1,59.782904364413525,
negative,yellow,1,k,None,,,,,,,,,0,163,163,163,,,,,,,,,,,,,,,,,main,k,k,1,0.9966535000130534,553.0805542999879,None,None,0,,,,,,,,,,,,,,012,2022-05-11_15h53.01.774,Main,2022.1.1,59.782904364413525,
negative,yellow,1,k,None,,,,,,,,,0,164,164,164,,,,,,,,,,,,,,,,,main,k,k,1,0.7167160999961197,555.0802512001246,None,None,0,,,,,,,,,,,,,,012,2022-05-11_15h53.01.774,Main,2022.1.1,59.782904364413525,
positive,yellow,1,None,k,,,,,,,,,0,165,165,165,,,,,,,,,,,,,,,,,main,None,None,1,1.5004155999049544,556.7969170999713,None,None,1,,,,,,,,,,,,,,012,2022-05-11_15h53.01.774,Main,2022.1.1,59.782904364413525,
negative,red,1,None,None,,,,,,,,,0,166,166,166,,,,,,,,,,,,,,,,,main,None,None,1,1.4998208000324667,559.2995847000275,None,None,1,,,,,,,,,,,,,,012,2022-05-11_15h53.01.774,Main,2022.1.1,59.782904364413525,
negative,yellow,2,k,None,,,,,,,,,0,167,167,167,,,,,,,,,,,,,,,,,main,k,k,1,0.9622259999159724,561.7970545000862,None,None,0,,,,,,,,,,,,,,012,2022-05-11_15h53.01.774,Main,2022.1.1,59.782904364413525,
positive,blue,2,k,None,,,,,,,,,0,168,168,168,,,,,,,,,,,,,,,,,main,k,k,1,0.7492664000019431,563.7636132999323,None,None,0,,,,,,,,,,,,,,012,2022-05-11_15h53.01.774,Main,2022.1.1,59.782904364413525,
positive,red,2,None,None,,,,,,,,,0,169,169,169,,,,,,,,,,,,,,,,,main,None,None,1,1.4988813998643309,565.5136601999402,None,None,1,,,,,,,,,,,,,,012,2022-05-11_15h53.01.774,Main,2022.1.1,59.782904364413525,
positive,red,1,None,None,,,,,,,,,0,170,170,170,,,,,,,,,,,,,,,,,main,None,None,1,1.499218099983409,568.0160247001331,None,None,1,,,,,,,,,,,,,,012,2022-05-11_15h53.01.774,Main,2022.1.1,59.782904364413525,
negative,blue,2,None,k,,,,,,,,,0,171,171,171,,,,,,,,,,,,,,,,,main,None,None,1,1.501431800192222,570.5157924001105,None,None,1,,,,,,,,,,,,,,012,2022-05-11_15h53.01.774,Main,2022.1.1,59.782904364413525,
positive,blue,2,k,None,,,,,,,,,0,172,172,172,,,,,,,,,,,,,,,,,main,k,k,1,0.7299317000433803,573.0134835001081,None,None,0,,,,,,,,,,,,,,012,2022-05-11_15h53.01.774,Main,2022.1.1,59.782904364413525,
negative,yellow,2,k,None,,,,,,,,,0,173,173,173,,,,,,,,,,,,,,,,,main,k,k,1,0.816641400102526,574.7464712001383,None,None,0,,,,,,,,,,,,,,012,2022-05-11_15h53.01.774,Main,2022.1.1,59.782904364413525,
positive,yellow,2,None,k,,,,,,,,,0,174,174,174,,,,,,,,,,,,,,,,,main,None,None,1,1.5008233000990003,576.5631111999974,None,None,1,,,,,,,,,,,,,,012,2022-05-11_15h53.01.774,Main,2022.1.1,59.782904364413525,
negative,blue,2,None,k,,,,,,,,,0,175,175,175,,,,,,,,,,,,,,,,,main,None,None,1,1.5022752999793738,579.0658307000995,None,None,1,,,,,,,,,,,,,,012,2022-05-11_15h53.01.774,Main,2022.1.1,59.782904364413525,
positive,blue,1,k,None,,,,,,,,,0,176,176,176,,,,,,,,,,,,,,,,,main,k,k,1,0.7603444999549538,581.5670875001233,None,None,0,,,,,,,,,,,,,,012,2022-05-11_15h53.01.774,Main,2022.1.1,59.782904364413525,
positive,yellow,1,None,k,,,,,,,,,0,177,177,177,,,,,,,,,,,,,,,,,main,None,None,1,1.4985430999659002,583.3299155000132,None,None,1,,,,,,,,,,,,,,012,2022-05-11_15h53.01.774,Main,2022.1.1,59.782904364413525,
positive,blue,1,k,None,,,,,,,,,0,178,178,178,,,,,,,,,,,,,,,,,main,k,k,1,0.9829027999658138,585.8296378999949,None,None,0,,,,,,,,,,,,,,012,2022-05-11_15h53.01.774,Main,2022.1.1,59.782904364413525,
positive,yellow,2,None,k,,,,,,,,,0,179,179,179,,,,,,,,,,,,,,,,,main,None,None,1,1.4988718000240624,587.8156018001027,None,None,1,,,,,,,,,,,,,,012,2022-05-11_15h53.01.774,Main,2022.1.1,59.782904364413525,
positive,blue,1,k,None,,,,,,,,,0,180,180,180,,,,,,,,,,,,,,,,,main,k,k,1,0.8370387000031769,590.313093099976,None,None,0,,,,,,,,,,,,,,012,2022-05-11_15h53.01.774,Main,2022.1.1,59.782904364413525,
negative,red,1,None,None,,,,,,,,,0,181,181,181,,,,,,,,,,,,,,,,,main,None,None,1,1.4943822000641376,592.1534955999814,None,None,1,,,,,,,,,,,,,,012,2022-05-11_15h53.01.774,Main,2022.1.1,59.782904364413525,
negative,blue,1,None,k,,,,,,,,,0,182,182,182,,,,,,,,,,,,,,,,,main,None,None,1,1.5013824000488967,594.6463109001052,None,None,1,,,,,,,,,,,,,,012,2022-05-11_15h53.01.774,Main,2022.1.1,59.782904364413525,
negative,yellow,2,k,None,,,,,,,,,0,183,183,183,,,,,,,,,,,,,,,,,main,k,k,1,0.6981538999825716,597.1463138000108,None,None,0,,,,,,,,,,,,,,012,2022-05-11_15h53.01.774,Main,2022.1.1,59.782904364413525,
positive,yellow,2,None,k,,,,,,,,,0,184,184,184,,,,,,,,,,,,,,,,,main,None,None,1,1.500099000055343,598.8459501001053,None,None,1,,,,,,,,,,,,,,012,2022-05-11_15h53.01.774,Main,2022.1.1,59.782904364413525,
positive,yellow,1,None,k,,,,,,,,,0,185,185,185,,,,,,,,,,,,,,,,,main,None,None,1,1.4990288000553846,601.348619800061,None,None,1,,,,,,,,,,,,,,012,2022-05-11_15h53.01.774,Main,2022.1.1,59.782904364413525,
positive,red,2,None,None,,,,,,,,,0,186,186,186,,,,,,,,,,,,,,,,,main,None,None,1,1.4971128997858614,603.8515137000941,None,None,1,,,,,,,,,,,,,,012,2022-05-11_15h53.01.774,Main,2022.1.1,59.782904364413525,
positive,blue,1,k,None,,,,,,,,,0,187,187,187,,,,,,,,,,,,,,,,,main,k,k,1,0.7986328999977559,606.3458221999463,None,None,0,,,,,,,,,,,,,,012,2022-05-11_15h53.01.774,Main,2022.1.1,59.782904364413525,
negative,yellow,1,k,None,,,,,,,,,0,188,188,188,,,,,,,,,,,,,,,,,main,k,k,1,1.234730700030923,608.1485441999976,None,None,0,,,,,,,,,,,,,,012,2022-05-11_15h53.01.774,Main,2022.1.1,59.782904364413525,
positive,yellow,2,None,k,,,,,,,,,0,189,189,189,,,,,,,,,,,,,,,,,main,None,None,1,1.4963298998773098,610.3817720001098,None,None,1,,,,,,,,,,,,,,012,2022-05-11_15h53.01.774,Main,2022.1.1,59.782904364413525,
negative,yellow,2,k,None,,,,,,,,,0,190,190,190,,,,,,,,,,,,,,,,,main,k,k,1,0.882332099834457,612.8789661999326,None,None,0,,,,,,,,,,,,,,012,2022-05-11_15h53.01.774,Main,2022.1.1,59.782904364413525,
negative,yellow,1,k,None,,,,,,,,,0,191,191,191,,,,,,,,,,,,,,,,,main,k,k,1,0.865930899977684,614.7649948000908,None,None,0,,,,,,,,,,,,,,012,2022-05-11_15h53.01.774,Main,2022.1.1,59.782904364413525,
positive,blue,2,k,None,,,,,,,,,0,192,192,192,,,,,,,,,,,,,,,,,main,k,k,1,0.8393669999204576,616.6316532001365,None,None,0,,,,,,,,,,,,,,012,2022-05-11_15h53.01.774,Main,2022.1.1,59.782904364413525,
positive,yellow,1,None,k,,,,,,,,,0,193,193,193,,,,,,,,,,,,,,,,,main,None,None,1,1.49250050005503,618.473297999939,None,None,1,,,,,,,,,,,,,,012,2022-05-11_15h53.01.774,Main,2022.1.1,59.782904364413525,
negative,red,2,None,None,,,,,,,,,0,194,194,194,,,,,,,,,,,,,,,,,main,None,None,1,1.4979756001848727,620.9624568999279,None,None,1,,,,,,,,,,,,,,012,2022-05-11_15h53.01.774,Main,2022.1.1,59.782904364413525,
positive,red,1,None,None,,,,,,,,,0,195,195,195,,,,,,,,,,,,,,,,,main,None,None,1,1.4990140998270363,623.4623537000734,None,None,1,,,,,,,,,,,,,,012,2022-05-11_15h53.01.774,Main,2022.1.1,59.782904364413525,
negative,blue,1,None,k,,,,,,,,,0,196,196,196,,,,,,,,,,,,,,,,,main,None,None,1,1.4989941001404077,625.9647113999818,None,None,1,,,,,,,,,,,,,,012,2022-05-11_15h53.01.774,Main,2022.1.1,59.782904364413525,
positive,blue,2,k,None,,,,,,,,,0,197,197,197,,,,,,,,,,,,,,,,,main,k,k,1,0.7327971998602152,628.4620340999682,None,None,0,,,,,,,,,,,,,,012,2022-05-11_15h53.01.774,Main,2022.1.1,59.782904364413525,
negative,blue,2,None,k,,,,,,,,,0,198,198,198,,,,,,,,,,,,,,,,,main,None,None,1,1.4987967000342906,630.1980292999651,None,None,1,,,,,,,,,,,,,,012,2022-05-11_15h53.01.774,Main,2022.1.1,59.782904364413525,
negative,blue,2,None,k,,,,,,,,,0,199,199,199,,,,,,,,,,,,,,,,,main,None,None,1,1.4990761000663042,632.6978921000846,None,None,1,,,,,,,,,,,,,,012,2022-05-11_15h53.01.774,Main,2022.1.1,59.782904364413525,
positive,blue,2,k,None,,,,,,,,,0,200,200,200,,,,,,,,,,,,,,,,,main,k,k,1,0.7494902999605983,635.1954290000722,None,None,0,,,,,,,,,,,,,,012,2022-05-11_15h53.01.774,Main,2022.1.1,59.782904364413525,
positive,blue,2,k,None,,,,,,,,,0,201,201,201,,,,,,,,,,,,,,,,,main,k,k,1,0.6321465000510216,636.9453835999593,None,None,0,,,,,,,,,,,,,,012,2022-05-11_15h53.01.774,Main,2022.1.1,59.782904364413525,
negative,yellow,2,k,None,,,,,,,,,0,202,202,202,,,,,,,,,,,,,,,,,main,k,k,1,0.8157671999651939,638.5786995999515,None,None,0,,,,,,,,,,,,,,012,2022-05-11_15h53.01.774,Main,2022.1.1,59.782904364413525,
positive,red,1,None,None,,,,,,,,,0,203,203,203,,,,,,,,,,,,,,,,,main,None,None,1,1.4995001000352204,640.3952862001024,None,None,1,,,,,,,,,,,,,,012,2022-05-11_15h53.01.774,Main,2022.1.1,59.782904364413525,
negative,blue,2,None,k,,,,,,,,,0,204,204,204,,,,,,,,,,,,,,,,,main,None,None,1,1.5006519998423755,642.895273400005,None,None,1,,,,,,,,,,,,,,012,2022-05-11_15h53.01.774,Main,2022.1.1,59.782904364413525,
negative,red,1,None,None,,,,,,,,,0,205,205,205,,,,,,,,,,,,,,,,,main,None,None,1,1.4974730999674648,645.3952596001327,None,None,1,,,,,,,,,,,,,,012,2022-05-11_15h53.01.774,Main,2022.1.1,59.782904364413525,
negative,blue,2,None,k,,,,,,,,,0,206,206,206,,,,,,,,,,,,,,,,,main,None,None,1,1.500700999982655,647.8949361001141,None,None,1,,,,,,,,,,,,,,012,2022-05-11_15h53.01.774,Main,2022.1.1,59.782904364413525,
negative,yellow,2,k,None,,,,,,,,,0,207,207,207,,,,,,,,,,,,,,,,,main,k,k,1,1.4631089000031352,650.3975750999525,None,None,0,,,,,,,,,,,,,,012,2022-05-11_15h53.01.774,Main,2022.1.1,59.782904364413525,
positive,yellow,2,None,k,,,,,,,,,0,208,208,208,,,,,,,,,,,,,,,,,main,None,None,1,1.499872999964282,652.8614269001409,None,None,1,,,,,,,,,,,,,,012,2022-05-11_15h53.01.774,Main,2022.1.1,59.782904364413525,
negative,yellow,1,k,None,,,,,,,,,0,209,209,209,,,,,,,,,,,,,,,,,main,k,k,1,0.9316863000858575,655.3614579001442,None,None,0,,,,,,,,,,,,,,012,2022-05-11_15h53.01.774,Main,2022.1.1,59.782904364413525,
negative,red,2,None,None,,,,,,,,,0,210,210,210,,,,,,,,,,,,,,,,,main,None,None,1,1.5011845000553876,657.29507010011,None,None,1,,,,,,,,,,,,,,012,2022-05-11_15h53.01.774,Main,2022.1.1,59.782904364413525,
negative,blue,1,None,k,,,,,,,,,0,211,211,211,,,,,,,,,,,,,,,,,main,None,None,1,1.4971928999293596,659.7973673001397,None,None,1,,,,,,,,,,,,,,012,2022-05-11_15h53.01.774,Main,2022.1.1,59.782904364413525,
negative,yellow,1,k,None,,,,,,,,,0,212,212,212,,,,,,,,,,,,,,,,,main,k,k,1,0.7341454999987036,662.2946345000528,None,None,0,,,,,,,,,,,,,,012,2022-05-11_15h53.01.774,Main,2022.1.1,59.782904364413525,
positive,blue,1,k,None,,,,,,,,,0,213,213,213,,,,,,,,,,,,,,,,,main,k,k,1,0.7326713998336345,664.03059700015,None,None,0,,,,,,,,,,,,,,012,2022-05-11_15h53.01.774,Main,2022.1.1,59.782904364413525,
positive,blue,1,k,None,,,,,,,,,0,214,214,214,,,,,,,,,,,,,,,,,main,k,k,1,0.6296567998360842,665.7639331999235,None,None,0,,,,,,,,,,,,,,012,2022-05-11_15h53.01.774,Main,2022.1.1,59.782904364413525,
positive,yellow,1,None,k,,,,,,,,,0,215,215,215,,,,,,,,,,,,,,,,,main,None,None,1,1.4993428001180291,667.3947573001496,None,None,1,,,,,,,,,,,,,,012,2022-05-11_15h53.01.774,Main,2022.1.1,59.782904364413525,
positive,yellow,1,None,k,,,,,,,,,0,216,216,216,,,,,,,,,,,,,,,,,main,None,None,1,1.5008086999878287,669.8946855999529,None,None,1,,,,,,,,,,,,,,012,2022-05-11_15h53.01.774,Main,2022.1.1,59.782904364413525,
positive,yellow,2,None,k,,,,,,,,,0,217,217,217,,,,,,,,,,,,,,,,,main,None,None,1,1.4972965000197291,672.3969519000966,None,None,1,,,,,,,,,,,,,,012,2022-05-11_15h53.01.774,Main,2022.1.1,59.782904364413525,
negative,blue,1,None,k,,,,,,,,,0,218,218,218,,,,,,,,,,,,,,,,,main,None,None,1,1.5014633999671787,674.8942895999644,None,None,1,,,,,,,,,,,,,,012,2022-05-11_15h53.01.774,Main,2022.1.1,59.782904364413525,
positive,red,2,None,None,,,,,,,,,0,219,219,219,,,,,,,,,,,,,,,,,main,None,None,1,1.4978396999649704,677.397025299957,None,None,1,,,,,,,,,,,,,,012,2022-05-11_15h53.01.774,Main,2022.1.1,59.782904364413525,
positive,yellow,1,None,k,,,,,,,,,0,220,220,220,,,,,,,,,,,,,,,,,main,None,None,1,1.497278599999845,679.8969660000876,None,None,1,,,,,,,,,,,,,,012,2022-05-11_15h53.01.774,Main,2022.1.1,59.782904364413525,
positive,blue,1,k,None,,,,,,,,,0,221,221,221,,,,,,,,,,,,,,,,,main,k,k,1,0.8317944998852909,682.394139500102,None,None,0,,,,,,,,,,,,,,012,2022-05-11_15h53.01.774,Main,2022.1.1,59.782904364413525,
positive,yellow,2,None,k,,,,,,,,,0,222,222,222,,,,,,,,,,,,,,,,,main,None,None,1,1.504472800064832,684.2302389999386,None,None,1,,,,,,,,,,,,,,012,2022-05-11_15h53.01.774,Main,2022.1.1,59.782904364413525,
negative,yellow,1,k,None,,,,,,,,,0,223,223,223,,,,,,,,,,,,,,,,,main,k,k,1,0.8270950999576598,686.7311734000687,None,None,0,,,,,,,,,,,,,,012,2022-05-11_15h53.01.774,Main,2022.1.1,59.782904364413525,
positive,yellow,2,None,k,,,,,,,,,0,224,224,224,,,,,,,,,,,,,,,,,main,None,None,1,1.5003588001709431,688.5609281000216,None,None,1,,,,,,,,,,,,,,012,2022-05-11_15h53.01.774,Main,2022.1.1,59.782904364413525,
negative,yellow,2,k,None,,,,,,,,,0,225,225,225,,,,,,,,,,,,,,,,,main,k,k,1,0.7499846999999136,691.0606621999759,None,None,0,,,,,,,,,,,,,,012,2022-05-11_15h53.01.774,Main,2022.1.1,59.782904364413525,
negative,blue,2,None,k,,,,,,,,,0,226,226,226,,,,,,,,,,,,,,,,,main,None,None,1,1.4961787001229823,692.8133191999514,None,None,1,,,,,,,,,,,,,,012,2022-05-11_15h53.01.774,Main,2022.1.1,59.782904364413525,
positive,red,2,None,None,,,,,,,,,0,227,227,227,,,,,,,,,,,,,,,,,main,None,None,1,1.4999983999878168,695.316343100043,None,None,1,,,,,,,,,,,,,,012,2022-05-11_15h53.01.774,Main,2022.1.1,59.782904364413525,
positive,blue,2,k,None,,,,,,,,,0,228,228,228,,,,,,,,,,,,,,,,,main,k,k,1,0.7316691000014544,697.8105136000086,None,None,0,,,,,,,,,,,,,,012,2022-05-11_15h53.01.774,Main,2022.1.1,59.782904364413525,
negative,blue,1,None,k,,,,,,,,,0,229,229,229,,,,,,,,,,,,,,,,,main,None,None,1,1.4988564001396298,699.5465164999478,None,None,1,,,,,,,,,,,,,,012,2022-05-11_15h53.01.774,Main,2022.1.1,59.782904364413525,
positive,yellow,1,None,k,,,,,,,,,0,230,230,230,,,,,,,,,,,,,,,,,main,None,None,1,1.4989175000227988,702.0439949999563,None,None,1,,,,,,,,,,,,,,012,2022-05-11_15h53.01.774,Main,2022.1.1,59.782904364413525,
negative,blue,2,None,k,,,,,,,,,0,231,231,231,,,,,,,,,,,,,,,,,main,None,None,1,1.4987633998971432,704.5439369999804,None,None,1,,,,,,,,,,,,,,012,2022-05-11_15h53.01.774,Main,2022.1.1,59.782904364413525,
negative,red,1,None,None,,,,,,,,,0,232,232,232,,,,,,,,,,,,,,,,,main,None,None,1,1.5001248999033123,707.0462188001256,None,None,1,,,,,,,,,,,,,,012,2022-05-11_15h53.01.774,Main,2022.1.1,59.782904364413525,
positive,blue,2,k,None,,,,,,,,,0,233,233,233,,,,,,,,,,,,,,,,,main,k,k,1,0.7480533998459578,709.5437712999992,None,None,0,,,,,,,,,,,,,,012,2022-05-11_15h53.01.774,Main,2022.1.1,59.782904364413525,
negative,yellow,1,k,None,,,,,,,,,0,234,234,234,,,,,,,,,,,,,,,,,main,k,k,1,0.7656658000778407,711.2961103999987,None,None,0,,,,,,,,,,,,,,012,2022-05-11_15h53.01.774,Main,2022.1.1,59.782904364413525,
negative,yellow,2,k,None,,,,,,,,,0,235,235,235,,,,,,,,,,,,,,,,,main,k,k,1,0.8333374001085758,713.060416100081,None,None,0,,,,,,,,,,,,,,012,2022-05-11_15h53.01.774,Main,2022.1.1,59.782904364413525,
positive,red,1,None,None,,,,,,,,,0,236,236,236,,,,,,,,,,,,,,,,,main,None,None,1,1.5014814999885857,714.8934452999383,None,None,1,,,,,,,,,,,,,,012,2022-05-11_15h53.01.774,Main,2022.1.1,59.782904364413525,
negative,red,2,None,None,,,,,,,,,0,237,237,237,,,,,,,,,,,,,,,,,main,None,None,1,1.49889549985528,717.3962022000924,None,None,1,,,,,,,,,,,,,,012,2022-05-11_15h53.01.774,Main,2022.1.1,59.782904364413525,
negative,blue,1,None,k,,,,,,,,,0,238,238,238,,,,,,,,,,,,,,,,,main,None,None,1,1.4975841999985278,719.8961030999199,None,None,1,,,,,,,,,,,,,,012,2022-05-11_15h53.01.774,Main,2022.1.1,59.782904364413525,
positive,blue,1,k,None,,,,,,,,,0,239,239,239,,,,,,,,,,,,,,,,,main,k,k,1,0.6495480998419225,722.3933089000639,None,None,0,,,,,,,,,,,,,,012,2022-05-11_15h53.01.774,Main,2022.1.1,59.782904364413525,
,,,,,,,,,,,,,,,,,,,,,,,,,,,,,,,,,,,,,,,,,,,,,,,,,,,,,724.0460318000987,None,,,,,,
