distractor,target,set,ans1,ans2,rep_loop4.thisRepN,rep_loop4.thisTrialN,rep_loop4.thisN,rep_loop4.thisIndex,st2_prac_loop.thisRepN,st2_prac_loop.thisTrialN,st2_prac_loop.thisN,st2_prac_loop.thisIndex,st2_main_loop.thisRepN,st2_main_loop.thisTrialN,st2_main_loop.thisN,st2_main_loop.thisIndex,image_4.started,image_4.stopped,sound_2.started,sound_2.stopped,key_resp_3.keys,key_resp_3.rt,image_5.started,image_5.stopped,st_prac_back.started,st_prac_back.stopped,st_prac_text.started,st_prac_text.stopped,st_fix_back.started,st_fix_back.stopped,st_fix_2.started,st_fix_2.stopped,main_prac,st_ans,st_res,st_corr,st_rt,st_back.started,st_back.stopped,st2_resp.keys,st2_resp.corr,st_main_back.started,st_main_back.stopped,st_main_text.started,st_main_text.stopped,mouse_4.x,mouse_4.y,mouse_4.leftButton,mouse_4.midButton,mouse_4.rightButton,mouse_4.started,mouse_4.stopped,text_2.started,text_2.stopped,id*,date,expName,psychopyVersion,frameRate,
negative,yellow,1,k,None,,,,,0,0,0,0,,,,,30.322468200000003,None,35.87838619996328,None,space,56.33448399999179,92.24042119993828,None,98.12409879988991,None,98.12409879988991,None,100.12407179991715,None,100.12407179991715,None,prac,None,None,1,1.4969430000055581,102.13809469994158,None,None,1,,,,,,,,,,,,,,013,2022-05-11_17h46.18.880,Main,2022.1.1,60.02314496118163,
positive,red,2,None,None,,,,,0,1,1,1,,,,,,,,,,,,,,,,,,,,,prac,None,None,1,1.5001009998377413,104.63826349982992,None,None,1,,,,,,,,,,,,,,013,2022-05-11_17h46.18.880,Main,2022.1.1,60.02314496118163,
negative,blue,2,None,k,,,,,0,2,2,2,,,,,,,,,,,,,,,,,,,,,prac,k,k,1,0.8617050999309868,107.13821080001071,None,None,0,,,,,,,,,,,,,,013,2022-05-11_17h46.18.880,Main,2022.1.1,60.02314496118163,
positive,yellow,1,None,k,,,,,0,3,3,3,,,,,,,,,,,,,,,,,,,,,prac,k,k,1,0.9994655000045896,109.00445639993995,None,None,0,,,,,,,,,,,,,,013,2022-05-11_17h46.18.880,Main,2022.1.1,60.02314496118163,
negative,blue,2,None,k,,,,,0,4,4,4,,,,,,,,,,,,,,,,,,,,,prac,k,k,1,0.8991241999901831,111.00718660000712,None,None,0,,,,,,,,,,,,,,013,2022-05-11_17h46.18.880,Main,2022.1.1,60.02314496118163,
negative,blue,1,None,k,,,,,0,5,5,5,,,,,,,,,,,,,,,,,,,,,prac,k,k,1,0.9332544000353664,112.90479239984415,None,None,0,,,,,,,,,,,,,,013,2022-05-11_17h46.18.880,Main,2022.1.1,60.02314496118163,
negative,yellow,2,k,None,,,,,0,6,6,6,,,,,,,,,,,,,,,,,,,,,prac,None,None,1,1.4977178999688476,114.8379686998669,None,None,1,,,,,,,,,,,,,,013,2022-05-11_17h46.18.880,Main,2022.1.1,60.02314496118163,
negative,red,1,None,None,,,,,0,7,7,7,,,,,,,,,,,,,,,,,,,,,prac,None,None,1,1.4995401999913156,117.33791449991986,None,None,1,,,,,,,,,,,,,,013,2022-05-11_17h46.18.880,Main,2022.1.1,60.02314496118163,
positive,yellow,2,None,k,,,,,0,8,8,8,,,,,,,,,,,,,,,,,,,,,prac,k,k,1,0.8314459000248462,119.83782979985699,None,None,0,,,,,,,,,,,,,,013,2022-05-11_17h46.18.880,Main,2022.1.1,60.02314496118163,
negative,yellow,1,k,None,,,,,0,9,9,9,,,,,,,,,,,,,,,,,,,,,prac,None,None,1,1.4994417999405414,121.67106779990718,None,None,1,,,,,,,,,,,,,,013,2022-05-11_17h46.18.880,Main,2022.1.1,60.02314496118163,
positive,yellow,2,None,k,,,,,0,10,10,10,,,,,,,,,,,,,,,,,,,,,prac,k,k,1,0.9980701000895351,124.1710534999147,None,None,0,,,,,,,,,,,,,,013,2022-05-11_17h46.18.880,Main,2022.1.1,60.02314496118163,
negative,yellow,2,k,None,,,,,0,11,11,11,,,,,,,,,,,,,,,,,,,,,prac,None,None,1,1.4996066000312567,126.17107389983721,None,None,1,,,,,,,,,,,,,,013,2022-05-11_17h46.18.880,Main,2022.1.1,60.02314496118163,
negative,red,2,None,None,,,,,0,12,12,12,,,,,,,,,,,,,,,,,,,,,prac,None,None,1,1.497904899995774,128.67095559998415,None,None,1,,,,,,,,,,,,,,013,2022-05-11_17h46.18.880,Main,2022.1.1,60.02314496118163,
positive,red,1,None,None,,,,,0,13,13,13,,,,,,,,,,,,,,,,,,,,,prac,None,None,1,1.4986084999982268,131.1709269999992,None,None,1,,,,,,,,,,,,,,013,2022-05-11_17h46.18.880,Main,2022.1.1,60.02314496118163,
positive,blue,2,k,None,,,,,0,14,14,14,,,,,,,,,,,,,,,,,,,,,prac,None,None,1,1.5019344000611454,133.67083119996823,None,None,1,,,,,,,,,,,,,,013,2022-05-11_17h46.18.880,Main,2022.1.1,60.02314496118163,
positive,blue,1,k,None,,,,,0,15,15,15,,,,,,,,,,,,,,,,,,,,,prac,None,None,1,1.4955301000736654,136.17083740001544,None,None,1,,,,,,,,,,,,,,013,2022-05-11_17h46.18.880,Main,2022.1.1,60.02314496118163,
negative,blue,1,None,k,,,,,0,16,16,16,,,,,,,,,,,,,,,,,,,,,prac,k,k,1,1.3988711000420153,138.67069919989444,None,None,0,,,,,,,,,,,,,,013,2022-05-11_17h46.18.880,Main,2022.1.1,60.02314496118163,
positive,blue,2,k,None,,,,,0,17,17,17,,,,,,,,,,,,,,,,,,,,,prac,None,None,1,1.499771500006318,141.07075429987162,None,None,1,,,,,,,,,,,,,,013,2022-05-11_17h46.18.880,Main,2022.1.1,60.02314496118163,
positive,blue,1,k,None,,,,,0,18,18,18,,,,,,,,,,,,,,,,,,,,,prac,None,None,1,1.4989320000167936,143.5705708998721,None,None,1,,,,,,,,,,,,,,013,2022-05-11_17h46.18.880,Main,2022.1.1,60.02314496118163,
positive,yellow,1,None,k,,,,,0,19,19,19,,,,,,,,,,,,,,,,,,,,,prac,k,k,1,0.9314792999066412,146.07057859981433,None,None,0,,,,,,,,,,,,,,013,2022-05-11_17h46.18.880,Main,2022.1.1,60.02314496118163,
negative,yellow,1,k,None,,,,,1,0,20,0,,,,,,,,,,,,,,,,,,,,,prac,None,None,1,1.4983179999981076,148.00394199998118,None,None,1,,,,,,,,,,,,,,013,2022-05-11_17h46.18.880,Main,2022.1.1,60.02314496118163,
positive,red,2,None,None,,,,,1,1,21,1,,,,,,,,,,,,,,,,,,,,,prac,None,None,1,1.5017886001151055,150.50359789980575,None,None,1,,,,,,,,,,,,,,013,2022-05-11_17h46.18.880,Main,2022.1.1,60.02314496118163,
negative,blue,2,None,k,,,,,1,2,22,2,,,,,,,,,,,,,,,,,,,,,prac,k,k,1,0.7305301001761109,153.0038958999794,None,None,0,,,,,,,,,,,,,,013,2022-05-11_17h46.18.880,Main,2022.1.1,60.02314496118163,
positive,yellow,1,None,k,,,,,1,3,23,3,,,,,,,,,,,,,,,,,,,,,prac,k,k,1,0.9989608000032604,154.73960289987735,None,None,0,,,,,,,,,,,,,,013,2022-05-11_17h46.18.880,Main,2022.1.1,60.02314496118163,
negative,blue,2,None,k,,,,,1,4,24,4,,,,,,,,,,,,,,,,,,,,,prac,k,k,1,0.7655369997955859,156.7370742999483,None,None,0,,,,,,,,,,,,,,013,2022-05-11_17h46.18.880,Main,2022.1.1,60.02314496118163,
negative,blue,1,None,k,,,,,1,5,25,5,,,,,,,,,,,,,,,,,,,,,prac,k,k,1,1.1991609001997858,158.50380539987236,None,None,0,,,,,,,,,,,,,,013,2022-05-11_17h46.18.880,Main,2022.1.1,60.02314496118163,
negative,yellow,2,k,None,,,,,1,6,26,6,,,,,,,,,,,,,,,,,,,,,prac,None,None,1,1.4985820997972041,160.70375230000354,None,None,1,,,,,,,,,,,,,,013,2022-05-11_17h46.18.880,Main,2022.1.1,60.02314496118163,
negative,red,1,None,None,,,,,1,7,27,7,,,,,,,,,,,,,,,,,,,,,prac,None,None,1,1.4996276998426765,163.2033507998567,None,None,1,,,,,,,,,,,,,,013,2022-05-11_17h46.18.880,Main,2022.1.1,60.02314496118163,
positive,yellow,2,None,k,,,,,1,8,28,8,,,,,,,,,,,,,,,,,,,,,prac,k,k,1,0.729692499851808,165.70370959979482,None,None,0,,,,,,,,,,,,,,013,2022-05-11_17h46.18.880,Main,2022.1.1,60.02314496118163,
negative,yellow,1,k,None,,,,,1,9,29,9,,,,,,,,,,,,,,,,,,,,,prac,None,None,1,1.4993529000785202,167.4393428999465,None,None,1,,,,,,,,,,,,,,013,2022-05-11_17h46.18.880,Main,2022.1.1,60.02314496118163,
positive,yellow,2,None,k,,,,,1,10,30,10,,,,,,,,,,,,,,,,,,,,,prac,k,k,1,0.815085900016129,169.93651019991376,None,None,0,,,,,,,,,,,,,,013,2022-05-11_17h46.18.880,Main,2022.1.1,60.02314496118163,
negative,yellow,2,k,None,,,,,1,11,31,11,,,,,,,,,,,,,,,,,,,,,prac,None,None,1,1.5001707000192255,171.75350250001065,None,None,1,,,,,,,,,,,,,,013,2022-05-11_17h46.18.880,Main,2022.1.1,60.02314496118163,
negative,red,2,None,None,,,,,1,12,32,12,,,,,,,,,,,,,,,,,,,,,prac,None,None,1,1.4979606000706553,174.25896120001562,None,None,1,,,,,,,,,,,,,,013,2022-05-11_17h46.18.880,Main,2022.1.1,60.02314496118163,
positive,red,1,None,None,,,,,1,13,33,13,,,,,,,,,,,,,,,,,,,,,prac,None,None,1,1.499108700081706,176.75348589988425,None,None,1,,,,,,,,,,,,,,013,2022-05-11_17h46.18.880,Main,2022.1.1,60.02314496118163,
positive,blue,2,k,None,,,,,1,14,34,14,,,,,,,,,,,,,,,,,,,,,prac,None,None,1,1.5047276001423597,179.25323159992695,None,None,1,,,,,,,,,,,,,,013,2022-05-11_17h46.18.880,Main,2022.1.1,60.02314496118163,
positive,blue,1,k,None,,,,,1,15,35,15,,,,,,,,,,,,,,,,,,,,,prac,None,None,1,1.4932699999772012,181.75720529980026,None,None,1,,,,,,,,,,,,,,013,2022-05-11_17h46.18.880,Main,2022.1.1,60.02314496118163,
negative,blue,1,None,k,,,,,1,16,36,16,,,,,,,,,,,,,,,,,,,,,prac,k,k,1,0.5992933001834899,184.2530769999139,None,None,0,,,,,,,,,,,,,,013,2022-05-11_17h46.18.880,Main,2022.1.1,60.02314496118163,
positive,blue,2,k,None,,,,,1,17,37,17,,,,,,,,,,,,,,,,,,,,,prac,None,None,1,1.4989845999516547,185.8530839998275,None,None,1,,,,,,,,,,,,,,013,2022-05-11_17h46.18.880,Main,2022.1.1,60.02314496118163,
positive,blue,1,k,None,,,,,1,18,38,18,,,,,,,,,,,,,,,,,,,,,prac,None,None,1,1.5002450000029057,188.35298379999585,None,None,1,,,,,,,,,,,,,,013,2022-05-11_17h46.18.880,Main,2022.1.1,60.02314496118163,
positive,yellow,1,None,k,,,,,1,19,39,19,,,,,,,,,,,,,,,,,,,,,prac,k,k,1,0.6982580001931638,190.85297659994103,None,None,0,,,,,,,,,,,,,,013,2022-05-11_17h46.18.880,Main,2022.1.1,60.02314496118163,
,,,,,,,,,,,,,,,,,,,,,,,,,,,,,,,,,,,,,,,,,,192.5529270998668,None,192.5529270998668,None,0.062037036,-0.11111111,0,0,0,0.013688599923625588,None,,,013,2022-05-11_17h46.18.880,Main,2022.1.1,60.02314496118163,
negative,yellow,2,k,None,,,,,,,,,0,0,0,0,,,,,,,,,,,,,193.56961379991844,None,193.56961379991844,None,main,None,None,1,1.497464699903503,195.5961115998216,None,None,1,,,,,,,,,,,,,,013,2022-05-11_17h46.18.880,Main,2022.1.1,60.02314496118163,
positive,red,1,None,None,,,,,,,,,0,1,1,1,,,,,,,,,,,,,,,,,main,None,None,1,1.4991884999908507,198.1025292999111,None,None,1,,,,,,,,,,,,,,013,2022-05-11_17h46.18.880,Main,2022.1.1,60.02314496118163,
positive,blue,2,k,None,,,,,,,,,0,2,2,2,,,,,,,,,,,,,,,,,main,None,None,1,1.501527599990368,200.60288679995574,None,None,1,,,,,,,,,,,,,,013,2022-05-11_17h46.18.880,Main,2022.1.1,60.02314496118163,
positive,blue,1,k,None,,,,,,,,,0,3,3,3,,,,,,,,,,,,,,,,,main,None,None,1,1.4968177999835461,203.10519769997336,None,None,1,,,,,,,,,,,,,,013,2022-05-11_17h46.18.880,Main,2022.1.1,60.02314496118163,
negative,yellow,2,k,None,,,,,,,,,0,4,4,4,,,,,,,,,,,,,,,,,main,None,None,1,1.4988436999265105,205.60279719997197,None,None,1,,,,,,,,,,,,,,013,2022-05-11_17h46.18.880,Main,2022.1.1,60.02314496118163,
positive,yellow,2,None,k,,,,,,,,,0,5,5,5,,,,,,,,,,,,,,,,,main,k,k,1,0.7995738999452442,208.1025442997925,None,None,0,,,,,,,,,,,,,,013,2022-05-11_17h46.18.880,Main,2022.1.1,60.02314496118163,
negative,blue,2,None,k,,,,,,,,,0,6,6,6,,,,,,,,,,,,,,,,,main,k,k,1,0.8487970000132918,209.90255729993805,None,None,0,,,,,,,,,,,,,,013,2022-05-11_17h46.18.880,Main,2022.1.1,60.02314496118163,
positive,red,2,None,None,,,,,,,,,0,7,7,7,,,,,,,,,,,,,,,,,main,None,None,1,1.4998131999745965,211.75255989981815,None,None,1,,,,,,,,,,,,,,013,2022-05-11_17h46.18.880,Main,2022.1.1,60.02314496118163,
positive,yellow,1,None,k,,,,,,,,,0,8,8,8,,,,,,,,,,,,,,,,,main,k,k,1,0.8149007000029087,214.25225379993208,None,None,0,,,,,,,,,,,,,,013,2022-05-11_17h46.18.880,Main,2022.1.1,60.02314496118163,
negative,red,1,None,None,,,,,,,,,0,9,9,9,,,,,,,,,,,,,,,,,main,None,None,1,1.4989634999074042,216.0692374999635,None,None,1,,,,,,,,,,,,,,013,2022-05-11_17h46.18.880,Main,2022.1.1,60.02314496118163,
positive,yellow,1,None,k,,,,,,,,,0,10,10,10,,,,,,,,,,,,,,,,,main,k,k,1,0.8208995999302715,218.56910169986077,None,None,0,,,,,,,,,,,,,,013,2022-05-11_17h46.18.880,Main,2022.1.1,60.02314496118163,
negative,yellow,1,k,None,,,,,,,,,0,11,11,11,,,,,,,,,,,,,,,,,main,None,None,1,1.4936002001632005,220.39444829989225,None,None,1,,,,,,,,,,,,,,013,2022-05-11_17h46.18.880,Main,2022.1.1,60.02314496118163,
negative,yellow,1,k,None,,,,,,,,,0,12,12,12,,,,,,,,,,,,,,,,,main,None,None,1,1.5019122001249343,222.8857171998825,None,None,1,,,,,,,,,,,,,,013,2022-05-11_17h46.18.880,Main,2022.1.1,60.02314496118163,
negative,red,2,None,None,,,,,,,,,0,13,13,13,,,,,,,,,,,,,,,,,main,None,None,1,1.496877099853009,225.38567169988528,None,None,1,,,,,,,,,,,,,,013,2022-05-11_17h46.18.880,Main,2022.1.1,60.02314496118163,
positive,yellow,2,None,k,,,,,,,,,0,14,14,14,,,,,,,,,,,,,,,,,main,k,k,1,0.9159056998323649,227.88550859992392,None,None,0,,,,,,,,,,,,,,013,2022-05-11_17h46.18.880,Main,2022.1.1,60.02314496118163,
positive,blue,1,k,None,,,,,,,,,0,15,15,15,,,,,,,,,,,,,,,,,main,None,None,1,1.4988971999846399,229.80222640000284,None,None,1,,,,,,,,,,,,,,013,2022-05-11_17h46.18.880,Main,2022.1.1,60.02314496118163,
negative,blue,1,None,k,,,,,,,,,0,16,16,16,,,,,,,,,,,,,,,,,main,k,k,1,0.8084072999190539,232.30207489989698,None,None,0,,,,,,,,,,,,,,013,2022-05-11_17h46.18.880,Main,2022.1.1,60.02314496118163,
positive,blue,2,k,None,,,,,,,,,0,17,17,17,,,,,,,,,,,,,,,,,main,None,None,1,1.48977530002594,234.11472299997695,None,None,1,,,,,,,,,,,,,,013,2022-05-11_17h46.18.880,Main,2022.1.1,60.02314496118163,
negative,blue,2,None,k,,,,,,,,,0,18,18,18,,,,,,,,,,,,,,,,,main,k,k,1,0.7328429000917822,236.60201069992036,None,None,0,,,,,,,,,,,,,,013,2022-05-11_17h46.18.880,Main,2022.1.1,60.02314496118163,
negative,blue,1,None,k,,,,,,,,,0,19,19,19,,,,,,,,,,,,,,,,,main,k,k,1,1.0824446000624448,238.33546500001103,None,None,0,,,,,,,,,,,,,,013,2022-05-11_17h46.18.880,Main,2022.1.1,60.02314496118163,
negative,blue,1,None,k,,,,,,,,,0,20,20,20,,,,,,,,,,,,,,,,,main,k,k,1,0.7975844999309629,240.41835829988122,None,None,0,,,,,,,,,,,,,,013,2022-05-11_17h46.18.880,Main,2022.1.1,60.02314496118163,
negative,blue,2,None,k,,,,,,,,,0,21,21,21,,,,,,,,,,,,,,,,,main,k,k,1,0.815970900002867,242.21831569983624,None,None,0,,,,,,,,,,,,,,013,2022-05-11_17h46.18.880,Main,2022.1.1,60.02314496118163,
negative,red,1,None,None,,,,,,,,,0,22,22,22,,,,,,,,,,,,,,,,,main,None,None,1,1.498686800012365,244.03528109984472,None,None,1,,,,,,,,,,,,,,013,2022-05-11_17h46.18.880,Main,2022.1.1,60.02314496118163,
positive,red,2,None,None,,,,,,,,,0,23,23,23,,,,,,,,,,,,,,,,,main,None,None,1,1.4992053001187742,246.53524989983998,None,None,1,,,,,,,,,,,,,,013,2022-05-11_17h46.18.880,Main,2022.1.1,60.02314496118163,
negative,red,2,None,None,,,,,,,,,0,24,24,24,,,,,,,,,,,,,,,,,main,None,None,1,1.5008200001902878,249.03502329997718,None,None,1,,,,,,,,,,,,,,013,2022-05-11_17h46.18.880,Main,2022.1.1,60.02314496118163,
positive,blue,2,k,None,,,,,,,,,0,25,25,25,,,,,,,,,,,,,,,,,main,None,None,1,1.497440200066194,251.53503269981593,None,None,1,,,,,,,,,,,,,,013,2022-05-11_17h46.18.880,Main,2022.1.1,60.02314496118163,
negative,yellow,1,k,None,,,,,,,,,0,26,26,26,,,,,,,,,,,,,,,,,main,None,None,1,1.4992428000550717,254.0348966999445,None,None,1,,,,,,,,,,,,,,013,2022-05-11_17h46.18.880,Main,2022.1.1,60.02314496118163,
positive,blue,2,k,None,,,,,,,,,0,27,27,27,,,,,,,,,,,,,,,,,main,None,None,1,1.4985036998987198,256.5372373999562,None,None,1,,,,,,,,,,,,,,013,2022-05-11_17h46.18.880,Main,2022.1.1,60.02314496118163,
negative,blue,2,None,k,,,,,,,,,0,28,28,28,,,,,,,,,,,,,,,,,main,k,k,1,0.9481236999854445,259.03485940000974,None,None,0,,,,,,,,,,,,,,013,2022-05-11_17h46.18.880,Main,2022.1.1,60.02314496118163,
positive,red,1,None,None,,,,,,,,,0,29,29,29,,,,,,,,,,,,,,,,,main,None,None,1,1.4999833998735994,260.9847826999612,None,None,1,,,,,,,,,,,,,,013,2022-05-11_17h46.18.880,Main,2022.1.1,60.02314496118163,
positive,blue,1,k,None,,,,,,,,,0,30,30,30,,,,,,,,,,,,,,,,,main,None,None,1,1.498198099900037,263.4906317999121,None,None,1,,,,,,,,,,,,,,013,2022-05-11_17h46.18.880,Main,2022.1.1,60.02314496118163,
positive,yellow,1,None,k,,,,,,,,,0,31,31,31,,,,,,,,,,,,,,,,,main,k,k,1,0.8154724000487477,265.98699989984743,None,None,0,,,,,,,,,,,,,,013,2022-05-11_17h46.18.880,Main,2022.1.1,60.02314496118163,
negative,yellow,2,k,None,,,,,,,,,0,32,32,32,,,,,,,,,,,,,,,,,main,None,None,1,1.498474400024861,267.80142999999225,None,None,1,,,,,,,,,,,,,,013,2022-05-11_17h46.18.880,Main,2022.1.1,60.02314496118163,
negative,blue,1,None,k,,,,,,,,,0,33,33,33,,,,,,,,,,,,,,,,,main,k,k,1,1.1827048999257386,270.30125789996237,None,None,0,,,,,,,,,,,,,,013,2022-05-11_17h46.18.880,Main,2022.1.1,60.02314496118163,
positive,blue,1,k,None,,,,,,,,,0,34,34,34,,,,,,,,,,,,,,,,,main,None,None,1,1.500054200179875,272.48455519997515,None,None,1,,,,,,,,,,,,,,013,2022-05-11_17h46.18.880,Main,2022.1.1,60.02314496118163,
negative,yellow,1,k,None,,,,,,,,,0,35,35,35,,,,,,,,,,,,,,,,,main,None,None,1,1.498551799915731,274.98444129992276,None,None,1,,,,,,,,,,,,,,013,2022-05-11_17h46.18.880,Main,2022.1.1,60.02314496118163,
positive,yellow,2,None,k,,,,,,,,,0,36,36,36,,,,,,,,,,,,,,,,,main,k,k,1,0.7312614999245852,277.484495599987,None,None,0,,,,,,,,,,,,,,013,2022-05-11_17h46.18.880,Main,2022.1.1,60.02314496118163,
positive,yellow,2,None,k,,,,,,,,,0,37,37,37,,,,,,,,,,,,,,,,,main,k,k,1,0.815391399897635,279.2177726000082,None,None,0,,,,,,,,,,,,,,013,2022-05-11_17h46.18.880,Main,2022.1.1,60.02314496118163,
negative,yellow,2,k,None,,,,,,,,,0,38,38,38,,,,,,,,,,,,,,,,,main,None,None,1,1.4994196000043303,281.0340879999567,None,None,1,,,,,,,,,,,,,,013,2022-05-11_17h46.18.880,Main,2022.1.1,60.02314496118163,
positive,yellow,1,None,k,,,,,,,,,0,39,39,39,,,,,,,,,,,,,,,,,main,k,k,1,0.765566400019452,283.5368732998613,None,None,0,,,,,,,,,,,,,,013,2022-05-11_17h46.18.880,Main,2022.1.1,60.02314496118163,
negative,yellow,2,k,None,,,,,,,,,0,40,40,40,,,,,,,,,,,,,,,,,main,None,None,1,1.499321199953556,285.3010592998471,None,None,1,,,,,,,,,,,,,,013,2022-05-11_17h46.18.880,Main,2022.1.1,60.02314496118163,
positive,blue,2,k,None,,,,,,,,,0,41,41,41,,,,,,,,,,,,,,,,,main,None,None,1,1.4992143001873046,287.8063931998331,None,None,1,,,,,,,,,,,,,,013,2022-05-11_17h46.18.880,Main,2022.1.1,60.02314496118163,
positive,blue,2,k,None,,,,,,,,,0,42,42,42,,,,,,,,,,,,,,,,,main,None,None,1,1.5006738998927176,290.30060249986127,None,None,1,,,,,,,,,,,,,,013,2022-05-11_17h46.18.880,Main,2022.1.1,60.02314496118163,
negative,blue,2,None,k,,,,,,,,,0,43,43,43,,,,,,,,,,,,,,,,,main,k,k,1,0.763649299973622,292.80330079980195,None,None,0,,,,,,,,,,,,,,013,2022-05-11_17h46.18.880,Main,2022.1.1,60.02314496118163,
negative,red,1,None,None,,,,,,,,,0,44,44,44,,,,,,,,,,,,,,,,,main,None,None,1,1.4988471998367459,294.56741539994255,None,None,1,,,,,,,,,,,,,,013,2022-05-11_17h46.18.880,Main,2022.1.1,60.02314496118163,
negative,yellow,1,k,None,,,,,,,,,0,45,45,45,,,,,,,,,,,,,,,,,main,None,None,1,1.4986156998202205,297.0673336999025,None,None,1,,,,,,,,,,,,,,013,2022-05-11_17h46.18.880,Main,2022.1.1,60.02314496118163,
negative,yellow,1,k,None,,,,,,,,,0,46,46,46,,,,,,,,,,,,,,,,,main,None,None,1,1.4991886001080275,299.56735249981284,None,None,1,,,,,,,,,,,,,,013,2022-05-11_17h46.18.880,Main,2022.1.1,60.02314496118163,
positive,red,1,None,None,,,,,,,,,0,47,47,47,,,,,,,,,,,,,,,,,main,None,None,1,1.4990077000111341,302.0672102998942,None,None,1,,,,,,,,,,,,,,013,2022-05-11_17h46.18.880,Main,2022.1.1,60.02314496118163,
positive,yellow,1,None,k,,,,,,,,,0,48,48,48,,,,,,,,,,,,,,,,,main,k,k,1,1.3995237001217902,304.56720119994134,None,None,0,,,,,,,,,,,,,,013,2022-05-11_17h46.18.880,Main,2022.1.1,60.02314496118163,
negative,blue,1,None,k,,,,,,,,,0,49,49,49,,,,,,,,,,,,,,,,,main,k,k,1,1.232185099972412,306.9672038999852,None,None,0,,,,,,,,,,,,,,013,2022-05-11_17h46.18.880,Main,2022.1.1,60.02314496118163,
positive,yellow,2,None,k,,,,,,,,,0,50,50,50,,,,,,,,,,,,,,,,,main,k,k,1,0.766429299954325,309.2002232000232,None,None,0,,,,,,,,,,,,,,013,2022-05-11_17h46.18.880,Main,2022.1.1,60.02314496118163,
negative,blue,1,None,k,,,,,,,,,0,51,51,51,,,,,,,,,,,,,,,,,main,k,k,1,0.7491075999569148,310.9696380000096,None,None,0,,,,,,,,,,,,,,013,2022-05-11_17h46.18.880,Main,2022.1.1,60.02314496118163,
positive,red,2,None,None,,,,,,,,,0,52,52,52,,,,,,,,,,,,,,,,,main,None,None,1,1.4991910001263022,312.71716409991495,None,None,1,,,,,,,,,,,,,,013,2022-05-11_17h46.18.880,Main,2022.1.1,60.02314496118163,
positive,yellow,2,None,k,,,,,,,,,0,53,53,53,,,,,,,,,,,,,,,,,main,k,k,1,0.7650741001125425,315.2169607998803,None,None,0,,,,,,,,,,,,,,013,2022-05-11_17h46.18.880,Main,2022.1.1,60.02314496118163,
negative,red,2,None,None,,,,,,,,,0,54,54,54,,,,,,,,,,,,,,,,,main,None,None,1,1.4993726999964565,316.98333369987085,None,None,1,,,,,,,,,,,,,,013,2022-05-11_17h46.18.880,Main,2022.1.1,60.02314496118163,
positive,yellow,1,None,k,,,,,,,,,0,55,55,55,,,,,,,,,,,,,,,,,main,k,k,1,0.6660684999078512,319.4836826999672,None,None,0,,,,,,,,,,,,,,013,2022-05-11_17h46.18.880,Main,2022.1.1,60.02314496118163,
negative,blue,2,None,k,,,,,,,,,0,56,56,56,,,,,,,,,,,,,,,,,main,k,k,1,0.7823508998844773,321.1503198000137,None,None,0,,,,,,,,,,,,,,013,2022-05-11_17h46.18.880,Main,2022.1.1,60.02314496118163,
positive,blue,1,k,None,,,,,,,,,0,57,57,57,,,,,,,,,,,,,,,,,main,None,None,1,1.4996884998399764,322.93352139997296,None,None,1,,,,,,,,,,,,,,013,2022-05-11_17h46.18.880,Main,2022.1.1,60.02314496118163,
positive,blue,1,k,None,,,,,,,,,0,58,58,58,,,,,,,,,,,,,,,,,main,None,None,1,1.4978330999147147,325.4333861998748,None,None,1,,,,,,,,,,,,,,013,2022-05-11_17h46.18.880,Main,2022.1.1,60.02314496118163,
negative,yellow,2,k,None,,,,,,,,,0,59,59,59,,,,,,,,,,,,,,,,,main,None,None,1,1.4991036001592875,327.93343560001813,None,None,1,,,,,,,,,,,,,,013,2022-05-11_17h46.18.880,Main,2022.1.1,60.02314496118163,
positive,red,2,None,None,,,,,,,,,0,60,60,60,,,,,,,,,,,,,,,,,main,None,None,1,1.5002818000502884,330.43335219984874,None,None,1,,,,,,,,,,,,,,013,2022-05-11_17h46.18.880,Main,2022.1.1,60.02314496118163,
negative,yellow,1,k,None,,,,,,,,,0,61,61,61,,,,,,,,,,,,,,,,,main,None,None,1,1.4976675000507385,332.93326059984975,None,None,1,,,,,,,,,,,,,,013,2022-05-11_17h46.18.880,Main,2022.1.1,60.02314496118163,
negative,red,1,None,None,,,,,,,,,0,62,62,62,,,,,,,,,,,,,,,,,main,None,None,1,1.4995512999594212,335.4331455999054,None,None,1,,,,,,,,,,,,,,013,2022-05-11_17h46.18.880,Main,2022.1.1,60.02314496118163,
negative,blue,1,None,k,,,,,,,,,0,63,63,63,,,,,,,,,,,,,,,,,main,k,k,1,0.8655016999691725,337.9333173998166,None,None,0,,,,,,,,,,,,,,013,2022-05-11_17h46.18.880,Main,2022.1.1,60.02314496118163,
positive,blue,2,k,None,,,,,,,,,0,64,64,64,,,,,,,,,,,,,,,,,main,None,None,1,1.4987422998528928,339.7997188998852,None,None,1,,,,,,,,,,,,,,013,2022-05-11_17h46.18.880,Main,2022.1.1,60.02314496118163,
negative,yellow,2,k,None,,,,,,,,,0,65,65,65,,,,,,,,,,,,,,,,,main,None,None,1,1.4995362998452038,342.2997465999797,None,None,1,,,,,,,,,,,,,,013,2022-05-11_17h46.18.880,Main,2022.1.1,60.02314496118163,
positive,yellow,2,None,k,,,,,,,,,0,66,66,66,,,,,,,,,,,,,,,,,main,k,k,1,0.7483415000606328,344.79968369985,None,None,0,,,,,,,,,,,,,,013,2022-05-11_17h46.18.880,Main,2022.1.1,60.02314496118163,
positive,yellow,2,None,k,,,,,,,,,0,67,67,67,,,,,,,,,,,,,,,,,main,k,k,1,0.7326040999032557,346.5496131000109,None,None,0,,,,,,,,,,,,,,013,2022-05-11_17h46.18.880,Main,2022.1.1,60.02314496118163,
positive,red,1,None,None,,,,,,,,,0,68,68,68,,,,,,,,,,,,,,,,,main,None,None,1,1.4995625999290496,348.2829583999701,None,None,1,,,,,,,,,,,,,,013,2022-05-11_17h46.18.880,Main,2022.1.1,60.02314496118163,
positive,yellow,1,None,k,,,,,,,,,0,69,69,69,,,,,,,,,,,,,,,,,main,k,k,1,0.9151556000579149,350.7828700998798,None,None,0,,,,,,,,,,,,,,013,2022-05-11_17h46.18.880,Main,2022.1.1,60.02314496118163,
negative,yellow,2,k,None,,,,,,,,,0,70,70,70,,,,,,,,,,,,,,,,,main,None,None,1,1.499282999895513,352.6995019998867,None,None,1,,,,,,,,,,,,,,013,2022-05-11_17h46.18.880,Main,2022.1.1,60.02314496118163,
positive,yellow,1,None,k,,,,,,,,,0,71,71,71,,,,,,,,,,,,,,,,,main,k,k,1,0.7169541998300701,355.1994090999942,None,None,0,,,,,,,,,,,,,,013,2022-05-11_17h46.18.880,Main,2022.1.1,60.02314496118163,
negative,blue,1,None,k,,,,,,,,,0,72,72,72,,,,,,,,,,,,,,,,,main,k,k,1,0.8469811000395566,356.91613419982605,None,None,0,,,,,,,,,,,,,,013,2022-05-11_17h46.18.880,Main,2022.1.1,60.02314496118163,
negative,red,2,None,None,,,,,,,,,0,73,73,73,,,,,,,,,,,,,,,,,main,None,None,1,1.4991003000177443,358.7660408997908,None,None,1,,,,,,,,,,,,,,013,2022-05-11_17h46.18.880,Main,2022.1.1,60.02314496118163,
positive,blue,2,k,None,,,,,,,,,0,74,74,74,,,,,,,,,,,,,,,,,main,None,None,1,1.5004227999597788,361.26592049980536,None,None,1,,,,,,,,,,,,,,013,2022-05-11_17h46.18.880,Main,2022.1.1,60.02314496118163,
negative,blue,2,None,k,,,,,,,,,0,75,75,75,,,,,,,,,,,,,,,,,main,k,k,1,0.7986347998958081,363.76591750001535,None,None,0,,,,,,,,,,,,,,013,2022-05-11_17h46.18.880,Main,2022.1.1,60.02314496118163,
negative,blue,2,None,k,,,,,,,,,0,76,76,76,,,,,,,,,,,,,,,,,main,k,k,1,0.7633615001104772,365.5682804000098,None,None,0,,,,,,,,,,,,,,013,2022-05-11_17h46.18.880,Main,2022.1.1,60.02314496118163,
negative,yellow,1,k,None,,,,,,,,,0,77,77,77,,,,,,,,,,,,,,,,,main,None,None,1,1.5017432000022382,367.3322332999669,None,None,1,,,,,,,,,,,,,,013,2022-05-11_17h46.18.880,Main,2022.1.1,60.02314496118163,
positive,blue,1,k,None,,,,,,,,,0,78,78,78,,,,,,,,,,,,,,,,,main,None,None,1,1.4967447998933494,369.834955799859,None,None,1,,,,,,,,,,,,,,013,2022-05-11_17h46.18.880,Main,2022.1.1,60.02314496118163,
positive,blue,1,k,None,,,,,,,,,0,79,79,79,,,,,,,,,,,,,,,,,main,None,None,1,1.4989217000547796,372.33241579984315,None,None,1,,,,,,,,,,,,,,013,2022-05-11_17h46.18.880,Main,2022.1.1,60.02314496118163,
positive,red,2,None,None,,,,,,,,,0,80,80,80,,,,,,,,,,,,,,,,,main,None,None,1,1.4991658998187631,374.83232139982283,None,None,1,,,,,,,,,,,,,,013,2022-05-11_17h46.18.880,Main,2022.1.1,60.02314496118163,
positive,yellow,2,None,k,,,,,,,,,0,81,81,81,,,,,,,,,,,,,,,,,main,k,k,1,0.7994374998379499,377.33231909992173,None,None,0,,,,,,,,,,,,,,013,2022-05-11_17h46.18.880,Main,2022.1.1,60.02314496118163,
positive,blue,1,k,None,,,,,,,,,0,82,82,82,,,,,,,,,,,,,,,,,main,None,None,1,1.4990253001451492,379.1322077999357,None,None,1,,,,,,,,,,,,,,013,2022-05-11_17h46.18.880,Main,2022.1.1,60.02314496118163,
negative,yellow,2,k,None,,,,,,,,,0,83,83,83,,,,,,,,,,,,,,,,,main,None,None,1,1.4991863002069294,381.6322232999373,None,None,1,,,,,,,,,,,,,,013,2022-05-11_17h46.18.880,Main,2022.1.1,60.02314496118163,
positive,blue,2,k,None,,,,,,,,,0,84,84,84,,,,,,,,,,,,,,,,,main,None,None,1,1.498787400079891,384.13217119988985,None,None,1,,,,,,,,,,,,,,013,2022-05-11_17h46.18.880,Main,2022.1.1,60.02314496118163,
positive,yellow,1,None,k,,,,,,,,,0,85,85,85,,,,,,,,,,,,,,,,,main,k,k,1,0.9662305000238121,386.6320894998498,None,None,0,,,,,,,,,,,,,,013,2022-05-11_17h46.18.880,Main,2022.1.1,60.02314496118163,
positive,blue,2,k,None,,,,,,,,,0,86,86,86,,,,,,,,,,,,,,,,,main,None,None,1,1.4993059001863003,388.5989013998769,None,None,1,,,,,,,,,,,,,,013,2022-05-11_17h46.18.880,Main,2022.1.1,60.02314496118163,
positive,blue,1,k,None,,,,,,,,,0,87,87,87,,,,,,,,,,,,,,,,,main,None,None,1,1.4988684998825192,391.09903509984724,None,None,1,,,,,,,,,,,,,,013,2022-05-11_17h46.18.880,Main,2022.1.1,60.02314496118163,
negative,yellow,2,k,None,,,,,,,,,0,88,88,88,,,,,,,,,,,,,,,,,main,None,k,0,0.765691300155595,393.598626999883,None,None,1,,,,,,,,,,,,,,013,2022-05-11_17h46.18.880,Main,2022.1.1,60.02314496118163,
negative,blue,2,None,k,,,,,,,,,0,89,89,89,,,,,,,,,,,,,,,,,main,k,k,1,0.9511776999570429,396.3652162000071,None,None,0,,,,,,,,,,,,,,013,2022-05-11_17h46.18.880,Main,2022.1.1,60.02314496118163,
positive,yellow,2,None,k,,,,,,,,,0,90,90,90,,,,,,,,,,,,,,,,,main,k,k,1,0.7824909000191838,398.31519889994524,None,None,0,,,,,,,,,,,,,,013,2022-05-11_17h46.18.880,Main,2022.1.1,60.02314496118163,
negative,yellow,1,k,None,,,,,,,,,0,91,91,91,,,,,,,,,,,,,,,,,main,None,None,1,1.498500500107184,400.098356799921,None,None,1,,,,,,,,,,,,,,013,2022-05-11_17h46.18.880,Main,2022.1.1,60.02314496118163,
negative,red,2,None,None,,,,,,,,,0,92,92,92,,,,,,,,,,,,,,,,,main,None,None,1,1.5011800001375377,402.5982168999035,None,None,1,,,,,,,,,,,,,,013,2022-05-11_17h46.18.880,Main,2022.1.1,60.02314496118163,
negative,blue,2,None,k,,,,,,,,,0,93,93,93,,,,,,,,,,,,,,,,,main,k,k,1,0.7971354001201689,405.09849080001004,None,None,0,,,,,,,,,,,,,,013,2022-05-11_17h46.18.880,Main,2022.1.1,60.02314496118163,
negative,blue,1,None,k,,,,,,,,,0,94,94,94,,,,,,,,,,,,,,,,,main,k,k,1,0.949063700158149,406.9009131998755,None,None,0,,,,,,,,,,,,,,013,2022-05-11_17h46.18.880,Main,2022.1.1,60.02314496118163,
negative,blue,1,None,k,,,,,,,,,0,95,95,95,,,,,,,,,,,,,,,,,main,k,k,1,0.7990776000078768,408.8482882999815,None,None,0,,,,,,,,,,,,,,013,2022-05-11_17h46.18.880,Main,2022.1.1,60.02314496118163,
negative,red,1,None,None,,,,,,,,,0,96,96,96,,,,,,,,,,,,,,,,,main,None,None,1,1.498571699950844,410.6481955999043,None,None,1,,,,,,,,,,,,,,013,2022-05-11_17h46.18.880,Main,2022.1.1,60.02314496118163,
positive,yellow,1,None,k,,,,,,,,,0,97,97,97,,,,,,,,,,,,,,,,,main,k,k,1,0.617655900074169,413.1483202998061,None,None,0,,,,,,,,,,,,,,013,2022-05-11_17h46.18.880,Main,2022.1.1,60.02314496118163,
negative,yellow,1,k,None,,,,,,,,,0,98,98,98,,,,,,,,,,,,,,,,,main,None,None,1,1.5001519999932498,414.7648229999468,None,None,1,,,,,,,,,,,,,,013,2022-05-11_17h46.18.880,Main,2022.1.1,60.02314496118163,
positive,red,1,None,None,,,,,,,,,0,99,99,99,,,,,,,,,,,,,,,,,main,None,None,1,1.4964153000619262,417.26477279979736,None,None,1,,,,,,,,,,,,,,013,2022-05-11_17h46.18.880,Main,2022.1.1,60.02314496118163,
positive,blue,1,k,None,,,,,,,,,0,100,100,100,,,,,,,,,,,,,,,,,main,None,None,1,1.4990804998669773,419.77020889986306,None,None,1,,,,,,,,,,,,,,013,2022-05-11_17h46.18.880,Main,2022.1.1,60.02314496118163,
negative,yellow,1,k,None,,,,,,,,,0,101,101,101,,,,,,,,,,,,,,,,,main,None,None,1,1.5005939998663962,422.2644625999965,None,None,1,,,,,,,,,,,,,,013,2022-05-11_17h46.18.880,Main,2022.1.1,60.02314496118163,
negative,blue,2,None,k,,,,,,,,,0,102,102,102,,,,,,,,,,,,,,,,,main,k,k,1,0.8137519001029432,424.7647384998854,None,None,0,,,,,,,,,,,,,,013,2022-05-11_17h46.18.880,Main,2022.1.1,60.02314496118163,
negative,yellow,2,k,None,,,,,,,,,0,103,103,103,,,,,,,,,,,,,,,,,main,None,None,1,1.4991100998595357,426.58134809997864,None,None,1,,,,,,,,,,,,,,013,2022-05-11_17h46.18.880,Main,2022.1.1,60.02314496118163,
positive,yellow,2,None,k,,,,,,,,,0,104,104,104,,,,,,,,,,,,,,,,,main,k,k,1,0.7658465998247266,429.081608899869,None,None,0,,,,,,,,,,,,,,013,2022-05-11_17h46.18.880,Main,2022.1.1,60.02314496118163,
positive,blue,1,k,None,,,,,,,,,0,105,105,105,,,,,,,,,,,,,,,,,main,None,None,1,1.498779800022021,430.8479011999443,None,None,1,,,,,,,,,,,,,,013,2022-05-11_17h46.18.880,Main,2022.1.1,60.02314496118163,
positive,blue,2,k,None,,,,,,,,,0,106,106,106,,,,,,,,,,,,,,,,,main,None,None,1,1.4990125999320298,433.34772409987636,None,None,1,,,,,,,,,,,,,,013,2022-05-11_17h46.18.880,Main,2022.1.1,60.02314496118163,
negative,blue,1,None,k,,,,,,,,,0,107,107,107,,,,,,,,,,,,,,,,,main,k,k,1,0.8662666000891477,435.84772209986113,None,None,0,,,,,,,,,,,,,,013,2022-05-11_17h46.18.880,Main,2022.1.1,60.02314496118163,
positive,yellow,2,None,k,,,,,,,,,0,108,108,108,,,,,,,,,,,,,,,,,main,k,k,1,0.7658661999739707,437.7144341999665,None,None,0,,,,,,,,,,,,,,013,2022-05-11_17h46.18.880,Main,2022.1.1,60.02314496118163,
negative,yellow,1,k,None,,,,,,,,,0,109,109,109,,,,,,,,,,,,,,,,,main,None,None,1,1.4987321998924017,439.48091719998047,None,None,1,,,,,,,,,,,,,,013,2022-05-11_17h46.18.880,Main,2022.1.1,60.02314496118163,
negative,blue,2,None,k,,,,,,,,,0,110,110,110,,,,,,,,,,,,,,,,,main,k,k,1,0.8494275000412017,441.9812068999745,None,None,0,,,,,,,,,,,,,,013,2022-05-11_17h46.18.880,Main,2022.1.1,60.02314496118163,
positive,blue,2,k,None,,,,,,,,,0,111,111,111,,,,,,,,,,,,,,,,,main,None,None,1,1.4995162000413984,443.8333816998638,None,None,1,,,,,,,,,,,,,,013,2022-05-11_17h46.18.880,Main,2022.1.1,60.02314496118163,
negative,blue,1,None,k,,,,,,,,,0,112,112,112,,,,,,,,,,,,,,,,,main,k,k,1,1.0818334999494255,446.33061770000495,None,None,0,,,,,,,,,,,,,,013,2022-05-11_17h46.18.880,Main,2022.1.1,60.02314496118163,
positive,yellow,1,None,k,,,,,,,,,0,113,113,113,,,,,,,,,,,,,,,,,main,k,k,1,0.6990750001277775,448.41429229988717,None,None,0,,,,,,,,,,,,,,013,2022-05-11_17h46.18.880,Main,2022.1.1,60.02314496118163,
negative,red,1,None,None,,,,,,,,,0,114,114,114,,,,,,,,,,,,,,,,,main,None,None,1,1.4995105999987572,450.116561899893,None,None,1,,,,,,,,,,,,,,013,2022-05-11_17h46.18.880,Main,2022.1.1,60.02314496118163,
positive,red,1,None,None,,,,,,,,,0,115,115,115,,,,,,,,,,,,,,,,,main,None,None,1,1.5020288999658078,452.61384060001,None,None,1,,,,,,,,,,,,,,013,2022-05-11_17h46.18.880,Main,2022.1.1,60.02314496118163,
negative,red,2,None,None,,,,,,,,,0,116,116,116,,,,,,,,,,,,,,,,,main,None,None,1,1.4972945000045002,455.11652039992623,None,None,1,,,,,,,,,,,,,,013,2022-05-11_17h46.18.880,Main,2022.1.1,60.02314496118163,
negative,yellow,2,k,None,,,,,,,,,0,117,117,117,,,,,,,,,,,,,,,,,main,None,None,1,1.4988920998293906,457.61640239995904,None,None,1,,,,,,,,,,,,,,013,2022-05-11_17h46.18.880,Main,2022.1.1,60.02314496118163,
positive,yellow,1,None,k,,,,,,,,,0,118,118,118,,,,,,,,,,,,,,,,,main,k,k,1,0.8141117999330163,460.1193959999364,None,None,0,,,,,,,,,,,,,,013,2022-05-11_17h46.18.880,Main,2022.1.1,60.02314496118163,
positive,red,2,None,None,,,,,,,,,0,119,119,119,,,,,,,,,,,,,,,,,main,None,None,1,1.4998500000219792,461.9304750999436,None,None,1,,,,,,,,,,,,,,013,2022-05-11_17h46.18.880,Main,2022.1.1,60.02314496118163,
positive,blue,2,k,None,,,,,,,,,0,120,120,120,,,,,,,,,,,,,,,,,main,None,None,1,1.4979768001940101,464.4304731998127,None,None,1,,,,,,,,,,,,,,013,2022-05-11_17h46.18.880,Main,2022.1.1,60.02314496118163,
negative,red,1,None,None,,,,,,,,,0,121,121,121,,,,,,,,,,,,,,,,,main,None,None,1,1.501296899979934,466.9303468998987,None,None,1,,,,,,,,,,,,,,013,2022-05-11_17h46.18.880,Main,2022.1.1,60.02314496118163,
positive,yellow,2,None,k,,,,,,,,,0,122,122,122,,,,,,,,,,,,,,,,,main,k,k,1,0.8303245999850333,469.43036589981057,None,None,0,,,,,,,,,,,,,,013,2022-05-11_17h46.18.880,Main,2022.1.1,60.02314496118163,
negative,red,2,None,None,,,,,,,,,0,123,123,123,,,,,,,,,,,,,,,,,main,None,None,1,1.4998279002029449,471.26359390001744,None,None,1,,,,,,,,,,,,,,013,2022-05-11_17h46.18.880,Main,2022.1.1,60.02314496118163,
negative,yellow,2,k,None,,,,,,,,,0,124,124,124,,,,,,,,,,,,,,,,,main,None,None,1,1.4984512999653816,473.76356049999595,None,None,1,,,,,,,,,,,,,,013,2022-05-11_17h46.18.880,Main,2022.1.1,60.02314496118163,
positive,red,1,None,None,,,,,,,,,0,125,125,125,,,,,,,,,,,,,,,,,main,None,None,1,1.4994568000547588,476.26392239984125,None,None,1,,,,,,,,,,,,,,013,2022-05-11_17h46.18.880,Main,2022.1.1,60.02314496118163,
negative,blue,2,None,k,,,,,,,,,0,126,126,126,,,,,,,,,,,,,,,,,main,k,k,1,0.9665341000072658,478.76343319984153,None,None,0,,,,,,,,,,,,,,013,2022-05-11_17h46.18.880,Main,2022.1.1,60.02314496118163,
negative,blue,1,None,k,,,,,,,,,0,127,127,127,,,,,,,,,,,,,,,,,main,k,k,1,0.7641306000296026,480.7324514000211,None,None,0,,,,,,,,,,,,,,013,2022-05-11_17h46.18.880,Main,2022.1.1,60.02314496118163,
negative,yellow,1,k,None,,,,,,,,,0,128,128,128,,,,,,,,,,,,,,,,,main,None,None,1,1.4988712000194937,482.4966561999172,None,None,1,,,,,,,,,,,,,,013,2022-05-11_17h46.18.880,Main,2022.1.1,60.02314496118163,
negative,yellow,1,k,None,,,,,,,,,0,129,129,129,,,,,,,,,,,,,,,,,main,None,None,1,1.5045586999040097,484.99665709980763,None,None,1,,,,,,,,,,,,,,013,2022-05-11_17h46.18.880,Main,2022.1.1,60.02314496118163,
positive,blue,1,k,None,,,,,,,,,0,130,130,130,,,,,,,,,,,,,,,,,main,None,None,1,1.4935290000867099,487.5003409998026,None,None,1,,,,,,,,,,,,,,013,2022-05-11_17h46.18.880,Main,2022.1.1,60.02314496118163,
negative,blue,1,None,k,,,,,,,,,0,131,131,131,,,,,,,,,,,,,,,,,main,k,k,1,0.9164861000608653,489.9965345999226,None,None,0,,,,,,,,,,,,,,013,2022-05-11_17h46.18.880,Main,2022.1.1,60.02314496118163,
negative,blue,2,None,k,,,,,,,,,0,132,132,132,,,,,,,,,,,,,,,,,main,k,k,1,0.8818029998801649,491.91568430000916,None,None,0,,,,,,,,,,,,,,013,2022-05-11_17h46.18.880,Main,2022.1.1,60.02314496118163,
positive,blue,2,k,None,,,,,,,,,0,133,133,133,,,,,,,,,,,,,,,,,main,None,None,1,1.5017731999978423,493.79621479986235,None,None,1,,,,,,,,,,,,,,013,2022-05-11_17h46.18.880,Main,2022.1.1,60.02314496118163,
positive,red,2,None,None,,,,,,,,,0,134,134,134,,,,,,,,,,,,,,,,,main,None,None,1,1.497026399942115,496.29895989992656,None,None,1,,,,,,,,,,,,,,013,2022-05-11_17h46.18.880,Main,2022.1.1,60.02314496118163,
negative,yellow,2,k,None,,,,,,,,,0,135,135,135,,,,,,,,,,,,,,,,,main,None,None,1,1.4991029999218881,498.7964891998563,None,None,1,,,,,,,,,,,,,,013,2022-05-11_17h46.18.880,Main,2022.1.1,60.02314496118163,
positive,yellow,2,None,k,,,,,,,,,0,136,136,136,,,,,,,,,,,,,,,,,main,k,k,1,0.6825538000557572,501.3021992999129,None,None,0,,,,,,,,,,,,,,013,2022-05-11_17h46.18.880,Main,2022.1.1,60.02314496118163,
positive,blue,1,k,None,,,,,,,,,0,137,137,137,,,,,,,,,,,,,,,,,main,None,None,1,1.4985096000600606,502.979590700008,None,None,1,,,,,,,,,,,,,,013,2022-05-11_17h46.18.880,Main,2022.1.1,60.02314496118163,
positive,yellow,1,None,k,,,,,,,,,0,138,138,138,,,,,,,,,,,,,,,,,main,k,k,1,0.8823613000568002,505.47958889999427,None,None,0,,,,,,,,,,,,,,013,2022-05-11_17h46.18.880,Main,2022.1.1,60.02314496118163,
positive,yellow,1,None,k,,,,,,,,,0,139,139,139,,,,,,,,,,,,,,,,,main,k,k,1,0.7833666000515223,507.36280040000565,None,None,0,,,,,,,,,,,,,,013,2022-05-11_17h46.18.880,Main,2022.1.1,60.02314496118163,
positive,yellow,1,None,k,,,,,,,,,0,140,140,140,,,,,,,,,,,,,,,,,main,k,k,1,0.7316169000696391,509.1461385998409,None,None,0,,,,,,,,,,,,,,013,2022-05-11_17h46.18.880,Main,2022.1.1,60.02314496118163,
positive,blue,1,k,None,,,,,,,,,0,141,141,141,,,,,,,,,,,,,,,,,main,None,None,1,1.499694500118494,510.87947319983505,None,None,1,,,,,,,,,,,,,,013,2022-05-11_17h46.18.880,Main,2022.1.1,60.02314496118163,
positive,blue,2,k,None,,,,,,,,,0,142,142,142,,,,,,,,,,,,,,,,,main,None,None,1,1.4978008999023587,513.3793390998617,None,None,1,,,,,,,,,,,,,,013,2022-05-11_17h46.18.880,Main,2022.1.1,60.02314496118163,
positive,yellow,2,None,k,,,,,,,,,0,143,143,143,,,,,,,,,,,,,,,,,main,k,k,1,0.9344097999855876,515.8794762999751,None,None,0,,,,,,,,,,,,,,013,2022-05-11_17h46.18.880,Main,2022.1.1,60.02314496118163,
negative,yellow,2,k,None,,,,,,,,,0,144,144,144,,,,,,,,,,,,,,,,,main,None,None,1,1.4981244998052716,517.8125793999061,None,None,1,,,,,,,,,,,,,,013,2022-05-11_17h46.18.880,Main,2022.1.1,60.02314496118163,
negative,blue,2,None,k,,,,,,,,,0,145,145,145,,,,,,,,,,,,,,,,,main,k,k,1,0.8810167999472469,520.3126374999993,None,None,0,,,,,,,,,,,,,,013,2022-05-11_17h46.18.880,Main,2022.1.1,60.02314496118163,
negative,red,1,None,None,,,,,,,,,0,146,146,146,,,,,,,,,,,,,,,,,main,None,None,1,1.4992575999349356,522.1960687998217,None,None,1,,,,,,,,,,,,,,013,2022-05-11_17h46.18.880,Main,2022.1.1,60.02314496118163,
positive,blue,1,k,None,,,,,,,,,0,147,147,147,,,,,,,,,,,,,,,,,main,None,None,1,1.496377700008452,524.6958369999193,None,None,1,,,,,,,,,,,,,,013,2022-05-11_17h46.18.880,Main,2022.1.1,60.02314496118163,
positive,yellow,1,None,k,,,,,,,,,0,148,148,148,,,,,,,,,,,,,,,,,main,k,k,1,1.0321992998942733,527.1957604999188,None,None,0,,,,,,,,,,,,,,013,2022-05-11_17h46.18.880,Main,2022.1.1,60.02314496118163,
negative,red,2,None,None,,,,,,,,,0,149,149,149,,,,,,,,,,,,,,,,,main,None,None,1,1.4996694000437856,529.2290164998267,None,None,1,,,,,,,,,,,,,,013,2022-05-11_17h46.18.880,Main,2022.1.1,60.02314496118163,
negative,blue,1,None,k,,,,,,,,,0,150,150,150,,,,,,,,,,,,,,,,,main,k,k,1,1.031609799945727,531.7289773998782,None,None,0,,,,,,,,,,,,,,013,2022-05-11_17h46.18.880,Main,2022.1.1,60.02314496118163,
negative,yellow,2,k,None,,,,,,,,,0,151,151,151,,,,,,,,,,,,,,,,,main,None,None,1,1.4998198999091983,533.762328799814,None,None,1,,,,,,,,,,,,,,013,2022-05-11_17h46.18.880,Main,2022.1.1,60.02314496118163,
negative,blue,2,None,k,,,,,,,,,0,152,152,152,,,,,,,,,,,,,,,,,main,k,k,1,0.7985464001540095,536.262331899954,None,None,0,,,,,,,,,,,,,,013,2022-05-11_17h46.18.880,Main,2022.1.1,60.02314496118163,
negative,yellow,1,k,None,,,,,,,,,0,153,153,153,,,,,,,,,,,,,,,,,main,None,None,1,1.4984379999805242,538.0623831998091,None,None,1,,,,,,,,,,,,,,013,2022-05-11_17h46.18.880,Main,2022.1.1,60.02314496118163,
negative,blue,1,None,k,,,,,,,,,0,154,154,154,,,,,,,,,,,,,,,,,main,k,k,1,0.8493824999313802,540.5621398999356,None,None,0,,,,,,,,,,,,,,013,2022-05-11_17h46.18.880,Main,2022.1.1,60.02314496118163,
positive,yellow,2,None,k,,,,,,,,,0,155,155,155,,,,,,,,,,,,,,,,,main,k,k,1,1.0825726999901235,542.4120986999478,None,None,0,,,,,,,,,,,,,,013,2022-05-11_17h46.18.880,Main,2022.1.1,60.02314496118163,
positive,red,2,None,None,,,,,,,,,0,156,156,156,,,,,,,,,,,,,,,,,main,None,None,1,1.499335299944505,544.4955196999945,None,None,1,,,,,,,,,,,,,,013,2022-05-11_17h46.18.880,Main,2022.1.1,60.02314496118163,
positive,red,1,None,None,,,,,,,,,0,157,157,157,,,,,,,,,,,,,,,,,main,None,None,1,1.5007551000453532,546.9950764998794,None,None,1,,,,,,,,,,,,,,013,2022-05-11_17h46.18.880,Main,2022.1.1,60.02314496118163,
positive,blue,2,k,None,,,,,,,,,0,158,158,158,,,,,,,,,,,,,,,,,main,None,None,1,1.49672339996323,549.4977899999358,None,None,1,,,,,,,,,,,,,,013,2022-05-11_17h46.18.880,Main,2022.1.1,60.02314496118163,
negative,yellow,1,k,None,,,,,,,,,0,159,159,159,,,,,,,,,,,,,,,,,main,None,None,1,1.499971600016579,551.9952661998104,None,None,1,,,,,,,,,,,,,,013,2022-05-11_17h46.18.880,Main,2022.1.1,60.02314496118163,
negative,red,2,None,None,,,,,,,,,0,160,160,160,,,,,,,,,,,,,,,,,main,None,None,1,1.497927299933508,554.4951599999331,None,None,1,,,,,,,,,,,,,,013,2022-05-11_17h46.18.880,Main,2022.1.1,60.02314496118163,
negative,blue,1,None,k,,,,,,,,,0,161,161,161,,,,,,,,,,,,,,,,,main,k,k,1,0.7830207999795675,556.9952926998958,None,None,0,,,,,,,,,,,,,,013,2022-05-11_17h46.18.880,Main,2022.1.1,60.02314496118163,
negative,blue,1,None,k,,,,,,,,,0,162,162,162,,,,,,,,,,,,,,,,,main,k,k,1,0.6656404999084771,558.7784029999748,None,None,0,,,,,,,,,,,,,,013,2022-05-11_17h46.18.880,Main,2022.1.1,60.02314496118163,
negative,yellow,1,k,None,,,,,,,,,0,163,163,163,,,,,,,,,,,,,,,,,main,None,None,1,1.498779800022021,560.4450190998614,None,None,1,,,,,,,,,,,,,,013,2022-05-11_17h46.18.880,Main,2022.1.1,60.02314496118163,
negative,yellow,1,k,None,,,,,,,,,0,164,164,164,,,,,,,,,,,,,,,,,main,None,None,1,1.4989438999909908,562.9450526998844,None,None,1,,,,,,,,,,,,,,013,2022-05-11_17h46.18.880,Main,2022.1.1,60.02314496118163,
positive,yellow,1,None,k,,,,,,,,,0,165,165,165,,,,,,,,,,,,,,,,,main,k,k,1,0.8838869000319391,565.4449062999338,None,None,0,,,,,,,,,,,,,,013,2022-05-11_17h46.18.880,Main,2022.1.1,60.02314496118163,
negative,red,1,None,None,,,,,,,,,0,166,166,166,,,,,,,,,,,,,,,,,main,None,None,1,1.497993600089103,567.3282724998426,None,None,1,,,,,,,,,,,,,,013,2022-05-11_17h46.18.880,Main,2022.1.1,60.02314496118163,
negative,yellow,2,k,None,,,,,,,,,0,167,167,167,,,,,,,,,,,,,,,,,main,None,None,1,1.4984420998953283,569.8280677997973,None,None,1,,,,,,,,,,,,,,013,2022-05-11_17h46.18.880,Main,2022.1.1,60.02314496118163,
positive,blue,2,k,None,,,,,,,,,0,168,168,168,,,,,,,,,,,,,,,,,main,None,None,1,1.5016433000564575,572.3281338999514,None,None,1,,,,,,,,,,,,,,013,2022-05-11_17h46.18.880,Main,2022.1.1,60.02314496118163,
positive,red,2,None,None,,,,,,,,,0,169,169,169,,,,,,,,,,,,,,,,,main,None,None,1,1.4966966998763382,574.8281576000154,None,None,1,,,,,,,,,,,,,,013,2022-05-11_17h46.18.880,Main,2022.1.1,60.02314496118163,
positive,red,1,None,None,,,,,,,,,0,170,170,170,,,,,,,,,,,,,,,,,main,None,None,1,1.5026207000482827,577.3280299999751,None,None,1,,,,,,,,,,,,,,013,2022-05-11_17h46.18.880,Main,2022.1.1,60.02314496118163,
negative,blue,2,None,k,,,,,,,,,0,171,171,171,,,,,,,,,,,,,,,,,main,k,k,1,0.7788416999392211,579.8281268000137,None,None,0,,,,,,,,,,,,,,013,2022-05-11_17h46.18.880,Main,2022.1.1,60.02314496118163,
positive,blue,2,k,None,,,,,,,,,0,172,172,172,,,,,,,,,,,,,,,,,main,None,None,1,1.4987988998182118,581.6110725998878,None,None,1,,,,,,,,,,,,,,013,2022-05-11_17h46.18.880,Main,2022.1.1,60.02314496118163,
negative,yellow,2,k,None,,,,,,,,,0,173,173,173,,,,,,,,,,,,,,,,,main,None,None,1,1.501881100004539,584.1110149999149,None,None,1,,,,,,,,,,,,,,013,2022-05-11_17h46.18.880,Main,2022.1.1,60.02314496118163,
positive,yellow,2,None,k,,,,,,,,,0,174,174,174,,,,,,,,,,,,,,,,,main,k,k,1,0.9470986998640001,586.6112734000199,None,None,0,,,,,,,,,,,,,,013,2022-05-11_17h46.18.880,Main,2022.1.1,60.02314496118163,
negative,blue,2,None,k,,,,,,,,,0,175,175,175,,,,,,,,,,,,,,,,,main,k,k,1,0.8323094001971185,588.561125200009,None,None,0,,,,,,,,,,,,,,013,2022-05-11_17h46.18.880,Main,2022.1.1,60.02314496118163,
positive,blue,1,k,None,,,,,,,,,0,176,176,176,,,,,,,,,,,,,,,,,main,None,None,1,1.499718400184065,590.3999856999144,None,None,1,,,,,,,,,,,,,,013,2022-05-11_17h46.18.880,Main,2022.1.1,60.02314496118163,
positive,yellow,1,None,k,,,,,,,,,0,177,177,177,,,,,,,,,,,,,,,,,main,k,k,1,1.34910160000436,592.8945567999035,None,None,0,,,,,,,,,,,,,,013,2022-05-11_17h46.18.880,Main,2022.1.1,60.02314496118163,
positive,blue,1,k,None,,,,,,,,,0,178,178,178,,,,,,,,,,,,,,,,,main,None,None,1,1.4985446000937372,595.2444757998455,None,None,1,,,,,,,,,,,,,,013,2022-05-11_17h46.18.880,Main,2022.1.1,60.02314496118163,
positive,yellow,2,None,k,,,,,,,,,0,179,179,179,,,,,,,,,,,,,,,,,main,k,k,1,1.015590599970892,597.7441934999079,None,None,0,,,,,,,,,,,,,,013,2022-05-11_17h46.18.880,Main,2022.1.1,60.02314496118163,
positive,blue,1,k,None,,,,,,,,,0,180,180,180,,,,,,,,,,,,,,,,,main,None,None,1,1.4989635001402348,599.7609045999125,None,None,1,,,,,,,,,,,,,,013,2022-05-11_17h46.18.880,Main,2022.1.1,60.02314496118163,
negative,red,1,None,None,,,,,,,,,0,181,181,181,,,,,,,,,,,,,,,,,main,None,None,1,1.50105269998312,602.2608685998712,None,None,1,,,,,,,,,,,,,,013,2022-05-11_17h46.18.880,Main,2022.1.1,60.02314496118163,
negative,blue,1,None,k,,,,,,,,,0,182,182,182,,,,,,,,,,,,,,,,,main,k,k,1,0.934895200189203,604.7607968999073,None,None,0,,,,,,,,,,,,,,013,2022-05-11_17h46.18.880,Main,2022.1.1,60.02314496118163,
negative,yellow,2,k,None,,,,,,,,,0,183,183,183,,,,,,,,,,,,,,,,,main,None,None,1,1.4950574999675155,606.7012086999603,None,None,1,,,,,,,,,,,,,,013,2022-05-11_17h46.18.880,Main,2022.1.1,60.02314496118163,
positive,yellow,2,None,k,,,,,,,,,0,184,184,184,,,,,,,,,,,,,,,,,main,k,k,1,1.6984310001134872,609.1940103999805,None,None,0,,,,,,,,,,,,,,013,2022-05-11_17h46.18.880,Main,2022.1.1,60.02314496118163,
positive,yellow,1,None,k,,,,,,,,,0,185,185,185,,,,,,,,,,,,,,,,,main,k,k,1,0.8352480998728424,612.8936632999685,None,None,0,,,,,,,,,,,,,,013,2022-05-11_17h46.18.880,Main,2022.1.1,60.02314496118163,
positive,red,2,None,None,,,,,,,,,0,186,186,186,,,,,,,,,,,,,,,,,main,None,None,1,1.4975626999512315,614.7270833998919,None,None,1,,,,,,,,,,,,,,013,2022-05-11_17h46.18.880,Main,2022.1.1,60.02314496118163,
positive,blue,1,k,None,,,,,,,,,0,187,187,187,,,,,,,,,,,,,,,,,main,None,None,1,1.4989177999086678,617.2296347999945,None,None,1,,,,,,,,,,,,,,013,2022-05-11_17h46.18.880,Main,2022.1.1,60.02314496118163,
negative,yellow,1,k,None,,,,,,,,,0,188,188,188,,,,,,,,,,,,,,,,,main,None,None,1,1.4999951999634504,619.7276160998736,None,None,1,,,,,,,,,,,,,,013,2022-05-11_17h46.18.880,Main,2022.1.1,60.02314496118163,
positive,yellow,2,None,k,,,,,,,,,0,189,189,189,,,,,,,,,,,,,,,,,main,k,k,1,0.8476834001485258,622.2270859999117,None,None,0,,,,,,,,,,,,,,013,2022-05-11_17h46.18.880,Main,2022.1.1,60.02314496118163,
negative,yellow,2,k,None,,,,,,,,,0,190,190,190,,,,,,,,,,,,,,,,,main,None,None,1,1.4987254999578,624.0770357998554,None,None,1,,,,,,,,,,,,,,013,2022-05-11_17h46.18.880,Main,2022.1.1,60.02314496118163,
negative,yellow,1,k,None,,,,,,,,,0,191,191,191,,,,,,,,,,,,,,,,,main,None,None,1,1.4993805999401957,626.5770117000211,None,None,1,,,,,,,,,,,,,,013,2022-05-11_17h46.18.880,Main,2022.1.1,60.02314496118163,
positive,blue,2,k,None,,,,,,,,,0,192,192,192,,,,,,,,,,,,,,,,,main,None,None,1,1.4997649998404086,629.0769476999994,None,None,1,,,,,,,,,,,,,,013,2022-05-11_17h46.18.880,Main,2022.1.1,60.02314496118163,
positive,yellow,1,None,k,,,,,,,,,0,193,193,193,,,,,,,,,,,,,,,,,main,k,k,1,0.7816715999506414,631.576815399807,None,None,0,,,,,,,,,,,,,,013,2022-05-11_17h46.18.880,Main,2022.1.1,60.02314496118163,
negative,red,2,None,None,,,,,,,,,0,194,194,194,,,,,,,,,,,,,,,,,main,None,None,1,1.4990116998087615,633.3601702998858,None,None,1,,,,,,,,,,,,,,013,2022-05-11_17h46.18.880,Main,2022.1.1,60.02314496118163,
positive,red,1,None,None,,,,,,,,,0,195,195,195,,,,,,,,,,,,,,,,,main,None,None,1,1.499452400021255,635.8602101998404,None,None,1,,,,,,,,,,,,,,013,2022-05-11_17h46.18.880,Main,2022.1.1,60.02314496118163,
negative,blue,1,None,k,,,,,,,,,0,196,196,196,,,,,,,,,,,,,,,,,main,k,k,1,1.0653796000406146,638.3598280998413,None,None,0,,,,,,,,,,,,,,013,2022-05-11_17h46.18.880,Main,2022.1.1,60.02314496118163,
positive,blue,2,k,None,,,,,,,,,0,197,197,197,,,,,,,,,,,,,,,,,main,None,None,1,1.4996981001459062,640.4268028999213,None,None,1,,,,,,,,,,,,,,013,2022-05-11_17h46.18.880,Main,2022.1.1,60.02314496118163,
negative,blue,2,None,k,,,,,,,,,0,198,198,198,,,,,,,,,,,,,,,,,main,k,k,1,0.9816834998782724,642.9266704998445,None,None,0,,,,,,,,,,,,,,013,2022-05-11_17h46.18.880,Main,2022.1.1,60.02314496118163,
negative,blue,2,None,k,,,,,,,,,0,199,199,199,,,,,,,,,,,,,,,,,main,k,k,1,0.732563299825415,644.9098618999124,None,None,0,,,,,,,,,,,,,,013,2022-05-11_17h46.18.880,Main,2022.1.1,60.02314496118163,
positive,blue,2,k,None,,,,,,,,,0,200,200,200,,,,,,,,,,,,,,,,,main,None,None,1,1.4989485999103636,646.6431580998469,None,None,1,,,,,,,,,,,,,,013,2022-05-11_17h46.18.880,Main,2022.1.1,60.02314496118163,
positive,blue,2,k,None,,,,,,,,,0,201,201,201,,,,,,,,,,,,,,,,,main,None,None,1,1.4988840001169592,649.143234899966,None,None,1,,,,,,,,,,,,,,013,2022-05-11_17h46.18.880,Main,2022.1.1,60.02314496118163,
negative,yellow,2,k,None,,,,,,,,,0,202,202,202,,,,,,,,,,,,,,,,,main,None,None,1,1.4991468000225723,651.643071099883,None,None,1,,,,,,,,,,,,,,013,2022-05-11_17h46.18.880,Main,2022.1.1,60.02314496118163,
positive,red,1,None,None,,,,,,,,,0,203,203,203,,,,,,,,,,,,,,,,,main,None,None,1,1.4992963999975473,654.1430507998448,None,None,1,,,,,,,,,,,,,,013,2022-05-11_17h46.18.880,Main,2022.1.1,60.02314496118163,
negative,blue,2,None,k,,,,,,,,,0,204,204,204,,,,,,,,,,,,,,,,,main,k,k,1,1.0488905999809504,656.6429630999919,None,None,0,,,,,,,,,,,,,,013,2022-05-11_17h46.18.880,Main,2022.1.1,60.02314496118163,
negative,red,1,None,None,,,,,,,,,0,205,205,205,,,,,,,,,,,,,,,,,main,None,None,1,1.5044762999750674,658.6930390999187,None,None,1,,,,,,,,,,,,,,013,2022-05-11_17h46.18.880,Main,2022.1.1,60.02314496118163,
negative,blue,2,None,k,,,,,,,,,0,206,206,206,,,,,,,,,,,,,,,,,main,k,k,1,0.7101102999877185,661.1971769998781,None,None,0,,,,,,,,,,,,,,013,2022-05-11_17h46.18.880,Main,2022.1.1,60.02314496118163,
negative,yellow,2,k,None,,,,,,,,,0,207,207,207,,,,,,,,,,,,,,,,,main,None,None,1,1.502157799899578,662.9094902998768,None,None,1,,,,,,,,,,,,,,013,2022-05-11_17h46.18.880,Main,2022.1.1,60.02314496118163,
positive,yellow,2,None,k,,,,,,,,,0,208,208,208,,,,,,,,,,,,,,,,,main,k,k,1,0.7293484001420438,665.4095203999896,None,None,0,,,,,,,,,,,,,,013,2022-05-11_17h46.18.880,Main,2022.1.1,60.02314496118163,
negative,yellow,1,k,None,,,,,,,,,0,209,209,209,,,,,,,,,,,,,,,,,main,None,None,1,1.5010907999239862,667.1427430999465,None,None,1,,,,,,,,,,,,,,013,2022-05-11_17h46.18.880,Main,2022.1.1,60.02314496118163,
negative,red,2,None,None,,,,,,,,,0,210,210,210,,,,,,,,,,,,,,,,,main,None,None,1,1.497529000043869,669.642742899945,None,None,1,,,,,,,,,,,,,,013,2022-05-11_17h46.18.880,Main,2022.1.1,60.02314496118163,
negative,blue,1,None,k,,,,,,,,,0,211,211,211,,,,,,,,,,,,,,,,,main,k,k,1,0.8485771000850946,672.1426303000189,None,None,0,,,,,,,,,,,,,,013,2022-05-11_17h46.18.880,Main,2022.1.1,60.02314496118163,
negative,yellow,1,k,None,,,,,,,,,0,212,212,212,,,,,,,,,,,,,,,,,main,None,None,1,1.499197900062427,673.9926186997909,None,None,1,,,,,,,,,,,,,,013,2022-05-11_17h46.18.880,Main,2022.1.1,60.02314496118163,
positive,blue,1,k,None,,,,,,,,,0,213,213,213,,,,,,,,,,,,,,,,,main,None,None,1,1.49953080015257,676.4927359998692,None,None,1,,,,,,,,,,,,,,013,2022-05-11_17h46.18.880,Main,2022.1.1,60.02314496118163,
positive,blue,1,k,None,,,,,,,,,0,214,214,214,,,,,,,,,,,,,,,,,main,None,None,1,1.4977939000818878,678.9925734999124,None,None,1,,,,,,,,,,,,,,013,2022-05-11_17h46.18.880,Main,2022.1.1,60.02314496118163,
positive,yellow,1,None,k,,,,,,,,,0,215,215,215,,,,,,,,,,,,,,,,,main,k,k,1,0.8660669999662787,681.4925768999383,None,None,0,,,,,,,,,,,,,,013,2022-05-11_17h46.18.880,Main,2022.1.1,60.02314496118163,
positive,yellow,1,None,k,,,,,,,,,0,216,216,216,,,,,,,,,,,,,,,,,main,k,k,1,0.5992580999154598,683.3590754999314,None,None,0,,,,,,,,,,,,,,013,2022-05-11_17h46.18.880,Main,2022.1.1,60.02314496118163,
positive,yellow,2,None,k,,,,,,,,,0,217,217,217,,,,,,,,,,,,,,,,,main,k,k,1,0.8660609999205917,684.9590704999864,None,None,0,,,,,,,,,,,,,,013,2022-05-11_17h46.18.880,Main,2022.1.1,60.02314496118163,
negative,blue,1,None,k,,,,,,,,,0,218,218,218,,,,,,,,,,,,,,,,,main,k,k,1,0.7987188999541104,686.8257176999468,None,None,0,,,,,,,,,,,,,,013,2022-05-11_17h46.18.880,Main,2022.1.1,60.02314496118163,
positive,red,2,None,None,,,,,,,,,0,219,219,219,,,,,,,,,,,,,,,,,main,None,None,1,1.5017967999447137,688.625373599818,None,None,1,,,,,,,,,,,,,,013,2022-05-11_17h46.18.880,Main,2022.1.1,60.02314496118163,
positive,yellow,1,None,k,,,,,,,,,0,220,220,220,,,,,,,,,,,,,,,,,main,k,k,1,0.9304516999982297,691.1280902998988,None,None,0,,,,,,,,,,,,,,013,2022-05-11_17h46.18.880,Main,2022.1.1,60.02314496118163,
positive,blue,1,k,None,,,,,,,,,0,221,221,221,,,,,,,,,,,,,,,,,main,None,None,1,1.5009515997953713,693.0590387999546,None,None,1,,,,,,,,,,,,,,013,2022-05-11_17h46.18.880,Main,2022.1.1,60.02314496118163,
positive,yellow,2,None,k,,,,,,,,,0,222,222,222,,,,,,,,,,,,,,,,,main,k,k,1,0.6806099999230355,695.5589336999692,None,None,0,,,,,,,,,,,,,,013,2022-05-11_17h46.18.880,Main,2022.1.1,60.02314496118163,
negative,yellow,1,k,None,,,,,,,,,0,223,223,223,,,,,,,,,,,,,,,,,main,None,None,1,1.5011805999092758,697.2421149997972,None,None,1,,,,,,,,,,,,,,013,2022-05-11_17h46.18.880,Main,2022.1.1,60.02314496118163,
positive,yellow,2,None,k,,,,,,,,,0,224,224,224,,,,,,,,,,,,,,,,,main,k,k,1,0.913539000088349,699.7422052999027,None,None,0,,,,,,,,,,,,,,013,2022-05-11_17h46.18.880,Main,2022.1.1,60.02314496118163,
negative,yellow,2,k,None,,,,,,,,,0,225,225,225,,,,,,,,,,,,,,,,,main,None,None,1,1.4989606000017375,701.65867169993,None,None,1,,,,,,,,,,,,,,013,2022-05-11_17h46.18.880,Main,2022.1.1,60.02314496118163,
negative,blue,2,None,k,,,,,,,,,0,226,226,226,,,,,,,,,,,,,,,,,main,k,k,1,1.0327437000814825,704.1586436999496,None,None,0,,,,,,,,,,,,,,013,2022-05-11_17h46.18.880,Main,2022.1.1,60.02314496118163,
positive,red,2,None,None,,,,,,,,,0,227,227,227,,,,,,,,,,,,,,,,,main,None,None,1,1.498968900181353,706.192043799907,None,None,1,,,,,,,,,,,,,,013,2022-05-11_17h46.18.880,Main,2022.1.1,60.02314496118163,
positive,blue,2,k,None,,,,,,,,,0,228,228,228,,,,,,,,,,,,,,,,,main,None,None,1,1.5008106001187116,708.6916623997968,None,None,1,,,,,,,,,,,,,,013,2022-05-11_17h46.18.880,Main,2022.1.1,60.02314496118163,
negative,blue,1,None,k,,,,,,,,,0,229,229,229,,,,,,,,,,,,,,,,,main,k,k,1,0.8636489000637084,711.1919473998714,None,None,0,,,,,,,,,,,,,,013,2022-05-11_17h46.18.880,Main,2022.1.1,60.02314496118163,
positive,yellow,1,None,k,,,,,,,,,0,230,230,230,,,,,,,,,,,,,,,,,main,k,k,1,0.8153814000543207,713.0609470999334,None,None,0,,,,,,,,,,,,,,013,2022-05-11_17h46.18.880,Main,2022.1.1,60.02314496118163,
negative,blue,2,None,k,,,,,,,,,0,231,231,231,,,,,,,,,,,,,,,,,main,k,k,1,0.7491129001136869,714.8751236998942,None,None,0,,,,,,,,,,,,,,013,2022-05-11_17h46.18.880,Main,2022.1.1,60.02314496118163,
negative,red,1,None,None,,,,,,,,,0,232,232,232,,,,,,,,,,,,,,,,,main,None,None,1,1.4990303001832217,716.6249942998402,None,None,1,,,,,,,,,,,,,,013,2022-05-11_17h46.18.880,Main,2022.1.1,60.02314496118163,
positive,blue,2,k,None,,,,,,,,,0,233,233,233,,,,,,,,,,,,,,,,,main,None,None,1,1.5000414999667555,719.125022099819,None,None,1,,,,,,,,,,,,,,013,2022-05-11_17h46.18.880,Main,2022.1.1,60.02314496118163,
negative,yellow,1,k,None,,,,,,,,,0,234,234,234,,,,,,,,,,,,,,,,,main,None,None,1,1.4978593999985605,721.62488509994,None,None,1,,,,,,,,,,,,,,013,2022-05-11_17h46.18.880,Main,2022.1.1,60.02314496118163,
negative,yellow,2,k,None,,,,,,,,,0,235,235,235,,,,,,,,,,,,,,,,,main,None,None,1,1.4883918999694288,724.1250366999302,None,None,1,,,,,,,,,,,,,,013,2022-05-11_17h46.18.880,Main,2022.1.1,60.02314496118163,
positive,red,1,None,None,,,,,,,,,0,236,236,236,,,,,,,,,,,,,,,,,main,None,None,1,1.4932977000717074,726.6120866998099,None,None,1,,,,,,,,,,,,,,013,2022-05-11_17h46.18.880,Main,2022.1.1,60.02314496118163,
negative,red,2,None,None,,,,,,,,,0,237,237,237,,,,,,,,,,,,,,,,,main,None,None,1,1.4992715998087078,729.1081328999717,None,None,1,,,,,,,,,,,,,,013,2022-05-11_17h46.18.880,Main,2022.1.1,60.02314496118163,
negative,blue,1,None,k,,,,,,,,,0,238,238,238,,,,,,,,,,,,,,,,,main,k,k,1,0.849425199907273,731.608093299903,None,None,0,,,,,,,,,,,,,,013,2022-05-11_17h46.18.880,Main,2022.1.1,60.02314496118163,
positive,blue,1,k,None,,,,,,,,,0,239,239,239,,,,,,,,,,,,,,,,,main,None,None,1,1.4987648001406342,733.4583616999444,None,None,1,,,,,,,,,,,,,,013,2022-05-11_17h46.18.880,Main,2022.1.1,60.02314496118163,
,,,,,,,,,,,,,,,,,,,,,,,,,,,,,,,,,,,,,,,,,,,,,,,,,,,,,735.9580087999348,None,,,,,,
