distractor,target,set,ans1,ans2,rep_loop4.thisRepN,rep_loop4.thisTrialN,rep_loop4.thisN,rep_loop4.thisIndex,st2_prac_loop.thisRepN,st2_prac_loop.thisTrialN,st2_prac_loop.thisN,st2_prac_loop.thisIndex,st2_main_loop.thisRepN,st2_main_loop.thisTrialN,st2_main_loop.thisN,st2_main_loop.thisIndex,image_4.started,image_4.stopped,sound_2.started,sound_2.stopped,key_resp_3.keys,key_resp_3.rt,image_5.started,image_5.stopped,st_prac_back.started,st_prac_back.stopped,st_prac_text.started,st_prac_text.stopped,st_fix_back.started,st_fix_back.stopped,st_fix_2.started,st_fix_2.stopped,main_prac,st_ans,st_res,st_corr,st_rt,st_back.started,st_back.stopped,st2_resp.keys,st2_resp.corr,st_main_back.started,st_main_back.stopped,st_main_text.started,st_main_text.stopped,mouse_4.x,mouse_4.y,mouse_4.leftButton,mouse_4.midButton,mouse_4.rightButton,mouse_4.started,mouse_4.stopped,text_2.started,text_2.stopped,id*,date,expName,psychopyVersion,frameRate,
negative,yellow,1,k,None,,,,,0,0,0,0,,,,,31.418110699858516,None,35.24971330978442,None,space,64.09591659996659,99.36473169992678,None,101.14825009997003,None,101.14825009997003,None,103.16235919995233,None,103.16235919995233,None,prac,k,k,1,4.511166999815032,105.16230849991553,None,None,0,,,,,,,,,,,,,,014,2022-05-11_19h40.51.451,Main,2022.1.1,60.022100123872164,
positive,red,2,None,None,,,,,0,1,1,1,,,,,,,,,,,,,,,,,,,,,prac,None,None,1,1.5046663000248373,111.67865129979327,None,None,1,,,,,,,,,,,,,,014,2022-05-11_19h40.51.451,Main,2022.1.1,60.022100123872164,
negative,blue,2,None,k,,,,,0,2,2,2,,,,,,,,,,,,,,,,,,,,,prac,None,None,1,1.4972824999131262,114.17900319979526,None,None,1,,,,,,,,,,,,,,014,2022-05-11_19h40.51.451,Main,2022.1.1,60.022100123872164,
positive,yellow,1,None,k,,,,,0,3,3,3,,,,,,,,,,,,,,,,,,,,,prac,None,k,0,1.4636681999545544,116.68129559978843,None,None,1,,,,,,,,,,,,,,014,2022-05-11_19h40.51.451,Main,2022.1.1,60.022100123872164,
negative,blue,2,None,k,,,,,0,4,4,4,,,,,,,,,,,,,,,,,,,,,prac,None,None,1,1.4959738000761718,120.14769080001861,None,None,1,,,,,,,,,,,,,,014,2022-05-11_19h40.51.451,Main,2022.1.1,60.022100123872164,
negative,blue,1,None,k,,,,,0,5,5,5,,,,,,,,,,,,,,,,,,,,,prac,None,None,1,1.500878799939528,122.64547029999085,None,None,1,,,,,,,,,,,,,,014,2022-05-11_19h40.51.451,Main,2022.1.1,60.022100123872164,
negative,yellow,2,k,None,,,,,0,6,6,6,,,,,,,,,,,,,,,,,,,,,prac,k,k,1,1.8291458999738097,125.14532979996875,None,None,0,,,,,,,,,,,,,,014,2022-05-11_19h40.51.451,Main,2022.1.1,60.022100123872164,
negative,red,1,None,None,,,,,0,7,7,7,,,,,,,,,,,,,,,,,,,,,prac,None,None,1,1.4875559001229703,128.97865669988096,None,None,1,,,,,,,,,,,,,,014,2022-05-11_19h40.51.451,Main,2022.1.1,60.022100123872164,
positive,yellow,2,None,k,,,,,0,8,8,8,,,,,,,,,,,,,,,,,,,,,prac,None,None,1,1.492826199857518,131.4661634999793,None,None,1,,,,,,,,,,,,,,014,2022-05-11_19h40.51.451,Main,2022.1.1,60.022100123872164,
negative,yellow,1,k,None,,,,,0,9,9,9,,,,,,,,,,,,,,,,,,,,,prac,k,k,1,0.8658253001049161,133.96212119981647,None,None,0,,,,,,,,,,,,,,014,2022-05-11_19h40.51.451,Main,2022.1.1,60.022100123872164,
positive,yellow,2,None,k,,,,,0,10,10,10,,,,,,,,,,,,,,,,,,,,,prac,None,None,1,1.4994030001107603,135.82840349990875,None,None,1,,,,,,,,,,,,,,014,2022-05-11_19h40.51.451,Main,2022.1.1,60.022100123872164,
negative,yellow,2,k,None,,,,,0,11,11,11,,,,,,,,,,,,,,,,,,,,,prac,k,k,1,0.8485721000470221,138.32808259990998,None,None,0,,,,,,,,,,,,,,014,2022-05-11_19h40.51.451,Main,2022.1.1,60.022100123872164,
negative,red,2,None,None,,,,,0,12,12,12,,,,,,,,,,,,,,,,,,,,,prac,None,None,1,1.5010494999587536,140.17846899991855,None,None,1,,,,,,,,,,,,,,014,2022-05-11_19h40.51.451,Main,2022.1.1,60.022100123872164,
positive,red,1,None,None,,,,,0,13,13,13,,,,,,,,,,,,,,,,,,,,,prac,None,None,1,1.4975554998964071,142.680813399842,None,None,1,,,,,,,,,,,,,,014,2022-05-11_19h40.51.451,Main,2022.1.1,60.022100123872164,
positive,blue,2,k,None,,,,,0,14,14,14,,,,,,,,,,,,,,,,,,,,,prac,k,k,1,1.066904400009662,145.17791829979979,None,None,0,,,,,,,,,,,,,,014,2022-05-11_19h40.51.451,Main,2022.1.1,60.022100123872164,
positive,blue,1,k,None,,,,,0,15,15,15,,,,,,,,,,,,,,,,,,,,,prac,k,k,1,0.9324815000873059,147.244929399807,None,None,0,,,,,,,,,,,,,,014,2022-05-11_19h40.51.451,Main,2022.1.1,60.022100123872164,
negative,blue,1,None,k,,,,,0,16,16,16,,,,,,,,,,,,,,,,,,,,,prac,None,None,1,1.4965967000462115,149.1806625998579,None,None,1,,,,,,,,,,,,,,014,2022-05-11_19h40.51.451,Main,2022.1.1,60.022100123872164,
positive,blue,2,k,None,,,,,0,17,17,17,,,,,,,,,,,,,,,,,,,,,prac,k,k,1,0.8151567000895739,151.67785319988616,None,None,0,,,,,,,,,,,,,,014,2022-05-11_19h40.51.451,Main,2022.1.1,60.022100123872164,
positive,blue,1,k,None,,,,,0,18,18,18,,,,,,,,,,,,,,,,,,,,,prac,k,k,1,0.7181678998749703,153.4972478998825,None,None,0,,,,,,,,,,,,,,014,2022-05-11_19h40.51.451,Main,2022.1.1,60.022100123872164,
positive,yellow,1,None,k,,,,,0,19,19,19,,,,,,,,,,,,,,,,,,,,,prac,None,None,1,1.4970974999014288,155.21385840000585,None,None,1,,,,,,,,,,,,,,014,2022-05-11_19h40.51.451,Main,2022.1.1,60.022100123872164,
negative,yellow,1,k,None,,,,,1,0,20,0,,,,,,,,,,,,,,,,,,,,,prac,k,k,1,0.7815256000030786,157.7111066998914,None,None,0,,,,,,,,,,,,,,014,2022-05-11_19h40.51.451,Main,2022.1.1,60.022100123872164,
positive,red,2,None,None,,,,,1,1,21,1,,,,,,,,,,,,,,,,,,,,,prac,None,None,1,1.4994983999058604,159.4947136999108,None,None,1,,,,,,,,,,,,,,014,2022-05-11_19h40.51.451,Main,2022.1.1,60.022100123872164,
negative,blue,2,None,k,,,,,1,2,22,2,,,,,,,,,,,,,,,,,,,,,prac,None,None,1,1.4986242998857051,161.99453359982,None,None,1,,,,,,,,,,,,,,014,2022-05-11_19h40.51.451,Main,2022.1.1,60.022100123872164,
positive,yellow,1,None,k,,,,,1,3,23,3,,,,,,,,,,,,,,,,,,,,,prac,None,k,0,0.8150624998379499,164.49447839986533,None,None,1,,,,,,,,,,,,,,014,2022-05-11_19h40.51.451,Main,2022.1.1,60.022100123872164,
negative,blue,2,None,k,,,,,1,4,24,4,,,,,,,,,,,,,,,,,,,,,prac,None,None,1,1.5015797999221832,167.31109049986117,None,None,1,,,,,,,,,,,,,,014,2022-05-11_19h40.51.451,Main,2022.1.1,60.022100123872164,
negative,blue,1,None,k,,,,,1,5,25,5,,,,,,,,,,,,,,,,,,,,,prac,None,None,1,1.4985999001655728,169.81105019990355,None,None,1,,,,,,,,,,,,,,014,2022-05-11_19h40.51.451,Main,2022.1.1,60.022100123872164,
negative,yellow,2,k,None,,,,,1,6,26,6,,,,,,,,,,,,,,,,,,,,,prac,k,k,1,1.270202999934554,172.31097779981792,None,None,0,,,,,,,,,,,,,,014,2022-05-11_19h40.51.451,Main,2022.1.1,60.022100123872164,
negative,red,1,None,None,,,,,1,7,27,7,,,,,,,,,,,,,,,,,,,,,prac,None,None,1,1.4929560001473874,174.58170409989543,None,None,1,,,,,,,,,,,,,,014,2022-05-11_19h40.51.451,Main,2022.1.1,60.022100123872164,
positive,yellow,2,None,k,,,,,1,8,28,8,,,,,,,,,,,,,,,,,,,,,prac,None,k,0,0.7163144999649376,177.07732169982046,None,None,1,,,,,,,,,,,,,,014,2022-05-11_19h40.51.451,Main,2022.1.1,60.022100123872164,
negative,yellow,1,k,None,,,,,1,9,29,9,,,,,,,,,,,,,,,,,,,,,prac,k,k,1,1.0162273000460118,179.79692219989374,None,None,0,,,,,,,,,,,,,,014,2022-05-11_19h40.51.451,Main,2022.1.1,60.022100123872164,
positive,yellow,2,None,k,,,,,1,10,30,10,,,,,,,,,,,,,,,,,,,,,prac,None,None,1,1.4985652000177652,181.81080550001934,None,None,1,,,,,,,,,,,,,,014,2022-05-11_19h40.51.451,Main,2022.1.1,60.022100123872164,
negative,yellow,2,k,None,,,,,1,11,31,11,,,,,,,,,,,,,,,,,,,,,prac,k,k,1,0.9658016997855157,184.31068099988624,None,None,0,,,,,,,,,,,,,,014,2022-05-11_19h40.51.451,Main,2022.1.1,60.022100123872164,
negative,red,2,None,None,,,,,1,12,32,12,,,,,,,,,,,,,,,,,,,,,prac,None,None,1,1.4982513999566436,186.2773682998959,None,None,1,,,,,,,,,,,,,,014,2022-05-11_19h40.51.451,Main,2022.1.1,60.022100123872164,
positive,red,1,None,None,,,,,1,13,33,13,,,,,,,,,,,,,,,,,,,,,prac,None,None,1,1.4989006998948753,188.7772970998194,None,None,1,,,,,,,,,,,,,,014,2022-05-11_19h40.51.451,Main,2022.1.1,60.022100123872164,
positive,blue,2,k,None,,,,,1,14,34,14,,,,,,,,,,,,,,,,,,,,,prac,k,k,1,0.814730399986729,191.2772502999287,None,None,0,,,,,,,,,,,,,,014,2022-05-11_19h40.51.451,Main,2022.1.1,60.022100123872164,
positive,blue,1,k,None,,,,,1,15,35,15,,,,,,,,,,,,,,,,,,,,,prac,k,k,1,0.8138230999466032,193.09390189987607,None,None,0,,,,,,,,,,,,,,014,2022-05-11_19h40.51.451,Main,2022.1.1,60.022100123872164,
negative,blue,1,None,k,,,,,1,16,36,16,,,,,,,,,,,,,,,,,,,,,prac,None,None,1,1.5030346000567079,194.8996544999536,None,None,1,,,,,,,,,,,,,,014,2022-05-11_19h40.51.451,Main,2022.1.1,60.022100123872164,
positive,blue,2,k,None,,,,,1,17,37,17,,,,,,,,,,,,,,,,,,,,,prac,k,k,1,0.9137198000680655,197.41301989997737,None,None,0,,,,,,,,,,,,,,014,2022-05-11_19h40.51.451,Main,2022.1.1,60.022100123872164,
positive,blue,1,k,None,,,,,1,18,38,18,,,,,,,,,,,,,,,,,,,,,prac,k,k,1,0.7483175001107156,199.32962799980305,None,None,0,,,,,,,,,,,,,,014,2022-05-11_19h40.51.451,Main,2022.1.1,60.022100123872164,
positive,yellow,1,None,k,,,,,1,19,39,19,,,,,,,,,,,,,,,,,,,,,prac,None,None,1,1.5017510000616312,201.07675589993596,None,None,1,,,,,,,,,,,,,,014,2022-05-11_19h40.51.451,Main,2022.1.1,60.022100123872164,
,,,,,,,,,,,,,,,,,,,,,,,,,,,,,,,,,,,,,,,,,,203.57949369982816,None,203.57949369982816,None,0.0064814813,-0.06388889,0,0,0,0.014254909940063953,None,,,014,2022-05-11_19h40.51.451,Main,2022.1.1,60.022100123872164,
negative,yellow,2,k,None,,,,,,,,,0,0,0,0,,,,,,,,,,,,,204.87955119996332,None,204.87955119996332,None,main,k,k,1,1.1393391999881715,206.90653879987076,None,None,0,,,,,,,,,,,,,,014,2022-05-11_19h40.51.451,Main,2022.1.1,60.022100123872164,
positive,red,1,None,None,,,,,,,,,0,1,1,1,,,,,,,,,,,,,,,,,main,None,None,1,1.4929713997989893,209.04328039987013,None,None,1,,,,,,,,,,,,,,014,2022-05-11_19h40.51.451,Main,2022.1.1,60.022100123872164,
positive,blue,2,k,None,,,,,,,,,0,2,2,2,,,,,,,,,,,,,,,,,main,k,k,1,1.849200899945572,211.54349539987743,None,None,0,,,,,,,,,,,,,,014,2022-05-11_19h40.51.451,Main,2022.1.1,60.022100123872164,
positive,blue,1,k,None,,,,,,,,,0,3,3,3,,,,,,,,,,,,,,,,,main,k,k,1,0.6510147999506444,215.39335679984652,None,None,0,,,,,,,,,,,,,,014,2022-05-11_19h40.51.451,Main,2022.1.1,60.022100123872164,
negative,yellow,2,k,None,,,,,,,,,0,4,4,4,,,,,,,,,,,,,,,,,main,k,k,1,0.8830657000653446,217.0434302999638,None,None,0,,,,,,,,,,,,,,014,2022-05-11_19h40.51.451,Main,2022.1.1,60.022100123872164,
positive,yellow,2,None,k,,,,,,,,,0,5,5,5,,,,,,,,,,,,,,,,,main,None,None,1,1.4980673000682145,218.9264779998921,None,None,1,,,,,,,,,,,,,,014,2022-05-11_19h40.51.451,Main,2022.1.1,60.022100123872164,
negative,blue,2,None,k,,,,,,,,,0,6,6,6,,,,,,,,,,,,,,,,,main,None,None,1,1.500599400140345,221.4263873999007,None,None,1,,,,,,,,,,,,,,014,2022-05-11_19h40.51.451,Main,2022.1.1,60.022100123872164,
positive,red,2,None,None,,,,,,,,,0,7,7,7,,,,,,,,,,,,,,,,,main,None,None,1,1.4974653997924179,223.926670699846,None,None,1,,,,,,,,,,,,,,014,2022-05-11_19h40.51.451,Main,2022.1.1,60.022100123872164,
positive,yellow,1,None,k,,,,,,,,,0,8,8,8,,,,,,,,,,,,,,,,,main,None,None,1,1.4982751999050379,226.42656699987128,None,None,1,,,,,,,,,,,,,,014,2022-05-11_19h40.51.451,Main,2022.1.1,60.022100123872164,
negative,red,1,None,None,,,,,,,,,0,9,9,9,,,,,,,,,,,,,,,,,main,None,None,1,1.5007131998427212,228.92617330001667,None,None,1,,,,,,,,,,,,,,014,2022-05-11_19h40.51.451,Main,2022.1.1,60.022100123872164,
positive,yellow,1,None,k,,,,,,,,,0,10,10,10,,,,,,,,,,,,,,,,,main,None,None,1,1.4967050999403,231.42883629980497,None,None,1,,,,,,,,,,,,,,014,2022-05-11_19h40.51.451,Main,2022.1.1,60.022100123872164,
negative,yellow,1,k,None,,,,,,,,,0,11,11,11,,,,,,,,,,,,,,,,,main,k,k,1,1.0986649000551552,233.92632619990036,None,None,0,,,,,,,,,,,,,,014,2022-05-11_19h40.51.451,Main,2022.1.1,60.022100123872164,
negative,yellow,1,k,None,,,,,,,,,0,12,12,12,,,,,,,,,,,,,,,,,main,k,k,1,0.6824314999394119,236.02603579987772,None,None,0,,,,,,,,,,,,,,014,2022-05-11_19h40.51.451,Main,2022.1.1,60.022100123872164,
negative,red,2,None,None,,,,,,,,,0,13,13,13,,,,,,,,,,,,,,,,,main,None,None,1,1.501465099863708,237.70937219983898,None,None,1,,,,,,,,,,,,,,014,2022-05-11_19h40.51.451,Main,2022.1.1,60.022100123872164,
positive,yellow,2,None,k,,,,,,,,,0,14,14,14,,,,,,,,,,,,,,,,,main,None,None,1,1.4977057001087815,240.21192409982905,None,None,1,,,,,,,,,,,,,,014,2022-05-11_19h40.51.451,Main,2022.1.1,60.022100123872164,
positive,blue,1,k,None,,,,,,,,,0,15,15,15,,,,,,,,,,,,,,,,,main,k,k,1,0.9478942998684943,242.7096106999088,None,None,0,,,,,,,,,,,,,,014,2022-05-11_19h40.51.451,Main,2022.1.1,60.022100123872164,
negative,blue,1,None,k,,,,,,,,,0,16,16,16,,,,,,,,,,,,,,,,,main,None,None,1,1.5020358001347631,244.65940339979716,None,None,1,,,,,,,,,,,,,,014,2022-05-11_19h40.51.451,Main,2022.1.1,60.022100123872164,
positive,blue,2,k,None,,,,,,,,,0,17,17,17,,,,,,,,,,,,,,,,,main,k,k,1,1.1188778998330235,247.15946419979446,None,None,0,,,,,,,,,,,,,,014,2022-05-11_19h40.51.451,Main,2022.1.1,60.022100123872164,
negative,blue,2,None,k,,,,,,,,,0,18,18,18,,,,,,,,,,,,,,,,,main,None,None,1,1.492995100095868,249.28604539996013,None,None,1,,,,,,,,,,,,,,014,2022-05-11_19h40.51.451,Main,2022.1.1,60.022100123872164,
negative,blue,1,None,k,,,,,,,,,0,19,19,19,,,,,,,,,,,,,,,,,main,None,None,1,1.5005477000959218,251.77594259986654,None,None,1,,,,,,,,,,,,,,014,2022-05-11_19h40.51.451,Main,2022.1.1,60.022100123872164,
negative,blue,1,None,k,,,,,,,,,0,20,20,20,,,,,,,,,,,,,,,,,main,None,None,1,1.4970851000398397,254.27839629980735,None,None,1,,,,,,,,,,,,,,014,2022-05-11_19h40.51.451,Main,2022.1.1,60.022100123872164,
negative,blue,2,None,k,,,,,,,,,0,21,21,21,,,,,,,,,,,,,,,,,main,None,None,1,1.4981190001126379,256.77588379988447,None,None,1,,,,,,,,,,,,,,014,2022-05-11_19h40.51.451,Main,2022.1.1,60.022100123872164,
negative,red,1,None,None,,,,,,,,,0,22,22,22,,,,,,,,,,,,,,,,,main,None,None,1,1.4990866999141872,259.2759019997902,None,None,1,,,,,,,,,,,,,,014,2022-05-11_19h40.51.451,Main,2022.1.1,60.022100123872164,
positive,red,2,None,None,,,,,,,,,0,23,23,23,,,,,,,,,,,,,,,,,main,None,None,1,1.4990308999549598,261.7757819998078,None,None,1,,,,,,,,,,,,,,014,2022-05-11_19h40.51.451,Main,2022.1.1,60.022100123872164,
negative,red,2,None,None,,,,,,,,,0,24,24,24,,,,,,,,,,,,,,,,,main,None,None,1,1.4991199998185039,264.2756479999516,None,None,1,,,,,,,,,,,,,,014,2022-05-11_19h40.51.451,Main,2022.1.1,60.022100123872164,
positive,blue,2,k,None,,,,,,,,,0,25,25,25,,,,,,,,,,,,,,,,,main,k,k,1,1.0165889000054449,266.77567709982395,None,None,0,,,,,,,,,,,,,,014,2022-05-11_19h40.51.451,Main,2022.1.1,60.022100123872164,
negative,yellow,1,k,None,,,,,,,,,0,26,26,26,,,,,,,,,,,,,,,,,main,k,k,1,0.8645442998968065,268.79199970001355,None,None,0,,,,,,,,,,,,,,014,2022-05-11_19h40.51.451,Main,2022.1.1,60.022100123872164,
positive,blue,2,k,None,,,,,,,,,0,27,27,27,,,,,,,,,,,,,,,,,main,k,k,1,0.8827955999877304,270.6589293999132,None,None,0,,,,,,,,,,,,,,014,2022-05-11_19h40.51.451,Main,2022.1.1,60.022100123872164,
negative,blue,2,None,k,,,,,,,,,0,28,28,28,,,,,,,,,,,,,,,,,main,None,None,1,1.501123100053519,272.5447396999225,None,None,1,,,,,,,,,,,,,,014,2022-05-11_19h40.51.451,Main,2022.1.1,60.022100123872164,
positive,red,1,None,None,,,,,,,,,0,29,29,29,,,,,,,,,,,,,,,,,main,None,None,1,1.4970715001691133,275.0447187998798,None,None,1,,,,,,,,,,,,,,014,2022-05-11_19h40.51.451,Main,2022.1.1,60.022100123872164,
positive,blue,1,k,None,,,,,,,,,0,30,30,30,,,,,,,,,,,,,,,,,main,k,k,1,1.031980900093913,277.5418662999291,None,None,0,,,,,,,,,,,,,,014,2022-05-11_19h40.51.451,Main,2022.1.1,60.022100123872164,
positive,yellow,1,None,k,,,,,,,,,0,31,31,31,,,,,,,,,,,,,,,,,main,None,None,1,1.5008457999210805,279.5755197999533,None,None,1,,,,,,,,,,,,,,014,2022-05-11_19h40.51.451,Main,2022.1.1,60.022100123872164,
negative,yellow,2,k,None,,,,,,,,,0,32,32,32,,,,,,,,,,,,,,,,,main,k,k,1,1.0970193999819458,282.0754203000106,None,None,0,,,,,,,,,,,,,,014,2022-05-11_19h40.51.451,Main,2022.1.1,60.022100123872164,
negative,blue,1,None,k,,,,,,,,,0,33,33,33,,,,,,,,,,,,,,,,,main,None,None,1,1.4995394998695701,284.1752490999643,None,None,1,,,,,,,,,,,,,,014,2022-05-11_19h40.51.451,Main,2022.1.1,60.022100123872164,
positive,blue,1,k,None,,,,,,,,,0,34,34,34,,,,,,,,,,,,,,,,,main,k,k,1,1.048226699931547,286.675275699934,None,None,0,,,,,,,,,,,,,,014,2022-05-11_19h40.51.451,Main,2022.1.1,60.022100123872164,
negative,yellow,1,k,None,,,,,,,,,0,35,35,35,,,,,,,,,,,,,,,,,main,k,k,1,1.1163284999784082,288.72766350000165,None,None,0,,,,,,,,,,,,,,014,2022-05-11_19h40.51.451,Main,2022.1.1,60.022100123872164,
positive,yellow,2,None,k,,,,,,,,,0,36,36,36,,,,,,,,,,,,,,,,,main,None,None,1,1.5003500999882817,290.8415453999769,None,None,1,,,,,,,,,,,,,,014,2022-05-11_19h40.51.451,Main,2022.1.1,60.022100123872164,
positive,yellow,2,None,k,,,,,,,,,0,37,37,37,,,,,,,,,,,,,,,,,main,None,None,1,1.4965301000047475,293.3441812999081,None,None,1,,,,,,,,,,,,,,014,2022-05-11_19h40.51.451,Main,2022.1.1,60.022100123872164,
negative,yellow,2,k,None,,,,,,,,,0,38,38,38,,,,,,,,,,,,,,,,,main,k,k,1,0.9159717001020908,295.84172199992463,None,None,0,,,,,,,,,,,,,,014,2022-05-11_19h40.51.451,Main,2022.1.1,60.022100123872164,
positive,yellow,1,None,k,,,,,,,,,0,39,39,39,,,,,,,,,,,,,,,,,main,None,None,1,1.5012823999859393,297.7584165998269,None,None,1,,,,,,,,,,,,,,014,2022-05-11_19h40.51.451,Main,2022.1.1,60.022100123872164,
negative,yellow,2,k,None,,,,,,,,,0,40,40,40,,,,,,,,,,,,,,,,,main,k,k,1,0.83034129999578,300.2583844999317,None,None,0,,,,,,,,,,,,,,014,2022-05-11_19h40.51.451,Main,2022.1.1,60.022100123872164,
positive,blue,2,k,None,,,,,,,,,0,41,41,41,,,,,,,,,,,,,,,,,main,k,k,1,0.9156478999648243,302.0916195998434,None,None,0,,,,,,,,,,,,,,014,2022-05-11_19h40.51.451,Main,2022.1.1,60.022100123872164,
positive,blue,2,k,None,,,,,,,,,0,42,42,42,,,,,,,,,,,,,,,,,main,k,k,1,0.7157234998885542,304.00816649990156,None,None,0,,,,,,,,,,,,,,014,2022-05-11_19h40.51.451,Main,2022.1.1,60.022100123872164,
negative,blue,2,None,k,,,,,,,,,0,43,43,43,,,,,,,,,,,,,,,,,main,None,None,1,1.4987496000248939,305.7248295999598,None,None,1,,,,,,,,,,,,,,014,2022-05-11_19h40.51.451,Main,2022.1.1,60.022100123872164,
negative,red,1,None,None,,,,,,,,,0,44,44,44,,,,,,,,,,,,,,,,,main,None,None,1,1.498998299939558,308.2248253999278,None,None,1,,,,,,,,,,,,,,014,2022-05-11_19h40.51.451,Main,2022.1.1,60.022100123872164,
negative,yellow,1,k,None,,,,,,,,,0,45,45,45,,,,,,,,,,,,,,,,,main,k,k,1,1.0329320000018924,310.7247897000052,None,None,0,,,,,,,,,,,,,,014,2022-05-11_19h40.51.451,Main,2022.1.1,60.022100123872164,
negative,yellow,1,k,None,,,,,,,,,0,46,46,46,,,,,,,,,,,,,,,,,main,k,k,1,1.1328459000214934,312.75809439993463,None,None,0,,,,,,,,,,,,,,014,2022-05-11_19h40.51.451,Main,2022.1.1,60.022100123872164,
positive,red,1,None,None,,,,,,,,,0,47,47,47,,,,,,,,,,,,,,,,,main,None,None,1,1.500078700017184,314.8912727998104,None,None,1,,,,,,,,,,,,,,014,2022-05-11_19h40.51.451,Main,2022.1.1,60.022100123872164,
positive,yellow,1,None,k,,,,,,,,,0,48,48,48,,,,,,,,,,,,,,,,,main,None,None,1,1.4985692000482231,317.3912639999762,None,None,1,,,,,,,,,,,,,,014,2022-05-11_19h40.51.451,Main,2022.1.1,60.022100123872164,
negative,blue,1,None,k,,,,,,,,,0,49,49,49,,,,,,,,,,,,,,,,,main,None,None,1,1.4976711999624968,319.8912090999074,None,None,1,,,,,,,,,,,,,,014,2022-05-11_19h40.51.451,Main,2022.1.1,60.022100123872164,
positive,yellow,2,None,k,,,,,,,,,0,50,50,50,,,,,,,,,,,,,,,,,main,None,None,1,1.499866999918595,322.3909850998316,None,None,1,,,,,,,,,,,,,,014,2022-05-11_19h40.51.451,Main,2022.1.1,60.022100123872164,
negative,blue,1,None,k,,,,,,,,,0,51,51,51,,,,,,,,,,,,,,,,,main,None,None,1,1.4988532001152635,324.89082399988547,None,None,1,,,,,,,,,,,,,,014,2022-05-11_19h40.51.451,Main,2022.1.1,60.022100123872164,
positive,red,2,None,None,,,,,,,,,0,52,52,52,,,,,,,,,,,,,,,,,main,None,None,1,1.5003619000781327,327.3908239000011,None,None,1,,,,,,,,,,,,,,014,2022-05-11_19h40.51.451,Main,2022.1.1,60.022100123872164,
positive,yellow,2,None,k,,,,,,,,,0,53,53,53,,,,,,,,,,,,,,,,,main,None,None,1,1.4977404999081045,329.89113479992375,None,None,1,,,,,,,,,,,,,,014,2022-05-11_19h40.51.451,Main,2022.1.1,60.022100123872164,
negative,red,2,None,None,,,,,,,,,0,54,54,54,,,,,,,,,,,,,,,,,main,None,None,1,1.4983608999755234,332.3909467998892,None,None,1,,,,,,,,,,,,,,014,2022-05-11_19h40.51.451,Main,2022.1.1,60.022100123872164,
positive,yellow,1,None,k,,,,,,,,,0,55,55,55,,,,,,,,,,,,,,,,,main,None,None,1,1.5005373999010772,334.8906308999285,None,None,1,,,,,,,,,,,,,,014,2022-05-11_19h40.51.451,Main,2022.1.1,60.022100123872164,
negative,blue,2,None,k,,,,,,,,,0,56,56,56,,,,,,,,,,,,,,,,,main,None,None,1,1.4975849001202732,337.3909747998696,None,None,1,,,,,,,,,,,,,,014,2022-05-11_19h40.51.451,Main,2022.1.1,60.022100123872164,
positive,blue,1,k,None,,,,,,,,,0,57,57,57,,,,,,,,,,,,,,,,,main,k,k,1,1.3803445000667125,339.89078909996897,None,None,0,,,,,,,,,,,,,,014,2022-05-11_19h40.51.451,Main,2022.1.1,60.022100123872164,
positive,blue,1,k,None,,,,,,,,,0,58,58,58,,,,,,,,,,,,,,,,,main,k,k,1,0.7156303999945521,342.2740203998983,None,None,0,,,,,,,,,,,,,,014,2022-05-11_19h40.51.451,Main,2022.1.1,60.022100123872164,
negative,yellow,2,k,None,,,,,,,,,0,59,59,59,,,,,,,,,,,,,,,,,main,k,k,1,0.8990753998514265,343.990679099923,None,None,0,,,,,,,,,,,,,,014,2022-05-11_19h40.51.451,Main,2022.1.1,60.022100123872164,
positive,red,2,None,None,,,,,,,,,0,60,60,60,,,,,,,,,,,,,,,,,main,None,None,1,1.4987913998775184,345.890682999976,None,None,1,,,,,,,,,,,,,,014,2022-05-11_19h40.51.451,Main,2022.1.1,60.022100123872164,
negative,yellow,1,k,None,,,,,,,,,0,61,61,61,,,,,,,,,,,,,,,,,main,k,k,1,1.316891600145027,348.39054639986716,None,None,0,,,,,,,,,,,,,,014,2022-05-11_19h40.51.451,Main,2022.1.1,60.022100123872164,
negative,red,1,None,None,,,,,,,,,0,62,62,62,,,,,,,,,,,,,,,,,main,None,None,1,1.4984297000337392,350.70720799989067,None,None,1,,,,,,,,,,,,,,014,2022-05-11_19h40.51.451,Main,2022.1.1,60.022100123872164,
negative,blue,1,None,k,,,,,,,,,0,63,63,63,,,,,,,,,,,,,,,,,main,None,None,1,1.5000765000004321,353.2071841999423,None,None,1,,,,,,,,,,,,,,014,2022-05-11_19h40.51.451,Main,2022.1.1,60.022100123872164,
positive,blue,2,k,None,,,,,,,,,0,64,64,64,,,,,,,,,,,,,,,,,main,k,k,1,0.8303992000874132,355.7071183999069,None,None,0,,,,,,,,,,,,,,014,2022-05-11_19h40.51.451,Main,2022.1.1,60.022100123872164,
negative,yellow,2,k,None,,,,,,,,,0,65,65,65,,,,,,,,,,,,,,,,,main,k,k,1,0.9319464000873268,357.54045509989373,None,None,0,,,,,,,,,,,,,,014,2022-05-11_19h40.51.451,Main,2022.1.1,60.022100123872164,
positive,yellow,2,None,k,,,,,,,,,0,66,66,66,,,,,,,,,,,,,,,,,main,None,None,1,1.5016695000231266,359.4734165999107,None,None,1,,,,,,,,,,,,,,014,2022-05-11_19h40.51.451,Main,2022.1.1,60.022100123872164,
positive,yellow,2,None,k,,,,,,,,,0,67,67,67,,,,,,,,,,,,,,,,,main,None,None,1,1.4990860000252724,361.97616519988514,None,None,1,,,,,,,,,,,,,,014,2022-05-11_19h40.51.451,Main,2022.1.1,60.022100123872164,
positive,red,1,None,None,,,,,,,,,0,68,68,68,,,,,,,,,,,,,,,,,main,None,None,1,1.4970875000581145,364.4761108998209,None,None,1,,,,,,,,,,,,,,014,2022-05-11_19h40.51.451,Main,2022.1.1,60.022100123872164,
positive,yellow,1,None,k,,,,,,,,,0,69,69,69,,,,,,,,,,,,,,,,,main,None,None,1,1.5006876999977976,366.9732885998674,None,None,1,,,,,,,,,,,,,,014,2022-05-11_19h40.51.451,Main,2022.1.1,60.022100123872164,
negative,yellow,2,k,None,,,,,,,,,0,70,70,70,,,,,,,,,,,,,,,,,main,k,k,1,1.013539700070396,369.4760480998084,None,None,0,,,,,,,,,,,,,,014,2022-05-11_19h40.51.451,Main,2022.1.1,60.022100123872164,
positive,yellow,1,None,k,,,,,,,,,0,71,71,71,,,,,,,,,,,,,,,,,main,None,None,1,1.4993611997924745,371.4902725999709,None,None,1,,,,,,,,,,,,,,014,2022-05-11_19h40.51.451,Main,2022.1.1,60.022100123872164,
negative,blue,1,None,k,,,,,,,,,0,72,72,72,,,,,,,,,,,,,,,,,main,None,None,1,1.5005832000169903,373.98977450001985,None,None,1,,,,,,,,,,,,,,014,2022-05-11_19h40.51.451,Main,2022.1.1,60.022100123872164,
negative,red,2,None,None,,,,,,,,,0,73,73,73,,,,,,,,,,,,,,,,,main,None,None,1,1.4974268001969904,376.4901360999793,None,None,1,,,,,,,,,,,,,,014,2022-05-11_19h40.51.451,Main,2022.1.1,60.022100123872164,
positive,blue,2,k,None,,,,,,,,,0,74,74,74,,,,,,,,,,,,,,,,,main,k,k,1,1.0315235001035035,378.9900920998771,None,None,0,,,,,,,,,,,,,,014,2022-05-11_19h40.51.451,Main,2022.1.1,60.022100123872164,
negative,blue,2,None,k,,,,,,,,,0,75,75,75,,,,,,,,,,,,,,,,,main,None,None,1,1.501153300050646,381.02322470000945,None,None,1,,,,,,,,,,,,,,014,2022-05-11_19h40.51.451,Main,2022.1.1,60.022100123872164,
negative,blue,2,None,k,,,,,,,,,0,76,76,76,,,,,,,,,,,,,,,,,main,None,None,1,1.5023167000617832,383.52325209998526,None,None,1,,,,,,,,,,,,,,014,2022-05-11_19h40.51.451,Main,2022.1.1,60.022100123872164,
negative,yellow,1,k,None,,,,,,,,,0,77,77,77,,,,,,,,,,,,,,,,,main,k,k,1,0.8767651000525802,386.02713790000416,None,None,0,,,,,,,,,,,,,,014,2022-05-11_19h40.51.451,Main,2022.1.1,60.022100123872164,
positive,blue,1,k,None,,,,,,,,,0,78,78,78,,,,,,,,,,,,,,,,,main,k,k,1,1.0658768999855965,387.90639649983495,None,None,0,,,,,,,,,,,,,,014,2022-05-11_19h40.51.451,Main,2022.1.1,60.022100123872164,
positive,blue,1,k,None,,,,,,,,,0,79,79,79,,,,,,,,,,,,,,,,,main,k,k,1,0.932049699826166,389.9730898998678,None,None,0,,,,,,,,,,,,,,014,2022-05-11_19h40.51.451,Main,2022.1.1,60.022100123872164,
positive,red,2,None,None,,,,,,,,,0,80,80,80,,,,,,,,,,,,,,,,,main,None,None,1,1.4997212998569012,391.9060928998515,None,None,1,,,,,,,,,,,,,,014,2022-05-11_19h40.51.451,Main,2022.1.1,60.022100123872164,
positive,yellow,2,None,k,,,,,,,,,0,81,81,81,,,,,,,,,,,,,,,,,main,None,None,1,1.5005211997777224,394.406076699961,None,None,1,,,,,,,,,,,,,,014,2022-05-11_19h40.51.451,Main,2022.1.1,60.022100123872164,
positive,blue,1,k,None,,,,,,,,,0,82,82,82,,,,,,,,,,,,,,,,,main,k,k,1,0.896933700190857,396.908773599891,None,None,0,,,,,,,,,,,,,,014,2022-05-11_19h40.51.451,Main,2022.1.1,60.022100123872164,
negative,yellow,2,k,None,,,,,,,,,0,83,83,83,,,,,,,,,,,,,,,,,main,k,k,1,0.8491376000456512,398.8062034000177,None,None,0,,,,,,,,,,,,,,014,2022-05-11_19h40.51.451,Main,2022.1.1,60.022100123872164,
positive,blue,2,k,None,,,,,,,,,0,84,84,84,,,,,,,,,,,,,,,,,main,k,k,1,0.9492168999277055,400.656140799867,None,None,0,,,,,,,,,,,,,,014,2022-05-11_19h40.51.451,Main,2022.1.1,60.022100123872164,
positive,yellow,1,None,k,,,,,,,,,0,85,85,85,,,,,,,,,,,,,,,,,main,None,None,1,1.498858300037682,402.6062006999273,None,None,1,,,,,,,,,,,,,,014,2022-05-11_19h40.51.451,Main,2022.1.1,60.022100123872164,
positive,blue,2,k,None,,,,,,,,,0,86,86,86,,,,,,,,,,,,,,,,,main,k,k,1,0.7990656001493335,405.1116477998439,None,None,0,,,,,,,,,,,,,,014,2022-05-11_19h40.51.451,Main,2022.1.1,60.022100123872164,
positive,blue,1,k,None,,,,,,,,,0,87,87,87,,,,,,,,,,,,,,,,,main,k,k,1,0.8657073001377285,406.90600720001385,None,None,0,,,,,,,,,,,,,,014,2022-05-11_19h40.51.451,Main,2022.1.1,60.022100123872164,
negative,yellow,2,k,None,,,,,,,,,0,88,88,88,,,,,,,,,,,,,,,,,main,k,k,1,0.832339899847284,408.77267459989525,None,None,0,,,,,,,,,,,,,,014,2022-05-11_19h40.51.451,Main,2022.1.1,60.022100123872164,
negative,blue,2,None,k,,,,,,,,,0,89,89,89,,,,,,,,,,,,,,,,,main,None,None,1,1.4994415999390185,410.60601629992016,None,None,1,,,,,,,,,,,,,,014,2022-05-11_19h40.51.451,Main,2022.1.1,60.022100123872164,
positive,yellow,2,None,k,,,,,,,,,0,90,90,90,,,,,,,,,,,,,,,,,main,None,None,1,1.5007262001745403,413.10568589996547,None,None,1,,,,,,,,,,,,,,014,2022-05-11_19h40.51.451,Main,2022.1.1,60.022100123872164,
negative,yellow,1,k,None,,,,,,,,,0,91,91,91,,,,,,,,,,,,,,,,,main,k,k,1,1.2141543999314308,415.60598939983174,None,None,0,,,,,,,,,,,,,,014,2022-05-11_19h40.51.451,Main,2022.1.1,60.022100123872164,
negative,red,2,None,None,,,,,,,,,0,92,92,92,,,,,,,,,,,,,,,,,main,None,None,1,1.4996307000983506,417.8226050999947,None,None,1,,,,,,,,,,,,,,014,2022-05-11_19h40.51.451,Main,2022.1.1,60.022100123872164,
negative,blue,2,None,k,,,,,,,,,0,93,93,93,,,,,,,,,,,,,,,,,main,None,None,1,1.500563699984923,420.32215399993584,None,None,1,,,,,,,,,,,,,,014,2022-05-11_19h40.51.451,Main,2022.1.1,60.022100123872164,
negative,blue,1,None,k,,,,,,,,,0,94,94,94,,,,,,,,,,,,,,,,,main,None,None,1,1.4962836999911815,422.82497919979505,None,None,1,,,,,,,,,,,,,,014,2022-05-11_19h40.51.451,Main,2022.1.1,60.022100123872164,
negative,blue,1,None,k,,,,,,,,,0,95,95,95,,,,,,,,,,,,,,,,,main,None,None,1,1.4991496000438929,425.3279398998711,None,None,1,,,,,,,,,,,,,,014,2022-05-11_19h40.51.451,Main,2022.1.1,60.022100123872164,
negative,red,1,None,None,,,,,,,,,0,96,96,96,,,,,,,,,,,,,,,,,main,None,None,1,1.499116500141099,427.8222332999576,None,None,1,,,,,,,,,,,,,,014,2022-05-11_19h40.51.451,Main,2022.1.1,60.022100123872164,
positive,yellow,1,None,k,,,,,,,,,0,97,97,97,,,,,,,,,,,,,,,,,main,None,None,1,1.499840100063011,430.3222508998588,None,None,1,,,,,,,,,,,,,,014,2022-05-11_19h40.51.451,Main,2022.1.1,60.022100123872164,
negative,yellow,1,k,None,,,,,,,,,0,98,98,98,,,,,,,,,,,,,,,,,main,k,k,1,1.0471393999177963,432.8218942999374,None,None,0,,,,,,,,,,,,,,014,2022-05-11_19h40.51.451,Main,2022.1.1,60.022100123872164,
positive,red,1,None,None,,,,,,,,,0,99,99,99,,,,,,,,,,,,,,,,,main,None,None,1,1.5016188998706639,434.8719055999536,None,None,1,,,,,,,,,,,,,,014,2022-05-11_19h40.51.451,Main,2022.1.1,60.022100123872164,
positive,blue,1,k,None,,,,,,,,,0,100,100,100,,,,,,,,,,,,,,,,,main,k,k,1,0.8800482999067754,437.3721748997923,None,None,0,,,,,,,,,,,,,,014,2022-05-11_19h40.51.451,Main,2022.1.1,60.022100123872164,
negative,yellow,1,k,None,,,,,,,,,0,101,101,101,,,,,,,,,,,,,,,,,main,k,k,1,0.965871499851346,439.25537769985385,None,None,0,,,,,,,,,,,,,,014,2022-05-11_19h40.51.451,Main,2022.1.1,60.022100123872164,
negative,blue,2,None,k,,,,,,,,,0,102,102,102,,,,,,,,,,,,,,,,,main,None,None,1,1.4998093000613153,441.2219552998431,None,None,1,,,,,,,,,,,,,,014,2022-05-11_19h40.51.451,Main,2022.1.1,60.022100123872164,
negative,yellow,2,k,None,,,,,,,,,0,103,103,103,,,,,,,,,,,,,,,,,main,k,k,1,1.3642877999227494,443.7219288998749,None,None,0,,,,,,,,,,,,,,014,2022-05-11_19h40.51.451,Main,2022.1.1,60.022100123872164,
positive,yellow,2,None,k,,,,,,,,,0,104,104,104,,,,,,,,,,,,,,,,,main,None,None,1,1.5016801999881864,446.08826919994317,None,None,1,,,,,,,,,,,,,,014,2022-05-11_19h40.51.451,Main,2022.1.1,60.022100123872164,
positive,blue,1,k,None,,,,,,,,,0,105,105,105,,,,,,,,,,,,,,,,,main,k,k,1,0.8967771001625806,448.59107999992557,None,None,0,,,,,,,,,,,,,,014,2022-05-11_19h40.51.451,Main,2022.1.1,60.022100123872164,
positive,blue,2,k,None,,,,,,,,,0,106,106,106,,,,,,,,,,,,,,,,,main,k,k,1,1.0323672001250088,450.490964199882,None,None,0,,,,,,,,,,,,,,014,2022-05-11_19h40.51.451,Main,2022.1.1,60.022100123872164,
negative,blue,1,None,k,,,,,,,,,0,107,107,107,,,,,,,,,,,,,,,,,main,None,None,1,1.499630399979651,452.521802800009,None,None,1,,,,,,,,,,,,,,014,2022-05-11_19h40.51.451,Main,2022.1.1,60.022100123872164,
positive,yellow,2,None,k,,,,,,,,,0,108,108,108,,,,,,,,,,,,,,,,,main,None,None,1,1.498006199952215,455.0217011999339,None,None,1,,,,,,,,,,,,,,014,2022-05-11_19h40.51.451,Main,2022.1.1,60.022100123872164,
negative,yellow,1,k,None,,,,,,,,,0,109,109,109,,,,,,,,,,,,,,,,,main,k,k,1,1.1337556999642402,457.52412009984255,None,None,0,,,,,,,,,,,,,,014,2022-05-11_19h40.51.451,Main,2022.1.1,60.022100123872164,
negative,blue,2,None,k,,,,,,,,,0,110,110,110,,,,,,,,,,,,,,,,,main,None,None,1,1.498503799783066,459.65490449988283,None,None,1,,,,,,,,,,,,,,014,2022-05-11_19h40.51.451,Main,2022.1.1,60.022100123872164,
positive,blue,2,k,None,,,,,,,,,0,111,111,111,,,,,,,,,,,,,,,,,main,k,k,1,0.8152005998417735,462.1548725999892,None,None,0,,,,,,,,,,,,,,014,2022-05-11_19h40.51.451,Main,2022.1.1,60.022100123872164,
negative,blue,1,None,k,,,,,,,,,0,112,112,112,,,,,,,,,,,,,,,,,main,None,None,1,1.4991709999740124,463.9716339998413,None,None,1,,,,,,,,,,,,,,014,2022-05-11_19h40.51.451,Main,2022.1.1,60.022100123872164,
positive,yellow,1,None,k,,,,,,,,,0,113,113,113,,,,,,,,,,,,,,,,,main,None,None,1,1.5007275000680238,466.4711599999573,None,None,1,,,,,,,,,,,,,,014,2022-05-11_19h40.51.451,Main,2022.1.1,60.022100123872164,
negative,red,1,None,None,,,,,,,,,0,114,114,114,,,,,,,,,,,,,,,,,main,None,None,1,1.4971882000099868,468.97154899989255,None,None,1,,,,,,,,,,,,,,014,2022-05-11_19h40.51.451,Main,2022.1.1,60.022100123872164,
positive,red,1,None,None,,,,,,,,,0,115,115,115,,,,,,,,,,,,,,,,,main,None,None,1,1.4989469000138342,471.47136530000716,None,None,1,,,,,,,,,,,,,,014,2022-05-11_19h40.51.451,Main,2022.1.1,60.022100123872164,
negative,red,2,None,None,,,,,,,,,0,116,116,116,,,,,,,,,,,,,,,,,main,None,None,1,1.4988271999172866,473.97129829996265,None,None,1,,,,,,,,,,,,,,014,2022-05-11_19h40.51.451,Main,2022.1.1,60.022100123872164,
negative,yellow,2,k,None,,,,,,,,,0,117,117,117,,,,,,,,,,,,,,,,,main,k,k,1,1.1316723001655191,476.47124599991366,None,None,0,,,,,,,,,,,,,,014,2022-05-11_19h40.51.451,Main,2022.1.1,60.022100123872164,
positive,yellow,1,None,k,,,,,,,,,0,118,118,118,,,,,,,,,,,,,,,,,main,None,None,1,1.4993027998134494,478.6045599000063,None,None,1,,,,,,,,,,,,,,014,2022-05-11_19h40.51.451,Main,2022.1.1,60.022100123872164,
positive,red,2,None,None,,,,,,,,,0,119,119,119,,,,,,,,,,,,,,,,,main,None,None,1,1.5005909998435527,481.10422410001047,None,None,1,,,,,,,,,,,,,,014,2022-05-11_19h40.51.451,Main,2022.1.1,60.022100123872164,
positive,blue,2,k,None,,,,,,,,,0,120,120,120,,,,,,,,,,,,,,,,,main,k,k,1,0.8968644998967648,483.60701289982535,None,None,0,,,,,,,,,,,,,,014,2022-05-11_19h40.51.451,Main,2022.1.1,60.022100123872164,
negative,red,1,None,None,,,,,,,,,0,121,121,121,,,,,,,,,,,,,,,,,main,None,None,1,1.4993015001527965,485.50448689982295,None,None,1,,,,,,,,,,,,,,014,2022-05-11_19h40.51.451,Main,2022.1.1,60.022100123872164,
positive,yellow,2,None,k,,,,,,,,,0,122,122,122,,,,,,,,,,,,,,,,,main,None,None,1,1.5006474999245256,488.0040784999728,None,None,1,,,,,,,,,,,,,,014,2022-05-11_19h40.51.451,Main,2022.1.1,60.022100123872164,
negative,red,2,None,None,,,,,,,,,0,123,123,123,,,,,,,,,,,,,,,,,main,None,None,1,1.4990577001590282,490.5068220999092,None,None,1,,,,,,,,,,,,,,014,2022-05-11_19h40.51.451,Main,2022.1.1,60.022100123872164,
negative,yellow,2,k,None,,,,,,,,,0,124,124,124,,,,,,,,,,,,,,,,,main,k,k,1,0.8635629999917,493.00675849989057,None,None,0,,,,,,,,,,,,,,014,2022-05-11_19h40.51.451,Main,2022.1.1,60.022100123872164,
positive,red,1,None,None,,,,,,,,,0,125,125,125,,,,,,,,,,,,,,,,,main,None,None,1,1.4984460000414401,494.87091639987193,None,None,1,,,,,,,,,,,,,,014,2022-05-11_19h40.51.451,Main,2022.1.1,60.022100123872164,
negative,blue,2,None,k,,,,,,,,,0,126,126,126,,,,,,,,,,,,,,,,,main,None,None,1,1.5018331999890506,497.3705097998027,None,None,1,,,,,,,,,,,,,,014,2022-05-11_19h40.51.451,Main,2022.1.1,60.022100123872164,
negative,blue,1,None,k,,,,,,,,,0,127,127,127,,,,,,,,,,,,,,,,,main,None,None,1,1.4972933998797089,499.87333519989625,None,None,1,,,,,,,,,,,,,,014,2022-05-11_19h40.51.451,Main,2022.1.1,60.022100123872164,
negative,yellow,1,k,None,,,,,,,,,0,128,128,128,,,,,,,,,,,,,,,,,main,k,k,1,0.8481968000996858,502.37317529995926,None,None,0,,,,,,,,,,,,,,014,2022-05-11_19h40.51.451,Main,2022.1.1,60.022100123872164,
negative,yellow,1,k,None,,,,,,,,,0,129,129,129,,,,,,,,,,,,,,,,,main,k,k,1,0.7991391001269221,504.2206158998888,None,None,0,,,,,,,,,,,,,,014,2022-05-11_19h40.51.451,Main,2022.1.1,60.022100123872164,
positive,blue,1,k,None,,,,,,,,,0,130,130,130,,,,,,,,,,,,,,,,,main,k,k,1,0.9323559999465942,506.0205894999672,None,None,0,,,,,,,,,,,,,,014,2022-05-11_19h40.51.451,Main,2022.1.1,60.022100123872164,
negative,blue,1,None,k,,,,,,,,,0,131,131,131,,,,,,,,,,,,,,,,,main,None,None,1,1.4998377000447363,507.9539173999801,None,None,1,,,,,,,,,,,,,,014,2022-05-11_19h40.51.451,Main,2022.1.1,60.022100123872164,
negative,blue,2,None,k,,,,,,,,,0,132,132,132,,,,,,,,,,,,,,,,,main,None,None,1,1.4979997999034822,510.4538682999555,None,None,1,,,,,,,,,,,,,,014,2022-05-11_19h40.51.451,Main,2022.1.1,60.022100123872164,
positive,blue,2,k,None,,,,,,,,,0,133,133,133,,,,,,,,,,,,,,,,,main,k,k,1,0.8661142000928521,512.9538434999995,None,None,0,,,,,,,,,,,,,,014,2022-05-11_19h40.51.451,Main,2022.1.1,60.022100123872164,
positive,red,2,None,None,,,,,,,,,0,134,134,134,,,,,,,,,,,,,,,,,main,None,None,1,1.4989237000700086,514.8204750998411,None,None,1,,,,,,,,,,,,,,014,2022-05-11_19h40.51.451,Main,2022.1.1,60.022100123872164,
negative,yellow,2,k,None,,,,,,,,,0,135,135,135,,,,,,,,,,,,,,,,,main,k,k,1,0.9319653001148254,517.3201917998958,None,None,0,,,,,,,,,,,,,,014,2022-05-11_19h40.51.451,Main,2022.1.1,60.022100123872164,
positive,yellow,2,None,k,,,,,,,,,0,136,136,136,,,,,,,,,,,,,,,,,main,None,None,1,1.5013951000291854,519.2560990999918,None,None,1,,,,,,,,,,,,,,014,2022-05-11_19h40.51.451,Main,2022.1.1,60.022100123872164,
positive,blue,1,k,None,,,,,,,,,0,137,137,137,,,,,,,,,,,,,,,,,main,k,k,1,1.062892199959606,521.756110599963,None,None,0,,,,,,,,,,,,,,014,2022-05-11_19h40.51.451,Main,2022.1.1,60.022100123872164,
positive,yellow,1,None,k,,,,,,,,,0,138,138,138,,,,,,,,,,,,,,,,,main,None,None,1,1.5015866998583078,523.8199699998368,None,None,1,,,,,,,,,,,,,,014,2022-05-11_19h40.51.451,Main,2022.1.1,60.022100123872164,
positive,yellow,1,None,k,,,,,,,,,0,139,139,139,,,,,,,,,,,,,,,,,main,None,None,1,1.499046000186354,526.322773899883,None,None,1,,,,,,,,,,,,,,014,2022-05-11_19h40.51.451,Main,2022.1.1,60.022100123872164,
positive,yellow,1,None,k,,,,,,,,,0,140,140,140,,,,,,,,,,,,,,,,,main,None,None,1,1.4964606000576168,528.822686499916,None,None,1,,,,,,,,,,,,,,014,2022-05-11_19h40.51.451,Main,2022.1.1,60.022100123872164,
positive,blue,1,k,None,,,,,,,,,0,141,141,141,,,,,,,,,,,,,,,,,main,k,k,1,0.8165058000013232,531.3225574998651,None,None,0,,,,,,,,,,,,,,014,2022-05-11_19h40.51.451,Main,2022.1.1,60.022100123872164,
positive,blue,2,k,None,,,,,,,,,0,142,142,142,,,,,,,,,,,,,,,,,main,k,k,1,0.998387600062415,533.1364474999718,None,None,0,,,,,,,,,,,,,,014,2022-05-11_19h40.51.451,Main,2022.1.1,60.022100123872164,
positive,yellow,2,None,k,,,,,,,,,0,143,143,143,,,,,,,,,,,,,,,,,main,None,None,1,1.5002057999372482,535.139180299826,None,None,1,,,,,,,,,,,,,,014,2022-05-11_19h40.51.451,Main,2022.1.1,60.022100123872164,
negative,yellow,2,k,None,,,,,,,,,0,144,144,144,,,,,,,,,,,,,,,,,main,k,k,1,0.7956542000174522,537.6367675999645,None,None,0,,,,,,,,,,,,,,014,2022-05-11_19h40.51.451,Main,2022.1.1,60.022100123872164,
negative,blue,2,None,k,,,,,,,,,0,145,145,145,,,,,,,,,,,,,,,,,main,None,None,1,1.5016024999786168,539.4362912999932,None,None,1,,,,,,,,,,,,,,014,2022-05-11_19h40.51.451,Main,2022.1.1,60.022100123872164,
negative,red,1,None,None,,,,,,,,,0,146,146,146,,,,,,,,,,,,,,,,,main,None,None,1,1.4965516000520438,541.939048799919,None,None,1,,,,,,,,,,,,,,014,2022-05-11_19h40.51.451,Main,2022.1.1,60.022100123872164,
positive,blue,1,k,None,,,,,,,,,0,147,147,147,,,,,,,,,,,,,,,,,main,k,k,1,0.766033599851653,544.43649919983,None,None,0,,,,,,,,,,,,,,014,2022-05-11_19h40.51.451,Main,2022.1.1,60.022100123872164,
positive,yellow,1,None,k,,,,,,,,,0,148,148,148,,,,,,,,,,,,,,,,,main,None,None,1,1.4987486999016255,546.2030835999176,None,None,1,,,,,,,,,,,,,,014,2022-05-11_19h40.51.451,Main,2022.1.1,60.022100123872164,
negative,red,2,None,None,,,,,,,,,0,149,149,149,,,,,,,,,,,,,,,,,main,None,None,1,1.5015686999540776,548.7030464999843,None,None,1,,,,,,,,,,,,,,014,2022-05-11_19h40.51.451,Main,2022.1.1,60.022100123872164,
negative,blue,1,None,k,,,,,,,,,0,150,150,150,,,,,,,,,,,,,,,,,main,None,None,1,1.4973606001585722,551.2030358999036,None,None,1,,,,,,,,,,,,,,014,2022-05-11_19h40.51.451,Main,2022.1.1,60.022100123872164,
negative,yellow,2,k,None,,,,,,,,,0,151,151,151,,,,,,,,,,,,,,,,,main,k,k,1,0.9481992998626083,553.7030869999435,None,None,0,,,,,,,,,,,,,,014,2022-05-11_19h40.51.451,Main,2022.1.1,60.022100123872164,
negative,blue,2,None,k,,,,,,,,,0,152,152,152,,,,,,,,,,,,,,,,,main,None,None,1,1.499324900098145,555.6531897999812,None,None,1,,,,,,,,,,,,,,014,2022-05-11_19h40.51.451,Main,2022.1.1,60.022100123872164,
negative,yellow,1,k,None,,,,,,,,,0,153,153,153,,,,,,,,,,,,,,,,,main,k,k,1,1.0482343998737633,558.1528555999976,None,None,0,,,,,,,,,,,,,,014,2022-05-11_19h40.51.451,Main,2022.1.1,60.022100123872164,
negative,blue,1,None,k,,,,,,,,,0,154,154,154,,,,,,,,,,,,,,,,,main,None,None,1,1.4995889000128955,560.2028182998765,None,None,1,,,,,,,,,,,,,,014,2022-05-11_19h40.51.451,Main,2022.1.1,60.022100123872164,
positive,yellow,2,None,k,,,,,,,,,0,155,155,155,,,,,,,,,,,,,,,,,main,None,None,1,1.4975881001446396,562.7027868998703,None,None,1,,,,,,,,,,,,,,014,2022-05-11_19h40.51.451,Main,2022.1.1,60.022100123872164,
positive,red,2,None,None,,,,,,,,,0,156,156,156,,,,,,,,,,,,,,,,,main,None,None,1,1.5018718000501394,565.202485299902,None,None,1,,,,,,,,,,,,,,014,2022-05-11_19h40.51.451,Main,2022.1.1,60.022100123872164,
positive,red,1,None,None,,,,,,,,,0,157,157,157,,,,,,,,,,,,,,,,,main,None,None,1,1.4973561000078917,567.7027959998231,None,None,1,,,,,,,,,,,,,,014,2022-05-11_19h40.51.451,Main,2022.1.1,60.022100123872164,
positive,blue,2,k,None,,,,,,,,,0,158,158,158,,,,,,,,,,,,,,,,,main,k,k,1,0.7657915998715907,570.2028880999424,None,None,0,,,,,,,,,,,,,,014,2022-05-11_19h40.51.451,Main,2022.1.1,60.022100123872164,
negative,yellow,1,k,None,,,,,,,,,0,159,159,159,,,,,,,,,,,,,,,,,main,k,k,1,1.0483025999274105,571.9692871998996,None,None,0,,,,,,,,,,,,,,014,2022-05-11_19h40.51.451,Main,2022.1.1,60.022100123872164,
negative,red,2,None,None,,,,,,,,,0,160,160,160,,,,,,,,,,,,,,,,,main,None,None,1,1.5011219000443816,574.0191753997933,None,None,1,,,,,,,,,,,,,,014,2022-05-11_19h40.51.451,Main,2022.1.1,60.022100123872164,
negative,blue,1,None,k,,,,,,,,,0,161,161,161,,,,,,,,,,,,,,,,,main,None,None,1,1.497549399966374,576.5191734998953,None,None,1,,,,,,,,,,,,,,014,2022-05-11_19h40.51.451,Main,2022.1.1,60.022100123872164,
negative,blue,1,None,k,,,,,,,,,0,162,162,162,,,,,,,,,,,,,,,,,main,None,None,1,1.4987606999929994,579.0191219998524,None,None,1,,,,,,,,,,,,,,014,2022-05-11_19h40.51.451,Main,2022.1.1,60.022100123872164,
negative,yellow,1,k,None,,,,,,,,,0,163,163,163,,,,,,,,,,,,,,,,,main,k,k,1,0.9147366001270711,581.5190327998716,None,None,0,,,,,,,,,,,,,,014,2022-05-11_19h40.51.451,Main,2022.1.1,60.022100123872164,
negative,yellow,1,k,None,,,,,,,,,0,164,164,164,,,,,,,,,,,,,,,,,main,k,k,1,1.1487699998542666,583.4356138999574,None,None,0,,,,,,,,,,,,,,014,2022-05-11_19h40.51.451,Main,2022.1.1,60.022100123872164,
positive,yellow,1,None,k,,,,,,,,,0,165,165,165,,,,,,,,,,,,,,,,,main,None,None,1,1.4993853999767452,585.5857290998101,None,None,1,,,,,,,,,,,,,,014,2022-05-11_19h40.51.451,Main,2022.1.1,60.022100123872164,
negative,red,1,None,None,,,,,,,,,0,166,166,166,,,,,,,,,,,,,,,,,main,None,None,1,1.498129199957475,588.0854998999275,None,None,1,,,,,,,,,,,,,,014,2022-05-11_19h40.51.451,Main,2022.1.1,60.022100123872164,
negative,yellow,2,k,None,,,,,,,,,0,167,167,167,,,,,,,,,,,,,,,,,main,k,k,1,0.8988884000573307,590.5855409000069,None,None,0,,,,,,,,,,,,,,014,2022-05-11_19h40.51.451,Main,2022.1.1,60.022100123872164,
positive,blue,2,k,None,,,,,,,,,0,168,168,168,,,,,,,,,,,,,,,,,main,k,k,1,0.9165267001371831,592.4854854999576,None,None,0,,,,,,,,,,,,,,014,2022-05-11_19h40.51.451,Main,2022.1.1,60.022100123872164,
positive,red,2,None,None,,,,,,,,,0,169,169,169,,,,,,,,,,,,,,,,,main,None,None,1,1.4987367999274284,594.4020558998454,None,None,1,,,,,,,,,,,,,,014,2022-05-11_19h40.51.451,Main,2022.1.1,60.022100123872164,
positive,red,1,None,None,,,,,,,,,0,170,170,170,,,,,,,,,,,,,,,,,main,None,None,1,1.499171799980104,596.9020580998622,None,None,1,,,,,,,,,,,,,,014,2022-05-11_19h40.51.451,Main,2022.1.1,60.022100123872164,
negative,blue,2,None,k,,,,,,,,,0,171,171,171,,,,,,,,,,,,,,,,,main,None,None,1,1.4992859000340104,599.4020223999396,None,None,1,,,,,,,,,,,,,,014,2022-05-11_19h40.51.451,Main,2022.1.1,60.022100123872164,
positive,blue,2,k,None,,,,,,,,,0,172,172,172,,,,,,,,,,,,,,,,,main,k,k,1,1.065231499960646,601.9019338998478,None,None,0,,,,,,,,,,,,,,014,2022-05-11_19h40.51.451,Main,2022.1.1,60.022100123872164,
negative,yellow,2,k,None,,,,,,,,,0,173,173,173,,,,,,,,,,,,,,,,,main,k,k,1,1.031947299838066,603.9685921999626,None,None,0,,,,,,,,,,,,,,014,2022-05-11_19h40.51.451,Main,2022.1.1,60.022100123872164,
positive,yellow,2,None,k,,,,,,,,,0,174,174,174,,,,,,,,,,,,,,,,,main,None,None,1,1.5017047000583261,606.0019549999852,None,None,1,,,,,,,,,,,,,,014,2022-05-11_19h40.51.451,Main,2022.1.1,60.022100123872164,
negative,blue,2,None,k,,,,,,,,,0,175,175,175,,,,,,,,,,,,,,,,,main,None,None,1,1.4972431999631226,608.504373600008,None,None,1,,,,,,,,,,,,,,014,2022-05-11_19h40.51.451,Main,2022.1.1,60.022100123872164,
positive,blue,1,k,None,,,,,,,,,0,176,176,176,,,,,,,,,,,,,,,,,main,k,k,1,0.8148435999173671,611.0017844999675,None,None,0,,,,,,,,,,,,,,014,2022-05-11_19h40.51.451,Main,2022.1.1,60.022100123872164,
positive,yellow,1,None,k,,,,,,,,,0,177,177,177,,,,,,,,,,,,,,,,,main,None,None,1,1.4987961000297219,612.8184340998996,None,None,1,,,,,,,,,,,,,,014,2022-05-11_19h40.51.451,Main,2022.1.1,60.022100123872164,
positive,blue,1,k,None,,,,,,,,,0,178,178,178,,,,,,,,,,,,,,,,,main,k,k,1,0.8327915999107063,615.318312499905,None,None,0,,,,,,,,,,,,,,014,2022-05-11_19h40.51.451,Main,2022.1.1,60.022100123872164,
positive,yellow,2,None,k,,,,,,,,,0,179,179,179,,,,,,,,,,,,,,,,,main,None,None,1,1.499519599834457,617.1516399998218,None,None,1,,,,,,,,,,,,,,014,2022-05-11_19h40.51.451,Main,2022.1.1,60.022100123872164,
positive,blue,1,k,None,,,,,,,,,0,180,180,180,,,,,,,,,,,,,,,,,main,k,k,1,0.9148885000031441,619.6516138999723,None,None,0,,,,,,,,,,,,,,014,2022-05-11_19h40.51.451,Main,2022.1.1,60.022100123872164,
negative,red,1,None,None,,,,,,,,,0,181,181,181,,,,,,,,,,,,,,,,,main,None,None,1,1.4995087999850512,621.5681976999622,None,None,1,,,,,,,,,,,,,,014,2022-05-11_19h40.51.451,Main,2022.1.1,60.022100123872164,
negative,blue,1,None,k,,,,,,,,,0,182,182,182,,,,,,,,,,,,,,,,,main,None,None,1,1.4977164999581873,624.0681592999026,None,None,1,,,,,,,,,,,,,,014,2022-05-11_19h40.51.451,Main,2022.1.1,60.022100123872164,
negative,yellow,2,k,None,,,,,,,,,0,183,183,183,,,,,,,,,,,,,,,,,main,k,k,1,1.449637200217694,626.568075499963,None,None,0,,,,,,,,,,,,,,014,2022-05-11_19h40.51.451,Main,2022.1.1,60.022100123872164,
positive,yellow,2,None,k,,,,,,,,,0,184,184,184,,,,,,,,,,,,,,,,,main,None,None,1,1.4993779000360519,629.0181552998256,None,None,1,,,,,,,,,,,,,,014,2022-05-11_19h40.51.451,Main,2022.1.1,60.022100123872164,
positive,yellow,1,None,k,,,,,,,,,0,185,185,185,,,,,,,,,,,,,,,,,main,None,None,1,1.5007983001414686,631.5178087998647,None,None,1,,,,,,,,,,,,,,014,2022-05-11_19h40.51.451,Main,2022.1.1,60.022100123872164,
positive,red,2,None,None,,,,,,,,,0,186,186,186,,,,,,,,,,,,,,,,,main,None,None,1,1.4972230999264866,634.0204721000046,None,None,1,,,,,,,,,,,,,,014,2022-05-11_19h40.51.451,Main,2022.1.1,60.022100123872164,
positive,blue,1,k,None,,,,,,,,,0,187,187,187,,,,,,,,,,,,,,,,,main,k,k,1,0.8481970001012087,636.5178835999686,None,None,0,,,,,,,,,,,,,,014,2022-05-11_19h40.51.451,Main,2022.1.1,60.022100123872164,
negative,yellow,1,k,None,,,,,,,,,0,188,188,188,,,,,,,,,,,,,,,,,main,k,k,1,1.3324023999739438,638.3677999000065,None,None,0,,,,,,,,,,,,,,014,2022-05-11_19h40.51.451,Main,2022.1.1,60.022100123872164,
positive,yellow,2,None,k,,,,,,,,,0,189,189,189,,,,,,,,,,,,,,,,,main,None,None,1,1.499775700038299,640.7011273999233,None,None,1,,,,,,,,,,,,,,014,2022-05-11_19h40.51.451,Main,2022.1.1,60.022100123872164,
negative,yellow,2,k,None,,,,,,,,,0,190,190,190,,,,,,,,,,,,,,,,,main,k,k,1,0.7481832001358271,643.206588299945,None,None,0,,,,,,,,,,,,,,014,2022-05-11_19h40.51.451,Main,2022.1.1,60.022100123872164,
negative,yellow,1,k,None,,,,,,,,,0,191,191,191,,,,,,,,,,,,,,,,,main,k,k,1,0.8315818998962641,644.9509915998206,None,None,0,,,,,,,,,,,,,,014,2022-05-11_19h40.51.451,Main,2022.1.1,60.022100123872164,
positive,blue,2,k,None,,,,,,,,,0,192,192,192,,,,,,,,,,,,,,,,,main,k,k,1,0.8323342001531273,646.784328899812,None,None,0,,,,,,,,,,,,,,014,2022-05-11_19h40.51.451,Main,2022.1.1,60.022100123872164,
positive,yellow,1,None,k,,,,,,,,,0,193,193,193,,,,,,,,,,,,,,,,,main,None,None,1,1.4991472999099642,648.6176417998504,None,None,1,,,,,,,,,,,,,,014,2022-05-11_19h40.51.451,Main,2022.1.1,60.022100123872164,
negative,red,2,None,None,,,,,,,,,0,194,194,194,,,,,,,,,,,,,,,,,main,None,None,1,1.500573500059545,651.1173395998776,None,None,1,,,,,,,,,,,,,,014,2022-05-11_19h40.51.451,Main,2022.1.1,60.022100123872164,
positive,red,1,None,None,,,,,,,,,0,195,195,195,,,,,,,,,,,,,,,,,main,None,None,1,1.4973958998452872,653.6176542998292,None,None,1,,,,,,,,,,,,,,014,2022-05-11_19h40.51.451,Main,2022.1.1,60.022100123872164,
negative,blue,1,None,k,,,,,,,,,0,196,196,196,,,,,,,,,,,,,,,,,main,None,None,1,1.4986859997734427,656.1175271999091,None,None,1,,,,,,,,,,,,,,014,2022-05-11_19h40.51.451,Main,2022.1.1,60.022100123872164,
positive,blue,2,k,None,,,,,,,,,0,197,197,197,,,,,,,,,,,,,,,,,main,k,k,1,0.7982790002133697,658.6173861999996,None,None,0,,,,,,,,,,,,,,014,2022-05-11_19h40.51.451,Main,2022.1.1,60.022100123872164,
negative,blue,2,None,k,,,,,,,,,0,198,198,198,,,,,,,,,,,,,,,,,main,None,None,1,1.4997018000576645,660.4173748998437,None,None,1,,,,,,,,,,,,,,014,2022-05-11_19h40.51.451,Main,2022.1.1,60.022100123872164,
negative,blue,2,None,k,,,,,,,,,0,199,199,199,,,,,,,,,,,,,,,,,main,None,None,1,1.5002955999225378,662.9173347998876,None,None,1,,,,,,,,,,,,,,014,2022-05-11_19h40.51.451,Main,2022.1.1,60.022100123872164,
positive,blue,2,k,None,,,,,,,,,0,200,200,200,,,,,,,,,,,,,,,,,main,k,k,1,1.1637607999145985,665.4172496998217,None,None,0,,,,,,,,,,,,,,014,2022-05-11_19h40.51.451,Main,2022.1.1,60.022100123872164,
positive,blue,2,k,None,,,,,,,,,0,201,201,201,,,,,,,,,,,,,,,,,main,k,k,1,0.6328163000289351,667.5840290000197,None,None,0,,,,,,,,,,,,,,014,2022-05-11_19h40.51.451,Main,2022.1.1,60.022100123872164,
negative,yellow,2,k,None,,,,,,,,,0,202,202,202,,,,,,,,,,,,,,,,,main,k,k,1,0.8993812000844628,669.2169089999516,None,None,0,,,,,,,,,,,,,,014,2022-05-11_19h40.51.451,Main,2022.1.1,60.022100123872164,
positive,red,1,None,None,,,,,,,,,0,203,203,203,,,,,,,,,,,,,,,,,main,None,None,1,1.5009799001272768,671.1172915999778,None,None,1,,,,,,,,,,,,,,014,2022-05-11_19h40.51.451,Main,2022.1.1,60.022100123872164,
negative,blue,2,None,k,,,,,,,,,0,204,204,204,,,,,,,,,,,,,,,,,main,None,None,1,1.4970631999894977,673.6172340000048,None,None,1,,,,,,,,,,,,,,014,2022-05-11_19h40.51.451,Main,2022.1.1,60.022100123872164,
negative,red,1,None,None,,,,,,,,,0,205,205,205,,,,,,,,,,,,,,,,,main,None,None,1,1.500577799975872,676.1167875998653,None,None,1,,,,,,,,,,,,,,014,2022-05-11_19h40.51.451,Main,2022.1.1,60.022100123872164,
negative,blue,2,None,k,,,,,,,,,0,206,206,206,,,,,,,,,,,,,,,,,main,None,None,1,1.497555600013584,678.6171213998459,None,None,1,,,,,,,,,,,,,,014,2022-05-11_19h40.51.451,Main,2022.1.1,60.022100123872164,
negative,yellow,2,k,None,,,,,,,,,0,207,207,207,,,,,,,,,,,,,,,,,main,k,k,1,0.9304497998673469,681.1169110999908,None,None,0,,,,,,,,,,,,,,014,2022-05-11_19h40.51.451,Main,2022.1.1,60.022100123872164,
positive,yellow,2,None,k,,,,,,,,,0,208,208,208,,,,,,,,,,,,,,,,,main,None,None,1,1.4992770999670029,683.0501750998665,None,None,1,,,,,,,,,,,,,,014,2022-05-11_19h40.51.451,Main,2022.1.1,60.022100123872164,
negative,yellow,1,k,None,,,,,,,,,0,209,209,209,,,,,,,,,,,,,,,,,main,k,k,1,0.8320660998579115,685.5502255000174,None,None,0,,,,,,,,,,,,,,014,2022-05-11_19h40.51.451,Main,2022.1.1,60.022100123872164,
negative,red,2,None,None,,,,,,,,,0,210,210,210,,,,,,,,,,,,,,,,,main,None,None,1,1.4986548000015318,687.3835185999051,None,None,1,,,,,,,,,,,,,,014,2022-05-11_19h40.51.451,Main,2022.1.1,60.022100123872164,
negative,blue,1,None,k,,,,,,,,,0,211,211,211,,,,,,,,,,,,,,,,,main,None,None,1,1.4990323001984507,689.883484199876,None,None,1,,,,,,,,,,,,,,014,2022-05-11_19h40.51.451,Main,2022.1.1,60.022100123872164,
negative,yellow,1,k,None,,,,,,,,,0,212,212,212,,,,,,,,,,,,,,,,,main,k,k,1,0.8336606998927891,692.3833709999453,None,None,0,,,,,,,,,,,,,,014,2022-05-11_19h40.51.451,Main,2022.1.1,60.022100123872164,
positive,blue,1,k,None,,,,,,,,,0,213,213,213,,,,,,,,,,,,,,,,,main,k,k,1,0.7980759001802653,694.2166611999273,None,None,0,,,,,,,,,,,,,,014,2022-05-11_19h40.51.451,Main,2022.1.1,60.022100123872164,
positive,blue,1,k,None,,,,,,,,,0,214,214,214,,,,,,,,,,,,,,,,,main,k,k,1,0.6491213999688625,696.0166082999203,None,None,0,,,,,,,,,,,,,,014,2022-05-11_19h40.51.451,Main,2022.1.1,60.022100123872164,
positive,yellow,1,None,k,,,,,,,,,0,215,215,215,,,,,,,,,,,,,,,,,main,None,None,1,1.49947279994376,697.6665982999839,None,None,1,,,,,,,,,,,,,,014,2022-05-11_19h40.51.451,Main,2022.1.1,60.022100123872164,
positive,yellow,1,None,k,,,,,,,,,0,216,216,216,,,,,,,,,,,,,,,,,main,None,None,1,1.4988354998640716,700.1664771998767,None,None,1,,,,,,,,,,,,,,014,2022-05-11_19h40.51.451,Main,2022.1.1,60.022100123872164,
positive,yellow,2,None,k,,,,,,,,,0,217,217,217,,,,,,,,,,,,,,,,,main,None,None,1,1.498753699939698,702.6664833999239,None,None,1,,,,,,,,,,,,,,014,2022-05-11_19h40.51.451,Main,2022.1.1,60.022100123872164,
negative,blue,1,None,k,,,,,,,,,0,218,218,218,,,,,,,,,,,,,,,,,main,None,None,1,1.4990187000948936,705.1663710998837,None,None,1,,,,,,,,,,,,,,014,2022-05-11_19h40.51.451,Main,2022.1.1,60.022100123872164,
positive,red,2,None,None,,,,,,,,,0,219,219,219,,,,,,,,,,,,,,,,,main,None,None,1,1.5036192999687046,707.6687803999521,None,None,1,,,,,,,,,,,,,,014,2022-05-11_19h40.51.451,Main,2022.1.1,60.022100123872164,
positive,yellow,1,None,k,,,,,,,,,0,220,220,220,,,,,,,,,,,,,,,,,main,None,None,1,1.4940416000317782,710.1703303998802,None,None,1,,,,,,,,,,,,,,014,2022-05-11_19h40.51.451,Main,2022.1.1,60.022100123872164,
positive,blue,1,k,None,,,,,,,,,0,221,221,221,,,,,,,,,,,,,,,,,main,k,k,1,0.7818080999422818,712.6663118000142,None,None,0,,,,,,,,,,,,,,014,2022-05-11_19h40.51.451,Main,2022.1.1,60.022100123872164,
positive,yellow,2,None,k,,,,,,,,,0,222,222,222,,,,,,,,,,,,,,,,,main,None,None,1,1.5019217000808567,714.4495887998492,None,None,1,,,,,,,,,,,,,,014,2022-05-11_19h40.51.451,Main,2022.1.1,60.022100123872164,
negative,yellow,1,k,None,,,,,,,,,0,223,223,223,,,,,,,,,,,,,,,,,main,k,k,1,0.8126165000721812,716.9494564000051,None,None,0,,,,,,,,,,,,,,014,2022-05-11_19h40.51.451,Main,2022.1.1,60.022100123872164,
positive,yellow,2,None,k,,,,,,,,,0,224,224,224,,,,,,,,,,,,,,,,,main,None,None,1,1.5003364000003785,718.7685636999086,None,None,1,,,,,,,,,,,,,,014,2022-05-11_19h40.51.451,Main,2022.1.1,60.022100123872164,
negative,yellow,2,k,None,,,,,,,,,0,225,225,225,,,,,,,,,,,,,,,,,main,k,k,1,0.8639558998402208,721.2660405000206,None,None,0,,,,,,,,,,,,,,014,2022-05-11_19h40.51.451,Main,2022.1.1,60.022100123872164,
negative,blue,2,None,k,,,,,,,,,0,226,226,226,,,,,,,,,,,,,,,,,main,None,None,1,1.5019572998862714,723.1326970998198,None,None,1,,,,,,,,,,,,,,014,2022-05-11_19h40.51.451,Main,2022.1.1,60.022100123872164,
positive,red,2,None,None,,,,,,,,,0,227,227,227,,,,,,,,,,,,,,,,,main,None,None,1,1.4964083000086248,725.6326735999901,None,None,1,,,,,,,,,,,,,,014,2022-05-11_19h40.51.451,Main,2022.1.1,60.022100123872164,
positive,blue,2,k,None,,,,,,,,,0,228,228,228,,,,,,,,,,,,,,,,,main,k,k,1,0.8317577999550849,728.1326844999567,None,None,0,,,,,,,,,,,,,,014,2022-05-11_19h40.51.451,Main,2022.1.1,60.022100123872164,
negative,blue,1,None,k,,,,,,,,,0,229,229,229,,,,,,,,,,,,,,,,,main,None,None,1,1.4990346000995487,729.9659074000083,None,None,1,,,,,,,,,,,,,,014,2022-05-11_19h40.51.451,Main,2022.1.1,60.022100123872164,
positive,yellow,1,None,k,,,,,,,,,0,230,230,230,,,,,,,,,,,,,,,,,main,None,None,1,1.5007162000983953,732.4655724000186,None,None,1,,,,,,,,,,,,,,014,2022-05-11_19h40.51.451,Main,2022.1.1,60.022100123872164,
negative,blue,2,None,k,,,,,,,,,0,231,231,231,,,,,,,,,,,,,,,,,main,None,None,1,1.49900639988482,734.9659493998624,None,None,1,,,,,,,,,,,,,,014,2022-05-11_19h40.51.451,Main,2022.1.1,60.022100123872164,
negative,red,1,None,None,,,,,,,,,0,232,232,232,,,,,,,,,,,,,,,,,main,None,None,1,1.4964801999740303,737.4682815999258,None,None,1,,,,,,,,,,,,,,014,2022-05-11_19h40.51.451,Main,2022.1.1,60.022100123872164,
positive,blue,2,k,None,,,,,,,,,0,233,233,233,,,,,,,,,,,,,,,,,main,k,k,1,0.8992927998770028,739.9657620999496,None,None,0,,,,,,,,,,,,,,014,2022-05-11_19h40.51.451,Main,2022.1.1,60.022100123872164,
negative,yellow,1,k,None,,,,,,,,,0,234,234,234,,,,,,,,,,,,,,,,,main,k,k,1,1.1823422000743449,741.8657083997969,None,None,0,,,,,,,,,,,,,,014,2022-05-11_19h40.51.451,Main,2022.1.1,60.022100123872164,
negative,yellow,2,k,None,,,,,,,,,0,235,235,235,,,,,,,,,,,,,,,,,main,k,k,1,5.68246699986048,744.0489417000208,None,None,0,,,,,,,,,,,,,,014,2022-05-11_19h40.51.451,Main,2022.1.1,60.022100123872164,
positive,red,1,None,None,,,,,,,,,0,236,236,236,,,,,,,,,,,,,,,,,main,None,None,1,1.4986447000410408,751.7321473998018,None,None,1,,,,,,,,,,,,,,014,2022-05-11_19h40.51.451,Main,2022.1.1,60.022100123872164,
negative,red,2,None,None,,,,,,,,,0,237,237,237,,,,,,,,,,,,,,,,,main,None,None,1,1.499996199971065,754.2318710999098,None,None,1,,,,,,,,,,,,,,014,2022-05-11_19h40.51.451,Main,2022.1.1,60.022100123872164,
negative,blue,1,None,k,,,,,,,,,0,238,238,238,,,,,,,,,,,,,,,,,main,None,None,1,1.4975085000041872,756.7345494998153,None,None,1,,,,,,,,,,,,,,014,2022-05-11_19h40.51.451,Main,2022.1.1,60.022100123872164,
positive,blue,1,k,None,,,,,,,,,0,239,239,239,,,,,,,,,,,,,,,,,main,k,k,1,1.2981001001317054,759.2343158998992,None,None,0,,,,,,,,,,,,,,014,2022-05-11_19h40.51.451,Main,2022.1.1,60.022100123872164,
,,,,,,,,,,,,,,,,,,,,,,,,,,,,,,,,,,,,,,,,,,,,,,,,,,,,,761.5319007998332,None,,,,,,
