distractor,target,set,ans1,ans2,rep_loop4.thisRepN,rep_loop4.thisTrialN,rep_loop4.thisN,rep_loop4.thisIndex,st2_prac_loop.thisRepN,st2_prac_loop.thisTrialN,st2_prac_loop.thisN,st2_prac_loop.thisIndex,st2_main_loop.thisRepN,st2_main_loop.thisTrialN,st2_main_loop.thisN,st2_main_loop.thisIndex,image_4.started,image_4.stopped,sound_2.started,sound_2.stopped,key_resp_3.keys,key_resp_3.rt,image_5.started,image_5.stopped,st_prac_back.started,st_prac_back.stopped,st_prac_text.started,st_prac_text.stopped,st_fix_back.started,st_fix_back.stopped,st_fix_2.started,st_fix_2.stopped,main_prac,st_ans,st_res,st_corr,st_rt,st_back.started,st_back.stopped,st2_resp.keys,st2_resp.corr,st_main_back.started,st_main_back.stopped,st_main_text.started,st_main_text.stopped,mouse_4.x,mouse_4.y,mouse_4.leftButton,mouse_4.midButton,mouse_4.rightButton,mouse_4.started,mouse_4.stopped,text_2.started,text_2.stopped,id*,date,expName,psychopyVersion,frameRate,
negative,yellow,1,k,None,,,,,0,0,0,0,,,,,31.735677000004216,None,37.61703902000372,None,space,60.813141499995254,98.46264340000198,None,99.64615559999947,None,99.64615559999947,None,101.66010950000054,None,101.66010950000054,None,prac,None,None,1,1.5003610999992816,103.67542359999788,None,None,1,,,,,,,,,,,,,,015,2022-05-12_10h47.24.123,Main,2022.1.1,60.00686478433708,
positive,red,2,None,None,,,,,0,1,1,1,,,,,,,,,,,,,,,,,,,,,prac,None,None,1,1.4918069999985164,106.18918000000122,None,None,1,,,,,,,,,,,,,,015,2022-05-12_10h47.24.123,Main,2022.1.1,60.00686478433708,
negative,blue,2,None,k,,,,,0,2,2,2,,,,,,,,,,,,,,,,,,,,,prac,k,k,1,0.899426099997072,108.67685419999907,None,None,0,,,,,,,,,,,,,,015,2022-05-12_10h47.24.123,Main,2022.1.1,60.00686478433708,
positive,yellow,1,None,k,,,,,0,3,3,3,,,,,,,,,,,,,,,,,,,,,prac,k,k,1,1.0326198999973712,110.57675860000018,None,None,0,,,,,,,,,,,,,,015,2022-05-12_10h47.24.123,Main,2022.1.1,60.00686478433708,
negative,blue,2,None,k,,,,,0,4,4,4,,,,,,,,,,,,,,,,,,,,,prac,k,k,1,1.215602799995395,112.6101032000006,None,None,0,,,,,,,,,,,,,,015,2022-05-12_10h47.24.123,Main,2022.1.1,60.00686478433708,
negative,blue,1,None,k,,,,,0,5,5,5,,,,,,,,,,,,,,,,,,,,,prac,k,k,1,9.532645599996613,114.82664160000422,None,None,0,,,,,,,,,,,,,,015,2022-05-12_10h47.24.123,Main,2022.1.1,60.00686478433708,
negative,yellow,2,k,None,,,,,0,6,6,6,,,,,,,,,,,,,,,,,,,,,prac,None,None,1,1.4868166000014753,126.3595684000029,None,None,1,,,,,,,,,,,,,,015,2022-05-12_10h47.24.123,Main,2022.1.1,60.00686478433708,
negative,red,1,None,None,,,,,0,7,7,7,,,,,,,,,,,,,,,,,,,,,prac,None,None,1,1.4987525000033202,128.84556760000123,None,None,1,,,,,,,,,,,,,,015,2022-05-12_10h47.24.123,Main,2022.1.1,60.00686478433708,
positive,yellow,2,None,k,,,,,0,8,8,8,,,,,,,,,,,,,,,,,,,,,prac,k,k,1,4.413168500002939,131.3455288000041,None,None,0,,,,,,,,,,,,,,015,2022-05-12_10h47.24.123,Main,2022.1.1,60.00686478433708,
negative,yellow,1,k,None,,,,,0,9,9,9,,,,,,,,,,,,,,,,,,,,,prac,None,None,1,1.4985539999979665,137.76210320000246,None,None,1,,,,,,,,,,,,,,015,2022-05-12_10h47.24.123,Main,2022.1.1,60.00686478433708,
positive,yellow,2,None,k,,,,,0,10,10,10,,,,,,,,,,,,,,,,,,,,,prac,k,k,1,1.3821641999966232,140.25958130000072,None,None,0,,,,,,,,,,,,,,015,2022-05-12_10h47.24.123,Main,2022.1.1,60.00686478433708,
negative,yellow,2,k,None,,,,,0,11,11,11,,,,,,,,,,,,,,,,,,,,,prac,None,None,1,1.5012959000014234,142.64276020000398,None,None,1,,,,,,,,,,,,,,015,2022-05-12_10h47.24.123,Main,2022.1.1,60.00686478433708,
negative,red,2,None,None,,,,,0,12,12,12,,,,,,,,,,,,,,,,,,,,,prac,None,None,1,1.4973574000032386,145.14278329999797,None,None,1,,,,,,,,,,,,,,015,2022-05-12_10h47.24.123,Main,2022.1.1,60.00686478433708,
positive,red,1,None,None,,,,,0,13,13,13,,,,,,,,,,,,,,,,,,,,,prac,None,None,1,1.5004914000019198,147.64247669999895,None,None,1,,,,,,,,,,,,,,015,2022-05-12_10h47.24.123,Main,2022.1.1,60.00686478433708,
positive,blue,2,k,None,,,,,0,14,14,14,,,,,,,,,,,,,,,,,,,,,prac,None,None,1,1.499033000000054,150.14513850000367,None,None,1,,,,,,,,,,,,,,015,2022-05-12_10h47.24.123,Main,2022.1.1,60.00686478433708,
positive,blue,1,k,None,,,,,0,15,15,15,,,,,,,,,,,,,,,,,,,,,prac,None,None,1,1.4975320999947144,152.64506220000476,None,None,1,,,,,,,,,,,,,,015,2022-05-12_10h47.24.123,Main,2022.1.1,60.00686478433708,
negative,blue,1,None,k,,,,,0,16,16,16,,,,,,,,,,,,,,,,,,,,,prac,k,k,1,1.114920300002268,155.14252280000073,None,None,0,,,,,,,,,,,,,,015,2022-05-12_10h47.24.123,Main,2022.1.1,60.00686478433708,
positive,blue,2,k,None,,,,,0,17,17,17,,,,,,,,,,,,,,,,,,,,,prac,None,None,1,1.5011913000053028,157.26175820000208,None,None,1,,,,,,,,,,,,,,015,2022-05-12_10h47.24.123,Main,2022.1.1,60.00686478433708,
positive,blue,1,k,None,,,,,0,18,18,18,,,,,,,,,,,,,,,,,,,,,prac,None,None,1,1.4968355000019073,159.75915779999923,None,None,1,,,,,,,,,,,,,,015,2022-05-12_10h47.24.123,Main,2022.1.1,60.00686478433708,
positive,yellow,1,None,k,,,,,0,19,19,19,,,,,,,,,,,,,,,,,,,,,prac,k,k,1,1.0339232999976957,162.26149930000247,None,None,0,,,,,,,,,,,,,,015,2022-05-12_10h47.24.123,Main,2022.1.1,60.00686478433708,
negative,yellow,1,k,None,,,,,1,0,20,0,,,,,,,,,,,,,,,,,,,,,prac,None,None,1,1.499718600003689,164.29238050000276,None,None,1,,,,,,,,,,,,,,015,2022-05-12_10h47.24.123,Main,2022.1.1,60.00686478433708,
positive,red,2,None,None,,,,,1,1,21,1,,,,,,,,,,,,,,,,,,,,,prac,None,None,1,1.4973776999977417,166.79237500000454,None,None,1,,,,,,,,,,,,,,015,2022-05-12_10h47.24.123,Main,2022.1.1,60.00686478433708,
negative,blue,2,None,k,,,,,1,2,22,2,,,,,,,,,,,,,,,,,,,,,prac,k,k,1,5.53115400000388,169.292137000004,None,None,0,,,,,,,,,,,,,,015,2022-05-12_10h47.24.123,Main,2022.1.1,60.00686478433708,
positive,yellow,1,None,k,,,,,1,3,23,3,,,,,,,,,,,,,,,,,,,,,prac,k,k,1,1.2822799000059604,176.82807260000118,None,None,0,,,,,,,,,,,,,,015,2022-05-12_10h47.24.123,Main,2022.1.1,60.00686478433708,
negative,blue,2,None,k,,,,,1,4,24,4,,,,,,,,,,,,,,,,,,,,,prac,k,k,1,1.0319079000037163,179.1090187000009,None,None,0,,,,,,,,,,,,,,015,2022-05-12_10h47.24.123,Main,2022.1.1,60.00686478433708,
negative,blue,1,None,k,,,,,1,5,25,5,,,,,,,,,,,,,,,,,,,,,prac,k,k,1,1.8325385999996797,181.14206520000153,None,None,0,,,,,,,,,,,,,,015,2022-05-12_10h47.24.123,Main,2022.1.1,60.00686478433708,
negative,yellow,2,k,None,,,,,1,6,26,6,,,,,,,,,,,,,,,,,,,,,prac,None,None,1,1.4987610000025597,184.9752961999984,None,None,1,,,,,,,,,,,,,,015,2022-05-12_10h47.24.123,Main,2022.1.1,60.00686478433708,
negative,red,1,None,None,,,,,1,7,27,7,,,,,,,,,,,,,,,,,,,,,prac,None,None,1,1.4976419000013266,187.4776234000019,None,None,1,,,,,,,,,,,,,,015,2022-05-12_10h47.24.123,Main,2022.1.1,60.00686478433708,
positive,yellow,2,None,k,,,,,1,8,28,8,,,,,,,,,,,,,,,,,,,,,prac,k,k,1,1.2022171999997227,189.97493689999828,None,None,0,,,,,,,,,,,,,,015,2022-05-12_10h47.24.123,Main,2022.1.1,60.00686478433708,
negative,yellow,1,k,None,,,,,1,9,29,9,,,,,,,,,,,,,,,,,,,,,prac,None,None,1,1.4962258000014117,192.17765879999934,None,None,1,,,,,,,,,,,,,,015,2022-05-12_10h47.24.123,Main,2022.1.1,60.00686478433708,
positive,yellow,2,None,k,,,,,1,10,30,10,,,,,,,,,,,,,,,,,,,,,prac,k,k,1,1.3327601000055438,194.6748413000023,None,None,0,,,,,,,,,,,,,,015,2022-05-12_10h47.24.123,Main,2022.1.1,60.00686478433708,
negative,yellow,2,k,None,,,,,1,11,31,11,,,,,,,,,,,,,,,,,,,,,prac,None,None,1,1.5016401000029873,197.00818589999835,None,None,1,,,,,,,,,,,,,,015,2022-05-12_10h47.24.123,Main,2022.1.1,60.00686478433708,
negative,red,2,None,None,,,,,1,12,32,12,,,,,,,,,,,,,,,,,,,,,prac,None,None,1,1.4989289000004646,199.51085379999859,None,None,1,,,,,,,,,,,,,,015,2022-05-12_10h47.24.123,Main,2022.1.1,60.00686478433708,
positive,red,1,None,None,,,,,1,13,33,13,,,,,,,,,,,,,,,,,,,,,prac,None,None,1,1.4973049999971408,202.0083056000003,None,None,1,,,,,,,,,,,,,,015,2022-05-12_10h47.24.123,Main,2022.1.1,60.00686478433708,
positive,blue,2,k,None,,,,,1,14,34,14,,,,,,,,,,,,,,,,,,,,,prac,None,k,0,0.9154746000058367,204.5079773000034,None,None,1,,,,,,,,,,,,,,015,2022-05-12_10h47.24.123,Main,2022.1.1,60.00686478433708,
positive,blue,1,k,None,,,,,1,15,35,15,,,,,,,,,,,,,,,,,,,,,prac,None,None,1,1.5009064999976545,207.427700799999,None,None,1,,,,,,,,,,,,,,015,2022-05-12_10h47.24.123,Main,2022.1.1,60.00686478433708,
negative,blue,1,None,k,,,,,1,16,36,16,,,,,,,,,,,,,,,,,,,,,prac,k,k,1,1.0305883999972139,209.924820799999,None,None,0,,,,,,,,,,,,,,015,2022-05-12_10h47.24.123,Main,2022.1.1,60.00686478433708,
positive,blue,2,k,None,,,,,1,17,37,17,,,,,,,,,,,,,,,,,,,,,prac,None,None,1,1.5002309999981662,211.95782709999912,None,None,1,,,,,,,,,,,,,,015,2022-05-12_10h47.24.123,Main,2022.1.1,60.00686478433708,
positive,blue,1,k,None,,,,,1,18,38,18,,,,,,,,,,,,,,,,,,,,,prac,None,None,1,1.4991563000003225,214.4605662000031,None,None,1,,,,,,,,,,,,,,015,2022-05-12_10h47.24.123,Main,2022.1.1,60.00686478433708,
positive,yellow,1,None,k,,,,,1,19,39,19,,,,,,,,,,,,,,,,,,,,,prac,k,k,1,1.113296999996237,216.9605051000035,None,None,0,,,,,,,,,,,,,,015,2022-05-12_10h47.24.123,Main,2022.1.1,60.00686478433708,
,,,,,,,,,,,,,,,,,,,,,,,,,,,,,,,,,,,,,,,,,,219.07436210000014,None,219.07436210000014,None,0.475,-0.10277778,0,0,0,0.014233020003302954,None,,,015,2022-05-12_10h47.24.123,Main,2022.1.1,60.00686478433708,
negative,yellow,2,k,None,,,,,,,,,0,0,0,0,,,,,,,,,,,,,225.65762820000236,None,225.65762820000236,None,main,None,None,1,1.497067900003458,227.70232200000464,None,None,1,,,,,,,,,,,,,,015,2022-05-12_10h47.24.123,Main,2022.1.1,60.00686478433708,
positive,red,1,None,None,,,,,,,,,0,1,1,1,,,,,,,,,,,,,,,,,main,None,None,1,1.5008271999977296,230.21035539999866,None,None,1,,,,,,,,,,,,,,015,2022-05-12_10h47.24.123,Main,2022.1.1,60.00686478433708,
positive,blue,2,k,None,,,,,,,,,0,2,2,2,,,,,,,,,,,,,,,,,main,None,None,1,1.4972326999995857,232.71008260000235,None,None,1,,,,,,,,,,,,,,015,2022-05-12_10h47.24.123,Main,2022.1.1,60.00686478433708,
positive,blue,1,k,None,,,,,,,,,0,3,3,3,,,,,,,,,,,,,,,,,main,None,None,1,1.5007579000011901,235.2074369000038,None,None,1,,,,,,,,,,,,,,015,2022-05-12_10h47.24.123,Main,2022.1.1,60.00686478433708,
negative,yellow,2,k,None,,,,,,,,,0,4,4,4,,,,,,,,,,,,,,,,,main,None,None,1,1.4965929000027245,237.71015400000033,None,None,1,,,,,,,,,,,,,,015,2022-05-12_10h47.24.123,Main,2022.1.1,60.00686478433708,
positive,yellow,2,None,k,,,,,,,,,0,5,5,5,,,,,,,,,,,,,,,,,main,k,k,1,1.7328127000000677,240.20753890000196,None,None,0,,,,,,,,,,,,,,015,2022-05-12_10h47.24.123,Main,2022.1.1,60.00686478433708,
negative,blue,2,None,k,,,,,,,,,0,6,6,6,,,,,,,,,,,,,,,,,main,k,k,1,1.1010683000058634,243.94111920000432,None,None,0,,,,,,,,,,,,,,015,2022-05-12_10h47.24.123,Main,2022.1.1,60.00686478433708,
positive,red,2,None,None,,,,,,,,,0,7,7,7,,,,,,,,,,,,,,,,,main,None,None,1,1.498777600005269,246.04333059999772,None,None,1,,,,,,,,,,,,,,015,2022-05-12_10h47.24.123,Main,2022.1.1,60.00686478433708,
positive,yellow,1,None,k,,,,,,,,,0,8,8,8,,,,,,,,,,,,,,,,,main,k,k,1,1.015966999999364,248.54097190000175,None,None,0,,,,,,,,,,,,,,015,2022-05-12_10h47.24.123,Main,2022.1.1,60.00686478433708,
negative,red,1,None,None,,,,,,,,,0,9,9,9,,,,,,,,,,,,,,,,,main,None,None,1,1.4991761000055703,250.5573676999993,None,None,1,,,,,,,,,,,,,,015,2022-05-12_10h47.24.123,Main,2022.1.1,60.00686478433708,
positive,yellow,1,None,k,,,,,,,,,0,10,10,10,,,,,,,,,,,,,,,,,main,k,k,1,0.7989244000054896,253.05702069999825,None,None,0,,,,,,,,,,,,,,015,2022-05-12_10h47.24.123,Main,2022.1.1,60.00686478433708,
negative,yellow,1,k,None,,,,,,,,,0,11,11,11,,,,,,,,,,,,,,,,,main,None,None,1,1.500606900001003,254.85705980000057,None,None,1,,,,,,,,,,,,,,015,2022-05-12_10h47.24.123,Main,2022.1.1,60.00686478433708,
negative,yellow,1,k,None,,,,,,,,,0,12,12,12,,,,,,,,,,,,,,,,,main,None,None,1,1.4969006999963312,257.3597490000029,None,None,1,,,,,,,,,,,,,,015,2022-05-12_10h47.24.123,Main,2022.1.1,60.00686478433708,
negative,red,2,None,None,,,,,,,,,0,13,13,13,,,,,,,,,,,,,,,,,main,None,None,1,1.5006681000013486,259.85689280000224,None,None,1,,,,,,,,,,,,,,015,2022-05-12_10h47.24.123,Main,2022.1.1,60.00686478433708,
positive,yellow,2,None,k,,,,,,,,,0,14,14,14,,,,,,,,,,,,,,,,,main,k,k,1,1.3492525000037858,262.3596319999997,None,None,0,,,,,,,,,,,,,,015,2022-05-12_10h47.24.123,Main,2022.1.1,60.00686478433708,
positive,blue,1,k,None,,,,,,,,,0,15,15,15,,,,,,,,,,,,,,,,,main,None,k,0,-0.786624500004109,264.7095573999977,None,None,1,,,,,,,,,,,,,,015,2022-05-12_10h47.24.123,Main,2022.1.1,60.00686478433708,
negative,blue,1,None,k,,,,,,,,,0,16,16,16,,,,,,,,,,,,,,,,,main,k,k,1,0.9325137000050745,267.92613240000355,None,None,0,,,,,,,,,,,,,,015,2022-05-12_10h47.24.123,Main,2022.1.1,60.00686478433708,
positive,blue,2,k,None,,,,,,,,,0,17,17,17,,,,,,,,,,,,,,,,,main,None,None,1,1.4988219999941066,269.8594346000027,None,None,1,,,,,,,,,,,,,,015,2022-05-12_10h47.24.123,Main,2022.1.1,60.00686478433708,
negative,blue,2,None,k,,,,,,,,,0,18,18,18,,,,,,,,,,,,,,,,,main,k,k,1,0.7987838999979431,272.35662559999764,None,None,0,,,,,,,,,,,,,,015,2022-05-12_10h47.24.123,Main,2022.1.1,60.00686478433708,
negative,blue,1,None,k,,,,,,,,,0,19,19,19,,,,,,,,,,,,,,,,,main,k,k,1,1.6513021000064327,274.15940070000215,None,None,0,,,,,,,,,,,,,,015,2022-05-12_10h47.24.123,Main,2022.1.1,60.00686478433708,
negative,blue,1,None,k,,,,,,,,,0,20,20,20,,,,,,,,,,,,,,,,,main,k,k,1,0.7175340999965556,277.8231711999979,None,None,0,,,,,,,,,,,,,,015,2022-05-12_10h47.24.123,Main,2022.1.1,60.00686478433708,
negative,blue,2,None,k,,,,,,,,,0,21,21,21,,,,,,,,,,,,,,,,,main,k,k,1,0.7657292000003508,279.53988129999925,None,None,0,,,,,,,,,,,,,,015,2022-05-12_10h47.24.123,Main,2022.1.1,60.00686478433708,
negative,red,1,None,None,,,,,,,,,0,22,22,22,,,,,,,,,,,,,,,,,main,None,None,1,1.4991818999988027,281.3092057000031,None,None,1,,,,,,,,,,,,,,015,2022-05-12_10h47.24.123,Main,2022.1.1,60.00686478433708,
positive,red,2,None,None,,,,,,,,,0,23,23,23,,,,,,,,,,,,,,,,,main,None,None,1,1.4979165999975521,283.8090454999983,None,None,1,,,,,,,,,,,,,,015,2022-05-12_10h47.24.123,Main,2022.1.1,60.00686478433708,
negative,red,2,None,None,,,,,,,,,0,24,24,24,,,,,,,,,,,,,,,,,main,None,None,1,1.5019980000070063,286.3063515000031,None,None,1,,,,,,,,,,,,,,015,2022-05-12_10h47.24.123,Main,2022.1.1,60.00686478433708,
positive,blue,2,k,None,,,,,,,,,0,25,25,25,,,,,,,,,,,,,,,,,main,None,None,1,1.4992589999965276,288.80904920000467,None,None,1,,,,,,,,,,,,,,015,2022-05-12_10h47.24.123,Main,2022.1.1,60.00686478433708,
negative,yellow,1,k,None,,,,,,,,,0,26,26,26,,,,,,,,,,,,,,,,,main,None,None,1,1.4971784999943338,291.30900549999933,None,None,1,,,,,,,,,,,,,,015,2022-05-12_10h47.24.123,Main,2022.1.1,60.00686478433708,
positive,blue,2,k,None,,,,,,,,,0,27,27,27,,,,,,,,,,,,,,,,,main,None,None,1,1.5010719999991124,293.80628419999994,None,None,1,,,,,,,,,,,,,,015,2022-05-12_10h47.24.123,Main,2022.1.1,60.00686478433708,
negative,blue,2,None,k,,,,,,,,,0,28,28,28,,,,,,,,,,,,,,,,,main,k,k,1,0.7324578999978257,296.30895430000237,None,None,0,,,,,,,,,,,,,,015,2022-05-12_10h47.24.123,Main,2022.1.1,60.00686478433708,
positive,red,1,None,None,,,,,,,,,0,29,29,29,,,,,,,,,,,,,,,,,main,None,None,1,1.496277000005648,298.04262700000254,None,None,1,,,,,,,,,,,,,,015,2022-05-12_10h47.24.123,Main,2022.1.1,60.00686478433708,
positive,blue,1,k,None,,,,,,,,,0,30,30,30,,,,,,,,,,,,,,,,,main,None,None,1,1.4988583999947878,300.5400038000007,None,None,1,,,,,,,,,,,,,,015,2022-05-12_10h47.24.123,Main,2022.1.1,60.00686478433708,
positive,yellow,1,None,k,,,,,,,,,0,31,31,31,,,,,,,,,,,,,,,,,main,k,k,1,1.0995948999989196,303.03949699999794,None,None,0,,,,,,,,,,,,,,015,2022-05-12_10h47.24.123,Main,2022.1.1,60.00686478433708,
negative,yellow,2,k,None,,,,,,,,,0,32,32,32,,,,,,,,,,,,,,,,,main,None,None,1,1.500534400001925,305.1423888999998,None,None,1,,,,,,,,,,,,,,015,2022-05-12_10h47.24.123,Main,2022.1.1,60.00686478433708,
negative,blue,1,None,k,,,,,,,,,0,33,33,33,,,,,,,,,,,,,,,,,main,k,k,1,1.0530832000004011,307.6451403000028,None,None,0,,,,,,,,,,,,,,015,2022-05-12_10h47.24.123,Main,2022.1.1,60.00686478433708,
positive,blue,1,k,None,,,,,,,,,0,34,34,34,,,,,,,,,,,,,,,,,main,None,None,1,1.4956871000031242,309.68922210000164,None,None,1,,,,,,,,,,,,,,015,2022-05-12_10h47.24.123,Main,2022.1.1,60.00686478433708,
negative,yellow,1,k,None,,,,,,,,,0,35,35,35,,,,,,,,,,,,,,,,,main,None,None,1,1.4991036999999778,312.19195919999765,None,None,1,,,,,,,,,,,,,,015,2022-05-12_10h47.24.123,Main,2022.1.1,60.00686478433708,
positive,yellow,2,None,k,,,,,,,,,0,36,36,36,,,,,,,,,,,,,,,,,main,k,k,1,0.5801579000035417,314.6919181999983,None,None,0,,,,,,,,,,,,,,015,2022-05-12_10h47.24.123,Main,2022.1.1,60.00686478433708,
positive,yellow,2,None,k,,,,,,,,,0,37,37,37,,,,,,,,,,,,,,,,,main,k,k,1,0.6325737000006484,316.2750109000044,None,None,0,,,,,,,,,,,,,,015,2022-05-12_10h47.24.123,Main,2022.1.1,60.00686478433708,
negative,yellow,2,k,None,,,,,,,,,0,38,38,38,,,,,,,,,,,,,,,,,main,None,None,1,1.4984791000024416,317.9060578999997,None,None,1,,,,,,,,,,,,,,015,2022-05-12_10h47.24.123,Main,2022.1.1,60.00686478433708,
positive,yellow,1,None,k,,,,,,,,,0,39,39,39,,,,,,,,,,,,,,,,,main,k,k,1,0.8498480999987805,320.4057732000001,None,None,0,,,,,,,,,,,,,,015,2022-05-12_10h47.24.123,Main,2022.1.1,60.00686478433708,
negative,yellow,2,k,None,,,,,,,,,0,40,40,40,,,,,,,,,,,,,,,,,main,None,None,1,1.5006082999971113,322.2584313000043,None,None,1,,,,,,,,,,,,,,015,2022-05-12_10h47.24.123,Main,2022.1.1,60.00686478433708,
positive,blue,2,k,None,,,,,,,,,0,41,41,41,,,,,,,,,,,,,,,,,main,None,None,1,1.496792000005371,324.75589749999926,None,None,1,,,,,,,,,,,,,,015,2022-05-12_10h47.24.123,Main,2022.1.1,60.00686478433708,
positive,blue,2,k,None,,,,,,,,,0,42,42,42,,,,,,,,,,,,,,,,,main,None,None,1,1.5022506000022986,327.2582123000029,None,None,1,,,,,,,,,,,,,,015,2022-05-12_10h47.24.123,Main,2022.1.1,60.00686478433708,
negative,blue,2,None,k,,,,,,,,,0,43,43,43,,,,,,,,,,,,,,,,,main,k,k,1,0.629250600002706,329.75574929999857,None,None,0,,,,,,,,,,,,,,015,2022-05-12_10h47.24.123,Main,2022.1.1,60.00686478433708,
negative,red,1,None,None,,,,,,,,,0,44,44,44,,,,,,,,,,,,,,,,,main,None,None,1,1.4993837999936659,331.3891000000003,None,None,1,,,,,,,,,,,,,,015,2022-05-12_10h47.24.123,Main,2022.1.1,60.00686478433708,
negative,yellow,1,k,None,,,,,,,,,0,45,45,45,,,,,,,,,,,,,,,,,main,None,None,1,1.5005113000006531,333.888778200002,None,None,1,,,,,,,,,,,,,,015,2022-05-12_10h47.24.123,Main,2022.1.1,60.00686478433708,
negative,yellow,1,k,None,,,,,,,,,0,46,46,46,,,,,,,,,,,,,,,,,main,None,None,1,1.4991405999971903,336.39145129999815,None,None,1,,,,,,,,,,,,,,015,2022-05-12_10h47.24.123,Main,2022.1.1,60.00686478433708,
positive,red,1,None,None,,,,,,,,,0,47,47,47,,,,,,,,,,,,,,,,,main,None,None,1,1.4974717000004603,338.8914001000012,None,None,1,,,,,,,,,,,,,,015,2022-05-12_10h47.24.123,Main,2022.1.1,60.00686478433708,
positive,yellow,1,None,k,,,,,,,,,0,48,48,48,,,,,,,,,,,,,,,,,main,k,k,1,0.7652443000042695,341.3886316999997,None,None,0,,,,,,,,,,,,,,015,2022-05-12_10h47.24.123,Main,2022.1.1,60.00686478433708,
negative,blue,1,None,k,,,,,,,,,0,49,49,49,,,,,,,,,,,,,,,,,main,k,k,1,0.9511313000039081,343.15799269999843,None,None,0,,,,,,,,,,,,,,015,2022-05-12_10h47.24.123,Main,2022.1.1,60.00686478433708,
positive,yellow,2,None,k,,,,,,,,,0,50,50,50,,,,,,,,,,,,,,,,,main,k,k,1,1.0297904000035487,345.10795209999924,None,None,0,,,,,,,,,,,,,,015,2022-05-12_10h47.24.123,Main,2022.1.1,60.00686478433708,
negative,blue,1,None,k,,,,,,,,,0,51,51,51,,,,,,,,,,,,,,,,,main,k,k,1,0.716165900004853,347.1387101,None,None,0,,,,,,,,,,,,,,015,2022-05-12_10h47.24.123,Main,2022.1.1,60.00686478433708,
positive,red,2,None,None,,,,,,,,,0,52,52,52,,,,,,,,,,,,,,,,,main,None,None,1,1.5011942999990424,348.8578653000004,None,None,1,,,,,,,,,,,,,,015,2022-05-12_10h47.24.123,Main,2022.1.1,60.00686478433708,
positive,yellow,2,None,k,,,,,,,,,0,53,53,53,,,,,,,,,,,,,,,,,main,k,k,1,0.7465916000001016,351.35781470000074,None,None,0,,,,,,,,,,,,,,015,2022-05-12_10h47.24.123,Main,2022.1.1,60.00686478433708,
negative,red,2,None,None,,,,,,,,,0,54,54,54,,,,,,,,,,,,,,,,,main,None,None,1,1.5017342999999528,353.10501790000126,None,None,1,,,,,,,,,,,,,,015,2022-05-12_10h47.24.123,Main,2022.1.1,60.00686478433708,
positive,yellow,1,None,k,,,,,,,,,0,55,55,55,,,,,,,,,,,,,,,,,main,k,k,1,0.815853000000061,355.6077131999991,None,None,0,,,,,,,,,,,,,,015,2022-05-12_10h47.24.123,Main,2022.1.1,60.00686478433708,
negative,blue,2,None,k,,,,,,,,,0,56,56,56,,,,,,,,,,,,,,,,,main,k,k,1,0.830189899999823,357.42442180000216,None,None,0,,,,,,,,,,,,,,015,2022-05-12_10h47.24.123,Main,2022.1.1,60.00686478433708,
positive,blue,1,k,None,,,,,,,,,0,57,57,57,,,,,,,,,,,,,,,,,main,None,None,1,1.498701099997561,359.25524849999783,None,None,1,,,,,,,,,,,,,,015,2022-05-12_10h47.24.123,Main,2022.1.1,60.00686478433708,
positive,blue,1,k,None,,,,,,,,,0,58,58,58,,,,,,,,,,,,,,,,,main,None,None,1,1.5019496999957482,361.7548517000032,None,None,1,,,,,,,,,,,,,,015,2022-05-12_10h47.24.123,Main,2022.1.1,60.00686478433708,
negative,yellow,2,k,None,,,,,,,,,0,59,59,59,,,,,,,,,,,,,,,,,main,None,None,1,1.4989954000047874,364.25759729999845,None,None,1,,,,,,,,,,,,,,015,2022-05-12_10h47.24.123,Main,2022.1.1,60.00686478433708,
positive,red,2,None,None,,,,,,,,,0,60,60,60,,,,,,,,,,,,,,,,,main,None,None,1,1.4971140999987256,366.7575138000029,None,None,1,,,,,,,,,,,,,,015,2022-05-12_10h47.24.123,Main,2022.1.1,60.00686478433708,
negative,yellow,1,k,None,,,,,,,,,0,61,61,61,,,,,,,,,,,,,,,,,main,None,None,1,1.5007729999997537,369.25469760000124,None,None,1,,,,,,,,,,,,,,015,2022-05-12_10h47.24.123,Main,2022.1.1,60.00686478433708,
negative,red,1,None,None,,,,,,,,,0,62,62,62,,,,,,,,,,,,,,,,,main,None,None,1,1.4992004000014276,371.7574472999986,None,None,1,,,,,,,,,,,,,,015,2022-05-12_10h47.24.123,Main,2022.1.1,60.00686478433708,
negative,blue,1,None,k,,,,,,,,,0,63,63,63,,,,,,,,,,,,,,,,,main,k,k,1,0.8634109999984503,374.2573638000031,None,None,0,,,,,,,,,,,,,,015,2022-05-12_10h47.24.123,Main,2022.1.1,60.00686478433708,
positive,blue,2,k,None,,,,,,,,,0,64,64,64,,,,,,,,,,,,,,,,,main,None,None,1,1.5015787000011187,376.1212472000043,None,None,1,,,,,,,,,,,,,,015,2022-05-12_10h47.24.123,Main,2022.1.1,60.00686478433708,
negative,yellow,2,k,None,,,,,,,,,0,65,65,65,,,,,,,,,,,,,,,,,main,None,None,1,1.499010500003351,378.624141100001,None,None,1,,,,,,,,,,,,,,015,2022-05-12_10h47.24.123,Main,2022.1.1,60.00686478433708,
positive,yellow,2,None,k,,,,,,,,,0,66,66,66,,,,,,,,,,,,,,,,,main,k,k,1,0.7303895000004559,381.12394309999945,None,None,0,,,,,,,,,,,,,,015,2022-05-12_10h47.24.123,Main,2022.1.1,60.00686478433708,
positive,yellow,2,None,k,,,,,,,,,0,67,67,67,,,,,,,,,,,,,,,,,main,k,k,1,0.6654647999966983,382.85473130000173,None,None,0,,,,,,,,,,,,,,015,2022-05-12_10h47.24.123,Main,2022.1.1,60.00686478433708,
positive,red,1,None,None,,,,,,,,,0,68,68,68,,,,,,,,,,,,,,,,,main,None,None,1,1.4989179999975022,384.52128220000304,None,None,1,,,,,,,,,,,,,,015,2022-05-12_10h47.24.123,Main,2022.1.1,60.00686478433708,
positive,yellow,1,None,k,,,,,,,,,0,69,69,69,,,,,,,,,,,,,,,,,main,k,k,1,0.9329356999951415,387.0216486999998,None,None,0,,,,,,,,,,,,,,015,2022-05-12_10h47.24.123,Main,2022.1.1,60.00686478433708,
negative,yellow,2,k,None,,,,,,,,,0,70,70,70,,,,,,,,,,,,,,,,,main,None,None,1,1.4992054999966058,388.9546358000007,None,None,1,,,,,,,,,,,,,,015,2022-05-12_10h47.24.123,Main,2022.1.1,60.00686478433708,
positive,yellow,1,None,k,,,,,,,,,0,71,71,71,,,,,,,,,,,,,,,,,main,k,k,1,0.7988366000063252,391.4542780999982,None,None,0,,,,,,,,,,,,,,015,2022-05-12_10h47.24.123,Main,2022.1.1,60.00686478433708,
negative,blue,1,None,k,,,,,,,,,0,72,72,72,,,,,,,,,,,,,,,,,main,k,k,1,0.8653900999997859,393.2570238999979,None,None,0,,,,,,,,,,,,,,015,2022-05-12_10h47.24.123,Main,2022.1.1,60.00686478433708,
negative,red,2,None,None,,,,,,,,,0,73,73,73,,,,,,,,,,,,,,,,,main,None,None,1,1.4986135000071954,395.12362620000204,None,None,1,,,,,,,,,,,,,,015,2022-05-12_10h47.24.123,Main,2022.1.1,60.00686478433708,
positive,blue,2,k,None,,,,,,,,,0,74,74,74,,,,,,,,,,,,,,,,,main,None,None,1,1.4999269999971148,397.6234962000017,None,None,1,,,,,,,,,,,,,,015,2022-05-12_10h47.24.123,Main,2022.1.1,60.00686478433708,
negative,blue,2,None,k,,,,,,,,,0,75,75,75,,,,,,,,,,,,,,,,,main,k,k,1,0.6655276999954367,400.1207542999982,None,None,0,,,,,,,,,,,,,,015,2022-05-12_10h47.24.123,Main,2022.1.1,60.00686478433708,
negative,blue,2,None,k,,,,,,,,,0,76,76,76,,,,,,,,,,,,,,,,,main,k,k,1,0.6843473999979324,401.7903323999999,None,None,0,,,,,,,,,,,,,,015,2022-05-12_10h47.24.123,Main,2022.1.1,60.00686478433708,
negative,yellow,1,k,None,,,,,,,,,0,77,77,77,,,,,,,,,,,,,,,,,main,None,None,1,1.4961713000011514,403.47375140000076,None,None,1,,,,,,,,,,,,,,015,2022-05-12_10h47.24.123,Main,2022.1.1,60.00686478433708,
positive,blue,1,k,None,,,,,,,,,0,78,78,78,,,,,,,,,,,,,,,,,main,None,None,1,1.4988816999975825,405.9712709000014,None,None,1,,,,,,,,,,,,,,015,2022-05-12_10h47.24.123,Main,2022.1.1,60.00686478433708,
positive,blue,1,k,None,,,,,,,,,0,79,79,79,,,,,,,,,,,,,,,,,main,None,None,1,1.4994147999968845,408.47065660000226,None,None,1,,,,,,,,,,,,,,015,2022-05-12_10h47.24.123,Main,2022.1.1,60.00686478433708,
positive,red,2,None,None,,,,,,,,,0,80,80,80,,,,,,,,,,,,,,,,,main,None,None,1,1.4988968999969075,410.97346110000217,None,None,1,,,,,,,,,,,,,,015,2022-05-12_10h47.24.123,Main,2022.1.1,60.00686478433708,
positive,yellow,2,None,k,,,,,,,,,0,81,81,81,,,,,,,,,,,,,,,,,main,k,k,1,0.6295658999952138,413.47325880000426,None,None,0,,,,,,,,,,,,,,015,2022-05-12_10h47.24.123,Main,2022.1.1,60.00686478433708,
positive,blue,1,k,None,,,,,,,,,0,82,82,82,,,,,,,,,,,,,,,,,main,None,None,1,1.4989394000003813,415.10408660000394,None,None,1,,,,,,,,,,,,,,015,2022-05-12_10h47.24.123,Main,2022.1.1,60.00686478433708,
negative,yellow,2,k,None,,,,,,,,,0,83,83,83,,,,,,,,,,,,,,,,,main,None,None,1,1.5008422999962931,417.6037796000019,None,None,1,,,,,,,,,,,,,,015,2022-05-12_10h47.24.123,Main,2022.1.1,60.00686478433708,
positive,blue,2,k,None,,,,,,,,,0,84,84,84,,,,,,,,,,,,,,,,,main,None,None,1,1.4992008000044734,420.10644930000126,None,None,1,,,,,,,,,,,,,,015,2022-05-12_10h47.24.123,Main,2022.1.1,60.00686478433708,
positive,yellow,1,None,k,,,,,,,,,0,85,85,85,,,,,,,,,,,,,,,,,main,k,k,1,0.9981116000053589,422.6064069999993,None,None,0,,,,,,,,,,,,,,015,2022-05-12_10h47.24.123,Main,2022.1.1,60.00686478433708,
positive,blue,2,k,None,,,,,,,,,0,86,86,86,,,,,,,,,,,,,,,,,main,None,None,1,1.4998122000033618,424.6036183000033,None,None,1,,,,,,,,,,,,,,015,2022-05-12_10h47.24.123,Main,2022.1.1,60.00686478433708,
positive,blue,1,k,None,,,,,,,,,0,87,87,87,,,,,,,,,,,,,,,,,main,None,None,1,1.498961800003599,427.1063642000008,None,None,1,,,,,,,,,,,,,,015,2022-05-12_10h47.24.123,Main,2022.1.1,60.00686478433708,
negative,yellow,2,k,None,,,,,,,,,0,88,88,88,,,,,,,,,,,,,,,,,main,None,None,1,1.4963803999999072,429.60364120000304,None,None,1,,,,,,,,,,,,,,015,2022-05-12_10h47.24.123,Main,2022.1.1,60.00686478433708,
negative,blue,2,None,k,,,,,,,,,0,89,89,89,,,,,,,,,,,,,,,,,main,k,k,1,0.8687006999971345,432.10349600000336,None,None,0,,,,,,,,,,,,,,015,2022-05-12_10h47.24.123,Main,2022.1.1,60.00686478433708,
positive,yellow,2,None,k,,,,,,,,,0,90,90,90,,,,,,,,,,,,,,,,,main,k,k,1,0.6988353000051575,433.9728432999982,None,None,0,,,,,,,,,,,,,,015,2022-05-12_10h47.24.123,Main,2022.1.1,60.00686478433708,
negative,yellow,1,k,None,,,,,,,,,0,91,91,91,,,,,,,,,,,,,,,,,main,None,None,1,1.4972068999995827,435.6758189000029,None,None,1,,,,,,,,,,,,,,015,2022-05-12_10h47.24.123,Main,2022.1.1,60.00686478433708,
negative,red,2,None,None,,,,,,,,,0,92,92,92,,,,,,,,,,,,,,,,,main,None,None,1,1.5006279000008362,438.17008989999886,None,None,1,,,,,,,,,,,,,,015,2022-05-12_10h47.24.123,Main,2022.1.1,60.00686478433708,
negative,blue,2,None,k,,,,,,,,,0,93,93,93,,,,,,,,,,,,,,,,,main,k,k,1,0.6969705000010435,440.6726972000033,None,None,0,,,,,,,,,,,,,,015,2022-05-12_10h47.24.123,Main,2022.1.1,60.00686478433708,
negative,blue,1,None,k,,,,,,,,,0,94,94,94,,,,,,,,,,,,,,,,,main,k,k,1,1.0514091000004555,442.37017809999816,None,None,0,,,,,,,,,,,,,,015,2022-05-12_10h47.24.123,Main,2022.1.1,60.00686478433708,
negative,blue,1,None,k,,,,,,,,,0,95,95,95,,,,,,,,,,,,,,,,,main,k,k,1,0.9298818000024767,444.4201810000013,None,None,0,,,,,,,,,,,,,,015,2022-05-12_10h47.24.123,Main,2022.1.1,60.00686478433708,
negative,red,1,None,None,,,,,,,,,0,96,96,96,,,,,,,,,,,,,,,,,main,None,None,1,1.5026817000034498,446.35315439999977,None,None,1,,,,,,,,,,,,,,015,2022-05-12_10h47.24.123,Main,2022.1.1,60.00686478433708,
positive,yellow,1,None,k,,,,,,,,,0,97,97,97,,,,,,,,,,,,,,,,,main,k,k,1,0.7794336000006297,448.8558757999999,None,None,0,,,,,,,,,,,,,,015,2022-05-12_10h47.24.123,Main,2022.1.1,60.00686478433708,
negative,yellow,1,k,None,,,,,,,,,0,98,98,98,,,,,,,,,,,,,,,,,main,None,None,1,1.4984130000011646,450.6392038999984,None,None,1,,,,,,,,,,,,,,015,2022-05-12_10h47.24.123,Main,2022.1.1,60.00686478433708,
positive,red,1,None,None,,,,,,,,,0,99,99,99,,,,,,,,,,,,,,,,,main,None,None,1,1.5006687000059173,453.1364055000013,None,None,1,,,,,,,,,,,,,,015,2022-05-12_10h47.24.123,Main,2022.1.1,60.00686478433708,
positive,blue,1,k,None,,,,,,,,,0,100,100,100,,,,,,,,,,,,,,,,,main,None,None,1,1.4973092000000179,455.63906710000447,None,None,1,,,,,,,,,,,,,,015,2022-05-12_10h47.24.123,Main,2022.1.1,60.00686478433708,
negative,yellow,1,k,None,,,,,,,,,0,101,101,101,,,,,,,,,,,,,,,,,main,None,None,1,1.5003725999995368,458.13630260000355,None,None,1,,,,,,,,,,,,,,015,2022-05-12_10h47.24.123,Main,2022.1.1,60.00686478433708,
negative,blue,2,None,k,,,,,,,,,0,102,102,102,,,,,,,,,,,,,,,,,main,k,k,1,0.7324384999956237,460.63921090000076,None,None,0,,,,,,,,,,,,,,015,2022-05-12_10h47.24.123,Main,2022.1.1,60.00686478433708,
negative,yellow,2,k,None,,,,,,,,,0,103,103,103,,,,,,,,,,,,,,,,,main,None,None,1,1.4962128999977722,462.37016450000374,None,None,1,,,,,,,,,,,,,,015,2022-05-12_10h47.24.123,Main,2022.1.1,60.00686478433708,
positive,yellow,2,None,k,,,,,,,,,0,104,104,104,,,,,,,,,,,,,,,,,main,k,k,1,0.6834023000046727,464.87523599999986,None,None,0,,,,,,,,,,,,,,015,2022-05-12_10h47.24.123,Main,2022.1.1,60.00686478433708,
positive,blue,1,k,None,,,,,,,,,0,105,105,105,,,,,,,,,,,,,,,,,main,None,None,1,1.500275899998087,466.5527424000029,None,None,1,,,,,,,,,,,,,,015,2022-05-12_10h47.24.123,Main,2022.1.1,60.00686478433708,
positive,blue,2,k,None,,,,,,,,,0,106,106,106,,,,,,,,,,,,,,,,,main,None,None,1,1.4965146000031382,469.0554716999977,None,None,1,,,,,,,,,,,,,,015,2022-05-12_10h47.24.123,Main,2022.1.1,60.00686478433708,
negative,blue,1,None,k,,,,,,,,,0,107,107,107,,,,,,,,,,,,,,,,,main,k,k,1,0.7328090000009979,471.55292600000394,None,None,0,,,,,,,,,,,,,,015,2022-05-12_10h47.24.123,Main,2022.1.1,60.00686478433708,
positive,yellow,2,None,k,,,,,,,,,0,108,108,108,,,,,,,,,,,,,,,,,main,k,k,1,1.2155542999971658,473.2864905000024,None,None,0,,,,,,,,,,,,,,015,2022-05-12_10h47.24.123,Main,2022.1.1,60.00686478433708,
negative,yellow,1,k,None,,,,,,,,,0,109,109,109,,,,,,,,,,,,,,,,,main,None,None,1,1.501015899993945,475.502553600003,None,None,1,,,,,,,,,,,,,,015,2022-05-12_10h47.24.123,Main,2022.1.1,60.00686478433708,
negative,blue,2,None,k,,,,,,,,,0,110,110,110,,,,,,,,,,,,,,,,,main,k,k,1,1.232916999993904,478.005301600002,None,None,0,,,,,,,,,,,,,,015,2022-05-12_10h47.24.123,Main,2022.1.1,60.00686478433708,
positive,blue,2,k,None,,,,,,,,,0,111,111,111,,,,,,,,,,,,,,,,,main,None,None,1,1.496891599999799,480.2385909000004,None,None,1,,,,,,,,,,,,,,015,2022-05-12_10h47.24.123,Main,2022.1.1,60.00686478433708,
negative,blue,1,None,k,,,,,,,,,0,112,112,112,,,,,,,,,,,,,,,,,main,k,k,1,0.6689235000012559,482.73582040000474,None,None,0,,,,,,,,,,,,,,015,2022-05-12_10h47.24.123,Main,2022.1.1,60.00686478433708,
positive,yellow,1,None,k,,,,,,,,,0,113,113,113,,,,,,,,,,,,,,,,,main,k,k,1,0.6953208999984781,484.40519979999954,None,None,0,,,,,,,,,,,,,,015,2022-05-12_10h47.24.123,Main,2022.1.1,60.00686478433708,
negative,red,1,None,None,,,,,,,,,0,114,114,114,,,,,,,,,,,,,,,,,main,None,None,1,1.499188800000411,486.1051451000021,None,None,1,,,,,,,,,,,,,,015,2022-05-12_10h47.24.123,Main,2022.1.1,60.00686478433708,
positive,red,1,None,None,,,,,,,,,0,115,115,115,,,,,,,,,,,,,,,,,main,None,None,1,1.501782599996659,488.6023056999984,None,None,1,,,,,,,,,,,,,,015,2022-05-12_10h47.24.123,Main,2022.1.1,60.00686478433708,
negative,red,2,None,None,,,,,,,,,0,116,116,116,,,,,,,,,,,,,,,,,main,None,None,1,1.4980652000012924,491.10499849999906,None,None,1,,,,,,,,,,,,,,015,2022-05-12_10h47.24.123,Main,2022.1.1,60.00686478433708,
negative,yellow,2,k,None,,,,,,,,,0,117,117,117,,,,,,,,,,,,,,,,,main,None,None,1,1.4972705000036513,493.6049819000036,None,None,1,,,,,,,,,,,,,,015,2022-05-12_10h47.24.123,Main,2022.1.1,60.00686478433708,
positive,yellow,1,None,k,,,,,,,,,0,118,118,118,,,,,,,,,,,,,,,,,main,k,k,1,0.8654989000060596,496.1022143000009,None,None,0,,,,,,,,,,,,,,015,2022-05-12_10h47.24.123,Main,2022.1.1,60.00686478433708,
positive,red,2,None,None,,,,,,,,,0,119,119,119,,,,,,,,,,,,,,,,,main,None,None,1,1.499556599999778,497.9715514999989,None,None,1,,,,,,,,,,,,,,015,2022-05-12_10h47.24.123,Main,2022.1.1,60.00686478433708,
positive,blue,2,k,None,,,,,,,,,0,120,120,120,,,,,,,,,,,,,,,,,main,None,None,1,1.4976494000002276,500.46902260000206,None,None,1,,,,,,,,,,,,,,015,2022-05-12_10h47.24.123,Main,2022.1.1,60.00686478433708,
negative,red,1,None,None,,,,,,,,,0,121,121,121,,,,,,,,,,,,,,,,,main,None,None,1,1.5020012000022689,502.9686739000026,None,None,1,,,,,,,,,,,,,,015,2022-05-12_10h47.24.123,Main,2022.1.1,60.00686478433708,
positive,yellow,2,None,k,,,,,,,,,0,122,122,122,,,,,,,,,,,,,,,,,main,k,k,1,0.8661540999964927,505.4713924000025,None,None,0,,,,,,,,,,,,,,015,2022-05-12_10h47.24.123,Main,2022.1.1,60.00686478433708,
negative,red,2,None,None,,,,,,,,,0,123,123,123,,,,,,,,,,,,,,,,,main,None,None,1,1.496937899995828,507.3380608000007,None,None,1,,,,,,,,,,,,,,015,2022-05-12_10h47.24.123,Main,2022.1.1,60.00686478433708,
negative,yellow,2,k,None,,,,,,,,,0,124,124,124,,,,,,,,,,,,,,,,,main,None,None,1,1.5006266999989748,509.83522220000305,None,None,1,,,,,,,,,,,,,,015,2022-05-12_10h47.24.123,Main,2022.1.1,60.00686478433708,
positive,red,1,None,None,,,,,,,,,0,125,125,125,,,,,,,,,,,,,,,,,main,None,None,1,1.4967590000014752,512.3379171999986,None,None,1,,,,,,,,,,,,,,015,2022-05-12_10h47.24.123,Main,2022.1.1,60.00686478433708,
negative,blue,2,None,k,,,,,,,,,0,126,126,126,,,,,,,,,,,,,,,,,main,k,k,1,0.7323398000007728,514.8377712000001,None,None,0,,,,,,,,,,,,,,015,2022-05-12_10h47.24.123,Main,2022.1.1,60.00686478433708,
negative,blue,1,None,k,,,,,,,,,0,127,127,127,,,,,,,,,,,,,,,,,main,k,k,1,0.8491885999974329,516.5684280999994,None,None,0,,,,,,,,,,,,,,015,2022-05-12_10h47.24.123,Main,2022.1.1,60.00686478433708,
negative,yellow,1,k,None,,,,,,,,,0,128,128,128,,,,,,,,,,,,,,,,,main,None,None,1,1.501506500004325,518.4186122000028,None,None,1,,,,,,,,,,,,,,015,2022-05-12_10h47.24.123,Main,2022.1.1,60.00686478433708,
negative,yellow,1,k,None,,,,,,,,,0,129,129,129,,,,,,,,,,,,,,,,,main,None,None,1,1.4978092000019387,520.9211062000031,None,None,1,,,,,,,,,,,,,,015,2022-05-12_10h47.24.123,Main,2022.1.1,60.00686478433708,
positive,blue,1,k,None,,,,,,,,,0,130,130,130,,,,,,,,,,,,,,,,,main,None,None,1,1.4982019999952172,523.418276700002,None,None,1,,,,,,,,,,,,,,015,2022-05-12_10h47.24.123,Main,2022.1.1,60.00686478433708,
negative,blue,1,None,k,,,,,,,,,0,131,131,131,,,,,,,,,,,,,,,,,main,k,k,1,0.7318984999947133,525.918333499998,None,None,0,,,,,,,,,,,,,,015,2022-05-12_10h47.24.123,Main,2022.1.1,60.00686478433708,
negative,blue,2,None,k,,,,,,,,,0,132,132,132,,,,,,,,,,,,,,,,,main,k,k,1,0.7350675999987288,527.6543317000032,None,None,0,,,,,,,,,,,,,,015,2022-05-12_10h47.24.123,Main,2022.1.1,60.00686478433708,
positive,blue,2,k,None,,,,,,,,,0,133,133,133,,,,,,,,,,,,,,,,,main,None,None,1,1.4966746999998577,529.3876286000013,None,None,1,,,,,,,,,,,,,,015,2022-05-12_10h47.24.123,Main,2022.1.1,60.00686478433708,
positive,red,2,None,None,,,,,,,,,0,134,134,134,,,,,,,,,,,,,,,,,main,None,None,1,1.499669900003937,531.8854388000036,None,None,1,,,,,,,,,,,,,,015,2022-05-12_10h47.24.123,Main,2022.1.1,60.00686478433708,
negative,yellow,2,k,None,,,,,,,,,0,135,135,135,,,,,,,,,,,,,,,,,main,None,None,1,1.5004647000023397,534.3848099000024,None,None,1,,,,,,,,,,,,,,015,2022-05-12_10h47.24.123,Main,2022.1.1,60.00686478433708,
positive,yellow,2,None,k,,,,,,,,,0,136,136,136,,,,,,,,,,,,,,,,,main,k,k,1,0.6856693000008818,536.8878012999994,None,None,0,,,,,,,,,,,,,,015,2022-05-12_10h47.24.123,Main,2022.1.1,60.00686478433708,
positive,blue,1,k,None,,,,,,,,,0,137,137,137,,,,,,,,,,,,,,,,,main,None,None,1,1.4940474000031827,538.5722797999988,None,None,1,,,,,,,,,,,,,,015,2022-05-12_10h47.24.123,Main,2022.1.1,60.00686478433708,
positive,yellow,1,None,k,,,,,,,,,0,138,138,138,,,,,,,,,,,,,,,,,main,k,k,1,1.0006638999984716,541.0681043000004,None,None,0,,,,,,,,,,,,,,015,2022-05-12_10h47.24.123,Main,2022.1.1,60.00686478433708,
positive,yellow,1,None,k,,,,,,,,,0,139,139,139,,,,,,,,,,,,,,,,,main,k,k,1,0.6628887999977451,543.0706518000006,None,None,0,,,,,,,,,,,,,,015,2022-05-12_10h47.24.123,Main,2022.1.1,60.00686478433708,
positive,yellow,1,None,k,,,,,,,,,0,140,140,140,,,,,,,,,,,,,,,,,main,k,k,1,0.6335326999978861,544.7345210999993,None,None,0,,,,,,,,,,,,,,015,2022-05-12_10h47.24.123,Main,2022.1.1,60.00686478433708,
positive,blue,1,k,None,,,,,,,,,0,141,141,141,,,,,,,,,,,,,,,,,main,None,None,1,1.500454400003946,546.3678285999995,None,None,1,,,,,,,,,,,,,,015,2022-05-12_10h47.24.123,Main,2022.1.1,60.00686478433708,
positive,blue,2,k,None,,,,,,,,,0,142,142,142,,,,,,,,,,,,,,,,,main,None,None,1,1.4965952999991714,548.8705666000023,None,None,1,,,,,,,,,,,,,,015,2022-05-12_10h47.24.123,Main,2022.1.1,60.00686478433708,
positive,yellow,2,None,k,,,,,,,,,0,143,143,143,,,,,,,,,,,,,,,,,main,k,k,1,1.1324394999974174,551.3680412000031,None,None,0,,,,,,,,,,,,,,015,2022-05-12_10h47.24.123,Main,2022.1.1,60.00686478433708,
negative,yellow,2,k,None,,,,,,,,,0,144,144,144,,,,,,,,,,,,,,,,,main,None,None,1,1.5016324999960489,553.5010230000044,None,None,1,,,,,,,,,,,,,,015,2022-05-12_10h47.24.123,Main,2022.1.1,60.00686478433708,
negative,blue,2,None,k,,,,,,,,,0,145,145,145,,,,,,,,,,,,,,,,,main,k,k,1,0.6994399999966845,556.0037312999993,None,None,0,,,,,,,,,,,,,,015,2022-05-12_10h47.24.123,Main,2022.1.1,60.00686478433708,
negative,red,1,None,None,,,,,,,,,0,146,146,146,,,,,,,,,,,,,,,,,main,None,None,1,1.4976709000038682,557.7037161000044,None,None,1,,,,,,,,,,,,,,015,2022-05-12_10h47.24.123,Main,2022.1.1,60.00686478433708,
positive,blue,1,k,None,,,,,,,,,0,147,147,147,,,,,,,,,,,,,,,,,main,None,None,1,1.4998438999973587,560.2008734000046,None,None,1,,,,,,,,,,,,,,015,2022-05-12_10h47.24.123,Main,2022.1.1,60.00686478433708,
positive,yellow,1,None,k,,,,,,,,,0,148,148,148,,,,,,,,,,,,,,,,,main,k,k,1,0.7660474000003887,562.7035984000031,None,None,0,,,,,,,,,,,,,,015,2022-05-12_10h47.24.123,Main,2022.1.1,60.00686478433708,
negative,red,2,None,None,,,,,,,,,0,149,149,149,,,,,,,,,,,,,,,,,main,None,None,1,1.498979199997848,564.4702405999997,None,None,1,,,,,,,,,,,,,,015,2022-05-12_10h47.24.123,Main,2022.1.1,60.00686478433708,
negative,blue,1,None,k,,,,,,,,,0,150,150,150,,,,,,,,,,,,,,,,,main,k,k,1,0.7968180000025313,566.9676972000016,None,None,0,,,,,,,,,,,,,,015,2022-05-12_10h47.24.123,Main,2022.1.1,60.00686478433708,
negative,yellow,2,k,None,,,,,,,,,0,151,151,151,,,,,,,,,,,,,,,,,main,None,None,1,1.5025828999932855,568.7673705999987,None,None,1,,,,,,,,,,,,,,015,2022-05-12_10h47.24.123,Main,2022.1.1,60.00686478433708,
negative,blue,2,None,k,,,,,,,,,0,152,152,152,,,,,,,,,,,,,,,,,main,k,k,1,0.7815121999956318,571.2679705999981,None,None,0,,,,,,,,,,,,,,015,2022-05-12_10h47.24.123,Main,2022.1.1,60.00686478433708,
negative,yellow,1,k,None,,,,,,,,,0,153,153,153,,,,,,,,,,,,,,,,,main,None,None,1,1.496967200000654,573.0533995000005,None,None,1,,,,,,,,,,,,,,015,2022-05-12_10h47.24.123,Main,2022.1.1,60.00686478433708,
negative,blue,1,None,k,,,,,,,,,0,154,154,154,,,,,,,,,,,,,,,,,main,k,k,1,1.1322333999996772,575.5508789000014,None,None,0,,,,,,,,,,,,,,015,2022-05-12_10h47.24.123,Main,2022.1.1,60.00686478433708,
positive,yellow,2,None,k,,,,,,,,,0,155,155,155,,,,,,,,,,,,,,,,,main,k,k,1,0.6988672000006773,577.6840582000004,None,None,0,,,,,,,,,,,,,,015,2022-05-12_10h47.24.123,Main,2022.1.1,60.00686478433708,
positive,red,2,None,None,,,,,,,,,0,156,156,156,,,,,,,,,,,,,,,,,main,None,None,1,1.5014773000002606,579.3838832000038,None,None,1,,,,,,,,,,,,,,015,2022-05-12_10h47.24.123,Main,2022.1.1,60.00686478433708,
positive,red,1,None,None,,,,,,,,,0,157,157,157,,,,,,,,,,,,,,,,,main,None,None,1,1.4964731999934884,581.8865531999982,None,None,1,,,,,,,,,,,,,,015,2022-05-12_10h47.24.123,Main,2022.1.1,60.00686478433708,
positive,blue,2,k,None,,,,,,,,,0,158,158,158,,,,,,,,,,,,,,,,,main,None,None,1,1.5019433999987086,584.3837456000037,None,None,1,,,,,,,,,,,,,,015,2022-05-12_10h47.24.123,Main,2022.1.1,60.00686478433708,
negative,yellow,1,k,None,,,,,,,,,0,159,159,159,,,,,,,,,,,,,,,,,main,None,None,1,1.4991804000019329,586.8864477000025,None,None,1,,,,,,,,,,,,,,015,2022-05-12_10h47.24.123,Main,2022.1.1,60.00686478433708,
negative,red,2,None,None,,,,,,,,,0,160,160,160,,,,,,,,,,,,,,,,,main,None,None,1,1.4962158999987878,589.3863954999979,None,None,1,,,,,,,,,,,,,,015,2022-05-12_10h47.24.123,Main,2022.1.1,60.00686478433708,
negative,blue,1,None,k,,,,,,,,,0,161,161,161,,,,,,,,,,,,,,,,,main,k,k,1,0.800300499999139,591.8835736000037,None,None,0,,,,,,,,,,,,,,015,2022-05-12_10h47.24.123,Main,2022.1.1,60.00686478433708,
negative,blue,1,None,k,,,,,,,,,0,162,162,162,,,,,,,,,,,,,,,,,main,k,k,1,0.8656401999978698,593.684242299998,None,None,0,,,,,,,,,,,,,,015,2022-05-12_10h47.24.123,Main,2022.1.1,60.00686478433708,
negative,yellow,1,k,None,,,,,,,,,0,163,163,163,,,,,,,,,,,,,,,,,main,None,None,1,1.4983820999987074,595.5529882999981,None,None,1,,,,,,,,,,,,,,015,2022-05-12_10h47.24.123,Main,2022.1.1,60.00686478433708,
negative,yellow,1,k,None,,,,,,,,,0,164,164,164,,,,,,,,,,,,,,,,,main,None,None,1,1.4994251000025542,598.0504763999998,None,None,1,,,,,,,,,,,,,,015,2022-05-12_10h47.24.123,Main,2022.1.1,60.00686478433708,
positive,yellow,1,None,k,,,,,,,,,0,165,165,165,,,,,,,,,,,,,,,,,main,k,k,1,0.6158681000015349,600.5503248000023,None,None,0,,,,,,,,,,,,,,015,2022-05-12_10h47.24.123,Main,2022.1.1,60.00686478433708,
negative,red,1,None,None,,,,,,,,,0,166,166,166,,,,,,,,,,,,,,,,,main,None,None,1,1.5010619000022416,602.1669785999984,None,None,1,,,,,,,,,,,,,,015,2022-05-12_10h47.24.123,Main,2022.1.1,60.00686478433708,
negative,yellow,2,k,None,,,,,,,,,0,167,167,167,,,,,,,,,,,,,,,,,main,None,None,1,1.4975541000021622,604.6669837000009,None,None,1,,,,,,,,,,,,,,015,2022-05-12_10h47.24.123,Main,2022.1.1,60.00686478433708,
positive,blue,2,k,None,,,,,,,,,0,168,168,168,,,,,,,,,,,,,,,,,main,None,None,1,1.5007521000006818,607.1666488999981,None,None,1,,,,,,,,,,,,,,015,2022-05-12_10h47.24.123,Main,2022.1.1,60.00686478433708,
positive,red,2,None,None,,,,,,,,,0,169,169,169,,,,,,,,,,,,,,,,,main,None,None,1,1.4971638999995776,609.6693057000011,None,None,1,,,,,,,,,,,,,,015,2022-05-12_10h47.24.123,Main,2022.1.1,60.00686478433708,
positive,red,1,None,None,,,,,,,,,0,170,170,170,,,,,,,,,,,,,,,,,main,None,None,1,1.5006626999966102,612.1664968000041,None,None,1,,,,,,,,,,,,,,015,2022-05-12_10h47.24.123,Main,2022.1.1,60.00686478433708,
negative,blue,2,None,k,,,,,,,,,0,171,171,171,,,,,,,,,,,,,,,,,main,k,k,1,1.199558899999829,614.6692181000035,None,None,0,,,,,,,,,,,,,,015,2022-05-12_10h47.24.123,Main,2022.1.1,60.00686478433708,
positive,blue,2,k,None,,,,,,,,,0,172,172,172,,,,,,,,,,,,,,,,,main,None,None,1,1.496270399999048,616.8691794000042,None,None,1,,,,,,,,,,,,,,015,2022-05-12_10h47.24.123,Main,2022.1.1,60.00686478433708,
negative,yellow,2,k,None,,,,,,,,,0,173,173,173,,,,,,,,,,,,,,,,,main,None,None,1,1.5017279999956372,619.3664241000006,None,None,1,,,,,,,,,,,,,,015,2022-05-12_10h47.24.123,Main,2022.1.1,60.00686478433708,
positive,yellow,2,None,k,,,,,,,,,0,174,174,174,,,,,,,,,,,,,,,,,main,k,k,1,0.7135236999965855,621.8690935999985,None,None,0,,,,,,,,,,,,,,015,2022-05-12_10h47.24.123,Main,2022.1.1,60.00686478433708,
negative,blue,2,None,k,,,,,,,,,0,175,175,175,,,,,,,,,,,,,,,,,main,k,k,1,0.9999356999978772,623.5831897000025,None,None,0,,,,,,,,,,,,,,015,2022-05-12_10h47.24.123,Main,2022.1.1,60.00686478433708,
positive,blue,1,k,None,,,,,,,,,0,176,176,176,,,,,,,,,,,,,,,,,main,None,None,1,1.5006397999968613,625.5829668000006,None,None,1,,,,,,,,,,,,,,015,2022-05-12_10h47.24.123,Main,2022.1.1,60.00686478433708,
positive,yellow,1,None,k,,,,,,,,,0,177,177,177,,,,,,,,,,,,,,,,,main,k,k,1,0.9138412000029348,628.0856620999984,None,None,0,,,,,,,,,,,,,,015,2022-05-12_10h47.24.123,Main,2022.1.1,60.00686478433708,
positive,blue,1,k,None,,,,,,,,,0,178,178,178,,,,,,,,,,,,,,,,,main,None,None,1,1.5003647999983514,629.9994787000032,None,None,1,,,,,,,,,,,,,,015,2022-05-12_10h47.24.123,Main,2022.1.1,60.00686478433708,
positive,yellow,2,None,k,,,,,,,,,0,179,179,179,,,,,,,,,,,,,,,,,main,k,k,1,0.7507136000058381,632.5022051999986,None,None,0,,,,,,,,,,,,,,015,2022-05-12_10h47.24.123,Main,2022.1.1,60.00686478433708,
positive,blue,1,k,None,,,,,,,,,0,180,180,180,,,,,,,,,,,,,,,,,main,None,None,1,1.4976307999968412,634.2521866000025,None,None,1,,,,,,,,,,,,,,015,2022-05-12_10h47.24.123,Main,2022.1.1,60.00686478433708,
negative,red,1,None,None,,,,,,,,,0,181,181,181,,,,,,,,,,,,,,,,,main,None,None,1,1.4980482999962987,636.7496554000027,None,None,1,,,,,,,,,,,,,,015,2022-05-12_10h47.24.123,Main,2022.1.1,60.00686478433708,
negative,blue,1,None,k,,,,,,,,,0,182,182,182,,,,,,,,,,,,,,,,,main,k,k,1,0.6834530999985873,639.2492973000044,None,None,0,,,,,,,,,,,,,,015,2022-05-12_10h47.24.123,Main,2022.1.1,60.00686478433708,
negative,yellow,2,k,None,,,,,,,,,0,183,183,183,,,,,,,,,,,,,,,,,main,None,None,1,1.4987430999972275,640.9353545999984,None,None,1,,,,,,,,,,,,,,015,2022-05-12_10h47.24.123,Main,2022.1.1,60.00686478433708,
positive,yellow,2,None,k,,,,,,,,,0,184,184,184,,,,,,,,,,,,,,,,,main,k,k,1,1.0977700000003097,643.4353092000019,None,None,0,,,,,,,,,,,,,,015,2022-05-12_10h47.24.123,Main,2022.1.1,60.00686478433708,
positive,yellow,1,None,k,,,,,,,,,0,185,185,185,,,,,,,,,,,,,,,,,main,k,k,1,1.183704499999294,645.5324980000005,None,None,0,,,,,,,,,,,,,,015,2022-05-12_10h47.24.123,Main,2022.1.1,60.00686478433708,
positive,red,2,None,None,,,,,,,,,0,186,186,186,,,,,,,,,,,,,,,,,main,None,None,1,1.4987210000035702,647.718598600004,None,None,1,,,,,,,,,,,,,,015,2022-05-12_10h47.24.123,Main,2022.1.1,60.00686478433708,
positive,blue,1,k,None,,,,,,,,,0,187,187,187,,,,,,,,,,,,,,,,,main,None,None,1,1.4967170000018086,650.2185307000036,None,None,1,,,,,,,,,,,,,,015,2022-05-12_10h47.24.123,Main,2022.1.1,60.00686478433708,
negative,yellow,1,k,None,,,,,,,,,0,188,188,188,,,,,,,,,,,,,,,,,main,None,None,1,1.4996033999996143,652.7159591000018,None,None,1,,,,,,,,,,,,,,015,2022-05-12_10h47.24.123,Main,2022.1.1,60.00686478433708,
positive,yellow,2,None,k,,,,,,,,,0,189,189,189,,,,,,,,,,,,,,,,,main,k,k,1,1.2176304000022355,655.2156421000036,None,None,0,,,,,,,,,,,,,,015,2022-05-12_10h47.24.123,Main,2022.1.1,60.00686478433708,
negative,yellow,2,k,None,,,,,,,,,0,190,190,190,,,,,,,,,,,,,,,,,main,None,None,1,1.4996963000012329,657.4350573999982,None,None,1,,,,,,,,,,,,,,015,2022-05-12_10h47.24.123,Main,2022.1.1,60.00686478433708,
negative,yellow,1,k,None,,,,,,,,,0,191,191,191,,,,,,,,,,,,,,,,,main,None,None,1,1.4958870999980718,659.932504700002,None,None,1,,,,,,,,,,,,,,015,2022-05-12_10h47.24.123,Main,2022.1.1,60.00686478433708,
positive,blue,2,k,None,,,,,,,,,0,192,192,192,,,,,,,,,,,,,,,,,main,None,k,0,0.6317064999966533,662.4321591000044,None,None,1,,,,,,,,,,,,,,015,2022-05-12_10h47.24.123,Main,2022.1.1,60.00686478433708,
positive,yellow,1,None,k,,,,,,,,,0,193,193,193,,,,,,,,,,,,,,,,,main,k,k,1,1.4011337000047206,665.0682349999988,None,None,0,,,,,,,,,,,,,,015,2022-05-12_10h47.24.123,Main,2022.1.1,60.00686478433708,
negative,red,2,None,None,,,,,,,,,0,194,194,194,,,,,,,,,,,,,,,,,main,None,None,1,1.4983158000031835,667.4684419000041,None,None,1,,,,,,,,,,,,,,015,2022-05-12_10h47.24.123,Main,2022.1.1,60.00686478433708,
positive,red,1,None,None,,,,,,,,,0,195,195,195,,,,,,,,,,,,,,,,,main,None,None,1,1.4964204999996582,669.9658310000013,None,None,1,,,,,,,,,,,,,,015,2022-05-12_10h47.24.123,Main,2022.1.1,60.00686478433708,
negative,blue,1,None,k,,,,,,,,,0,196,196,196,,,,,,,,,,,,,,,,,main,k,k,1,1.0856036000041058,672.4653613000046,None,None,0,,,,,,,,,,,,,,015,2022-05-12_10h47.24.123,Main,2022.1.1,60.00686478433708,
positive,blue,2,k,None,,,,,,,,,0,197,197,197,,,,,,,,,,,,,,,,,main,None,None,1,1.5018467999980203,674.5513939000011,None,None,1,,,,,,,,,,,,,,015,2022-05-12_10h47.24.123,Main,2022.1.1,60.00686478433708,
negative,blue,2,None,k,,,,,,,,,0,198,198,198,,,,,,,,,,,,,,,,,main,k,k,1,0.6434416999982204,677.0524446999989,None,None,0,,,,,,,,,,,,,,015,2022-05-12_10h47.24.123,Main,2022.1.1,60.00686478433708,
negative,blue,2,None,k,,,,,,,,,0,199,199,199,,,,,,,,,,,,,,,,,main,k,k,1,0.7686788999999408,678.6984819999998,None,None,0,,,,,,,,,,,,,,015,2022-05-12_10h47.24.123,Main,2022.1.1,60.00686478433708,
positive,blue,2,k,None,,,,,,,,,0,200,200,200,,,,,,,,,,,,,,,,,main,None,None,1,1.4988149999990128,680.4681221999999,None,None,1,,,,,,,,,,,,,,015,2022-05-12_10h47.24.123,Main,2022.1.1,60.00686478433708,
positive,blue,2,k,None,,,,,,,,,0,201,201,201,,,,,,,,,,,,,,,,,main,None,None,1,1.496647200001462,682.967885099999,None,None,1,,,,,,,,,,,,,,015,2022-05-12_10h47.24.123,Main,2022.1.1,60.00686478433708,
negative,yellow,2,k,None,,,,,,,,,0,202,202,202,,,,,,,,,,,,,,,,,main,None,None,1,1.4997032000028412,685.4656096000035,None,None,1,,,,,,,,,,,,,,015,2022-05-12_10h47.24.123,Main,2022.1.1,60.00686478433708,
positive,red,1,None,None,,,,,,,,,0,203,203,203,,,,,,,,,,,,,,,,,main,None,None,1,1.5004785999990418,687.9651069000029,None,None,1,,,,,,,,,,,,,,015,2022-05-12_10h47.24.123,Main,2022.1.1,60.00686478433708,
negative,blue,2,None,k,,,,,,,,,0,204,204,204,,,,,,,,,,,,,,,,,main,k,k,1,1.2184034999954747,690.4680223000032,None,None,0,,,,,,,,,,,,,,015,2022-05-12_10h47.24.123,Main,2022.1.1,60.00686478433708,
negative,red,1,None,None,,,,,,,,,0,205,205,205,,,,,,,,,,,,,,,,,main,None,None,1,1.4943445999961114,692.6907810999983,None,None,1,,,,,,,,,,,,,,015,2022-05-12_10h47.24.123,Main,2022.1.1,60.00686478433708,
negative,blue,2,None,k,,,,,,,,,0,206,206,206,,,,,,,,,,,,,,,,,main,k,k,1,0.782042899998487,695.1818294000041,None,None,0,,,,,,,,,,,,,,015,2022-05-12_10h47.24.123,Main,2022.1.1,60.00686478433708,
negative,yellow,2,k,None,,,,,,,,,0,207,207,207,,,,,,,,,,,,,,,,,main,None,None,1,1.5020344000004116,696.964862300003,None,None,1,,,,,,,,,,,,,,015,2022-05-12_10h47.24.123,Main,2022.1.1,60.00686478433708,
positive,yellow,2,None,k,,,,,,,,,0,208,208,208,,,,,,,,,,,,,,,,,main,k,k,1,0.7514764000006835,699.4675175000011,None,None,0,,,,,,,,,,,,,,015,2022-05-12_10h47.24.123,Main,2022.1.1,60.00686478433708,
negative,yellow,1,k,None,,,,,,,,,0,209,209,209,,,,,,,,,,,,,,,,,main,None,None,1,1.4940987000009045,701.224091600001,None,None,1,,,,,,,,,,,,,,015,2022-05-12_10h47.24.123,Main,2022.1.1,60.00686478433708,
negative,red,2,None,None,,,,,,,,,0,210,210,210,,,,,,,,,,,,,,,,,main,None,None,1,1.50069789999543,703.7147667000027,None,None,1,,,,,,,,,,,,,,015,2022-05-12_10h47.24.123,Main,2022.1.1,60.00686478433708,
negative,blue,1,None,k,,,,,,,,,0,211,211,211,,,,,,,,,,,,,,,,,main,k,k,1,0.8473663999975543,706.2173799000011,None,None,0,,,,,,,,,,,,,,015,2022-05-12_10h47.24.123,Main,2022.1.1,60.00686478433708,
negative,yellow,1,k,None,,,,,,,,,0,212,212,212,,,,,,,,,,,,,,,,,main,None,None,1,1.4991812000007485,708.0673683999994,None,None,1,,,,,,,,,,,,,,015,2022-05-12_10h47.24.123,Main,2022.1.1,60.00686478433708,
positive,blue,1,k,None,,,,,,,,,0,213,213,213,,,,,,,,,,,,,,,,,main,None,None,1,1.5006976000004215,710.5645880000011,None,None,1,,,,,,,,,,,,,,015,2022-05-12_10h47.24.123,Main,2022.1.1,60.00686478433708,
positive,blue,1,k,None,,,,,,,,,0,214,214,214,,,,,,,,,,,,,,,,,main,None,None,1,1.499101299996255,713.0672371000037,None,None,1,,,,,,,,,,,,,,015,2022-05-12_10h47.24.123,Main,2022.1.1,60.00686478433708,
positive,yellow,1,None,k,,,,,,,,,0,215,215,215,,,,,,,,,,,,,,,,,main,k,k,1,0.8800756000055117,715.5647289999979,None,None,0,,,,,,,,,,,,,,015,2022-05-12_10h47.24.123,Main,2022.1.1,60.00686478433708,
positive,yellow,1,None,k,,,,,,,,,0,216,216,216,,,,,,,,,,,,,,,,,main,k,k,1,0.5660623000003397,717.4477332000024,None,None,0,,,,,,,,,,,,,,015,2022-05-12_10h47.24.123,Main,2022.1.1,60.00686478433708,
positive,yellow,2,None,k,,,,,,,,,0,217,217,217,,,,,,,,,,,,,,,,,main,k,k,1,1.068342800004757,719.0144412000009,None,None,0,,,,,,,,,,,,,,015,2022-05-12_10h47.24.123,Main,2022.1.1,60.00686478433708,
negative,blue,1,None,k,,,,,,,,,0,218,218,218,,,,,,,,,,,,,,,,,main,k,k,1,2.4646453999957885,721.0837365999978,None,None,0,,,,,,,,,,,,,,015,2022-05-12_10h47.24.123,Main,2022.1.1,60.00686478433708,
positive,red,2,None,None,,,,,,,,,0,219,219,219,,,,,,,,,,,,,,,,,main,None,None,1,1.499194299998635,725.5478938000015,None,None,1,,,,,,,,,,,,,,015,2022-05-12_10h47.24.123,Main,2022.1.1,60.00686478433708,
positive,yellow,1,None,k,,,,,,,,,0,220,220,220,,,,,,,,,,,,,,,,,main,k,k,1,0.8978281999952742,728.0476277999987,None,None,0,,,,,,,,,,,,,,015,2022-05-12_10h47.24.123,Main,2022.1.1,60.00686478433708,
positive,blue,1,k,None,,,,,,,,,0,221,221,221,,,,,,,,,,,,,,,,,main,None,None,1,1.4994057000003522,729.9477743000025,None,None,1,,,,,,,,,,,,,,015,2022-05-12_10h47.24.123,Main,2022.1.1,60.00686478433708,
positive,yellow,2,None,k,,,,,,,,,0,222,222,222,,,,,,,,,,,,,,,,,main,k,k,1,0.8510749999986729,732.447427500003,None,None,0,,,,,,,,,,,,,,015,2022-05-12_10h47.24.123,Main,2022.1.1,60.00686478433708,
negative,yellow,1,k,None,,,,,,,,,0,223,223,223,,,,,,,,,,,,,,,,,main,None,None,1,1.4985827999989851,734.3001669000005,None,None,1,,,,,,,,,,,,,,015,2022-05-12_10h47.24.123,Main,2022.1.1,60.00686478433708,
positive,yellow,2,None,k,,,,,,,,,0,224,224,224,,,,,,,,,,,,,,,,,main,k,k,1,1.2802384000024176,736.8000977999982,None,None,0,,,,,,,,,,,,,,015,2022-05-12_10h47.24.123,Main,2022.1.1,60.00686478433708,
negative,yellow,2,k,None,,,,,,,,,0,225,225,225,,,,,,,,,,,,,,,,,main,None,None,1,1.501656099993852,739.0806244999985,None,None,1,,,,,,,,,,,,,,015,2022-05-12_10h47.24.123,Main,2022.1.1,60.00686478433708,
negative,blue,2,None,k,,,,,,,,,0,226,226,226,,,,,,,,,,,,,,,,,main,k,k,1,0.9137894000014057,741.5833939000004,None,None,0,,,,,,,,,,,,,,015,2022-05-12_10h47.24.123,Main,2022.1.1,60.00686478433708,
positive,red,2,None,None,,,,,,,,,0,227,227,227,,,,,,,,,,,,,,,,,main,None,None,1,1.5010009000034188,743.4999777999983,None,None,1,,,,,,,,,,,,,,015,2022-05-12_10h47.24.123,Main,2022.1.1,60.00686478433708,
positive,blue,2,k,None,,,,,,,,,0,228,228,228,,,,,,,,,,,,,,,,,main,None,None,1,1.4968998999975156,745.9974195000032,None,None,1,,,,,,,,,,,,,,015,2022-05-12_10h47.24.123,Main,2022.1.1,60.00686478433708,
negative,blue,1,None,k,,,,,,,,,0,229,229,229,,,,,,,,,,,,,,,,,main,k,k,1,0.7657200000030571,748.4971233000033,None,None,0,,,,,,,,,,,,,,015,2022-05-12_10h47.24.123,Main,2022.1.1,60.00686478433708,
positive,yellow,1,None,k,,,,,,,,,0,230,230,230,,,,,,,,,,,,,,,,,main,k,k,1,1.1686846000011428,750.2638050000023,None,None,0,,,,,,,,,,,,,,015,2022-05-12_10h47.24.123,Main,2022.1.1,60.00686478433708,
negative,blue,2,None,k,,,,,,,,,0,231,231,231,,,,,,,,,,,,,,,,,main,k,k,1,0.9802257000046666,752.4331521999993,None,None,0,,,,,,,,,,,,,,015,2022-05-12_10h47.24.123,Main,2022.1.1,60.00686478433708,
negative,red,1,None,None,,,,,,,,,0,232,232,232,,,,,,,,,,,,,,,,,main,None,None,1,1.4985405999977957,754.413938800004,None,None,1,,,,,,,,,,,,,,015,2022-05-12_10h47.24.123,Main,2022.1.1,60.00686478433708,
positive,blue,2,k,None,,,,,,,,,0,233,233,233,,,,,,,,,,,,,,,,,main,None,None,1,1.4992584000065108,756.9138127000042,None,None,1,,,,,,,,,,,,,,015,2022-05-12_10h47.24.123,Main,2022.1.1,60.00686478433708,
negative,yellow,1,k,None,,,,,,,,,0,234,234,234,,,,,,,,,,,,,,,,,main,None,None,1,1.501439699997718,759.4138395000045,None,None,1,,,,,,,,,,,,,,015,2022-05-12_10h47.24.123,Main,2022.1.1,60.00686478433708,
negative,yellow,2,k,None,,,,,,,,,0,235,235,235,,,,,,,,,,,,,,,,,main,None,None,1,1.4963372000056552,761.9141458000013,None,None,1,,,,,,,,,,,,,,015,2022-05-12_10h47.24.123,Main,2022.1.1,60.00686478433708,
positive,red,1,None,None,,,,,,,,,0,236,236,236,,,,,,,,,,,,,,,,,main,None,None,1,1.5020341999988887,764.4135205999992,None,None,1,,,,,,,,,,,,,,015,2022-05-12_10h47.24.123,Main,2022.1.1,60.00686478433708,
negative,red,2,None,None,,,,,,,,,0,237,237,237,,,,,,,,,,,,,,,,,main,None,None,1,1.499022399999376,766.9164172000019,None,None,1,,,,,,,,,,,,,,015,2022-05-12_10h47.24.123,Main,2022.1.1,60.00686478433708,
negative,blue,1,None,k,,,,,,,,,0,238,238,238,,,,,,,,,,,,,,,,,main,k,k,1,1.3303182000017841,769.413918899998,None,None,0,,,,,,,,,,,,,,015,2022-05-12_10h47.24.123,Main,2022.1.1,60.00686478433708,
positive,blue,1,k,None,,,,,,,,,0,239,239,239,,,,,,,,,,,,,,,,,main,None,None,1,1.5013270000054035,771.7468645000044,None,None,1,,,,,,,,,,,,,,015,2022-05-12_10h47.24.123,Main,2022.1.1,60.00686478433708,
,,,,,,,,,,,,,,,,,,,,,,,,,,,,,,,,,,,,,,,,,,,,,,,,,,,,,774.2493262999997,None,,,,,,
