distractor,target,set,ans1,ans2,rep_loop4.thisRepN,rep_loop4.thisTrialN,rep_loop4.thisN,rep_loop4.thisIndex,st2_prac_loop.thisRepN,st2_prac_loop.thisTrialN,st2_prac_loop.thisN,st2_prac_loop.thisIndex,st2_main_loop.thisRepN,st2_main_loop.thisTrialN,st2_main_loop.thisN,st2_main_loop.thisIndex,image_4.started,image_4.stopped,sound_2.started,sound_2.stopped,key_resp_3.keys,key_resp_3.rt,image_5.started,image_5.stopped,st_prac_back.started,st_prac_back.stopped,st_prac_text.started,st_prac_text.stopped,st_fix_back.started,st_fix_back.stopped,st_fix_2.started,st_fix_2.stopped,main_prac,st_ans,st_res,st_corr,st_rt,st_back.started,st_back.stopped,st2_resp.keys,st2_resp.corr,st_main_back.started,st_main_back.stopped,st_main_text.started,st_main_text.stopped,mouse_4.x,mouse_4.y,mouse_4.leftButton,mouse_4.midButton,mouse_4.rightButton,mouse_4.started,mouse_4.stopped,text_2.started,text_2.stopped,id*,date,expName,psychopyVersion,frameRate,
negative,yellow,1,k,None,,,,,0,0,0,0,,,,,35.9778798000043,None,39.78033069000158,None,space,62.32385449999856,102.12905049999972,None,103.85982560000411,None,103.85982560000411,None,105.8597854000036,None,105.8597854000036,None,prac,k,k,1,3.984887799997523,107.8674009000024,None,None,0,,,,,,,,,,,,,,016,2022-05-12_13h36.45.921,Main,2022.1.1,60.21074966644569,
positive,red,2,None,None,,,,,0,1,1,1,,,,,,,,,,,,,,,,,,,,,prac,None,None,1,1.4958755999978166,113.86194800000521,None,None,1,,,,,,,,,,,,,,016,2022-05-12_13h36.45.921,Main,2022.1.1,60.21074966644569,
negative,blue,2,None,k,,,,,0,2,2,2,,,,,,,,,,,,,,,,,,,,,prac,None,None,1,1.4994532000055187,116.35947060000035,None,None,1,,,,,,,,,,,,,,016,2022-05-12_13h36.45.921,Main,2022.1.1,60.21074966644569,
positive,yellow,1,None,k,,,,,0,3,3,3,,,,,,,,,,,,,,,,,,,,,prac,None,None,1,1.4974998999969102,118.862145900006,None,None,1,,,,,,,,,,,,,,016,2022-05-12_13h36.45.921,Main,2022.1.1,60.21074966644569,
negative,blue,2,None,k,,,,,0,4,4,4,,,,,,,,,,,,,,,,,,,,,prac,None,None,1,1.4987369000009494,121.35959500000172,None,None,1,,,,,,,,,,,,,,016,2022-05-12_13h36.45.921,Main,2022.1.1,60.21074966644569,
negative,blue,1,None,k,,,,,0,5,5,5,,,,,,,,,,,,,,,,,,,,,prac,None,None,1,1.500044500004151,123.85926520000066,None,None,1,,,,,,,,,,,,,,016,2022-05-12_13h36.45.921,Main,2022.1.1,60.21074966644569,
negative,yellow,2,k,None,,,,,0,6,6,6,,,,,,,,,,,,,,,,,,,,,prac,k,k,1,1.0327530999929877,126.36194990000513,None,None,0,,,,,,,,,,,,,,016,2022-05-12_13h36.45.921,Main,2022.1.1,60.21074966644569,
negative,red,1,None,None,,,,,0,7,7,7,,,,,,,,,,,,,,,,,,,,,prac,None,None,1,1.4963599000038812,128.39524670000537,None,None,1,,,,,,,,,,,,,,016,2022-05-12_13h36.45.921,Main,2022.1.1,60.21074966644569,
positive,yellow,2,None,k,,,,,0,8,8,8,,,,,,,,,,,,,,,,,,,,,prac,None,None,1,1.4997757000019192,130.89267960000143,None,None,1,,,,,,,,,,,,,,016,2022-05-12_13h36.45.921,Main,2022.1.1,60.21074966644569,
negative,yellow,1,k,None,,,,,0,9,9,9,,,,,,,,,,,,,,,,,,,,,prac,k,k,1,1.0815318000022671,133.39233190000232,None,None,0,,,,,,,,,,,,,,016,2022-05-12_13h36.45.921,Main,2022.1.1,60.21074966644569,
positive,yellow,2,None,k,,,,,0,10,10,10,,,,,,,,,,,,,,,,,,,,,prac,None,None,1,1.501320499999565,135.4783830000015,None,None,1,,,,,,,,,,,,,,016,2022-05-12_13h36.45.921,Main,2022.1.1,60.21074966644569,
negative,yellow,2,k,None,,,,,0,11,11,11,,,,,,,,,,,,,,,,,,,,,prac,k,k,1,0.7982422999994014,137.97835920000216,None,None,0,,,,,,,,,,,,,,016,2022-05-12_13h36.45.921,Main,2022.1.1,60.21074966644569,
negative,red,2,None,None,,,,,0,12,12,12,,,,,,,,,,,,,,,,,,,,,prac,None,None,1,1.4995372999983374,139.77555530000245,None,None,1,,,,,,,,,,,,,,016,2022-05-12_13h36.45.921,Main,2022.1.1,60.21074966644569,
positive,red,1,None,None,,,,,0,13,13,13,,,,,,,,,,,,,,,,,,,,,prac,None,None,1,1.4992694999964442,142.27826760000607,None,None,1,,,,,,,,,,,,,,016,2022-05-12_13h36.45.921,Main,2022.1.1,60.21074966644569,
positive,blue,2,k,None,,,,,0,14,14,14,,,,,,,,,,,,,,,,,,,,,prac,k,k,1,0.7967594000001554,144.77822800000285,None,None,0,,,,,,,,,,,,,,016,2022-05-12_13h36.45.921,Main,2022.1.1,60.21074966644569,
positive,blue,1,k,None,,,,,0,15,15,15,,,,,,,,,,,,,,,,,,,,,prac,k,k,1,0.9012167999972007,146.57541380000475,None,None,0,,,,,,,,,,,,,,016,2022-05-12_13h36.45.921,Main,2022.1.1,60.21074966644569,
negative,blue,1,None,k,,,,,0,16,16,16,,,,,,,,,,,,,,,,,,,,,prac,None,None,1,1.4990154999977676,148.47815560000163,None,None,1,,,,,,,,,,,,,,016,2022-05-12_13h36.45.921,Main,2022.1.1,60.21074966644569,
positive,blue,2,k,None,,,,,0,17,17,17,,,,,,,,,,,,,,,,,,,,,prac,k,k,1,0.7799484999995911,150.97812420000264,None,None,0,,,,,,,,,,,,,,016,2022-05-12_13h36.45.921,Main,2022.1.1,60.21074966644569,
positive,blue,1,k,None,,,,,0,18,18,18,,,,,,,,,,,,,,,,,,,,,prac,k,k,1,0.7826931999952649,152.75884300000325,None,None,0,,,,,,,,,,,,,,016,2022-05-12_13h36.45.921,Main,2022.1.1,60.21074966644569,
positive,yellow,1,None,k,,,,,0,19,19,19,,,,,,,,,,,,,,,,,,,,,prac,None,None,1,1.5019006000002264,154.54474710000068,None,None,1,,,,,,,,,,,,,,016,2022-05-12_13h36.45.921,Main,2022.1.1,60.21074966644569,
negative,yellow,1,k,None,,,,,1,0,20,0,,,,,,,,,,,,,,,,,,,,,prac,k,k,1,0.6296048000003793,157.04464260000532,None,None,0,,,,,,,,,,,,,,016,2022-05-12_13h36.45.921,Main,2022.1.1,60.21074966644569,
positive,red,2,None,None,,,,,1,1,21,1,,,,,,,,,,,,,,,,,,,,,prac,None,None,1,1.500930399997742,158.67519250000623,None,None,1,,,,,,,,,,,,,,016,2022-05-12_13h36.45.921,Main,2022.1.1,60.21074966644569,
negative,blue,2,None,k,,,,,1,2,22,2,,,,,,,,,,,,,,,,,,,,,prac,None,None,1,1.4988299000033294,161.17787720000342,None,None,1,,,,,,,,,,,,,,016,2022-05-12_13h36.45.921,Main,2022.1.1,60.21074966644569,
positive,yellow,1,None,k,,,,,1,3,23,3,,,,,,,,,,,,,,,,,,,,,prac,None,None,1,1.4963156000012532,163.67537119999906,None,None,1,,,,,,,,,,,,,,016,2022-05-12_13h36.45.921,Main,2022.1.1,60.21074966644569,
negative,blue,2,None,k,,,,,1,4,24,4,,,,,,,,,,,,,,,,,,,,,prac,None,None,1,1.502138500000001,166.17503990000114,None,None,1,,,,,,,,,,,,,,016,2022-05-12_13h36.45.921,Main,2022.1.1,60.21074966644569,
negative,blue,1,None,k,,,,,1,5,25,5,,,,,,,,,,,,,,,,,,,,,prac,None,None,1,1.4987015000006068,168.67777560000104,None,None,1,,,,,,,,,,,,,,016,2022-05-12_13h36.45.921,Main,2022.1.1,60.21074966644569,
negative,yellow,2,k,None,,,,,1,6,26,6,,,,,,,,,,,,,,,,,,,,,prac,k,k,1,1.0636311000052956,171.17768839999917,None,None,0,,,,,,,,,,,,,,016,2022-05-12_13h36.45.921,Main,2022.1.1,60.21074966644569,
negative,red,1,None,None,,,,,1,7,27,7,,,,,,,,,,,,,,,,,,,,,prac,None,None,1,1.4993324000024586,173.24225970000407,None,None,1,,,,,,,,,,,,,,016,2022-05-12_13h36.45.921,Main,2022.1.1,60.21074966644569,
positive,yellow,2,None,k,,,,,1,8,28,8,,,,,,,,,,,,,,,,,,,,,prac,None,None,1,1.5007074999957695,175.741488700005,None,None,1,,,,,,,,,,,,,,016,2022-05-12_13h36.45.921,Main,2022.1.1,60.21074966644569,
negative,yellow,1,k,None,,,,,1,9,29,9,,,,,,,,,,,,,,,,,,,,,prac,k,k,1,0.8805057999998098,178.24421450000227,None,None,0,,,,,,,,,,,,,,016,2022-05-12_13h36.45.921,Main,2022.1.1,60.21074966644569,
positive,yellow,2,None,k,,,,,1,10,30,10,,,,,,,,,,,,,,,,,,,,,prac,None,None,1,1.4991545000011683,180.12518070000078,None,None,1,,,,,,,,,,,,,,016,2022-05-12_13h36.45.921,Main,2022.1.1,60.21074966644569,
negative,yellow,2,k,None,,,,,1,11,31,11,,,,,,,,,,,,,,,,,,,,,prac,k,k,1,0.951312199998938,182.62473980000505,None,None,0,,,,,,,,,,,,,,016,2022-05-12_13h36.45.921,Main,2022.1.1,60.21074966644569,
negative,red,2,None,None,,,,,1,12,32,12,,,,,,,,,,,,,,,,,,,,,prac,None,None,1,1.496044700004859,184.57742839999992,None,None,1,,,,,,,,,,,,,,016,2022-05-12_13h36.45.921,Main,2022.1.1,60.21074966644569,
positive,red,1,None,None,,,,,1,13,33,13,,,,,,,,,,,,,,,,,,,,,prac,None,None,1,1.5015480000001844,187.0746075000061,None,None,1,,,,,,,,,,,,,,016,2022-05-12_13h36.45.921,Main,2022.1.1,60.21074966644569,
positive,blue,2,k,None,,,,,1,14,34,14,,,,,,,,,,,,,,,,,,,,,prac,k,k,1,0.8990699999994831,189.57729900000413,None,None,0,,,,,,,,,,,,,,016,2022-05-12_13h36.45.921,Main,2022.1.1,60.21074966644569,
positive,blue,1,k,None,,,,,1,15,35,15,,,,,,,,,,,,,,,,,,,,,prac,k,k,1,0.7968863999994937,191.47730589999992,None,None,0,,,,,,,,,,,,,,016,2022-05-12_13h36.45.921,Main,2022.1.1,60.21074966644569,
negative,blue,1,None,k,,,,,1,16,36,16,,,,,,,,,,,,,,,,,,,,,prac,None,None,1,1.499269699997967,193.2747507000022,None,None,1,,,,,,,,,,,,,,016,2022-05-12_13h36.45.921,Main,2022.1.1,60.21074966644569,
positive,blue,2,k,None,,,,,1,17,37,17,,,,,,,,,,,,,,,,,,,,,prac,k,k,1,0.8653857000026619,195.77441190000536,None,None,0,,,,,,,,,,,,,,016,2022-05-12_13h36.45.921,Main,2022.1.1,60.21074966644569,
positive,blue,1,k,None,,,,,1,18,38,18,,,,,,,,,,,,,,,,,,,,,prac,k,k,1,0.782335800002329,197.6438150000031,None,None,0,,,,,,,,,,,,,,016,2022-05-12_13h36.45.921,Main,2022.1.1,60.21074966644569,
positive,yellow,1,None,k,,,,,1,19,39,19,,,,,,,,,,,,,,,,,,,,,prac,None,None,1,1.4986745000060182,199.42710830000578,None,None,1,,,,,,,,,,,,,,016,2022-05-12_13h36.45.921,Main,2022.1.1,60.21074966644569,
,,,,,,,,,,,,,,,,,,,,,,,,,,,,,,,,,,,,,,,,,,201.9246209000048,None,201.9246209000048,None,0.06481481,-0.062962964,0,0,0,0.0142474900058005,None,,,016,2022-05-12_13h36.45.921,Main,2022.1.1,60.21074966644569,
negative,yellow,2,k,None,,,,,,,,,0,0,0,0,,,,,,,,,,,,,204.39112620000378,None,204.39112620000378,None,main,k,k,1,0.9067871000006562,206.42684900000313,None,None,0,,,,,,,,,,,,,,016,2022-05-12_13h36.45.921,Main,2022.1.1,60.21074966644569,
positive,red,1,None,None,,,,,,,,,0,1,1,1,,,,,,,,,,,,,,,,,main,None,None,1,1.4988574000017252,208.34373820000474,None,None,1,,,,,,,,,,,,,,016,2022-05-12_13h36.45.921,Main,2022.1.1,60.21074966644569,
positive,blue,2,k,None,,,,,,,,,0,2,2,2,,,,,,,,,,,,,,,,,main,k,k,1,0.6827919999996084,210.84077180000168,None,None,0,,,,,,,,,,,,,,016,2022-05-12_13h36.45.921,Main,2022.1.1,60.21074966644569,
positive,blue,1,k,None,,,,,,,,,0,3,3,3,,,,,,,,,,,,,,,,,main,k,k,1,0.8673477999982424,212.52414710000448,None,None,0,,,,,,,,,,,,,,016,2022-05-12_13h36.45.921,Main,2022.1.1,60.21074966644569,
negative,yellow,2,k,None,,,,,,,,,0,4,4,4,,,,,,,,,,,,,,,,,main,k,k,1,0.6641478999954415,214.39340790000279,None,None,0,,,,,,,,,,,,,,016,2022-05-12_13h36.45.921,Main,2022.1.1,60.21074966644569,
positive,yellow,2,None,k,,,,,,,,,0,5,5,5,,,,,,,,,,,,,,,,,main,None,None,1,1.499644299998181,216.05795510000462,None,None,1,,,,,,,,,,,,,,016,2022-05-12_13h36.45.921,Main,2022.1.1,60.21074966644569,
negative,blue,2,None,k,,,,,,,,,0,6,6,6,,,,,,,,,,,,,,,,,main,None,None,1,1.500232300000789,218.55728950000048,None,None,1,,,,,,,,,,,,,,016,2022-05-12_13h36.45.921,Main,2022.1.1,60.21074966644569,
positive,red,2,None,None,,,,,,,,,0,7,7,7,,,,,,,,,,,,,,,,,main,None,None,1,1.499169200003962,221.06001890000334,None,None,1,,,,,,,,,,,,,,016,2022-05-12_13h36.45.921,Main,2022.1.1,60.21074966644569,
positive,yellow,1,None,k,,,,,,,,,0,8,8,8,,,,,,,,,,,,,,,,,main,None,None,1,1.4973240999970585,223.5599588000041,None,None,1,,,,,,,,,,,,,,016,2022-05-12_13h36.45.921,Main,2022.1.1,60.21074966644569,
negative,red,1,None,None,,,,,,,,,0,9,9,9,,,,,,,,,,,,,,,,,main,None,None,1,1.5006203000011737,226.0571345000062,None,None,1,,,,,,,,,,,,,,016,2022-05-12_13h36.45.921,Main,2022.1.1,60.21074966644569,
positive,yellow,1,None,k,,,,,,,,,0,10,10,10,,,,,,,,,,,,,,,,,main,None,None,1,1.4990440999972634,228.5601017000008,None,None,1,,,,,,,,,,,,,,016,2022-05-12_13h36.45.921,Main,2022.1.1,60.21074966644569,
negative,yellow,1,k,None,,,,,,,,,0,11,11,11,,,,,,,,,,,,,,,,,main,k,k,1,1.2124741000006907,231.06004030000622,None,None,0,,,,,,,,,,,,,,016,2022-05-12_13h36.45.921,Main,2022.1.1,60.21074966644569,
negative,yellow,1,k,None,,,,,,,,,0,12,12,12,,,,,,,,,,,,,,,,,main,k,k,1,0.6655644999991637,233.27395249999972,None,None,0,,,,,,,,,,,,,,016,2022-05-12_13h36.45.921,Main,2022.1.1,60.21074966644569,
negative,red,2,None,None,,,,,,,,,0,13,13,13,,,,,,,,,,,,,,,,,main,None,None,1,1.5011544999942998,234.940943900001,None,None,1,,,,,,,,,,,,,,016,2022-05-12_13h36.45.921,Main,2022.1.1,60.21074966644569,
positive,yellow,2,None,k,,,,,,,,,0,14,14,14,,,,,,,,,,,,,,,,,main,None,None,1,1.5023218999995152,237.44049630000518,None,None,1,,,,,,,,,,,,,,016,2022-05-12_13h36.45.921,Main,2022.1.1,60.21074966644569,
positive,blue,1,k,None,,,,,,,,,0,15,15,15,,,,,,,,,,,,,,,,,main,k,k,1,0.7934385000044131,239.94499380000343,None,None,0,,,,,,,,,,,,,,016,2022-05-12_13h36.45.921,Main,2022.1.1,60.21074966644569,
negative,blue,1,None,k,,,,,,,,,0,16,16,16,,,,,,,,,,,,,,,,,main,None,None,1,1.5017311000046902,241.74013650000416,None,None,1,,,,,,,,,,,,,,016,2022-05-12_13h36.45.921,Main,2022.1.1,60.21074966644569,
positive,blue,2,k,None,,,,,,,,,0,17,17,17,,,,,,,,,,,,,,,,,main,k,k,1,0.6326193999993848,244.24284430000262,None,None,0,,,,,,,,,,,,,,016,2022-05-12_13h36.45.921,Main,2022.1.1,60.21074966644569,
negative,blue,2,None,k,,,,,,,,,0,18,18,18,,,,,,,,,,,,,,,,,main,None,None,1,1.4969017000039457,245.87613910000073,None,None,1,,,,,,,,,,,,,,016,2022-05-12_13h36.45.921,Main,2022.1.1,60.21074966644569,
negative,blue,1,None,k,,,,,,,,,0,19,19,19,,,,,,,,,,,,,,,,,main,None,None,1,1.5006216999972821,248.37344600000506,None,None,1,,,,,,,,,,,,,,016,2022-05-12_13h36.45.921,Main,2022.1.1,60.21074966644569,
negative,blue,1,None,k,,,,,,,,,0,20,20,20,,,,,,,,,,,,,,,,,main,None,None,1,1.497596799999883,250.87605299999996,None,None,1,,,,,,,,,,,,,,016,2022-05-12_13h36.45.921,Main,2022.1.1,60.21074966644569,
negative,blue,2,None,k,,,,,,,,,0,21,21,21,,,,,,,,,,,,,,,,,main,None,None,1,1.498623999999836,253.37353050000092,None,None,1,,,,,,,,,,,,,,016,2022-05-12_13h36.45.921,Main,2022.1.1,60.21074966644569,
negative,red,1,None,None,,,,,,,,,0,22,22,22,,,,,,,,,,,,,,,,,main,None,None,1,1.5004788000005647,255.8732014000052,None,None,1,,,,,,,,,,,,,,016,2022-05-12_13h36.45.921,Main,2022.1.1,60.21074966644569,
positive,red,2,None,None,,,,,,,,,0,23,23,23,,,,,,,,,,,,,,,,,main,None,None,1,1.497036200002185,258.37588450000476,None,None,1,,,,,,,,,,,,,,016,2022-05-12_13h36.45.921,Main,2022.1.1,60.21074966644569,
negative,red,2,None,None,,,,,,,,,0,24,24,24,,,,,,,,,,,,,,,,,main,None,None,1,1.4984907999969437,260.8733868000054,None,None,1,,,,,,,,,,,,,,016,2022-05-12_13h36.45.921,Main,2022.1.1,60.21074966644569,
positive,blue,2,k,None,,,,,,,,,0,25,25,25,,,,,,,,,,,,,,,,,main,k,k,1,0.7160598000045866,263.37305330000527,None,None,0,,,,,,,,,,,,,,016,2022-05-12_13h36.45.921,Main,2022.1.1,60.21074966644569,
negative,yellow,1,k,None,,,,,,,,,0,26,26,26,,,,,,,,,,,,,,,,,main,k,k,1,0.9663612000003923,265.08972120000544,None,None,0,,,,,,,,,,,,,,016,2022-05-12_13h36.45.921,Main,2022.1.1,60.21074966644569,
positive,blue,2,k,None,,,,,,,,,0,27,27,27,,,,,,,,,,,,,,,,,main,k,k,1,0.7024075000008452,267.0590649000005,None,None,0,,,,,,,,,,,,,,016,2022-05-12_13h36.45.921,Main,2022.1.1,60.21074966644569,
negative,blue,2,None,k,,,,,,,,,0,28,28,28,,,,,,,,,,,,,,,,,main,None,None,1,1.4959132000003592,268.7590186000016,None,None,1,,,,,,,,,,,,,,016,2022-05-12_13h36.45.921,Main,2022.1.1,60.21074966644569,
positive,red,1,None,None,,,,,,,,,0,29,29,29,,,,,,,,,,,,,,,,,main,None,None,1,1.499894900000072,271.25619970000116,None,None,1,,,,,,,,,,,,,,016,2022-05-12_13h36.45.921,Main,2022.1.1,60.21074966644569,
positive,blue,1,k,None,,,,,,,,,0,30,30,30,,,,,,,,,,,,,,,,,main,k,k,1,0.8495314000028884,273.758928700001,None,None,0,,,,,,,,,,,,,,016,2022-05-12_13h36.45.921,Main,2022.1.1,60.21074966644569,
positive,yellow,1,None,k,,,,,,,,,0,31,31,31,,,,,,,,,,,,,,,,,main,None,None,1,1.49616789999709,275.6088871000029,None,None,1,,,,,,,,,,,,,,016,2022-05-12_13h36.45.921,Main,2022.1.1,60.21074966644569,
negative,yellow,2,k,None,,,,,,,,,0,32,32,32,,,,,,,,,,,,,,,,,main,k,k,1,0.699408599997696,278.1063424000022,None,None,0,,,,,,,,,,,,,,016,2022-05-12_13h36.45.921,Main,2022.1.1,60.21074966644569,
negative,blue,1,None,k,,,,,,,,,0,33,33,33,,,,,,,,,,,,,,,,,main,None,None,1,1.501236299998709,279.80626810000103,None,None,1,,,,,,,,,,,,,,016,2022-05-12_13h36.45.921,Main,2022.1.1,60.21074966644569,
positive,blue,1,k,None,,,,,,,,,0,34,34,34,,,,,,,,,,,,,,,,,main,k,k,1,0.8328215000001364,282.3087467000005,None,None,0,,,,,,,,,,,,,,016,2022-05-12_13h36.45.921,Main,2022.1.1,60.21074966644569,
negative,yellow,1,k,None,,,,,,,,,0,35,35,35,,,,,,,,,,,,,,,,,main,k,k,1,0.7800411999996868,284.14224860000104,None,None,0,,,,,,,,,,,,,,016,2022-05-12_13h36.45.921,Main,2022.1.1,60.21074966644569,
positive,yellow,2,None,k,,,,,,,,,0,36,36,36,,,,,,,,,,,,,,,,,main,None,None,1,1.4983760000031907,285.9252018000043,None,None,1,,,,,,,,,,,,,,016,2022-05-12_13h36.45.921,Main,2022.1.1,60.21074966644569,
positive,yellow,2,None,k,,,,,,,,,0,37,37,37,,,,,,,,,,,,,,,,,main,None,None,1,1.4995339999950374,288.4225188000055,None,None,1,,,,,,,,,,,,,,016,2022-05-12_13h36.45.921,Main,2022.1.1,60.21074966644569,
negative,yellow,2,k,None,,,,,,,,,0,38,38,38,,,,,,,,,,,,,,,,,main,k,k,1,0.7650577999957022,290.9252762000033,None,None,0,,,,,,,,,,,,,,016,2022-05-12_13h36.45.921,Main,2022.1.1,60.21074966644569,
positive,yellow,1,None,k,,,,,,,,,0,39,39,39,,,,,,,,,,,,,,,,,main,None,None,1,1.496758500004944,292.692091900004,None,None,1,,,,,,,,,,,,,,016,2022-05-12_13h36.45.921,Main,2022.1.1,60.21074966644569,
negative,yellow,2,k,None,,,,,,,,,0,40,40,40,,,,,,,,,,,,,,,,,main,k,k,1,0.8982084000017494,295.1890940000012,None,None,0,,,,,,,,,,,,,,016,2022-05-12_13h36.45.921,Main,2022.1.1,60.21074966644569,
positive,blue,2,k,None,,,,,,,,,0,41,41,41,,,,,,,,,,,,,,,,,main,k,k,1,0.7165777000045637,297.0890690000015,None,None,0,,,,,,,,,,,,,,016,2022-05-12_13h36.45.921,Main,2022.1.1,60.21074966644569,
positive,blue,2,k,None,,,,,,,,,0,42,42,42,,,,,,,,,,,,,,,,,main,k,k,1,0.5822394999995595,298.80855030000384,None,None,0,,,,,,,,,,,,,,016,2022-05-12_13h36.45.921,Main,2022.1.1,60.21074966644569,
negative,blue,2,None,k,,,,,,,,,0,43,43,43,,,,,,,,,,,,,,,,,main,None,None,1,1.499788200002513,300.39171020000504,None,None,1,,,,,,,,,,,,,,016,2022-05-12_13h36.45.921,Main,2022.1.1,60.21074966644569,
negative,red,1,None,None,,,,,,,,,0,44,44,44,,,,,,,,,,,,,,,,,main,None,None,1,1.49987699999474,302.8888875000048,None,None,1,,,,,,,,,,,,,,016,2022-05-12_13h36.45.921,Main,2022.1.1,60.21074966644569,
negative,yellow,1,k,None,,,,,,,,,0,45,45,45,,,,,,,,,,,,,,,,,main,k,k,1,1.0473166999945533,305.3915855000014,None,None,0,,,,,,,,,,,,,,016,2022-05-12_13h36.45.921,Main,2022.1.1,60.21074966644569,
negative,yellow,1,k,None,,,,,,,,,0,46,46,46,,,,,,,,,,,,,,,,,main,k,k,1,0.682262800000899,307.4415158000047,None,None,0,,,,,,,,,,,,,,016,2022-05-12_13h36.45.921,Main,2022.1.1,60.21074966644569,
positive,red,1,None,None,,,,,,,,,0,47,47,47,,,,,,,,,,,,,,,,,main,None,None,1,1.4985799999994924,309.12237820000155,None,None,1,,,,,,,,,,,,,,016,2022-05-12_13h36.45.921,Main,2022.1.1,60.21074966644569,
positive,yellow,1,None,k,,,,,,,,,0,48,48,48,,,,,,,,,,,,,,,,,main,None,None,1,1.4995342999973218,311.6222736000054,None,None,1,,,,,,,,,,,,,,016,2022-05-12_13h36.45.921,Main,2022.1.1,60.21074966644569,
negative,blue,1,None,k,,,,,,,,,0,49,49,49,,,,,,,,,,,,,,,,,main,None,None,1,1.4981036999961361,314.1222674000019,None,None,1,,,,,,,,,,,,,,016,2022-05-12_13h36.45.921,Main,2022.1.1,60.21074966644569,
positive,yellow,2,None,k,,,,,,,,,0,50,50,50,,,,,,,,,,,,,,,,,main,None,None,1,1.4994301999977324,316.62227580000035,None,None,1,,,,,,,,,,,,,,016,2022-05-12_13h36.45.921,Main,2022.1.1,60.21074966644569,
negative,blue,1,None,k,,,,,,,,,0,51,51,51,,,,,,,,,,,,,,,,,main,None,None,1,1.4998717999988003,319.1221544,None,None,1,,,,,,,,,,,,,,016,2022-05-12_13h36.45.921,Main,2022.1.1,60.21074966644569,
positive,red,2,None,None,,,,,,,,,0,52,52,52,,,,,,,,,,,,,,,,,main,None,None,1,1.4985913000055007,321.6221536000012,None,None,1,,,,,,,,,,,,,,016,2022-05-12_13h36.45.921,Main,2022.1.1,60.21074966644569,
positive,yellow,2,None,k,,,,,,,,,0,53,53,53,,,,,,,,,,,,,,,,,main,None,None,1,1.5008463999984087,324.1217806000059,None,None,1,,,,,,,,,,,,,,016,2022-05-12_13h36.45.921,Main,2022.1.1,60.21074966644569,
negative,red,2,None,None,,,,,,,,,0,54,54,54,,,,,,,,,,,,,,,,,main,None,None,1,1.496541200001957,326.624524400002,None,None,1,,,,,,,,,,,,,,016,2022-05-12_13h36.45.921,Main,2022.1.1,60.21074966644569,
positive,yellow,1,None,k,,,,,,,,,0,55,55,55,,,,,,,,,,,,,,,,,main,None,None,1,1.4991883999973652,329.12436770000204,None,None,1,,,,,,,,,,,,,,016,2022-05-12_13h36.45.921,Main,2022.1.1,60.21074966644569,
negative,blue,2,None,k,,,,,,,,,0,56,56,56,,,,,,,,,,,,,,,,,main,None,None,1,1.502062500003376,331.6218990000052,None,None,1,,,,,,,,,,,,,,016,2022-05-12_13h36.45.921,Main,2022.1.1,60.21074966644569,
positive,blue,1,k,None,,,,,,,,,0,57,57,57,,,,,,,,,,,,,,,,,main,k,k,1,0.8294916000013473,334.1218618000057,None,None,0,,,,,,,,,,,,,,016,2022-05-12_13h36.45.921,Main,2022.1.1,60.21074966644569,
positive,blue,1,k,None,,,,,,,,,0,58,58,58,,,,,,,,,,,,,,,,,main,k,k,1,0.7160930999962147,335.95757220000087,None,None,0,,,,,,,,,,,,,,016,2022-05-12_13h36.45.921,Main,2022.1.1,60.21074966644569,
negative,yellow,2,k,None,,,,,,,,,0,59,59,59,,,,,,,,,,,,,,,,,main,k,k,1,0.7155363999991096,337.67176770000515,None,None,0,,,,,,,,,,,,,,016,2022-05-12_13h36.45.921,Main,2022.1.1,60.21074966644569,
positive,red,2,None,None,,,,,,,,,0,60,60,60,,,,,,,,,,,,,,,,,main,None,None,1,1.4985037000005832,339.38826189999963,None,None,1,,,,,,,,,,,,,,016,2022-05-12_13h36.45.921,Main,2022.1.1,60.21074966644569,
negative,yellow,1,k,None,,,,,,,,,0,61,61,61,,,,,,,,,,,,,,,,,main,k,k,1,1.3490765000024112,341.8884130000006,None,None,0,,,,,,,,,,,,,,016,2022-05-12_13h36.45.921,Main,2022.1.1,60.21074966644569,
negative,red,1,None,None,,,,,,,,,0,62,62,62,,,,,,,,,,,,,,,,,main,None,None,1,1.5016738999984227,344.23807210000086,None,None,1,,,,,,,,,,,,,,016,2022-05-12_13h36.45.921,Main,2022.1.1,60.21074966644569,
negative,blue,1,None,k,,,,,,,,,0,63,63,63,,,,,,,,,,,,,,,,,main,None,None,1,1.4991977999961819,346.7407672000045,None,None,1,,,,,,,,,,,,,,016,2022-05-12_13h36.45.921,Main,2022.1.1,60.21074966644569,
positive,blue,2,k,None,,,,,,,,,0,64,64,64,,,,,,,,,,,,,,,,,main,k,k,1,0.6800368999975035,349.24072060000617,None,None,0,,,,,,,,,,,,,,016,2022-05-12_13h36.45.921,Main,2022.1.1,60.21074966644569,
negative,yellow,2,k,None,,,,,,,,,0,65,65,65,,,,,,,,,,,,,,,,,main,k,k,1,0.8995444000029238,350.92123900000297,None,None,0,,,,,,,,,,,,,,016,2022-05-12_13h36.45.921,Main,2022.1.1,60.21074966644569,
positive,yellow,2,None,k,,,,,,,,,0,66,66,66,,,,,,,,,,,,,,,,,main,None,None,1,1.50073340000381,352.8239867000011,None,None,1,,,,,,,,,,,,,,016,2022-05-12_13h36.45.921,Main,2022.1.1,60.21074966644569,
positive,yellow,2,None,k,,,,,,,,,0,67,67,67,,,,,,,,,,,,,,,,,main,None,None,1,1.4979095999951824,355.32395030000043,None,None,1,,,,,,,,,,,,,,016,2022-05-12_13h36.45.921,Main,2022.1.1,60.21074966644569,
positive,red,1,None,None,,,,,,,,,0,68,68,68,,,,,,,,,,,,,,,,,main,None,None,1,1.4999170000010054,357.8210954000024,None,None,1,,,,,,,,,,,,,,016,2022-05-12_13h36.45.921,Main,2022.1.1,60.21074966644569,
positive,yellow,1,None,k,,,,,,,,,0,69,69,69,,,,,,,,,,,,,,,,,main,None,None,1,1.502291900003911,360.32381700000406,None,None,1,,,,,,,,,,,,,,016,2022-05-12_13h36.45.921,Main,2022.1.1,60.21074966644569,
negative,yellow,2,k,None,,,,,,,,,0,70,70,70,,,,,,,,,,,,,,,,,main,k,k,1,0.8104810000004363,362.8248287000024,None,None,0,,,,,,,,,,,,,,016,2022-05-12_13h36.45.921,Main,2022.1.1,60.21074966644569,
positive,yellow,1,None,k,,,,,,,,,0,71,71,71,,,,,,,,,,,,,,,,,main,None,None,1,1.499321899995266,364.640338600002,None,None,1,,,,,,,,,,,,,,016,2022-05-12_13h36.45.921,Main,2022.1.1,60.21074966644569,
negative,blue,1,None,k,,,,,,,,,0,72,72,72,,,,,,,,,,,,,,,,,main,None,None,1,1.5008207999999286,367.1375801000031,None,None,1,,,,,,,,,,,,,,016,2022-05-12_13h36.45.921,Main,2022.1.1,60.21074966644569,
negative,red,2,None,None,,,,,,,,,0,73,73,73,,,,,,,,,,,,,,,,,main,None,None,1,1.4961953000020003,369.6405226000061,None,None,1,,,,,,,,,,,,,,016,2022-05-12_13h36.45.921,Main,2022.1.1,60.21074966644569,
positive,blue,2,k,None,,,,,,,,,0,74,74,74,,,,,,,,,,,,,,,,,main,k,k,1,0.821204799998668,372.13747310000326,None,None,0,,,,,,,,,,,,,,016,2022-05-12_13h36.45.921,Main,2022.1.1,60.21074966644569,
negative,blue,2,None,k,,,,,,,,,0,75,75,75,,,,,,,,,,,,,,,,,main,None,None,1,1.4965100999979768,373.95427810000547,None,None,1,,,,,,,,,,,,,,016,2022-05-12_13h36.45.921,Main,2022.1.1,60.21074966644569,
negative,blue,2,None,k,,,,,,,,,0,76,76,76,,,,,,,,,,,,,,,,,main,None,None,1,1.496981099997356,376.4568106000006,None,None,1,,,,,,,,,,,,,,016,2022-05-12_13h36.45.921,Main,2022.1.1,60.21074966644569,
negative,yellow,1,k,None,,,,,,,,,0,77,77,77,,,,,,,,,,,,,,,,,main,k,k,1,0.8652052999968873,378.95431649999955,None,None,0,,,,,,,,,,,,,,016,2022-05-12_13h36.45.921,Main,2022.1.1,60.21074966644569,
positive,blue,1,k,None,,,,,,,,,0,78,78,78,,,,,,,,,,,,,,,,,main,k,k,1,0.8663273999991361,380.8206315999996,None,None,0,,,,,,,,,,,,,,016,2022-05-12_13h36.45.921,Main,2022.1.1,60.21074966644569,
positive,blue,1,k,None,,,,,,,,,0,79,79,79,,,,,,,,,,,,,,,,,main,k,k,1,0.5991037999992841,382.6879945000037,None,None,0,,,,,,,,,,,,,,016,2022-05-12_13h36.45.921,Main,2022.1.1,60.21074966644569,
positive,red,2,None,None,,,,,,,,,0,80,80,80,,,,,,,,,,,,,,,,,main,None,None,1,1.499285999998392,384.28782070000307,None,None,1,,,,,,,,,,,,,,016,2022-05-12_13h36.45.921,Main,2022.1.1,60.21074966644569,
positive,yellow,2,None,k,,,,,,,,,0,81,81,81,,,,,,,,,,,,,,,,,main,None,None,1,1.500719099996786,386.78750690000015,None,None,1,,,,,,,,,,,,,,016,2022-05-12_13h36.45.921,Main,2022.1.1,60.21074966644569,
positive,blue,1,k,None,,,,,,,,,0,82,82,82,,,,,,,,,,,,,,,,,main,k,k,1,5.001713099998597,389.28804610000225,None,None,0,,,,,,,,,,,,,,016,2022-05-12_13h36.45.921,Main,2022.1.1,60.21074966644569,
negative,yellow,2,k,None,,,,,,,,,0,83,83,83,,,,,,,,,,,,,,,,,main,k,k,1,0.8701464000041597,396.30374049999955,None,None,0,,,,,,,,,,,,,,016,2022-05-12_13h36.45.921,Main,2022.1.1,60.21074966644569,
positive,blue,2,k,None,,,,,,,,,0,84,84,84,,,,,,,,,,,,,,,,,main,k,k,1,0.6987557999964338,398.17304420000437,None,None,0,,,,,,,,,,,,,,016,2022-05-12_13h36.45.921,Main,2022.1.1,60.21074966644569,
positive,yellow,1,None,k,,,,,,,,,0,85,85,85,,,,,,,,,,,,,,,,,main,None,None,1,1.496241499997268,399.87303810000594,None,None,1,,,,,,,,,,,,,,016,2022-05-12_13h36.45.921,Main,2022.1.1,60.21074966644569,
positive,blue,2,k,None,,,,,,,,,0,86,86,86,,,,,,,,,,,,,,,,,main,k,k,1,0.7211762999941129,402.3704690000013,None,None,0,,,,,,,,,,,,,,016,2022-05-12_13h36.45.921,Main,2022.1.1,60.21074966644569,
positive,blue,1,k,None,,,,,,,,,0,87,87,87,,,,,,,,,,,,,,,,,main,k,k,1,1.110324599998421,404.08680950000416,None,None,0,,,,,,,,,,,,,,016,2022-05-12_13h36.45.921,Main,2022.1.1,60.21074966644569,
negative,yellow,2,k,None,,,,,,,,,0,88,88,88,,,,,,,,,,,,,,,,,main,k,k,1,0.7685656999965431,406.20351870000013,None,None,0,,,,,,,,,,,,,,016,2022-05-12_13h36.45.921,Main,2022.1.1,60.21074966644569,
negative,blue,2,None,k,,,,,,,,,0,89,89,89,,,,,,,,,,,,,,,,,main,None,None,1,1.498668300002464,407.9728847000006,None,None,1,,,,,,,,,,,,,,016,2022-05-12_13h36.45.921,Main,2022.1.1,60.21074966644569,
positive,yellow,2,None,k,,,,,,,,,0,90,90,90,,,,,,,,,,,,,,,,,main,None,None,1,1.4962703000055626,410.47278070000175,None,None,1,,,,,,,,,,,,,,016,2022-05-12_13h36.45.921,Main,2022.1.1,60.21074966644569,
negative,yellow,1,k,None,,,,,,,,,0,91,91,91,,,,,,,,,,,,,,,,,main,k,k,1,0.9665263999995659,412.97003770000447,None,None,0,,,,,,,,,,,,,,016,2022-05-12_13h36.45.921,Main,2022.1.1,60.21074966644569,
negative,red,2,None,None,,,,,,,,,0,92,92,92,,,,,,,,,,,,,,,,,main,None,None,1,1.5008651000025566,414.93938160000107,None,None,1,,,,,,,,,,,,,,016,2022-05-12_13h36.45.921,Main,2022.1.1,60.21074966644569,
negative,blue,2,None,k,,,,,,,,,0,93,93,93,,,,,,,,,,,,,,,,,main,None,None,1,1.4972815999935847,417.43683800000144,None,None,1,,,,,,,,,,,,,,016,2022-05-12_13h36.45.921,Main,2022.1.1,60.21074966644569,
negative,blue,1,None,k,,,,,,,,,0,94,94,94,,,,,,,,,,,,,,,,,main,None,None,1,1.5008569999990868,419.9365007000015,None,None,1,,,,,,,,,,,,,,016,2022-05-12_13h36.45.921,Main,2022.1.1,60.21074966644569,
negative,blue,1,None,k,,,,,,,,,0,95,95,95,,,,,,,,,,,,,,,,,main,None,None,1,1.499081699999806,422.439237700004,None,None,1,,,,,,,,,,,,,,016,2022-05-12_13h36.45.921,Main,2022.1.1,60.21074966644569,
negative,red,1,None,None,,,,,,,,,0,96,96,96,,,,,,,,,,,,,,,,,main,None,None,1,1.497295999994094,424.939154700005,None,None,1,,,,,,,,,,,,,,016,2022-05-12_13h36.45.921,Main,2022.1.1,60.21074966644569,
positive,yellow,1,None,k,,,,,,,,,0,97,97,97,,,,,,,,,,,,,,,,,main,None,None,1,1.5008029999953578,427.4363383000018,None,None,1,,,,,,,,,,,,,,016,2022-05-12_13h36.45.921,Main,2022.1.1,60.21074966644569,
negative,yellow,1,k,None,,,,,,,,,0,98,98,98,,,,,,,,,,,,,,,,,main,k,k,1,0.8137160000042059,429.93911579999985,None,None,0,,,,,,,,,,,,,,016,2022-05-12_13h36.45.921,Main,2022.1.1,60.21074966644569,
positive,red,1,None,None,,,,,,,,,0,99,99,99,,,,,,,,,,,,,,,,,main,None,None,1,1.4993102000007639,431.7556903000004,None,None,1,,,,,,,,,,,,,,016,2022-05-12_13h36.45.921,Main,2022.1.1,60.21074966644569,
positive,blue,1,k,None,,,,,,,,,0,100,100,100,,,,,,,,,,,,,,,,,main,k,k,1,0.7502115999959642,434.25291040000593,None,None,0,,,,,,,,,,,,,,016,2022-05-12_13h36.45.921,Main,2022.1.1,60.21074966644569,
negative,yellow,1,k,None,,,,,,,,,0,101,101,101,,,,,,,,,,,,,,,,,main,k,k,1,0.9832844999982626,436.0058124000061,None,None,0,,,,,,,,,,,,,,016,2022-05-12_13h36.45.921,Main,2022.1.1,60.21074966644569,
negative,blue,2,None,k,,,,,,,,,0,102,102,102,,,,,,,,,,,,,,,,,main,None,None,1,1.4985967999964487,437.98889050000435,None,None,1,,,,,,,,,,,,,,016,2022-05-12_13h36.45.921,Main,2022.1.1,60.21074966644569,
negative,yellow,2,k,None,,,,,,,,,0,103,103,103,,,,,,,,,,,,,,,,,main,k,k,1,0.7477042000027723,440.48637040000176,None,None,0,,,,,,,,,,,,,,016,2022-05-12_13h36.45.921,Main,2022.1.1,60.21074966644569,
positive,yellow,2,None,k,,,,,,,,,0,104,104,104,,,,,,,,,,,,,,,,,main,None,None,1,1.5013166999997338,442.23640460000024,None,None,1,,,,,,,,,,,,,,016,2022-05-12_13h36.45.921,Main,2022.1.1,60.21074966644569,
positive,blue,1,k,None,,,,,,,,,0,105,105,105,,,,,,,,,,,,,,,,,main,k,k,1,0.6322020999941742,444.7387368000054,None,None,0,,,,,,,,,,,,,,016,2022-05-12_13h36.45.921,Main,2022.1.1,60.21074966644569,
positive,blue,2,k,None,,,,,,,,,0,106,106,106,,,,,,,,,,,,,,,,,main,k,k,1,0.6321563000019523,446.37208100000134,None,None,0,,,,,,,,,,,,,,016,2022-05-12_13h36.45.921,Main,2022.1.1,60.21074966644569,
negative,blue,1,None,k,,,,,,,,,0,107,107,107,,,,,,,,,,,,,,,,,main,None,None,1,1.4971169999989797,448.00860690000263,None,None,1,,,,,,,,,,,,,,016,2022-05-12_13h36.45.921,Main,2022.1.1,60.21074966644569,
positive,yellow,2,None,k,,,,,,,,,0,108,108,108,,,,,,,,,,,,,,,,,main,None,None,1,1.5004635000004782,450.5025928000032,None,None,1,,,,,,,,,,,,,,016,2022-05-12_13h36.45.921,Main,2022.1.1,60.21074966644569,
negative,yellow,1,k,None,,,,,,,,,0,109,109,109,,,,,,,,,,,,,,,,,main,k,k,1,1.0492008000001078,453.00548730000446,None,None,0,,,,,,,,,,,,,,016,2022-05-12_13h36.45.921,Main,2022.1.1,60.21074966644569,
negative,blue,2,None,k,,,,,,,,,0,110,110,110,,,,,,,,,,,,,,,,,main,None,None,1,1.4964179000016884,455.0552275000009,None,None,1,,,,,,,,,,,,,,016,2022-05-12_13h36.45.921,Main,2022.1.1,60.21074966644569,
positive,blue,2,k,None,,,,,,,,,0,111,111,111,,,,,,,,,,,,,,,,,main,k,k,1,0.7490930999992997,457.5526574000032,None,None,0,,,,,,,,,,,,,,016,2022-05-12_13h36.45.921,Main,2022.1.1,60.21074966644569,
negative,blue,1,None,k,,,,,,,,,0,112,112,112,,,,,,,,,,,,,,,,,main,None,None,1,1.5013536999977077,459.3026000000027,None,None,1,,,,,,,,,,,,,,016,2022-05-12_13h36.45.921,Main,2022.1.1,60.21074966644569,
positive,yellow,1,None,k,,,,,,,,,0,113,113,113,,,,,,,,,,,,,,,,,main,None,None,1,1.498890400005621,461.8050762000057,None,None,1,,,,,,,,,,,,,,016,2022-05-12_13h36.45.921,Main,2022.1.1,60.21074966644569,
negative,red,1,None,None,,,,,,,,,0,114,114,114,,,,,,,,,,,,,,,,,main,None,None,1,1.497454700001981,464.30502450000495,None,None,1,,,,,,,,,,,,,,016,2022-05-12_13h36.45.921,Main,2022.1.1,60.21074966644569,
positive,red,1,None,None,,,,,,,,,0,115,115,115,,,,,,,,,,,,,,,,,main,None,None,1,1.5005531999995583,466.8022631000058,None,None,1,,,,,,,,,,,,,,016,2022-05-12_13h36.45.921,Main,2022.1.1,60.21074966644569,
negative,red,2,None,None,,,,,,,,,0,116,116,116,,,,,,,,,,,,,,,,,main,None,None,1,1.4973559999998542,469.30493320000096,None,None,1,,,,,,,,,,,,,,016,2022-05-12_13h36.45.921,Main,2022.1.1,60.21074966644569,
negative,yellow,2,k,None,,,,,,,,,0,117,117,117,,,,,,,,,,,,,,,,,main,k,k,1,1.1338580000010552,471.8020974000028,None,None,0,,,,,,,,,,,,,,016,2022-05-12_13h36.45.921,Main,2022.1.1,60.21074966644569,
positive,yellow,1,None,k,,,,,,,,,0,118,118,118,,,,,,,,,,,,,,,,,main,None,None,1,1.499038499998278,473.93815560000075,None,None,1,,,,,,,,,,,,,,016,2022-05-12_13h36.45.921,Main,2022.1.1,60.21074966644569,
positive,red,2,None,None,,,,,,,,,0,119,119,119,,,,,,,,,,,,,,,,,main,None,None,1,1.4964147999999113,476.43818140000076,None,None,1,,,,,,,,,,,,,,016,2022-05-12_13h36.45.921,Main,2022.1.1,60.21074966644569,
positive,blue,2,k,None,,,,,,,,,0,120,120,120,,,,,,,,,,,,,,,,,main,k,k,1,0.6160417999999481,478.935888,None,None,0,,,,,,,,,,,,,,016,2022-05-12_13h36.45.921,Main,2022.1.1,60.21074966644569,
negative,red,1,None,None,,,,,,,,,0,121,121,121,,,,,,,,,,,,,,,,,main,None,None,1,1.4990451999983634,480.55214140000317,None,None,1,,,,,,,,,,,,,,016,2022-05-12_13h36.45.921,Main,2022.1.1,60.21074966644569,
positive,yellow,2,None,k,,,,,,,,,0,122,122,122,,,,,,,,,,,,,,,,,main,None,None,1,1.4993163000035565,483.05454580000514,None,None,1,,,,,,,,,,,,,,016,2022-05-12_13h36.45.921,Main,2022.1.1,60.21074966644569,
negative,red,2,None,None,,,,,,,,,0,123,123,123,,,,,,,,,,,,,,,,,main,None,None,1,1.501290299995162,485.55212920000486,None,None,1,,,,,,,,,,,,,,016,2022-05-12_13h36.45.921,Main,2022.1.1,60.21074966644569,
negative,yellow,2,k,None,,,,,,,,,0,124,124,124,,,,,,,,,,,,,,,,,main,k,k,1,0.8293466999966768,488.05203489999985,None,None,0,,,,,,,,,,,,,,016,2022-05-12_13h36.45.921,Main,2022.1.1,60.21074966644569,
positive,red,1,None,None,,,,,,,,,0,125,125,125,,,,,,,,,,,,,,,,,main,None,None,1,1.4995701000007102,489.8876823000028,None,None,1,,,,,,,,,,,,,,016,2022-05-12_13h36.45.921,Main,2022.1.1,60.21074966644569,
negative,blue,2,None,k,,,,,,,,,0,126,126,126,,,,,,,,,,,,,,,,,main,None,None,1,1.4980647999982466,492.38524690000486,None,None,1,,,,,,,,,,,,,,016,2022-05-12_13h36.45.921,Main,2022.1.1,60.21074966644569,
negative,blue,1,None,k,,,,,,,,,0,127,127,127,,,,,,,,,,,,,,,,,main,None,None,1,1.4996208000011393,494.8852496000036,None,None,1,,,,,,,,,,,,,,016,2022-05-12_13h36.45.921,Main,2022.1.1,60.21074966644569,
negative,yellow,1,k,None,,,,,,,,,0,128,128,128,,,,,,,,,,,,,,,,,main,k,k,1,0.8482870999941952,497.3849035000021,None,None,0,,,,,,,,,,,,,,016,2022-05-12_13h36.45.921,Main,2022.1.1,60.21074966644569,
negative,yellow,1,k,None,,,,,,,,,0,129,129,129,,,,,,,,,,,,,,,,,main,k,k,1,0.7017363000049954,499.23493260000396,None,None,0,,,,,,,,,,,,,,016,2022-05-12_13h36.45.921,Main,2022.1.1,60.21074966644569,
positive,blue,1,k,None,,,,,,,,,0,130,130,130,,,,,,,,,,,,,,,,,main,k,k,1,0.7492043000020203,500.93765350000467,None,None,0,,,,,,,,,,,,,,016,2022-05-12_13h36.45.921,Main,2022.1.1,60.21074966644569,
negative,blue,1,None,k,,,,,,,,,0,131,131,131,,,,,,,,,,,,,,,,,main,None,None,1,1.4973102000003564,502.68758730000263,None,None,1,,,,,,,,,,,,,,016,2022-05-12_13h36.45.921,Main,2022.1.1,60.21074966644569,
negative,blue,2,None,k,,,,,,,,,0,132,132,132,,,,,,,,,,,,,,,,,main,None,None,1,1.5005122000002302,505.18508360000124,None,None,1,,,,,,,,,,,,,,016,2022-05-12_13h36.45.921,Main,2022.1.1,60.21074966644569,
positive,blue,2,k,None,,,,,,,,,0,133,133,133,,,,,,,,,,,,,,,,,main,k,k,1,0.7302004000011948,507.68762060000154,None,None,0,,,,,,,,,,,,,,016,2022-05-12_13h36.45.921,Main,2022.1.1,60.21074966644569,
positive,red,2,None,None,,,,,,,,,0,134,134,134,,,,,,,,,,,,,,,,,main,None,None,1,1.4993200999961118,509.41830770000524,None,None,1,,,,,,,,,,,,,,016,2022-05-12_13h36.45.921,Main,2022.1.1,60.21074966644569,
negative,yellow,2,k,None,,,,,,,,,0,135,135,135,,,,,,,,,,,,,,,,,main,k,k,1,0.781680599997344,511.91795130000537,None,None,0,,,,,,,,,,,,,,016,2022-05-12_13h36.45.921,Main,2022.1.1,60.21074966644569,
positive,yellow,2,None,k,,,,,,,,,0,136,136,136,,,,,,,,,,,,,,,,,main,None,None,1,1.5014604999960284,513.7013089000029,None,None,1,,,,,,,,,,,,,,016,2022-05-12_13h36.45.921,Main,2022.1.1,60.21074966644569,
positive,blue,1,k,None,,,,,,,,,0,137,137,137,,,,,,,,,,,,,,,,,main,k,k,1,0.8798616999993101,516.2039565000014,None,None,0,,,,,,,,,,,,,,016,2022-05-12_13h36.45.921,Main,2022.1.1,60.21074966644569,
positive,yellow,1,None,k,,,,,,,,,0,138,138,138,,,,,,,,,,,,,,,,,main,None,None,1,1.5016921000060393,518.0844938000009,None,None,1,,,,,,,,,,,,,,016,2022-05-12_13h36.45.921,Main,2022.1.1,60.21074966644569,
positive,yellow,1,None,k,,,,,,,,,0,139,139,139,,,,,,,,,,,,,,,,,main,None,None,1,1.4990171000026749,520.5871983000034,None,None,1,,,,,,,,,,,,,,016,2022-05-12_13h36.45.921,Main,2022.1.1,60.21074966644569,
positive,yellow,1,None,k,,,,,,,,,0,140,140,140,,,,,,,,,,,,,,,,,main,None,None,1,1.4965165999965393,523.0871461000061,None,None,1,,,,,,,,,,,,,,016,2022-05-12_13h36.45.921,Main,2022.1.1,60.21074966644569,
positive,blue,1,k,None,,,,,,,,,0,141,141,141,,,,,,,,,,,,,,,,,main,k,k,1,0.8157543000052101,525.587002100001,None,None,0,,,,,,,,,,,,,,016,2022-05-12_13h36.45.921,Main,2022.1.1,60.21074966644569,
positive,blue,2,k,None,,,,,,,,,0,142,142,142,,,,,,,,,,,,,,,,,main,k,k,1,0.9491473000016413,527.4009692000036,None,None,0,,,,,,,,,,,,,,016,2022-05-12_13h36.45.921,Main,2022.1.1,60.21074966644569,
positive,yellow,2,None,k,,,,,,,,,0,143,143,143,,,,,,,,,,,,,,,,,main,None,None,1,1.5015810000040801,529.3509886000029,None,None,1,,,,,,,,,,,,,,016,2022-05-12_13h36.45.921,Main,2022.1.1,60.21074966644569,
negative,yellow,2,k,None,,,,,,,,,0,144,144,144,,,,,,,,,,,,,,,,,main,k,k,1,0.7638611000002129,531.8536396000054,None,None,0,,,,,,,,,,,,,,016,2022-05-12_13h36.45.921,Main,2022.1.1,60.21074966644569,
negative,blue,2,None,k,,,,,,,,,0,145,145,145,,,,,,,,,,,,,,,,,main,None,None,1,1.4988182000015513,533.6178293000048,None,None,1,,,,,,,,,,,,,,016,2022-05-12_13h36.45.921,Main,2022.1.1,60.21074966644569,
negative,red,1,None,None,,,,,,,,,0,146,146,146,,,,,,,,,,,,,,,,,main,None,None,1,1.498153699998511,536.1175022000025,None,None,1,,,,,,,,,,,,,,016,2022-05-12_13h36.45.921,Main,2022.1.1,60.21074966644569,
positive,blue,1,k,None,,,,,,,,,0,147,147,147,,,,,,,,,,,,,,,,,main,k,k,1,1.2497262000033516,538.6174555000034,None,None,0,,,,,,,,,,,,,,016,2022-05-12_13h36.45.921,Main,2022.1.1,60.21074966644569,
positive,yellow,1,None,k,,,,,,,,,0,148,148,148,,,,,,,,,,,,,,,,,main,None,None,1,1.4992296999989776,540.8701103999992,None,None,1,,,,,,,,,,,,,,016,2022-05-12_13h36.45.921,Main,2022.1.1,60.21074966644569,
negative,red,2,None,None,,,,,,,,,0,149,149,149,,,,,,,,,,,,,,,,,main,None,None,1,1.4980226999978186,543.3676085000043,None,None,1,,,,,,,,,,,,,,016,2022-05-12_13h36.45.921,Main,2022.1.1,60.21074966644569,
negative,blue,1,None,k,,,,,,,,,0,150,150,150,,,,,,,,,,,,,,,,,main,None,None,1,1.4990313999951468,545.8674941999998,None,None,1,,,,,,,,,,,,,,016,2022-05-12_13h36.45.921,Main,2022.1.1,60.21074966644569,
negative,yellow,2,k,None,,,,,,,,,0,151,151,151,,,,,,,,,,,,,,,,,main,k,k,1,0.7829112999970675,548.3698313000059,None,None,0,,,,,,,,,,,,,,016,2022-05-12_13h36.45.921,Main,2022.1.1,60.21074966644569,
negative,blue,2,None,k,,,,,,,,,0,152,152,152,,,,,,,,,,,,,,,,,main,None,None,1,1.4986799999969662,550.1508233000059,None,None,1,,,,,,,,,,,,,,016,2022-05-12_13h36.45.921,Main,2022.1.1,60.21074966644569,
negative,yellow,1,k,None,,,,,,,,,0,153,153,153,,,,,,,,,,,,,,,,,main,k,k,1,1.1157509999975446,552.6506837000052,None,None,0,,,,,,,,,,,,,,016,2022-05-12_13h36.45.921,Main,2022.1.1,60.21074966644569,
negative,blue,1,None,k,,,,,,,,,0,154,154,154,,,,,,,,,,,,,,,,,main,None,None,1,1.4995467999979155,554.7673548000021,None,None,1,,,,,,,,,,,,,,016,2022-05-12_13h36.45.921,Main,2022.1.1,60.21074966644569,
positive,yellow,2,None,k,,,,,,,,,0,155,155,155,,,,,,,,,,,,,,,,,main,None,None,1,1.5005393999963417,557.2670476000058,None,None,1,,,,,,,,,,,,,,016,2022-05-12_13h36.45.921,Main,2022.1.1,60.21074966644569,
positive,red,2,None,None,,,,,,,,,0,156,156,156,,,,,,,,,,,,,,,,,main,None,None,1,1.4987350000010338,559.7697842000052,None,None,1,,,,,,,,,,,,,,016,2022-05-12_13h36.45.921,Main,2022.1.1,60.21074966644569,
positive,red,1,None,None,,,,,,,,,0,157,157,157,,,,,,,,,,,,,,,,,main,None,None,1,1.497253699999419,562.269687400003,None,None,1,,,,,,,,,,,,,,016,2022-05-12_13h36.45.921,Main,2022.1.1,60.21074966644569,
positive,blue,2,k,None,,,,,,,,,0,158,158,158,,,,,,,,,,,,,,,,,main,k,k,1,0.698106399999233,564.7669141000006,None,None,0,,,,,,,,,,,,,,016,2022-05-12_13h36.45.921,Main,2022.1.1,60.21074966644569,
negative,yellow,1,k,None,,,,,,,,,0,159,159,159,,,,,,,,,,,,,,,,,main,k,k,1,0.7352648999949452,566.4668957000031,None,None,0,,,,,,,,,,,,,,016,2022-05-12_13h36.45.921,Main,2022.1.1,60.21074966644569,
negative,red,2,None,None,,,,,,,,,0,160,160,160,,,,,,,,,,,,,,,,,main,None,None,1,1.4964947999978904,568.2028885000036,None,None,1,,,,,,,,,,,,,,016,2022-05-12_13h36.45.921,Main,2022.1.1,60.21074966644569,
negative,blue,1,None,k,,,,,,,,,0,161,161,161,,,,,,,,,,,,,,,,,main,None,None,1,1.500914099997317,570.7000818000015,None,None,1,,,,,,,,,,,,,,016,2022-05-12_13h36.45.921,Main,2022.1.1,60.21074966644569,
negative,blue,1,None,k,,,,,,,,,0,162,162,162,,,,,,,,,,,,,,,,,main,None,None,1,1.4990127999990364,573.2027817000053,None,None,1,,,,,,,,,,,,,,016,2022-05-12_13h36.45.921,Main,2022.1.1,60.21074966644569,
negative,yellow,1,k,None,,,,,,,,,0,163,163,163,,,,,,,,,,,,,,,,,main,k,k,1,0.7966674999988754,575.7027261000039,None,None,0,,,,,,,,,,,,,,016,2022-05-12_13h36.45.921,Main,2022.1.1,60.21074966644569,
negative,yellow,1,k,None,,,,,,,,,0,164,164,164,,,,,,,,,,,,,,,,,main,k,k,1,0.6492198999985703,577.499950700003,None,None,0,,,,,,,,,,,,,,016,2022-05-12_13h36.45.921,Main,2022.1.1,60.21074966644569,
positive,yellow,1,None,k,,,,,,,,,0,165,165,165,,,,,,,,,,,,,,,,,main,None,None,1,1.5011827999987872,579.1499686000025,None,None,1,,,,,,,,,,,,,,016,2022-05-12_13h36.45.921,Main,2022.1.1,60.21074966644569,
negative,red,1,None,None,,,,,,,,,0,166,166,166,,,,,,,,,,,,,,,,,main,None,None,1,1.4968272999976762,581.652637500003,None,None,1,,,,,,,,,,,,,,016,2022-05-12_13h36.45.921,Main,2022.1.1,60.21074966644569,
negative,yellow,2,k,None,,,,,,,,,0,167,167,167,,,,,,,,,,,,,,,,,main,k,k,1,0.9206033000009484,584.1503811000002,None,None,0,,,,,,,,,,,,,,016,2022-05-12_13h36.45.921,Main,2022.1.1,60.21074966644569,
positive,blue,2,k,None,,,,,,,,,0,168,168,168,,,,,,,,,,,,,,,,,main,k,k,1,0.8110854000042309,586.0664256000018,None,None,0,,,,,,,,,,,,,,016,2022-05-12_13h36.45.921,Main,2022.1.1,60.21074966644569,
positive,red,2,None,None,,,,,,,,,0,169,169,169,,,,,,,,,,,,,,,,,main,None,None,1,1.5012908999997308,587.8833702000047,None,None,1,,,,,,,,,,,,,,016,2022-05-12_13h36.45.921,Main,2022.1.1,60.21074966644569,
positive,red,1,None,None,,,,,,,,,0,170,170,170,,,,,,,,,,,,,,,,,main,None,None,1,1.4973122000010335,590.3857979000022,None,None,1,,,,,,,,,,,,,,016,2022-05-12_13h36.45.921,Main,2022.1.1,60.21074966644569,
negative,blue,2,None,k,,,,,,,,,0,171,171,171,,,,,,,,,,,,,,,,,main,None,None,1,1.5007031000059214,592.8829502000008,None,None,1,,,,,,,,,,,,,,016,2022-05-12_13h36.45.921,Main,2022.1.1,60.21074966644569,
positive,blue,2,k,None,,,,,,,,,0,172,172,172,,,,,,,,,,,,,,,,,main,k,k,1,0.6971703000017442,595.3857270000008,None,None,0,,,,,,,,,,,,,,016,2022-05-12_13h36.45.921,Main,2022.1.1,60.21074966644569,
negative,yellow,2,k,None,,,,,,,,,0,173,173,173,,,,,,,,,,,,,,,,,main,k,k,1,0.8151709000012488,597.0856350000031,None,None,0,,,,,,,,,,,,,,016,2022-05-12_13h36.45.921,Main,2022.1.1,60.21074966644569,
positive,yellow,2,None,k,,,,,,,,,0,174,174,174,,,,,,,,,,,,,,,,,main,None,None,1,1.4980806000021403,598.8997767000037,None,None,1,,,,,,,,,,,,,,016,2022-05-12_13h36.45.921,Main,2022.1.1,60.21074966644569,
negative,blue,2,None,k,,,,,,,,,0,175,175,175,,,,,,,,,,,,,,,,,main,None,None,1,1.5020015999980387,601.3994573000018,None,None,1,,,,,,,,,,,,,,016,2022-05-12_13h36.45.921,Main,2022.1.1,60.21074966644569,
positive,blue,1,k,None,,,,,,,,,0,176,176,176,,,,,,,,,,,,,,,,,main,k,k,1,0.8636492000005092,603.9021954000054,None,None,0,,,,,,,,,,,,,,016,2022-05-12_13h36.45.921,Main,2022.1.1,60.21074966644569,
positive,yellow,1,None,k,,,,,,,,,0,177,177,177,,,,,,,,,,,,,,,,,main,None,None,1,1.4990403000047081,605.7688987000001,None,None,1,,,,,,,,,,,,,,016,2022-05-12_13h36.45.921,Main,2022.1.1,60.21074966644569,
positive,blue,1,k,None,,,,,,,,,0,178,178,178,,,,,,,,,,,,,,,,,main,k,k,1,0.8146161999975448,608.2659987000006,None,None,0,,,,,,,,,,,,,,016,2022-05-12_13h36.45.921,Main,2022.1.1,60.21074966644569,
positive,yellow,2,None,k,,,,,,,,,0,179,179,179,,,,,,,,,,,,,,,,,main,None,None,1,1.501681000001554,610.0826664000051,None,None,1,,,,,,,,,,,,,,016,2022-05-12_13h36.45.921,Main,2022.1.1,60.21074966644569,
positive,blue,1,k,None,,,,,,,,,0,180,180,180,,,,,,,,,,,,,,,,,main,k,k,1,0.8471350000036182,612.5853321000031,None,None,0,,,,,,,,,,,,,,016,2022-05-12_13h36.45.921,Main,2022.1.1,60.21074966644569,
negative,red,1,None,None,,,,,,,,,0,181,181,181,,,,,,,,,,,,,,,,,main,None,None,1,1.4984975999977905,614.4328741999998,None,None,1,,,,,,,,,,,,,,016,2022-05-12_13h36.45.921,Main,2022.1.1,60.21074966644569,
negative,blue,1,None,k,,,,,,,,,0,182,182,182,,,,,,,,,,,,,,,,,main,None,None,1,1.5018770000024233,616.9324809000027,None,None,1,,,,,,,,,,,,,,016,2022-05-12_13h36.45.921,Main,2022.1.1,60.21074966644569,
negative,yellow,2,k,None,,,,,,,,,0,183,183,183,,,,,,,,,,,,,,,,,main,k,k,1,1.3825577000025078,619.4352017000056,None,None,0,,,,,,,,,,,,,,016,2022-05-12_13h36.45.921,Main,2022.1.1,60.21074966644569,
positive,yellow,2,None,k,,,,,,,,,0,184,184,184,,,,,,,,,,,,,,,,,main,None,None,1,1.4963122999979532,621.8184731000001,None,None,1,,,,,,,,,,,,,,016,2022-05-12_13h36.45.921,Main,2022.1.1,60.21074966644569,
positive,yellow,1,None,k,,,,,,,,,0,185,185,185,,,,,,,,,,,,,,,,,main,None,None,1,1.5014890000020387,624.3156703000059,None,None,1,,,,,,,,,,,,,,016,2022-05-12_13h36.45.921,Main,2022.1.1,60.21074966644569,
positive,red,2,None,None,,,,,,,,,0,186,186,186,,,,,,,,,,,,,,,,,main,None,None,1,1.49665449999884,626.8183673000021,None,None,1,,,,,,,,,,,,,,016,2022-05-12_13h36.45.921,Main,2022.1.1,60.21074966644569,
positive,blue,1,k,None,,,,,,,,,0,187,187,187,,,,,,,,,,,,,,,,,main,k,k,1,0.8659929999994347,629.3158178000012,None,None,0,,,,,,,,,,,,,,016,2022-05-12_13h36.45.921,Main,2022.1.1,60.21074966644569,
negative,yellow,1,k,None,,,,,,,,,0,188,188,188,,,,,,,,,,,,,,,,,main,k,k,1,0.8153946000020369,631.1824951000017,None,None,0,,,,,,,,,,,,,,016,2022-05-12_13h36.45.921,Main,2022.1.1,60.21074966644569,
positive,yellow,2,None,k,,,,,,,,,0,189,189,189,,,,,,,,,,,,,,,,,main,None,None,1,1.501573699999426,632.9988100000046,None,None,1,,,,,,,,,,,,,,016,2022-05-12_13h36.45.921,Main,2022.1.1,60.21074966644569,
negative,yellow,2,k,None,,,,,,,,,0,190,190,190,,,,,,,,,,,,,,,,,main,k,k,1,0.849452199996449,635.5015277999992,None,None,0,,,,,,,,,,,,,,016,2022-05-12_13h36.45.921,Main,2022.1.1,60.21074966644569,
negative,yellow,1,k,None,,,,,,,,,0,191,191,191,,,,,,,,,,,,,,,,,main,k,k,1,0.7628784000044107,637.3514849999992,None,None,0,,,,,,,,,,,,,,016,2022-05-12_13h36.45.921,Main,2022.1.1,60.21074966644569,
positive,blue,2,k,None,,,,,,,,,0,192,192,192,,,,,,,,,,,,,,,,,main,k,k,1,0.7520390999998199,639.1153479999994,None,None,0,,,,,,,,,,,,,,016,2022-05-12_13h36.45.921,Main,2022.1.1,60.21074966644569,
positive,yellow,1,None,k,,,,,,,,,0,193,193,193,,,,,,,,,,,,,,,,,main,None,None,1,1.499054600004456,640.8681448000061,None,None,1,,,,,,,,,,,,,,016,2022-05-12_13h36.45.921,Main,2022.1.1,60.21074966644569,
negative,red,2,None,None,,,,,,,,,0,194,194,194,,,,,,,,,,,,,,,,,main,None,None,1,1.4967407000003732,643.3680910000039,None,None,1,,,,,,,,,,,,,,016,2022-05-12_13h36.45.921,Main,2022.1.1,60.21074966644569,
positive,red,1,None,None,,,,,,,,,0,195,195,195,,,,,,,,,,,,,,,,,main,None,None,1,1.5012048999997205,645.8655224000031,None,None,1,,,,,,,,,,,,,,016,2022-05-12_13h36.45.921,Main,2022.1.1,60.21074966644569,
negative,blue,1,None,k,,,,,,,,,0,196,196,196,,,,,,,,,,,,,,,,,main,None,None,1,1.496912100003101,648.3655402000004,None,None,1,,,,,,,,,,,,,,016,2022-05-12_13h36.45.921,Main,2022.1.1,60.21074966644569,
positive,blue,2,k,None,,,,,,,,,0,197,197,197,,,,,,,,,,,,,,,,,main,k,k,1,1.2322260000000824,650.8654418000006,None,None,0,,,,,,,,,,,,,,016,2022-05-12_13h36.45.921,Main,2022.1.1,60.21074966644569,
negative,blue,2,None,k,,,,,,,,,0,198,198,198,,,,,,,,,,,,,,,,,main,None,None,1,1.5014204999970389,653.0986495000034,None,None,1,,,,,,,,,,,,,,016,2022-05-12_13h36.45.921,Main,2022.1.1,60.21074966644569,
negative,blue,2,None,k,,,,,,,,,0,199,199,199,,,,,,,,,,,,,,,,,main,None,None,1,1.4961824999991222,655.6011255000049,None,None,1,,,,,,,,,,,,,,016,2022-05-12_13h36.45.921,Main,2022.1.1,60.21074966644569,
positive,blue,2,k,None,,,,,,,,,0,200,200,200,,,,,,,,,,,,,,,,,main,k,k,1,0.79949150000175,658.0982930000027,None,None,0,,,,,,,,,,,,,,016,2022-05-12_13h36.45.921,Main,2022.1.1,60.21074966644569,
positive,blue,2,k,None,,,,,,,,,0,201,201,201,,,,,,,,,,,,,,,,,main,k,k,1,0.6836480999991181,659.8983386000036,None,None,0,,,,,,,,,,,,,,016,2022-05-12_13h36.45.921,Main,2022.1.1,60.21074966644569,
negative,yellow,2,k,None,,,,,,,,,0,202,202,202,,,,,,,,,,,,,,,,,main,k,k,1,0.846947199999704,661.5843010000026,None,None,0,,,,,,,,,,,,,,016,2022-05-12_13h36.45.921,Main,2022.1.1,60.21074966644569,
positive,red,1,None,None,,,,,,,,,0,203,203,203,,,,,,,,,,,,,,,,,main,None,None,1,1.5017483000046923,663.4342795000048,None,None,1,,,,,,,,,,,,,,016,2022-05-12_13h36.45.921,Main,2022.1.1,60.21074966644569,
negative,blue,2,None,k,,,,,,,,,0,204,204,204,,,,,,,,,,,,,,,,,main,None,None,1,1.496288000002096,665.9317450000017,None,None,1,,,,,,,,,,,,,,016,2022-05-12_13h36.45.921,Main,2022.1.1,60.21074966644569,
negative,red,1,None,None,,,,,,,,,0,205,205,205,,,,,,,,,,,,,,,,,main,None,None,1,1.5007642999989912,668.4314094000001,None,None,1,,,,,,,,,,,,,,016,2022-05-12_13h36.45.921,Main,2022.1.1,60.21074966644569,
negative,blue,2,None,k,,,,,,,,,0,206,206,206,,,,,,,,,,,,,,,,,main,None,None,1,1.4997065999996266,670.9341218000045,None,None,1,,,,,,,,,,,,,,016,2022-05-12_13h36.45.921,Main,2022.1.1,60.21074966644569,
negative,yellow,2,k,None,,,,,,,,,0,207,207,207,,,,,,,,,,,,,,,,,main,k,k,1,0.8295361999989836,673.4315924000039,None,None,0,,,,,,,,,,,,,,016,2022-05-12_13h36.45.921,Main,2022.1.1,60.21074966644569,
positive,yellow,2,None,k,,,,,,,,,0,208,208,208,,,,,,,,,,,,,,,,,main,None,None,1,1.499365299998317,675.2649234000055,None,None,1,,,,,,,,,,,,,,016,2022-05-12_13h36.45.921,Main,2022.1.1,60.21074966644569,
negative,yellow,1,k,None,,,,,,,,,0,209,209,209,,,,,,,,,,,,,,,,,main,k,k,1,0.7821609999955399,677.7646622000029,None,None,0,,,,,,,,,,,,,,016,2022-05-12_13h36.45.921,Main,2022.1.1,60.21074966644569,
negative,red,2,None,None,,,,,,,,,0,210,210,210,,,,,,,,,,,,,,,,,main,None,None,1,1.4979037000011886,679.5506375000041,None,None,1,,,,,,,,,,,,,,016,2022-05-12_13h36.45.921,Main,2022.1.1,60.21074966644569,
negative,blue,1,None,k,,,,,,,,,0,211,211,211,,,,,,,,,,,,,,,,,main,None,None,1,1.4997299000024213,682.0480759000056,None,None,1,,,,,,,,,,,,,,016,2022-05-12_13h36.45.921,Main,2022.1.1,60.21074966644569,
negative,yellow,1,k,None,,,,,,,,,0,212,212,212,,,,,,,,,,,,,,,,,main,k,k,1,0.8316190999976243,684.547751099999,None,None,0,,,,,,,,,,,,,,016,2022-05-12_13h36.45.921,Main,2022.1.1,60.21074966644569,
positive,blue,1,k,None,,,,,,,,,0,213,213,213,,,,,,,,,,,,,,,,,main,k,k,1,0.9518982000008691,686.3811067000061,None,None,0,,,,,,,,,,,,,,016,2022-05-12_13h36.45.921,Main,2022.1.1,60.21074966644569,
positive,blue,1,k,None,,,,,,,,,0,214,214,214,,,,,,,,,,,,,,,,,main,k,k,1,0.6823804000014206,688.3337950000059,None,None,0,,,,,,,,,,,,,,016,2022-05-12_13h36.45.921,Main,2022.1.1,60.21074966644569,
positive,yellow,1,None,k,,,,,,,,,0,215,215,215,,,,,,,,,,,,,,,,,main,None,None,1,1.4967488999973284,690.0170667000057,None,None,1,,,,,,,,,,,,,,016,2022-05-12_13h36.45.921,Main,2022.1.1,60.21074966644569,
positive,yellow,1,None,k,,,,,,,,,0,216,216,216,,,,,,,,,,,,,,,,,main,None,None,1,1.4994312999988324,692.5145583000049,None,None,1,,,,,,,,,,,,,,016,2022-05-12_13h36.45.921,Main,2022.1.1,60.21074966644569,
positive,yellow,2,None,k,,,,,,,,,0,217,217,217,,,,,,,,,,,,,,,,,main,None,None,1,1.5004434999937075,695.0142723000026,None,None,1,,,,,,,,,,,,,,016,2022-05-12_13h36.45.921,Main,2022.1.1,60.21074966644569,
negative,blue,1,None,k,,,,,,,,,0,218,218,218,,,,,,,,,,,,,,,,,main,None,None,1,1.4976511999993818,697.516936400003,None,None,1,,,,,,,,,,,,,,016,2022-05-12_13h36.45.921,Main,2022.1.1,60.21074966644569,
positive,red,2,None,None,,,,,,,,,0,219,219,219,,,,,,,,,,,,,,,,,main,None,None,1,1.4982612999956473,700.0144231000013,None,None,1,,,,,,,,,,,,,,016,2022-05-12_13h36.45.921,Main,2022.1.1,60.21074966644569,
positive,yellow,1,None,k,,,,,,,,,0,220,220,220,,,,,,,,,,,,,,,,,main,None,None,1,1.4989740000019083,702.5142960000012,None,None,1,,,,,,,,,,,,,,016,2022-05-12_13h36.45.921,Main,2022.1.1,60.21074966644569,
positive,blue,1,k,None,,,,,,,,,0,221,221,221,,,,,,,,,,,,,,,,,main,k,k,1,0.7322248999989824,705.0143160000007,None,None,0,,,,,,,,,,,,,,016,2022-05-12_13h36.45.921,Main,2022.1.1,60.21074966644569,
positive,yellow,2,None,k,,,,,,,,,0,222,222,222,,,,,,,,,,,,,,,,,main,None,None,1,1.49842300000455,706.7476192000031,None,None,1,,,,,,,,,,,,,,016,2022-05-12_13h36.45.921,Main,2022.1.1,60.21074966644569,
negative,yellow,1,k,None,,,,,,,,,0,223,223,223,,,,,,,,,,,,,,,,,main,k,k,1,0.752167599996028,709.2472420000049,None,None,0,,,,,,,,,,,,,,016,2022-05-12_13h36.45.921,Main,2022.1.1,60.21074966644569,
positive,yellow,2,None,k,,,,,,,,,0,224,224,224,,,,,,,,,,,,,,,,,main,None,None,1,1.5028089999977965,710.9999499000041,None,None,1,,,,,,,,,,,,,,016,2022-05-12_13h36.45.921,Main,2022.1.1,60.21074966644569,
negative,yellow,2,k,None,,,,,,,,,0,225,225,225,,,,,,,,,,,,,,,,,main,k,k,1,0.6600060999990092,713.5030965000042,None,None,0,,,,,,,,,,,,,,016,2022-05-12_13h36.45.921,Main,2022.1.1,60.21074966644569,
negative,blue,2,None,k,,,,,,,,,0,226,226,226,,,,,,,,,,,,,,,,,main,None,None,1,1.5003228999994462,715.1637988000002,None,None,1,,,,,,,,,,,,,,016,2022-05-12_13h36.45.921,Main,2022.1.1,60.21074966644569,
positive,red,2,None,None,,,,,,,,,0,227,227,227,,,,,,,,,,,,,,,,,main,None,None,1,1.4975345999991987,717.6665830999991,None,None,1,,,,,,,,,,,,,,016,2022-05-12_13h36.45.921,Main,2022.1.1,60.21074966644569,
positive,blue,2,k,None,,,,,,,,,0,228,228,228,,,,,,,,,,,,,,,,,main,k,k,1,0.6874147999988054,720.1639835000024,None,None,0,,,,,,,,,,,,,,016,2022-05-12_13h36.45.921,Main,2022.1.1,60.21074966644569,
negative,blue,1,None,k,,,,,,,,,0,229,229,229,,,,,,,,,,,,,,,,,main,None,None,1,1.4954616999966674,721.8514224000028,None,None,1,,,,,,,,,,,,,,016,2022-05-12_13h36.45.921,Main,2022.1.1,60.21074966644569,
positive,yellow,1,None,k,,,,,,,,,0,230,230,230,,,,,,,,,,,,,,,,,main,None,None,1,1.4973976999972365,724.3472066000031,None,None,1,,,,,,,,,,,,,,016,2022-05-12_13h36.45.921,Main,2022.1.1,60.21074966644569,
negative,blue,2,None,k,,,,,,,,,0,231,231,231,,,,,,,,,,,,,,,,,main,None,None,1,1.4999124000023585,726.8471924000041,None,None,1,,,,,,,,,,,,,,016,2022-05-12_13h36.45.921,Main,2022.1.1,60.21074966644569,
negative,red,1,None,None,,,,,,,,,0,232,232,232,,,,,,,,,,,,,,,,,main,None,None,1,1.4992670999999973,729.3468550000034,None,None,1,,,,,,,,,,,,,,016,2022-05-12_13h36.45.921,Main,2022.1.1,60.21074966644569,
positive,blue,2,k,None,,,,,,,,,0,233,233,233,,,,,,,,,,,,,,,,,main,k,k,1,0.8137207999970997,731.849581500006,None,None,0,,,,,,,,,,,,,,016,2022-05-12_13h36.45.921,Main,2022.1.1,60.21074966644569,
negative,yellow,1,k,None,,,,,,,,,0,234,234,234,,,,,,,,,,,,,,,,,main,k,k,1,0.7982503000021097,733.666206599999,None,None,0,,,,,,,,,,,,,,016,2022-05-12_13h36.45.921,Main,2022.1.1,60.21074966644569,
negative,yellow,2,k,None,,,,,,,,,0,235,235,235,,,,,,,,,,,,,,,,,main,k,k,1,0.816363400001137,735.4633838000009,None,None,0,,,,,,,,,,,,,,016,2022-05-12_13h36.45.921,Main,2022.1.1,60.21074966644569,
positive,red,1,None,None,,,,,,,,,0,236,236,236,,,,,,,,,,,,,,,,,main,None,None,1,1.5010662999993656,737.2827719000052,None,None,1,,,,,,,,,,,,,,016,2022-05-12_13h36.45.921,Main,2022.1.1,60.21074966644569,
negative,red,2,None,None,,,,,,,,,0,237,237,237,,,,,,,,,,,,,,,,,main,None,None,1,1.4964321000006748,739.7827315000031,None,None,1,,,,,,,,,,,,,,016,2022-05-12_13h36.45.921,Main,2022.1.1,60.21074966644569,
negative,blue,1,None,k,,,,,,,,,0,238,238,238,,,,,,,,,,,,,,,,,main,None,None,1,1.5019055000011576,742.2799015000055,None,None,1,,,,,,,,,,,,,,016,2022-05-12_13h36.45.921,Main,2022.1.1,60.21074966644569,
positive,blue,1,k,None,,,,,,,,,0,239,239,239,,,,,,,,,,,,,,,,,main,k,k,1,0.7162071999991895,744.7825699000023,None,None,0,,,,,,,,,,,,,,016,2022-05-12_13h36.45.921,Main,2022.1.1,60.21074966644569,
,,,,,,,,,,,,,,,,,,,,,,,,,,,,,,,,,,,,,,,,,,,,,,,,,,,,,746.4992379000032,None,,,,,,
