distractor,target,set,ans1,ans2,rep_loop4.thisRepN,rep_loop4.thisTrialN,rep_loop4.thisN,rep_loop4.thisIndex,st2_prac_loop.thisRepN,st2_prac_loop.thisTrialN,st2_prac_loop.thisN,st2_prac_loop.thisIndex,st2_main_loop.thisRepN,st2_main_loop.thisTrialN,st2_main_loop.thisN,st2_main_loop.thisIndex,image_4.started,image_4.stopped,sound_2.started,sound_2.stopped,key_resp_3.keys,key_resp_3.rt,image_5.started,image_5.stopped,st_prac_back.started,st_prac_back.stopped,st_prac_text.started,st_prac_text.stopped,st_fix_back.started,st_fix_back.stopped,st_fix_2.started,st_fix_2.stopped,main_prac,st_ans,st_res,st_corr,st_rt,st_back.started,st_back.stopped,st2_resp.keys,st2_resp.corr,st_main_back.started,st_main_back.stopped,st_main_text.started,st_main_text.stopped,mouse_4.x,mouse_4.y,mouse_4.leftButton,mouse_4.midButton,mouse_4.rightButton,mouse_4.started,mouse_4.stopped,text_2.started,text_2.stopped,id*,date,expName,psychopyVersion,frameRate,
negative,yellow,1,k,None,,,,,0,0,0,0,,,,,30.885935699989204,None,34.46537378000066,None,space,56.85554430000775,91.34490539999388,None,93.46415379999962,None,93.46415379999962,None,95.46411339999759,None,95.46411339999759,None,prac,None,None,1,1.4945707999868318,97.47816889999376,None,None,1,,,,,,,,,,,,,,017,2022-05-12_18h05.00.332,Main,2022.1.1,61.16050841582712,
positive,red,2,None,None,,,,,0,1,1,1,,,,,,,,,,,,,,,,,,,,,prac,None,None,1,1.498805800001719,99.97837179999624,None,None,1,,,,,,,,,,,,,,017,2022-05-12_18h05.00.332,Main,2022.1.1,61.16050841582712,
negative,blue,2,None,k,,,,,0,2,2,2,,,,,,,,,,,,,,,,,,,,,prac,k,k,1,1.2329458000021987,102.47819470000104,None,None,0,,,,,,,,,,,,,,017,2022-05-12_18h05.00.332,Main,2022.1.1,61.16050841582712,
positive,yellow,1,None,k,,,,,0,3,3,3,,,,,,,,,,,,,,,,,,,,,prac,k,k,1,1.0824801999988267,104.7114300999965,None,None,0,,,,,,,,,,,,,,017,2022-05-12_18h05.00.332,Main,2022.1.1,61.16050841582712,
negative,blue,2,None,k,,,,,0,4,4,4,,,,,,,,,,,,,,,,,,,,,prac,k,k,1,1.2374724999972386,106.79489489999833,None,None,0,,,,,,,,,,,,,,017,2022-05-12_18h05.00.332,Main,2022.1.1,61.16050841582712,
negative,blue,1,None,k,,,,,0,5,5,5,,,,,,,,,,,,,,,,,,,,,prac,k,k,1,5.143611499996041,109.03219269998954,None,None,0,,,,,,,,,,,,,,017,2022-05-12_18h05.00.332,Main,2022.1.1,61.16050841582712,
negative,yellow,2,k,None,,,,,0,6,6,6,,,,,,,,,,,,,,,,,,,,,prac,None,None,1,1.501598599992576,116.17795409999962,None,None,1,,,,,,,,,,,,,,017,2022-05-12_18h05.00.332,Main,2022.1.1,61.16050841582712,
negative,red,1,None,None,,,,,0,7,7,7,,,,,,,,,,,,,,,,,,,,,prac,None,None,1,1.4980149999901187,118.6778931000008,None,None,1,,,,,,,,,,,,,,017,2022-05-12_18h05.00.332,Main,2022.1.1,61.16050841582712,
positive,yellow,2,None,k,,,,,0,8,8,8,,,,,,,,,,,,,,,,,,,,,prac,k,k,1,0.8983477000001585,121.17808169999626,None,None,0,,,,,,,,,,,,,,017,2022-05-12_18h05.00.332,Main,2022.1.1,61.16050841582712,
negative,yellow,1,k,None,,,,,0,9,9,9,,,,,,,,,,,,,,,,,,,,,prac,None,None,1,1.4999534000089625,123.07776719999674,None,None,1,,,,,,,,,,,,,,017,2022-05-12_18h05.00.332,Main,2022.1.1,61.16050841582712,
positive,yellow,2,None,k,,,,,0,10,10,10,,,,,,,,,,,,,,,,,,,,,prac,k,k,1,1.0148379999882309,125.57816039999307,None,None,0,,,,,,,,,,,,,,017,2022-05-12_18h05.00.332,Main,2022.1.1,61.16050841582712,
negative,yellow,2,k,None,,,,,0,11,11,11,,,,,,,,,,,,,,,,,,,,,prac,None,None,1,1.4987156999995932,127.59439230000135,None,None,1,,,,,,,,,,,,,,017,2022-05-12_18h05.00.332,Main,2022.1.1,61.16050841582712,
negative,red,2,None,None,,,,,0,12,12,12,,,,,,,,,,,,,,,,,,,,,prac,None,None,1,1.4999839999945834,130.0943089999928,None,None,1,,,,,,,,,,,,,,017,2022-05-12_18h05.00.332,Main,2022.1.1,61.16050841582712,
positive,red,1,None,None,,,,,0,13,13,13,,,,,,,,,,,,,,,,,,,,,prac,None,None,1,1.4980014000029769,132.59426579999854,None,None,1,,,,,,,,,,,,,,017,2022-05-12_18h05.00.332,Main,2022.1.1,61.16050841582712,
positive,blue,2,k,None,,,,,0,14,14,14,,,,,,,,,,,,,,,,,,,,,prac,None,None,1,1.4999131000076886,135.09419129999878,None,None,1,,,,,,,,,,,,,,017,2022-05-12_18h05.00.332,Main,2022.1.1,61.16050841582712,
positive,blue,1,k,None,,,,,0,15,15,15,,,,,,,,,,,,,,,,,,,,,prac,None,None,1,1.498694299996714,137.59407490000012,None,None,1,,,,,,,,,,,,,,017,2022-05-12_18h05.00.332,Main,2022.1.1,61.16050841582712,
negative,blue,1,None,k,,,,,0,16,16,16,,,,,,,,,,,,,,,,,,,,,prac,k,k,1,1.314753800004837,140.09423940000124,None,None,0,,,,,,,,,,,,,,017,2022-05-12_18h05.00.332,Main,2022.1.1,61.16050841582712,
positive,blue,2,k,None,,,,,0,17,17,17,,,,,,,,,,,,,,,,,,,,,prac,None,None,1,1.4987808000005316,142.41064259999257,None,None,1,,,,,,,,,,,,,,017,2022-05-12_18h05.00.332,Main,2022.1.1,61.16050841582712,
positive,blue,1,k,None,,,,,0,18,18,18,,,,,,,,,,,,,,,,,,,,,prac,None,None,1,1.499947299991618,144.9106688000029,None,None,1,,,,,,,,,,,,,,017,2022-05-12_18h05.00.332,Main,2022.1.1,61.16050841582712,
positive,yellow,1,None,k,,,,,0,19,19,19,,,,,,,,,,,,,,,,,,,,,prac,k,k,1,0.7482397999992827,147.4105550999957,None,None,0,,,,,,,,,,,,,,017,2022-05-12_18h05.00.332,Main,2022.1.1,61.16050841582712,
negative,yellow,1,k,None,,,,,1,0,20,0,,,,,,,,,,,,,,,,,,,,,prac,None,None,1,1.499031199986348,149.16058789999806,None,None,1,,,,,,,,,,,,,,017,2022-05-12_18h05.00.332,Main,2022.1.1,61.16050841582712,
positive,red,2,None,None,,,,,1,1,21,1,,,,,,,,,,,,,,,,,,,,,prac,None,None,1,1.4989493000030052,151.66051619999052,None,None,1,,,,,,,,,,,,,,017,2022-05-12_18h05.00.332,Main,2022.1.1,61.16050841582712,
negative,blue,2,None,k,,,,,1,2,22,2,,,,,,,,,,,,,,,,,,,,,prac,k,k,1,0.616154599993024,154.16038979998848,None,None,0,,,,,,,,,,,,,,017,2022-05-12_18h05.00.332,Main,2022.1.1,61.16050841582712,
positive,yellow,1,None,k,,,,,1,3,23,3,,,,,,,,,,,,,,,,,,,,,prac,k,k,1,0.8820062000013422,155.77711460000137,None,None,0,,,,,,,,,,,,,,017,2022-05-12_18h05.00.332,Main,2022.1.1,61.16050841582712,
negative,blue,2,None,k,,,,,1,4,24,4,,,,,,,,,,,,,,,,,,,,,prac,k,k,1,0.7656438999983948,157.66041479998967,None,None,0,,,,,,,,,,,,,,017,2022-05-12_18h05.00.332,Main,2022.1.1,61.16050841582712,
negative,blue,1,None,k,,,,,1,5,25,5,,,,,,,,,,,,,,,,,,,,,prac,k,k,1,0.8493491999979597,159.4269525999989,None,None,0,,,,,,,,,,,,,,017,2022-05-12_18h05.00.332,Main,2022.1.1,61.16050841582712,
negative,yellow,2,k,None,,,,,1,6,26,6,,,,,,,,,,,,,,,,,,,,,prac,None,None,1,1.5012543000048026,161.27957319999405,None,None,1,,,,,,,,,,,,,,017,2022-05-12_18h05.00.332,Main,2022.1.1,61.16050841582712,
negative,red,1,None,None,,,,,1,7,27,7,,,,,,,,,,,,,,,,,,,,,prac,None,None,1,1.497564000004786,163.779506699997,None,None,1,,,,,,,,,,,,,,017,2022-05-12_18h05.00.332,Main,2022.1.1,61.16050841582712,
positive,yellow,2,None,k,,,,,1,8,28,8,,,,,,,,,,,,,,,,,,,,,prac,k,k,1,0.7314437000022735,166.27682800000184,None,None,0,,,,,,,,,,,,,,017,2022-05-12_18h05.00.332,Main,2022.1.1,61.16050841582712,
negative,yellow,1,k,None,,,,,1,9,29,9,,,,,,,,,,,,,,,,,,,,,prac,None,None,1,1.498462900010054,168.01014739999664,None,None,1,,,,,,,,,,,,,,017,2022-05-12_18h05.00.332,Main,2022.1.1,61.16050841582712,
positive,yellow,2,None,k,,,,,1,10,30,10,,,,,,,,,,,,,,,,,,,,,prac,k,k,1,0.7167971999879228,170.51016019999224,None,None,0,,,,,,,,,,,,,,017,2022-05-12_18h05.00.332,Main,2022.1.1,61.16050841582712,
negative,yellow,2,k,None,,,,,1,11,31,11,,,,,,,,,,,,,,,,,,,,,prac,None,None,1,1.5003100000030827,172.22649449999153,None,None,1,,,,,,,,,,,,,,017,2022-05-12_18h05.00.332,Main,2022.1.1,61.16050841582712,
negative,red,2,None,None,,,,,1,12,32,12,,,,,,,,,,,,,,,,,,,,,prac,None,None,1,1.4967524999956368,174.7268253999937,None,None,1,,,,,,,,,,,,,,017,2022-05-12_18h05.00.332,Main,2022.1.1,61.16050841582712,
positive,red,1,None,None,,,,,1,13,33,13,,,,,,,,,,,,,,,,,,,,,prac,None,None,1,1.498986699996749,177.23259639999014,None,None,1,,,,,,,,,,,,,,017,2022-05-12_18h05.00.332,Main,2022.1.1,61.16050841582712,
positive,blue,2,k,None,,,,,1,14,34,14,,,,,,,,,,,,,,,,,,,,,prac,None,None,1,1.502553700003773,179.7266634999978,None,None,1,,,,,,,,,,,,,,017,2022-05-12_18h05.00.332,Main,2022.1.1,61.16050841582712,
positive,blue,1,k,None,,,,,1,15,35,15,,,,,,,,,,,,,,,,,,,,,prac,None,None,1,1.501173899989226,182.22653549999814,None,None,1,,,,,,,,,,,,,,017,2022-05-12_18h05.00.332,Main,2022.1.1,61.16050841582712,
negative,blue,1,None,k,,,,,1,16,36,16,,,,,,,,,,,,,,,,,,,,,prac,k,k,1,0.6770227999950293,184.730467699992,None,None,0,,,,,,,,,,,,,,017,2022-05-12_18h05.00.332,Main,2022.1.1,61.16050841582712,
positive,blue,2,k,None,,,,,1,17,37,17,,,,,,,,,,,,,,,,,,,,,prac,None,None,1,1.4991759000113234,186.40985399999772,None,None,1,,,,,,,,,,,,,,017,2022-05-12_18h05.00.332,Main,2022.1.1,61.16050841582712,
positive,blue,1,k,None,,,,,1,18,38,18,,,,,,,,,,,,,,,,,,,,,prac,None,None,1,1.4994535000005271,188.90993029999663,None,None,1,,,,,,,,,,,,,,017,2022-05-12_18h05.00.332,Main,2022.1.1,61.16050841582712,
positive,yellow,1,None,k,,,,,1,19,39,19,,,,,,,,,,,,,,,,,,,,,prac,k,k,1,0.7159913999930723,191.40967269999965,None,None,0,,,,,,,,,,,,,,017,2022-05-12_18h05.00.332,Main,2022.1.1,61.16050841582712,
,,,,,,,,,,,,,,,,,,,,,,,,,,,,,,,,,,,,,,,,,,193.12634419999085,None,193.12634419999085,None,0.046296295,-0.035185184,0,0,0,0.01295887999003753,None,,,017,2022-05-12_18h05.00.332,Main,2022.1.1,61.16050841582712,
negative,yellow,2,k,None,,,,,,,,,0,0,0,0,,,,,,,,,,,,,194.5096928999992,None,194.5096928999992,None,main,None,None,1,1.496916300005978,196.53478709999763,None,None,1,,,,,,,,,,,,,,017,2022-05-12_18h05.00.332,Main,2022.1.1,61.16050841582712,
positive,red,1,None,None,,,,,,,,,0,1,1,1,,,,,,,,,,,,,,,,,main,None,None,1,1.501122800007579,199.04297270000097,None,None,1,,,,,,,,,,,,,,017,2022-05-12_18h05.00.332,Main,2022.1.1,61.16050841582712,
positive,blue,2,k,None,,,,,,,,,0,2,2,2,,,,,,,,,,,,,,,,,main,None,None,1,1.4969621999916853,201.5429684999981,None,None,1,,,,,,,,,,,,,,017,2022-05-12_18h05.00.332,Main,2022.1.1,61.16050841582712,
positive,blue,1,k,None,,,,,,,,,0,3,3,3,,,,,,,,,,,,,,,,,main,None,None,1,1.4981435999943642,204.04282629999216,None,None,1,,,,,,,,,,,,,,017,2022-05-12_18h05.00.332,Main,2022.1.1,61.16050841582712,
negative,yellow,2,k,None,,,,,,,,,0,4,4,4,,,,,,,,,,,,,,,,,main,None,None,1,1.5017824999958975,206.54249739999068,None,None,1,,,,,,,,,,,,,,017,2022-05-12_18h05.00.332,Main,2022.1.1,61.16050841582712,
positive,yellow,2,None,k,,,,,,,,,0,5,5,5,,,,,,,,,,,,,,,,,main,k,k,1,0.647192599994014,209.04516449999937,None,None,0,,,,,,,,,,,,,,017,2022-05-12_18h05.00.332,Main,2022.1.1,61.16050841582712,
negative,blue,2,None,k,,,,,,,,,0,6,6,6,,,,,,,,,,,,,,,,,main,k,k,1,0.6989816000132123,210.6952167999989,None,None,0,,,,,,,,,,,,,,017,2022-05-12_18h05.00.332,Main,2022.1.1,61.16050841582712,
positive,red,2,None,None,,,,,,,,,0,7,7,7,,,,,,,,,,,,,,,,,main,None,None,1,1.4986247000051662,212.39259180000226,None,None,1,,,,,,,,,,,,,,017,2022-05-12_18h05.00.332,Main,2022.1.1,61.16050841582712,
positive,yellow,1,None,k,,,,,,,,,0,8,8,8,,,,,,,,,,,,,,,,,main,k,k,1,0.7329128999990644,214.89250679999532,None,None,0,,,,,,,,,,,,,,017,2022-05-12_18h05.00.332,Main,2022.1.1,61.16050841582712,
negative,red,1,None,None,,,,,,,,,0,9,9,9,,,,,,,,,,,,,,,,,main,None,None,1,1.4991456999996444,216.62586319999536,None,None,1,,,,,,,,,,,,,,017,2022-05-12_18h05.00.332,Main,2022.1.1,61.16050841582712,
positive,yellow,1,None,k,,,,,,,,,0,10,10,10,,,,,,,,,,,,,,,,,main,k,k,1,0.8149054999958025,219.12549949999084,None,None,0,,,,,,,,,,,,,,017,2022-05-12_18h05.00.332,Main,2022.1.1,61.16050841582712,
negative,yellow,1,k,None,,,,,,,,,0,11,11,11,,,,,,,,,,,,,,,,,main,None,None,1,1.5016732000076445,220.94219319999684,None,None,1,,,,,,,,,,,,,,017,2022-05-12_18h05.00.332,Main,2022.1.1,61.16050841582712,
negative,yellow,1,k,None,,,,,,,,,0,12,12,12,,,,,,,,,,,,,,,,,main,None,None,1,1.4972228999977233,223.44253039998875,None,None,1,,,,,,,,,,,,,,017,2022-05-12_18h05.00.332,Main,2022.1.1,61.16050841582712,
negative,red,2,None,None,,,,,,,,,0,13,13,13,,,,,,,,,,,,,,,,,main,None,None,1,1.4985293999925489,225.94239450000168,None,None,1,,,,,,,,,,,,,,017,2022-05-12_18h05.00.332,Main,2022.1.1,61.16050841582712,
positive,yellow,2,None,k,,,,,,,,,0,14,14,14,,,,,,,,,,,,,,,,,main,k,k,1,0.6982563999918057,228.4422632999922,None,None,0,,,,,,,,,,,,,,017,2022-05-12_18h05.00.332,Main,2022.1.1,61.16050841582712,
positive,blue,1,k,None,,,,,,,,,0,15,15,15,,,,,,,,,,,,,,,,,main,None,None,1,1.4980399000050966,230.142239599998,None,None,1,,,,,,,,,,,,,,017,2022-05-12_18h05.00.332,Main,2022.1.1,61.16050841582712,
negative,blue,1,None,k,,,,,,,,,0,16,16,16,,,,,,,,,,,,,,,,,main,k,k,1,0.699790300001041,232.64192369999364,None,None,0,,,,,,,,,,,,,,017,2022-05-12_18h05.00.332,Main,2022.1.1,61.16050841582712,
positive,blue,2,k,None,,,,,,,,,0,17,17,17,,,,,,,,,,,,,,,,,main,None,None,1,1.5014367000112543,234.34192359998997,None,None,1,,,,,,,,,,,,,,017,2022-05-12_18h05.00.332,Main,2022.1.1,61.16050841582712,
negative,blue,2,None,k,,,,,,,,,0,18,18,18,,,,,,,,,,,,,,,,,main,k,k,1,0.7024462000117637,236.84460050000052,None,None,0,,,,,,,,,,,,,,017,2022-05-12_18h05.00.332,Main,2022.1.1,61.16050841582712,
negative,blue,1,None,k,,,,,,,,,0,19,19,19,,,,,,,,,,,,,,,,,main,k,k,1,0.8104835999984061,238.5491200999968,None,None,0,,,,,,,,,,,,,,017,2022-05-12_18h05.00.332,Main,2022.1.1,61.16050841582712,
negative,blue,1,None,k,,,,,,,,,0,20,20,20,,,,,,,,,,,,,,,,,main,k,k,1,0.7150473999936366,240.35859869999695,None,None,0,,,,,,,,,,,,,,017,2022-05-12_18h05.00.332,Main,2022.1.1,61.16050841582712,
negative,blue,2,None,k,,,,,,,,,0,21,21,21,,,,,,,,,,,,,,,,,main,k,k,1,0.8330104000051506,242.0750476999965,None,None,0,,,,,,,,,,,,,,017,2022-05-12_18h05.00.332,Main,2022.1.1,61.16050841582712,
negative,red,1,None,None,,,,,,,,,0,22,22,22,,,,,,,,,,,,,,,,,main,None,k,0,0.8657722999923863,243.90875309999683,None,None,1,,,,,,,,,,,,,,017,2022-05-12_18h05.00.332,Main,2022.1.1,61.16050841582712,
positive,red,2,None,None,,,,,,,,,0,23,23,23,,,,,,,,,,,,,,,,,main,None,None,1,1.4991761999990558,246.77538059999642,None,None,1,,,,,,,,,,,,,,017,2022-05-12_18h05.00.332,Main,2022.1.1,61.16050841582712,
negative,red,2,None,None,,,,,,,,,0,24,24,24,,,,,,,,,,,,,,,,,main,None,None,1,1.5001614999928279,249.27496709999104,None,None,1,,,,,,,,,,,,,,017,2022-05-12_18h05.00.332,Main,2022.1.1,61.16050841582712,
positive,blue,2,k,None,,,,,,,,,0,25,25,25,,,,,,,,,,,,,,,,,main,None,None,1,1.496888299996499,251.77523089999158,None,None,1,,,,,,,,,,,,,,017,2022-05-12_18h05.00.332,Main,2022.1.1,61.16050841582712,
negative,yellow,1,k,None,,,,,,,,,0,26,26,26,,,,,,,,,,,,,,,,,main,None,None,1,1.4996258999890415,254.27507109999715,None,None,1,,,,,,,,,,,,,,017,2022-05-12_18h05.00.332,Main,2022.1.1,61.16050841582712,
positive,blue,2,k,None,,,,,,,,,0,27,27,27,,,,,,,,,,,,,,,,,main,None,None,1,1.5005461999971885,256.77475640000193,None,None,1,,,,,,,,,,,,,,017,2022-05-12_18h05.00.332,Main,2022.1.1,61.16050841582712,
negative,blue,2,None,k,,,,,,,,,0,28,28,28,,,,,,,,,,,,,,,,,main,k,k,1,0.8303504999930738,259.2750964000006,None,None,0,,,,,,,,,,,,,,017,2022-05-12_18h05.00.332,Main,2022.1.1,61.16050841582712,
positive,red,1,None,None,,,,,,,,,0,29,29,29,,,,,,,,,,,,,,,,,main,None,None,1,1.4995897999906447,261.1108002999972,None,None,1,,,,,,,,,,,,,,017,2022-05-12_18h05.00.332,Main,2022.1.1,61.16050841582712,
positive,blue,1,k,None,,,,,,,,,0,30,30,30,,,,,,,,,,,,,,,,,main,None,None,1,1.5003408000047784,263.6080147999892,None,None,1,,,,,,,,,,,,,,017,2022-05-12_18h05.00.332,Main,2022.1.1,61.16050841582712,
positive,yellow,1,None,k,,,,,,,,,0,31,31,31,,,,,,,,,,,,,,,,,main,k,k,1,0.6485885000001872,266.1082922999922,None,None,0,,,,,,,,,,,,,,017,2022-05-12_18h05.00.332,Main,2022.1.1,61.16050841582712,
negative,yellow,2,k,None,,,,,,,,,0,32,32,32,,,,,,,,,,,,,,,,,main,None,None,1,1.497052499995334,267.7606560999993,None,None,1,,,,,,,,,,,,,,017,2022-05-12_18h05.00.332,Main,2022.1.1,61.16050841582712,
negative,blue,1,None,k,,,,,,,,,0,33,33,33,,,,,,,,,,,,,,,,,main,k,k,1,0.7546677999926032,270.2581053999893,None,None,0,,,,,,,,,,,,,,017,2022-05-12_18h05.00.332,Main,2022.1.1,61.16050841582712,
positive,blue,1,k,None,,,,,,,,,0,34,34,34,,,,,,,,,,,,,,,,,main,None,None,1,1.493043900001794,272.0099754999974,None,None,1,,,,,,,,,,,,,,017,2022-05-12_18h05.00.332,Main,2022.1.1,61.16050841582712,
negative,yellow,1,k,None,,,,,,,,,0,35,35,35,,,,,,,,,,,,,,,,,main,None,None,1,1.4995435000018915,274.5080467999942,None,None,1,,,,,,,,,,,,,,017,2022-05-12_18h05.00.332,Main,2022.1.1,61.16050841582712,
positive,yellow,2,None,k,,,,,,,,,0,36,36,36,,,,,,,,,,,,,,,,,main,k,k,1,0.9322459000104573,277.00796000000264,None,None,0,,,,,,,,,,,,,,017,2022-05-12_18h05.00.332,Main,2022.1.1,61.16050841582712,
positive,yellow,2,None,k,,,,,,,,,0,37,37,37,,,,,,,,,,,,,,,,,main,k,k,1,0.9496386999962851,278.9409747000027,None,None,0,,,,,,,,,,,,,,017,2022-05-12_18h05.00.332,Main,2022.1.1,61.16050841582712,
negative,yellow,2,k,None,,,,,,,,,0,38,38,38,,,,,,,,,,,,,,,,,main,None,None,1,1.5012608999968506,280.89133509999374,None,None,1,,,,,,,,,,,,,,017,2022-05-12_18h05.00.332,Main,2022.1.1,61.16050841582712,
positive,yellow,1,None,k,,,,,,,,,0,39,39,39,,,,,,,,,,,,,,,,,main,k,k,1,0.8468683000101009,283.39168220000283,None,None,0,,,,,,,,,,,,,,017,2022-05-12_18h05.00.332,Main,2022.1.1,61.16050841582712,
negative,yellow,2,k,None,,,,,,,,,0,40,40,40,,,,,,,,,,,,,,,,,main,None,None,1,1.4993006000004243,285.2411104999919,None,None,1,,,,,,,,,,,,,,017,2022-05-12_18h05.00.332,Main,2022.1.1,61.16050841582712,
positive,blue,2,k,None,,,,,,,,,0,41,41,41,,,,,,,,,,,,,,,,,main,None,None,1,1.4986138000094797,287.7410449000017,None,None,1,,,,,,,,,,,,,,017,2022-05-12_18h05.00.332,Main,2022.1.1,61.16050841582712,
positive,blue,2,k,None,,,,,,,,,0,42,42,42,,,,,,,,,,,,,,,,,main,None,None,1,1.5000044000044,290.24102010000206,None,None,1,,,,,,,,,,,,,,017,2022-05-12_18h05.00.332,Main,2022.1.1,61.16050841582712,
negative,blue,2,None,k,,,,,,,,,0,43,43,43,,,,,,,,,,,,,,,,,main,k,k,1,0.6316559999977471,292.74090199999046,None,None,0,,,,,,,,,,,,,,017,2022-05-12_18h05.00.332,Main,2022.1.1,61.16050841582712,
negative,red,1,None,None,,,,,,,,,0,44,44,44,,,,,,,,,,,,,,,,,main,None,None,1,1.4987276000028942,294.37430999999924,None,None,1,,,,,,,,,,,,,,017,2022-05-12_18h05.00.332,Main,2022.1.1,61.16050841582712,
negative,yellow,1,k,None,,,,,,,,,0,45,45,45,,,,,,,,,,,,,,,,,main,None,None,1,1.5002116000105161,296.87424499999906,None,None,1,,,,,,,,,,,,,,017,2022-05-12_18h05.00.332,Main,2022.1.1,61.16050841582712,
negative,yellow,1,k,None,,,,,,,,,0,46,46,46,,,,,,,,,,,,,,,,,main,None,None,1,1.4975590999965789,299.3742380999902,None,None,1,,,,,,,,,,,,,,017,2022-05-12_18h05.00.332,Main,2022.1.1,61.16050841582712,
positive,red,1,None,None,,,,,,,,,0,47,47,47,,,,,,,,,,,,,,,,,main,None,None,1,1.4992536999925505,301.8800116999919,None,None,1,,,,,,,,,,,,,,017,2022-05-12_18h05.00.332,Main,2022.1.1,61.16050841582712,
positive,yellow,1,None,k,,,,,,,,,0,48,48,48,,,,,,,,,,,,,,,,,main,k,k,1,0.8162234999908833,304.37444099999266,None,None,0,,,,,,,,,,,,,,017,2022-05-12_18h05.00.332,Main,2022.1.1,61.16050841582712,
negative,blue,1,None,k,,,,,,,,,0,49,49,49,,,,,,,,,,,,,,,,,main,k,k,1,0.7988815999997314,306.1907336000004,None,None,0,,,,,,,,,,,,,,017,2022-05-12_18h05.00.332,Main,2022.1.1,61.16050841582712,
positive,yellow,2,None,k,,,,,,,,,0,50,50,50,,,,,,,,,,,,,,,,,main,k,k,1,0.799466600001324,307.99061439999787,None,None,0,,,,,,,,,,,,,,017,2022-05-12_18h05.00.332,Main,2022.1.1,61.16050841582712,
negative,blue,1,None,k,,,,,,,,,0,51,51,51,,,,,,,,,,,,,,,,,main,k,k,1,0.7321032000036212,309.7909426999977,None,None,0,,,,,,,,,,,,,,017,2022-05-12_18h05.00.332,Main,2022.1.1,61.16050841582712,
positive,red,2,None,None,,,,,,,,,0,52,52,52,,,,,,,,,,,,,,,,,main,None,None,1,1.499739299993962,311.5239240999945,None,None,1,,,,,,,,,,,,,,017,2022-05-12_18h05.00.332,Main,2022.1.1,61.16050841582712,
positive,yellow,2,None,k,,,,,,,,,0,53,53,53,,,,,,,,,,,,,,,,,main,k,k,1,0.6482411000033608,314.023809899998,None,None,0,,,,,,,,,,,,,,017,2022-05-12_18h05.00.332,Main,2022.1.1,61.16050841582712,
negative,red,2,None,None,,,,,,,,,0,54,54,54,,,,,,,,,,,,,,,,,main,None,None,1,1.4998576000070898,315.67380520000006,None,None,1,,,,,,,,,,,,,,017,2022-05-12_18h05.00.332,Main,2022.1.1,61.16050841582712,
positive,yellow,1,None,k,,,,,,,,,0,55,55,55,,,,,,,,,,,,,,,,,main,k,k,1,0.7990589999972144,318.17377249999845,None,None,0,,,,,,,,,,,,,,017,2022-05-12_18h05.00.332,Main,2022.1.1,61.16050841582712,
negative,blue,2,None,k,,,,,,,,,0,56,56,56,,,,,,,,,,,,,,,,,main,k,k,1,0.7317808999941917,319.97347099999024,None,None,0,,,,,,,,,,,,,,017,2022-05-12_18h05.00.332,Main,2022.1.1,61.16050841582712,
positive,blue,1,k,None,,,,,,,,,0,57,57,57,,,,,,,,,,,,,,,,,main,None,None,1,1.5014129999908619,321.70714129999396,None,None,1,,,,,,,,,,,,,,017,2022-05-12_18h05.00.332,Main,2022.1.1,61.16050841582712,
positive,blue,1,k,None,,,,,,,,,0,58,58,58,,,,,,,,,,,,,,,,,main,None,None,1,1.4965438000072027,324.2070912999916,None,None,1,,,,,,,,,,,,,,017,2022-05-12_18h05.00.332,Main,2022.1.1,61.16050841582712,
negative,yellow,2,k,None,,,,,,,,,0,59,59,59,,,,,,,,,,,,,,,,,main,None,None,1,1.5002580000000307,326.70701459998963,None,None,1,,,,,,,,,,,,,,017,2022-05-12_18h05.00.332,Main,2022.1.1,61.16050841582712,
positive,red,2,None,None,,,,,,,,,0,60,60,60,,,,,,,,,,,,,,,,,main,None,None,1,1.4984071999933803,329.2068405000027,None,None,1,,,,,,,,,,,,,,017,2022-05-12_18h05.00.332,Main,2022.1.1,61.16050841582712,
negative,yellow,1,k,None,,,,,,,,,0,61,61,61,,,,,,,,,,,,,,,,,main,None,None,1,1.498312600000645,331.70693869999377,None,None,1,,,,,,,,,,,,,,017,2022-05-12_18h05.00.332,Main,2022.1.1,61.16050841582712,
negative,red,1,None,None,,,,,,,,,0,62,62,62,,,,,,,,,,,,,,,,,main,None,None,1,1.4986422999936622,334.2064742999937,None,None,1,,,,,,,,,,,,,,017,2022-05-12_18h05.00.332,Main,2022.1.1,61.16050841582712,
negative,blue,1,None,k,,,,,,,,,0,63,63,63,,,,,,,,,,,,,,,,,main,k,k,1,0.815562100004172,336.7092008999898,None,None,0,,,,,,,,,,,,,,017,2022-05-12_18h05.00.332,Main,2022.1.1,61.16050841582712,
positive,blue,2,k,None,,,,,,,,,0,64,64,64,,,,,,,,,,,,,,,,,main,None,None,1,1.4993026000011014,338.525945100002,None,None,1,,,,,,,,,,,,,,017,2022-05-12_18h05.00.332,Main,2022.1.1,61.16050841582712,
negative,yellow,2,k,None,,,,,,,,,0,65,65,65,,,,,,,,,,,,,,,,,main,None,None,1,1.4983543999987887,341.0290562000009,None,None,1,,,,,,,,,,,,,,017,2022-05-12_18h05.00.332,Main,2022.1.1,61.16050841582712,
positive,yellow,2,None,k,,,,,,,,,0,66,66,66,,,,,,,,,,,,,,,,,main,k,k,1,0.6995408999937354,343.52324470000167,None,None,0,,,,,,,,,,,,,,017,2022-05-12_18h05.00.332,Main,2022.1.1,61.16050841582712,
positive,yellow,2,None,k,,,,,,,,,0,67,67,67,,,,,,,,,,,,,,,,,main,k,k,1,0.8825624000019161,345.2255937000009,None,None,0,,,,,,,,,,,,,,017,2022-05-12_18h05.00.332,Main,2022.1.1,61.16050841582712,
positive,red,1,None,None,,,,,,,,,0,68,68,68,,,,,,,,,,,,,,,,,main,None,None,1,1.4991489999956684,347.1064531000011,None,None,1,,,,,,,,,,,,,,017,2022-05-12_18h05.00.332,Main,2022.1.1,61.16050841582712,
positive,yellow,1,None,k,,,,,,,,,0,69,69,69,,,,,,,,,,,,,,,,,main,k,k,1,0.9322468000027584,349.60645389999263,None,None,0,,,,,,,,,,,,,,017,2022-05-12_18h05.00.332,Main,2022.1.1,61.16050841582712,
negative,yellow,2,k,None,,,,,,,,,0,70,70,70,,,,,,,,,,,,,,,,,main,None,None,1,1.5002803999959724,351.5397856999916,None,None,1,,,,,,,,,,,,,,017,2022-05-12_18h05.00.332,Main,2022.1.1,61.16050841582712,
positive,yellow,1,None,k,,,,,,,,,0,71,71,71,,,,,,,,,,,,,,,,,main,k,k,1,0.6667955999873811,354.03958050000074,None,None,0,,,,,,,,,,,,,,017,2022-05-12_18h05.00.332,Main,2022.1.1,61.16050841582712,
negative,blue,1,None,k,,,,,,,,,0,72,72,72,,,,,,,,,,,,,,,,,main,k,k,1,0.8300051999976858,355.7064248999959,None,None,0,,,,,,,,,,,,,,017,2022-05-12_18h05.00.332,Main,2022.1.1,61.16050841582712,
negative,red,2,None,None,,,,,,,,,0,73,73,73,,,,,,,,,,,,,,,,,main,None,None,1,1.4991302999987965,357.5421992999909,None,None,1,,,,,,,,,,,,,,017,2022-05-12_18h05.00.332,Main,2022.1.1,61.16050841582712,
positive,blue,2,k,None,,,,,,,,,0,74,74,74,,,,,,,,,,,,,,,,,main,None,None,1,1.4986646000033943,360.0399464999937,None,None,1,,,,,,,,,,,,,,017,2022-05-12_18h05.00.332,Main,2022.1.1,61.16050841582712,
negative,blue,2,None,k,,,,,,,,,0,75,75,75,,,,,,,,,,,,,,,,,main,k,k,1,0.7668192000128329,362.5420135000022,None,None,0,,,,,,,,,,,,,,017,2022-05-12_18h05.00.332,Main,2022.1.1,61.16050841582712,
negative,blue,2,None,k,,,,,,,,,0,76,76,76,,,,,,,,,,,,,,,,,main,k,k,1,0.697319900005823,364.3062260000006,None,None,0,,,,,,,,,,,,,,017,2022-05-12_18h05.00.332,Main,2022.1.1,61.16050841582712,
negative,yellow,1,k,None,,,,,,,,,0,77,77,77,,,,,,,,,,,,,,,,,main,None,None,1,1.4989108000008855,366.0060756000021,None,None,1,,,,,,,,,,,,,,017,2022-05-12_18h05.00.332,Main,2022.1.1,61.16050841582712,
positive,blue,1,k,None,,,,,,,,,0,78,78,78,,,,,,,,,,,,,,,,,main,None,None,1,1.498740800001542,368.50607989999116,None,None,1,,,,,,,,,,,,,,017,2022-05-12_18h05.00.332,Main,2022.1.1,61.16050841582712,
positive,blue,1,k,None,,,,,,,,,0,79,79,79,,,,,,,,,,,,,,,,,main,None,None,1,1.501790299997083,371.0059750999935,None,None,1,,,,,,,,,,,,,,017,2022-05-12_18h05.00.332,Main,2022.1.1,61.16050841582712,
positive,red,2,None,None,,,,,,,,,0,80,80,80,,,,,,,,,,,,,,,,,main,None,None,1,1.496567900001537,373.5060006999993,None,None,1,,,,,,,,,,,,,,017,2022-05-12_18h05.00.332,Main,2022.1.1,61.16050841582712,
positive,yellow,2,None,k,,,,,,,,,0,81,81,81,,,,,,,,,,,,,,,,,main,k,k,1,0.7995593999949051,376.0057025999995,None,None,0,,,,,,,,,,,,,,017,2022-05-12_18h05.00.332,Main,2022.1.1,61.16050841582712,
positive,blue,1,k,None,,,,,,,,,0,82,82,82,,,,,,,,,,,,,,,,,main,None,None,1,1.498314999989816,377.80603349999,None,None,1,,,,,,,,,,,,,,017,2022-05-12_18h05.00.332,Main,2022.1.1,61.16050841582712,
negative,yellow,2,k,None,,,,,,,,,0,83,83,83,,,,,,,,,,,,,,,,,main,None,None,1,1.4990725999959977,380.30584829999134,None,None,1,,,,,,,,,,,,,,017,2022-05-12_18h05.00.332,Main,2022.1.1,61.16050841582712,
positive,blue,2,k,None,,,,,,,,,0,84,84,84,,,,,,,,,,,,,,,,,main,None,None,1,1.5017786999960663,382.80573469999945,None,None,1,,,,,,,,,,,,,,017,2022-05-12_18h05.00.332,Main,2022.1.1,61.16050841582712,
positive,yellow,1,None,k,,,,,,,,,0,85,85,85,,,,,,,,,,,,,,,,,main,k,k,1,1.0136403999931645,385.3082674999896,None,None,0,,,,,,,,,,,,,,017,2022-05-12_18h05.00.332,Main,2022.1.1,61.16050841582712,
positive,blue,2,k,None,,,,,,,,,0,86,86,86,,,,,,,,,,,,,,,,,main,None,None,1,1.4982059999892954,387.3222805999976,None,None,1,,,,,,,,,,,,,,017,2022-05-12_18h05.00.332,Main,2022.1.1,61.16050841582712,
positive,blue,1,k,None,,,,,,,,,0,87,87,87,,,,,,,,,,,,,,,,,main,None,None,1,1.4989697999990312,389.8221477999905,None,None,1,,,,,,,,,,,,,,017,2022-05-12_18h05.00.332,Main,2022.1.1,61.16050841582712,
negative,yellow,2,k,None,,,,,,,,,0,88,88,88,,,,,,,,,,,,,,,,,main,None,None,1,1.5003725999995368,392.3222970999923,None,None,1,,,,,,,,,,,,,,017,2022-05-12_18h05.00.332,Main,2022.1.1,61.16050841582712,
negative,blue,2,None,k,,,,,,,,,0,89,89,89,,,,,,,,,,,,,,,,,main,k,k,1,0.8304895000037504,394.82215700000233,None,None,0,,,,,,,,,,,,,,017,2022-05-12_18h05.00.332,Main,2022.1.1,61.16050841582712,
positive,yellow,2,None,k,,,,,,,,,0,90,90,90,,,,,,,,,,,,,,,,,main,k,k,1,0.8333496999985073,396.655511799996,None,None,0,,,,,,,,,,,,,,017,2022-05-12_18h05.00.332,Main,2022.1.1,61.16050841582712,
negative,yellow,1,k,None,,,,,,,,,0,91,91,91,,,,,,,,,,,,,,,,,main,None,None,1,1.4976550999999745,398.4887289999897,None,None,1,,,,,,,,,,,,,,017,2022-05-12_18h05.00.332,Main,2022.1.1,61.16050841582712,
negative,red,2,None,None,,,,,,,,,0,92,92,92,,,,,,,,,,,,,,,,,main,None,None,1,1.5044690999930026,400.9887192000024,None,None,1,,,,,,,,,,,,,,017,2022-05-12_18h05.00.332,Main,2022.1.1,61.16050841582712,
negative,blue,2,None,k,,,,,,,,,0,93,93,93,,,,,,,,,,,,,,,,,main,k,k,1,0.7605730999930529,403.49228059999587,None,None,0,,,,,,,,,,,,,,017,2022-05-12_18h05.00.332,Main,2022.1.1,61.16050841582712,
negative,blue,1,None,k,,,,,,,,,0,94,94,94,,,,,,,,,,,,,,,,,main,k,k,1,1.2988702000002377,405.2552525999927,None,None,0,,,,,,,,,,,,,,017,2022-05-12_18h05.00.332,Main,2022.1.1,61.16050841582712,
negative,blue,1,None,k,,,,,,,,,0,95,95,95,,,,,,,,,,,,,,,,,main,k,k,1,0.6821925000112969,407.5552721999993,None,None,0,,,,,,,,,,,,,,017,2022-05-12_18h05.00.332,Main,2022.1.1,61.16050841582712,
negative,red,1,None,None,,,,,,,,,0,96,96,96,,,,,,,,,,,,,,,,,main,None,None,1,1.5008597999985795,409.23852169999736,None,None,1,,,,,,,,,,,,,,017,2022-05-12_18h05.00.332,Main,2022.1.1,61.16050841582712,
positive,yellow,1,None,k,,,,,,,,,0,97,97,97,,,,,,,,,,,,,,,,,main,k,k,1,0.6139259999908973,411.73856529999466,None,None,0,,,,,,,,,,,,,,017,2022-05-12_18h05.00.332,Main,2022.1.1,61.16050841582712,
negative,yellow,1,k,None,,,,,,,,,0,98,98,98,,,,,,,,,,,,,,,,,main,None,None,1,1.5008506000012858,413.3551623999956,None,None,1,,,,,,,,,,,,,,017,2022-05-12_18h05.00.332,Main,2022.1.1,61.16050841582712,
positive,red,1,None,None,,,,,,,,,0,99,99,99,,,,,,,,,,,,,,,,,main,None,None,1,1.4990724000090268,415.8551168999984,None,None,1,,,,,,,,,,,,,,017,2022-05-12_18h05.00.332,Main,2022.1.1,61.16050841582712,
positive,blue,1,k,None,,,,,,,,,0,100,100,100,,,,,,,,,,,,,,,,,main,None,k,0,1.0135758999967948,418.35516619999544,None,None,1,,,,,,,,,,,,,,017,2022-05-12_18h05.00.332,Main,2022.1.1,61.16050841582712,
negative,yellow,1,k,None,,,,,,,,,0,101,101,101,,,,,,,,,,,,,,,,,main,None,None,1,1.5011858999932883,421.37161409998953,None,None,1,,,,,,,,,,,,,,017,2022-05-12_18h05.00.332,Main,2022.1.1,61.16050841582712,
negative,blue,2,None,k,,,,,,,,,0,102,102,102,,,,,,,,,,,,,,,,,main,k,k,1,0.7322934000112582,423.8716770000028,None,None,0,,,,,,,,,,,,,,017,2022-05-12_18h05.00.332,Main,2022.1.1,61.16050841582712,
negative,yellow,2,k,None,,,,,,,,,0,103,103,103,,,,,,,,,,,,,,,,,main,None,None,1,1.4989771999971708,425.60486639999726,None,None,1,,,,,,,,,,,,,,017,2022-05-12_18h05.00.332,Main,2022.1.1,61.16050841582712,
positive,yellow,2,None,k,,,,,,,,,0,104,104,104,,,,,,,,,,,,,,,,,main,k,k,1,0.6833802000037394,428.10489279999456,None,None,0,,,,,,,,,,,,,,017,2022-05-12_18h05.00.332,Main,2022.1.1,61.16050841582712,
positive,blue,1,k,None,,,,,,,,,0,105,105,105,,,,,,,,,,,,,,,,,main,None,None,1,1.4978187999950023,429.78816789999837,None,None,1,,,,,,,,,,,,,,017,2022-05-12_18h05.00.332,Main,2022.1.1,61.16050841582712,
positive,blue,2,k,None,,,,,,,,,0,106,106,106,,,,,,,,,,,,,,,,,main,None,None,1,1.4985638999933144,432.28786109999055,None,None,1,,,,,,,,,,,,,,017,2022-05-12_18h05.00.332,Main,2022.1.1,61.16050841582712,
negative,blue,1,None,k,,,,,,,,,0,107,107,107,,,,,,,,,,,,,,,,,main,k,k,1,0.7158959000080358,434.7881789999956,None,None,0,,,,,,,,,,,,,,017,2022-05-12_18h05.00.332,Main,2022.1.1,61.16050841582712,
positive,yellow,2,None,k,,,,,,,,,0,108,108,108,,,,,,,,,,,,,,,,,main,k,k,1,0.7322629000118468,436.50479169999016,None,None,0,,,,,,,,,,,,,,017,2022-05-12_18h05.00.332,Main,2022.1.1,61.16050841582712,
negative,yellow,1,k,None,,,,,,,,,0,109,109,109,,,,,,,,,,,,,,,,,main,None,None,1,1.499519999997574,438.23796810000204,None,None,1,,,,,,,,,,,,,,017,2022-05-12_18h05.00.332,Main,2022.1.1,61.16050841582712,
negative,blue,2,None,k,,,,,,,,,0,110,110,110,,,,,,,,,,,,,,,,,main,k,k,1,0.7317855000001146,440.7381406999921,None,None,0,,,,,,,,,,,,,,017,2022-05-12_18h05.00.332,Main,2022.1.1,61.16050841582712,
positive,blue,2,k,None,,,,,,,,,0,111,111,111,,,,,,,,,,,,,,,,,main,None,None,1,1.4988489000097616,442.4713505999971,None,None,1,,,,,,,,,,,,,,017,2022-05-12_18h05.00.332,Main,2022.1.1,61.16050841582712,
negative,blue,1,None,k,,,,,,,,,0,112,112,112,,,,,,,,,,,,,,,,,main,k,k,1,0.7321301000047242,444.97118419999606,None,None,0,,,,,,,,,,,,,,017,2022-05-12_18h05.00.332,Main,2022.1.1,61.16050841582712,
positive,yellow,1,None,k,,,,,,,,,0,113,113,113,,,,,,,,,,,,,,,,,main,k,k,1,0.8316924999962794,446.7045810999989,None,None,0,,,,,,,,,,,,,,017,2022-05-12_18h05.00.332,Main,2022.1.1,61.16050841582712,
negative,red,1,None,None,,,,,,,,,0,114,114,114,,,,,,,,,,,,,,,,,main,None,None,1,1.499157500002184,448.53748839999025,None,None,1,,,,,,,,,,,,,,017,2022-05-12_18h05.00.332,Main,2022.1.1,61.16050841582712,
positive,red,1,None,None,,,,,,,,,0,115,115,115,,,,,,,,,,,,,,,,,main,None,None,1,1.4992770999961067,451.03785219999554,None,None,1,,,,,,,,,,,,,,017,2022-05-12_18h05.00.332,Main,2022.1.1,61.16050841582712,
negative,red,2,None,None,,,,,,,,,0,116,116,116,,,,,,,,,,,,,,,,,main,None,None,1,1.4999512000067625,453.53765299999213,None,None,1,,,,,,,,,,,,,,017,2022-05-12_18h05.00.332,Main,2022.1.1,61.16050841582712,
negative,yellow,2,k,None,,,,,,,,,0,117,117,117,,,,,,,,,,,,,,,,,main,None,None,1,1.4976757999975234,456.03757419998874,None,None,1,,,,,,,,,,,,,,017,2022-05-12_18h05.00.332,Main,2022.1.1,61.16050841582712,
positive,yellow,1,None,k,,,,,,,,,0,118,118,118,,,,,,,,,,,,,,,,,main,k,k,1,0.7713951000041561,458.5375781999901,None,None,0,,,,,,,,,,,,,,017,2022-05-12_18h05.00.332,Main,2022.1.1,61.16050841582712,
positive,red,2,None,None,,,,,,,,,0,119,119,119,,,,,,,,,,,,,,,,,main,None,None,1,1.4936050999967847,460.3130560999998,None,None,1,,,,,,,,,,,,,,017,2022-05-12_18h05.00.332,Main,2022.1.1,61.16050841582712,
positive,blue,2,k,None,,,,,,,,,0,120,120,120,,,,,,,,,,,,,,,,,main,None,None,1,1.501599900002475,462.8038952999923,None,None,1,,,,,,,,,,,,,,017,2022-05-12_18h05.00.332,Main,2022.1.1,61.16050841582712,
negative,red,1,None,None,,,,,,,,,0,121,121,121,,,,,,,,,,,,,,,,,main,None,None,1,1.4980469999864,465.30418839999766,None,None,1,,,,,,,,,,,,,,017,2022-05-12_18h05.00.332,Main,2022.1.1,61.16050841582712,
positive,yellow,2,None,k,,,,,,,,,0,122,122,122,,,,,,,,,,,,,,,,,main,k,k,1,0.7311391999974148,467.8040442999918,None,None,0,,,,,,,,,,,,,,017,2022-05-12_18h05.00.332,Main,2022.1.1,61.16050841582712,
negative,red,2,None,None,,,,,,,,,0,123,123,123,,,,,,,,,,,,,,,,,main,None,None,1,1.498592500007362,469.5374060999893,None,None,1,,,,,,,,,,,,,,017,2022-05-12_18h05.00.332,Main,2022.1.1,61.16050841582712,
negative,yellow,2,k,None,,,,,,,,,0,124,124,124,,,,,,,,,,,,,,,,,main,None,None,1,1.4990012000052957,472.0372973999911,None,None,1,,,,,,,,,,,,,,017,2022-05-12_18h05.00.332,Main,2022.1.1,61.16050841582712,
positive,red,1,None,None,,,,,,,,,0,125,125,125,,,,,,,,,,,,,,,,,main,None,None,1,1.499609500009683,474.53719940000155,None,None,1,,,,,,,,,,,,,,017,2022-05-12_18h05.00.332,Main,2022.1.1,61.16050841582712,
negative,blue,2,None,k,,,,,,,,,0,126,126,126,,,,,,,,,,,,,,,,,main,k,k,1,0.7322884000022896,477.03717539999343,None,None,0,,,,,,,,,,,,,,017,2022-05-12_18h05.00.332,Main,2022.1.1,61.16050841582712,
negative,blue,1,None,k,,,,,,,,,0,127,127,127,,,,,,,,,,,,,,,,,main,k,k,1,0.6658882000047015,478.77052679999906,None,None,0,,,,,,,,,,,,,,017,2022-05-12_18h05.00.332,Main,2022.1.1,61.16050841582712,
negative,yellow,1,k,None,,,,,,,,,0,128,128,128,,,,,,,,,,,,,,,,,main,None,None,1,1.4989427999971667,480.437105399993,None,None,1,,,,,,,,,,,,,,017,2022-05-12_18h05.00.332,Main,2022.1.1,61.16050841582712,
negative,yellow,1,k,None,,,,,,,,,0,129,129,129,,,,,,,,,,,,,,,,,main,None,None,1,1.4994351000059396,482.9370459999918,None,None,1,,,,,,,,,,,,,,017,2022-05-12_18h05.00.332,Main,2022.1.1,61.16050841582712,
positive,blue,1,k,None,,,,,,,,,0,130,130,130,,,,,,,,,,,,,,,,,main,None,None,1,1.5022592000022996,485.4367010999995,None,None,1,,,,,,,,,,,,,,017,2022-05-12_18h05.00.332,Main,2022.1.1,61.16050841582712,
negative,blue,1,None,k,,,,,,,,,0,131,131,131,,,,,,,,,,,,,,,,,main,k,k,1,0.6788449000014225,487.937127600002,None,None,0,,,,,,,,,,,,,,017,2022-05-12_18h05.00.332,Main,2022.1.1,61.16050841582712,
negative,blue,2,None,k,,,,,,,,,0,132,132,132,,,,,,,,,,,,,,,,,main,k,k,1,0.7990737999934936,489.6203666999936,None,None,0,,,,,,,,,,,,,,017,2022-05-12_18h05.00.332,Main,2022.1.1,61.16050841582712,
positive,blue,2,k,None,,,,,,,,,0,133,133,133,,,,,,,,,,,,,,,,,main,None,None,1,1.499640800000634,491.42021569999633,None,None,1,,,,,,,,,,,,,,017,2022-05-12_18h05.00.332,Main,2022.1.1,61.16050841582712,
positive,red,2,None,None,,,,,,,,,0,134,134,134,,,,,,,,,,,,,,,,,main,None,None,1,1.4989003000082448,493.92010419999133,None,None,1,,,,,,,,,,,,,,017,2022-05-12_18h05.00.332,Main,2022.1.1,61.16050841582712,
negative,yellow,2,k,None,,,,,,,,,0,135,135,135,,,,,,,,,,,,,,,,,main,None,None,1,1.49884369999927,496.42018339999777,None,None,1,,,,,,,,,,,,,,017,2022-05-12_18h05.00.332,Main,2022.1.1,61.16050841582712,
positive,yellow,2,None,k,,,,,,,,,0,136,136,136,,,,,,,,,,,,,,,,,main,k,k,1,0.7982882000069367,498.9200192999997,None,None,0,,,,,,,,,,,,,,017,2022-05-12_18h05.00.332,Main,2022.1.1,61.16050841582712,
positive,blue,1,k,None,,,,,,,,,0,137,137,137,,,,,,,,,,,,,,,,,main,None,None,1,1.4998339000012493,500.7200612000015,None,None,1,,,,,,,,,,,,,,017,2022-05-12_18h05.00.332,Main,2022.1.1,61.16050841582712,
positive,yellow,1,None,k,,,,,,,,,0,138,138,138,,,,,,,,,,,,,,,,,main,k,k,1,0.8981057000055443,503.2203005999909,None,None,0,,,,,,,,,,,,,,017,2022-05-12_18h05.00.332,Main,2022.1.1,61.16050841582712,
positive,yellow,1,None,k,,,,,,,,,0,139,139,139,,,,,,,,,,,,,,,,,main,k,k,1,0.8004700000019511,505.1199467999977,None,None,0,,,,,,,,,,,,,,017,2022-05-12_18h05.00.332,Main,2022.1.1,61.16050841582712,
positive,yellow,1,None,k,,,,,,,,,0,140,140,140,,,,,,,,,,,,,,,,,main,k,k,1,0.8967799000092782,506.91995809999935,None,None,0,,,,,,,,,,,,,,017,2022-05-12_18h05.00.332,Main,2022.1.1,61.16050841582712,
positive,blue,1,k,None,,,,,,,,,0,141,141,141,,,,,,,,,,,,,,,,,main,None,None,1,1.499569400009932,508.8198740999942,None,None,1,,,,,,,,,,,,,,017,2022-05-12_18h05.00.332,Main,2022.1.1,61.16050841582712,
positive,blue,2,k,None,,,,,,,,,0,142,142,142,,,,,,,,,,,,,,,,,main,None,None,1,1.5007823000050848,511.31956209999043,None,None,1,,,,,,,,,,,,,,017,2022-05-12_18h05.00.332,Main,2022.1.1,61.16050841582712,
positive,yellow,2,None,k,,,,,,,,,0,143,143,143,,,,,,,,,,,,,,,,,main,k,k,1,0.8967956000124104,513.8198644999939,None,None,0,,,,,,,,,,,,,,017,2022-05-12_18h05.00.332,Main,2022.1.1,61.16050841582712,
negative,yellow,2,k,None,,,,,,,,,0,144,144,144,,,,,,,,,,,,,,,,,main,None,None,1,1.499368399992818,515.7197768999904,None,None,1,,,,,,,,,,,,,,017,2022-05-12_18h05.00.332,Main,2022.1.1,61.16050841582712,
negative,blue,2,None,k,,,,,,,,,0,145,145,145,,,,,,,,,,,,,,,,,main,k,k,1,1.2483455000037793,518.2196188999951,None,None,0,,,,,,,,,,,,,,017,2022-05-12_18h05.00.332,Main,2022.1.1,61.16050841582712,
negative,red,1,None,None,,,,,,,,,0,146,146,146,,,,,,,,,,,,,,,,,main,None,None,1,1.4991165000101319,520.4696228999965,None,None,1,,,,,,,,,,,,,,017,2022-05-12_18h05.00.332,Main,2022.1.1,61.16050841582712,
positive,blue,1,k,None,,,,,,,,,0,147,147,147,,,,,,,,,,,,,,,,,main,None,None,1,1.4989456000039354,522.9695189999911,None,None,1,,,,,,,,,,,,,,017,2022-05-12_18h05.00.332,Main,2022.1.1,61.16050841582712,
positive,yellow,1,None,k,,,,,,,,,0,148,148,148,,,,,,,,,,,,,,,,,main,k,k,1,0.5826034000056097,525.4695241000009,None,None,0,,,,,,,,,,,,,,017,2022-05-12_18h05.00.332,Main,2022.1.1,61.16050841582712,
negative,red,2,None,None,,,,,,,,,0,149,149,149,,,,,,,,,,,,,,,,,main,None,None,1,1.4992659999988973,527.052861499993,None,None,1,,,,,,,,,,,,,,017,2022-05-12_18h05.00.332,Main,2022.1.1,61.16050841582712,
negative,blue,1,None,k,,,,,,,,,0,150,150,150,,,,,,,,,,,,,,,,,main,k,k,1,0.5812925999925938,529.5525120999955,None,None,0,,,,,,,,,,,,,,017,2022-05-12_18h05.00.332,Main,2022.1.1,61.16050841582712,
negative,yellow,2,k,None,,,,,,,,,0,151,151,151,,,,,,,,,,,,,,,,,main,None,None,1,1.50146240000322,531.135827399994,None,None,1,,,,,,,,,,,,,,017,2022-05-12_18h05.00.332,Main,2022.1.1,61.16050841582712,
negative,blue,2,None,k,,,,,,,,,0,152,152,152,,,,,,,,,,,,,,,,,main,k,k,1,0.5804318000009516,533.6384969999926,None,None,0,,,,,,,,,,,,,,017,2022-05-12_18h05.00.332,Main,2022.1.1,61.16050841582712,
negative,yellow,1,k,None,,,,,,,,,0,153,153,153,,,,,,,,,,,,,,,,,main,None,None,1,1.4986764000059338,535.221824399996,None,None,1,,,,,,,,,,,,,,017,2022-05-12_18h05.00.332,Main,2022.1.1,61.16050841582712,
negative,blue,1,None,k,,,,,,,,,0,154,154,154,,,,,,,,,,,,,,,,,main,k,k,1,0.7161428999970667,537.7246869999944,None,None,0,,,,,,,,,,,,,,017,2022-05-12_18h05.00.332,Main,2022.1.1,61.16050841582712,
positive,yellow,2,None,k,,,,,,,,,0,155,155,155,,,,,,,,,,,,,,,,,main,k,k,1,0.8153561000071932,539.4358466999984,None,None,0,,,,,,,,,,,,,,017,2022-05-12_18h05.00.332,Main,2022.1.1,61.16050841582712,
positive,red,2,None,None,,,,,,,,,0,156,156,156,,,,,,,,,,,,,,,,,main,None,None,1,1.49951520000468,541.2525236999936,None,None,1,,,,,,,,,,,,,,017,2022-05-12_18h05.00.332,Main,2022.1.1,61.16050841582712,
positive,red,1,None,None,,,,,,,,,0,157,157,157,,,,,,,,,,,,,,,,,main,None,None,1,1.5005057000089437,543.7521657999896,None,None,1,,,,,,,,,,,,,,017,2022-05-12_18h05.00.332,Main,2022.1.1,61.16050841582712,
positive,blue,2,k,None,,,,,,,,,0,158,158,158,,,,,,,,,,,,,,,,,main,None,None,1,1.4990315000031842,546.2525203999976,None,None,1,,,,,,,,,,,,,,017,2022-05-12_18h05.00.332,Main,2022.1.1,61.16050841582712,
negative,yellow,1,k,None,,,,,,,,,0,159,159,159,,,,,,,,,,,,,,,,,main,None,None,1,1.4965288999956101,548.7548752000002,None,None,1,,,,,,,,,,,,,,017,2022-05-12_18h05.00.332,Main,2022.1.1,61.16050841582712,
negative,red,2,None,None,,,,,,,,,0,160,160,160,,,,,,,,,,,,,,,,,main,None,None,1,1.5001866999955382,551.2523704999912,None,None,1,,,,,,,,,,,,,,017,2022-05-12_18h05.00.332,Main,2022.1.1,61.16050841582712,
negative,blue,1,None,k,,,,,,,,,0,161,161,161,,,,,,,,,,,,,,,,,main,k,k,1,0.5650475999864284,553.7522753999947,None,None,0,,,,,,,,,,,,,,017,2022-05-12_18h05.00.332,Main,2022.1.1,61.16050841582712,
negative,blue,1,None,k,,,,,,,,,0,162,162,162,,,,,,,,,,,,,,,,,main,k,k,1,0.8322174000059022,555.3189189999975,None,None,0,,,,,,,,,,,,,,017,2022-05-12_18h05.00.332,Main,2022.1.1,61.16050841582712,
negative,yellow,1,k,None,,,,,,,,,0,163,163,163,,,,,,,,,,,,,,,,,main,None,None,1,1.4982971999997972,557.1521633999946,None,None,1,,,,,,,,,,,,,,017,2022-05-12_18h05.00.332,Main,2022.1.1,61.16050841582712,
negative,yellow,1,k,None,,,,,,,,,0,164,164,164,,,,,,,,,,,,,,,,,main,None,None,1,1.4989998000091873,559.6521959999955,None,None,1,,,,,,,,,,,,,,017,2022-05-12_18h05.00.332,Main,2022.1.1,61.16050841582712,
positive,yellow,1,None,k,,,,,,,,,0,165,165,165,,,,,,,,,,,,,,,,,main,k,k,1,0.5972346999915317,562.1522198000021,None,None,0,,,,,,,,,,,,,,017,2022-05-12_18h05.00.332,Main,2022.1.1,61.16050841582712,
negative,red,1,None,None,,,,,,,,,0,166,166,166,,,,,,,,,,,,,,,,,main,None,None,1,1.4989327999937814,563.7544756999996,None,None,1,,,,,,,,,,,,,,017,2022-05-12_18h05.00.332,Main,2022.1.1,61.16050841582712,
negative,yellow,2,k,None,,,,,,,,,0,167,167,167,,,,,,,,,,,,,,,,,main,None,None,1,1.499312900006771,566.2520263999904,None,None,1,,,,,,,,,,,,,,017,2022-05-12_18h05.00.332,Main,2022.1.1,61.16050841582712,
positive,blue,2,k,None,,,,,,,,,0,168,168,168,,,,,,,,,,,,,,,,,main,None,None,1,1.498632799994084,568.7519136999908,None,None,1,,,,,,,,,,,,,,017,2022-05-12_18h05.00.332,Main,2022.1.1,61.16050841582712,
positive,red,2,None,None,,,,,,,,,0,169,169,169,,,,,,,,,,,,,,,,,main,None,None,1,1.4993124000029638,571.251969399993,None,None,1,,,,,,,,,,,,,,017,2022-05-12_18h05.00.332,Main,2022.1.1,61.16050841582712,
positive,red,1,None,None,,,,,,,,,0,170,170,170,,,,,,,,,,,,,,,,,main,None,None,1,1.4991181000077631,573.7518063000025,None,None,1,,,,,,,,,,,,,,017,2022-05-12_18h05.00.332,Main,2022.1.1,61.16050841582712,
negative,blue,2,None,k,,,,,,,,,0,171,171,171,,,,,,,,,,,,,,,,,main,k,k,1,0.7655269999959273,576.2517857999919,None,None,0,,,,,,,,,,,,,,017,2022-05-12_18h05.00.332,Main,2022.1.1,61.16050841582712,
positive,blue,2,k,None,,,,,,,,,0,172,172,172,,,,,,,,,,,,,,,,,main,None,None,1,1.4994255999918096,578.018444100002,None,None,1,,,,,,,,,,,,,,017,2022-05-12_18h05.00.332,Main,2022.1.1,61.16050841582712,
negative,yellow,2,k,None,,,,,,,,,0,173,173,173,,,,,,,,,,,,,,,,,main,None,None,1,1.4987483000004431,580.5183952999942,None,None,1,,,,,,,,,,,,,,017,2022-05-12_18h05.00.332,Main,2022.1.1,61.16050841582712,
positive,yellow,2,None,k,,,,,,,,,0,174,174,174,,,,,,,,,,,,,,,,,main,k,k,1,0.8482953000057023,583.0183600000018,None,None,0,,,,,,,,,,,,,,017,2022-05-12_18h05.00.332,Main,2022.1.1,61.16050841582712,
negative,blue,2,None,k,,,,,,,,,0,175,175,175,,,,,,,,,,,,,,,,,main,k,k,1,0.7826957000070252,584.8680710999906,None,None,0,,,,,,,,,,,,,,017,2022-05-12_18h05.00.332,Main,2022.1.1,61.16050841582712,
positive,blue,1,k,None,,,,,,,,,0,176,176,176,,,,,,,,,,,,,,,,,main,None,None,1,1.4989078000071459,586.6517067999957,None,None,1,,,,,,,,,,,,,,017,2022-05-12_18h05.00.332,Main,2022.1.1,61.16050841582712,
positive,yellow,1,None,k,,,,,,,,,0,177,177,177,,,,,,,,,,,,,,,,,main,k,k,1,0.6494339999917429,589.1515570999909,None,None,0,,,,,,,,,,,,,,017,2022-05-12_18h05.00.332,Main,2022.1.1,61.16050841582712,
positive,blue,1,k,None,,,,,,,,,0,178,178,178,,,,,,,,,,,,,,,,,main,None,None,1,1.4990472000063164,590.8070436999988,None,None,1,,,,,,,,,,,,,,017,2022-05-12_18h05.00.332,Main,2022.1.1,61.16050841582712,
positive,yellow,2,None,k,,,,,,,,,0,179,179,179,,,,,,,,,,,,,,,,,main,k,k,1,0.8821748000045773,593.3012118999904,None,None,0,,,,,,,,,,,,,,017,2022-05-12_18h05.00.332,Main,2022.1.1,61.16050841582712,
positive,blue,1,k,None,,,,,,,,,0,180,180,180,,,,,,,,,,,,,,,,,main,None,None,1,1.498103899997659,595.1849005999975,None,None,1,,,,,,,,,,,,,,017,2022-05-12_18h05.00.332,Main,2022.1.1,61.16050841582712,
negative,red,1,None,None,,,,,,,,,0,181,181,181,,,,,,,,,,,,,,,,,main,None,None,1,1.4986188000038965,597.6847466999898,None,None,1,,,,,,,,,,,,,,017,2022-05-12_18h05.00.332,Main,2022.1.1,61.16050841582712,
negative,blue,1,None,k,,,,,,,,,0,182,182,182,,,,,,,,,,,,,,,,,main,k,k,1,0.7972001999878557,600.1845898999891,None,None,0,,,,,,,,,,,,,,017,2022-05-12_18h05.00.332,Main,2022.1.1,61.16050841582712,
negative,yellow,2,k,None,,,,,,,,,0,183,183,183,,,,,,,,,,,,,,,,,main,None,None,1,1.4987561000016285,601.9846071999928,None,None,1,,,,,,,,,,,,,,017,2022-05-12_18h05.00.332,Main,2022.1.1,61.16050841582712,
positive,yellow,2,None,k,,,,,,,,,0,184,184,184,,,,,,,,,,,,,,,,,main,k,k,1,0.6331339000025764,604.4846367999999,None,None,0,,,,,,,,,,,,,,017,2022-05-12_18h05.00.332,Main,2022.1.1,61.16050841582712,
positive,yellow,1,None,k,,,,,,,,,0,185,185,185,,,,,,,,,,,,,,,,,main,k,k,1,0.7324197000125423,606.117952399989,None,None,0,,,,,,,,,,,,,,017,2022-05-12_18h05.00.332,Main,2022.1.1,61.16050841582712,
positive,red,2,None,None,,,,,,,,,0,186,186,186,,,,,,,,,,,,,,,,,main,None,None,1,1.49951670000155,607.8511464999901,None,None,1,,,,,,,,,,,,,,017,2022-05-12_18h05.00.332,Main,2022.1.1,61.16050841582712,
positive,blue,1,k,None,,,,,,,,,0,187,187,187,,,,,,,,,,,,,,,,,main,None,None,1,1.4980593000072986,610.3510468000022,None,None,1,,,,,,,,,,,,,,017,2022-05-12_18h05.00.332,Main,2022.1.1,61.16050841582712,
negative,yellow,1,k,None,,,,,,,,,0,188,188,188,,,,,,,,,,,,,,,,,main,None,None,1,1.4992228000046453,612.8510428000009,None,None,1,,,,,,,,,,,,,,017,2022-05-12_18h05.00.332,Main,2022.1.1,61.16050841582712,
positive,yellow,2,None,k,,,,,,,,,0,189,189,189,,,,,,,,,,,,,,,,,main,k,k,1,0.7661226000054739,615.351007099991,None,None,0,,,,,,,,,,,,,,017,2022-05-12_18h05.00.332,Main,2022.1.1,61.16050841582712,
negative,yellow,2,k,None,,,,,,,,,0,190,190,190,,,,,,,,,,,,,,,,,main,None,None,1,1.49875840000459,617.1176321999956,None,None,1,,,,,,,,,,,,,,017,2022-05-12_18h05.00.332,Main,2022.1.1,61.16050841582712,
negative,yellow,1,k,None,,,,,,,,,0,191,191,191,,,,,,,,,,,,,,,,,main,None,None,1,1.4992782999906922,619.6176064000028,None,None,1,,,,,,,,,,,,,,017,2022-05-12_18h05.00.332,Main,2022.1.1,61.16050841582712,
positive,blue,2,k,None,,,,,,,,,0,192,192,192,,,,,,,,,,,,,,,,,main,None,None,1,1.5006095999997342,622.1172922999976,None,None,1,,,,,,,,,,,,,,017,2022-05-12_18h05.00.332,Main,2022.1.1,61.16050841582712,
positive,yellow,1,None,k,,,,,,,,,0,193,193,193,,,,,,,,,,,,,,,,,main,k,k,1,0.6801420999981929,624.6175854999892,None,None,0,,,,,,,,,,,,,,017,2022-05-12_18h05.00.332,Main,2022.1.1,61.16050841582712,
negative,red,2,None,None,,,,,,,,,0,194,194,194,,,,,,,,,,,,,,,,,main,None,None,1,1.4994329000037396,626.3067221999954,None,None,1,,,,,,,,,,,,,,017,2022-05-12_18h05.00.332,Main,2022.1.1,61.16050841582712,
positive,red,1,None,None,,,,,,,,,0,195,195,195,,,,,,,,,,,,,,,,,main,None,None,1,1.4983684000035282,628.8005102000025,None,None,1,,,,,,,,,,,,,,017,2022-05-12_18h05.00.332,Main,2022.1.1,61.16050841582712,
negative,blue,1,None,k,,,,,,,,,0,196,196,196,,,,,,,,,,,,,,,,,main,k,k,1,0.8325924999953713,631.3008092999953,None,None,0,,,,,,,,,,,,,,017,2022-05-12_18h05.00.332,Main,2022.1.1,61.16050841582712,
positive,blue,2,k,None,,,,,,,,,0,197,197,197,,,,,,,,,,,,,,,,,main,None,None,1,1.4992916000046534,633.1340520999947,None,None,1,,,,,,,,,,,,,,017,2022-05-12_18h05.00.332,Main,2022.1.1,61.16050841582712,
negative,blue,2,None,k,,,,,,,,,0,198,198,198,,,,,,,,,,,,,,,,,main,k,k,1,0.7984264999977313,635.6339344000007,None,None,0,,,,,,,,,,,,,,017,2022-05-12_18h05.00.332,Main,2022.1.1,61.16050841582712,
negative,blue,2,None,k,,,,,,,,,0,199,199,199,,,,,,,,,,,,,,,,,main,k,k,1,0.7881539999943925,637.433875799994,None,None,0,,,,,,,,,,,,,,017,2022-05-12_18h05.00.332,Main,2022.1.1,61.16050841582712,
positive,blue,2,k,None,,,,,,,,,0,200,200,200,,,,,,,,,,,,,,,,,main,None,None,1,1.4937444000097457,639.2215937000001,None,None,1,,,,,,,,,,,,,,017,2022-05-12_18h05.00.332,Main,2022.1.1,61.16050841582712,
positive,blue,2,k,None,,,,,,,,,0,201,201,201,,,,,,,,,,,,,,,,,main,None,None,1,1.4981344999978319,641.7172113999986,None,None,1,,,,,,,,,,,,,,017,2022-05-12_18h05.00.332,Main,2022.1.1,61.16050841582712,
negative,yellow,2,k,None,,,,,,,,,0,202,202,202,,,,,,,,,,,,,,,,,main,None,None,1,1.498955900009605,644.2196480999992,None,None,1,,,,,,,,,,,,,,017,2022-05-12_18h05.00.332,Main,2022.1.1,61.16050841582712,
positive,red,1,None,None,,,,,,,,,0,203,203,203,,,,,,,,,,,,,,,,,main,None,None,1,1.4984904000011738,646.7170373999979,None,None,1,,,,,,,,,,,,,,017,2022-05-12_18h05.00.332,Main,2022.1.1,61.16050841582712,
negative,blue,2,None,k,,,,,,,,,0,204,204,204,,,,,,,,,,,,,,,,,main,k,k,1,0.799544200010132,649.2172520000022,None,None,0,,,,,,,,,,,,,,017,2022-05-12_18h05.00.332,Main,2022.1.1,61.16050841582712,
negative,red,1,None,None,,,,,,,,,0,205,205,205,,,,,,,,,,,,,,,,,main,None,None,1,1.499213899995084,651.0169562999945,None,None,1,,,,,,,,,,,,,,017,2022-05-12_18h05.00.332,Main,2022.1.1,61.16050841582712,
negative,blue,2,None,k,,,,,,,,,0,206,206,206,,,,,,,,,,,,,,,,,main,k,k,1,0.598131500009913,653.5167819999915,None,None,0,,,,,,,,,,,,,,017,2022-05-12_18h05.00.332,Main,2022.1.1,61.16050841582712,
negative,yellow,2,k,None,,,,,,,,,0,207,207,207,,,,,,,,,,,,,,,,,main,None,None,1,1.5016890000115382,655.11658609999,None,None,1,,,,,,,,,,,,,,017,2022-05-12_18h05.00.332,Main,2022.1.1,61.16050841582712,
positive,yellow,2,None,k,,,,,,,,,0,208,208,208,,,,,,,,,,,,,,,,,main,k,k,1,1.2636865000094986,657.6193043999956,None,None,0,,,,,,,,,,,,,,017,2022-05-12_18h05.00.332,Main,2022.1.1,61.16050841582712,
negative,yellow,1,k,None,,,,,,,,,0,209,209,209,,,,,,,,,,,,,,,,,main,None,None,1,1.4993448000022909,659.8834286999918,None,None,1,,,,,,,,,,,,,,017,2022-05-12_18h05.00.332,Main,2022.1.1,61.16050841582712,
negative,red,2,None,None,,,,,,,,,0,210,210,210,,,,,,,,,,,,,,,,,main,None,None,1,1.4980176999961259,662.3833673999907,None,None,1,,,,,,,,,,,,,,017,2022-05-12_18h05.00.332,Main,2022.1.1,61.16050841582712,
negative,blue,1,None,k,,,,,,,,,0,211,211,211,,,,,,,,,,,,,,,,,main,k,k,1,0.9329559000034351,664.8833251999895,None,None,0,,,,,,,,,,,,,,017,2022-05-12_18h05.00.332,Main,2022.1.1,61.16050841582712,
negative,yellow,1,k,None,,,,,,,,,0,212,212,212,,,,,,,,,,,,,,,,,main,None,None,1,1.4992070999869611,666.8167669999966,None,None,1,,,,,,,,,,,,,,017,2022-05-12_18h05.00.332,Main,2022.1.1,61.16050841582712,
positive,blue,1,k,None,,,,,,,,,0,213,213,213,,,,,,,,,,,,,,,,,main,None,None,1,1.5005533999938052,669.3163495999906,None,None,1,,,,,,,,,,,,,,017,2022-05-12_18h05.00.332,Main,2022.1.1,61.16050841582712,
positive,blue,1,k,None,,,,,,,,,0,214,214,214,,,,,,,,,,,,,,,,,main,None,None,1,1.4966310000017984,671.8166479999927,None,None,1,,,,,,,,,,,,,,017,2022-05-12_18h05.00.332,Main,2022.1.1,61.16050841582712,
positive,yellow,1,None,k,,,,,,,,,0,215,215,215,,,,,,,,,,,,,,,,,main,k,k,1,0.9831656000023941,674.316456399989,None,None,0,,,,,,,,,,,,,,017,2022-05-12_18h05.00.332,Main,2022.1.1,61.16050841582712,
positive,yellow,1,None,k,,,,,,,,,0,216,216,216,,,,,,,,,,,,,,,,,main,k,k,1,0.7982359000016004,676.2997059999907,None,None,0,,,,,,,,,,,,,,017,2022-05-12_18h05.00.332,Main,2022.1.1,61.16050841582712,
positive,yellow,2,None,k,,,,,,,,,0,217,217,217,,,,,,,,,,,,,,,,,main,k,k,1,0.8349790999927791,678.099860199989,None,None,0,,,,,,,,,,,,,,017,2022-05-12_18h05.00.332,Main,2022.1.1,61.16050841582712,
negative,blue,1,None,k,,,,,,,,,0,218,218,218,,,,,,,,,,,,,,,,,main,k,k,1,0.7968191999971168,679.9330351999961,None,None,0,,,,,,,,,,,,,,017,2022-05-12_18h05.00.332,Main,2022.1.1,61.16050841582712,
positive,red,2,None,None,,,,,,,,,0,219,219,219,,,,,,,,,,,,,,,,,main,None,None,1,1.4989630999916699,681.7333758000022,None,None,1,,,,,,,,,,,,,,017,2022-05-12_18h05.00.332,Main,2022.1.1,61.16050841582712,
positive,yellow,1,None,k,,,,,,,,,0,220,220,220,,,,,,,,,,,,,,,,,main,k,k,1,0.749121799992281,684.2329415999993,None,None,0,,,,,,,,,,,,,,017,2022-05-12_18h05.00.332,Main,2022.1.1,61.16050841582712,
positive,blue,1,k,None,,,,,,,,,0,221,221,221,,,,,,,,,,,,,,,,,main,None,None,1,1.4991175000031944,685.9827727999946,None,None,1,,,,,,,,,,,,,,017,2022-05-12_18h05.00.332,Main,2022.1.1,61.16050841582712,
positive,yellow,2,None,k,,,,,,,,,0,222,222,222,,,,,,,,,,,,,,,,,main,k,k,1,0.6985647999972571,688.4826350999938,None,None,0,,,,,,,,,,,,,,017,2022-05-12_18h05.00.332,Main,2022.1.1,61.16050841582712,
negative,yellow,1,k,None,,,,,,,,,0,223,223,223,,,,,,,,,,,,,,,,,main,None,None,1,1.4988329999905545,690.1853596000001,None,None,1,,,,,,,,,,,,,,017,2022-05-12_18h05.00.332,Main,2022.1.1,61.16050841582712,
positive,yellow,2,None,k,,,,,,,,,0,224,224,224,,,,,,,,,,,,,,,,,main,k,k,1,0.7866410999995423,692.6832705999987,None,None,0,,,,,,,,,,,,,,017,2022-05-12_18h05.00.332,Main,2022.1.1,61.16050841582712,
negative,yellow,2,k,None,,,,,,,,,0,225,225,225,,,,,,,,,,,,,,,,,main,None,None,1,1.4950891999906162,694.4659934999945,None,None,1,,,,,,,,,,,,,,017,2022-05-12_18h05.00.332,Main,2022.1.1,61.16050841582712,
negative,blue,2,None,k,,,,,,,,,0,226,226,226,,,,,,,,,,,,,,,,,main,k,k,1,0.5983438000112073,696.9659845999995,None,None,0,,,,,,,,,,,,,,017,2022-05-12_18h05.00.332,Main,2022.1.1,61.16050841582712,
positive,red,2,None,None,,,,,,,,,0,227,227,227,,,,,,,,,,,,,,,,,main,None,None,1,1.4997017999994569,698.5660753999982,None,None,1,,,,,,,,,,,,,,017,2022-05-12_18h05.00.332,Main,2022.1.1,61.16050841582712,
positive,blue,2,k,None,,,,,,,,,0,228,228,228,,,,,,,,,,,,,,,,,main,None,None,1,1.4980613999941852,701.0659275999933,None,None,1,,,,,,,,,,,,,,017,2022-05-12_18h05.00.332,Main,2022.1.1,61.16050841582712,
negative,blue,1,None,k,,,,,,,,,0,229,229,229,,,,,,,,,,,,,,,,,main,k,k,1,0.765649700013455,703.5682206999918,None,None,0,,,,,,,,,,,,,,017,2022-05-12_18h05.00.332,Main,2022.1.1,61.16050841582712,
positive,yellow,1,None,k,,,,,,,,,0,230,230,230,,,,,,,,,,,,,,,,,main,k,k,1,0.8323459000093862,705.3324609999981,None,None,0,,,,,,,,,,,,,,017,2022-05-12_18h05.00.332,Main,2022.1.1,61.16050841582712,
negative,blue,2,None,k,,,,,,,,,0,231,231,231,,,,,,,,,,,,,,,,,main,k,k,1,0.9657945999933872,707.1659183000011,None,None,0,,,,,,,,,,,,,,017,2022-05-12_18h05.00.332,Main,2022.1.1,61.16050841582712,
negative,red,1,None,None,,,,,,,,,0,232,232,232,,,,,,,,,,,,,,,,,main,None,None,1,1.4993092000077013,709.1325551999907,None,None,1,,,,,,,,,,,,,,017,2022-05-12_18h05.00.332,Main,2022.1.1,61.16050841582712,
positive,blue,2,k,None,,,,,,,,,0,233,233,233,,,,,,,,,,,,,,,,,main,None,None,1,1.5004385000065668,711.6321208000008,None,None,1,,,,,,,,,,,,,,017,2022-05-12_18h05.00.332,Main,2022.1.1,61.16050841582712,
negative,yellow,1,k,None,,,,,,,,,0,234,234,234,,,,,,,,,,,,,,,,,main,None,None,1,1.496554199999082,714.1348089999956,None,None,1,,,,,,,,,,,,,,017,2022-05-12_18h05.00.332,Main,2022.1.1,61.16050841582712,
negative,yellow,2,k,None,,,,,,,,,0,235,235,235,,,,,,,,,,,,,,,,,main,None,None,1,1.500007499998901,716.6322426999977,None,None,1,,,,,,,,,,,,,,017,2022-05-12_18h05.00.332,Main,2022.1.1,61.16050841582712,
positive,red,1,None,None,,,,,,,,,0,236,236,236,,,,,,,,,,,,,,,,,main,None,None,1,1.5002285000082338,719.131939999992,None,None,1,,,,,,,,,,,,,,017,2022-05-12_18h05.00.332,Main,2022.1.1,61.16050841582712,
negative,red,2,None,None,,,,,,,,,0,237,237,237,,,,,,,,,,,,,,,,,main,None,None,1,1.4992695999972057,721.6347189999942,None,None,1,,,,,,,,,,,,,,017,2022-05-12_18h05.00.332,Main,2022.1.1,61.16050841582712,
negative,blue,1,None,k,,,,,,,,,0,238,238,238,,,,,,,,,,,,,,,,,main,k,k,1,1.546584099996835,724.1322426999977,None,None,0,,,,,,,,,,,,,,017,2022-05-12_18h05.00.332,Main,2022.1.1,61.16050841582712,
positive,blue,1,k,None,,,,,,,,,0,239,239,239,,,,,,,,,,,,,,,,,main,None,None,1,1.5044540999952005,727.682010199991,None,None,1,,,,,,,,,,,,,,017,2022-05-12_18h05.00.332,Main,2022.1.1,61.16050841582712,
,,,,,,,,,,,,,,,,,,,,,,,,,,,,,,,,,,,,,,,,,,,,,,,,,,,,,730.1820906999928,None,,,,,,
