distractor,target,set,ans1,ans2,rep_loop4.thisRepN,rep_loop4.thisTrialN,rep_loop4.thisN,rep_loop4.thisIndex,st2_prac_loop.thisRepN,st2_prac_loop.thisTrialN,st2_prac_loop.thisN,st2_prac_loop.thisIndex,st2_main_loop.thisRepN,st2_main_loop.thisTrialN,st2_main_loop.thisN,st2_main_loop.thisIndex,image_4.started,image_4.stopped,sound_2.started,sound_2.stopped,key_resp_3.keys,key_resp_3.rt,image_5.started,image_5.stopped,st_prac_back.started,st_prac_back.stopped,st_prac_text.started,st_prac_text.stopped,st_fix_back.started,st_fix_back.stopped,st_fix_2.started,st_fix_2.stopped,main_prac,st_ans,st_res,st_corr,st_rt,st_back.started,st_back.stopped,st2_resp.keys,st2_resp.corr,st_main_back.started,st_main_back.stopped,st_main_text.started,st_main_text.stopped,mouse_4.x,mouse_4.y,mouse_4.leftButton,mouse_4.midButton,mouse_4.rightButton,mouse_4.started,mouse_4.stopped,text_2.started,text_2.stopped,id*,date,expName,psychopyVersion,frameRate,
negative,yellow,1,k,None,,,,,0,0,0,0,,,,,29.614667100002407,None,34.06167009000929,None,space,61.01072700000077,95.09355030000734,None,96.39375499999733,None,96.39375499999733,None,98.40771630000381,None,98.40771630000381,None,prac,k,k,1,2.7258307000010973,100.40782130000298,None,None,0,,,,,,,,,,,,,,018,2022-05-12_19h45.15.996,Main,2022.1.1,61.161331361436766,
positive,red,2,None,None,,,,,0,1,1,1,,,,,,,,,,,,,,,,,,,,,prac,None,None,1,1.498945500003174,105.1411122999998,None,None,1,,,,,,,,,,,,,,018,2022-05-12_19h45.15.996,Main,2022.1.1,61.161331361436766,
negative,blue,2,None,k,,,,,0,2,2,2,,,,,,,,,,,,,,,,,,,,,prac,None,None,1,1.5000584999943385,107.6408145000023,None,None,1,,,,,,,,,,,,,,018,2022-05-12_19h45.15.996,Main,2022.1.1,61.161331361436766,
positive,yellow,1,None,k,,,,,0,3,3,3,,,,,,,,,,,,,,,,,,,,,prac,None,None,1,1.497623899995233,110.1435696999979,None,None,1,,,,,,,,,,,,,,018,2022-05-12_19h45.15.996,Main,2022.1.1,61.161331361436766,
negative,blue,2,None,k,,,,,0,4,4,4,,,,,,,,,,,,,,,,,,,,,prac,None,None,1,1.4975929000065662,112.64095950000046,None,None,1,,,,,,,,,,,,,,018,2022-05-12_19h45.15.996,Main,2022.1.1,61.161331361436766,
negative,blue,1,None,k,,,,,0,5,5,5,,,,,,,,,,,,,,,,,,,,,prac,None,None,1,1.4991312000056496,115.14090640000359,None,None,1,,,,,,,,,,,,,,018,2022-05-12_19h45.15.996,Main,2022.1.1,61.161331361436766,
negative,yellow,2,k,None,,,,,0,6,6,6,,,,,,,,,,,,,,,,,,,,,prac,k,k,1,0.9160535999981221,117.64085409999825,None,None,0,,,,,,,,,,,,,,018,2022-05-12_19h45.15.996,Main,2022.1.1,61.161331361436766,
negative,red,1,None,None,,,,,0,7,7,7,,,,,,,,,,,,,,,,,,,,,prac,None,None,1,1.4987983999890275,119.5575225000066,None,None,1,,,,,,,,,,,,,,018,2022-05-12_19h45.15.996,Main,2022.1.1,61.161331361436766,
positive,yellow,2,None,k,,,,,0,8,8,8,,,,,,,,,,,,,,,,,,,,,prac,None,None,1,1.498945499988622,122.05741710000439,None,None,1,,,,,,,,,,,,,,018,2022-05-12_19h45.15.996,Main,2022.1.1,61.161331361436766,
negative,yellow,1,k,None,,,,,0,9,9,9,,,,,,,,,,,,,,,,,,,,,prac,k,k,1,1.416096100001596,124.55745469999965,None,None,0,,,,,,,,,,,,,,018,2022-05-12_19h45.15.996,Main,2022.1.1,61.161331361436766,
positive,yellow,2,None,k,,,,,0,10,10,10,,,,,,,,,,,,,,,,,,,,,prac,None,None,1,1.4985694000060903,126.97397469999851,None,None,1,,,,,,,,,,,,,,018,2022-05-12_19h45.15.996,Main,2022.1.1,61.161331361436766,
negative,yellow,2,k,None,,,,,0,11,11,11,,,,,,,,,,,,,,,,,,,,,prac,k,k,1,0.8659162999974797,129.4763524000009,None,None,0,,,,,,,,,,,,,,018,2022-05-12_19h45.15.996,Main,2022.1.1,61.161331361436766,
negative,red,2,None,None,,,,,0,12,12,12,,,,,,,,,,,,,,,,,,,,,prac,None,None,1,1.4995681000000332,131.34052300000621,None,None,1,,,,,,,,,,,,,,018,2022-05-12_19h45.15.996,Main,2022.1.1,61.161331361436766,
positive,red,1,None,None,,,,,0,13,13,13,,,,,,,,,,,,,,,,,,,,,prac,None,None,1,1.4983856000035303,133.84051959999488,None,None,1,,,,,,,,,,,,,,018,2022-05-12_19h45.15.996,Main,2022.1.1,61.161331361436766,
positive,blue,2,k,None,,,,,0,14,14,14,,,,,,,,,,,,,,,,,,,,,prac,k,k,1,0.6813951000076486,136.3402361000044,None,None,0,,,,,,,,,,,,,,018,2022-05-12_19h45.15.996,Main,2022.1.1,61.161331361436766,
positive,blue,1,k,None,,,,,0,15,15,15,,,,,,,,,,,,,,,,,,,,,prac,k,k,1,1.1160524999868358,138.02356000000145,None,None,0,,,,,,,,,,,,,,018,2022-05-12_19h45.15.996,Main,2022.1.1,61.161331361436766,
negative,blue,1,None,k,,,,,0,16,16,16,,,,,,,,,,,,,,,,,,,,,prac,None,None,1,1.4987266999960411,140.14293519999774,None,None,1,,,,,,,,,,,,,,018,2022-05-12_19h45.15.996,Main,2022.1.1,61.161331361436766,
positive,blue,2,k,None,,,,,0,17,17,17,,,,,,,,,,,,,,,,,,,,,prac,k,k,1,0.6501740000094287,142.6403405000019,None,None,0,,,,,,,,,,,,,,018,2022-05-12_19h45.15.996,Main,2022.1.1,61.161331361436766,
positive,blue,1,k,None,,,,,0,18,18,18,,,,,,,,,,,,,,,,,,,,,prac,k,k,1,0.6649706999887712,144.29026199999498,None,None,0,,,,,,,,,,,,,,018,2022-05-12_19h45.15.996,Main,2022.1.1,61.161331361436766,
positive,yellow,1,None,k,,,,,0,19,19,19,,,,,,,,,,,,,,,,,,,,,prac,None,k,0,0.6823823999875458,145.95930830000725,None,None,1,,,,,,,,,,,,,,018,2022-05-12_19h45.15.996,Main,2022.1.1,61.161331361436766,
negative,yellow,1,k,None,,,,,1,0,20,0,,,,,,,,,,,,,,,,,,,,,prac,k,k,1,0.8818440999893937,148.64033259999997,None,None,0,,,,,,,,,,,,,,018,2022-05-12_19h45.15.996,Main,2022.1.1,61.161331361436766,
positive,red,2,None,None,,,,,1,1,21,1,,,,,,,,,,,,,,,,,,,,,prac,None,None,1,1.4986425999959465,150.5235640000028,None,None,1,,,,,,,,,,,,,,018,2022-05-12_19h45.15.996,Main,2022.1.1,61.161331361436766,
negative,blue,2,None,k,,,,,1,2,22,2,,,,,,,,,,,,,,,,,,,,,prac,None,None,1,1.4990098999987822,153.02590670000063,None,None,1,,,,,,,,,,,,,,018,2022-05-12_19h45.15.996,Main,2022.1.1,61.161331361436766,
positive,yellow,1,None,k,,,,,1,3,23,3,,,,,,,,,,,,,,,,,,,,,prac,None,None,1,1.49977849998686,155.52336760000617,None,None,1,,,,,,,,,,,,,,018,2022-05-12_19h45.15.996,Main,2022.1.1,61.161331361436766,
negative,blue,2,None,k,,,,,1,4,24,4,,,,,,,,,,,,,,,,,,,,,prac,None,None,1,1.4989439000055427,158.02337490000355,None,None,1,,,,,,,,,,,,,,018,2022-05-12_19h45.15.996,Main,2022.1.1,61.161331361436766,
negative,blue,1,None,k,,,,,1,5,25,5,,,,,,,,,,,,,,,,,,,,,prac,None,None,1,1.500230100005865,160.52325640000345,None,None,1,,,,,,,,,,,,,,018,2022-05-12_19h45.15.996,Main,2022.1.1,61.161331361436766,
negative,yellow,2,k,None,,,,,1,6,26,6,,,,,,,,,,,,,,,,,,,,,prac,k,k,1,1.2968963999883272,163.02325969999947,None,None,0,,,,,,,,,,,,,,018,2022-05-12_19h45.15.996,Main,2022.1.1,61.161331361436766,
negative,red,1,None,None,,,,,1,7,27,7,,,,,,,,,,,,,,,,,,,,,prac,None,None,1,1.4994086000078823,165.32564179999463,None,None,1,,,,,,,,,,,,,,018,2022-05-12_19h45.15.996,Main,2022.1.1,61.161331361436766,
positive,yellow,2,None,k,,,,,1,8,28,8,,,,,,,,,,,,,,,,,,,,,prac,None,None,1,1.5005433999904199,167.82295689999592,None,None,1,,,,,,,,,,,,,,018,2022-05-12_19h45.15.996,Main,2022.1.1,61.161331361436766,
negative,yellow,1,k,None,,,,,1,9,29,9,,,,,,,,,,,,,,,,,,,,,prac,k,k,1,1.5471302999940235,170.32558950000384,None,None,0,,,,,,,,,,,,,,018,2022-05-12_19h45.15.996,Main,2022.1.1,61.161331361436766,
positive,yellow,2,None,k,,,,,1,10,30,10,,,,,,,,,,,,,,,,,,,,,prac,None,None,1,1.5006816000095569,173.87279880000278,None,None,1,,,,,,,,,,,,,,018,2022-05-12_19h45.15.996,Main,2022.1.1,61.161331361436766,
negative,yellow,2,k,None,,,,,1,11,31,11,,,,,,,,,,,,,,,,,,,,,prac,k,k,1,0.6159952000016347,176.37274180000531,None,None,0,,,,,,,,,,,,,,018,2022-05-12_19h45.15.996,Main,2022.1.1,61.161331361436766,
negative,red,2,None,None,,,,,1,12,32,12,,,,,,,,,,,,,,,,,,,,,prac,None,None,1,1.5010949999996228,177.9920407000027,None,None,1,,,,,,,,,,,,,,018,2022-05-12_19h45.15.996,Main,2022.1.1,61.161331361436766,
positive,red,1,None,None,,,,,1,13,33,13,,,,,,,,,,,,,,,,,,,,,prac,None,None,1,1.4963888000056613,180.49216340000567,None,None,1,,,,,,,,,,,,,,018,2022-05-12_19h45.15.996,Main,2022.1.1,61.161331361436766,
positive,blue,2,k,None,,,,,1,14,34,14,,,,,,,,,,,,,,,,,,,,,prac,k,k,1,1.049670000007609,182.98929870000575,None,None,0,,,,,,,,,,,,,,018,2022-05-12_19h45.15.996,Main,2022.1.1,61.161331361436766,
positive,blue,1,k,None,,,,,1,15,35,15,,,,,,,,,,,,,,,,,,,,,prac,k,k,1,0.8990055000031134,185.04190749999543,None,None,0,,,,,,,,,,,,,,018,2022-05-12_19h45.15.996,Main,2022.1.1,61.161331361436766,
negative,blue,1,None,k,,,,,1,16,36,16,,,,,,,,,,,,,,,,,,,,,prac,None,None,1,1.4988201000087429,186.94204540000646,None,None,1,,,,,,,,,,,,,,018,2022-05-12_19h45.15.996,Main,2022.1.1,61.161331361436766,
positive,blue,2,k,None,,,,,1,17,37,17,,,,,,,,,,,,,,,,,,,,,prac,k,k,1,2.1832928999938304,189.43938589999743,None,None,0,,,,,,,,,,,,,,018,2022-05-12_19h45.15.996,Main,2022.1.1,61.161331361436766,
positive,blue,1,k,None,,,,,1,18,38,18,,,,,,,,,,,,,,,,,,,,,prac,k,k,1,0.9489882000052603,193.6227583,None,None,0,,,,,,,,,,,,,,018,2022-05-12_19h45.15.996,Main,2022.1.1,61.161331361436766,
positive,yellow,1,None,k,,,,,1,19,39,19,,,,,,,,,,,,,,,,,,,,,prac,None,None,1,1.498954100010451,195.57274070000858,None,None,1,,,,,,,,,,,,,,018,2022-05-12_19h45.15.996,Main,2022.1.1,61.161331361436766,
,,,,,,,,,,,,,,,,,,,,,,,,,,,,,,,,,,,,,,,,,,198.07226600000286,None,198.07226600000286,None,0.02962963,-0.060185187,0,0,0,0.01323498999408912,None,,,018,2022-05-12_19h45.15.996,Main,2022.1.1,61.161331361436766,
negative,yellow,2,k,None,,,,,,,,,0,0,0,0,,,,,,,,,,,,,199.84164880000753,None,199.84164880000753,None,main,k,k,1,0.8833961000054842,201.8637818999996,None,None,0,,,,,,,,,,,,,,018,2022-05-12_19h45.15.996,Main,2022.1.1,61.161331361436766,
positive,red,1,None,None,,,,,,,,,0,1,1,1,,,,,,,,,,,,,,,,,main,None,None,1,1.5013687000027858,203.7558793000062,None,None,1,,,,,,,,,,,,,,018,2022-05-12_19h45.15.996,Main,2022.1.1,61.161331361436766,
positive,blue,2,k,None,,,,,,,,,0,2,2,2,,,,,,,,,,,,,,,,,main,k,k,1,1.0968823000002885,206.25815310000326,None,None,0,,,,,,,,,,,,,,018,2022-05-12_19h45.15.996,Main,2022.1.1,61.161331361436766,
positive,blue,1,k,None,,,,,,,,,0,3,3,3,,,,,,,,,,,,,,,,,main,k,k,1,0.7652883999980986,208.35821960000612,None,None,0,,,,,,,,,,,,,,018,2022-05-12_19h45.15.996,Main,2022.1.1,61.161331361436766,
negative,yellow,2,k,None,,,,,,,,,0,4,4,4,,,,,,,,,,,,,,,,,main,k,k,1,0.9827203999884659,210.12202740000794,None,None,0,,,,,,,,,,,,,,018,2022-05-12_19h45.15.996,Main,2022.1.1,61.161331361436766,
positive,yellow,2,None,k,,,,,,,,,0,5,5,5,,,,,,,,,,,,,,,,,main,None,None,1,1.5039797999925213,212.10573720000684,None,None,1,,,,,,,,,,,,,,018,2022-05-12_19h45.15.996,Main,2022.1.1,61.161331361436766,
negative,blue,2,None,k,,,,,,,,,0,6,6,6,,,,,,,,,,,,,,,,,main,None,None,1,1.4959461000107694,214.6099577999994,None,None,1,,,,,,,,,,,,,,018,2022-05-12_19h45.15.996,Main,2022.1.1,61.161331361436766,
positive,red,2,None,None,,,,,,,,,0,7,7,7,,,,,,,,,,,,,,,,,main,None,None,1,1.4946656999964034,217.10545640000782,None,None,1,,,,,,,,,,,,,,018,2022-05-12_19h45.15.996,Main,2022.1.1,61.161331361436766,
positive,yellow,1,None,k,,,,,,,,,0,8,8,8,,,,,,,,,,,,,,,,,main,None,None,1,1.4988748000032501,219.60550010000588,None,None,1,,,,,,,,,,,,,,018,2022-05-12_19h45.15.996,Main,2022.1.1,61.161331361436766,
negative,red,1,None,None,,,,,,,,,0,9,9,9,,,,,,,,,,,,,,,,,main,None,None,1,1.498205700001563,222.11097280000104,None,None,1,,,,,,,,,,,,,,018,2022-05-12_19h45.15.996,Main,2022.1.1,61.161331361436766,
positive,yellow,1,None,k,,,,,,,,,0,10,10,10,,,,,,,,,,,,,,,,,main,None,None,1,1.5004472000000533,224.60534320000443,None,None,1,,,,,,,,,,,,,,018,2022-05-12_19h45.15.996,Main,2022.1.1,61.161331361436766,
negative,yellow,1,k,None,,,,,,,,,0,11,11,11,,,,,,,,,,,,,,,,,main,k,k,1,1.0632634999928996,227.1054068000085,None,None,0,,,,,,,,,,,,,,018,2022-05-12_19h45.15.996,Main,2022.1.1,61.161331361436766,
negative,yellow,1,k,None,,,,,,,,,0,12,12,12,,,,,,,,,,,,,,,,,main,k,k,1,0.9989773999986937,229.1645778999955,None,None,0,,,,,,,,,,,,,,018,2022-05-12_19h45.15.996,Main,2022.1.1,61.161331361436766,
negative,red,2,None,None,,,,,,,,,0,13,13,13,,,,,,,,,,,,,,,,,main,None,None,1,1.4987353999895277,231.17188560000795,None,None,1,,,,,,,,,,,,,,018,2022-05-12_19h45.15.996,Main,2022.1.1,61.161331361436766,
positive,yellow,2,None,k,,,,,,,,,0,14,14,14,,,,,,,,,,,,,,,,,main,None,None,1,1.4990629000094486,233.67187350000313,None,None,1,,,,,,,,,,,,,,018,2022-05-12_19h45.15.996,Main,2022.1.1,61.161331361436766,
positive,blue,1,k,None,,,,,,,,,0,15,15,15,,,,,,,,,,,,,,,,,main,k,k,1,0.8161389999877429,236.17180120000558,None,None,0,,,,,,,,,,,,,,018,2022-05-12_19h45.15.996,Main,2022.1.1,61.161331361436766,
negative,blue,1,None,k,,,,,,,,,0,16,16,16,,,,,,,,,,,,,,,,,main,None,None,1,1.499142100001336,237.98849940000218,None,None,1,,,,,,,,,,,,,,018,2022-05-12_19h45.15.996,Main,2022.1.1,61.161331361436766,
positive,blue,2,k,None,,,,,,,,,0,17,17,17,,,,,,,,,,,,,,,,,main,k,k,1,0.8511370000051102,240.48807710000256,None,None,0,,,,,,,,,,,,,,018,2022-05-12_19h45.15.996,Main,2022.1.1,61.161331361436766,
negative,blue,2,None,k,,,,,,,,,0,18,18,18,,,,,,,,,,,,,,,,,main,None,None,1,1.4986994999926537,242.3407969999971,None,None,1,,,,,,,,,,,,,,018,2022-05-12_19h45.15.996,Main,2022.1.1,61.161331361436766,
negative,blue,1,None,k,,,,,,,,,0,19,19,19,,,,,,,,,,,,,,,,,main,None,None,1,1.4964925000094809,244.84079260000726,None,None,1,,,,,,,,,,,,,,018,2022-05-12_19h45.15.996,Main,2022.1.1,61.161331361436766,
negative,blue,1,None,k,,,,,,,,,0,20,20,20,,,,,,,,,,,,,,,,,main,None,None,1,1.4998417000024347,247.3382314000046,None,None,1,,,,,,,,,,,,,,018,2022-05-12_19h45.15.996,Main,2022.1.1,61.161331361436766,
negative,blue,2,None,k,,,,,,,,,0,21,21,21,,,,,,,,,,,,,,,,,main,None,None,1,1.4979136000038125,249.83816389999993,None,None,1,,,,,,,,,,,,,,018,2022-05-12_19h45.15.996,Main,2022.1.1,61.161331361436766,
negative,red,1,None,None,,,,,,,,,0,22,22,22,,,,,,,,,,,,,,,,,main,None,None,1,1.498866599999019,252.33813879999798,None,None,1,,,,,,,,,,,,,,018,2022-05-12_19h45.15.996,Main,2022.1.1,61.161331361436766,
positive,red,2,None,None,,,,,,,,,0,23,23,23,,,,,,,,,,,,,,,,,main,None,None,1,1.499247400002787,254.83812119999493,None,None,1,,,,,,,,,,,,,,018,2022-05-12_19h45.15.996,Main,2022.1.1,61.161331361436766,
negative,red,2,None,None,,,,,,,,,0,24,24,24,,,,,,,,,,,,,,,,,main,None,None,1,1.5021732000022894,257.3380255999946,None,None,1,,,,,,,,,,,,,,018,2022-05-12_19h45.15.996,Main,2022.1.1,61.161331361436766,
positive,blue,2,k,None,,,,,,,,,0,25,25,25,,,,,,,,,,,,,,,,,main,k,k,1,0.7791009000065969,259.83790800000133,None,None,0,,,,,,,,,,,,,,018,2022-05-12_19h45.15.996,Main,2022.1.1,61.161331361436766,
negative,yellow,1,k,None,,,,,,,,,0,26,26,26,,,,,,,,,,,,,,,,,main,k,k,1,0.9325023999990663,261.6212581,None,None,0,,,,,,,,,,,,,,018,2022-05-12_19h45.15.996,Main,2022.1.1,61.161331361436766,
positive,blue,2,k,None,,,,,,,,,0,27,27,27,,,,,,,,,,,,,,,,,main,k,k,1,0.7490520999999717,263.5546433999989,None,None,0,,,,,,,,,,,,,,018,2022-05-12_19h45.15.996,Main,2022.1.1,61.161331361436766,
negative,blue,2,None,k,,,,,,,,,0,28,28,28,,,,,,,,,,,,,,,,,main,None,None,1,1.5010729000059655,265.304475500001,None,None,1,,,,,,,,,,,,,,018,2022-05-12_19h45.15.996,Main,2022.1.1,61.161331361436766,
positive,red,1,None,None,,,,,,,,,0,29,29,29,,,,,,,,,,,,,,,,,main,None,None,1,1.4976046000083443,267.8069242000056,None,None,1,,,,,,,,,,,,,,018,2022-05-12_19h45.15.996,Main,2022.1.1,61.161331361436766,
positive,blue,1,k,None,,,,,,,,,0,30,30,30,,,,,,,,,,,,,,,,,main,k,k,1,0.7148881000030087,270.30442790000234,None,None,0,,,,,,,,,,,,,,018,2022-05-12_19h45.15.996,Main,2022.1.1,61.161331361436766,
positive,yellow,1,None,k,,,,,,,,,0,31,31,31,,,,,,,,,,,,,,,,,main,None,None,1,1.4980697999999393,272.02105730000767,None,None,1,,,,,,,,,,,,,,018,2022-05-12_19h45.15.996,Main,2022.1.1,61.161331361436766,
negative,yellow,2,k,None,,,,,,,,,0,32,32,32,,,,,,,,,,,,,,,,,main,k,k,1,0.7319860999996308,274.52105579999625,None,None,0,,,,,,,,,,,,,,018,2022-05-12_19h45.15.996,Main,2022.1.1,61.161331361436766,
negative,blue,1,None,k,,,,,,,,,0,33,33,33,,,,,,,,,,,,,,,,,main,None,None,1,1.4996812000026694,276.25428960000863,None,None,1,,,,,,,,,,,,,,018,2022-05-12_19h45.15.996,Main,2022.1.1,61.161331361436766,
positive,blue,1,k,None,,,,,,,,,0,34,34,34,,,,,,,,,,,,,,,,,main,k,k,1,0.7479024999920512,278.75427020000643,None,None,0,,,,,,,,,,,,,,018,2022-05-12_19h45.15.996,Main,2022.1.1,61.161331361436766,
negative,yellow,1,k,None,,,,,,,,,0,35,35,35,,,,,,,,,,,,,,,,,main,k,k,1,1.1991286000120454,280.5041921999946,None,None,0,,,,,,,,,,,,,,018,2022-05-12_19h45.15.996,Main,2022.1.1,61.161331361436766,
positive,yellow,2,None,k,,,,,,,,,0,36,36,36,,,,,,,,,,,,,,,,,main,None,None,1,1.498776499996893,282.70430179999676,None,None,1,,,,,,,,,,,,,,018,2022-05-12_19h45.15.996,Main,2022.1.1,61.161331361436766,
positive,yellow,2,None,k,,,,,,,,,0,37,37,37,,,,,,,,,,,,,,,,,main,None,None,1,1.4995670999924187,285.20443389999855,None,None,1,,,,,,,,,,,,,,018,2022-05-12_19h45.15.996,Main,2022.1.1,61.161331361436766,
negative,yellow,2,k,None,,,,,,,,,0,38,38,38,,,,,,,,,,,,,,,,,main,k,k,1,0.8315128999965964,287.70387050000136,None,None,0,,,,,,,,,,,,,,018,2022-05-12_19h45.15.996,Main,2022.1.1,61.161331361436766,
positive,yellow,1,None,k,,,,,,,,,0,39,39,39,,,,,,,,,,,,,,,,,main,None,None,1,1.5015562000044156,289.5371479000023,None,None,1,,,,,,,,,,,,,,018,2022-05-12_19h45.15.996,Main,2022.1.1,61.161331361436766,
negative,yellow,2,k,None,,,,,,,,,0,40,40,40,,,,,,,,,,,,,,,,,main,k,k,1,0.95090870000422,292.0399088999984,None,None,0,,,,,,,,,,,,,,018,2022-05-12_19h45.15.996,Main,2022.1.1,61.161331361436766,
positive,blue,2,k,None,,,,,,,,,0,41,41,41,,,,,,,,,,,,,,,,,main,k,k,1,1.2117158000037307,293.9942607999983,None,None,0,,,,,,,,,,,,,,018,2022-05-12_19h45.15.996,Main,2022.1.1,61.161331361436766,
positive,blue,2,k,None,,,,,,,,,0,42,42,42,,,,,,,,,,,,,,,,,main,k,k,1,0.6321736999962013,296.20395120000467,None,None,0,,,,,,,,,,,,,,018,2022-05-12_19h45.15.996,Main,2022.1.1,61.161331361436766,
negative,blue,2,None,k,,,,,,,,,0,43,43,43,,,,,,,,,,,,,,,,,main,None,None,1,1.500924899999518,297.8372642000031,None,None,1,,,,,,,,,,,,,,018,2022-05-12_19h45.15.996,Main,2022.1.1,61.161331361436766,
negative,red,1,None,None,,,,,,,,,0,44,44,44,,,,,,,,,,,,,,,,,main,None,None,1,1.4976059999899007,300.33715150000353,None,None,1,,,,,,,,,,,,,,018,2022-05-12_19h45.15.996,Main,2022.1.1,61.161331361436766,
negative,yellow,1,k,None,,,,,,,,,0,45,45,45,,,,,,,,,,,,,,,,,main,k,k,1,0.8644378000026336,302.83690330000536,None,None,0,,,,,,,,,,,,,,018,2022-05-12_19h45.15.996,Main,2022.1.1,61.161331361436766,
negative,yellow,1,k,None,,,,,,,,,0,46,46,46,,,,,,,,,,,,,,,,,main,k,k,1,0.8162069000100018,304.7039058000082,None,None,0,,,,,,,,,,,,,,018,2022-05-12_19h45.15.996,Main,2022.1.1,61.161331361436766,
positive,red,1,None,None,,,,,,,,,0,47,47,47,,,,,,,,,,,,,,,,,main,None,None,1,1.504124099999899,306.52289000000746,None,None,1,,,,,,,,,,,,,,018,2022-05-12_19h45.15.996,Main,2022.1.1,61.161331361436766,
positive,yellow,1,None,k,,,,,,,,,0,48,48,48,,,,,,,,,,,,,,,,,main,None,None,1,1.4940349999960745,309.02427760000865,None,None,1,,,,,,,,,,,,,,018,2022-05-12_19h45.15.996,Main,2022.1.1,61.161331361436766,
negative,blue,1,None,k,,,,,,,,,0,49,49,49,,,,,,,,,,,,,,,,,main,None,None,1,1.5005443999980344,311.5199779999966,None,None,1,,,,,,,,,,,,,,018,2022-05-12_19h45.15.996,Main,2022.1.1,61.161331361436766,
positive,yellow,2,None,k,,,,,,,,,0,50,50,50,,,,,,,,,,,,,,,,,main,None,None,1,1.4989745000057155,314.0227403000026,None,None,1,,,,,,,,,,,,,,018,2022-05-12_19h45.15.996,Main,2022.1.1,61.161331361436766,
negative,blue,1,None,k,,,,,,,,,0,51,51,51,,,,,,,,,,,,,,,,,main,None,None,1,1.4962961999990512,316.52269949999754,None,None,1,,,,,,,,,,,,,,018,2022-05-12_19h45.15.996,Main,2022.1.1,61.161331361436766,
positive,red,2,None,None,,,,,,,,,0,52,52,52,,,,,,,,,,,,,,,,,main,None,None,1,1.4997700000094483,319.0201054000063,None,None,1,,,,,,,,,,,,,,018,2022-05-12_19h45.15.996,Main,2022.1.1,61.161331361436766,
positive,yellow,2,None,k,,,,,,,,,0,53,53,53,,,,,,,,,,,,,,,,,main,None,None,1,1.4979828000068665,321.5200022000063,None,None,1,,,,,,,,,,,,,,018,2022-05-12_19h45.15.996,Main,2022.1.1,61.161331361436766,
negative,red,2,None,None,,,,,,,,,0,54,54,54,,,,,,,,,,,,,,,,,main,None,None,1,1.499641899994458,324.02001680000103,None,None,1,,,,,,,,,,,,,,018,2022-05-12_19h45.15.996,Main,2022.1.1,61.161331361436766,
positive,yellow,1,None,k,,,,,,,,,0,55,55,55,,,,,,,,,,,,,,,,,main,None,None,1,1.4980406000104267,326.5198989000055,None,None,1,,,,,,,,,,,,,,018,2022-05-12_19h45.15.996,Main,2022.1.1,61.161331361436766,
negative,blue,2,None,k,,,,,,,,,0,56,56,56,,,,,,,,,,,,,,,,,main,None,None,1,1.5000049999944167,329.0199059000006,None,None,1,,,,,,,,,,,,,,018,2022-05-12_19h45.15.996,Main,2022.1.1,61.161331361436766,
positive,blue,1,k,None,,,,,,,,,0,57,57,57,,,,,,,,,,,,,,,,,main,k,k,1,0.7146763999917312,331.51985250000143,None,None,0,,,,,,,,,,,,,,018,2022-05-12_19h45.15.996,Main,2022.1.1,61.161331361436766,
positive,blue,1,k,None,,,,,,,,,0,58,58,58,,,,,,,,,,,,,,,,,main,k,k,1,0.7497168999980204,333.2364768999978,None,None,0,,,,,,,,,,,,,,018,2022-05-12_19h45.15.996,Main,2022.1.1,61.161331361436766,
negative,yellow,2,k,None,,,,,,,,,0,59,59,59,,,,,,,,,,,,,,,,,main,k,k,1,0.7978330000041751,334.98646539999754,None,None,0,,,,,,,,,,,,,,018,2022-05-12_19h45.15.996,Main,2022.1.1,61.161331361436766,
positive,red,2,None,None,,,,,,,,,0,60,60,60,,,,,,,,,,,,,,,,,main,None,None,1,1.5020899000082863,336.78644150000764,None,None,1,,,,,,,,,,,,,,018,2022-05-12_19h45.15.996,Main,2022.1.1,61.161331361436766,
negative,yellow,1,k,None,,,,,,,,,0,61,61,61,,,,,,,,,,,,,,,,,main,k,k,1,1.4560679999995045,339.28634910000255,None,None,0,,,,,,,,,,,,,,018,2022-05-12_19h45.15.996,Main,2022.1.1,61.161331361436766,
negative,red,1,None,None,,,,,,,,,0,62,62,62,,,,,,,,,,,,,,,,,main,None,None,1,1.4892574999976205,341.7501656999957,None,None,1,,,,,,,,,,,,,,018,2022-05-12_19h45.15.996,Main,2022.1.1,61.161331361436766,
negative,blue,1,None,k,,,,,,,,,0,63,63,63,,,,,,,,,,,,,,,,,main,None,None,1,1.500878200007719,344.2360361000028,None,None,1,,,,,,,,,,,,,,018,2022-05-12_19h45.15.996,Main,2022.1.1,61.161331361436766,
positive,blue,2,k,None,,,,,,,,,0,64,64,64,,,,,,,,,,,,,,,,,main,k,k,1,0.8467194999975618,346.7387050999969,None,None,0,,,,,,,,,,,,,,018,2022-05-12_19h45.15.996,Main,2022.1.1,61.161331361436766,
negative,yellow,2,k,None,,,,,,,,,0,65,65,65,,,,,,,,,,,,,,,,,main,k,k,1,0.8658920000016224,348.586192200004,None,None,0,,,,,,,,,,,,,,018,2022-05-12_19h45.15.996,Main,2022.1.1,61.161331361436766,
positive,yellow,2,None,k,,,,,,,,,0,66,66,66,,,,,,,,,,,,,,,,,main,None,None,1,1.4987464000005275,350.4528974999994,None,None,1,,,,,,,,,,,,,,018,2022-05-12_19h45.15.996,Main,2022.1.1,61.161331361436766,
positive,yellow,2,None,k,,,,,,,,,0,67,67,67,,,,,,,,,,,,,,,,,main,None,None,1,1.5061274000036065,352.9531499000004,None,None,1,,,,,,,,,,,,,,018,2022-05-12_19h45.15.996,Main,2022.1.1,61.161331361436766,
positive,red,1,None,None,,,,,,,,,0,68,68,68,,,,,,,,,,,,,,,,,main,None,None,1,1.4924992000014754,355.45909550000215,None,None,1,,,,,,,,,,,,,,018,2022-05-12_19h45.15.996,Main,2022.1.1,61.161331361436766,
positive,yellow,1,None,k,,,,,,,,,0,69,69,69,,,,,,,,,,,,,,,,,main,None,None,1,1.500368699998944,357.9524148000055,None,None,1,,,,,,,,,,,,,,018,2022-05-12_19h45.15.996,Main,2022.1.1,61.161331361436766,
negative,yellow,2,k,None,,,,,,,,,0,70,70,70,,,,,,,,,,,,,,,,,main,k,k,1,1.0136368999956176,360.4527417000063,None,None,0,,,,,,,,,,,,,,018,2022-05-12_19h45.15.996,Main,2022.1.1,61.161331361436766,
positive,yellow,1,None,k,,,,,,,,,0,71,71,71,,,,,,,,,,,,,,,,,main,None,None,1,1.4994703999982448,362.46930349999457,None,None,1,,,,,,,,,,,,,,018,2022-05-12_19h45.15.996,Main,2022.1.1,61.161331361436766,
negative,blue,1,None,k,,,,,,,,,0,72,72,72,,,,,,,,,,,,,,,,,main,None,k,0,1.2480751999974018,364.9691762000002,None,None,1,,,,,,,,,,,,,,018,2022-05-12_19h45.15.996,Main,2022.1.1,61.161331361436766,
negative,red,2,None,None,,,,,,,,,0,73,73,73,,,,,,,,,,,,,,,,,main,None,None,1,1.501206999993883,368.2215375000087,None,None,1,,,,,,,,,,,,,,018,2022-05-12_19h45.15.996,Main,2022.1.1,61.161331361436766,
positive,blue,2,k,None,,,,,,,,,0,74,74,74,,,,,,,,,,,,,,,,,main,k,k,1,1.4980873999884352,370.7187821999978,None,None,0,,,,,,,,,,,,,,018,2022-05-12_19h45.15.996,Main,2022.1.1,61.161331361436766,
negative,blue,2,None,k,,,,,,,,,0,75,75,75,,,,,,,,,,,,,,,,,main,None,None,1,1.4985471999971196,373.22152570000617,None,None,1,,,,,,,,,,,,,,018,2022-05-12_19h45.15.996,Main,2022.1.1,61.161331361436766,
negative,blue,2,None,k,,,,,,,,,0,76,76,76,,,,,,,,,,,,,,,,,main,None,None,1,1.4999433999910252,375.7189689000079,None,None,1,,,,,,,,,,,,,,018,2022-05-12_19h45.15.996,Main,2022.1.1,61.161331361436766,
negative,yellow,1,k,None,,,,,,,,,0,77,77,77,,,,,,,,,,,,,,,,,main,k,k,1,1.0481950999965193,378.2188973000011,None,None,0,,,,,,,,,,,,,,018,2022-05-12_19h45.15.996,Main,2022.1.1,61.161331361436766,
positive,blue,1,k,None,,,,,,,,,0,78,78,78,,,,,,,,,,,,,,,,,main,k,k,1,0.8157740000024205,380.26886419999937,None,None,0,,,,,,,,,,,,,,018,2022-05-12_19h45.15.996,Main,2022.1.1,61.161331361436766,
positive,blue,1,k,None,,,,,,,,,0,79,79,79,,,,,,,,,,,,,,,,,main,k,k,1,0.9155461999907857,382.08786390000023,None,None,0,,,,,,,,,,,,,,018,2022-05-12_19h45.15.996,Main,2022.1.1,61.161331361436766,
positive,red,2,None,None,,,,,,,,,0,80,80,80,,,,,,,,,,,,,,,,,main,None,None,1,1.4987806999997701,384.00206980000075,None,None,1,,,,,,,,,,,,,,018,2022-05-12_19h45.15.996,Main,2022.1.1,61.161331361436766,
positive,yellow,2,None,k,,,,,,,,,0,81,81,81,,,,,,,,,,,,,,,,,main,None,None,1,1.499886499994318,386.5020741000044,None,None,1,,,,,,,,,,,,,,018,2022-05-12_19h45.15.996,Main,2022.1.1,61.161331361436766,
positive,blue,1,k,None,,,,,,,,,0,82,82,82,,,,,,,,,,,,,,,,,main,k,k,1,0.8315818999981275,389.00202379999973,None,None,0,,,,,,,,,,,,,,018,2022-05-12_19h45.15.996,Main,2022.1.1,61.161331361436766,
negative,yellow,2,k,None,,,,,,,,,0,83,83,83,,,,,,,,,,,,,,,,,main,k,k,1,1.0155137999972794,390.8353145000001,None,None,0,,,,,,,,,,,,,,018,2022-05-12_19h45.15.996,Main,2022.1.1,61.161331361436766,
positive,blue,2,k,None,,,,,,,,,0,84,84,84,,,,,,,,,,,,,,,,,main,k,k,1,0.8823913999949582,392.8543975000066,None,None,0,,,,,,,,,,,,,,018,2022-05-12_19h45.15.996,Main,2022.1.1,61.161331361436766,
positive,yellow,1,None,k,,,,,,,,,0,85,85,85,,,,,,,,,,,,,,,,,main,None,None,1,1.5011223000037717,394.7351600999973,None,None,1,,,,,,,,,,,,,,018,2022-05-12_19h45.15.996,Main,2022.1.1,61.161331361436766,
positive,blue,2,k,None,,,,,,,,,0,86,86,86,,,,,,,,,,,,,,,,,main,k,k,1,4.080022800000734,397.23521310000797,None,None,0,,,,,,,,,,,,,,018,2022-05-12_19h45.15.996,Main,2022.1.1,61.161331361436766,
positive,blue,1,k,None,,,,,,,,,0,87,87,87,,,,,,,,,,,,,,,,,main,k,k,1,0.8320995999965817,403.31840699999884,None,None,0,,,,,,,,,,,,,,018,2022-05-12_19h45.15.996,Main,2022.1.1,61.161331361436766,
negative,yellow,2,k,None,,,,,,,,,0,88,88,88,,,,,,,,,,,,,,,,,main,k,k,1,0.7486927999998443,405.1516835000075,None,None,0,,,,,,,,,,,,,,018,2022-05-12_19h45.15.996,Main,2022.1.1,61.161331361436766,
negative,blue,2,None,k,,,,,,,,,0,89,89,89,,,,,,,,,,,,,,,,,main,None,None,1,1.5010206000006292,406.9016469000053,None,None,1,,,,,,,,,,,,,,018,2022-05-12_19h45.15.996,Main,2022.1.1,61.161331361436766,
positive,yellow,2,None,k,,,,,,,,,0,90,90,90,,,,,,,,,,,,,,,,,main,None,None,1,1.4980753999989247,409.4040090000053,None,None,1,,,,,,,,,,,,,,018,2022-05-12_19h45.15.996,Main,2022.1.1,61.161331361436766,
negative,yellow,1,k,None,,,,,,,,,0,91,91,91,,,,,,,,,,,,,,,,,main,k,k,1,0.9144155999965733,411.9013855999947,None,None,0,,,,,,,,,,,,,,018,2022-05-12_19h45.15.996,Main,2022.1.1,61.161331361436766,
negative,red,2,None,None,,,,,,,,,0,92,92,92,,,,,,,,,,,,,,,,,main,None,None,1,1.5013922000071034,413.82068560000334,None,None,1,,,,,,,,,,,,,,018,2022-05-12_19h45.15.996,Main,2022.1.1,61.161331361436766,
negative,blue,2,None,k,,,,,,,,,0,93,93,93,,,,,,,,,,,,,,,,,main,None,None,1,1.5021600000036415,416.32070179999573,None,None,1,,,,,,,,,,,,,,018,2022-05-12_19h45.15.996,Main,2022.1.1,61.161331361436766,
negative,blue,1,None,k,,,,,,,,,0,94,94,94,,,,,,,,,,,,,,,,,main,None,None,1,1.4932583999907365,418.82207700000436,None,None,1,,,,,,,,,,,,,,018,2022-05-12_19h45.15.996,Main,2022.1.1,61.161331361436766,
negative,blue,1,None,k,,,,,,,,,0,95,95,95,,,,,,,,,,,,,,,,,main,None,None,1,1.4990064000012353,421.31802560000506,None,None,1,,,,,,,,,,,,,,018,2022-05-12_19h45.15.996,Main,2022.1.1,61.161331361436766,
negative,red,1,None,None,,,,,,,,,0,96,96,96,,,,,,,,,,,,,,,,,main,None,None,1,1.499831399996765,423.81801840000844,None,None,1,,,,,,,,,,,,,,018,2022-05-12_19h45.15.996,Main,2022.1.1,61.161331361436766,
positive,yellow,1,None,k,,,,,,,,,0,97,97,97,,,,,,,,,,,,,,,,,main,None,None,1,1.4978315999906044,426.31794900000386,None,None,1,,,,,,,,,,,,,,018,2022-05-12_19h45.15.996,Main,2022.1.1,61.161331361436766,
negative,yellow,1,k,None,,,,,,,,,0,98,98,98,,,,,,,,,,,,,,,,,main,k,k,1,0.9827862000092864,428.81787460000487,None,None,0,,,,,,,,,,,,,,018,2022-05-12_19h45.15.996,Main,2022.1.1,61.161331361436766,
positive,red,1,None,None,,,,,,,,,0,99,99,99,,,,,,,,,,,,,,,,,main,None,None,1,1.501045700002578,430.8011211999983,None,None,1,,,,,,,,,,,,,,018,2022-05-12_19h45.15.996,Main,2022.1.1,61.161331361436766,
positive,blue,1,k,None,,,,,,,,,0,100,100,100,,,,,,,,,,,,,,,,,main,k,k,1,0.8136356999893906,433.30112499999814,None,None,0,,,,,,,,,,,,,,018,2022-05-12_19h45.15.996,Main,2022.1.1,61.161331361436766,
negative,yellow,1,k,None,,,,,,,,,0,101,101,101,,,,,,,,,,,,,,,,,main,k,k,1,1.1990479000087362,435.12025210000866,None,None,0,,,,,,,,,,,,,,018,2022-05-12_19h45.15.996,Main,2022.1.1,61.161331361436766,
negative,blue,2,None,k,,,,,,,,,0,102,102,102,,,,,,,,,,,,,,,,,main,None,None,1,1.4987411000038264,437.31766380000045,None,None,1,,,,,,,,,,,,,,018,2022-05-12_19h45.15.996,Main,2022.1.1,61.161331361436766,
negative,yellow,2,k,None,,,,,,,,,0,103,103,103,,,,,,,,,,,,,,,,,main,k,k,1,1.2996390000043903,439.8176855000056,None,None,0,,,,,,,,,,,,,,018,2022-05-12_19h45.15.996,Main,2022.1.1,61.161331361436766,
positive,yellow,2,None,k,,,,,,,,,0,104,104,104,,,,,,,,,,,,,,,,,main,None,None,1,1.4985767000034684,442.11756929999683,None,None,1,,,,,,,,,,,,,,018,2022-05-12_19h45.15.996,Main,2022.1.1,61.161331361436766,
positive,blue,1,k,None,,,,,,,,,0,105,105,105,,,,,,,,,,,,,,,,,main,k,k,1,0.838777700002538,444.6175768999965,None,None,0,,,,,,,,,,,,,,018,2022-05-12_19h45.15.996,Main,2022.1.1,61.161331361436766,
positive,blue,2,k,None,,,,,,,,,0,106,106,106,,,,,,,,,,,,,,,,,main,k,k,1,0.7758095000026515,446.4610670999973,None,None,0,,,,,,,,,,,,,,018,2022-05-12_19h45.15.996,Main,2022.1.1,61.161331361436766,
negative,blue,1,None,k,,,,,,,,,0,107,107,107,,,,,,,,,,,,,,,,,main,None,None,1,1.50166339999123,448.2338848000072,None,None,1,,,,,,,,,,,,,,018,2022-05-12_19h45.15.996,Main,2022.1.1,61.161331361436766,
positive,yellow,2,None,k,,,,,,,,,0,108,108,108,,,,,,,,,,,,,,,,,main,None,k,0,0.9634515999932773,450.7366949999996,None,None,1,,,,,,,,,,,,,,018,2022-05-12_19h45.15.996,Main,2022.1.1,61.161331361436766,
negative,yellow,1,k,None,,,,,,,,,0,109,109,109,,,,,,,,,,,,,,,,,main,k,k,1,1.2006912999931956,453.7031552999979,None,None,0,,,,,,,,,,,,,,018,2022-05-12_19h45.15.996,Main,2022.1.1,61.161331361436766,
negative,blue,2,None,k,,,,,,,,,0,110,110,110,,,,,,,,,,,,,,,,,main,None,None,1,1.4984753000026103,455.9006236999994,None,None,1,,,,,,,,,,,,,,018,2022-05-12_19h45.15.996,Main,2022.1.1,61.161331361436766,
positive,blue,2,k,None,,,,,,,,,0,111,111,111,,,,,,,,,,,,,,,,,main,k,k,1,0.9161176000052365,458.40062939999916,None,None,0,,,,,,,,,,,,,,018,2022-05-12_19h45.15.996,Main,2022.1.1,61.161331361436766,
negative,blue,1,None,k,,,,,,,,,0,112,112,112,,,,,,,,,,,,,,,,,main,None,None,1,1.500961700003245,460.31721190000826,None,None,1,,,,,,,,,,,,,,018,2022-05-12_19h45.15.996,Main,2022.1.1,61.161331361436766,
positive,yellow,1,None,k,,,,,,,,,0,113,113,113,,,,,,,,,,,,,,,,,main,None,None,1,1.502295400001458,462.8171844000026,None,None,1,,,,,,,,,,,,,,018,2022-05-12_19h45.15.996,Main,2022.1.1,61.161331361436766,
negative,red,1,None,None,,,,,,,,,0,114,114,114,,,,,,,,,,,,,,,,,main,None,None,1,1.4934219999995548,465.320931299997,None,None,1,,,,,,,,,,,,,,018,2022-05-12_19h45.15.996,Main,2022.1.1,61.161331361436766,
positive,red,1,None,None,,,,,,,,,0,115,115,115,,,,,,,,,,,,,,,,,main,None,None,1,1.4999157000129344,467.81708130000334,None,None,1,,,,,,,,,,,,,,018,2022-05-12_19h45.15.996,Main,2022.1.1,61.161331361436766,
negative,red,2,None,None,,,,,,,,,0,116,116,116,,,,,,,,,,,,,,,,,main,None,None,1,1.5011664999910863,470.31707960000494,None,None,1,,,,,,,,,,,,,,018,2022-05-12_19h45.15.996,Main,2022.1.1,61.161331361436766,
negative,yellow,2,k,None,,,,,,,,,0,117,117,117,,,,,,,,,,,,,,,,,main,k,k,1,1.2293050000007497,472.8169649000047,None,None,0,,,,,,,,,,,,,,018,2022-05-12_19h45.15.996,Main,2022.1.1,61.161331361436766,
positive,yellow,1,None,k,,,,,,,,,0,118,118,118,,,,,,,,,,,,,,,,,main,None,None,1,1.499738200000138,475.05028219999804,None,None,1,,,,,,,,,,,,,,018,2022-05-12_19h45.15.996,Main,2022.1.1,61.161331361436766,
positive,red,2,None,None,,,,,,,,,0,119,119,119,,,,,,,,,,,,,,,,,main,None,None,1,1.5000871999945957,477.550187300003,None,None,1,,,,,,,,,,,,,,018,2022-05-12_19h45.15.996,Main,2022.1.1,61.161331361436766,
positive,blue,2,k,None,,,,,,,,,0,120,120,120,,,,,,,,,,,,,,,,,main,k,k,1,1.2969389999925625,480.0502001999994,None,None,0,,,,,,,,,,,,,,018,2022-05-12_19h45.15.996,Main,2022.1.1,61.161331361436766,
negative,red,1,None,None,,,,,,,,,0,121,121,121,,,,,,,,,,,,,,,,,main,None,None,1,1.498775400003069,482.350162200004,None,None,1,,,,,,,,,,,,,,018,2022-05-12_19h45.15.996,Main,2022.1.1,61.161331361436766,
positive,yellow,2,None,k,,,,,,,,,0,122,122,122,,,,,,,,,,,,,,,,,main,None,None,1,1.5007479000050807,484.8500786000077,None,None,1,,,,,,,,,,,,,,018,2022-05-12_19h45.15.996,Main,2022.1.1,61.161331361436766,
negative,red,2,None,None,,,,,,,,,0,123,123,123,,,,,,,,,,,,,,,,,main,None,None,1,1.4979098000039812,487.3559494000074,None,None,1,,,,,,,,,,,,,,018,2022-05-12_19h45.15.996,Main,2022.1.1,61.161331361436766,
negative,yellow,2,k,None,,,,,,,,,0,124,124,124,,,,,,,,,,,,,,,,,main,k,k,1,0.8985897999955341,489.8497597999958,None,None,0,,,,,,,,,,,,,,018,2022-05-12_19h45.15.996,Main,2022.1.1,61.161331361436766,
positive,red,1,None,None,,,,,,,,,0,125,125,125,,,,,,,,,,,,,,,,,main,None,None,1,1.4986338000016985,491.7525028000091,None,None,1,,,,,,,,,,,,,,018,2022-05-12_19h45.15.996,Main,2022.1.1,61.161331361436766,
negative,blue,2,None,k,,,,,,,,,0,126,126,126,,,,,,,,,,,,,,,,,main,None,k,0,0.7333205999893835,494.2498762000032,None,None,1,,,,,,,,,,,,,,018,2022-05-12_19h45.15.996,Main,2022.1.1,61.161331361436766,
negative,blue,1,None,k,,,,,,,,,0,127,127,127,,,,,,,,,,,,,,,,,main,None,None,1,1.4869765999901574,496.9829657000082,None,None,1,,,,,,,,,,,,,,018,2022-05-12_19h45.15.996,Main,2022.1.1,61.161331361436766,
negative,yellow,1,k,None,,,,,,,,,0,128,128,128,,,,,,,,,,,,,,,,,main,k,k,1,0.8296482000005199,499.4665934000077,None,None,0,,,,,,,,,,,,,,018,2022-05-12_19h45.15.996,Main,2022.1.1,61.161331361436766,
negative,yellow,1,k,None,,,,,,,,,0,129,129,129,,,,,,,,,,,,,,,,,main,k,k,1,0.8324117000011029,501.3021609999996,None,None,0,,,,,,,,,,,,,,018,2022-05-12_19h45.15.996,Main,2022.1.1,61.161331361436766,
positive,blue,1,k,None,,,,,,,,,0,130,130,130,,,,,,,,,,,,,,,,,main,k,k,1,0.7489315999991959,503.1330256000074,None,None,0,,,,,,,,,,,,,,018,2022-05-12_19h45.15.996,Main,2022.1.1,61.161331361436766,
negative,blue,1,None,k,,,,,,,,,0,131,131,131,,,,,,,,,,,,,,,,,main,None,None,1,1.501190900002257,504.8830525999947,None,None,1,,,,,,,,,,,,,,018,2022-05-12_19h45.15.996,Main,2022.1.1,61.161331361436766,
negative,blue,2,None,k,,,,,,,,,0,132,132,132,,,,,,,,,,,,,,,,,main,None,None,1,1.4974327999952948,507.38294250000035,None,None,1,,,,,,,,,,,,,,018,2022-05-12_19h45.15.996,Main,2022.1.1,61.161331361436766,
positive,blue,2,k,None,,,,,,,,,0,133,133,133,,,,,,,,,,,,,,,,,main,k,k,1,1.0482644000003347,509.88291590000154,None,None,0,,,,,,,,,,,,,,018,2022-05-12_19h45.15.996,Main,2022.1.1,61.161331361436766,
positive,red,2,None,None,,,,,,,,,0,134,134,134,,,,,,,,,,,,,,,,,main,None,None,1,1.501955799991265,511.93285379999725,None,None,1,,,,,,,,,,,,,,018,2022-05-12_19h45.15.996,Main,2022.1.1,61.161331361436766,
negative,yellow,2,k,None,,,,,,,,,0,135,135,135,,,,,,,,,,,,,,,,,main,k,k,1,1.3455145000043558,514.4351891999977,None,None,0,,,,,,,,,,,,,,018,2022-05-12_19h45.15.996,Main,2022.1.1,61.161331361436766,
positive,yellow,2,None,k,,,,,,,,,0,136,136,136,,,,,,,,,,,,,,,,,main,None,None,1,1.501549000007799,516.7825567999971,None,None,1,,,,,,,,,,,,,,018,2022-05-12_19h45.15.996,Main,2022.1.1,61.161331361436766,
positive,blue,1,k,None,,,,,,,,,0,137,137,137,,,,,,,,,,,,,,,,,main,k,k,1,1.1969266000087373,519.2851044999989,None,None,0,,,,,,,,,,,,,,018,2022-05-12_19h45.15.996,Main,2022.1.1,61.161331361436766,
positive,yellow,1,None,k,,,,,,,,,0,138,138,138,,,,,,,,,,,,,,,,,main,None,None,1,1.4985911999974633,521.4826676999946,None,None,1,,,,,,,,,,,,,,018,2022-05-12_19h45.15.996,Main,2022.1.1,61.161331361436766,
positive,yellow,1,None,k,,,,,,,,,0,139,139,139,,,,,,,,,,,,,,,,,main,None,None,1,1.4991793999943184,523.9825837999961,None,None,1,,,,,,,,,,,,,,018,2022-05-12_19h45.15.996,Main,2022.1.1,61.161331361436766,
positive,yellow,1,None,k,,,,,,,,,0,140,140,140,,,,,,,,,,,,,,,,,main,None,None,1,1.4995372999983374,526.4826005000068,None,None,1,,,,,,,,,,,,,,018,2022-05-12_19h45.15.996,Main,2022.1.1,61.161331361436766,
positive,blue,1,k,None,,,,,,,,,0,141,141,141,,,,,,,,,,,,,,,,,main,k,k,1,0.5981534000020474,528.9822417999967,None,None,0,,,,,,,,,,,,,,018,2022-05-12_19h45.15.996,Main,2022.1.1,61.161331361436766,
positive,blue,2,k,None,,,,,,,,,0,142,142,142,,,,,,,,,,,,,,,,,main,k,k,1,1.0663300000014715,530.5822516000044,None,None,0,,,,,,,,,,,,,,018,2022-05-12_19h45.15.996,Main,2022.1.1,61.161331361436766,
positive,yellow,2,None,k,,,,,,,,,0,143,143,143,,,,,,,,,,,,,,,,,main,None,None,1,1.5010000999900512,532.6515966000006,None,None,1,,,,,,,,,,,,,,018,2022-05-12_19h45.15.996,Main,2022.1.1,61.161331361436766,
negative,yellow,2,k,None,,,,,,,,,0,144,144,144,,,,,,,,,,,,,,,,,main,k,k,1,0.7631453000067268,535.1516392000049,None,None,0,,,,,,,,,,,,,,018,2022-05-12_19h45.15.996,Main,2022.1.1,61.161331361436766,
negative,blue,2,None,k,,,,,,,,,0,145,145,145,,,,,,,,,,,,,,,,,main,None,None,1,1.5018792000046233,536.9154265999969,None,None,1,,,,,,,,,,,,,,018,2022-05-12_19h45.15.996,Main,2022.1.1,61.161331361436766,
negative,red,1,None,None,,,,,,,,,0,146,146,146,,,,,,,,,,,,,,,,,main,None,None,1,1.4988379999995232,539.4181309999985,None,None,1,,,,,,,,,,,,,,018,2022-05-12_19h45.15.996,Main,2022.1.1,61.161331361436766,
positive,blue,1,k,None,,,,,,,,,0,147,147,147,,,,,,,,,,,,,,,,,main,k,k,1,0.7133237999951234,541.9181170999946,None,None,0,,,,,,,,,,,,,,018,2022-05-12_19h45.15.996,Main,2022.1.1,61.161331361436766,
positive,yellow,1,None,k,,,,,,,,,0,148,148,148,,,,,,,,,,,,,,,,,main,None,None,1,1.5013873999996576,543.6319564000005,None,None,1,,,,,,,,,,,,,,018,2022-05-12_19h45.15.996,Main,2022.1.1,61.161331361436766,
negative,red,2,None,None,,,,,,,,,0,149,149,149,,,,,,,,,,,,,,,,,main,None,None,1,1.4989743000041926,546.1346695999964,None,None,1,,,,,,,,,,,,,,018,2022-05-12_19h45.15.996,Main,2022.1.1,61.161331361436766,
negative,blue,1,None,k,,,,,,,,,0,150,150,150,,,,,,,,,,,,,,,,,main,None,k,0,0.7633533000043826,548.6322029000003,None,None,1,,,,,,,,,,,,,,018,2022-05-12_19h45.15.996,Main,2022.1.1,61.161331361436766,
negative,yellow,2,k,None,,,,,,,,,0,151,151,151,,,,,,,,,,,,,,,,,main,k,k,1,1.2180695999995805,551.3984562999976,None,None,0,,,,,,,,,,,,,,018,2022-05-12_19h45.15.996,Main,2022.1.1,61.161331361436766,
negative,blue,2,None,k,,,,,,,,,0,152,152,152,,,,,,,,,,,,,,,,,main,None,None,1,1.5008779000054346,553.6154715000011,None,None,1,,,,,,,,,,,,,,018,2022-05-12_19h45.15.996,Main,2022.1.1,61.161331361436766,
negative,yellow,1,k,None,,,,,,,,,0,153,153,153,,,,,,,,,,,,,,,,,main,k,k,1,1.280469200006337,556.1178407999978,None,None,0,,,,,,,,,,,,,,018,2022-05-12_19h45.15.996,Main,2022.1.1,61.161331361436766,
negative,blue,1,None,k,,,,,,,,,0,154,154,154,,,,,,,,,,,,,,,,,main,None,None,1,1.5003646000113804,558.3983129999979,None,None,1,,,,,,,,,,,,,,018,2022-05-12_19h45.15.996,Main,2022.1.1,61.161331361436766,
positive,yellow,2,None,k,,,,,,,,,0,155,155,155,,,,,,,,,,,,,,,,,main,None,None,1,1.4968416000047,560.8986885000049,None,None,1,,,,,,,,,,,,,,018,2022-05-12_19h45.15.996,Main,2022.1.1,61.161331361436766,
positive,red,2,None,None,,,,,,,,,0,156,156,156,,,,,,,,,,,,,,,,,main,None,None,1,1.4993962000007741,563.398485800004,None,None,1,,,,,,,,,,,,,,018,2022-05-12_19h45.15.996,Main,2022.1.1,61.161331361436766,
positive,red,1,None,None,,,,,,,,,0,157,157,157,,,,,,,,,,,,,,,,,main,None,None,1,1.500348200002918,565.8984032000008,None,None,1,,,,,,,,,,,,,,018,2022-05-12_19h45.15.996,Main,2022.1.1,61.161331361436766,
positive,blue,2,k,None,,,,,,,,,0,158,158,158,,,,,,,,,,,,,,,,,main,k,k,1,0.6136057999974582,568.3984124999988,None,None,0,,,,,,,,,,,,,,018,2022-05-12_19h45.15.996,Main,2022.1.1,61.161331361436766,
negative,yellow,1,k,None,,,,,,,,,0,159,159,159,,,,,,,,,,,,,,,,,main,k,k,1,1.0331069999956526,570.0147615000024,None,None,0,,,,,,,,,,,,,,018,2022-05-12_19h45.15.996,Main,2022.1.1,61.161331361436766,
negative,red,2,None,None,,,,,,,,,0,160,160,160,,,,,,,,,,,,,,,,,main,None,None,1,1.5002925000007963,572.0480807999993,None,None,1,,,,,,,,,,,,,,018,2022-05-12_19h45.15.996,Main,2022.1.1,61.161331361436766,
negative,blue,1,None,k,,,,,,,,,0,161,161,161,,,,,,,,,,,,,,,,,main,None,None,1,1.498865499990643,574.5507448999997,None,None,1,,,,,,,,,,,,,,018,2022-05-12_19h45.15.996,Main,2022.1.1,61.161331361436766,
negative,blue,1,None,k,,,,,,,,,0,162,162,162,,,,,,,,,,,,,,,,,main,None,None,1,1.5001058999914676,577.0507765000075,None,None,1,,,,,,,,,,,,,,018,2022-05-12_19h45.15.996,Main,2022.1.1,61.161331361436766,
negative,yellow,1,k,None,,,,,,,,,0,163,163,163,,,,,,,,,,,,,,,,,main,k,k,1,0.8625389999942854,579.5481563000067,None,None,0,,,,,,,,,,,,,,018,2022-05-12_19h45.15.996,Main,2022.1.1,61.161331361436766,
negative,yellow,1,k,None,,,,,,,,,0,164,164,164,,,,,,,,,,,,,,,,,main,k,k,1,0.7158542999968631,581.4147595999966,None,None,0,,,,,,,,,,,,,,018,2022-05-12_19h45.15.996,Main,2022.1.1,61.161331361436766,
positive,yellow,1,None,k,,,,,,,,,0,165,165,165,,,,,,,,,,,,,,,,,main,None,None,1,1.5045035999937681,583.131435999996,None,None,1,,,,,,,,,,,,,,018,2022-05-12_19h45.15.996,Main,2022.1.1,61.161331361436766,
negative,red,1,None,None,,,,,,,,,0,166,166,166,,,,,,,,,,,,,,,,,main,None,None,1,1.492776099999901,585.6356596999976,None,None,1,,,,,,,,,,,,,,018,2022-05-12_19h45.15.996,Main,2022.1.1,61.161331361436766,
negative,yellow,2,k,None,,,,,,,,,0,167,167,167,,,,,,,,,,,,,,,,,main,k,k,1,1.082950099997106,588.1311132999981,None,None,0,,,,,,,,,,,,,,018,2022-05-12_19h45.15.996,Main,2022.1.1,61.161331361436766,
positive,blue,2,k,None,,,,,,,,,0,168,168,168,,,,,,,,,,,,,,,,,main,k,k,1,1.098893999995198,590.2176107999985,None,None,0,,,,,,,,,,,,,,018,2022-05-12_19h45.15.996,Main,2022.1.1,61.161331361436766,
positive,red,2,None,None,,,,,,,,,0,169,169,169,,,,,,,,,,,,,,,,,main,None,None,1,1.4982180000079097,592.3146290000004,None,None,1,,,,,,,,,,,,,,018,2022-05-12_19h45.15.996,Main,2022.1.1,61.161331361436766,
positive,red,1,None,None,,,,,,,,,0,170,170,170,,,,,,,,,,,,,,,,,main,None,None,1,1.501838800002588,594.8142392000009,None,None,1,,,,,,,,,,,,,,018,2022-05-12_19h45.15.996,Main,2022.1.1,61.161331361436766,
negative,blue,2,None,k,,,,,,,,,0,171,171,171,,,,,,,,,,,,,,,,,main,None,None,1,1.4988885000057053,597.3170360000076,None,None,1,,,,,,,,,,,,,,018,2022-05-12_19h45.15.996,Main,2022.1.1,61.161331361436766,
positive,blue,2,k,None,,,,,,,,,0,172,172,172,,,,,,,,,,,,,,,,,main,k,k,1,0.6961098000028869,599.8145365999953,None,None,0,,,,,,,,,,,,,,018,2022-05-12_19h45.15.996,Main,2022.1.1,61.161331361436766,
negative,yellow,2,k,None,,,,,,,,,0,173,173,173,,,,,,,,,,,,,,,,,main,k,k,1,0.7489968000008957,601.5141193000018,None,None,0,,,,,,,,,,,,,,018,2022-05-12_19h45.15.996,Main,2022.1.1,61.161331361436766,
positive,yellow,2,None,k,,,,,,,,,0,174,174,174,,,,,,,,,,,,,,,,,main,None,None,1,1.501696899998933,603.2641155000019,None,None,1,,,,,,,,,,,,,,018,2022-05-12_19h45.15.996,Main,2022.1.1,61.161331361436766,
negative,blue,2,None,k,,,,,,,,,0,175,175,175,,,,,,,,,,,,,,,,,main,None,None,1,1.4987969000067096,605.7668319000077,None,None,1,,,,,,,,,,,,,,018,2022-05-12_19h45.15.996,Main,2022.1.1,61.161331361436766,
positive,blue,1,k,None,,,,,,,,,0,176,176,176,,,,,,,,,,,,,,,,,main,k,k,1,0.7964579999970738,608.2667636999977,None,None,0,,,,,,,,,,,,,,018,2022-05-12_19h45.15.996,Main,2022.1.1,61.161331361436766,
positive,yellow,1,None,k,,,,,,,,,0,177,177,177,,,,,,,,,,,,,,,,,main,None,None,1,1.4995666000031633,610.0642249000084,None,None,1,,,,,,,,,,,,,,018,2022-05-12_19h45.15.996,Main,2022.1.1,61.161331361436766,
positive,blue,1,k,None,,,,,,,,,0,178,178,178,,,,,,,,,,,,,,,,,main,k,k,1,1.1484649000049103,612.5639429000003,None,None,0,,,,,,,,,,,,,,018,2022-05-12_19h45.15.996,Main,2022.1.1,61.161331361436766,
positive,yellow,2,None,k,,,,,,,,,0,179,179,179,,,,,,,,,,,,,,,,,main,None,None,1,1.4986162999994121,614.7166206999973,None,None,1,,,,,,,,,,,,,,018,2022-05-12_19h45.15.996,Main,2022.1.1,61.161331361436766,
positive,blue,1,k,None,,,,,,,,,0,180,180,180,,,,,,,,,,,,,,,,,main,k,k,1,1.0835165000025881,617.2140967000014,None,None,0,,,,,,,,,,,,,,018,2022-05-12_19h45.15.996,Main,2022.1.1,61.161331361436766,
negative,red,1,None,None,,,,,,,,,0,181,181,181,,,,,,,,,,,,,,,,,main,None,k,0,1.431685000003199,619.2973350999964,None,None,1,,,,,,,,,,,,,,018,2022-05-12_19h45.15.996,Main,2022.1.1,61.161331361436766,
negative,blue,1,None,k,,,,,,,,,0,182,182,182,,,,,,,,,,,,,,,,,main,None,None,1,1.5012334000057308,622.7306419000088,None,None,1,,,,,,,,,,,,,,018,2022-05-12_19h45.15.996,Main,2022.1.1,61.161331361436766,
negative,yellow,2,k,None,,,,,,,,,0,183,183,183,,,,,,,,,,,,,,,,,main,k,k,1,0.8979568000067957,625.2305822000053,None,None,0,,,,,,,,,,,,,,018,2022-05-12_19h45.15.996,Main,2022.1.1,61.161331361436766,
positive,yellow,2,None,k,,,,,,,,,0,184,184,184,,,,,,,,,,,,,,,,,main,None,None,1,1.4988076000008732,627.130515900004,None,None,1,,,,,,,,,,,,,,018,2022-05-12_19h45.15.996,Main,2022.1.1,61.161331361436766,
positive,yellow,1,None,k,,,,,,,,,0,185,185,185,,,,,,,,,,,,,,,,,main,None,None,1,1.4986380000045756,629.6364067999966,None,None,1,,,,,,,,,,,,,,018,2022-05-12_19h45.15.996,Main,2022.1.1,61.161331361436766,
positive,red,2,None,None,,,,,,,,,0,186,186,186,,,,,,,,,,,,,,,,,main,None,None,1,1.4991711999900872,632.1304341000068,None,None,1,,,,,,,,,,,,,,018,2022-05-12_19h45.15.996,Main,2022.1.1,61.161331361436766,
positive,blue,1,k,None,,,,,,,,,0,187,187,187,,,,,,,,,,,,,,,,,main,k,k,1,1.5658676000020932,634.6307637999998,None,None,0,,,,,,,,,,,,,,018,2022-05-12_19h45.15.996,Main,2022.1.1,61.161331361436766,
negative,yellow,1,k,None,,,,,,,,,0,188,188,188,,,,,,,,,,,,,,,,,main,k,k,1,0.8985461000120267,638.197050200004,None,None,0,,,,,,,,,,,,,,018,2022-05-12_19h45.15.996,Main,2022.1.1,61.161331361436766,
positive,yellow,2,None,k,,,,,,,,,0,189,189,189,,,,,,,,,,,,,,,,,main,None,None,1,1.4992425999953412,640.0970229999948,None,None,1,,,,,,,,,,,,,,018,2022-05-12_19h45.15.996,Main,2022.1.1,61.161331361436766,
negative,yellow,2,k,None,,,,,,,,,0,190,190,190,,,,,,,,,,,,,,,,,main,k,k,1,1.0652111000090372,642.5966210000042,None,None,0,,,,,,,,,,,,,,018,2022-05-12_19h45.15.996,Main,2022.1.1,61.161331361436766,
negative,yellow,1,k,None,,,,,,,,,0,191,191,191,,,,,,,,,,,,,,,,,main,k,k,1,1.149179499989259,644.6661004000052,None,None,0,,,,,,,,,,,,,,018,2022-05-12_19h45.15.996,Main,2022.1.1,61.161331361436766,
positive,blue,2,k,None,,,,,,,,,0,192,192,192,,,,,,,,,,,,,,,,,main,k,k,1,1.1819110999931581,646.8160179999977,None,None,0,,,,,,,,,,,,,,018,2022-05-12_19h45.15.996,Main,2022.1.1,61.161331361436766,
positive,yellow,1,None,k,,,,,,,,,0,193,193,193,,,,,,,,,,,,,,,,,main,None,None,1,1.501535099989269,648.9964875000005,None,None,1,,,,,,,,,,,,,,018,2022-05-12_19h45.15.996,Main,2022.1.1,61.161331361436766,
negative,red,2,None,None,,,,,,,,,0,194,194,194,,,,,,,,,,,,,,,,,main,None,None,1,1.4972638000035658,651.4991286000004,None,None,1,,,,,,,,,,,,,,018,2022-05-12_19h45.15.996,Main,2022.1.1,61.161331361436766,
positive,red,1,None,None,,,,,,,,,0,195,195,195,,,,,,,,,,,,,,,,,main,None,None,1,1.4985325999878114,653.9990456000087,None,None,1,,,,,,,,,,,,,,018,2022-05-12_19h45.15.996,Main,2022.1.1,61.161331361436766,
negative,blue,1,None,k,,,,,,,,,0,196,196,196,,,,,,,,,,,,,,,,,main,None,None,1,1.5005712999991374,656.4963313000044,None,None,1,,,,,,,,,,,,,,018,2022-05-12_19h45.15.996,Main,2022.1.1,61.161331361436766,
positive,blue,2,k,None,,,,,,,,,0,197,197,197,,,,,,,,,,,,,,,,,main,k,k,1,0.6970275999919977,658.9991461000027,None,None,0,,,,,,,,,,,,,,018,2022-05-12_19h45.15.996,Main,2022.1.1,61.161331361436766,
negative,blue,2,None,k,,,,,,,,,0,198,198,198,,,,,,,,,,,,,,,,,main,None,None,1,1.4986083999974653,660.6990624000027,None,None,1,,,,,,,,,,,,,,018,2022-05-12_19h45.15.996,Main,2022.1.1,61.161331361436766,
negative,blue,2,None,k,,,,,,,,,0,199,199,199,,,,,,,,,,,,,,,,,main,None,None,1,1.4998798000015086,663.196494600008,None,None,1,,,,,,,,,,,,,,018,2022-05-12_19h45.15.996,Main,2022.1.1,61.161331361436766,
positive,blue,2,k,None,,,,,,,,,0,200,200,200,,,,,,,,,,,,,,,,,main,k,k,1,0.7815621000045212,665.6988301999954,None,None,0,,,,,,,,,,,,,,018,2022-05-12_19h45.15.996,Main,2022.1.1,61.161331361436766,
positive,blue,2,k,None,,,,,,,,,0,201,201,201,,,,,,,,,,,,,,,,,main,k,k,1,1.9157497999985935,667.4797524000023,None,None,0,,,,,,,,,,,,,,018,2022-05-12_19h45.15.996,Main,2022.1.1,61.161331361436766,
negative,yellow,2,k,None,,,,,,,,,0,202,202,202,,,,,,,,,,,,,,,,,main,k,k,1,0.8820616000011796,671.3962907999958,None,None,0,,,,,,,,,,,,,,018,2022-05-12_19h45.15.996,Main,2022.1.1,61.161331361436766,
positive,red,1,None,None,,,,,,,,,0,203,203,203,,,,,,,,,,,,,,,,,main,None,None,1,1.5002934000076493,673.2796295000007,None,None,1,,,,,,,,,,,,,,018,2022-05-12_19h45.15.996,Main,2022.1.1,61.161331361436766,
negative,blue,2,None,k,,,,,,,,,0,204,204,204,,,,,,,,,,,,,,,,,main,None,None,1,1.4978208000102313,675.7795163999981,None,None,1,,,,,,,,,,,,,,018,2022-05-12_19h45.15.996,Main,2022.1.1,61.161331361436766,
negative,red,1,None,None,,,,,,,,,0,205,205,205,,,,,,,,,,,,,,,,,main,None,None,1,1.499109900003532,678.2795194000064,None,None,1,,,,,,,,,,,,,,018,2022-05-12_19h45.15.996,Main,2022.1.1,61.161331361436766,
negative,blue,2,None,k,,,,,,,,,0,206,206,206,,,,,,,,,,,,,,,,,main,None,None,1,1.5009539000020595,680.7794583000068,None,None,1,,,,,,,,,,,,,,018,2022-05-12_19h45.15.996,Main,2022.1.1,61.161331361436766,
negative,yellow,2,k,None,,,,,,,,,0,207,207,207,,,,,,,,,,,,,,,,,main,k,k,1,0.8796498000010615,683.2794031000085,None,None,0,,,,,,,,,,,,,,018,2022-05-12_19h45.15.996,Main,2022.1.1,61.161331361436766,
positive,yellow,2,None,k,,,,,,,,,0,208,208,208,,,,,,,,,,,,,,,,,main,None,None,1,1.4990767999988748,685.1627355999954,None,None,1,,,,,,,,,,,,,,018,2022-05-12_19h45.15.996,Main,2022.1.1,61.161331361436766,
negative,yellow,1,k,None,,,,,,,,,0,209,209,209,,,,,,,,,,,,,,,,,main,k,k,1,1.382011900001089,687.6624277000083,None,None,0,,,,,,,,,,,,,,018,2022-05-12_19h45.15.996,Main,2022.1.1,61.161331361436766,
negative,red,2,None,None,,,,,,,,,0,210,210,210,,,,,,,,,,,,,,,,,main,None,None,1,1.5018653000006452,690.0460311000061,None,None,1,,,,,,,,,,,,,,018,2022-05-12_19h45.15.996,Main,2022.1.1,61.161331361436766,
negative,blue,1,None,k,,,,,,,,,0,211,211,211,,,,,,,,,,,,,,,,,main,None,None,1,1.4955765999911819,692.5459749000001,None,None,1,,,,,,,,,,,,,,018,2022-05-12_19h45.15.996,Main,2022.1.1,61.161331361436766,
negative,yellow,1,k,None,,,,,,,,,0,212,212,212,,,,,,,,,,,,,,,,,main,k,k,1,0.7992646999919089,695.0457943000074,None,None,0,,,,,,,,,,,,,,018,2022-05-12_19h45.15.996,Main,2022.1.1,61.161331361436766,
positive,blue,1,k,None,,,,,,,,,0,213,213,213,,,,,,,,,,,,,,,,,main,k,k,1,0.732480199993006,696.8482196999976,None,None,0,,,,,,,,,,,,,,018,2022-05-12_19h45.15.996,Main,2022.1.1,61.161331361436766,
positive,blue,1,k,None,,,,,,,,,0,214,214,214,,,,,,,,,,,,,,,,,main,k,k,1,0.7154372000077274,698.5791580000077,None,None,0,,,,,,,,,,,,,,018,2022-05-12_19h45.15.996,Main,2022.1.1,61.161331361436766,
positive,yellow,1,None,k,,,,,,,,,0,215,215,215,,,,,,,,,,,,,,,,,main,None,None,1,1.5015104000049178,700.2954490999982,None,None,1,,,,,,,,,,,,,,018,2022-05-12_19h45.15.996,Main,2022.1.1,61.161331361436766,
positive,yellow,1,None,k,,,,,,,,,0,216,216,216,,,,,,,,,,,,,,,,,main,None,None,1,1.4964298999984749,702.7957673000055,None,None,1,,,,,,,,,,,,,,018,2022-05-12_19h45.15.996,Main,2022.1.1,61.161331361436766,
positive,yellow,2,None,k,,,,,,,,,0,217,217,217,,,,,,,,,,,,,,,,,main,None,k,0,0.9492442999908235,705.2956425000011,None,None,1,,,,,,,,,,,,,,018,2022-05-12_19h45.15.996,Main,2022.1.1,61.161331361436766,
negative,blue,1,None,k,,,,,,,,,0,218,218,218,,,,,,,,,,,,,,,,,main,None,None,1,1.503354100001161,708.2457740999962,None,None,1,,,,,,,,,,,,,,018,2022-05-12_19h45.15.996,Main,2022.1.1,61.161331361436766,
positive,red,2,None,None,,,,,,,,,0,219,219,219,,,,,,,,,,,,,,,,,main,None,None,1,1.496223900001496,710.7455344000045,None,None,1,,,,,,,,,,,,,,018,2022-05-12_19h45.15.996,Main,2022.1.1,61.161331361436766,
positive,yellow,1,None,k,,,,,,,,,0,220,220,220,,,,,,,,,,,,,,,,,main,None,None,1,1.4999282000062522,713.2454202000081,None,None,1,,,,,,,,,,,,,,018,2022-05-12_19h45.15.996,Main,2022.1.1,61.161331361436766,
positive,blue,1,k,None,,,,,,,,,0,221,221,221,,,,,,,,,,,,,,,,,main,k,k,1,1.115454700004193,715.7455655000085,None,None,0,,,,,,,,,,,,,,018,2022-05-12_19h45.15.996,Main,2022.1.1,61.161331361436766,
positive,yellow,2,None,k,,,,,,,,,0,222,222,222,,,,,,,,,,,,,,,,,main,None,None,1,1.5004301000008127,717.861765900001,None,None,1,,,,,,,,,,,,,,018,2022-05-12_19h45.15.996,Main,2022.1.1,61.161331361436766,
negative,yellow,1,k,None,,,,,,,,,0,223,223,223,,,,,,,,,,,,,,,,,main,k,k,1,0.8143405999871902,720.3645410000026,None,None,0,,,,,,,,,,,,,,018,2022-05-12_19h45.15.996,Main,2022.1.1,61.161331361436766,
positive,yellow,2,None,k,,,,,,,,,0,224,224,224,,,,,,,,,,,,,,,,,main,None,None,1,1.5006781999982195,722.1811162999948,None,None,1,,,,,,,,,,,,,,018,2022-05-12_19h45.15.996,Main,2022.1.1,61.161331361436766,
negative,yellow,2,k,None,,,,,,,,,0,225,225,225,,,,,,,,,,,,,,,,,main,k,k,1,0.8289521999977296,724.6785785999964,None,None,0,,,,,,,,,,,,,,018,2022-05-12_19h45.15.996,Main,2022.1.1,61.161331361436766,
negative,blue,2,None,k,,,,,,,,,0,226,226,226,,,,,,,,,,,,,,,,,main,None,None,1,1.5015426999889314,726.5115880000085,None,None,1,,,,,,,,,,,,,,018,2022-05-12_19h45.15.996,Main,2022.1.1,61.161331361436766,
positive,red,2,None,None,,,,,,,,,0,227,227,227,,,,,,,,,,,,,,,,,main,None,None,1,1.4968052000040188,729.0142381000041,None,None,1,,,,,,,,,,,,,,018,2022-05-12_19h45.15.996,Main,2022.1.1,61.161331361436766,
positive,blue,2,k,None,,,,,,,,,0,228,228,228,,,,,,,,,,,,,,,,,main,k,k,1,0.6988463000016054,731.5142805000069,None,None,0,,,,,,,,,,,,,,018,2022-05-12_19h45.15.996,Main,2022.1.1,61.161331361436766,
negative,blue,1,None,k,,,,,,,,,0,229,229,229,,,,,,,,,,,,,,,,,main,None,None,1,1.5023885999980848,733.2114555000007,None,None,1,,,,,,,,,,,,,,018,2022-05-12_19h45.15.996,Main,2022.1.1,61.161331361436766,
positive,yellow,1,None,k,,,,,,,,,0,230,230,230,,,,,,,,,,,,,,,,,main,None,None,1,1.4954353999928571,735.7141950000077,None,None,1,,,,,,,,,,,,,,018,2022-05-12_19h45.15.996,Main,2022.1.1,61.161331361436766,
negative,blue,2,None,k,,,,,,,,,0,231,231,231,,,,,,,,,,,,,,,,,main,None,None,1,1.4995455000025686,738.211635300002,None,None,1,,,,,,,,,,,,,,018,2022-05-12_19h45.15.996,Main,2022.1.1,61.161331361436766,
negative,red,1,None,None,,,,,,,,,0,232,232,232,,,,,,,,,,,,,,,,,main,None,None,1,1.5007812999974703,740.7112996000069,None,None,1,,,,,,,,,,,,,,018,2022-05-12_19h45.15.996,Main,2022.1.1,61.161331361436766,
positive,blue,2,k,None,,,,,,,,,0,233,233,233,,,,,,,,,,,,,,,,,main,k,k,1,0.9632937999995193,743.2140440000076,None,None,0,,,,,,,,,,,,,,018,2022-05-12_19h45.15.996,Main,2022.1.1,61.161331361436766,
negative,yellow,1,k,None,,,,,,,,,0,234,234,234,,,,,,,,,,,,,,,,,main,k,k,1,1.1156559999944875,745.1806945999997,None,None,0,,,,,,,,,,,,,,018,2022-05-12_19h45.15.996,Main,2022.1.1,61.161331361436766,
negative,yellow,2,k,None,,,,,,,,,0,235,235,235,,,,,,,,,,,,,,,,,main,k,k,1,1.9655295999982627,747.2947930000082,None,None,0,,,,,,,,,,,,,,018,2022-05-12_19h45.15.996,Main,2022.1.1,61.161331361436766,
positive,red,1,None,None,,,,,,,,,0,236,236,236,,,,,,,,,,,,,,,,,main,None,None,1,1.506631299998844,751.2614184999984,None,None,1,,,,,,,,,,,,,,018,2022-05-12_19h45.15.996,Main,2022.1.1,61.161331361436766,
negative,red,2,None,None,,,,,,,,,0,237,237,237,,,,,,,,,,,,,,,,,main,None,None,1,1.4973377999995137,753.7655378000054,None,None,1,,,,,,,,,,,,,,018,2022-05-12_19h45.15.996,Main,2022.1.1,61.161331361436766,
negative,blue,1,None,k,,,,,,,,,0,238,238,238,,,,,,,,,,,,,,,,,main,None,None,1,1.4953734000009717,756.2636820000043,None,None,1,,,,,,,,,,,,,,018,2022-05-12_19h45.15.996,Main,2022.1.1,61.161331361436766,
positive,blue,1,k,None,,,,,,,,,0,239,239,239,,,,,,,,,,,,,,,,,main,k,k,1,0.6646402000042144,758.7612593999947,None,None,0,,,,,,,,,,,,,,018,2022-05-12_19h45.15.996,Main,2022.1.1,61.161331361436766,
,,,,,,,,,,,,,,,,,,,,,,,,,,,,,,,,,,,,,,,,,,,,,,,,,,,,,760.4275651000062,None,,,,,,
