distractor,target,set,ans1,ans2,rep_loop4.thisRepN,rep_loop4.thisTrialN,rep_loop4.thisN,rep_loop4.thisIndex,st2_prac_loop.thisRepN,st2_prac_loop.thisTrialN,st2_prac_loop.thisN,st2_prac_loop.thisIndex,st2_main_loop.thisRepN,st2_main_loop.thisTrialN,st2_main_loop.thisN,st2_main_loop.thisIndex,image_4.started,image_4.stopped,sound_2.started,sound_2.stopped,key_resp_3.keys,key_resp_3.rt,image_5.started,image_5.stopped,st_prac_back.started,st_prac_back.stopped,st_prac_text.started,st_prac_text.stopped,st_fix_back.started,st_fix_back.stopped,st_fix_2.started,st_fix_2.stopped,main_prac,st_ans,st_res,st_corr,st_rt,st_back.started,st_back.stopped,st2_resp.keys,st2_resp.corr,st_main_back.started,st_main_back.stopped,st_main_text.started,st_main_text.stopped,mouse_4.x,mouse_4.y,mouse_4.leftButton,mouse_4.midButton,mouse_4.rightButton,mouse_4.started,mouse_4.stopped,text_2.started,text_2.stopped,id*,date,expName,psychopyVersion,frameRate,
negative,yellow,1,k,None,,,,,0,0,0,0,,,,,29.8709988000046,None,32.9636532000266,None,space,24.774651499988977,57.76319170001079,None,59.86317820000113,None,59.86317820000113,None,61.86302000001888,None,61.86302000001888,None,prac,None,None,1,1.508449799992377,63.868671100004576,None,None,1,,,,,,,,,,,,,,019,2022-05-13_15h45.11.886,Main,2022.1.1,60.00776500803203,
positive,red,2,None,None,,,,,0,1,1,1,,,,,,,,,,,,,,,,,,,,,prac,None,None,1,1.4986701000016183,66.37640160002047,None,None,1,,,,,,,,,,,,,,019,2022-05-13_15h45.11.886,Main,2022.1.1,60.00776500803203,
negative,blue,2,None,k,,,,,0,2,2,2,,,,,,,,,,,,,,,,,,,,,prac,k,k,1,0.9484152999939397,68.89309409999987,None,None,0,,,,,,,,,,,,,,019,2022-05-13_15h45.11.886,Main,2022.1.1,60.00776500803203,
positive,yellow,1,None,k,,,,,0,3,3,3,,,,,,,,,,,,,,,,,,,,,prac,k,k,1,1.06574369998998,70.82634660002077,None,None,0,,,,,,,,,,,,,,019,2022-05-13_15h45.11.886,Main,2022.1.1,60.00776500803203,
negative,blue,2,None,k,,,,,0,4,4,4,,,,,,,,,,,,,,,,,,,,,prac,k,k,1,0.9823571000015363,72.89323720001266,None,None,0,,,,,,,,,,,,,,019,2022-05-13_15h45.11.886,Main,2022.1.1,60.00776500803203,
negative,blue,1,None,k,,,,,0,5,5,5,,,,,,,,,,,,,,,,,,,,,prac,k,k,1,1.2998048999870662,74.87654520000797,None,None,0,,,,,,,,,,,,,,019,2022-05-13_15h45.11.886,Main,2022.1.1,60.00776500803203,
negative,yellow,2,k,None,,,,,0,6,6,6,,,,,,,,,,,,,,,,,,,,,prac,None,None,1,1.4988105999946129,77.17637480000849,None,None,1,,,,,,,,,,,,,,019,2022-05-13_15h45.11.886,Main,2022.1.1,60.00776500803203,
negative,red,1,None,None,,,,,0,7,7,7,,,,,,,,,,,,,,,,,,,,,prac,None,None,1,1.4987275000021327,79.676403999998,None,None,1,,,,,,,,,,,,,,019,2022-05-13_15h45.11.886,Main,2022.1.1,60.00776500803203,
positive,yellow,2,None,k,,,,,0,8,8,8,,,,,,,,,,,,,,,,,,,,,prac,k,k,1,5.1314691999868955,82.17914590000873,None,None,0,,,,,,,,,,,,,,019,2022-05-13_15h45.11.886,Main,2022.1.1,60.00776500803203,
negative,yellow,1,k,None,,,,,0,9,9,9,,,,,,,,,,,,,,,,,,,,,prac,None,None,1,1.5010899000044446,89.30958480000845,None,None,1,,,,,,,,,,,,,,019,2022-05-13_15h45.11.886,Main,2022.1.1,60.00776500803203,
positive,yellow,2,None,k,,,,,0,10,10,10,,,,,,,,,,,,,,,,,,,,,prac,k,k,1,3.129409300017869,91.8095186999999,None,None,0,,,,,,,,,,,,,,019,2022-05-13_15h45.11.886,Main,2022.1.1,60.00776500803203,
negative,yellow,2,k,None,,,,,0,11,11,11,,,,,,,,,,,,,,,,,,,,,prac,None,None,1,1.499057700013509,96.94577940000454,None,None,1,,,,,,,,,,,,,,019,2022-05-13_15h45.11.886,Main,2022.1.1,60.00776500803203,
negative,red,2,None,None,,,,,0,12,12,12,,,,,,,,,,,,,,,,,,,,,prac,None,None,1,1.500319099985063,99.44268200002261,None,None,1,,,,,,,,,,,,,,019,2022-05-13_15h45.11.886,Main,2022.1.1,60.00776500803203,
positive,red,1,None,None,,,,,0,13,13,13,,,,,,,,,,,,,,,,,,,,,prac,None,None,1,1.4966427000181284,101.94561770002474,None,None,1,,,,,,,,,,,,,,019,2022-05-13_15h45.11.886,Main,2022.1.1,60.00776500803203,
positive,blue,2,k,None,,,,,0,14,14,14,,,,,,,,,,,,,,,,,,,,,prac,None,None,1,1.4982297999958973,104.44227950001368,None,None,1,,,,,,,,,,,,,,019,2022-05-13_15h45.11.886,Main,2022.1.1,60.00776500803203,
positive,blue,1,k,None,,,,,0,15,15,15,,,,,,,,,,,,,,,,,,,,,prac,None,None,1,1.5019877000013366,106.94553990001441,None,None,1,,,,,,,,,,,,,,019,2022-05-13_15h45.11.886,Main,2022.1.1,60.00776500803203,
negative,blue,1,None,k,,,,,0,16,16,16,,,,,,,,,,,,,,,,,,,,,prac,k,k,1,2.7458783999900334,109.44548850000137,None,None,0,,,,,,,,,,,,,,019,2022-05-13_15h45.11.886,Main,2022.1.1,60.00776500803203,
positive,blue,2,k,None,,,,,0,17,17,17,,,,,,,,,,,,,,,,,,,,,prac,None,None,1,1.5011172000085935,114.19239260000177,None,None,1,,,,,,,,,,,,,,019,2022-05-13_15h45.11.886,Main,2022.1.1,60.00776500803203,
positive,blue,1,k,None,,,,,0,18,18,18,,,,,,,,,,,,,,,,,,,,,prac,None,None,1,1.4986151999910362,116.6953728000226,None,None,1,,,,,,,,,,,,,,019,2022-05-13_15h45.11.886,Main,2022.1.1,60.00776500803203,
positive,yellow,1,None,k,,,,,0,19,19,19,,,,,,,,,,,,,,,,,,,,,prac,k,k,1,1.012691400013864,119.19530360001954,None,None,0,,,,,,,,,,,,,,019,2022-05-13_15h45.11.886,Main,2022.1.1,60.00776500803203,
negative,yellow,1,k,None,,,,,1,0,20,0,,,,,,,,,,,,,,,,,,,,,prac,None,None,1,1.5031890000100248,121.20856610001647,None,None,1,,,,,,,,,,,,,,019,2022-05-13_15h45.11.886,Main,2022.1.1,60.00776500803203,
positive,red,2,None,None,,,,,1,1,21,1,,,,,,,,,,,,,,,,,,,,,prac,None,None,1,1.4978459999838378,123.71191480002017,None,None,1,,,,,,,,,,,,,,019,2022-05-13_15h45.11.886,Main,2022.1.1,60.00776500803203,
negative,blue,2,None,k,,,,,1,2,22,2,,,,,,,,,,,,,,,,,,,,,prac,k,k,1,1.1471928000100888,126.20882690002327,None,None,0,,,,,,,,,,,,,,019,2022-05-13_15h45.11.886,Main,2022.1.1,60.00776500803203,
positive,yellow,1,None,k,,,,,1,3,23,3,,,,,,,,,,,,,,,,,,,,,prac,k,k,1,0.815279600006761,128.36175640000147,None,None,0,,,,,,,,,,,,,,019,2022-05-13_15h45.11.886,Main,2022.1.1,60.00776500803203,
negative,blue,2,None,k,,,,,1,4,24,4,,,,,,,,,,,,,,,,,,,,,prac,k,k,1,1.1644428000145126,130.17540340000414,None,None,0,,,,,,,,,,,,,,019,2022-05-13_15h45.11.886,Main,2022.1.1,60.00776500803203,
negative,blue,1,None,k,,,,,1,5,25,5,,,,,,,,,,,,,,,,,,,,,prac,k,k,1,0.9657683000259567,132.3419974000135,None,None,0,,,,,,,,,,,,,,019,2022-05-13_15h45.11.886,Main,2022.1.1,60.00776500803203,
negative,yellow,2,k,None,,,,,1,6,26,6,,,,,,,,,,,,,,,,,,,,,prac,None,None,1,1.4988369999919087,134.3086328000063,None,None,1,,,,,,,,,,,,,,019,2022-05-13_15h45.11.886,Main,2022.1.1,60.00776500803203,
negative,red,1,None,None,,,,,1,7,27,7,,,,,,,,,,,,,,,,,,,,,prac,None,None,1,1.4996007999870926,136.80855060002068,None,None,1,,,,,,,,,,,,,,019,2022-05-13_15h45.11.886,Main,2022.1.1,60.00776500803203,
positive,yellow,2,None,k,,,,,1,8,28,8,,,,,,,,,,,,,,,,,,,,,prac,k,k,1,1.2150829999882262,139.30825540001388,None,None,0,,,,,,,,,,,,,,019,2022-05-13_15h45.11.886,Main,2022.1.1,60.00776500803203,
negative,yellow,1,k,None,,,,,1,9,29,9,,,,,,,,,,,,,,,,,,,,,prac,None,None,1,1.4989111000031698,141.52817130001495,None,None,1,,,,,,,,,,,,,,019,2022-05-13_15h45.11.886,Main,2022.1.1,60.00776500803203,
positive,yellow,2,None,k,,,,,1,10,30,10,,,,,,,,,,,,,,,,,,,,,prac,k,k,1,0.8159725999867078,144.02512659999775,None,None,0,,,,,,,,,,,,,,019,2022-05-13_15h45.11.886,Main,2022.1.1,60.00776500803203,
negative,yellow,2,k,None,,,,,1,11,31,11,,,,,,,,,,,,,,,,,,,,,prac,None,None,1,1.5022077999892645,145.84176490001846,None,None,1,,,,,,,,,,,,,,019,2022-05-13_15h45.11.886,Main,2022.1.1,60.00776500803203,
negative,red,2,None,None,,,,,1,12,32,12,,,,,,,,,,,,,,,,,,,,,prac,None,None,1,1.493798199982848,148.3413656000048,None,None,1,,,,,,,,,,,,,,019,2022-05-13_15h45.11.886,Main,2022.1.1,60.00776500803203,
positive,red,1,None,None,,,,,1,13,33,13,,,,,,,,,,,,,,,,,,,,,prac,None,None,1,1.49767530002282,150.84173520002514,None,None,1,,,,,,,,,,,,,,019,2022-05-13_15h45.11.886,Main,2022.1.1,60.00776500803203,
positive,blue,2,k,None,,,,,1,14,34,14,,,,,,,,,,,,,,,,,,,,,prac,None,None,1,1.4969650999992155,153.34153440000955,None,None,1,,,,,,,,,,,,,,019,2022-05-13_15h45.11.886,Main,2022.1.1,60.00776500803203,
positive,blue,1,k,None,,,,,1,15,35,15,,,,,,,,,,,,,,,,,,,,,prac,None,None,1,1.497704799985513,155.84150950002368,None,None,1,,,,,,,,,,,,,,019,2022-05-13_15h45.11.886,Main,2022.1.1,60.00776500803203,
negative,blue,1,None,k,,,,,1,16,36,16,,,,,,,,,,,,,,,,,,,,,prac,k,k,1,0.8351160000020172,158.34114689999842,None,None,0,,,,,,,,,,,,,,019,2022-05-13_15h45.11.886,Main,2022.1.1,60.00776500803203,
positive,blue,2,k,None,,,,,1,17,37,17,,,,,,,,,,,,,,,,,,,,,prac,None,None,1,1.4987735000031535,160.17481029999908,None,None,1,,,,,,,,,,,,,,019,2022-05-13_15h45.11.886,Main,2022.1.1,60.00776500803203,
positive,blue,1,k,None,,,,,1,18,38,18,,,,,,,,,,,,,,,,,,,,,prac,None,None,1,1.4989970999886282,162.67474950000178,None,None,1,,,,,,,,,,,,,,019,2022-05-13_15h45.11.886,Main,2022.1.1,60.00776500803203,
positive,yellow,1,None,k,,,,,1,19,39,19,,,,,,,,,,,,,,,,,,,,,prac,k,k,1,0.7810165999981109,165.17477340000914,None,None,0,,,,,,,,,,,,,,019,2022-05-13_15h45.11.886,Main,2022.1.1,60.00776500803203,
,,,,,,,,,,,,,,,,,,,,,,,,,,,,,,,,,,,,,,,,,,166.9576231999963,None,166.9576231999963,None,0.043518517,-0.10555556,0,0,0,0.012454800016712397,None,,,019,2022-05-13_15h45.11.886,Main,2022.1.1,60.00776500803203,
negative,yellow,2,k,None,,,,,,,,,0,0,0,0,,,,,,,,,,,,,168.72463130002143,None,168.72463130002143,None,main,None,None,1,1.5062743999878876,170.762543800025,None,None,1,,,,,,,,,,,,,,019,2022-05-13_15h45.11.886,Main,2022.1.1,60.00776500803203,
positive,red,1,None,None,,,,,,,,,0,1,1,1,,,,,,,,,,,,,,,,,main,None,None,1,1.49628799999482,173.27452100001392,None,None,1,,,,,,,,,,,,,,019,2022-05-13_15h45.11.886,Main,2022.1.1,60.00776500803203,
positive,blue,2,k,None,,,,,,,,,0,2,2,2,,,,,,,,,,,,,,,,,main,None,None,1,1.4982809000066482,175.77434810000705,None,None,1,,,,,,,,,,,,,,019,2022-05-13_15h45.11.886,Main,2022.1.1,60.00776500803203,
positive,blue,1,k,None,,,,,,,,,0,3,3,3,,,,,,,,,,,,,,,,,main,None,None,1,1.49905569999828,178.27433340001153,None,None,1,,,,,,,,,,,,,,019,2022-05-13_15h45.11.886,Main,2022.1.1,60.00776500803203,
negative,yellow,2,k,None,,,,,,,,,0,4,4,4,,,,,,,,,,,,,,,,,main,None,None,1,1.502787300007185,180.77438670000993,None,None,1,,,,,,,,,,,,,,019,2022-05-13_15h45.11.886,Main,2022.1.1,60.00776500803203,
positive,yellow,2,None,k,,,,,,,,,0,5,5,5,,,,,,,,,,,,,,,,,main,k,k,1,0.7019944000057876,183.27430430002278,None,None,0,,,,,,,,,,,,,,019,2022-05-13_15h45.11.886,Main,2022.1.1,60.00776500803203,
negative,blue,2,None,k,,,,,,,,,0,6,6,6,,,,,,,,,,,,,,,,,main,k,k,1,1.4256438000011258,184.98607549999724,None,None,0,,,,,,,,,,,,,,019,2022-05-13_15h45.11.886,Main,2022.1.1,60.00776500803203,
positive,red,2,None,None,,,,,,,,,0,7,7,7,,,,,,,,,,,,,,,,,main,None,None,1,1.5017477000073995,187.40727389999665,None,None,1,,,,,,,,,,,,,,019,2022-05-13_15h45.11.886,Main,2022.1.1,60.00776500803203,
positive,yellow,1,None,k,,,,,,,,,0,8,8,8,,,,,,,,,,,,,,,,,main,k,k,1,0.7298114000004716,189.9075284000137,None,None,0,,,,,,,,,,,,,,019,2022-05-13_15h45.11.886,Main,2022.1.1,60.00776500803203,
negative,red,1,None,None,,,,,,,,,0,9,9,9,,,,,,,,,,,,,,,,,main,None,None,1,1.501716700004181,191.64081989999977,None,None,1,,,,,,,,,,,,,,019,2022-05-13_15h45.11.886,Main,2022.1.1,60.00776500803203,
positive,yellow,1,None,k,,,,,,,,,0,10,10,10,,,,,,,,,,,,,,,,,main,k,k,1,0.7793278000026476,194.14379680002457,None,None,0,,,,,,,,,,,,,,019,2022-05-13_15h45.11.886,Main,2022.1.1,60.00776500803203,
negative,yellow,1,k,None,,,,,,,,,0,11,11,11,,,,,,,,,,,,,,,,,main,None,None,1,1.5020727000082843,195.9237140000041,None,None,1,,,,,,,,,,,,,,019,2022-05-13_15h45.11.886,Main,2022.1.1,60.00776500803203,
negative,yellow,1,k,None,,,,,,,,,0,12,12,12,,,,,,,,,,,,,,,,,main,None,None,1,1.4961593999760225,198.4240258000209,None,None,1,,,,,,,,,,,,,,019,2022-05-13_15h45.11.886,Main,2022.1.1,60.00776500803203,
negative,red,2,None,None,,,,,,,,,0,13,13,13,,,,,,,,,,,,,,,,,main,None,None,1,1.5067042000009678,200.92699180002091,None,None,1,,,,,,,,,,,,,,019,2022-05-13_15h45.11.886,Main,2022.1.1,60.00776500803203,
positive,yellow,2,None,k,,,,,,,,,0,14,14,14,,,,,,,,,,,,,,,,,main,k,k,1,0.8080637999810278,203.42949750000844,None,None,0,,,,,,,,,,,,,,019,2022-05-13_15h45.11.886,Main,2022.1.1,60.00776500803203,
positive,blue,1,k,None,,,,,,,,,0,15,15,15,,,,,,,,,,,,,,,,,main,None,None,1,1.502075700002024,205.24019680000492,None,None,1,,,,,,,,,,,,,,019,2022-05-13_15h45.11.886,Main,2022.1.1,60.00776500803203,
negative,blue,1,None,k,,,,,,,,,0,16,16,16,,,,,,,,,,,,,,,,,main,k,k,1,0.7633111999894027,207.7404833000037,None,None,0,,,,,,,,,,,,,,019,2022-05-13_15h45.11.886,Main,2022.1.1,60.00776500803203,
positive,blue,2,k,None,,,,,,,,,0,17,17,17,,,,,,,,,,,,,,,,,main,None,None,1,1.4984481999999844,209.50711970002158,None,None,1,,,,,,,,,,,,,,019,2022-05-13_15h45.11.886,Main,2022.1.1,60.00776500803203,
negative,blue,2,None,k,,,,,,,,,0,18,18,18,,,,,,,,,,,,,,,,,main,k,k,1,0.9990858000237495,212.00707780002267,None,None,0,,,,,,,,,,,,,,019,2022-05-13_15h45.11.886,Main,2022.1.1,60.00776500803203,
negative,blue,1,None,k,,,,,,,,,0,19,19,19,,,,,,,,,,,,,,,,,main,k,k,1,1.1658453000127338,214.0069150000054,None,None,0,,,,,,,,,,,,,,019,2022-05-13_15h45.11.886,Main,2022.1.1,60.00776500803203,
negative,blue,1,None,k,,,,,,,,,0,20,20,20,,,,,,,,,,,,,,,,,main,k,k,1,0.7158247999905143,216.1736279000179,None,None,0,,,,,,,,,,,,,,019,2022-05-13_15h45.11.886,Main,2022.1.1,60.00776500803203,
negative,blue,2,None,k,,,,,,,,,0,21,21,21,,,,,,,,,,,,,,,,,main,k,k,1,0.8153944999794476,217.893280600023,None,None,0,,,,,,,,,,,,,,019,2022-05-13_15h45.11.886,Main,2022.1.1,60.00776500803203,
negative,red,1,None,None,,,,,,,,,0,22,22,22,,,,,,,,,,,,,,,,,main,None,None,1,1.498652200010838,219.70700039999792,None,None,1,,,,,,,,,,,,,,019,2022-05-13_15h45.11.886,Main,2022.1.1,60.00776500803203,
positive,red,2,None,None,,,,,,,,,0,23,23,23,,,,,,,,,,,,,,,,,main,None,None,1,1.500387599982787,222.20653200001107,None,None,1,,,,,,,,,,,,,,019,2022-05-13_15h45.11.886,Main,2022.1.1,60.00776500803203,
negative,red,2,None,None,,,,,,,,,0,24,24,24,,,,,,,,,,,,,,,,,main,None,None,1,1.49506799998926,224.70684749999782,None,None,1,,,,,,,,,,,,,,019,2022-05-13_15h45.11.886,Main,2022.1.1,60.00776500803203,
positive,blue,2,k,None,,,,,,,,,0,25,25,25,,,,,,,,,,,,,,,,,main,None,None,1,1.501002700009849,227.2067711999989,None,None,1,,,,,,,,,,,,,,019,2022-05-13_15h45.11.886,Main,2022.1.1,60.00776500803203,
negative,yellow,1,k,None,,,,,,,,,0,26,26,26,,,,,,,,,,,,,,,,,main,None,None,1,1.496042499988107,229.70671080000466,None,None,1,,,,,,,,,,,,,,019,2022-05-13_15h45.11.886,Main,2022.1.1,60.00776500803203,
positive,blue,2,k,None,,,,,,,,,0,27,27,27,,,,,,,,,,,,,,,,,main,None,None,1,1.4968763000215404,232.20654800001648,None,None,1,,,,,,,,,,,,,,019,2022-05-13_15h45.11.886,Main,2022.1.1,60.00776500803203,
negative,blue,2,None,k,,,,,,,,,0,28,28,28,,,,,,,,,,,,,,,,,main,k,k,1,0.7319165999942925,234.70659050001996,None,None,0,,,,,,,,,,,,,,019,2022-05-13_15h45.11.886,Main,2022.1.1,60.00776500803203,
positive,red,1,None,None,,,,,,,,,0,29,29,29,,,,,,,,,,,,,,,,,main,None,None,1,1.4993545000033919,236.43990310002118,None,None,1,,,,,,,,,,,,,,019,2022-05-13_15h45.11.886,Main,2022.1.1,60.00776500803203,
positive,blue,1,k,None,,,,,,,,,0,30,30,30,,,,,,,,,,,,,,,,,main,None,None,1,1.4991469999949913,238.93980170000577,None,None,1,,,,,,,,,,,,,,019,2022-05-13_15h45.11.886,Main,2022.1.1,60.00776500803203,
positive,yellow,1,None,k,,,,,,,,,0,31,31,31,,,,,,,,,,,,,,,,,main,k,k,1,0.6643395999853965,241.43946990001132,None,None,0,,,,,,,,,,,,,,019,2022-05-13_15h45.11.886,Main,2022.1.1,60.00776500803203,
negative,yellow,2,k,None,,,,,,,,,0,32,32,32,,,,,,,,,,,,,,,,,main,None,None,1,1.4988496000005398,243.10647170001175,None,None,1,,,,,,,,,,,,,,019,2022-05-13_15h45.11.886,Main,2022.1.1,60.00776500803203,
negative,blue,1,None,k,,,,,,,,,0,33,33,33,,,,,,,,,,,,,,,,,main,k,k,1,0.7992366999969818,245.60939200001303,None,None,0,,,,,,,,,,,,,,019,2022-05-13_15h45.11.886,Main,2022.1.1,60.00776500803203,
positive,blue,1,k,None,,,,,,,,,0,34,34,34,,,,,,,,,,,,,,,,,main,None,None,1,1.4992987000150606,247.40641110000433,None,None,1,,,,,,,,,,,,,,019,2022-05-13_15h45.11.886,Main,2022.1.1,60.00776500803203,
negative,yellow,1,k,None,,,,,,,,,0,35,35,35,,,,,,,,,,,,,,,,,main,None,None,1,1.5012975999852642,249.90594120000605,None,None,1,,,,,,,,,,,,,,019,2022-05-13_15h45.11.886,Main,2022.1.1,60.00776500803203,
positive,yellow,2,None,k,,,,,,,,,0,36,36,36,,,,,,,,,,,,,,,,,main,k,k,1,0.9463758000056259,252.40628140000626,None,None,0,,,,,,,,,,,,,,019,2022-05-13_15h45.11.886,Main,2022.1.1,60.00776500803203,
positive,yellow,2,None,k,,,,,,,,,0,37,37,37,,,,,,,,,,,,,,,,,main,k,k,1,4.098519699997269,254.35622490002424,None,None,0,,,,,,,,,,,,,,019,2022-05-13_15h45.11.886,Main,2022.1.1,60.00776500803203,
negative,yellow,2,k,None,,,,,,,,,0,38,38,38,,,,,,,,,,,,,,,,,main,None,None,1,1.5019680999976117,260.45578200000455,None,None,1,,,,,,,,,,,,,,019,2022-05-13_15h45.11.886,Main,2022.1.1,60.00776500803203,
positive,yellow,1,None,k,,,,,,,,,0,39,39,39,,,,,,,,,,,,,,,,,main,k,k,1,0.8478880999900866,262.9560354000132,None,None,0,,,,,,,,,,,,,,019,2022-05-13_15h45.11.886,Main,2022.1.1,60.00776500803203,
negative,yellow,2,k,None,,,,,,,,,0,40,40,40,,,,,,,,,,,,,,,,,main,None,None,1,1.4988911999971606,264.8060018999968,None,None,1,,,,,,,,,,,,,,019,2022-05-13_15h45.11.886,Main,2022.1.1,60.00776500803203,
positive,blue,2,k,None,,,,,,,,,0,41,41,41,,,,,,,,,,,,,,,,,main,None,None,1,1.4975826000154484,267.30583820000174,None,None,1,,,,,,,,,,,,,,019,2022-05-13_15h45.11.886,Main,2022.1.1,60.00776500803203,
positive,blue,2,k,None,,,,,,,,,0,42,42,42,,,,,,,,,,,,,,,,,main,None,None,1,1.5003475999983493,269.8058437000145,None,None,1,,,,,,,,,,,,,,019,2022-05-13_15h45.11.886,Main,2022.1.1,60.00776500803203,
negative,blue,2,None,k,,,,,,,,,0,43,43,43,,,,,,,,,,,,,,,,,main,k,k,1,0.6771533999999519,272.30577180002,None,None,0,,,,,,,,,,,,,,019,2022-05-13_15h45.11.886,Main,2022.1.1,60.00776500803203,
negative,red,1,None,None,,,,,,,,,0,44,44,44,,,,,,,,,,,,,,,,,main,None,None,1,1.4989711999951396,273.98908030000166,None,None,1,,,,,,,,,,,,,,019,2022-05-13_15h45.11.886,Main,2022.1.1,60.00776500803203,
negative,yellow,1,k,None,,,,,,,,,0,45,45,45,,,,,,,,,,,,,,,,,main,None,None,1,1.499605499993777,276.4921630000172,None,None,1,,,,,,,,,,,,,,019,2022-05-13_15h45.11.886,Main,2022.1.1,60.00776500803203,
negative,yellow,1,k,None,,,,,,,,,0,46,46,46,,,,,,,,,,,,,,,,,main,None,None,1,1.498233899998013,278.98874240001896,None,None,1,,,,,,,,,,,,,,019,2022-05-13_15h45.11.886,Main,2022.1.1,60.00776500803203,
positive,red,1,None,None,,,,,,,,,0,47,47,47,,,,,,,,,,,,,,,,,main,None,None,1,1.5019781999872066,281.48899060001713,None,None,1,,,,,,,,,,,,,,019,2022-05-13_15h45.11.886,Main,2022.1.1,60.00776500803203,
positive,yellow,1,None,k,,,,,,,,,0,48,48,48,,,,,,,,,,,,,,,,,main,k,k,1,0.8293931999942288,283.9919213000103,None,None,0,,,,,,,,,,,,,,019,2022-05-13_15h45.11.886,Main,2022.1.1,60.00776500803203,
negative,blue,1,None,k,,,,,,,,,0,49,49,49,,,,,,,,,,,,,,,,,main,k,k,1,0.9824386999825947,285.82189010002185,None,None,0,,,,,,,,,,,,,,019,2022-05-13_15h45.11.886,Main,2022.1.1,60.00776500803203,
positive,yellow,2,None,k,,,,,,,,,0,50,50,50,,,,,,,,,,,,,,,,,main,k,k,1,0.7494587999826763,287.8052353000094,None,None,0,,,,,,,,,,,,,,019,2022-05-13_15h45.11.886,Main,2022.1.1,60.00776500803203,
negative,blue,1,None,k,,,,,,,,,0,51,51,51,,,,,,,,,,,,,,,,,main,k,k,1,0.7653785000147764,289.5555105000094,None,None,0,,,,,,,,,,,,,,019,2022-05-13_15h45.11.886,Main,2022.1.1,60.00776500803203,
positive,red,2,None,None,,,,,,,,,0,52,52,52,,,,,,,,,,,,,,,,,main,None,None,1,1.5018074000254273,291.3221321000019,None,None,1,,,,,,,,,,,,,,019,2022-05-13_15h45.11.886,Main,2022.1.1,60.00776500803203,
positive,yellow,2,None,k,,,,,,,,,0,53,53,53,,,,,,,,,,,,,,,,,main,k,k,1,0.696167099988088,293.822077800025,None,None,0,,,,,,,,,,,,,,019,2022-05-13_15h45.11.886,Main,2022.1.1,60.00776500803203,
negative,red,2,None,None,,,,,,,,,0,54,54,54,,,,,,,,,,,,,,,,,main,None,None,1,1.4996535999816842,295.5219229000213,None,None,1,,,,,,,,,,,,,,019,2022-05-13_15h45.11.886,Main,2022.1.1,60.00776500803203,
positive,yellow,1,None,k,,,,,,,,,0,55,55,55,,,,,,,,,,,,,,,,,main,k,k,1,0.7320406000071671,298.0219457000203,None,None,0,,,,,,,,,,,,,,019,2022-05-13_15h45.11.886,Main,2022.1.1,60.00776500803203,
negative,blue,2,None,k,,,,,,,,,0,56,56,56,,,,,,,,,,,,,,,,,main,k,k,1,0.7162895999790635,299.7552165000234,None,None,0,,,,,,,,,,,,,,019,2022-05-13_15h45.11.886,Main,2022.1.1,60.00776500803203,
positive,blue,1,k,None,,,,,,,,,0,57,57,57,,,,,,,,,,,,,,,,,main,None,None,1,1.4975469000055455,301.4719760000007,None,None,1,,,,,,,,,,,,,,019,2022-05-13_15h45.11.886,Main,2022.1.1,60.00776500803203,
positive,blue,1,k,None,,,,,,,,,0,58,58,58,,,,,,,,,,,,,,,,,main,None,None,1,1.4997742999985348,303.9718276000058,None,None,1,,,,,,,,,,,,,,019,2022-05-13_15h45.11.886,Main,2022.1.1,60.00776500803203,
negative,yellow,2,k,None,,,,,,,,,0,59,59,59,,,,,,,,,,,,,,,,,main,None,None,1,1.501254799979506,306.4714584000176,None,None,1,,,,,,,,,,,,,,019,2022-05-13_15h45.11.886,Main,2022.1.1,60.00776500803203,
positive,red,2,None,None,,,,,,,,,0,60,60,60,,,,,,,,,,,,,,,,,main,None,None,1,1.4990277999895625,308.9747721000167,None,None,1,,,,,,,,,,,,,,019,2022-05-13_15h45.11.886,Main,2022.1.1,60.00776500803203,
negative,yellow,1,k,None,,,,,,,,,0,61,61,61,,,,,,,,,,,,,,,,,main,None,None,1,1.496034999989206,311.4717118999979,None,None,1,,,,,,,,,,,,,,019,2022-05-13_15h45.11.886,Main,2022.1.1,60.00776500803203,
negative,red,1,None,None,,,,,,,,,0,62,62,62,,,,,,,,,,,,,,,,,main,None,None,1,1.49966349999886,313.97459789999994,None,None,1,,,,,,,,,,,,,,019,2022-05-13_15h45.11.886,Main,2022.1.1,60.00776500803203,
negative,blue,1,None,k,,,,,,,,,0,63,63,63,,,,,,,,,,,,,,,,,main,k,k,1,0.9151897999981884,316.4713124000118,None,None,0,,,,,,,,,,,,,,019,2022-05-13_15h45.11.886,Main,2022.1.1,60.00776500803203,
positive,blue,2,k,None,,,,,,,,,0,64,64,64,,,,,,,,,,,,,,,,,main,None,None,1,1.501750199997332,318.38827120000497,None,None,1,,,,,,,,,,,,,,019,2022-05-13_15h45.11.886,Main,2022.1.1,60.00776500803203,
negative,yellow,2,k,None,,,,,,,,,0,65,65,65,,,,,,,,,,,,,,,,,main,None,None,1,1.4960494999832008,320.8882225000125,None,None,1,,,,,,,,,,,,,,019,2022-05-13_15h45.11.886,Main,2022.1.1,60.00776500803203,
positive,yellow,2,None,k,,,,,,,,,0,66,66,66,,,,,,,,,,,,,,,,,main,k,k,1,0.6657680000062101,323.3882266000146,None,None,0,,,,,,,,,,,,,,019,2022-05-13_15h45.11.886,Main,2022.1.1,60.00776500803203,
positive,yellow,2,None,k,,,,,,,,,0,67,67,67,,,,,,,,,,,,,,,,,main,k,k,1,0.7156818000075873,325.05442060000496,None,None,0,,,,,,,,,,,,,,019,2022-05-13_15h45.11.886,Main,2022.1.1,60.00776500803203,
positive,red,1,None,None,,,,,,,,,0,68,68,68,,,,,,,,,,,,,,,,,main,None,None,1,1.5020252999966033,326.7711159000173,None,None,1,,,,,,,,,,,,,,019,2022-05-13_15h45.11.886,Main,2022.1.1,60.00776500803203,
positive,yellow,1,None,k,,,,,,,,,0,69,69,69,,,,,,,,,,,,,,,,,main,k,k,1,0.8463866999954917,329.27138079999713,None,None,0,,,,,,,,,,,,,,019,2022-05-13_15h45.11.886,Main,2022.1.1,60.00776500803203,
negative,yellow,2,k,None,,,,,,,,,0,70,70,70,,,,,,,,,,,,,,,,,main,None,None,1,1.4996172999963164,331.12132490001386,None,None,1,,,,,,,,,,,,,,019,2022-05-13_15h45.11.886,Main,2022.1.1,60.00776500803203,
positive,yellow,1,None,k,,,,,,,,,0,71,71,71,,,,,,,,,,,,,,,,,main,k,k,1,0.6813435000076424,333.6211584999983,None,None,0,,,,,,,,,,,,,,019,2022-05-13_15h45.11.886,Main,2022.1.1,60.00776500803203,
negative,blue,1,None,k,,,,,,,,,0,72,72,72,,,,,,,,,,,,,,,,,main,k,k,1,0.8324627999973018,335.30450890000793,None,None,0,,,,,,,,,,,,,,019,2022-05-13_15h45.11.886,Main,2022.1.1,60.00776500803203,
negative,red,2,None,None,,,,,,,,,0,73,73,73,,,,,,,,,,,,,,,,,main,None,None,1,1.5017160999996122,337.13790100000915,None,None,1,,,,,,,,,,,,,,019,2022-05-13_15h45.11.886,Main,2022.1.1,60.00776500803203,
positive,blue,2,k,None,,,,,,,,,0,74,74,74,,,,,,,,,,,,,,,,,main,None,None,1,1.4989418000041042,339.64081890002126,None,None,1,,,,,,,,,,,,,,019,2022-05-13_15h45.11.886,Main,2022.1.1,60.00776500803203,
negative,blue,2,None,k,,,,,,,,,0,75,75,75,,,,,,,,,,,,,,,,,main,k,k,1,0.6974907999974675,342.1446330000181,None,None,0,,,,,,,,,,,,,,019,2022-05-13_15h45.11.886,Main,2022.1.1,60.00776500803203,
negative,blue,2,None,k,,,,,,,,,0,76,76,76,,,,,,,,,,,,,,,,,main,k,k,1,1.6315407000074629,343.8373743999982,None,None,0,,,,,,,,,,,,,,019,2022-05-13_15h45.11.886,Main,2022.1.1,60.00776500803203,
negative,yellow,1,k,None,,,,,,,,,0,77,77,77,,,,,,,,,,,,,,,,,main,None,None,1,1.4990457999811042,347.4709800000128,None,None,1,,,,,,,,,,,,,,019,2022-05-13_15h45.11.886,Main,2022.1.1,60.00776500803203,
positive,blue,1,k,None,,,,,,,,,0,78,78,78,,,,,,,,,,,,,,,,,main,None,None,1,1.4970683999999892,349.97091980002006,None,None,1,,,,,,,,,,,,,,019,2022-05-13_15h45.11.886,Main,2022.1.1,60.00776500803203,
positive,blue,1,k,None,,,,,,,,,0,79,79,79,,,,,,,,,,,,,,,,,main,None,None,1,1.502441499993438,352.4705259000184,None,None,1,,,,,,,,,,,,,,019,2022-05-13_15h45.11.886,Main,2022.1.1,60.00776500803203,
positive,red,2,None,None,,,,,,,,,0,80,80,80,,,,,,,,,,,,,,,,,main,None,None,1,1.496046899992507,354.9708614000119,None,None,1,,,,,,,,,,,,,,019,2022-05-13_15h45.11.886,Main,2022.1.1,60.00776500803203,
positive,yellow,2,None,k,,,,,,,,,0,81,81,81,,,,,,,,,,,,,,,,,main,k,k,1,0.7992735000152607,357.4738153000071,None,None,0,,,,,,,,,,,,,,019,2022-05-13_15h45.11.886,Main,2022.1.1,60.00776500803203,
positive,blue,1,k,None,,,,,,,,,0,82,82,82,,,,,,,,,,,,,,,,,main,None,None,1,1.4986667000048328,359.27087470001425,None,None,1,,,,,,,,,,,,,,019,2022-05-13_15h45.11.886,Main,2022.1.1,60.00776500803203,
negative,yellow,2,k,None,,,,,,,,,0,83,83,83,,,,,,,,,,,,,,,,,main,None,None,1,1.497539499978302,361.77075340002193,None,None,1,,,,,,,,,,,,,,019,2022-05-13_15h45.11.886,Main,2022.1.1,60.00776500803203,
positive,blue,2,k,None,,,,,,,,,0,84,84,84,,,,,,,,,,,,,,,,,main,None,None,1,1.4997120999905746,364.2705568000092,None,None,1,,,,,,,,,,,,,,019,2022-05-13_15h45.11.886,Main,2022.1.1,60.00776500803203,
positive,yellow,1,None,k,,,,,,,,,0,85,85,85,,,,,,,,,,,,,,,,,main,k,k,1,0.7620802000164986,366.7705238000199,None,None,0,,,,,,,,,,,,,,019,2022-05-13_15h45.11.886,Main,2022.1.1,60.00776500803203,
positive,blue,2,k,None,,,,,,,,,0,86,86,86,,,,,,,,,,,,,,,,,main,None,None,1,1.489599399996223,368.5372372000129,None,None,1,,,,,,,,,,,,,,019,2022-05-13_15h45.11.886,Main,2022.1.1,60.00776500803203,
positive,blue,1,k,None,,,,,,,,,0,87,87,87,,,,,,,,,,,,,,,,,main,None,None,1,1.492085700010648,371.02592040001764,None,None,1,,,,,,,,,,,,,,019,2022-05-13_15h45.11.886,Main,2022.1.1,60.00776500803203,
negative,yellow,2,k,None,,,,,,,,,0,88,88,88,,,,,,,,,,,,,,,,,main,None,None,1,1.4984277999901678,373.5201683000196,None,None,1,,,,,,,,,,,,,,019,2022-05-13_15h45.11.886,Main,2022.1.1,60.00776500803203,
negative,blue,2,None,k,,,,,,,,,0,89,89,89,,,,,,,,,,,,,,,,,main,k,k,1,1.0993061999906786,376.02341620001243,None,None,0,,,,,,,,,,,,,,019,2022-05-13_15h45.11.886,Main,2022.1.1,60.00776500803203,
positive,yellow,2,None,k,,,,,,,,,0,90,90,90,,,,,,,,,,,,,,,,,main,k,k,1,0.7658873000182211,378.1203747999971,None,None,0,,,,,,,,,,,,,,019,2022-05-13_15h45.11.886,Main,2022.1.1,60.00776500803203,
negative,yellow,1,k,None,,,,,,,,,0,91,91,91,,,,,,,,,,,,,,,,,main,None,None,1,1.4984962999878917,379.88997260000906,None,None,1,,,,,,,,,,,,,,019,2022-05-13_15h45.11.886,Main,2022.1.1,60.00776500803203,
negative,red,2,None,None,,,,,,,,,0,92,92,92,,,,,,,,,,,,,,,,,main,None,None,1,1.4993561999872327,382.38664199999766,None,None,1,,,,,,,,,,,,,,019,2022-05-13_15h45.11.886,Main,2022.1.1,60.00776500803203,
negative,blue,2,None,k,,,,,,,,,0,93,93,93,,,,,,,,,,,,,,,,,main,k,k,1,0.6660025999881327,384.88998239999637,None,None,0,,,,,,,,,,,,,,019,2022-05-13_15h45.11.886,Main,2022.1.1,60.00776500803203,
negative,blue,1,None,k,,,,,,,,,0,94,94,94,,,,,,,,,,,,,,,,,main,k,k,1,0.8823837000236381,386.5565001000068,None,None,0,,,,,,,,,,,,,,019,2022-05-13_15h45.11.886,Main,2022.1.1,60.00776500803203,
negative,blue,1,None,k,,,,,,,,,0,95,95,95,,,,,,,,,,,,,,,,,main,k,k,1,0.6988345000136178,388.4368284000084,None,None,0,,,,,,,,,,,,,,019,2022-05-13_15h45.11.886,Main,2022.1.1,60.00776500803203,
negative,red,1,None,None,,,,,,,,,0,96,96,96,,,,,,,,,,,,,,,,,main,None,None,1,1.499097099993378,390.1364298000117,None,None,1,,,,,,,,,,,,,,019,2022-05-13_15h45.11.886,Main,2022.1.1,60.00776500803203,
positive,yellow,1,None,k,,,,,,,,,0,97,97,97,,,,,,,,,,,,,,,,,main,k,k,1,0.6993279000162147,392.63673420000123,None,None,0,,,,,,,,,,,,,,019,2022-05-13_15h45.11.886,Main,2022.1.1,60.00776500803203,
negative,yellow,1,k,None,,,,,,,,,0,98,98,98,,,,,,,,,,,,,,,,,main,None,None,1,1.498724500008393,394.3367108000093,None,None,1,,,,,,,,,,,,,,019,2022-05-13_15h45.11.886,Main,2022.1.1,60.00776500803203,
positive,red,1,None,None,,,,,,,,,0,99,99,99,,,,,,,,,,,,,,,,,main,None,None,1,1.5001011999847833,396.836641300004,None,None,1,,,,,,,,,,,,,,019,2022-05-13_15h45.11.886,Main,2022.1.1,60.00776500803203,
positive,blue,1,k,None,,,,,,,,,0,100,100,100,,,,,,,,,,,,,,,,,main,None,None,1,1.5008291999984067,399.3364724999992,None,None,1,,,,,,,,,,,,,,019,2022-05-13_15h45.11.886,Main,2022.1.1,60.00776500803203,
negative,yellow,1,k,None,,,,,,,,,0,101,101,101,,,,,,,,,,,,,,,,,main,None,None,1,1.496861199993873,401.836555100017,None,None,1,,,,,,,,,,,,,,019,2022-05-13_15h45.11.886,Main,2022.1.1,60.00776500803203,
negative,blue,2,None,k,,,,,,,,,0,102,102,102,,,,,,,,,,,,,,,,,main,k,k,1,0.7816820000007283,404.3364342999994,None,None,0,,,,,,,,,,,,,,019,2022-05-13_15h45.11.886,Main,2022.1.1,60.00776500803203,
negative,yellow,2,k,None,,,,,,,,,0,103,103,103,,,,,,,,,,,,,,,,,main,None,None,1,1.4988580999779515,406.11980519999634,None,None,1,,,,,,,,,,,,,,019,2022-05-13_15h45.11.886,Main,2022.1.1,60.00776500803203,
positive,yellow,2,None,k,,,,,,,,,0,104,104,104,,,,,,,,,,,,,,,,,main,k,k,1,0.6322696999995969,408.61939540001913,None,None,0,,,,,,,,,,,,,,019,2022-05-13_15h45.11.886,Main,2022.1.1,60.00776500803203,
positive,blue,1,k,None,,,,,,,,,0,105,105,105,,,,,,,,,,,,,,,,,main,None,None,1,1.4988119999761693,410.25306060002185,None,None,1,,,,,,,,,,,,,,019,2022-05-13_15h45.11.886,Main,2022.1.1,60.00776500803203,
positive,blue,2,k,None,,,,,,,,,0,106,106,106,,,,,,,,,,,,,,,,,main,None,None,1,1.500314700009767,412.75602349999826,None,None,1,,,,,,,,,,,,,,019,2022-05-13_15h45.11.886,Main,2022.1.1,60.00776500803203,
negative,blue,1,None,k,,,,,,,,,0,107,107,107,,,,,,,,,,,,,,,,,main,k,k,1,1.0152685999928508,415.25598889999674,None,None,0,,,,,,,,,,,,,,019,2022-05-13_15h45.11.886,Main,2022.1.1,60.00776500803203,
positive,yellow,2,None,k,,,,,,,,,0,108,108,108,,,,,,,,,,,,,,,,,main,k,k,1,0.6813416000222787,417.2694539000222,None,None,0,,,,,,,,,,,,,,019,2022-05-13_15h45.11.886,Main,2022.1.1,60.00776500803203,
negative,yellow,1,k,None,,,,,,,,,0,109,109,109,,,,,,,,,,,,,,,,,main,None,None,1,1.5017993999936152,418.95277090001036,None,None,1,,,,,,,,,,,,,,019,2022-05-13_15h45.11.886,Main,2022.1.1,60.00776500803203,
negative,blue,2,None,k,,,,,,,,,0,110,110,110,,,,,,,,,,,,,,,,,main,k,k,1,0.7129776999936439,421.4528072999965,None,None,0,,,,,,,,,,,,,,019,2022-05-13_15h45.11.886,Main,2022.1.1,60.00776500803203,
positive,blue,2,k,None,,,,,,,,,0,111,111,111,,,,,,,,,,,,,,,,,main,None,None,1,1.4994567999965511,423.1693917000084,None,None,1,,,,,,,,,,,,,,019,2022-05-13_15h45.11.886,Main,2022.1.1,60.00776500803203,
negative,blue,1,None,k,,,,,,,,,0,112,112,112,,,,,,,,,,,,,,,,,main,k,k,1,0.7148589999997057,425.6690569000202,None,None,0,,,,,,,,,,,,,,019,2022-05-13_15h45.11.886,Main,2022.1.1,60.00776500803203,
positive,yellow,1,None,k,,,,,,,,,0,113,113,113,,,,,,,,,,,,,,,,,main,k,k,1,0.6159581000101753,427.38573390000965,None,None,0,,,,,,,,,,,,,,019,2022-05-13_15h45.11.886,Main,2022.1.1,60.00776500803203,
negative,red,1,None,None,,,,,,,,,0,114,114,114,,,,,,,,,,,,,,,,,main,None,None,1,1.4987451000197325,429.00269480000134,None,None,1,,,,,,,,,,,,,,019,2022-05-13_15h45.11.886,Main,2022.1.1,60.00776500803203,
positive,red,1,None,None,,,,,,,,,0,115,115,115,,,,,,,,,,,,,,,,,main,None,None,1,1.499956999992719,431.505599600001,None,None,1,,,,,,,,,,,,,,019,2022-05-13_15h45.11.886,Main,2022.1.1,60.00776500803203,
negative,red,2,None,None,,,,,,,,,0,116,116,116,,,,,,,,,,,,,,,,,main,None,None,1,1.4980966000002809,434.0024498999992,None,None,1,,,,,,,,,,,,,,019,2022-05-13_15h45.11.886,Main,2022.1.1,60.00776500803203,
negative,yellow,2,k,None,,,,,,,,,0,117,117,117,,,,,,,,,,,,,,,,,main,None,None,1,1.4989249000209384,436.50246660000994,None,None,1,,,,,,,,,,,,,,019,2022-05-13_15h45.11.886,Main,2022.1.1,60.00776500803203,
positive,yellow,1,None,k,,,,,,,,,0,118,118,118,,,,,,,,,,,,,,,,,main,k,k,1,0.6024555999902077,439.00238839999656,None,None,0,,,,,,,,,,,,,,019,2022-05-13_15h45.11.886,Main,2022.1.1,60.00776500803203,
positive,red,2,None,None,,,,,,,,,0,119,119,119,,,,,,,,,,,,,,,,,main,None,None,1,1.4954639000061434,440.60542310000164,None,None,1,,,,,,,,,,,,,,019,2022-05-13_15h45.11.886,Main,2022.1.1,60.00776500803203,
positive,blue,2,k,None,,,,,,,,,0,120,120,120,,,,,,,,,,,,,,,,,main,None,None,1,1.5033167000219692,443.10201900001266,None,None,1,,,,,,,,,,,,,,019,2022-05-13_15h45.11.886,Main,2022.1.1,60.00776500803203,
negative,red,1,None,None,,,,,,,,,0,121,121,121,,,,,,,,,,,,,,,,,main,None,None,1,1.4948641999799293,445.6023353000055,None,None,1,,,,,,,,,,,,,,019,2022-05-13_15h45.11.886,Main,2022.1.1,60.00776500803203,
positive,yellow,2,None,k,,,,,,,,,0,122,122,122,,,,,,,,,,,,,,,,,main,k,k,1,0.6160375000035856,448.1022922999982,None,None,0,,,,,,,,,,,,,,019,2022-05-13_15h45.11.886,Main,2022.1.1,60.00776500803203,
negative,red,2,None,None,,,,,,,,,0,123,123,123,,,,,,,,,,,,,,,,,main,None,None,1,1.4992226999893319,449.718907500006,None,None,1,,,,,,,,,,,,,,019,2022-05-13_15h45.11.886,Main,2022.1.1,60.00776500803203,
negative,yellow,2,k,None,,,,,,,,,0,124,124,124,,,,,,,,,,,,,,,,,main,None,None,1,1.4982801000005566,452.21849450000445,None,None,1,,,,,,,,,,,,,,019,2022-05-13_15h45.11.886,Main,2022.1.1,60.00776500803203,
positive,red,1,None,None,,,,,,,,,0,125,125,125,,,,,,,,,,,,,,,,,main,None,None,1,1.4993437000084668,454.7188295000233,None,None,1,,,,,,,,,,,,,,019,2022-05-13_15h45.11.886,Main,2022.1.1,60.00776500803203,
negative,blue,2,None,k,,,,,,,,,0,126,126,126,,,,,,,,,,,,,,,,,main,k,k,1,0.7323999999789521,457.2187651999993,None,None,0,,,,,,,,,,,,,,019,2022-05-13_15h45.11.886,Main,2022.1.1,60.00776500803203,
negative,blue,1,None,k,,,,,,,,,0,127,127,127,,,,,,,,,,,,,,,,,main,k,k,1,0.7158120999811217,458.9520555000054,None,None,0,,,,,,,,,,,,,,019,2022-05-13_15h45.11.886,Main,2022.1.1,60.00776500803203,
negative,yellow,1,k,None,,,,,,,,,0,128,128,128,,,,,,,,,,,,,,,,,main,None,None,1,1.499501499987673,460.6686930000142,None,None,1,,,,,,,,,,,,,,019,2022-05-13_15h45.11.886,Main,2022.1.1,60.00776500803203,
negative,yellow,1,k,None,,,,,,,,,0,129,129,129,,,,,,,,,,,,,,,,,main,None,None,1,1.4990775999904145,463.1683317999996,None,None,1,,,,,,,,,,,,,,019,2022-05-13_15h45.11.886,Main,2022.1.1,60.00776500803203,
positive,blue,1,k,None,,,,,,,,,0,130,130,130,,,,,,,,,,,,,,,,,main,None,None,1,1.497934000013629,465.6685845000029,None,None,1,,,,,,,,,,,,,,019,2022-05-13_15h45.11.886,Main,2022.1.1,60.00776500803203,
negative,blue,1,None,k,,,,,,,,,0,131,131,131,,,,,,,,,,,,,,,,,main,k,k,1,0.6493211000051815,468.168539700011,None,None,0,,,,,,,,,,,,,,019,2022-05-13_15h45.11.886,Main,2022.1.1,60.00776500803203,
negative,blue,2,None,k,,,,,,,,,0,132,132,132,,,,,,,,,,,,,,,,,main,k,k,1,0.682174199988367,469.81862649999675,None,None,0,,,,,,,,,,,,,,019,2022-05-13_15h45.11.886,Main,2022.1.1,60.00776500803203,
positive,blue,2,k,None,,,,,,,,,0,133,133,133,,,,,,,,,,,,,,,,,main,None,None,1,1.502263900008984,471.50144310001633,None,None,1,,,,,,,,,,,,,,019,2022-05-13_15h45.11.886,Main,2022.1.1,60.00776500803203,
positive,red,2,None,None,,,,,,,,,0,134,134,134,,,,,,,,,,,,,,,,,main,None,None,1,1.495995299977949,474.00176230000216,None,None,1,,,,,,,,,,,,,,019,2022-05-13_15h45.11.886,Main,2022.1.1,60.00776500803203,
negative,yellow,2,k,None,,,,,,,,,0,135,135,135,,,,,,,,,,,,,,,,,main,None,None,1,1.4989289000222925,476.50454490000266,None,None,1,,,,,,,,,,,,,,019,2022-05-13_15h45.11.886,Main,2022.1.1,60.00776500803203,
positive,yellow,2,None,k,,,,,,,,,0,136,136,136,,,,,,,,,,,,,,,,,main,k,k,1,0.6158609999984037,479.00166060001357,None,None,0,,,,,,,,,,,,,,019,2022-05-13_15h45.11.886,Main,2022.1.1,60.00776500803203,
positive,blue,1,k,None,,,,,,,,,0,137,137,137,,,,,,,,,,,,,,,,,main,None,None,1,1.5025643999979366,480.6182679000194,None,None,1,,,,,,,,,,,,,,019,2022-05-13_15h45.11.886,Main,2022.1.1,60.00776500803203,
positive,yellow,1,None,k,,,,,,,,,0,138,138,138,,,,,,,,,,,,,,,,,main,k,k,1,0.7618183000013232,483.1181501999963,None,None,0,,,,,,,,,,,,,,019,2022-05-13_15h45.11.886,Main,2022.1.1,60.00776500803203,
positive,yellow,1,None,k,,,,,,,,,0,139,139,139,,,,,,,,,,,,,,,,,main,k,k,1,0.6021430999971926,484.88480070000514,None,None,0,,,,,,,,,,,,,,019,2022-05-13_15h45.11.886,Main,2022.1.1,60.00776500803203,
positive,yellow,1,None,k,,,,,,,,,0,140,140,140,,,,,,,,,,,,,,,,,main,k,k,1,0.5793186000082642,486.4848014000163,None,None,0,,,,,,,,,,,,,,019,2022-05-13_15h45.11.886,Main,2022.1.1,60.00776500803203,
positive,blue,1,k,None,,,,,,,,,0,141,141,141,,,,,,,,,,,,,,,,,main,None,None,1,1.4993930000055116,488.0680921000021,None,None,1,,,,,,,,,,,,,,019,2022-05-13_15h45.11.886,Main,2022.1.1,60.00776500803203,
positive,blue,2,k,None,,,,,,,,,0,142,142,142,,,,,,,,,,,,,,,,,main,None,None,1,1.4982339999987744,490.567778800003,None,None,1,,,,,,,,,,,,,,019,2022-05-13_15h45.11.886,Main,2022.1.1,60.00776500803203,
positive,yellow,2,None,k,,,,,,,,,0,143,143,143,,,,,,,,,,,,,,,,,main,k,k,1,0.8659984999976587,493.0680262000242,None,None,0,,,,,,,,,,,,,,019,2022-05-13_15h45.11.886,Main,2022.1.1,60.00776500803203,
negative,yellow,2,k,None,,,,,,,,,0,144,144,144,,,,,,,,,,,,,,,,,main,None,None,1,1.489694399992004,494.9346514000208,None,None,1,,,,,,,,,,,,,,019,2022-05-13_15h45.11.886,Main,2022.1.1,60.00776500803203,
negative,blue,2,None,k,,,,,,,,,0,145,145,145,,,,,,,,,,,,,,,,,main,k,k,1,0.7414590000116732,497.4175853000197,None,None,0,,,,,,,,,,,,,,019,2022-05-13_15h45.11.886,Main,2022.1.1,60.00776500803203,
negative,red,1,None,None,,,,,,,,,0,146,146,146,,,,,,,,,,,,,,,,,main,None,None,1,1.5021259000059217,499.1675470000191,None,None,1,,,,,,,,,,,,,,019,2022-05-13_15h45.11.886,Main,2022.1.1,60.00776500803203,
positive,blue,1,k,None,,,,,,,,,0,147,147,147,,,,,,,,,,,,,,,,,main,None,None,1,1.496116600028472,501.67078720001155,None,None,1,,,,,,,,,,,,,,019,2022-05-13_15h45.11.886,Main,2022.1.1,60.00776500803203,
positive,yellow,1,None,k,,,,,,,,,0,148,148,148,,,,,,,,,,,,,,,,,main,k,k,1,0.6827078999776859,504.16781880002236,None,None,0,,,,,,,,,,,,,,019,2022-05-13_15h45.11.886,Main,2022.1.1,60.00776500803203,
negative,red,2,None,None,,,,,,,,,0,149,149,149,,,,,,,,,,,,,,,,,main,None,None,1,1.498318300000392,505.8510959999985,None,None,1,,,,,,,,,,,,,,019,2022-05-13_15h45.11.886,Main,2022.1.1,60.00776500803203,
negative,blue,1,None,k,,,,,,,,,0,150,150,150,,,,,,,,,,,,,,,,,main,k,k,1,0.7326261999842245,508.3510466000007,None,None,0,,,,,,,,,,,,,,019,2022-05-13_15h45.11.886,Main,2022.1.1,60.00776500803203,
negative,yellow,2,k,None,,,,,,,,,0,151,151,151,,,,,,,,,,,,,,,,,main,None,None,1,1.5020402999944054,510.08428390001063,None,None,1,,,,,,,,,,,,,,019,2022-05-13_15h45.11.886,Main,2022.1.1,60.00776500803203,
negative,blue,2,None,k,,,,,,,,,0,152,152,152,,,,,,,,,,,,,,,,,main,k,k,1,0.5962165999808349,512.5843253000057,None,None,0,,,,,,,,,,,,,,019,2022-05-13_15h45.11.886,Main,2022.1.1,60.00776500803203,
negative,yellow,1,k,None,,,,,,,,,0,153,153,153,,,,,,,,,,,,,,,,,main,None,None,1,1.4984868000028655,514.1842505000241,None,None,1,,,,,,,,,,,,,,019,2022-05-13_15h45.11.886,Main,2022.1.1,60.00776500803203,
negative,blue,1,None,k,,,,,,,,,0,154,154,154,,,,,,,,,,,,,,,,,main,k,k,1,1.2829663999727927,516.6838581000047,None,None,0,,,,,,,,,,,,,,019,2022-05-13_15h45.11.886,Main,2022.1.1,60.00776500803203,
positive,yellow,2,None,k,,,,,,,,,0,155,155,155,,,,,,,,,,,,,,,,,main,k,k,1,1.1825618000002578,518.970550900005,None,None,0,,,,,,,,,,,,,,019,2022-05-13_15h45.11.886,Main,2022.1.1,60.00776500803203,
positive,red,2,None,None,,,,,,,,,0,156,156,156,,,,,,,,,,,,,,,,,main,None,None,1,1.4990283999941312,521.1508085000096,None,None,1,,,,,,,,,,,,,,019,2022-05-13_15h45.11.886,Main,2022.1.1,60.00776500803203,
positive,red,1,None,None,,,,,,,,,0,157,157,157,,,,,,,,,,,,,,,,,main,None,None,1,1.4994162000075448,523.6507364000136,None,None,1,,,,,,,,,,,,,,019,2022-05-13_15h45.11.886,Main,2022.1.1,60.00776500803203,
positive,blue,2,k,None,,,,,,,,,0,158,158,158,,,,,,,,,,,,,,,,,main,None,None,1,1.4992014000017662,526.1503311000124,None,None,1,,,,,,,,,,,,,,019,2022-05-13_15h45.11.886,Main,2022.1.1,60.00776500803203,
negative,yellow,1,k,None,,,,,,,,,0,159,159,159,,,,,,,,,,,,,,,,,main,None,None,1,1.4979372000088915,528.6506596000108,None,None,1,,,,,,,,,,,,,,019,2022-05-13_15h45.11.886,Main,2022.1.1,60.00776500803203,
negative,red,2,None,None,,,,,,,,,0,160,160,160,,,,,,,,,,,,,,,,,main,None,None,1,1.5065801999880932,531.1506140000129,None,None,1,,,,,,,,,,,,,,019,2022-05-13_15h45.11.886,Main,2022.1.1,60.00776500803203,
negative,blue,1,None,k,,,,,,,,,0,161,161,161,,,,,,,,,,,,,,,,,main,k,k,1,1.591203799995128,533.6567282000033,None,None,0,,,,,,,,,,,,,,019,2022-05-13_15h45.11.886,Main,2022.1.1,60.00776500803203,
negative,blue,1,None,k,,,,,,,,,0,162,162,162,,,,,,,,,,,,,,,,,main,k,k,1,0.8482780000194907,537.2504674000083,None,None,0,,,,,,,,,,,,,,019,2022-05-13_15h45.11.886,Main,2022.1.1,60.00776500803203,
negative,yellow,1,k,None,,,,,,,,,0,163,163,163,,,,,,,,,,,,,,,,,main,None,None,1,1.498498800006928,539.1004278000037,None,None,1,,,,,,,,,,,,,,019,2022-05-13_15h45.11.886,Main,2022.1.1,60.00776500803203,
negative,yellow,1,k,None,,,,,,,,,0,164,164,164,,,,,,,,,,,,,,,,,main,None,None,1,1.4997643000097014,541.600396200025,None,None,1,,,,,,,,,,,,,,019,2022-05-13_15h45.11.886,Main,2022.1.1,60.00776500803203,
positive,yellow,1,None,k,,,,,,,,,0,165,165,165,,,,,,,,,,,,,,,,,main,k,k,1,0.6974588000157382,544.0999658000073,None,None,0,,,,,,,,,,,,,,019,2022-05-13_15h45.11.886,Main,2022.1.1,60.00776500803203,
negative,red,1,None,None,,,,,,,,,0,166,166,166,,,,,,,,,,,,,,,,,main,None,None,1,1.4987379999947734,545.8003069999977,None,None,1,,,,,,,,,,,,,,019,2022-05-13_15h45.11.886,Main,2022.1.1,60.00776500803203,
negative,yellow,2,k,None,,,,,,,,,0,167,167,167,,,,,,,,,,,,,,,,,main,None,None,1,1.5022598000068683,548.3031827000086,None,None,1,,,,,,,,,,,,,,019,2022-05-13_15h45.11.886,Main,2022.1.1,60.00776500803203,
positive,blue,2,k,None,,,,,,,,,0,168,168,168,,,,,,,,,,,,,,,,,main,None,None,1,1.4965254999988247,550.8001908000151,None,None,1,,,,,,,,,,,,,,019,2022-05-13_15h45.11.886,Main,2022.1.1,60.00776500803203,
positive,red,2,None,None,,,,,,,,,0,169,169,169,,,,,,,,,,,,,,,,,main,None,None,1,1.498219400004018,553.2997609000013,None,None,1,,,,,,,,,,,,,,019,2022-05-13_15h45.11.886,Main,2022.1.1,60.00776500803203,
positive,red,1,None,None,,,,,,,,,0,170,170,170,,,,,,,,,,,,,,,,,main,None,None,1,1.5020038999791723,555.8001147000177,None,None,1,,,,,,,,,,,,,,019,2022-05-13_15h45.11.886,Main,2022.1.1,60.00776500803203,
negative,blue,2,None,k,,,,,,,,,0,171,171,171,,,,,,,,,,,,,,,,,main,k,k,1,1.2795640999975149,558.3000559000066,None,None,0,,,,,,,,,,,,,,019,2022-05-13_15h45.11.886,Main,2022.1.1,60.00776500803203,
positive,blue,2,k,None,,,,,,,,,0,172,172,172,,,,,,,,,,,,,,,,,main,None,None,1,1.499538100004429,560.583347000007,None,None,1,,,,,,,,,,,,,,019,2022-05-13_15h45.11.886,Main,2022.1.1,60.00776500803203,
negative,yellow,2,k,None,,,,,,,,,0,173,173,173,,,,,,,,,,,,,,,,,main,None,None,1,1.498153699998511,563.0829646000057,None,None,1,,,,,,,,,,,,,,019,2022-05-13_15h45.11.886,Main,2022.1.1,60.00776500803203,
positive,yellow,2,None,k,,,,,,,,,0,174,174,174,,,,,,,,,,,,,,,,,main,k,k,1,1.7491421999875456,565.5832414000179,None,None,0,,,,,,,,,,,,,,019,2022-05-13_15h45.11.886,Main,2022.1.1,60.00776500803203,
negative,blue,2,None,k,,,,,,,,,0,175,175,175,,,,,,,,,,,,,,,,,main,k,k,1,-0.7350020000012591,569.3331495000166,None,None,0,,,,,,,,,,,,,,019,2022-05-13_15h45.11.886,Main,2022.1.1,60.00776500803203,
positive,blue,1,k,None,,,,,,,,,0,176,176,176,,,,,,,,,,,,,,,,,main,None,None,1,1.5010284000018146,572.5997915000189,None,None,1,,,,,,,,,,,,,,019,2022-05-13_15h45.11.886,Main,2022.1.1,60.00776500803203,
positive,yellow,1,None,k,,,,,,,,,0,177,177,177,,,,,,,,,,,,,,,,,main,k,k,1,0.7975442000024486,575.102641800011,None,None,0,,,,,,,,,,,,,,019,2022-05-13_15h45.11.886,Main,2022.1.1,60.00776500803203,
positive,blue,1,k,None,,,,,,,,,0,178,178,178,,,,,,,,,,,,,,,,,main,None,None,1,1.498205899988534,576.8996586000139,None,None,1,,,,,,,,,,,,,,019,2022-05-13_15h45.11.886,Main,2022.1.1,60.00776500803203,
positive,yellow,2,None,k,,,,,,,,,0,179,179,179,,,,,,,,,,,,,,,,,main,k,k,1,0.7146565999719314,579.3995651000005,None,None,0,,,,,,,,,,,,,,019,2022-05-13_15h45.11.886,Main,2022.1.1,60.00776500803203,
positive,blue,1,k,None,,,,,,,,,0,180,180,180,,,,,,,,,,,,,,,,,main,None,None,1,1.4998726000194438,581.1162263000151,None,None,1,,,,,,,,,,,,,,019,2022-05-13_15h45.11.886,Main,2022.1.1,60.00776500803203,
negative,red,1,None,None,,,,,,,,,0,181,181,181,,,,,,,,,,,,,,,,,main,None,None,1,1.4978870999766514,583.6161154000147,None,None,1,,,,,,,,,,,,,,019,2022-05-13_15h45.11.886,Main,2022.1.1,60.00776500803203,
negative,blue,1,None,k,,,,,,,,,0,182,182,182,,,,,,,,,,,,,,,,,main,k,k,1,0.7161808000237215,586.1160856000206,None,None,0,,,,,,,,,,,,,,019,2022-05-13_15h45.11.886,Main,2022.1.1,60.00776500803203,
negative,yellow,2,k,None,,,,,,,,,0,183,183,183,,,,,,,,,,,,,,,,,main,None,None,1,1.4991826000041328,587.8327188999974,None,None,1,,,,,,,,,,,,,,019,2022-05-13_15h45.11.886,Main,2022.1.1,60.00776500803203,
positive,yellow,2,None,k,,,,,,,,,0,184,184,184,,,,,,,,,,,,,,,,,main,k,k,1,0.6652451000118162,590.3324040000152,None,None,0,,,,,,,,,,,,,,019,2022-05-13_15h45.11.886,Main,2022.1.1,60.00776500803203,
positive,yellow,1,None,k,,,,,,,,,0,185,185,185,,,,,,,,,,,,,,,,,main,k,k,1,2.69919509999454,591.9993544000026,None,None,0,,,,,,,,,,,,,,019,2022-05-13_15h45.11.886,Main,2022.1.1,60.00776500803203,
positive,red,2,None,None,,,,,,,,,0,186,186,186,,,,,,,,,,,,,,,,,main,None,None,1,1.499702699977206,596.6992554000171,None,None,1,,,,,,,,,,,,,,019,2022-05-13_15h45.11.886,Main,2022.1.1,60.00776500803203,
positive,blue,1,k,None,,,,,,,,,0,187,187,187,,,,,,,,,,,,,,,,,main,None,None,1,1.4978310999867972,599.1988436999964,None,None,1,,,,,,,,,,,,,,019,2022-05-13_15h45.11.886,Main,2022.1.1,60.00776500803203,
negative,yellow,1,k,None,,,,,,,,,0,188,188,188,,,,,,,,,,,,,,,,,main,None,None,1,1.4990824999986216,601.6992183999973,None,None,1,,,,,,,,,,,,,,019,2022-05-13_15h45.11.886,Main,2022.1.1,60.00776500803203,
positive,yellow,2,None,k,,,,,,,,,0,189,189,189,,,,,,,,,,,,,,,,,main,k,k,1,0.7815518000279553,604.1991027000186,None,None,0,,,,,,,,,,,,,,019,2022-05-13_15h45.11.886,Main,2022.1.1,60.00776500803203,
negative,yellow,2,k,None,,,,,,,,,0,190,190,190,,,,,,,,,,,,,,,,,main,None,None,1,1.4999085000017658,605.9854518000211,None,None,1,,,,,,,,,,,,,,019,2022-05-13_15h45.11.886,Main,2022.1.1,60.00776500803203,
negative,yellow,1,k,None,,,,,,,,,0,191,191,191,,,,,,,,,,,,,,,,,main,None,None,1,1.497393400000874,608.4819734000193,None,None,1,,,,,,,,,,,,,,019,2022-05-13_15h45.11.886,Main,2022.1.1,60.00776500803203,
positive,blue,2,k,None,,,,,,,,,0,192,192,192,,,,,,,,,,,,,,,,,main,None,None,1,1.499018000002252,610.9822920000006,None,None,1,,,,,,,,,,,,,,019,2022-05-13_15h45.11.886,Main,2022.1.1,60.00776500803203,
positive,yellow,1,None,k,,,,,,,,,0,193,193,193,,,,,,,,,,,,,,,,,main,k,k,1,0.6493116999918129,613.4822759000235,None,None,0,,,,,,,,,,,,,,019,2022-05-13_15h45.11.886,Main,2022.1.1,60.00776500803203,
negative,red,2,None,None,,,,,,,,,0,194,194,194,,,,,,,,,,,,,,,,,main,None,None,1,1.4996741999930236,615.132199500018,None,None,1,,,,,,,,,,,,,,019,2022-05-13_15h45.11.886,Main,2022.1.1,60.00776500803203,
positive,red,1,None,None,,,,,,,,,0,195,195,195,,,,,,,,,,,,,,,,,main,None,None,1,1.497888799989596,617.6321233000199,None,None,1,,,,,,,,,,,,,,019,2022-05-13_15h45.11.886,Main,2022.1.1,60.00776500803203,
negative,blue,1,None,k,,,,,,,,,0,196,196,196,,,,,,,,,,,,,,,,,main,k,k,1,0.6993094999925233,620.1321349000209,None,None,0,,,,,,,,,,,,,,019,2022-05-13_15h45.11.886,Main,2022.1.1,60.00776500803203,
positive,blue,2,k,None,,,,,,,,,0,197,197,197,,,,,,,,,,,,,,,,,main,None,None,1,1.498821399989538,621.8321446000191,None,None,1,,,,,,,,,,,,,,019,2022-05-13_15h45.11.886,Main,2022.1.1,60.00776500803203,
negative,blue,2,None,k,,,,,,,,,0,198,198,198,,,,,,,,,,,,,,,,,main,k,k,1,0.7655825999972876,624.3319827000087,None,None,0,,,,,,,,,,,,,,019,2022-05-13_15h45.11.886,Main,2022.1.1,60.00776500803203,
negative,blue,2,None,k,,,,,,,,,0,199,199,199,,,,,,,,,,,,,,,,,main,k,k,1,0.6491424999840092,626.0983045000175,None,None,0,,,,,,,,,,,,,,019,2022-05-13_15h45.11.886,Main,2022.1.1,60.00776500803203,
positive,blue,2,k,None,,,,,,,,,0,200,200,200,,,,,,,,,,,,,,,,,main,None,None,1,1.4988613000023179,627.7483289000229,None,None,1,,,,,,,,,,,,,,019,2022-05-13_15h45.11.886,Main,2022.1.1,60.00776500803203,
positive,blue,2,k,None,,,,,,,,,0,201,201,201,,,,,,,,,,,,,,,,,main,None,None,1,1.499339100002544,630.2485780999996,None,None,1,,,,,,,,,,,,,,019,2022-05-13_15h45.11.886,Main,2022.1.1,60.00776500803203,
negative,yellow,2,k,None,,,,,,,,,0,202,202,202,,,,,,,,,,,,,,,,,main,None,None,1,1.499720799998613,632.7485288000025,None,None,1,,,,,,,,,,,,,,019,2022-05-13_15h45.11.886,Main,2022.1.1,60.00776500803203,
positive,red,1,None,None,,,,,,,,,0,203,203,203,,,,,,,,,,,,,,,,,main,None,None,1,1.498916599986842,635.248350800015,None,None,1,,,,,,,,,,,,,,019,2022-05-13_15h45.11.886,Main,2022.1.1,60.00776500803203,
negative,blue,2,None,k,,,,,,,,,0,204,204,204,,,,,,,,,,,,,,,,,main,k,k,1,0.7646456999937072,637.7483920000086,None,None,0,,,,,,,,,,,,,,019,2022-05-13_15h45.11.886,Main,2022.1.1,60.00776500803203,
negative,red,1,None,None,,,,,,,,,0,205,205,205,,,,,,,,,,,,,,,,,main,None,None,1,1.5025080000050366,639.5149861999962,None,None,1,,,,,,,,,,,,,,019,2022-05-13_15h45.11.886,Main,2022.1.1,60.00776500803203,
negative,blue,2,None,k,,,,,,,,,0,206,206,206,,,,,,,,,,,,,,,,,main,k,k,1,0.6786502000177279,642.014965600014,None,None,0,,,,,,,,,,,,,,019,2022-05-13_15h45.11.886,Main,2022.1.1,60.00776500803203,
negative,yellow,2,k,None,,,,,,,,,0,207,207,207,,,,,,,,,,,,,,,,,main,None,None,1,1.4996454000065569,643.6979513000115,None,None,1,,,,,,,,,,,,,,019,2022-05-13_15h45.11.886,Main,2022.1.1,60.00776500803203,
positive,yellow,2,None,k,,,,,,,,,0,208,208,208,,,,,,,,,,,,,,,,,main,k,k,1,0.6487311999953818,646.1979395000089,None,None,0,,,,,,,,,,,,,,019,2022-05-13_15h45.11.886,Main,2022.1.1,60.00776500803203,
negative,yellow,1,k,None,,,,,,,,,0,209,209,209,,,,,,,,,,,,,,,,,main,None,None,1,1.5015052999951877,647.851258300012,None,None,1,,,,,,,,,,,,,,019,2022-05-13_15h45.11.886,Main,2022.1.1,60.00776500803203,
negative,red,2,None,None,,,,,,,,,0,210,210,210,,,,,,,,,,,,,,,,,main,None,None,1,1.499003899982199,650.3511965000071,None,None,1,,,,,,,,,,,,,,019,2022-05-13_15h45.11.886,Main,2022.1.1,60.00776500803203,
negative,blue,1,None,k,,,,,,,,,0,211,211,211,,,,,,,,,,,,,,,,,main,k,k,1,0.6648933999822475,652.8510684000212,None,None,0,,,,,,,,,,,,,,019,2022-05-13_15h45.11.886,Main,2022.1.1,60.00776500803203,
negative,yellow,1,k,None,,,,,,,,,0,212,212,212,,,,,,,,,,,,,,,,,main,None,None,1,1.4996872000047006,654.5143954000087,None,None,1,,,,,,,,,,,,,,019,2022-05-13_15h45.11.886,Main,2022.1.1,60.00776500803203,
positive,blue,1,k,None,,,,,,,,,0,213,213,213,,,,,,,,,,,,,,,,,main,None,None,1,1.4989471999870148,657.01769410001,None,None,1,,,,,,,,,,,,,,019,2022-05-13_15h45.11.886,Main,2022.1.1,60.00776500803203,
positive,blue,1,k,None,,,,,,,,,0,214,214,214,,,,,,,,,,,,,,,,,main,None,None,1,1.4999918999965303,659.5146592000092,None,None,1,,,,,,,,,,,,,,019,2022-05-13_15h45.11.886,Main,2022.1.1,60.00776500803203,
positive,yellow,1,None,k,,,,,,,,,0,215,215,215,,,,,,,,,,,,,,,,,main,k,k,1,0.7948487999965437,662.0146495000226,None,None,0,,,,,,,,,,,,,,019,2022-05-13_15h45.11.886,Main,2022.1.1,60.00776500803203,
positive,yellow,1,None,k,,,,,,,,,0,216,216,216,,,,,,,,,,,,,,,,,main,k,k,1,0.7157155000022613,663.8142038000224,None,None,0,,,,,,,,,,,,,,019,2022-05-13_15h45.11.886,Main,2022.1.1,60.00776500803203,
positive,yellow,2,None,k,,,,,,,,,0,217,217,217,,,,,,,,,,,,,,,,,main,k,k,1,0.7328910000214819,665.530897300021,None,None,0,,,,,,,,,,,,,,019,2022-05-13_15h45.11.886,Main,2022.1.1,60.00776500803203,
negative,blue,1,None,k,,,,,,,,,0,218,218,218,,,,,,,,,,,,,,,,,main,k,k,1,0.7990678000205662,667.2644861000008,None,None,0,,,,,,,,,,,,,,019,2022-05-13_15h45.11.886,Main,2022.1.1,60.00776500803203,
positive,red,2,None,None,,,,,,,,,0,219,219,219,,,,,,,,,,,,,,,,,main,None,None,1,1.5016900999762584,669.0644596000202,None,None,1,,,,,,,,,,,,,,019,2022-05-13_15h45.11.886,Main,2022.1.1,60.00776500803203,
positive,yellow,1,None,k,,,,,,,,,0,220,220,220,,,,,,,,,,,,,,,,,main,k,k,1,0.7627779000031296,671.5644051000127,None,None,0,,,,,,,,,,,,,,019,2022-05-13_15h45.11.886,Main,2022.1.1,60.00776500803203,
positive,blue,1,k,None,,,,,,,,,0,221,221,221,,,,,,,,,,,,,,,,,main,None,None,1,1.5023707000073045,673.3306727000163,None,None,1,,,,,,,,,,,,,,019,2022-05-13_15h45.11.886,Main,2022.1.1,60.00776500803203,
positive,yellow,2,None,k,,,,,,,,,0,222,222,222,,,,,,,,,,,,,,,,,main,k,k,1,0.6629192999971565,675.8339865000162,None,None,0,,,,,,,,,,,,,,019,2022-05-13_15h45.11.886,Main,2022.1.1,60.00776500803203,
negative,yellow,1,k,None,,,,,,,,,0,223,223,223,,,,,,,,,,,,,,,,,main,None,None,1,1.4986655999964569,677.4976136000187,None,None,1,,,,,,,,,,,,,,019,2022-05-13_15h45.11.886,Main,2022.1.1,60.00776500803203,
positive,yellow,2,None,k,,,,,,,,,0,224,224,224,,,,,,,,,,,,,,,,,main,k,k,1,0.5992998000001535,679.9975736000051,None,None,0,,,,,,,,,,,,,,019,2022-05-13_15h45.11.886,Main,2022.1.1,60.00776500803203,
negative,yellow,2,k,None,,,,,,,,,0,225,225,225,,,,,,,,,,,,,,,,,main,None,None,1,1.4997148000111338,681.5974360000109,None,None,1,,,,,,,,,,,,,,019,2022-05-13_15h45.11.886,Main,2022.1.1,60.00776500803203,
negative,blue,2,None,k,,,,,,,,,0,226,226,226,,,,,,,,,,,,,,,,,main,k,k,1,0.6979090000095312,684.097396600002,None,None,0,,,,,,,,,,,,,,019,2022-05-13_15h45.11.886,Main,2022.1.1,60.00776500803203,
positive,red,2,None,None,,,,,,,,,0,227,227,227,,,,,,,,,,,,,,,,,main,None,None,1,1.4977099999960046,685.7973806000082,None,None,1,,,,,,,,,,,,,,019,2022-05-13_15h45.11.886,Main,2022.1.1,60.00776500803203,
positive,blue,2,k,None,,,,,,,,,0,228,228,228,,,,,,,,,,,,,,,,,main,None,None,1,1.4987879999971483,688.2973507000133,None,None,1,,,,,,,,,,,,,,019,2022-05-13_15h45.11.886,Main,2022.1.1,60.00776500803203,
negative,blue,1,None,k,,,,,,,,,0,229,229,229,,,,,,,,,,,,,,,,,main,k,k,1,0.6304954999941401,690.7970335000136,None,None,0,,,,,,,,,,,,,,019,2022-05-13_15h45.11.886,Main,2022.1.1,60.00776500803203,
positive,yellow,1,None,k,,,,,,,,,0,230,230,230,,,,,,,,,,,,,,,,,main,k,k,1,0.699398900003871,692.4303380000056,None,None,0,,,,,,,,,,,,,,019,2022-05-13_15h45.11.886,Main,2022.1.1,60.00776500803203,
negative,blue,2,None,k,,,,,,,,,0,231,231,231,,,,,,,,,,,,,,,,,main,k,k,1,1.0491561999951955,694.1306122000096,None,None,0,,,,,,,,,,,,,,019,2022-05-13_15h45.11.886,Main,2022.1.1,60.00776500803203,
negative,red,1,None,None,,,,,,,,,0,232,232,232,,,,,,,,,,,,,,,,,main,None,None,1,1.4895803999970667,696.1805660999962,None,None,1,,,,,,,,,,,,,,019,2022-05-13_15h45.11.886,Main,2022.1.1,60.00776500803203,
positive,blue,2,k,None,,,,,,,,,0,233,233,233,,,,,,,,,,,,,,,,,main,None,None,1,1.492118299996946,698.6695684000151,None,None,1,,,,,,,,,,,,,,019,2022-05-13_15h45.11.886,Main,2022.1.1,60.00776500803203,
negative,yellow,1,k,None,,,,,,,,,0,234,234,234,,,,,,,,,,,,,,,,,main,None,None,1,1.4981411999906413,701.1635004999989,None,None,1,,,,,,,,,,,,,,019,2022-05-13_15h45.11.886,Main,2022.1.1,60.00776500803203,
negative,yellow,2,k,None,,,,,,,,,0,235,235,235,,,,,,,,,,,,,,,,,main,None,None,1,1.5031180999940261,703.663747500017,None,None,1,,,,,,,,,,,,,,019,2022-05-13_15h45.11.886,Main,2022.1.1,60.00776500803203,
positive,red,1,None,None,,,,,,,,,0,236,236,236,,,,,,,,,,,,,,,,,main,None,None,1,1.4953194000117946,706.1637157000077,None,None,1,,,,,,,,,,,,,,019,2022-05-13_15h45.11.886,Main,2022.1.1,60.00776500803203,
negative,red,2,None,None,,,,,,,,,0,237,237,237,,,,,,,,,,,,,,,,,main,None,None,1,1.4992155999934766,708.6633270000166,None,None,1,,,,,,,,,,,,,,019,2022-05-13_15h45.11.886,Main,2022.1.1,60.00776500803203,
negative,blue,1,None,k,,,,,,,,,0,238,238,238,,,,,,,,,,,,,,,,,main,k,k,1,0.9147560000128578,711.1636284000124,None,None,0,,,,,,,,,,,,,,019,2022-05-13_15h45.11.886,Main,2022.1.1,60.00776500803203,
positive,blue,1,k,None,,,,,,,,,0,239,239,239,,,,,,,,,,,,,,,,,main,None,None,1,1.4989009999844711,713.0802124000038,None,None,1,,,,,,,,,,,,,,019,2022-05-13_15h45.11.886,Main,2022.1.1,60.00776500803203,
,,,,,,,,,,,,,,,,,,,,,,,,,,,,,,,,,,,,,,,,,,,,,,,,,,,,,715.5801807000244,None,,,,,,
