distractor,target,set,ans1,ans2,rep_loop4.thisRepN,rep_loop4.thisTrialN,rep_loop4.thisN,rep_loop4.thisIndex,st2_prac_loop.thisRepN,st2_prac_loop.thisTrialN,st2_prac_loop.thisN,st2_prac_loop.thisIndex,st2_main_loop.thisRepN,st2_main_loop.thisTrialN,st2_main_loop.thisN,st2_main_loop.thisIndex,image_4.started,image_4.stopped,sound_2.started,sound_2.stopped,key_resp_3.keys,key_resp_3.rt,image_5.started,image_5.stopped,st_prac_back.started,st_prac_back.stopped,st_prac_text.started,st_prac_text.stopped,st_fix_back.started,st_fix_back.stopped,st_fix_2.started,st_fix_2.stopped,main_prac,st_ans,st_res,st_corr,st_rt,st_back.started,st_back.stopped,st2_resp.keys,st2_resp.corr,st_main_back.started,st_main_back.stopped,st_main_text.started,st_main_text.stopped,mouse_4.x,mouse_4.y,mouse_4.leftButton,mouse_4.midButton,mouse_4.rightButton,mouse_4.started,mouse_4.stopped,text_2.started,text_2.stopped,id*,date,expName,psychopyVersion,frameRate,
negative,yellow,1,k,None,,,,,0,0,0,0,,,,,29.862553799990565,None,35.871034250003866,None,space,61.75773119999212,97.65084630000638,None,101.55348850000883,None,101.55348850000883,None,103.55345760000637,None,103.55345760000637,None,prac,k,k,1,7.5239684999978635,105.58504430000903,None,None,0,,,,,,,,,,,,,,020,2022-05-17_10h46.46.199,Main,2022.1.1,59.80618013507872,
positive,red,2,None,None,,,,,0,1,1,1,,,,,,,,,,,,,,,,,,,,,prac,None,None,1,1.4868065000046045,115.11750459999894,None,None,1,,,,,,,,,,,,,,020,2022-05-17_10h46.46.199,Main,2022.1.1,59.80618013507872,
negative,blue,2,None,k,,,,,0,2,2,2,,,,,,,,,,,,,,,,,,,,,prac,None,None,1,1.4967543999955524,117.60412740000174,None,None,1,,,,,,,,,,,,,,020,2022-05-17_10h46.46.199,Main,2022.1.1,59.80618013507872,
positive,yellow,1,None,k,,,,,0,3,3,3,,,,,,,,,,,,,,,,,,,,,prac,None,None,1,1.5003766000154428,120.10079659998883,None,None,1,,,,,,,,,,,,,,020,2022-05-17_10h46.46.199,Main,2022.1.1,59.80618013507872,
negative,blue,2,None,k,,,,,0,4,4,4,,,,,,,,,,,,,,,,,,,,,prac,None,None,1,1.4989129999885336,122.60425800000667,None,None,1,,,,,,,,,,,,,,020,2022-05-17_10h46.46.199,Main,2022.1.1,59.80618013507872,
negative,blue,1,None,k,,,,,0,5,5,5,,,,,,,,,,,,,,,,,,,,,prac,None,None,1,1.4971459000080358,125.11940799999866,None,None,1,,,,,,,,,,,,,,020,2022-05-17_10h46.46.199,Main,2022.1.1,59.80618013507872,
negative,yellow,2,k,None,,,,,0,6,6,6,,,,,,,,,,,,,,,,,,,,,prac,k,k,1,14.465432199998759,127.6006786999933,None,None,0,,,,,,,,,,,,,,020,2022-05-17_10h46.46.199,Main,2022.1.1,59.80618013507872,
negative,red,1,None,None,,,,,0,7,7,7,,,,,,,,,,,,,,,,,,,,,prac,None,None,1,1.5031232000037562,144.0831588000001,None,None,1,,,,,,,,,,,,,,020,2022-05-17_10h46.46.199,Main,2022.1.1,59.80618013507872,
positive,yellow,2,None,k,,,,,0,8,8,8,,,,,,,,,,,,,,,,,,,,,prac,None,None,1,1.4989938999933656,146.5855947000091,None,None,1,,,,,,,,,,,,,,020,2022-05-17_10h46.46.199,Main,2022.1.1,59.80618013507872,
negative,yellow,1,k,None,,,,,0,9,9,9,,,,,,,,,,,,,,,,,,,,,prac,k,k,1,0.846726400020998,149.08562480000546,None,None,0,,,,,,,,,,,,,,020,2022-05-17_10h46.46.199,Main,2022.1.1,59.80618013507872,
positive,yellow,2,None,k,,,,,0,10,10,10,,,,,,,,,,,,,,,,,,,,,prac,None,None,1,1.499473100004252,150.93539180001244,None,None,1,,,,,,,,,,,,,,020,2022-05-17_10h46.46.199,Main,2022.1.1,59.80618013507872,
negative,yellow,2,k,None,,,,,0,11,11,11,,,,,,,,,,,,,,,,,,,,,prac,k,k,1,0.8509951999876648,153.43276590001187,None,None,0,,,,,,,,,,,,,,020,2022-05-17_10h46.46.199,Main,2022.1.1,59.80618013507872,
negative,red,2,None,None,,,,,0,12,12,12,,,,,,,,,,,,,,,,,,,,,prac,None,None,1,1.5001422000059392,155.2854982999852,None,None,1,,,,,,,,,,,,,,020,2022-05-17_10h46.46.199,Main,2022.1.1,59.80618013507872,
positive,red,1,None,None,,,,,0,13,13,13,,,,,,,,,,,,,,,,,,,,,prac,None,None,1,1.4948961000191048,157.78529969998635,None,None,1,,,,,,,,,,,,,,020,2022-05-17_10h46.46.199,Main,2022.1.1,59.80618013507872,
positive,blue,2,k,None,,,,,0,14,14,14,,,,,,,,,,,,,,,,,,,,,prac,k,k,1,0.7490307000116445,160.2852922999882,None,None,0,,,,,,,,,,,,,,020,2022-05-17_10h46.46.199,Main,2022.1.1,59.80618013507872,
positive,blue,1,k,None,,,,,0,15,15,15,,,,,,,,,,,,,,,,,,,,,prac,k,k,1,0.9493978999962565,162.0328634000034,None,None,0,,,,,,,,,,,,,,020,2022-05-17_10h46.46.199,Main,2022.1.1,59.80618013507872,
negative,blue,1,None,k,,,,,0,16,16,16,,,,,,,,,,,,,,,,,,,,,prac,None,None,1,1.5025152000016533,163.98522629999206,None,None,1,,,,,,,,,,,,,,020,2022-05-17_10h46.46.199,Main,2022.1.1,59.80618013507872,
positive,blue,2,k,None,,,,,0,17,17,17,,,,,,,,,,,,,,,,,,,,,prac,k,k,1,1.228141700004926,166.4852411999891,None,None,0,,,,,,,,,,,,,,020,2022-05-17_10h46.46.199,Main,2022.1.1,59.80618013507872,
positive,blue,1,k,None,,,,,0,18,18,18,,,,,,,,,,,,,,,,,,,,,prac,k,k,1,0.7700805999920703,168.71576230000937,None,None,0,,,,,,,,,,,,,,020,2022-05-17_10h46.46.199,Main,2022.1.1,59.80618013507872,
positive,yellow,1,None,k,,,,,0,19,19,19,,,,,,,,,,,,,,,,,,,,,prac,None,None,1,1.4944357000058517,170.4851054000028,None,None,1,,,,,,,,,,,,,,020,2022-05-17_10h46.46.199,Main,2022.1.1,59.80618013507872,
negative,yellow,1,k,None,,,,,1,0,20,0,,,,,,,,,,,,,,,,,,,,,prac,k,k,1,0.9157528999785427,172.9881558000052,None,None,0,,,,,,,,,,,,,,020,2022-05-17_10h46.46.199,Main,2022.1.1,59.80618013507872,
positive,red,2,None,None,,,,,1,1,21,1,,,,,,,,,,,,,,,,,,,,,prac,None,None,1,1.5025171999877784,174.89894340001047,None,None,1,,,,,,,,,,,,,,020,2022-05-17_10h46.46.199,Main,2022.1.1,59.80618013507872,
negative,blue,2,None,k,,,,,1,2,22,2,,,,,,,,,,,,,,,,,,,,,prac,None,None,1,1.4957909999939147,177.40164110000478,None,None,1,,,,,,,,,,,,,,020,2022-05-17_10h46.46.199,Main,2022.1.1,59.80618013507872,
positive,yellow,1,None,k,,,,,1,3,23,3,,,,,,,,,,,,,,,,,,,,,prac,None,k,0,1.0487880999862682,179.9011324000021,None,None,1,,,,,,,,,,,,,,020,2022-05-17_10h46.46.199,Main,2022.1.1,59.80618013507872,
negative,blue,2,None,k,,,,,1,4,24,4,,,,,,,,,,,,,,,,,,,,,prac,None,None,1,1.503265300008934,182.94901809998555,None,None,1,,,,,,,,,,,,,,020,2022-05-17_10h46.46.199,Main,2022.1.1,59.80618013507872,
negative,blue,1,None,k,,,,,1,5,25,5,,,,,,,,,,,,,,,,,,,,,prac,None,k,0,1.4321884000091814,185.45148610000615,None,None,1,,,,,,,,,,,,,,020,2022-05-17_10h46.46.199,Main,2022.1.1,59.80618013507872,
negative,yellow,2,k,None,,,,,1,6,26,6,,,,,,,,,,,,,,,,,,,,,prac,k,k,1,0.9178548000054434,188.88227629999164,None,None,0,,,,,,,,,,,,,,020,2022-05-17_10h46.46.199,Main,2022.1.1,59.80618013507872,
negative,red,1,None,None,,,,,1,7,27,7,,,,,,,,,,,,,,,,,,,,,prac,None,None,1,1.5011144000163767,190.79862680000952,None,None,1,,,,,,,,,,,,,,020,2022-05-17_10h46.46.199,Main,2022.1.1,59.80618013507872,
positive,yellow,2,None,k,,,,,1,8,28,8,,,,,,,,,,,,,,,,,,,,,prac,None,None,1,1.49924830000964,193.30134159998852,None,None,1,,,,,,,,,,,,,,020,2022-05-17_10h46.46.199,Main,2022.1.1,59.80618013507872,
negative,yellow,1,k,None,,,,,1,9,29,9,,,,,,,,,,,,,,,,,,,,,prac,k,k,1,1.1631225000019185,195.80129080000916,None,None,0,,,,,,,,,,,,,,020,2022-05-17_10h46.46.199,Main,2022.1.1,59.80618013507872,
positive,yellow,2,None,k,,,,,1,10,30,10,,,,,,,,,,,,,,,,,,,,,prac,None,None,1,1.5016254000074696,197.9654933999991,None,None,1,,,,,,,,,,,,,,020,2022-05-17_10h46.46.199,Main,2022.1.1,59.80618013507872,
negative,yellow,2,k,None,,,,,1,11,31,11,,,,,,,,,,,,,,,,,,,,,prac,k,k,1,0.9300635999825317,200.46784560001106,None,None,0,,,,,,,,,,,,,,020,2022-05-17_10h46.46.199,Main,2022.1.1,59.80618013507872,
negative,red,2,None,None,,,,,1,12,32,12,,,,,,,,,,,,,,,,,,,,,prac,None,None,1,1.5004311999946367,202.39863740000874,None,None,1,,,,,,,,,,,,,,020,2022-05-17_10h46.46.199,Main,2022.1.1,59.80618013507872,
positive,red,1,None,None,,,,,1,13,33,13,,,,,,,,,,,,,,,,,,,,,prac,None,None,1,1.498235899984138,204.90111770000658,None,None,1,,,,,,,,,,,,,,020,2022-05-17_10h46.46.199,Main,2022.1.1,59.80618013507872,
positive,blue,2,k,None,,,,,1,14,34,14,,,,,,,,,,,,,,,,,,,,,prac,k,k,1,0.7302502999955323,207.39874080001027,None,None,0,,,,,,,,,,,,,,020,2022-05-17_10h46.46.199,Main,2022.1.1,59.80618013507872,
positive,blue,1,k,None,,,,,1,15,35,15,,,,,,,,,,,,,,,,,,,,,prac,k,k,1,1.0338344000047073,209.13162060000468,None,None,0,,,,,,,,,,,,,,020,2022-05-17_10h46.46.199,Main,2022.1.1,59.80618013507872,
negative,blue,1,None,k,,,,,1,16,36,16,,,,,,,,,,,,,,,,,,,,,prac,None,None,1,1.4986612999928184,211.16762329998892,None,None,1,,,,,,,,,,,,,,020,2022-05-17_10h46.46.199,Main,2022.1.1,59.80618013507872,
positive,blue,2,k,None,,,,,1,17,37,17,,,,,,,,,,,,,,,,,,,,,prac,k,k,1,0.6976848000194877,213.6676121999917,None,None,0,,,,,,,,,,,,,,020,2022-05-17_10h46.46.199,Main,2022.1.1,59.80618013507872,
positive,blue,1,k,None,,,,,1,18,38,18,,,,,,,,,,,,,,,,,,,,,prac,k,k,1,0.8171474999981001,215.36481709999498,None,None,0,,,,,,,,,,,,,,020,2022-05-17_10h46.46.199,Main,2022.1.1,59.80618013507872,
positive,yellow,1,None,k,,,,,1,19,39,19,,,,,,,,,,,,,,,,,,,,,prac,None,None,1,1.4989243999880273,217.18418969999766,None,None,1,,,,,,,,,,,,,,020,2022-05-17_10h46.46.199,Main,2022.1.1,59.80618013507872,
,,,,,,,,,,,,,,,,,,,,,,,,,,,,,,,,,,,,,,,,,,219.68413119998877,None,219.68413119998877,None,0.14351852,-0.25555557,0,0,0,0.014391250006156042,None,,,020,2022-05-17_10h46.46.199,Main,2022.1.1,59.80618013507872,
negative,yellow,2,k,None,,,,,,,,,0,0,0,0,,,,,,,,,,,,,220.86477809998905,None,220.86477809998905,None,main,k,k,1,2.223907700012205,222.90200390000246,None,None,0,,,,,,,,,,,,,,020,2022-05-17_10h46.46.199,Main,2022.1.1,59.80618013507872,
positive,red,1,None,None,,,,,,,,,0,1,1,1,,,,,,,,,,,,,,,,,main,None,None,1,1.4867773999867495,227.14790159999393,None,None,1,,,,,,,,,,,,,,020,2022-05-17_10h46.46.199,Main,2022.1.1,59.80618013507872,
positive,blue,2,k,None,,,,,,,,,0,2,2,2,,,,,,,,,,,,,,,,,main,k,k,1,0.6824085999978706,229.63429099999485,None,None,0,,,,,,,,,,,,,,020,2022-05-17_10h46.46.199,Main,2022.1.1,59.80618013507872,
positive,blue,1,k,None,,,,,,,,,0,3,3,3,,,,,,,,,,,,,,,,,main,k,k,1,0.7817526000144426,231.31725429999642,None,None,0,,,,,,,,,,,,,,020,2022-05-17_10h46.46.199,Main,2022.1.1,59.80618013507872,
negative,yellow,2,k,None,,,,,,,,,0,4,4,4,,,,,,,,,,,,,,,,,main,k,k,1,0.8804158999992069,233.10038280001027,None,None,0,,,,,,,,,,,,,,020,2022-05-17_10h46.46.199,Main,2022.1.1,59.80618013507872,
positive,yellow,2,None,k,,,,,,,,,0,5,5,5,,,,,,,,,,,,,,,,,main,None,None,1,1.5001495000033174,234.98126269999193,None,None,1,,,,,,,,,,,,,,020,2022-05-17_10h46.46.199,Main,2022.1.1,59.80618013507872,
negative,blue,2,None,k,,,,,,,,,0,6,6,6,,,,,,,,,,,,,,,,,main,None,None,1,1.5011903000122402,237.4814226999879,None,None,1,,,,,,,,,,,,,,020,2022-05-17_10h46.46.199,Main,2022.1.1,59.80618013507872,
positive,red,2,None,None,,,,,,,,,0,7,7,7,,,,,,,,,,,,,,,,,main,None,None,1,1.4941489000048023,239.98377279998385,None,None,1,,,,,,,,,,,,,,020,2022-05-17_10h46.46.199,Main,2022.1.1,59.80618013507872,
positive,yellow,1,None,k,,,,,,,,,0,8,8,8,,,,,,,,,,,,,,,,,main,None,None,1,1.5017461000243202,242.48094639999908,None,None,1,,,,,,,,,,,,,,020,2022-05-17_10h46.46.199,Main,2022.1.1,59.80618013507872,
negative,red,1,None,None,,,,,,,,,0,9,9,9,,,,,,,,,,,,,,,,,main,None,None,1,1.4962839999934658,244.98361960001057,None,None,1,,,,,,,,,,,,,,020,2022-05-17_10h46.46.199,Main,2022.1.1,59.80618013507872,
positive,yellow,1,None,k,,,,,,,,,0,10,10,10,,,,,,,,,,,,,,,,,main,None,None,1,1.499949299992295,247.4834867999889,None,None,1,,,,,,,,,,,,,,020,2022-05-17_10h46.46.199,Main,2022.1.1,59.80618013507872,
negative,yellow,1,k,None,,,,,,,,,0,11,11,11,,,,,,,,,,,,,,,,,main,k,k,1,0.8130866000137758,249.9807693999901,None,None,0,,,,,,,,,,,,,,020,2022-05-17_10h46.46.199,Main,2022.1.1,59.80618013507872,
negative,yellow,1,k,None,,,,,,,,,0,12,12,12,,,,,,,,,,,,,,,,,main,k,k,1,0.6202324999903794,251.78901959999348,None,None,0,,,,,,,,,,,,,,020,2022-05-17_10h46.46.199,Main,2022.1.1,59.80618013507872,
negative,red,2,None,None,,,,,,,,,0,13,13,13,,,,,,,,,,,,,,,,,main,None,None,1,1.5027627999952529,253.41677829998662,None,None,1,,,,,,,,,,,,,,020,2022-05-17_10h46.46.199,Main,2022.1.1,59.80618013507872,
positive,yellow,2,None,k,,,,,,,,,0,14,14,14,,,,,,,,,,,,,,,,,main,None,None,1,1.492171399993822,255.9201871000114,None,None,1,,,,,,,,,,,,,,020,2022-05-17_10h46.46.199,Main,2022.1.1,59.80618013507872,
positive,blue,1,k,None,,,,,,,,,0,15,15,15,,,,,,,,,,,,,,,,,main,k,k,1,0.8843984999984968,258.4139528000087,None,None,0,,,,,,,,,,,,,,020,2022-05-17_10h46.46.199,Main,2022.1.1,59.80618013507872,
negative,blue,1,None,k,,,,,,,,,0,16,16,16,,,,,,,,,,,,,,,,,main,None,None,1,1.4969352000043727,260.2973689000064,None,None,1,,,,,,,,,,,,,,020,2022-05-17_10h46.46.199,Main,2022.1.1,59.80618013507872,
positive,blue,2,k,None,,,,,,,,,0,17,17,17,,,,,,,,,,,,,,,,,main,k,k,1,0.732169300026726,262.80016509999405,None,None,0,,,,,,,,,,,,,,020,2022-05-17_10h46.46.199,Main,2022.1.1,59.80618013507872,
negative,blue,2,None,k,,,,,,,,,0,18,18,18,,,,,,,,,,,,,,,,,main,None,None,1,1.4997901999740861,264.5307167999854,None,None,1,,,,,,,,,,,,,,020,2022-05-17_10h46.46.199,Main,2022.1.1,59.80618013507872,
negative,blue,1,None,k,,,,,,,,,0,19,19,19,,,,,,,,,,,,,,,,,main,None,None,1,1.5004098000063095,267.0308190000069,None,None,1,,,,,,,,,,,,,,020,2022-05-17_10h46.46.199,Main,2022.1.1,59.80618013507872,
negative,blue,1,None,k,,,,,,,,,0,20,20,20,,,,,,,,,,,,,,,,,main,None,None,1,1.497366299998248,269.5331539000035,None,None,1,,,,,,,,,,,,,,020,2022-05-17_10h46.46.199,Main,2022.1.1,59.80618013507872,
negative,blue,2,None,k,,,,,,,,,0,21,21,21,,,,,,,,,,,,,,,,,main,None,None,1,1.5005277000018395,272.03032389999134,None,None,1,,,,,,,,,,,,,,020,2022-05-17_10h46.46.199,Main,2022.1.1,59.80618013507872,
negative,red,1,None,None,,,,,,,,,0,22,22,22,,,,,,,,,,,,,,,,,main,None,None,1,1.4991229999868665,274.53301439998904,None,None,1,,,,,,,,,,,,,,020,2022-05-17_10h46.46.199,Main,2022.1.1,59.80618013507872,
positive,red,2,None,None,,,,,,,,,0,23,23,23,,,,,,,,,,,,,,,,,main,None,None,1,1.4974598000117112,277.03297169998405,None,None,1,,,,,,,,,,,,,,020,2022-05-17_10h46.46.199,Main,2022.1.1,59.80618013507872,
negative,red,2,None,None,,,,,,,,,0,24,24,24,,,,,,,,,,,,,,,,,main,None,None,1,1.5005406999844126,279.5302509999892,None,None,1,,,,,,,,,,,,,,020,2022-05-17_10h46.46.199,Main,2022.1.1,59.80618013507872,
positive,blue,2,k,None,,,,,,,,,0,25,25,25,,,,,,,,,,,,,,,,,main,k,k,1,1.0302966000162996,282.03287850000197,None,None,0,,,,,,,,,,,,,,020,2022-05-17_10h46.46.199,Main,2022.1.1,59.80618013507872,
negative,yellow,1,k,None,,,,,,,,,0,26,26,26,,,,,,,,,,,,,,,,,main,k,k,1,0.9491872999933548,284.0634385999874,None,None,0,,,,,,,,,,,,,,020,2022-05-17_10h46.46.199,Main,2022.1.1,59.80618013507872,
positive,blue,2,k,None,,,,,,,,,0,27,27,27,,,,,,,,,,,,,,,,,main,k,k,1,0.7844194000062998,286.01357290000306,None,None,0,,,,,,,,,,,,,,020,2022-05-17_10h46.46.199,Main,2022.1.1,59.80618013507872,
negative,blue,2,None,k,,,,,,,,,0,28,28,28,,,,,,,,,,,,,,,,,main,None,None,1,1.5004619999963325,287.79945930000395,None,None,1,,,,,,,,,,,,,,020,2022-05-17_10h46.46.199,Main,2022.1.1,59.80618013507872,
positive,red,1,None,None,,,,,,,,,0,29,29,29,,,,,,,,,,,,,,,,,main,None,None,1,1.4950355000037234,290.2967232000083,None,None,1,,,,,,,,,,,,,,020,2022-05-17_10h46.46.199,Main,2022.1.1,59.80618013507872,
positive,blue,1,k,None,,,,,,,,,0,30,30,30,,,,,,,,,,,,,,,,,main,k,k,1,2.317261799995322,292.7967064999975,None,None,0,,,,,,,,,,,,,,020,2022-05-17_10h46.46.199,Main,2022.1.1,59.80618013507872,
positive,yellow,1,None,k,,,,,,,,,0,31,31,31,,,,,,,,,,,,,,,,,main,None,None,1,1.5005899000097997,297.11621169999125,None,None,1,,,,,,,,,,,,,,020,2022-05-17_10h46.46.199,Main,2022.1.1,59.80618013507872,
negative,yellow,2,k,None,,,,,,,,,0,32,32,32,,,,,,,,,,,,,,,,,main,k,k,1,0.912943000002997,299.61382569998386,None,None,0,,,,,,,,,,,,,,020,2022-05-17_10h46.46.199,Main,2022.1.1,59.80618013507872,
negative,blue,1,None,k,,,,,,,,,0,33,33,33,,,,,,,,,,,,,,,,,main,None,None,1,1.5016248000029009,301.52974689999246,None,None,1,,,,,,,,,,,,,,020,2022-05-17_10h46.46.199,Main,2022.1.1,59.80618013507872,
positive,blue,1,k,None,,,,,,,,,0,34,34,34,,,,,,,,,,,,,,,,,main,k,k,1,0.5660685999901034,304.03243200000725,None,None,0,,,,,,,,,,,,,,020,2022-05-17_10h46.46.199,Main,2022.1.1,59.80618013507872,
negative,yellow,1,k,None,,,,,,,,,0,35,35,35,,,,,,,,,,,,,,,,,main,k,k,1,0.9466316000034567,305.5990982000076,None,None,0,,,,,,,,,,,,,,020,2022-05-17_10h46.46.199,Main,2022.1.1,59.80618013507872,
positive,yellow,2,None,k,,,,,,,,,0,36,36,36,,,,,,,,,,,,,,,,,main,None,None,1,1.4987349000002723,307.5466007000068,None,None,1,,,,,,,,,,,,,,020,2022-05-17_10h46.46.199,Main,2022.1.1,59.80618013507872,
positive,yellow,2,None,k,,,,,,,,,0,37,37,37,,,,,,,,,,,,,,,,,main,None,None,1,1.5022569999855477,310.0462536000123,None,None,1,,,,,,,,,,,,,,020,2022-05-17_10h46.46.199,Main,2022.1.1,59.80618013507872,
negative,yellow,2,k,None,,,,,,,,,0,38,38,38,,,,,,,,,,,,,,,,,main,k,k,1,1.1490475999889895,312.5489569999918,None,None,0,,,,,,,,,,,,,,020,2022-05-17_10h46.46.199,Main,2022.1.1,59.80618013507872,
positive,yellow,1,None,k,,,,,,,,,0,39,39,39,,,,,,,,,,,,,,,,,main,None,None,1,1.498697800008813,314.69891879998613,None,None,1,,,,,,,,,,,,,,020,2022-05-17_10h46.46.199,Main,2022.1.1,59.80618013507872,
negative,yellow,2,k,None,,,,,,,,,0,40,40,40,,,,,,,,,,,,,,,,,main,k,k,1,0.7465717000013683,317.1987259000016,None,None,0,,,,,,,,,,,,,,020,2022-05-17_10h46.46.199,Main,2022.1.1,59.80618013507872,
positive,blue,2,k,None,,,,,,,,,0,41,41,41,,,,,,,,,,,,,,,,,main,k,k,1,0.8520104000053834,318.9460493999941,None,None,0,,,,,,,,,,,,,,020,2022-05-17_10h46.46.199,Main,2022.1.1,59.80618013507872,
positive,blue,2,k,None,,,,,,,,,0,42,42,42,,,,,,,,,,,,,,,,,main,k,k,1,0.7489809999824502,320.7987548999954,None,None,0,,,,,,,,,,,,,,020,2022-05-17_10h46.46.199,Main,2022.1.1,59.80618013507872,
negative,blue,2,None,k,,,,,,,,,0,43,43,43,,,,,,,,,,,,,,,,,main,None,None,1,1.496625400002813,322.54877110000234,None,None,1,,,,,,,,,,,,,,020,2022-05-17_10h46.46.199,Main,2022.1.1,59.80618013507872,
negative,red,1,None,None,,,,,,,,,0,44,44,44,,,,,,,,,,,,,,,,,main,None,None,1,1.49931679997826,325.0462183000054,None,None,1,,,,,,,,,,,,,,020,2022-05-17_10h46.46.199,Main,2022.1.1,59.80618013507872,
negative,yellow,1,k,None,,,,,,,,,0,45,45,45,,,,,,,,,,,,,,,,,main,k,k,1,0.7508490000036545,327.5458712000109,None,None,0,,,,,,,,,,,,,,020,2022-05-17_10h46.46.199,Main,2022.1.1,59.80618013507872,
negative,yellow,1,k,None,,,,,,,,,0,46,46,46,,,,,,,,,,,,,,,,,main,k,k,1,0.6490633000212256,329.2986106000026,None,None,0,,,,,,,,,,,,,,020,2022-05-17_10h46.46.199,Main,2022.1.1,59.80618013507872,
positive,red,1,None,None,,,,,,,,,0,47,47,47,,,,,,,,,,,,,,,,,main,None,None,1,1.498691399989184,330.94855390000157,None,None,1,,,,,,,,,,,,,,020,2022-05-17_10h46.46.199,Main,2022.1.1,59.80618013507872,
positive,yellow,1,None,k,,,,,,,,,0,48,48,48,,,,,,,,,,,,,,,,,main,None,None,1,1.497472299990477,333.4460480000125,None,None,1,,,,,,,,,,,,,,020,2022-05-17_10h46.46.199,Main,2022.1.1,59.80618013507872,
negative,blue,1,None,k,,,,,,,,,0,49,49,49,,,,,,,,,,,,,,,,,main,None,None,1,1.500499600020703,335.94570099998964,None,None,1,,,,,,,,,,,,,,020,2022-05-17_10h46.46.199,Main,2022.1.1,59.80618013507872,
positive,yellow,2,None,k,,,,,,,,,0,50,50,50,,,,,,,,,,,,,,,,,main,None,None,1,1.4992637000104878,338.4484453999903,None,None,1,,,,,,,,,,,,,,020,2022-05-17_10h46.46.199,Main,2022.1.1,59.80618013507872,
negative,blue,1,None,k,,,,,,,,,0,51,51,51,,,,,,,,,,,,,,,,,main,None,None,1,1.4971732999838423,340.9483821000031,None,None,1,,,,,,,,,,,,,,020,2022-05-17_10h46.46.199,Main,2022.1.1,59.80618013507872,
positive,red,2,None,None,,,,,,,,,0,52,52,52,,,,,,,,,,,,,,,,,main,None,None,1,1.5008221000025515,343.4456252999953,None,None,1,,,,,,,,,,,,,,020,2022-05-17_10h46.46.199,Main,2022.1.1,59.80618013507872,
positive,yellow,2,None,k,,,,,,,,,0,53,53,53,,,,,,,,,,,,,,,,,main,None,None,1,1.4967516000033356,345.94828129999223,None,None,1,,,,,,,,,,,,,,020,2022-05-17_10h46.46.199,Main,2022.1.1,59.80618013507872,
negative,red,2,None,None,,,,,,,,,0,54,54,54,,,,,,,,,,,,,,,,,main,None,None,1,1.5006992999988142,348.4454770000011,None,None,1,,,,,,,,,,,,,,020,2022-05-17_10h46.46.199,Main,2022.1.1,59.80618013507872,
positive,yellow,1,None,k,,,,,,,,,0,55,55,55,,,,,,,,,,,,,,,,,main,None,None,1,1.4994378999981564,350.94815760001075,None,None,1,,,,,,,,,,,,,,020,2022-05-17_10h46.46.199,Main,2022.1.1,59.80618013507872,
negative,blue,2,None,k,,,,,,,,,0,56,56,56,,,,,,,,,,,,,,,,,main,None,None,1,1.4967945999815129,353.4481786999968,None,None,1,,,,,,,,,,,,,,020,2022-05-17_10h46.46.199,Main,2022.1.1,59.80618013507872,
positive,blue,1,k,None,,,,,,,,,0,57,57,57,,,,,,,,,,,,,,,,,main,k,k,1,1.3319487000117078,355.94799640000565,None,None,0,,,,,,,,,,,,,,020,2022-05-17_10h46.46.199,Main,2022.1.1,59.80618013507872,
positive,blue,1,k,None,,,,,,,,,0,58,58,58,,,,,,,,,,,,,,,,,main,k,k,1,0.7186379000195302,358.2786160999967,None,None,0,,,,,,,,,,,,,,020,2022-05-17_10h46.46.199,Main,2022.1.1,59.80618013507872,
negative,yellow,2,k,None,,,,,,,,,0,59,59,59,,,,,,,,,,,,,,,,,main,k,k,1,0.865320500015514,359.99800479999976,None,None,0,,,,,,,,,,,,,,020,2022-05-17_10h46.46.199,Main,2022.1.1,59.80618013507872,
positive,red,2,None,None,,,,,,,,,0,60,60,60,,,,,,,,,,,,,,,,,main,None,None,1,1.4990720999776386,361.86466679998557,None,None,1,,,,,,,,,,,,,,020,2022-05-17_10h46.46.199,Main,2022.1.1,59.80618013507872,
negative,yellow,1,k,None,,,,,,,,,0,61,61,61,,,,,,,,,,,,,,,,,main,k,k,1,1.0632502000080422,364.36457350000273,None,None,0,,,,,,,,,,,,,,020,2022-05-17_10h46.46.199,Main,2022.1.1,59.80618013507872,
negative,red,1,None,None,,,,,,,,,0,62,62,62,,,,,,,,,,,,,,,,,main,None,None,1,1.5017397000046913,366.4284486999968,None,None,1,,,,,,,,,,,,,,020,2022-05-17_10h46.46.199,Main,2022.1.1,59.80618013507872,
negative,blue,1,None,k,,,,,,,,,0,63,63,63,,,,,,,,,,,,,,,,,main,None,None,1,1.4968364000087604,368.9311110000126,None,None,1,,,,,,,,,,,,,,020,2022-05-17_10h46.46.199,Main,2022.1.1,59.80618013507872,
positive,blue,2,k,None,,,,,,,,,0,64,64,64,,,,,,,,,,,,,,,,,main,k,k,1,0.6993284999916796,371.4286158999894,None,None,0,,,,,,,,,,,,,,020,2022-05-17_10h46.46.199,Main,2022.1.1,59.80618013507872,
negative,yellow,2,k,None,,,,,,,,,0,65,65,65,,,,,,,,,,,,,,,,,main,k,k,1,0.8155643999925815,373.1285789000103,None,None,0,,,,,,,,,,,,,,020,2022-05-17_10h46.46.199,Main,2022.1.1,59.80618013507872,
positive,yellow,2,None,k,,,,,,,,,0,66,66,66,,,,,,,,,,,,,,,,,main,None,None,1,1.5013190999743529,374.94494109999505,None,None,1,,,,,,,,,,,,,,020,2022-05-17_10h46.46.199,Main,2022.1.1,59.80618013507872,
positive,yellow,2,None,k,,,,,,,,,0,67,67,67,,,,,,,,,,,,,,,,,main,None,None,1,1.4963484999898355,377.44763549999334,None,None,1,,,,,,,,,,,,,,020,2022-05-17_10h46.46.199,Main,2022.1.1,59.80618013507872,
positive,red,1,None,None,,,,,,,,,0,68,68,68,,,,,,,,,,,,,,,,,main,None,None,1,1.4999429000017699,379.94503939998685,None,None,1,,,,,,,,,,,,,,020,2022-05-17_10h46.46.199,Main,2022.1.1,59.80618013507872,
positive,yellow,1,None,k,,,,,,,,,0,69,69,69,,,,,,,,,,,,,,,,,main,None,None,1,1.501499200006947,382.4449015999853,None,None,1,,,,,,,,,,,,,,020,2022-05-17_10h46.46.199,Main,2022.1.1,59.80618013507872,
negative,yellow,2,k,None,,,,,,,,,0,70,70,70,,,,,,,,,,,,,,,,,main,k,k,1,0.7285471000068355,384.94751930001075,None,None,0,,,,,,,,,,,,,,020,2022-05-17_10h46.46.199,Main,2022.1.1,59.80618013507872,
positive,yellow,1,None,k,,,,,,,,,0,71,71,71,,,,,,,,,,,,,,,,,main,None,None,1,1.5015113000117708,386.6782923999999,None,None,1,,,,,,,,,,,,,,020,2022-05-17_10h46.46.199,Main,2022.1.1,59.80618013507872,
negative,blue,1,None,k,,,,,,,,,0,72,72,72,,,,,,,,,,,,,,,,,main,None,None,1,1.5000750999897718,389.1807323000103,None,None,1,,,,,,,,,,,,,,020,2022-05-17_10h46.46.199,Main,2022.1.1,59.80618013507872,
negative,red,2,None,None,,,,,,,,,0,73,73,73,,,,,,,,,,,,,,,,,main,None,None,1,1.4962157999980263,391.6806940000097,None,None,1,,,,,,,,,,,,,,020,2022-05-17_10h46.46.199,Main,2022.1.1,59.80618013507872,
positive,blue,2,k,None,,,,,,,,,0,74,74,74,,,,,,,,,,,,,,,,,main,k,k,1,0.8344236000266392,394.1779252999986,None,None,0,,,,,,,,,,,,,,020,2022-05-17_10h46.46.199,Main,2022.1.1,59.80618013507872,
negative,blue,2,None,k,,,,,,,,,0,75,75,75,,,,,,,,,,,,,,,,,main,None,None,1,1.4984930999926291,396.01390150000225,None,None,1,,,,,,,,,,,,,,020,2022-05-17_10h46.46.199,Main,2022.1.1,59.80618013507872,
negative,blue,2,None,k,,,,,,,,,0,76,76,76,,,,,,,,,,,,,,,,,main,None,None,1,1.4975300999940373,398.5137510999921,None,None,1,,,,,,,,,,,,,,020,2022-05-17_10h46.46.199,Main,2022.1.1,59.80618013507872,
negative,yellow,1,k,None,,,,,,,,,0,77,77,77,,,,,,,,,,,,,,,,,main,k,k,1,0.8341530000034254,401.01105189998634,None,None,0,,,,,,,,,,,,,,020,2022-05-17_10h46.46.199,Main,2022.1.1,59.80618013507872,
positive,blue,1,k,None,,,,,,,,,0,78,78,78,,,,,,,,,,,,,,,,,main,k,k,1,0.8489775999914855,402.84716020000633,None,None,0,,,,,,,,,,,,,,020,2022-05-17_10h46.46.199,Main,2022.1.1,59.80618013507872,
positive,blue,1,k,None,,,,,,,,,0,79,79,79,,,,,,,,,,,,,,,,,main,k,k,1,0.6137266999867279,404.69708389998414,None,None,0,,,,,,,,,,,,,,020,2022-05-17_10h46.46.199,Main,2022.1.1,59.80618013507872,
positive,red,2,None,None,,,,,,,,,0,80,80,80,,,,,,,,,,,,,,,,,main,None,None,1,1.5029119000246283,406.31162799999584,None,None,1,,,,,,,,,,,,,,020,2022-05-17_10h46.46.199,Main,2022.1.1,59.80618013507872,
positive,yellow,2,None,k,,,,,,,,,0,81,81,81,,,,,,,,,,,,,,,,,main,None,None,1,1.4962549000047147,408.8111159999971,None,None,1,,,,,,,,,,,,,,020,2022-05-17_10h46.46.199,Main,2022.1.1,59.80618013507872,
positive,blue,1,k,None,,,,,,,,,0,82,82,82,,,,,,,,,,,,,,,,,main,k,k,1,0.813543700001901,411.31114519998664,None,None,0,,,,,,,,,,,,,,020,2022-05-17_10h46.46.199,Main,2022.1.1,59.80618013507872,
negative,yellow,2,k,None,,,,,,,,,0,83,83,83,,,,,,,,,,,,,,,,,main,k,k,1,0.8655252000025939,413.13016249999055,None,None,0,,,,,,,,,,,,,,020,2022-05-17_10h46.46.199,Main,2022.1.1,59.80618013507872,
positive,blue,2,k,None,,,,,,,,,0,84,84,84,,,,,,,,,,,,,,,,,main,k,k,1,0.7831500000029337,414.99443180000526,None,None,0,,,,,,,,,,,,,,020,2022-05-17_10h46.46.199,Main,2022.1.1,59.80618013507872,
positive,yellow,1,None,k,,,,,,,,,0,85,85,85,,,,,,,,,,,,,,,,,main,None,None,1,1.5009119000169449,416.7801343000028,None,None,1,,,,,,,,,,,,,,020,2022-05-17_10h46.46.199,Main,2022.1.1,59.80618013507872,
positive,blue,2,k,None,,,,,,,,,0,86,86,86,,,,,,,,,,,,,,,,,main,k,k,1,1.1638512999925297,419.2801102999947,None,None,0,,,,,,,,,,,,,,020,2022-05-17_10h46.46.199,Main,2022.1.1,59.80618013507872,
positive,blue,1,k,None,,,,,,,,,0,87,87,87,,,,,,,,,,,,,,,,,main,k,k,1,0.8653556999925058,421.4465768999944,None,None,0,,,,,,,,,,,,,,020,2022-05-17_10h46.46.199,Main,2022.1.1,59.80618013507872,
negative,yellow,2,k,None,,,,,,,,,0,88,88,88,,,,,,,,,,,,,,,,,main,k,k,1,0.7991115000040736,423.31059820001246,None,None,0,,,,,,,,,,,,,,020,2022-05-17_10h46.46.199,Main,2022.1.1,59.80618013507872,
negative,blue,2,None,k,,,,,,,,,0,89,89,89,,,,,,,,,,,,,,,,,main,None,None,1,1.5017223999893758,425.11062550000497,None,None,1,,,,,,,,,,,,,,020,2022-05-17_10h46.46.199,Main,2022.1.1,59.80618013507872,
positive,yellow,2,None,k,,,,,,,,,0,90,90,90,,,,,,,,,,,,,,,,,main,None,None,1,1.4964656000083778,427.6134533000004,None,None,1,,,,,,,,,,,,,,020,2022-05-17_10h46.46.199,Main,2022.1.1,59.80618013507872,
negative,yellow,1,k,None,,,,,,,,,0,91,91,91,,,,,,,,,,,,,,,,,main,k,k,1,0.9327672999934293,430.1107326000056,None,None,0,,,,,,,,,,,,,,020,2022-05-17_10h46.46.199,Main,2022.1.1,59.80618013507872,
negative,red,2,None,None,,,,,,,,,0,92,92,92,,,,,,,,,,,,,,,,,main,None,None,1,1.4990502999862656,432.04643039999064,None,None,1,,,,,,,,,,,,,,020,2022-05-17_10h46.46.199,Main,2022.1.1,59.80618013507872,
negative,blue,2,None,k,,,,,,,,,0,93,93,93,,,,,,,,,,,,,,,,,main,None,None,1,1.5015210999990813,434.54384719999507,None,None,1,,,,,,,,,,,,,,020,2022-05-17_10h46.46.199,Main,2022.1.1,59.80618013507872,
negative,blue,1,None,k,,,,,,,,,0,94,94,94,,,,,,,,,,,,,,,,,main,None,None,1,1.4954148000106215,437.0464134000067,None,None,1,,,,,,,,,,,,,,020,2022-05-17_10h46.46.199,Main,2022.1.1,59.80618013507872,
negative,blue,1,None,k,,,,,,,,,0,95,95,95,,,,,,,,,,,,,,,,,main,None,None,1,1.4988875999988522,439.54391869998653,None,None,1,,,,,,,,,,,,,,020,2022-05-17_10h46.46.199,Main,2022.1.1,59.80618013507872,
negative,red,1,None,None,,,,,,,,,0,96,96,96,,,,,,,,,,,,,,,,,main,None,None,1,1.500698400021065,442.04356580000604,None,None,1,,,,,,,,,,,,,,020,2022-05-17_10h46.46.199,Main,2022.1.1,59.80618013507872,
positive,yellow,1,None,k,,,,,,,,,0,97,97,97,,,,,,,,,,,,,,,,,main,None,None,1,1.4991477000003215,444.54639539998607,None,None,1,,,,,,,,,,,,,,020,2022-05-17_10h46.46.199,Main,2022.1.1,59.80618013507872,
negative,yellow,1,k,None,,,,,,,,,0,98,98,98,,,,,,,,,,,,,,,,,main,k,k,1,0.680769499973394,447.0462193999847,None,None,0,,,,,,,,,,,,,,020,2022-05-17_10h46.46.199,Main,2022.1.1,59.80618013507872,
positive,red,1,None,None,,,,,,,,,0,99,99,99,,,,,,,,,,,,,,,,,main,None,None,1,1.5020997000101488,448.7267695000046,None,None,1,,,,,,,,,,,,,,020,2022-05-17_10h46.46.199,Main,2022.1.1,59.80618013507872,
positive,blue,1,k,None,,,,,,,,,0,100,100,100,,,,,,,,,,,,,,,,,main,k,k,1,0.694998899998609,451.2295235999918,None,None,0,,,,,,,,,,,,,,020,2022-05-17_10h46.46.199,Main,2022.1.1,59.80618013507872,
negative,yellow,1,k,None,,,,,,,,,0,101,101,101,,,,,,,,,,,,,,,,,main,k,k,1,2.6819303999945987,452.9294862000097,None,None,0,,,,,,,,,,,,,,020,2022-05-17_10h46.46.199,Main,2022.1.1,59.80618013507872,
negative,blue,2,None,k,,,,,,,,,0,102,102,102,,,,,,,,,,,,,,,,,main,None,None,1,1.4871868999907747,457.6129631999938,None,None,1,,,,,,,,,,,,,,020,2022-05-17_10h46.46.199,Main,2022.1.1,59.80618013507872,
negative,yellow,2,k,None,,,,,,,,,0,103,103,103,,,,,,,,,,,,,,,,,main,k,k,1,0.8935436999890953,460.0971409000049,None,None,0,,,,,,,,,,,,,,020,2022-05-17_10h46.46.199,Main,2022.1.1,59.80618013507872,
positive,yellow,2,None,k,,,,,,,,,0,104,104,104,,,,,,,,,,,,,,,,,main,None,None,1,1.5012899999856018,461.99316849999013,None,None,1,,,,,,,,,,,,,,020,2022-05-17_10h46.46.199,Main,2022.1.1,59.80618013507872,
positive,blue,1,k,None,,,,,,,,,0,105,105,105,,,,,,,,,,,,,,,,,main,k,k,1,0.8063169000088237,464.4961113999889,None,None,0,,,,,,,,,,,,,,020,2022-05-17_10h46.46.199,Main,2022.1.1,59.80618013507872,
positive,blue,2,k,None,,,,,,,,,0,106,106,106,,,,,,,,,,,,,,,,,main,k,k,1,0.7564217000035569,466.30659389999346,None,None,0,,,,,,,,,,,,,,020,2022-05-17_10h46.46.199,Main,2022.1.1,59.80618013507872,
negative,blue,1,None,k,,,,,,,,,0,107,107,107,,,,,,,,,,,,,,,,,main,None,None,1,1.4990761000080965,468.0600819000101,None,None,1,,,,,,,,,,,,,,020,2022-05-17_10h46.46.199,Main,2022.1.1,59.80618013507872,
positive,yellow,2,None,k,,,,,,,,,0,108,108,108,,,,,,,,,,,,,,,,,main,None,None,1,1.5003964999923483,470.5599440000078,None,None,1,,,,,,,,,,,,,,020,2022-05-17_10h46.46.199,Main,2022.1.1,59.80618013507872,
negative,yellow,1,k,None,,,,,,,,,0,109,109,109,,,,,,,,,,,,,,,,,main,k,k,1,0.930283599998802,473.0623537999927,None,None,0,,,,,,,,,,,,,,020,2022-05-17_10h46.46.199,Main,2022.1.1,59.80618013507872,
negative,blue,2,None,k,,,,,,,,,0,110,110,110,,,,,,,,,,,,,,,,,main,None,None,1,1.501713000005111,474.9931372999854,None,None,1,,,,,,,,,,,,,,020,2022-05-17_10h46.46.199,Main,2022.1.1,59.80618013507872,
positive,blue,2,k,None,,,,,,,,,0,111,111,111,,,,,,,,,,,,,,,,,main,k,k,1,1.0301525999966543,477.4958915000025,None,None,0,,,,,,,,,,,,,,020,2022-05-17_10h46.46.199,Main,2022.1.1,59.80618013507872,
negative,blue,1,None,k,,,,,,,,,0,112,112,112,,,,,,,,,,,,,,,,,main,None,None,1,1.4988986999960616,479.5265476999921,None,None,1,,,,,,,,,,,,,,020,2022-05-17_10h46.46.199,Main,2022.1.1,59.80618013507872,
positive,yellow,1,None,k,,,,,,,,,0,113,113,113,,,,,,,,,,,,,,,,,main,None,None,1,1.5011357999756,482.026108799997,None,None,1,,,,,,,,,,,,,,020,2022-05-17_10h46.46.199,Main,2022.1.1,59.80618013507872,
negative,red,1,None,None,,,,,,,,,0,114,114,114,,,,,,,,,,,,,,,,,main,None,None,1,1.4987707999825943,484.5288317000086,None,None,1,,,,,,,,,,,,,,020,2022-05-17_10h46.46.199,Main,2022.1.1,59.80618013507872,
positive,red,1,None,None,,,,,,,,,0,115,115,115,,,,,,,,,,,,,,,,,main,None,None,1,1.4988153000012971,487.02879270000267,None,None,1,,,,,,,,,,,,,,020,2022-05-17_10h46.46.199,Main,2022.1.1,59.80618013507872,
negative,red,2,None,None,,,,,,,,,0,116,116,116,,,,,,,,,,,,,,,,,main,None,None,1,1.4971521999977995,489.5262675000122,None,None,1,,,,,,,,,,,,,,020,2022-05-17_10h46.46.199,Main,2022.1.1,59.80618013507872,
negative,yellow,2,k,None,,,,,,,,,0,117,117,117,,,,,,,,,,,,,,,,,main,k,k,1,1.0507725000206847,492.026016799995,None,None,0,,,,,,,,,,,,,,020,2022-05-17_10h46.46.199,Main,2022.1.1,59.80618013507872,
positive,yellow,1,None,k,,,,,,,,,0,118,118,118,,,,,,,,,,,,,,,,,main,None,None,1,1.497745999979088,494.0785986999981,None,None,1,,,,,,,,,,,,,,020,2022-05-17_10h46.46.199,Main,2022.1.1,59.80618013507872,
positive,red,2,None,None,,,,,,,,,0,119,119,119,,,,,,,,,,,,,,,,,main,None,None,1,1.5000359999830835,496.57579890001216,None,None,1,,,,,,,,,,,,,,020,2022-05-17_10h46.46.199,Main,2022.1.1,59.80618013507872,
positive,blue,2,k,None,,,,,,,,,0,120,120,120,,,,,,,,,,,,,,,,,main,k,k,1,1.032629299996188,499.0784789999889,None,None,0,,,,,,,,,,,,,,020,2022-05-17_10h46.46.199,Main,2022.1.1,59.80618013507872,
negative,red,1,None,None,,,,,,,,,0,121,121,121,,,,,,,,,,,,,,,,,main,None,None,1,1.4963862000149675,501.11179239998455,None,None,1,,,,,,,,,,,,,,020,2022-05-17_10h46.46.199,Main,2022.1.1,59.80618013507872,
positive,yellow,2,None,k,,,,,,,,,0,122,122,122,,,,,,,,,,,,,,,,,main,None,None,1,1.498706200014567,503.6092825999949,None,None,1,,,,,,,,,,,,,,020,2022-05-17_10h46.46.199,Main,2022.1.1,59.80618013507872,
negative,red,2,None,None,,,,,,,,,0,123,123,123,,,,,,,,,,,,,,,,,main,None,None,1,1.501756400015438,506.10894979999284,None,None,1,,,,,,,,,,,,,,020,2022-05-17_10h46.46.199,Main,2022.1.1,59.80618013507872,
negative,yellow,2,k,None,,,,,,,,,0,124,124,124,,,,,,,,,,,,,,,,,main,k,k,1,0.7328993999981321,508.61166299998877,None,None,0,,,,,,,,,,,,,,020,2022-05-17_10h46.46.199,Main,2022.1.1,59.80618013507872,
positive,red,1,None,None,,,,,,,,,0,125,125,125,,,,,,,,,,,,,,,,,main,None,None,1,1.4998068999848329,510.344938299997,None,None,1,,,,,,,,,,,,,,020,2022-05-17_10h46.46.199,Main,2022.1.1,59.80618013507872,
negative,blue,2,None,k,,,,,,,,,0,126,126,126,,,,,,,,,,,,,,,,,main,None,None,1,1.496296200028155,512.8424495999934,None,None,1,,,,,,,,,,,,,,020,2022-05-17_10h46.46.199,Main,2022.1.1,59.80618013507872,
negative,blue,1,None,k,,,,,,,,,0,127,127,127,,,,,,,,,,,,,,,,,main,None,None,1,1.5000210000143852,515.3423806999926,None,None,1,,,,,,,,,,,,,,020,2022-05-17_10h46.46.199,Main,2022.1.1,59.80618013507872,
negative,yellow,1,k,None,,,,,,,,,0,128,128,128,,,,,,,,,,,,,,,,,main,k,k,1,0.846989499987103,517.8448356000008,None,None,0,,,,,,,,,,,,,,020,2022-05-17_10h46.46.199,Main,2022.1.1,59.80618013507872,
negative,yellow,1,k,None,,,,,,,,,0,129,129,129,,,,,,,,,,,,,,,,,main,k,k,1,1.0157069999841042,519.6925830999971,None,None,0,,,,,,,,,,,,,,020,2022-05-17_10h46.46.199,Main,2022.1.1,59.80618013507872,
positive,blue,1,k,None,,,,,,,,,0,130,130,130,,,,,,,,,,,,,,,,,main,k,k,1,0.6999718000006396,521.7088709000091,None,None,0,,,,,,,,,,,,,,020,2022-05-17_10h46.46.199,Main,2022.1.1,59.80618013507872,
negative,blue,1,None,k,,,,,,,,,0,131,131,131,,,,,,,,,,,,,,,,,main,None,None,1,1.4977731000108179,523.4089104000013,None,None,1,,,,,,,,,,,,,,020,2022-05-17_10h46.46.199,Main,2022.1.1,59.80618013507872,
negative,blue,2,None,k,,,,,,,,,0,132,132,132,,,,,,,,,,,,,,,,,main,None,None,1,1.498776499996893,525.9089242999908,None,None,1,,,,,,,,,,,,,,020,2022-05-17_10h46.46.199,Main,2022.1.1,59.80618013507872,
positive,blue,2,k,None,,,,,,,,,0,133,133,133,,,,,,,,,,,,,,,,,main,k,k,1,0.7024639999726787,528.4085003999935,None,None,0,,,,,,,,,,,,,,020,2022-05-17_10h46.46.199,Main,2022.1.1,59.80618013507872,
positive,red,2,None,None,,,,,,,,,0,134,134,134,,,,,,,,,,,,,,,,,main,None,None,1,1.4973541999934241,530.1112117999874,None,None,1,,,,,,,,,,,,,,020,2022-05-17_10h46.46.199,Main,2022.1.1,59.80618013507872,
negative,yellow,2,k,None,,,,,,,,,0,135,135,135,,,,,,,,,,,,,,,,,main,k,k,1,0.7628034999943338,532.6114094000077,None,None,0,,,,,,,,,,,,,,020,2022-05-17_10h46.46.199,Main,2022.1.1,59.80618013507872,
positive,yellow,2,None,k,,,,,,,,,0,136,136,136,,,,,,,,,,,,,,,,,main,None,None,1,1.5020340000046417,534.3750300999964,None,None,1,,,,,,,,,,,,,,020,2022-05-17_10h46.46.199,Main,2022.1.1,59.80618013507872,
positive,blue,1,k,None,,,,,,,,,0,137,137,137,,,,,,,,,,,,,,,,,main,k,k,1,0.5991523000120651,536.8778048999957,None,None,0,,,,,,,,,,,,,,020,2022-05-17_10h46.46.199,Main,2022.1.1,59.80618013507872,
positive,yellow,1,None,k,,,,,,,,,0,138,138,138,,,,,,,,,,,,,,,,,main,None,None,1,1.4985498000169173,538.4777291000064,None,None,1,,,,,,,,,,,,,,020,2022-05-17_10h46.46.199,Main,2022.1.1,59.80618013507872,
positive,yellow,1,None,k,,,,,,,,,0,139,139,139,,,,,,,,,,,,,,,,,main,None,None,1,1.4967684000148438,540.9775568000041,None,None,1,,,,,,,,,,,,,,020,2022-05-17_10h46.46.199,Main,2022.1.1,59.80618013507872,
positive,yellow,1,None,k,,,,,,,,,0,140,140,140,,,,,,,,,,,,,,,,,main,None,None,1,1.5008228000078816,543.4748652999988,None,None,1,,,,,,,,,,,,,,020,2022-05-17_10h46.46.199,Main,2022.1.1,59.80618013507872,
positive,blue,1,k,None,,,,,,,,,0,141,141,141,,,,,,,,,,,,,,,,,main,k,k,1,0.6323726999980863,545.9778839999926,None,None,0,,,,,,,,,,,,,,020,2022-05-17_10h46.46.199,Main,2022.1.1,59.80618013507872,
positive,blue,2,k,None,,,,,,,,,0,142,142,142,,,,,,,,,,,,,,,,,main,k,k,1,2.5798192999791354,547.6108617999998,None,None,0,,,,,,,,,,,,,,020,2022-05-17_10h46.46.199,Main,2022.1.1,59.80618013507872,
positive,yellow,2,None,k,,,,,,,,,0,143,143,143,,,,,,,,,,,,,,,,,main,None,None,1,1.486793399992166,552.2080831000058,None,None,1,,,,,,,,,,,,,,020,2022-05-17_10h46.46.199,Main,2022.1.1,59.80618013507872,
negative,yellow,2,k,None,,,,,,,,,0,144,144,144,,,,,,,,,,,,,,,,,main,k,k,1,0.8154945000133011,554.6941542999994,None,None,0,,,,,,,,,,,,,,020,2022-05-17_10h46.46.199,Main,2022.1.1,59.80618013507872,
negative,blue,2,None,k,,,,,,,,,0,145,145,145,,,,,,,,,,,,,,,,,main,None,None,1,1.4971873000031337,556.5106789999991,None,None,1,,,,,,,,,,,,,,020,2022-05-17_10h46.46.199,Main,2022.1.1,59.80618013507872,
negative,red,1,None,None,,,,,,,,,0,146,146,146,,,,,,,,,,,,,,,,,main,None,None,1,1.5007678999972995,559.0079520999861,None,None,1,,,,,,,,,,,,,,020,2022-05-17_10h46.46.199,Main,2022.1.1,59.80618013507872,
positive,blue,1,k,None,,,,,,,,,0,147,147,147,,,,,,,,,,,,,,,,,main,k,k,1,1.0990658999944571,561.5105966000119,None,None,0,,,,,,,,,,,,,,020,2022-05-17_10h46.46.199,Main,2022.1.1,59.80618013507872,
positive,yellow,1,None,k,,,,,,,,,0,148,148,148,,,,,,,,,,,,,,,,,main,None,None,1,1.4964396000141278,563.6105300000054,None,None,1,,,,,,,,,,,,,,020,2022-05-17_10h46.46.199,Main,2022.1.1,59.80618013507872,
negative,red,2,None,None,,,,,,,,,0,149,149,149,,,,,,,,,,,,,,,,,main,None,None,1,1.499894399981713,566.1080120000115,None,None,1,,,,,,,,,,,,,,020,2022-05-17_10h46.46.199,Main,2022.1.1,59.80618013507872,
negative,blue,1,None,k,,,,,,,,,0,150,150,150,,,,,,,,,,,,,,,,,main,None,None,1,1.5003201000217814,568.6076908000105,None,None,1,,,,,,,,,,,,,,020,2022-05-17_10h46.46.199,Main,2022.1.1,59.80618013507872,
negative,yellow,2,k,None,,,,,,,,,0,151,151,151,,,,,,,,,,,,,,,,,main,k,k,1,1.5474130000220612,571.1103901999886,None,None,0,,,,,,,,,,,,,,020,2022-05-17_10h46.46.199,Main,2022.1.1,59.80618013507872,
negative,blue,2,None,k,,,,,,,,,0,152,152,152,,,,,,,,,,,,,,,,,main,None,None,1,1.5031587000121363,574.6744560000079,None,None,1,,,,,,,,,,,,,,020,2022-05-17_10h46.46.199,Main,2022.1.1,59.80618013507872,
negative,yellow,1,k,None,,,,,,,,,0,153,153,153,,,,,,,,,,,,,,,,,main,k,k,1,0.7323265000013635,577.1769117999938,None,None,0,,,,,,,,,,,,,,020,2022-05-17_10h46.46.199,Main,2022.1.1,59.80618013507872,
negative,blue,1,None,k,,,,,,,,,0,154,154,154,,,,,,,,,,,,,,,,,main,None,None,1,1.49717149999924,578.9102329000016,None,None,1,,,,,,,,,,,,,,020,2022-05-17_10h46.46.199,Main,2022.1.1,59.80618013507872,
positive,yellow,2,None,k,,,,,,,,,0,155,155,155,,,,,,,,,,,,,,,,,main,None,None,1,1.5005317000031937,581.4076505999838,None,None,1,,,,,,,,,,,,,,020,2022-05-17_10h46.46.199,Main,2022.1.1,59.80618013507872,
positive,red,2,None,None,,,,,,,,,0,156,156,156,,,,,,,,,,,,,,,,,main,None,None,1,1.4970662999839988,583.9101307000092,None,None,1,,,,,,,,,,,,,,020,2022-05-17_10h46.46.199,Main,2022.1.1,59.80618013507872,
positive,red,1,None,None,,,,,,,,,0,157,157,157,,,,,,,,,,,,,,,,,main,None,None,1,1.4983606000023428,586.4100058999902,None,None,1,,,,,,,,,,,,,,020,2022-05-17_10h46.46.199,Main,2022.1.1,59.80618013507872,
positive,blue,2,k,None,,,,,,,,,0,158,158,158,,,,,,,,,,,,,,,,,main,k,k,1,0.9039880000054836,588.907265899994,None,None,0,,,,,,,,,,,,,,020,2022-05-17_10h46.46.199,Main,2022.1.1,59.80618013507872,
negative,yellow,1,k,None,,,,,,,,,0,159,159,159,,,,,,,,,,,,,,,,,main,k,k,1,1.4948130999982823,590.8100099999865,None,None,0,,,,,,,,,,,,,,020,2022-05-17_10h46.46.199,Main,2022.1.1,59.80618013507872,
negative,red,2,None,None,,,,,,,,,0,160,160,160,,,,,,,,,,,,,,,,,main,None,None,1,1.5004469999985304,593.3099536999944,None,None,1,,,,,,,,,,,,,,020,2022-05-17_10h46.46.199,Main,2022.1.1,59.80618013507872,
negative,blue,1,None,k,,,,,,,,,0,161,161,161,,,,,,,,,,,,,,,,,main,None,None,1,1.4976776999828871,595.8074028000119,None,None,1,,,,,,,,,,,,,,020,2022-05-17_10h46.46.199,Main,2022.1.1,59.80618013507872,
negative,blue,1,None,k,,,,,,,,,0,162,162,162,,,,,,,,,,,,,,,,,main,None,None,1,1.5004675000091083,598.3070962000056,None,None,1,,,,,,,,,,,,,,020,2022-05-17_10h46.46.199,Main,2022.1.1,59.80618013507872,
negative,yellow,1,k,None,,,,,,,,,0,163,163,163,,,,,,,,,,,,,,,,,main,k,k,1,0.799411100015277,600.8097953000106,None,None,0,,,,,,,,,,,,,,020,2022-05-17_10h46.46.199,Main,2022.1.1,59.80618013507872,
negative,yellow,1,k,None,,,,,,,,,0,164,164,164,,,,,,,,,,,,,,,,,main,k,k,1,0.7823141000117175,602.6097589999845,None,None,0,,,,,,,,,,,,,,020,2022-05-17_10h46.46.199,Main,2022.1.1,59.80618013507872,
positive,yellow,1,None,k,,,,,,,,,0,165,165,165,,,,,,,,,,,,,,,,,main,None,None,1,1.4972792000044137,604.3905756000022,None,None,1,,,,,,,,,,,,,,020,2022-05-17_10h46.46.199,Main,2022.1.1,59.80618013507872,
negative,red,1,None,None,,,,,,,,,0,166,166,166,,,,,,,,,,,,,,,,,main,None,None,1,1.5009696999914013,606.8902521999844,None,None,1,,,,,,,,,,,,,,020,2022-05-17_10h46.46.199,Main,2022.1.1,59.80618013507872,
negative,yellow,2,k,None,,,,,,,,,0,167,167,167,,,,,,,,,,,,,,,,,main,k,k,1,0.9324245000025257,609.3931914999848,None,None,0,,,,,,,,,,,,,,020,2022-05-17_10h46.46.199,Main,2022.1.1,59.80618013507872,
positive,blue,2,k,None,,,,,,,,,0,168,168,168,,,,,,,,,,,,,,,,,main,k,k,1,0.9295216999889817,611.3264610999904,None,None,0,,,,,,,,,,,,,,020,2022-05-17_10h46.46.199,Main,2022.1.1,59.80618013507872,
positive,red,2,None,None,,,,,,,,,0,169,169,169,,,,,,,,,,,,,,,,,main,None,None,1,1.5016007000231184,613.2568705999875,None,None,1,,,,,,,,,,,,,,020,2022-05-17_10h46.46.199,Main,2022.1.1,59.80618013507872,
positive,red,1,None,None,,,,,,,,,0,170,170,170,,,,,,,,,,,,,,,,,main,None,None,1,1.4990897999959998,615.7594846999855,None,None,1,,,,,,,,,,,,,,020,2022-05-17_10h46.46.199,Main,2022.1.1,59.80618013507872,
negative,blue,2,None,k,,,,,,,,,0,171,171,171,,,,,,,,,,,,,,,,,main,None,None,1,1.4971664000186138,618.2594179000007,None,None,1,,,,,,,,,,,,,,020,2022-05-17_10h46.46.199,Main,2022.1.1,59.80618013507872,
positive,blue,2,k,None,,,,,,,,,0,172,172,172,,,,,,,,,,,,,,,,,main,k,k,1,0.6840849000145681,620.7566539999971,None,None,0,,,,,,,,,,,,,,020,2022-05-17_10h46.46.199,Main,2022.1.1,59.80618013507872,
negative,yellow,2,k,None,,,,,,,,,0,173,173,173,,,,,,,,,,,,,,,,,main,k,k,1,0.7994353999965824,622.4426795000036,None,None,0,,,,,,,,,,,,,,020,2022-05-17_10h46.46.199,Main,2022.1.1,59.80618013507872,
positive,yellow,2,None,k,,,,,,,,,0,174,174,174,,,,,,,,,,,,,,,,,main,None,None,1,1.4963128000090364,624.2431202000007,None,None,1,,,,,,,,,,,,,,020,2022-05-17_10h46.46.199,Main,2022.1.1,59.80618013507872,
negative,blue,2,None,k,,,,,,,,,0,175,175,175,,,,,,,,,,,,,,,,,main,None,None,1,1.501385500014294,626.7399217000057,None,None,1,,,,,,,,,,,,,,020,2022-05-17_10h46.46.199,Main,2022.1.1,59.80618013507872,
positive,blue,1,k,None,,,,,,,,,0,176,176,176,,,,,,,,,,,,,,,,,main,k,k,1,0.7994133000029251,629.2425382999936,None,None,0,,,,,,,,,,,,,,020,2022-05-17_10h46.46.199,Main,2022.1.1,59.80618013507872,
positive,yellow,1,None,k,,,,,,,,,0,177,177,177,,,,,,,,,,,,,,,,,main,None,None,1,1.4970229999744333,631.0424742999894,None,None,1,,,,,,,,,,,,,,020,2022-05-17_10h46.46.199,Main,2022.1.1,59.80618013507872,
positive,blue,1,k,None,,,,,,,,,0,178,178,178,,,,,,,,,,,,,,,,,main,k,k,1,0.7339416999893729,633.5401604000072,None,None,0,,,,,,,,,,,,,,020,2022-05-17_10h46.46.199,Main,2022.1.1,59.80618013507872,
positive,yellow,2,None,k,,,,,,,,,0,179,179,179,,,,,,,,,,,,,,,,,main,None,None,1,1.496392900007777,635.275719600002,None,None,1,,,,,,,,,,,,,,020,2022-05-17_10h46.46.199,Main,2022.1.1,59.80618013507872,
positive,blue,1,k,None,,,,,,,,,0,180,180,180,,,,,,,,,,,,,,,,,main,k,k,1,0.6375605000066571,637.7732532999944,None,None,0,,,,,,,,,,,,,,020,2022-05-17_10h46.46.199,Main,2022.1.1,59.80618013507872,
negative,red,1,None,None,,,,,,,,,0,181,181,181,,,,,,,,,,,,,,,,,main,None,None,1,1.494403599994257,639.4150800000061,None,None,1,,,,,,,,,,,,,,020,2022-05-17_10h46.46.199,Main,2022.1.1,59.80618013507872,
negative,blue,1,None,k,,,,,,,,,0,182,182,182,,,,,,,,,,,,,,,,,main,None,None,1,1.500664399995003,641.9064916000061,None,None,1,,,,,,,,,,,,,,020,2022-05-17_10h46.46.199,Main,2022.1.1,59.80618013507872,
negative,yellow,2,k,None,,,,,,,,,0,183,183,183,,,,,,,,,,,,,,,,,main,k,k,1,1.2803640000056475,644.4088688000047,None,None,0,,,,,,,,,,,,,,020,2022-05-17_10h46.46.199,Main,2022.1.1,59.80618013507872,
positive,yellow,2,None,k,,,,,,,,,0,184,184,184,,,,,,,,,,,,,,,,,main,None,None,1,1.5013490999990609,646.6897275999945,None,None,1,,,,,,,,,,,,,,020,2022-05-17_10h46.46.199,Main,2022.1.1,59.80618013507872,
positive,yellow,1,None,k,,,,,,,,,0,185,185,185,,,,,,,,,,,,,,,,,main,None,None,1,1.4971106000011787,649.1921432999952,None,None,1,,,,,,,,,,,,,,020,2022-05-17_10h46.46.199,Main,2022.1.1,59.80618013507872,
positive,red,2,None,None,,,,,,,,,0,186,186,186,,,,,,,,,,,,,,,,,main,None,None,1,1.4977248000213876,651.6893821000122,None,None,1,,,,,,,,,,,,,,020,2022-05-17_10h46.46.199,Main,2022.1.1,59.80618013507872,
positive,blue,1,k,None,,,,,,,,,0,187,187,187,,,,,,,,,,,,,,,,,main,k,k,1,0.8187284999876283,654.1893351000035,None,None,0,,,,,,,,,,,,,,020,2022-05-17_10h46.46.199,Main,2022.1.1,59.80618013507872,
negative,yellow,1,k,None,,,,,,,,,0,188,188,188,,,,,,,,,,,,,,,,,main,k,k,1,0.7815717000048608,656.0087274000107,None,None,0,,,,,,,,,,,,,,020,2022-05-17_10h46.46.199,Main,2022.1.1,59.80618013507872,
positive,yellow,2,None,k,,,,,,,,,0,189,189,189,,,,,,,,,,,,,,,,,main,None,None,1,1.4970852000114974,657.7920130999992,None,None,1,,,,,,,,,,,,,,020,2022-05-17_10h46.46.199,Main,2022.1.1,59.80618013507872,
negative,yellow,2,k,None,,,,,,,,,0,190,190,190,,,,,,,,,,,,,,,,,main,k,k,1,0.6172592000220902,660.2894556999963,None,None,0,,,,,,,,,,,,,,020,2022-05-17_10h46.46.199,Main,2022.1.1,59.80618013507872,
negative,yellow,1,k,None,,,,,,,,,0,191,191,191,,,,,,,,,,,,,,,,,main,k,k,1,0.7327545999723952,661.9085841999913,None,None,0,,,,,,,,,,,,,,020,2022-05-17_10h46.46.199,Main,2022.1.1,59.80618013507872,
positive,blue,2,k,None,,,,,,,,,0,192,192,192,,,,,,,,,,,,,,,,,main,k,k,1,0.9128444000089075,663.6419018000015,None,None,0,,,,,,,,,,,,,,020,2022-05-17_10h46.46.199,Main,2022.1.1,59.80618013507872,
positive,yellow,1,None,k,,,,,,,,,0,193,193,193,,,,,,,,,,,,,,,,,main,None,None,1,1.5018765999993775,665.5557354000048,None,None,1,,,,,,,,,,,,,,020,2022-05-17_10h46.46.199,Main,2022.1.1,59.80618013507872,
negative,red,2,None,None,,,,,,,,,0,194,194,194,,,,,,,,,,,,,,,,,main,None,None,1,1.4960828000039328,668.0584480999969,None,None,1,,,,,,,,,,,,,,020,2022-05-17_10h46.46.199,Main,2022.1.1,59.80618013507872,
positive,red,1,None,None,,,,,,,,,0,195,195,195,,,,,,,,,,,,,,,,,main,None,None,1,1.5005855000053998,670.5614684000029,None,None,1,,,,,,,,,,,,,,020,2022-05-17_10h46.46.199,Main,2022.1.1,59.80618013507872,
negative,blue,1,None,k,,,,,,,,,0,196,196,196,,,,,,,,,,,,,,,,,main,None,None,1,1.4995141999970656,673.0558314000082,None,None,1,,,,,,,,,,,,,,020,2022-05-17_10h46.46.199,Main,2022.1.1,59.80618013507872,
positive,blue,2,k,None,,,,,,,,,0,197,197,197,,,,,,,,,,,,,,,,,main,k,k,1,0.6505018000025302,675.5582629999844,None,None,0,,,,,,,,,,,,,,020,2022-05-17_10h46.46.199,Main,2022.1.1,59.80618013507872,
negative,blue,2,None,k,,,,,,,,,0,198,198,198,,,,,,,,,,,,,,,,,main,None,None,1,1.4973430999962147,677.2082522999845,None,None,1,,,,,,,,,,,,,,020,2022-05-17_10h46.46.199,Main,2022.1.1,59.80618013507872,
negative,blue,2,None,k,,,,,,,,,0,199,199,199,,,,,,,,,,,,,,,,,main,None,None,1,1.5001103000249714,679.7054944999982,None,None,1,,,,,,,,,,,,,,020,2022-05-17_10h46.46.199,Main,2022.1.1,59.80618013507872,
positive,blue,2,k,None,,,,,,,,,0,200,200,200,,,,,,,,,,,,,,,,,main,k,k,1,0.7487885000009555,682.2081242999993,None,None,0,,,,,,,,,,,,,,020,2022-05-17_10h46.46.199,Main,2022.1.1,59.80618013507872,
positive,blue,2,k,None,,,,,,,,,0,201,201,201,,,,,,,,,,,,,,,,,main,k,k,1,0.7468213999818545,683.9582558000111,None,None,0,,,,,,,,,,,,,,020,2022-05-17_10h46.46.199,Main,2022.1.1,59.80618013507872,
negative,yellow,2,k,None,,,,,,,,,0,202,202,202,,,,,,,,,,,,,,,,,main,k,k,1,0.7706722000148147,685.7055981000012,None,None,0,,,,,,,,,,,,,,020,2022-05-17_10h46.46.199,Main,2022.1.1,59.80618013507872,
positive,red,1,None,None,,,,,,,,,0,203,203,203,,,,,,,,,,,,,,,,,main,None,None,1,1.4941810999880545,687.4811869999976,None,None,1,,,,,,,,,,,,,,020,2022-05-17_10h46.46.199,Main,2022.1.1,59.80618013507872,
negative,blue,2,None,k,,,,,,,,,0,204,204,204,,,,,,,,,,,,,,,,,main,None,None,1,1.5004150999884587,689.9721512999968,None,None,1,,,,,,,,,,,,,,020,2022-05-17_10h46.46.199,Main,2022.1.1,59.80618013507872,
negative,red,1,None,None,,,,,,,,,0,205,205,205,,,,,,,,,,,,,,,,,main,None,None,1,1.499066699994728,692.4746018000005,None,None,1,,,,,,,,,,,,,,020,2022-05-17_10h46.46.199,Main,2022.1.1,59.80618013507872,
negative,blue,2,None,k,,,,,,,,,0,206,206,206,,,,,,,,,,,,,,,,,main,None,None,1,1.4974364999798127,694.9745563000033,None,None,1,,,,,,,,,,,,,,020,2022-05-17_10h46.46.199,Main,2022.1.1,59.80618013507872,
negative,yellow,2,k,None,,,,,,,,,0,207,207,207,,,,,,,,,,,,,,,,,main,k,k,1,0.8005019999982323,697.4720436999924,None,None,0,,,,,,,,,,,,,,020,2022-05-17_10h46.46.199,Main,2022.1.1,59.80618013507872,
positive,yellow,2,None,k,,,,,,,,,0,208,208,208,,,,,,,,,,,,,,,,,main,None,None,1,1.4990195999853313,699.274444300012,None,None,1,,,,,,,,,,,,,,020,2022-05-17_10h46.46.199,Main,2022.1.1,59.80618013507872,
negative,yellow,1,k,None,,,,,,,,,0,209,209,209,,,,,,,,,,,,,,,,,main,k,k,1,1.096412099985173,701.7744131000072,None,None,0,,,,,,,,,,,,,,020,2022-05-17_10h46.46.199,Main,2022.1.1,59.80618013507872,
negative,red,2,None,None,,,,,,,,,0,210,210,210,,,,,,,,,,,,,,,,,main,None,None,1,1.5017030999879353,703.871618300007,None,None,1,,,,,,,,,,,,,,020,2022-05-17_10h46.46.199,Main,2022.1.1,59.80618013507872,
negative,blue,1,None,k,,,,,,,,,0,211,211,211,,,,,,,,,,,,,,,,,main,None,None,1,1.4965132000215817,706.3743278000038,None,None,1,,,,,,,,,,,,,,020,2022-05-17_10h46.46.199,Main,2022.1.1,59.80618013507872,
negative,yellow,1,k,None,,,,,,,,,0,212,212,212,,,,,,,,,,,,,,,,,main,k,k,1,0.5994017999910284,708.8717731999932,None,None,0,,,,,,,,,,,,,,020,2022-05-17_10h46.46.199,Main,2022.1.1,59.80618013507872,
positive,blue,1,k,None,,,,,,,,,0,213,213,213,,,,,,,,,,,,,,,,,main,k,k,1,0.9684167999948841,710.4718195000023,None,None,0,,,,,,,,,,,,,,020,2022-05-17_10h46.46.199,Main,2022.1.1,59.80618013507872,
positive,blue,1,k,None,,,,,,,,,0,214,214,214,,,,,,,,,,,,,,,,,main,k,k,1,0.4990014999930281,712.440869699989,None,None,0,,,,,,,,,,,,,,020,2022-05-17_10h46.46.199,Main,2022.1.1,59.80618013507872,
positive,yellow,1,None,k,,,,,,,,,0,215,215,215,,,,,,,,,,,,,,,,,main,None,None,1,1.4970740000135265,713.9408458000107,None,None,1,,,,,,,,,,,,,,020,2022-05-17_10h46.46.199,Main,2022.1.1,59.80618013507872,
positive,yellow,1,None,k,,,,,,,,,0,216,216,216,,,,,,,,,,,,,,,,,main,None,None,1,1.50035369998659,716.4383163999883,None,None,1,,,,,,,,,,,,,,020,2022-05-17_10h46.46.199,Main,2022.1.1,59.80618013507872,
positive,yellow,2,None,k,,,,,,,,,0,217,217,217,,,,,,,,,,,,,,,,,main,None,None,1,1.4991443999751937,718.940740799997,None,None,1,,,,,,,,,,,,,,020,2022-05-17_10h46.46.199,Main,2022.1.1,59.80618013507872,
negative,blue,1,None,k,,,,,,,,,0,218,218,218,,,,,,,,,,,,,,,,,main,None,None,1,1.4975002000282984,721.440539400006,None,None,1,,,,,,,,,,,,,,020,2022-05-17_10h46.46.199,Main,2022.1.1,59.80618013507872,
positive,red,2,None,None,,,,,,,,,0,219,219,219,,,,,,,,,,,,,,,,,main,None,None,1,1.500788300007116,723.9381370999909,None,None,1,,,,,,,,,,,,,,020,2022-05-17_10h46.46.199,Main,2022.1.1,59.80618013507872,
positive,yellow,1,None,k,,,,,,,,,0,220,220,220,,,,,,,,,,,,,,,,,main,None,None,1,1.4996172999963164,726.4407680000004,None,None,1,,,,,,,,,,,,,,020,2022-05-17_10h46.46.199,Main,2022.1.1,59.80618013507872,
positive,blue,1,k,None,,,,,,,,,0,221,221,221,,,,,,,,,,,,,,,,,main,k,k,1,1.045333899994148,728.9404755999858,None,None,0,,,,,,,,,,,,,,020,2022-05-17_10h46.46.199,Main,2022.1.1,59.80618013507872,
positive,yellow,2,None,k,,,,,,,,,0,222,222,222,,,,,,,,,,,,,,,,,main,None,None,1,1.501675300009083,730.9877462000004,None,None,1,,,,,,,,,,,,,,020,2022-05-17_10h46.46.199,Main,2022.1.1,59.80618013507872,
negative,yellow,1,k,None,,,,,,,,,0,223,223,223,,,,,,,,,,,,,,,,,main,k,k,1,0.8494627999898512,733.4903907999978,None,None,0,,,,,,,,,,,,,,020,2022-05-17_10h46.46.199,Main,2022.1.1,59.80618013507872,
positive,yellow,2,None,k,,,,,,,,,0,224,224,224,,,,,,,,,,,,,,,,,main,None,None,1,1.496280499995919,735.3403912000067,None,None,1,,,,,,,,,,,,,,020,2022-05-17_10h46.46.199,Main,2022.1.1,59.80618013507872,
negative,yellow,2,k,None,,,,,,,,,0,225,225,225,,,,,,,,,,,,,,,,,main,k,k,1,0.8489803999837022,737.8382515000121,None,None,0,,,,,,,,,,,,,,020,2022-05-17_10h46.46.199,Main,2022.1.1,59.80618013507872,
negative,blue,2,None,k,,,,,,,,,0,226,226,226,,,,,,,,,,,,,,,,,main,None,None,1,1.5015527999785263,739.6875709999877,None,None,1,,,,,,,,,,,,,,020,2022-05-17_10h46.46.199,Main,2022.1.1,59.80618013507872,
positive,red,2,None,None,,,,,,,,,0,227,227,227,,,,,,,,,,,,,,,,,main,None,None,1,1.4992215000092983,742.1902098999999,None,None,1,,,,,,,,,,,,,,020,2022-05-17_10h46.46.199,Main,2022.1.1,59.80618013507872,
positive,blue,2,k,None,,,,,,,,,0,228,228,228,,,,,,,,,,,,,,,,,main,k,k,1,0.7479663999984041,744.6902166999935,None,None,0,,,,,,,,,,,,,,020,2022-05-17_10h46.46.199,Main,2022.1.1,59.80618013507872,
negative,blue,1,None,k,,,,,,,,,0,229,229,229,,,,,,,,,,,,,,,,,main,None,None,1,1.5010530000145081,746.4376494000026,None,None,1,,,,,,,,,,,,,,020,2022-05-17_10h46.46.199,Main,2022.1.1,59.80618013507872,
positive,yellow,1,None,k,,,,,,,,,0,230,230,230,,,,,,,,,,,,,,,,,main,None,None,1,1.499570499989204,748.9401046999847,None,None,1,,,,,,,,,,,,,,020,2022-05-17_10h46.46.199,Main,2022.1.1,59.80618013507872,
negative,blue,2,None,k,,,,,,,,,0,231,231,231,,,,,,,,,,,,,,,,,main,None,None,1,1.4974715000134893,751.4392644999898,None,None,1,,,,,,,,,,,,,,020,2022-05-17_10h46.46.199,Main,2022.1.1,59.80618013507872,
negative,red,1,None,None,,,,,,,,,0,232,232,232,,,,,,,,,,,,,,,,,main,None,None,1,1.499657800013665,753.9373760999879,None,None,1,,,,,,,,,,,,,,020,2022-05-17_10h46.46.199,Main,2022.1.1,59.80618013507872,
positive,blue,2,k,None,,,,,,,,,0,233,233,233,,,,,,,,,,,,,,,,,main,k,k,1,0.7806109999946784,756.4399776000064,None,None,0,,,,,,,,,,,,,,020,2022-05-17_10h46.46.199,Main,2022.1.1,59.80618013507872,
negative,yellow,1,k,None,,,,,,,,,0,234,234,234,,,,,,,,,,,,,,,,,main,k,k,1,0.7983385999978054,758.2207283999887,None,None,0,,,,,,,,,,,,,,020,2022-05-17_10h46.46.199,Main,2022.1.1,59.80618013507872,
negative,yellow,2,k,None,,,,,,,,,0,235,235,235,,,,,,,,,,,,,,,,,main,k,k,1,1.6170952999964356,760.0207716999867,None,None,0,,,,,,,,,,,,,,020,2022-05-17_10h46.46.199,Main,2022.1.1,59.80618013507872,
positive,red,1,None,None,,,,,,,,,0,236,236,236,,,,,,,,,,,,,,,,,main,None,None,1,1.4956858000077773,763.6391351000057,None,None,1,,,,,,,,,,,,,,020,2022-05-17_10h46.46.199,Main,2022.1.1,59.80618013507872,
negative,red,2,None,None,,,,,,,,,0,237,237,237,,,,,,,,,,,,,,,,,main,None,None,1,1.5012769000022672,766.1370876999863,None,None,1,,,,,,,,,,,,,,020,2022-05-17_10h46.46.199,Main,2022.1.1,59.80618013507872,
negative,blue,1,None,k,,,,,,,,,0,238,238,238,,,,,,,,,,,,,,,,,main,None,None,1,1.500588399998378,768.63972810001,None,None,1,,,,,,,,,,,,,,020,2022-05-17_10h46.46.199,Main,2022.1.1,59.80618013507872,
positive,blue,1,k,None,,,,,,,,,0,239,239,239,,,,,,,,,,,,,,,,,main,k,k,1,0.9444557999959216,771.1372218999895,None,None,0,,,,,,,,,,,,,,020,2022-05-17_10h46.46.199,Main,2022.1.1,59.80618013507872,
,,,,,,,,,,,,,,,,,,,,,,,,,,,,,,,,,,,,,,,,,,,,,,,,,,,,,773.0868596000073,None,,,,,,
