distractor,target,set,ans1,ans2,rep_loop4.thisRepN,rep_loop4.thisTrialN,rep_loop4.thisN,rep_loop4.thisIndex,st2_prac_loop.thisRepN,st2_prac_loop.thisTrialN,st2_prac_loop.thisN,st2_prac_loop.thisIndex,st2_main_loop.thisRepN,st2_main_loop.thisTrialN,st2_main_loop.thisN,st2_main_loop.thisIndex,image_4.started,image_4.stopped,sound_2.started,sound_2.stopped,key_resp_3.keys,key_resp_3.rt,image_5.started,image_5.stopped,st_prac_back.started,st_prac_back.stopped,st_prac_text.started,st_prac_text.stopped,st_fix_back.started,st_fix_back.stopped,st_fix_2.started,st_fix_2.stopped,main_prac,st_ans,st_res,st_corr,st_rt,st_back.started,st_back.stopped,st2_resp.keys,st2_resp.corr,st_main_back.started,st_main_back.stopped,st_main_text.started,st_main_text.stopped,mouse_4.x,mouse_4.y,mouse_4.leftButton,mouse_4.midButton,mouse_4.rightButton,mouse_4.started,mouse_4.stopped,text_2.started,text_2.stopped,id*,date,expName,psychopyVersion,frameRate,
negative,yellow,1,k,None,,,,,0,0,0,0,,,,,29.561919300002046,None,33.41631275000691,None,space,58.186320200009504,91.63146080001025,None,93.79594630000065,None,93.79594630000065,None,95.79589310000301,None,95.79589310000301,None,prac,None,None,1,1.49379670000053,97.81112090000533,None,None,1,,,,,,,,,,,,,,021,2022-05-18_10h59.10.425,Main,2022.1.1,60.0000599970244,
positive,red,2,None,None,,,,,0,1,1,1,,,,,,,,,,,,,,,,,,,,,prac,None,None,1,1.4988084000069648,100.32475309999427,None,None,1,,,,,,,,,,,,,,021,2022-05-18_10h59.10.425,Main,2022.1.1,60.0000599970244,
negative,blue,2,None,k,,,,,0,2,2,2,,,,,,,,,,,,,,,,,,,,,prac,k,k,1,2.101787699997658,102.8124123000016,None,None,0,,,,,,,,,,,,,,021,2022-05-18_10h59.10.425,Main,2022.1.1,60.0000599970244,
positive,yellow,1,None,k,,,,,0,3,3,3,,,,,,,,,,,,,,,,,,,,,prac,k,k,1,2.8118703000072856,106.91468230000464,None,None,0,,,,,,,,,,,,,,021,2022-05-18_10h59.10.425,Main,2022.1.1,60.0000599970244,
negative,blue,2,None,k,,,,,0,4,4,4,,,,,,,,,,,,,,,,,,,,,prac,k,k,1,1.503482600004645,111.7307548999961,None,None,0,,,,,,,,,,,,,,021,2022-05-18_10h59.10.425,Main,2022.1.1,60.0000599970244,
negative,blue,1,None,k,,,,,0,5,5,5,,,,,,,,,,,,,,,,,,,,,prac,k,k,1,0.786913399992045,115.22858940000879,None,None,0,,,,,,,,,,,,,,021,2022-05-18_10h59.10.425,Main,2022.1.1,60.0000599970244,
negative,yellow,2,k,None,,,,,0,6,6,6,,,,,,,,,,,,,,,,,,,,,prac,None,None,1,1.4984246999956667,117.014665900002,None,None,1,,,,,,,,,,,,,,021,2022-05-18_10h59.10.425,Main,2022.1.1,60.0000599970244,
negative,red,1,None,None,,,,,0,7,7,7,,,,,,,,,,,,,,,,,,,,,prac,None,None,1,1.4974371999851428,119.51460990001215,None,None,1,,,,,,,,,,,,,,021,2022-05-18_10h59.10.425,Main,2022.1.1,60.0000599970244,
positive,yellow,2,None,k,,,,,0,8,8,8,,,,,,,,,,,,,,,,,,,,,prac,k,k,1,1.117770200013183,122.01187040001969,None,None,0,,,,,,,,,,,,,,021,2022-05-18_10h59.10.425,Main,2022.1.1,60.0000599970244,
negative,yellow,1,k,None,,,,,0,9,9,9,,,,,,,,,,,,,,,,,,,,,prac,None,None,1,1.4961477000033483,124.13118039999972,None,None,1,,,,,,,,,,,,,,021,2022-05-18_10h59.10.425,Main,2022.1.1,60.0000599970244,
positive,yellow,2,None,k,,,,,0,10,10,10,,,,,,,,,,,,,,,,,,,,,prac,k,k,1,1.2987367000023369,126.62867130001541,None,None,0,,,,,,,,,,,,,,021,2022-05-18_10h59.10.425,Main,2022.1.1,60.0000599970244,
negative,yellow,2,k,None,,,,,0,11,11,11,,,,,,,,,,,,,,,,,,,,,prac,None,None,1,1.5017671999812592,128.92833240001346,None,None,1,,,,,,,,,,,,,,021,2022-05-18_10h59.10.425,Main,2022.1.1,60.0000599970244,
negative,red,2,None,None,,,,,0,12,12,12,,,,,,,,,,,,,,,,,,,,,prac,None,None,1,1.4990394999913406,131.43103430001065,None,None,1,,,,,,,,,,,,,,021,2022-05-18_10h59.10.425,Main,2022.1.1,60.0000599970244,
positive,red,1,None,None,,,,,0,13,13,13,,,,,,,,,,,,,,,,,,,,,prac,None,None,1,1.4973114000167698,133.93232330001774,None,None,1,,,,,,,,,,,,,,021,2022-05-18_10h59.10.425,Main,2022.1.1,60.0000599970244,
positive,blue,2,k,None,,,,,0,14,14,14,,,,,,,,,,,,,,,,,,,,,prac,None,None,1,1.5005487999878824,136.4281600000104,None,None,1,,,,,,,,,,,,,,021,2022-05-18_10h59.10.425,Main,2022.1.1,60.0000599970244,
positive,blue,1,k,None,,,,,0,15,15,15,,,,,,,,,,,,,,,,,,,,,prac,None,None,1,1.4990107000048738,138.93090599999414,None,None,1,,,,,,,,,,,,,,021,2022-05-18_10h59.10.425,Main,2022.1.1,60.0000599970244,
negative,blue,1,None,k,,,,,0,16,16,16,,,,,,,,,,,,,,,,,,,,,prac,k,k,1,0.67977940000128,141.4324595000071,None,None,0,,,,,,,,,,,,,,021,2022-05-18_10h59.10.425,Main,2022.1.1,60.0000599970244,
positive,blue,2,k,None,,,,,0,17,17,17,,,,,,,,,,,,,,,,,,,,,prac,None,None,1,1.501583400007803,143.1113843000203,None,None,1,,,,,,,,,,,,,,021,2022-05-18_10h59.10.425,Main,2022.1.1,60.0000599970244,
positive,blue,1,k,None,,,,,0,18,18,18,,,,,,,,,,,,,,,,,,,,,prac,None,None,1,1.4963774000061676,145.61408349999692,None,None,1,,,,,,,,,,,,,,021,2022-05-18_10h59.10.425,Main,2022.1.1,60.0000599970244,
positive,yellow,1,None,k,,,,,0,19,19,19,,,,,,,,,,,,,,,,,,,,,prac,k,k,1,1.0825294999813195,148.11154320000787,None,None,0,,,,,,,,,,,,,,021,2022-05-18_10h59.10.425,Main,2022.1.1,60.0000599970244,
negative,yellow,1,k,None,,,,,1,0,20,0,,,,,,,,,,,,,,,,,,,,,prac,None,None,1,1.4991696999932174,150.19486170000164,None,None,1,,,,,,,,,,,,,,021,2022-05-18_10h59.10.425,Main,2022.1.1,60.0000599970244,
positive,red,2,None,None,,,,,1,1,21,1,,,,,,,,,,,,,,,,,,,,,prac,None,None,1,1.500658500008285,152.69456500001252,None,None,1,,,,,,,,,,,,,,021,2022-05-18_10h59.10.425,Main,2022.1.1,60.0000599970244,
negative,blue,2,None,k,,,,,1,2,22,2,,,,,,,,,,,,,,,,,,,,,prac,k,k,1,0.697241199988639,155.19724820001284,None,None,0,,,,,,,,,,,,,,021,2022-05-18_10h59.10.425,Main,2022.1.1,60.0000599970244,
positive,yellow,1,None,k,,,,,1,3,23,3,,,,,,,,,,,,,,,,,,,,,prac,k,k,1,0.7988555000047199,156.8944332000101,None,None,0,,,,,,,,,,,,,,021,2022-05-18_10h59.10.425,Main,2022.1.1,60.0000599970244,
negative,blue,2,None,k,,,,,1,4,24,4,,,,,,,,,,,,,,,,,,,,,prac,k,k,1,0.7838969000149518,158.6944590000203,None,None,0,,,,,,,,,,,,,,021,2022-05-18_10h59.10.425,Main,2022.1.1,60.0000599970244,
negative,blue,1,None,k,,,,,1,5,25,5,,,,,,,,,,,,,,,,,,,,,prac,k,k,1,1.0686882000009064,160.4804337999958,None,None,0,,,,,,,,,,,,,,021,2022-05-18_10h59.10.425,Main,2022.1.1,60.0000599970244,
negative,yellow,2,k,None,,,,,1,6,26,6,,,,,,,,,,,,,,,,,,,,,prac,None,None,1,1.4933010999811813,162.5538523000141,None,None,1,,,,,,,,,,,,,,021,2022-05-18_10h59.10.425,Main,2022.1.1,60.0000599970244,
negative,red,1,None,None,,,,,1,7,27,7,,,,,,,,,,,,,,,,,,,,,prac,None,None,1,1.4998256999824662,165.05001289999927,None,None,1,,,,,,,,,,,,,,021,2022-05-18_10h59.10.425,Main,2022.1.1,60.0000599970244,
positive,yellow,2,None,k,,,,,1,8,28,8,,,,,,,,,,,,,,,,,,,,,prac,k,k,1,0.784286299982341,167.54428910001297,None,None,0,,,,,,,,,,,,,,021,2022-05-18_10h59.10.425,Main,2022.1.1,60.0000599970244,
negative,yellow,1,k,None,,,,,1,9,29,9,,,,,,,,,,,,,,,,,,,,,prac,None,None,1,1.496657600015169,169.3302779000078,None,None,1,,,,,,,,,,,,,,021,2022-05-18_10h59.10.425,Main,2022.1.1,60.0000599970244,
positive,yellow,2,None,k,,,,,1,10,30,10,,,,,,,,,,,,,,,,,,,,,prac,k,k,1,0.7981201999937184,171.82747180000297,None,None,0,,,,,,,,,,,,,,021,2022-05-18_10h59.10.425,Main,2022.1.1,60.0000599970244,
negative,yellow,2,k,None,,,,,1,11,31,11,,,,,,,,,,,,,,,,,,,,,prac,None,None,1,1.5015914000105113,173.6274812000047,None,None,1,,,,,,,,,,,,,,021,2022-05-18_10h59.10.425,Main,2022.1.1,60.0000599970244,
negative,red,2,None,None,,,,,1,12,32,12,,,,,,,,,,,,,,,,,,,,,prac,None,None,1,1.4964873999997508,176.13011100000585,None,None,1,,,,,,,,,,,,,,021,2022-05-18_10h59.10.425,Main,2022.1.1,60.0000599970244,
positive,red,1,None,None,,,,,1,13,33,13,,,,,,,,,,,,,,,,,,,,,prac,None,None,1,1.4987831999897026,178.6275896000152,None,None,1,,,,,,,,,,,,,,021,2022-05-18_10h59.10.425,Main,2022.1.1,60.0000599970244,
positive,blue,2,k,None,,,,,1,14,34,14,,,,,,,,,,,,,,,,,,,,,prac,None,k,0,0.6993336000014096,181.12728390001575,None,None,1,,,,,,,,,,,,,,021,2022-05-18_10h59.10.425,Main,2022.1.1,60.0000599970244,
positive,blue,1,k,None,,,,,1,15,35,15,,,,,,,,,,,,,,,,,,,,,prac,None,None,1,1.5011312999995425,183.83000509999692,None,None,1,,,,,,,,,,,,,,021,2022-05-18_10h59.10.425,Main,2022.1.1,60.0000599970244,
negative,blue,1,None,k,,,,,1,16,36,16,,,,,,,,,,,,,,,,,,,,,prac,k,k,1,0.8294150999863632,186.32994080000208,None,None,0,,,,,,,,,,,,,,021,2022-05-18_10h59.10.425,Main,2022.1.1,60.0000599970244,
positive,blue,2,k,None,,,,,1,17,37,17,,,,,,,,,,,,,,,,,,,,,prac,None,None,1,1.5015131999971345,188.1604578999977,None,None,1,,,,,,,,,,,,,,021,2022-05-18_10h59.10.425,Main,2022.1.1,60.0000599970244,
positive,blue,1,k,None,,,,,1,18,38,18,,,,,,,,,,,,,,,,,,,,,prac,None,None,1,1.4972100000013597,190.66309390001697,None,None,1,,,,,,,,,,,,,,021,2022-05-18_10h59.10.425,Main,2022.1.1,60.0000599970244,
positive,yellow,1,None,k,,,,,1,19,39,19,,,,,,,,,,,,,,,,,,,,,prac,k,k,1,0.8822731999971438,193.16042679999373,None,None,0,,,,,,,,,,,,,,021,2022-05-18_10h59.10.425,Main,2022.1.1,60.0000599970244,
,,,,,,,,,,,,,,,,,,,,,,,,,,,,,,,,,,,,,,,,,,195.04373860001215,None,195.04373860001215,None,-0.0055555557,0.012037037,0,0,0,0.013040250021731481,None,,,021,2022-05-18_10h59.10.425,Main,2022.1.1,60.0000599970244,
negative,yellow,2,k,None,,,,,,,,,0,0,0,0,,,,,,,,,,,,,197.19656000001123,None,197.19656000001123,None,main,None,None,1,1.4970630999887362,199.23781849999796,None,None,1,,,,,,,,,,,,,,021,2022-05-18_10h59.10.425,Main,2022.1.1,60.0000599970244,
positive,red,1,None,None,,,,,,,,,0,1,1,1,,,,,,,,,,,,,,,,,main,None,None,1,1.4988079000031576,201.7462399000069,None,None,1,,,,,,,,,,,,,,021,2022-05-18_10h59.10.425,Main,2022.1.1,60.0000599970244,
positive,blue,2,k,None,,,,,,,,,0,2,2,2,,,,,,,,,,,,,,,,,main,None,None,1,1.4975675999885425,204.24622940001427,None,None,1,,,,,,,,,,,,,,021,2022-05-18_10h59.10.425,Main,2022.1.1,60.0000599970244,
positive,blue,1,k,None,,,,,,,,,0,3,3,3,,,,,,,,,,,,,,,,,main,None,None,1,1.5001773000112735,206.74346680002054,None,None,1,,,,,,,,,,,,,,021,2022-05-18_10h59.10.425,Main,2022.1.1,60.0000599970244,
negative,yellow,2,k,None,,,,,,,,,0,4,4,4,,,,,,,,,,,,,,,,,main,None,None,1,1.4988979999907315,209.24613600000157,None,None,1,,,,,,,,,,,,,,021,2022-05-18_10h59.10.425,Main,2022.1.1,60.0000599970244,
positive,yellow,2,None,k,,,,,,,,,0,5,5,5,,,,,,,,,,,,,,,,,main,k,k,1,0.9633505999809131,211.745960500004,None,None,0,,,,,,,,,,,,,,021,2022-05-18_10h59.10.425,Main,2022.1.1,60.0000599970244,
negative,blue,2,None,k,,,,,,,,,0,6,6,6,,,,,,,,,,,,,,,,,main,k,k,1,0.7823001999931876,213.70996930002002,None,None,0,,,,,,,,,,,,,,021,2022-05-18_10h59.10.425,Main,2022.1.1,60.0000599970244,
positive,red,2,None,None,,,,,,,,,0,7,7,7,,,,,,,,,,,,,,,,,main,None,None,1,1.5015664999955334,215.49333930001012,None,None,1,,,,,,,,,,,,,,021,2022-05-18_10h59.10.425,Main,2022.1.1,60.0000599970244,
positive,yellow,1,None,k,,,,,,,,,0,8,8,8,,,,,,,,,,,,,,,,,main,k,k,1,0.880255500000203,217.9959835000045,None,None,0,,,,,,,,,,,,,,021,2022-05-18_10h59.10.425,Main,2022.1.1,60.0000599970244,
negative,red,1,None,None,,,,,,,,,0,9,9,9,,,,,,,,,,,,,,,,,main,None,None,1,1.5005606000195257,219.8792413000192,None,None,1,,,,,,,,,,,,,,021,2022-05-18_10h59.10.425,Main,2022.1.1,60.0000599970244,
positive,yellow,1,None,k,,,,,,,,,0,10,10,10,,,,,,,,,,,,,,,,,main,k,k,1,0.8467195000266656,222.37675240001408,None,None,0,,,,,,,,,,,,,,021,2022-05-18_10h59.10.425,Main,2022.1.1,60.0000599970244,
negative,yellow,1,k,None,,,,,,,,,0,11,11,11,,,,,,,,,,,,,,,,,main,None,None,1,1.501679700013483,224.22642260001157,None,None,1,,,,,,,,,,,,,,021,2022-05-18_10h59.10.425,Main,2022.1.1,60.0000599970244,
negative,yellow,1,k,None,,,,,,,,,0,12,12,12,,,,,,,,,,,,,,,,,main,None,None,1,1.4989415000018198,226.72911290000775,None,None,1,,,,,,,,,,,,,,021,2022-05-18_10h59.10.425,Main,2022.1.1,60.0000599970244,
negative,red,2,None,None,,,,,,,,,0,13,13,13,,,,,,,,,,,,,,,,,main,None,None,1,1.497400699998252,229.22909370000707,None,None,1,,,,,,,,,,,,,,021,2022-05-18_10h59.10.425,Main,2022.1.1,60.0000599970244,
positive,yellow,2,None,k,,,,,,,,,0,14,14,14,,,,,,,,,,,,,,,,,main,k,k,1,0.7317205999861471,231.72639290001825,None,None,0,,,,,,,,,,,,,,021,2022-05-18_10h59.10.425,Main,2022.1.1,60.0000599970244,
positive,blue,1,k,None,,,,,,,,,0,15,15,15,,,,,,,,,,,,,,,,,main,None,None,1,1.4992350999964401,233.4599877000146,None,None,1,,,,,,,,,,,,,,021,2022-05-18_10h59.10.425,Main,2022.1.1,60.0000599970244,
negative,blue,1,None,k,,,,,,,,,0,16,16,16,,,,,,,,,,,,,,,,,main,k,k,1,0.9491937999846414,235.95949840001413,None,None,0,,,,,,,,,,,,,,021,2022-05-18_10h59.10.425,Main,2022.1.1,60.0000599970244,
positive,blue,2,k,None,,,,,,,,,0,17,17,17,,,,,,,,,,,,,,,,,main,None,None,1,1.5001612000050955,237.90954910000437,None,None,1,,,,,,,,,,,,,,021,2022-05-18_10h59.10.425,Main,2022.1.1,60.0000599970244,
negative,blue,2,None,k,,,,,,,,,0,18,18,18,,,,,,,,,,,,,,,,,main,k,k,1,0.7300956000108272,240.4121737999958,None,None,0,,,,,,,,,,,,,,021,2022-05-18_10h59.10.425,Main,2022.1.1,60.0000599970244,
negative,blue,1,None,k,,,,,,,,,0,19,19,19,,,,,,,,,,,,,,,,,main,k,k,1,0.9165284000046086,242.14272840000922,None,None,0,,,,,,,,,,,,,,021,2022-05-18_10h59.10.425,Main,2022.1.1,60.0000599970244,
negative,blue,1,None,k,,,,,,,,,0,20,20,20,,,,,,,,,,,,,,,,,main,k,k,1,0.6981198999856133,244.05942440000945,None,None,0,,,,,,,,,,,,,,021,2022-05-18_10h59.10.425,Main,2022.1.1,60.0000599970244,
negative,blue,2,None,k,,,,,,,,,0,21,21,21,,,,,,,,,,,,,,,,,main,k,k,1,0.7513575999764726,245.7621017000056,None,None,0,,,,,,,,,,,,,,021,2022-05-18_10h59.10.425,Main,2022.1.1,60.0000599970244,
negative,red,1,None,None,,,,,,,,,0,22,22,22,,,,,,,,,,,,,,,,,main,None,k,0,0.6962553000194021,247.5120652000187,None,None,1,,,,,,,,,,,,,,021,2022-05-18_10h59.10.425,Main,2022.1.1,60.0000599970244,
positive,red,2,None,None,,,,,,,,,0,23,23,23,,,,,,,,,,,,,,,,,main,None,None,1,1.5033327999990433,250.20929810000234,None,None,1,,,,,,,,,,,,,,021,2022-05-18_10h59.10.425,Main,2022.1.1,60.0000599970244,
negative,red,2,None,None,,,,,,,,,0,24,24,24,,,,,,,,,,,,,,,,,main,None,None,1,1.4962256000144407,252.71194950002246,None,None,1,,,,,,,,,,,,,,021,2022-05-18_10h59.10.425,Main,2022.1.1,60.0000599970244,
positive,blue,2,k,None,,,,,,,,,0,25,25,25,,,,,,,,,,,,,,,,,main,None,None,1,1.4996577999845613,255.20943370001623,None,None,1,,,,,,,,,,,,,,021,2022-05-18_10h59.10.425,Main,2022.1.1,60.0000599970244,
negative,yellow,1,k,None,,,,,,,,,0,26,26,26,,,,,,,,,,,,,,,,,main,None,None,1,1.5007596999930684,257.70907760001137,None,None,1,,,,,,,,,,,,,,021,2022-05-18_10h59.10.425,Main,2022.1.1,60.0000599970244,
positive,blue,2,k,None,,,,,,,,,0,27,27,27,,,,,,,,,,,,,,,,,main,None,None,1,1.4988692000042647,260.2117597000033,None,None,1,,,,,,,,,,,,,,021,2022-05-18_10h59.10.425,Main,2022.1.1,60.0000599970244,
negative,blue,2,None,k,,,,,,,,,0,28,28,28,,,,,,,,,,,,,,,,,main,k,k,1,0.7140701000171248,262.71174660002,None,None,0,,,,,,,,,,,,,,021,2022-05-18_10h59.10.425,Main,2022.1.1,60.0000599970244,
positive,red,1,None,None,,,,,,,,,0,29,29,29,,,,,,,,,,,,,,,,,main,None,None,1,1.5002119000128005,264.4256241999974,None,None,1,,,,,,,,,,,,,,021,2022-05-18_10h59.10.425,Main,2022.1.1,60.0000599970244,
positive,blue,1,k,None,,,,,,,,,0,30,30,30,,,,,,,,,,,,,,,,,main,None,None,1,1.499048199999379,266.92833369999425,None,None,1,,,,,,,,,,,,,,021,2022-05-18_10h59.10.425,Main,2022.1.1,60.0000599970244,
positive,yellow,1,None,k,,,,,,,,,0,31,31,31,,,,,,,,,,,,,,,,,main,k,k,1,0.8301490999874659,269.42581159999827,None,None,0,,,,,,,,,,,,,,021,2022-05-18_10h59.10.425,Main,2022.1.1,60.0000599970244,
negative,yellow,2,k,None,,,,,,,,,0,32,32,32,,,,,,,,,,,,,,,,,main,None,None,1,1.499400800006697,271.2614618999942,None,None,1,,,,,,,,,,,,,,021,2022-05-18_10h59.10.425,Main,2022.1.1,60.0000599970244,
negative,blue,1,None,k,,,,,,,,,0,33,33,33,,,,,,,,,,,,,,,,,main,k,k,1,0.8317577000125311,273.7588284999947,None,None,0,,,,,,,,,,,,,,021,2022-05-18_10h59.10.425,Main,2022.1.1,60.0000599970244,
positive,blue,1,k,None,,,,,,,,,0,34,34,34,,,,,,,,,,,,,,,,,main,None,None,1,1.5010109999857377,275.5948307000217,None,None,1,,,,,,,,,,,,,,021,2022-05-18_10h59.10.425,Main,2022.1.1,60.0000599970244,
negative,yellow,1,k,None,,,,,,,,,0,35,35,35,,,,,,,,,,,,,,,,,main,None,None,1,1.4964098999917042,278.0922639000055,None,None,1,,,,,,,,,,,,,,021,2022-05-18_10h59.10.425,Main,2022.1.1,60.0000599970244,
positive,yellow,2,None,k,,,,,,,,,0,36,36,36,,,,,,,,,,,,,,,,,main,k,k,1,0.8661420999851543,280.5919426000037,None,None,0,,,,,,,,,,,,,,021,2022-05-18_10h59.10.425,Main,2022.1.1,60.0000599970244,
positive,yellow,2,None,k,,,,,,,,,0,37,37,37,,,,,,,,,,,,,,,,,main,k,k,1,1.0517315000179224,282.45865570000024,None,None,0,,,,,,,,,,,,,,021,2022-05-18_10h59.10.425,Main,2022.1.1,60.0000599970244,
negative,yellow,2,k,None,,,,,,,,,0,38,38,38,,,,,,,,,,,,,,,,,main,None,None,1,1.4964828000229318,284.51130589999957,None,None,1,,,,,,,,,,,,,,021,2022-05-18_10h59.10.425,Main,2022.1.1,60.0000599970244,
positive,yellow,1,None,k,,,,,,,,,0,39,39,39,,,,,,,,,,,,,,,,,main,k,k,1,0.7994887999957427,287.0087933000177,None,None,0,,,,,,,,,,,,,,021,2022-05-18_10h59.10.425,Main,2022.1.1,60.0000599970244,
negative,yellow,2,k,None,,,,,,,,,0,40,40,40,,,,,,,,,,,,,,,,,main,None,None,1,1.5004951000155415,288.80846260002,None,None,1,,,,,,,,,,,,,,021,2022-05-18_10h59.10.425,Main,2022.1.1,60.0000599970244,
positive,blue,2,k,None,,,,,,,,,0,41,41,41,,,,,,,,,,,,,,,,,main,None,None,1,1.4990560000005644,291.31114960002014,None,None,1,,,,,,,,,,,,,,021,2022-05-18_10h59.10.425,Main,2022.1.1,60.0000599970244,
positive,blue,2,k,None,,,,,,,,,0,42,42,42,,,,,,,,,,,,,,,,,main,None,None,1,1.4965637999994215,293.81165380001767,None,None,1,,,,,,,,,,,,,,021,2022-05-18_10h59.10.425,Main,2022.1.1,60.0000599970244,
negative,blue,2,None,k,,,,,,,,,0,43,43,43,,,,,,,,,,,,,,,,,main,k,k,1,0.9489188999868929,296.3109345000121,None,None,0,,,,,,,,,,,,,,021,2022-05-18_10h59.10.425,Main,2022.1.1,60.0000599970244,
negative,red,1,None,None,,,,,,,,,0,44,44,44,,,,,,,,,,,,,,,,,main,None,None,1,1.5016078999906313,298.2582798000076,None,None,1,,,,,,,,,,,,,,021,2022-05-18_10h59.10.425,Main,2022.1.1,60.0000599970244,
negative,yellow,1,k,None,,,,,,,,,0,45,45,45,,,,,,,,,,,,,,,,,main,None,None,1,1.4992367000086233,300.7609974000079,None,None,1,,,,,,,,,,,,,,021,2022-05-18_10h59.10.425,Main,2022.1.1,60.0000599970244,
negative,yellow,1,k,None,,,,,,,,,0,46,46,46,,,,,,,,,,,,,,,,,main,None,None,1,1.498874100012472,303.260947200004,None,None,1,,,,,,,,,,,,,,021,2022-05-18_10h59.10.425,Main,2022.1.1,60.0000599970244,
positive,red,1,None,None,,,,,,,,,0,47,47,47,,,,,,,,,,,,,,,,,main,None,None,1,1.4980221000150777,305.7584010999999,None,None,1,,,,,,,,,,,,,,021,2022-05-18_10h59.10.425,Main,2022.1.1,60.0000599970244,
positive,yellow,1,None,k,,,,,,,,,0,48,48,48,,,,,,,,,,,,,,,,,main,k,k,1,0.7666127000120468,308.25807989999885,None,None,0,,,,,,,,,,,,,,021,2022-05-18_10h59.10.425,Main,2022.1.1,60.0000599970244,
negative,blue,1,None,k,,,,,,,,,0,49,49,49,,,,,,,,,,,,,,,,,main,k,k,1,0.7991182999976445,310.0274716000131,None,None,0,,,,,,,,,,,,,,021,2022-05-18_10h59.10.425,Main,2022.1.1,60.0000599970244,
positive,yellow,2,None,k,,,,,,,,,0,50,50,50,,,,,,,,,,,,,,,,,main,k,k,1,0.7155539999948815,311.82741550001083,None,None,0,,,,,,,,,,,,,,021,2022-05-18_10h59.10.425,Main,2022.1.1,60.0000599970244,
negative,blue,1,None,k,,,,,,,,,0,51,51,51,,,,,,,,,,,,,,,,,main,k,k,1,0.7805416000192054,313.54140680001,None,None,0,,,,,,,,,,,,,,021,2022-05-18_10h59.10.425,Main,2022.1.1,60.0000599970244,
positive,red,2,None,None,,,,,,,,,0,52,52,52,,,,,,,,,,,,,,,,,main,None,None,1,1.5004106000124011,315.32458860002225,None,None,1,,,,,,,,,,,,,,021,2022-05-18_10h59.10.425,Main,2022.1.1,60.0000599970244,
positive,yellow,2,None,k,,,,,,,,,0,53,53,53,,,,,,,,,,,,,,,,,main,k,k,1,0.7493883999995887,317.82731690001674,None,None,0,,,,,,,,,,,,,,021,2022-05-18_10h59.10.425,Main,2022.1.1,60.0000599970244,
negative,red,2,None,None,,,,,,,,,0,54,54,54,,,,,,,,,,,,,,,,,main,None,None,1,1.496797100000549,319.5805832000042,None,None,1,,,,,,,,,,,,,,021,2022-05-18_10h59.10.425,Main,2022.1.1,60.0000599970244,
positive,yellow,1,None,k,,,,,,,,,0,55,55,55,,,,,,,,,,,,,,,,,main,k,k,1,0.8174549000104889,322.0745267000166,None,None,0,,,,,,,,,,,,,,021,2022-05-18_10h59.10.425,Main,2022.1.1,60.0000599970244,
negative,blue,2,None,k,,,,,,,,,0,56,56,56,,,,,,,,,,,,,,,,,main,k,k,1,0.7157201000081841,323.8938713000098,None,None,0,,,,,,,,,,,,,,021,2022-05-18_10h59.10.425,Main,2022.1.1,60.0000599970244,
positive,blue,1,k,None,,,,,,,,,0,57,57,57,,,,,,,,,,,,,,,,,main,None,None,1,1.497405300004175,325.6104842000059,None,None,1,,,,,,,,,,,,,,021,2022-05-18_10h59.10.425,Main,2022.1.1,60.0000599970244,
positive,blue,1,k,None,,,,,,,,,0,58,58,58,,,,,,,,,,,,,,,,,main,None,None,1,1.50047529998119,328.1077354000008,None,None,1,,,,,,,,,,,,,,021,2022-05-18_10h59.10.425,Main,2022.1.1,60.0000599970244,
negative,yellow,2,k,None,,,,,,,,,0,59,59,59,,,,,,,,,,,,,,,,,main,None,k,0,0.7135815999936312,330.6103965000075,None,None,1,,,,,,,,,,,,,,021,2022-05-18_10h59.10.425,Main,2022.1.1,60.0000599970244,
positive,red,2,None,None,,,,,,,,,0,60,60,60,,,,,,,,,,,,,,,,,main,None,None,1,1.498890000017127,333.3245150000148,None,None,1,,,,,,,,,,,,,,021,2022-05-18_10h59.10.425,Main,2022.1.1,60.0000599970244,
negative,yellow,1,k,None,,,,,,,,,0,61,61,61,,,,,,,,,,,,,,,,,main,None,None,1,1.5001581000105944,335.8242382000026,None,None,1,,,,,,,,,,,,,,021,2022-05-18_10h59.10.425,Main,2022.1.1,60.0000599970244,
negative,red,1,None,None,,,,,,,,,0,62,62,62,,,,,,,,,,,,,,,,,main,None,None,1,1.4963694000034593,338.32686440000543,None,None,1,,,,,,,,,,,,,,021,2022-05-18_10h59.10.425,Main,2022.1.1,60.0000599970244,
negative,blue,1,None,k,,,,,,,,,0,63,63,63,,,,,,,,,,,,,,,,,main,k,k,1,0.818536300008418,340.82972100001643,None,None,0,,,,,,,,,,,,,,021,2022-05-18_10h59.10.425,Main,2022.1.1,60.0000599970244,
positive,blue,2,k,None,,,,,,,,,0,64,64,64,,,,,,,,,,,,,,,,,main,None,None,1,1.4970411000249442,342.6409857000108,None,None,1,,,,,,,,,,,,,,021,2022-05-18_10h59.10.425,Main,2022.1.1,60.0000599970244,
negative,yellow,2,k,None,,,,,,,,,0,65,65,65,,,,,,,,,,,,,,,,,main,None,None,1,1.5005725999944843,345.1407145000121,None,None,1,,,,,,,,,,,,,,021,2022-05-18_10h59.10.425,Main,2022.1.1,60.0000599970244,
positive,yellow,2,None,k,,,,,,,,,0,66,66,66,,,,,,,,,,,,,,,,,main,k,k,1,0.7327167000039481,347.64338700001827,None,None,0,,,,,,,,,,,,,,021,2022-05-18_10h59.10.425,Main,2022.1.1,60.0000599970244,
positive,yellow,2,None,k,,,,,,,,,0,67,67,67,,,,,,,,,,,,,,,,,main,k,k,1,0.78080950002186,349.37665360001847,None,None,0,,,,,,,,,,,,,,021,2022-05-18_10h59.10.425,Main,2022.1.1,60.0000599970244,
positive,red,1,None,None,,,,,,,,,0,68,68,68,,,,,,,,,,,,,,,,,main,None,None,1,1.5000323999847751,351.15723219999927,None,None,1,,,,,,,,,,,,,,021,2022-05-18_10h59.10.425,Main,2022.1.1,60.0000599970244,
positive,yellow,1,None,k,,,,,,,,,0,69,69,69,,,,,,,,,,,,,,,,,main,k,k,1,0.7826109000016004,353.65992950001964,None,None,0,,,,,,,,,,,,,,021,2022-05-18_10h59.10.425,Main,2022.1.1,60.0000599970244,
negative,yellow,2,k,None,,,,,,,,,0,70,70,70,,,,,,,,,,,,,,,,,main,None,None,1,1.4969564000202809,355.44323040000745,None,None,1,,,,,,,,,,,,,,021,2022-05-18_10h59.10.425,Main,2022.1.1,60.0000599970244,
positive,yellow,1,None,k,,,,,,,,,0,71,71,71,,,,,,,,,,,,,,,,,main,k,k,1,0.902024299983168,357.94047190001584,None,None,0,,,,,,,,,,,,,,021,2022-05-18_10h59.10.425,Main,2022.1.1,60.0000599970244,
negative,blue,1,None,k,,,,,,,,,0,72,72,72,,,,,,,,,,,,,,,,,main,k,k,1,0.7456756999890786,359.84315200001583,None,None,0,,,,,,,,,,,,,,021,2022-05-18_10h59.10.425,Main,2022.1.1,60.0000599970244,
negative,red,2,None,None,,,,,,,,,0,73,73,73,,,,,,,,,,,,,,,,,main,None,None,1,1.500907500012545,361.5931038999988,None,None,1,,,,,,,,,,,,,,021,2022-05-18_10h59.10.425,Main,2022.1.1,60.0000599970244,
positive,blue,2,k,None,,,,,,,,,0,74,74,74,,,,,,,,,,,,,,,,,main,None,None,1,1.4973028000094928,364.0930012000026,None,None,1,,,,,,,,,,,,,,021,2022-05-18_10h59.10.425,Main,2022.1.1,60.0000599970244,
negative,blue,2,None,k,,,,,,,,,0,75,75,75,,,,,,,,,,,,,,,,,main,k,k,1,0.8843022999935783,366.59034560000873,None,None,0,,,,,,,,,,,,,,021,2022-05-18_10h59.10.425,Main,2022.1.1,60.0000599970244,
negative,blue,2,None,k,,,,,,,,,0,76,76,76,,,,,,,,,,,,,,,,,main,k,k,1,0.7155975999776274,368.4762901000213,None,None,0,,,,,,,,,,,,,,021,2022-05-18_10h59.10.425,Main,2022.1.1,60.0000599970244,
negative,yellow,1,k,None,,,,,,,,,0,77,77,77,,,,,,,,,,,,,,,,,main,None,None,1,1.4969256999902427,370.1929545000021,None,None,1,,,,,,,,,,,,,,021,2022-05-18_10h59.10.425,Main,2022.1.1,60.0000599970244,
positive,blue,1,k,None,,,,,,,,,0,78,78,78,,,,,,,,,,,,,,,,,main,None,None,1,1.500637800025288,372.6901110000035,None,None,1,,,,,,,,,,,,,,021,2022-05-18_10h59.10.425,Main,2022.1.1,60.0000599970244,
positive,blue,1,k,None,,,,,,,,,0,79,79,79,,,,,,,,,,,,,,,,,main,None,None,1,1.4991046000213828,375.1928194000211,None,None,1,,,,,,,,,,,,,,021,2022-05-18_10h59.10.425,Main,2022.1.1,60.0000599970244,
positive,red,2,None,None,,,,,,,,,0,80,80,80,,,,,,,,,,,,,,,,,main,None,None,1,1.4971703000192065,377.69279339999775,None,None,1,,,,,,,,,,,,,,021,2022-05-18_10h59.10.425,Main,2022.1.1,60.0000599970244,
positive,yellow,2,None,k,,,,,,,,,0,81,81,81,,,,,,,,,,,,,,,,,main,k,k,1,0.8683924000069965,380.18995960001484,None,None,0,,,,,,,,,,,,,,021,2022-05-18_10h59.10.425,Main,2022.1.1,60.0000599970244,
positive,blue,1,k,None,,,,,,,,,0,82,82,82,,,,,,,,,,,,,,,,,main,None,None,1,1.497655000013765,382.0594015000097,None,None,1,,,,,,,,,,,,,,021,2022-05-18_10h59.10.425,Main,2022.1.1,60.0000599970244,
negative,yellow,2,k,None,,,,,,,,,0,83,83,83,,,,,,,,,,,,,,,,,main,None,None,1,1.4979484000068624,384.559318500018,None,None,1,,,,,,,,,,,,,,021,2022-05-18_10h59.10.425,Main,2022.1.1,60.0000599970244,
positive,blue,2,k,None,,,,,,,,,0,84,84,84,,,,,,,,,,,,,,,,,main,None,None,1,1.4996370999724604,387.05654990000767,None,None,1,,,,,,,,,,,,,,021,2022-05-18_10h59.10.425,Main,2022.1.1,60.0000599970244,
positive,yellow,1,None,k,,,,,,,,,0,85,85,85,,,,,,,,,,,,,,,,,main,k,k,1,0.8305050999915693,389.55921070001204,None,None,0,,,,,,,,,,,,,,021,2022-05-18_10h59.10.425,Main,2022.1.1,60.0000599970244,
positive,blue,2,k,None,,,,,,,,,0,86,86,86,,,,,,,,,,,,,,,,,main,None,None,1,1.4991717000084464,391.3900419000129,None,None,1,,,,,,,,,,,,,,021,2022-05-18_10h59.10.425,Main,2022.1.1,60.0000599970244,
positive,blue,1,k,None,,,,,,,,,0,87,87,87,,,,,,,,,,,,,,,,,main,None,None,1,1.500625199987553,393.889736800018,None,None,1,,,,,,,,,,,,,,021,2022-05-18_10h59.10.425,Main,2022.1.1,60.0000599970244,
negative,yellow,2,k,None,,,,,,,,,0,88,88,88,,,,,,,,,,,,,,,,,main,None,None,1,1.4990874000068288,396.3923999000108,None,None,1,,,,,,,,,,,,,,021,2022-05-18_10h59.10.425,Main,2022.1.1,60.0000599970244,
negative,blue,2,None,k,,,,,,,,,0,89,89,89,,,,,,,,,,,,,,,,,main,k,k,1,0.9631431000016164,398.89237950000097,None,None,0,,,,,,,,,,,,,,021,2022-05-18_10h59.10.425,Main,2022.1.1,60.0000599970244,
positive,yellow,2,None,k,,,,,,,,,0,90,90,90,,,,,,,,,,,,,,,,,main,k,k,1,0.8162357000110205,400.8565285000077,None,None,0,,,,,,,,,,,,,,021,2022-05-18_10h59.10.425,Main,2022.1.1,60.0000599970244,
negative,yellow,1,k,None,,,,,,,,,0,91,91,91,,,,,,,,,,,,,,,,,main,None,None,1,1.5010644999856595,402.67559610001626,None,None,1,,,,,,,,,,,,,,021,2022-05-18_10h59.10.425,Main,2022.1.1,60.0000599970244,
negative,red,2,None,None,,,,,,,,,0,92,92,92,,,,,,,,,,,,,,,,,main,None,None,1,1.4971501000109129,405.1755487000046,None,None,1,,,,,,,,,,,,,,021,2022-05-18_10h59.10.425,Main,2022.1.1,60.0000599970244,
negative,blue,2,None,k,,,,,,,,,0,93,93,93,,,,,,,,,,,,,,,,,main,k,k,1,1.5342152999946848,407.6727433000051,None,None,0,,,,,,,,,,,,,,021,2022-05-18_10h59.10.425,Main,2022.1.1,60.0000599970244,
negative,blue,1,None,k,,,,,,,,,0,94,94,94,,,,,,,,,,,,,,,,,main,k,k,1,0.7154962999920826,411.2087944000086,None,None,0,,,,,,,,,,,,,,021,2022-05-18_10h59.10.425,Main,2022.1.1,60.0000599970244,
negative,blue,1,None,k,,,,,,,,,0,95,95,95,,,,,,,,,,,,,,,,,main,k,k,1,0.6487209999759216,412.9229295999976,None,None,0,,,,,,,,,,,,,,021,2022-05-18_10h59.10.425,Main,2022.1.1,60.0000599970244,
negative,red,1,None,None,,,,,,,,,0,96,96,96,,,,,,,,,,,,,,,,,main,None,None,1,1.4991799999843352,414.57293090000167,None,None,1,,,,,,,,,,,,,,021,2022-05-18_10h59.10.425,Main,2022.1.1,60.0000599970244,
positive,yellow,1,None,k,,,,,,,,,0,97,97,97,,,,,,,,,,,,,,,,,main,k,k,1,0.7511468000011519,417.07256920001237,None,None,0,,,,,,,,,,,,,,021,2022-05-18_10h59.10.425,Main,2022.1.1,60.0000599970244,
negative,yellow,1,k,None,,,,,,,,,0,98,98,98,,,,,,,,,,,,,,,,,main,None,None,1,1.4988029999949504,418.8252586000017,None,None,1,,,,,,,,,,,,,,021,2022-05-18_10h59.10.425,Main,2022.1.1,60.0000599970244,
positive,red,1,None,None,,,,,,,,,0,99,99,99,,,,,,,,,,,,,,,,,main,None,None,1,1.4971477999933995,421.3252457000199,None,None,1,,,,,,,,,,,,,,021,2022-05-18_10h59.10.425,Main,2022.1.1,60.0000599970244,
positive,blue,1,k,None,,,,,,,,,0,100,100,100,,,,,,,,,,,,,,,,,main,None,None,1,1.5007533000025433,423.8224296999979,None,None,1,,,,,,,,,,,,,,021,2022-05-18_10h59.10.425,Main,2022.1.1,60.0000599970244,
negative,yellow,1,k,None,,,,,,,,,0,101,101,101,,,,,,,,,,,,,,,,,main,None,None,1,1.4964125000115018,426.32514309999533,None,None,1,,,,,,,,,,,,,,021,2022-05-18_10h59.10.425,Main,2022.1.1,60.0000599970244,
negative,blue,2,None,k,,,,,,,,,0,102,102,102,,,,,,,,,,,,,,,,,main,k,k,1,0.7492242000007536,428.8250234000152,None,None,0,,,,,,,,,,,,,,021,2022-05-18_10h59.10.425,Main,2022.1.1,60.0000599970244,
negative,yellow,2,k,None,,,,,,,,,0,103,103,103,,,,,,,,,,,,,,,,,main,None,None,1,1.499351399979787,430.5749815000163,None,None,1,,,,,,,,,,,,,,021,2022-05-18_10h59.10.425,Main,2022.1.1,60.0000599970244,
positive,yellow,2,None,k,,,,,,,,,0,104,104,104,,,,,,,,,,,,,,,,,main,k,k,1,0.7176285999885295,433.07229240000015,None,None,0,,,,,,,,,,,,,,021,2022-05-18_10h59.10.425,Main,2022.1.1,60.0000599970244,
positive,blue,1,k,None,,,,,,,,,0,105,105,105,,,,,,,,,,,,,,,,,main,None,None,1,1.4988918000017293,434.7916301000223,None,None,1,,,,,,,,,,,,,,021,2022-05-18_10h59.10.425,Main,2022.1.1,60.0000599970244,
positive,blue,2,k,None,,,,,,,,,0,106,106,106,,,,,,,,,,,,,,,,,main,None,None,1,1.4973718000110239,437.29161600000225,None,None,1,,,,,,,,,,,,,,021,2022-05-18_10h59.10.425,Main,2022.1.1,60.0000599970244,
negative,blue,1,None,k,,,,,,,,,0,107,107,107,,,,,,,,,,,,,,,,,main,k,k,1,0.9505149000033271,439.78882489999523,None,None,0,,,,,,,,,,,,,,021,2022-05-18_10h59.10.425,Main,2022.1.1,60.0000599970244,
positive,yellow,2,None,k,,,,,,,,,0,108,108,108,,,,,,,,,,,,,,,,,main,k,k,1,0.8178592999756802,441.7415120000078,None,None,0,,,,,,,,,,,,,,021,2022-05-18_10h59.10.425,Main,2022.1.1,60.0000599970244,
negative,yellow,1,k,None,,,,,,,,,0,109,109,109,,,,,,,,,,,,,,,,,main,None,None,1,1.495013400010066,443.5627935999946,None,None,1,,,,,,,,,,,,,,021,2022-05-18_10h59.10.425,Main,2022.1.1,60.0000599970244,
negative,blue,2,None,k,,,,,,,,,0,110,110,110,,,,,,,,,,,,,,,,,main,k,k,1,0.7840447000053246,446.05537139999797,None,None,0,,,,,,,,,,,,,,021,2022-05-18_10h59.10.425,Main,2022.1.1,60.0000599970244,
positive,blue,2,k,None,,,,,,,,,0,111,111,111,,,,,,,,,,,,,,,,,main,None,None,1,1.4969872999936342,447.84138300002087,None,None,1,,,,,,,,,,,,,,021,2022-05-18_10h59.10.425,Main,2022.1.1,60.0000599970244,
negative,blue,1,None,k,,,,,,,,,0,112,112,112,,,,,,,,,,,,,,,,,main,k,k,1,0.7842328999831807,450.3388452999934,None,None,0,,,,,,,,,,,,,,021,2022-05-18_10h59.10.425,Main,2022.1.1,60.0000599970244,
positive,yellow,1,None,k,,,,,,,,,0,113,113,113,,,,,,,,,,,,,,,,,main,k,k,1,0.7629598999919835,452.1245678999985,None,None,0,,,,,,,,,,,,,,021,2022-05-18_10h59.10.425,Main,2022.1.1,60.0000599970244,
negative,red,1,None,None,,,,,,,,,0,114,114,114,,,,,,,,,,,,,,,,,main,None,None,1,1.5016012999985833,453.8884844999993,None,None,1,,,,,,,,,,,,,,021,2022-05-18_10h59.10.425,Main,2022.1.1,60.0000599970244,
positive,red,1,None,None,,,,,,,,,0,115,115,115,,,,,,,,,,,,,,,,,main,None,None,1,1.4966709000000264,456.39119819999905,None,None,1,,,,,,,,,,,,,,021,2022-05-18_10h59.10.425,Main,2022.1.1,60.0000599970244,
negative,red,2,None,None,,,,,,,,,0,116,116,116,,,,,,,,,,,,,,,,,main,None,None,1,1.498764999996638,458.88867280000704,None,None,1,,,,,,,,,,,,,,021,2022-05-18_10h59.10.425,Main,2022.1.1,60.0000599970244,
negative,yellow,2,k,None,,,,,,,,,0,117,117,117,,,,,,,,,,,,,,,,,main,None,None,1,1.4999460999970324,461.3940908999939,None,None,1,,,,,,,,,,,,,,021,2022-05-18_10h59.10.425,Main,2022.1.1,60.0000599970244,
positive,yellow,1,None,k,,,,,,,,,0,118,118,118,,,,,,,,,,,,,,,,,main,k,k,1,0.8842857000126969,463.88834470001166,None,None,0,,,,,,,,,,,,,,021,2022-05-18_10h59.10.425,Main,2022.1.1,60.0000599970244,
positive,red,2,None,None,,,,,,,,,0,119,119,119,,,,,,,,,,,,,,,,,main,None,None,1,1.4962324999796692,465.7743664000009,None,None,1,,,,,,,,,,,,,,021,2022-05-18_10h59.10.425,Main,2022.1.1,60.0000599970244,
positive,blue,2,k,None,,,,,,,,,0,120,120,120,,,,,,,,,,,,,,,,,main,None,None,1,1.4997301000112202,468.27425310001126,None,None,1,,,,,,,,,,,,,,021,2022-05-18_10h59.10.425,Main,2022.1.1,60.0000599970244,
negative,red,1,None,None,,,,,,,,,0,121,121,121,,,,,,,,,,,,,,,,,main,None,None,1,1.5006236000044737,470.77148060000036,None,None,1,,,,,,,,,,,,,,021,2022-05-18_10h59.10.425,Main,2022.1.1,60.0000599970244,
positive,yellow,2,None,k,,,,,,,,,0,122,122,122,,,,,,,,,,,,,,,,,main,k,k,1,1.013581199978944,473.27419050000026,None,None,0,,,,,,,,,,,,,,021,2022-05-18_10h59.10.425,Main,2022.1.1,60.0000599970244,
negative,red,2,None,None,,,,,,,,,0,123,123,123,,,,,,,,,,,,,,,,,main,None,None,1,1.4992650999920443,475.28843810001854,None,None,1,,,,,,,,,,,,,,021,2022-05-18_10h59.10.425,Main,2022.1.1,60.0000599970244,
negative,yellow,2,k,None,,,,,,,,,0,124,124,124,,,,,,,,,,,,,,,,,main,None,None,1,1.5007068999984767,477.78798870000173,None,None,1,,,,,,,,,,,,,,021,2022-05-18_10h59.10.425,Main,2022.1.1,60.0000599970244,
positive,red,1,None,None,,,,,,,,,0,125,125,125,,,,,,,,,,,,,,,,,main,None,None,1,1.4989664999884553,480.29072859999724,None,None,1,,,,,,,,,,,,,,021,2022-05-18_10h59.10.425,Main,2022.1.1,60.0000599970244,
negative,blue,2,None,k,,,,,,,,,0,126,126,126,,,,,,,,,,,,,,,,,main,k,k,1,0.7464866999944206,482.7906775000156,None,None,0,,,,,,,,,,,,,,021,2022-05-18_10h59.10.425,Main,2022.1.1,60.0000599970244,
negative,blue,1,None,k,,,,,,,,,0,127,127,127,,,,,,,,,,,,,,,,,main,k,k,1,0.7991514000168536,484.5378580999968,None,None,0,,,,,,,,,,,,,,021,2022-05-18_10h59.10.425,Main,2022.1.1,60.0000599970244,
negative,yellow,1,k,None,,,,,,,,,0,128,128,128,,,,,,,,,,,,,,,,,main,None,None,1,1.5015022000006866,486.33790270000463,None,None,1,,,,,,,,,,,,,,021,2022-05-18_10h59.10.425,Main,2022.1.1,60.0000599970244,
negative,yellow,1,k,None,,,,,,,,,0,129,129,129,,,,,,,,,,,,,,,,,main,None,None,1,1.4965654000116047,488.84055640001316,None,None,1,,,,,,,,,,,,,,021,2022-05-18_10h59.10.425,Main,2022.1.1,60.0000599970244,
positive,blue,1,k,None,,,,,,,,,0,130,130,130,,,,,,,,,,,,,,,,,main,None,None,1,1.4988546000095084,491.3379797000089,None,None,1,,,,,,,,,,,,,,021,2022-05-18_10h59.10.425,Main,2022.1.1,60.0000599970244,
negative,blue,1,None,k,,,,,,,,,0,131,131,131,,,,,,,,,,,,,,,,,main,k,k,1,0.7822789000056218,493.8377406000218,None,None,0,,,,,,,,,,,,,,021,2022-05-18_10h59.10.425,Main,2022.1.1,60.0000599970244,
negative,blue,2,None,k,,,,,,,,,0,132,132,132,,,,,,,,,,,,,,,,,main,k,k,1,0.7517233999969903,495.6210265000118,None,None,0,,,,,,,,,,,,,,021,2022-05-18_10h59.10.425,Main,2022.1.1,60.0000599970244,
positive,blue,2,k,None,,,,,,,,,0,133,133,133,,,,,,,,,,,,,,,,,main,None,None,1,1.5018501000013202,497.37364570001955,None,None,1,,,,,,,,,,,,,,021,2022-05-18_10h59.10.425,Main,2022.1.1,60.0000599970244,
positive,red,2,None,None,,,,,,,,,0,134,134,134,,,,,,,,,,,,,,,,,main,None,None,1,1.5000123999780044,499.8747989000112,None,None,1,,,,,,,,,,,,,,021,2022-05-18_10h59.10.425,Main,2022.1.1,60.0000599970244,
negative,yellow,2,k,None,,,,,,,,,0,135,135,135,,,,,,,,,,,,,,,,,main,None,None,1,1.4931724999914877,502.376883000019,None,None,1,,,,,,,,,,,,,,021,2022-05-18_10h59.10.425,Main,2022.1.1,60.0000599970244,
positive,yellow,2,None,k,,,,,,,,,0,136,136,136,,,,,,,,,,,,,,,,,main,k,k,1,0.78404810000211,504.8708263000008,None,None,0,,,,,,,,,,,,,,021,2022-05-18_10h59.10.425,Main,2022.1.1,60.0000599970244,
positive,blue,1,k,None,,,,,,,,,0,137,137,137,,,,,,,,,,,,,,,,,main,None,None,1,1.4987500999995973,506.65687050001,None,None,1,,,,,,,,,,,,,,021,2022-05-18_10h59.10.425,Main,2022.1.1,60.0000599970244,
positive,yellow,1,None,k,,,,,,,,,0,138,138,138,,,,,,,,,,,,,,,,,main,k,k,1,0.7971248999820091,509.15678570000455,None,None,0,,,,,,,,,,,,,,021,2022-05-18_10h59.10.425,Main,2022.1.1,60.0000599970244,
positive,yellow,1,None,k,,,,,,,,,0,139,139,139,,,,,,,,,,,,,,,,,main,k,k,1,0.8550399000232574,510.9566289000213,None,None,0,,,,,,,,,,,,,,021,2022-05-18_10h59.10.425,Main,2022.1.1,60.0000599970244,
positive,yellow,1,None,k,,,,,,,,,0,140,140,140,,,,,,,,,,,,,,,,,main,k,k,1,0.6268059999856632,512.814308800007,None,None,0,,,,,,,,,,,,,,021,2022-05-18_10h59.10.425,Main,2022.1.1,60.0000599970244,
positive,blue,1,k,None,,,,,,,,,0,141,141,141,,,,,,,,,,,,,,,,,main,None,None,1,1.5004050999996252,514.4372705999995,None,None,1,,,,,,,,,,,,,,021,2022-05-18_10h59.10.425,Main,2022.1.1,60.0000599970244,
positive,blue,2,k,None,,,,,,,,,0,142,142,142,,,,,,,,,,,,,,,,,main,None,None,1,1.4971469000156503,516.9399922000011,None,None,1,,,,,,,,,,,,,,021,2022-05-18_10h59.10.425,Main,2022.1.1,60.0000599970244,
positive,yellow,2,None,k,,,,,,,,,0,143,143,143,,,,,,,,,,,,,,,,,main,k,k,1,0.9647710999997798,519.4371519999986,None,None,0,,,,,,,,,,,,,,021,2022-05-18_10h59.10.425,Main,2022.1.1,60.0000599970244,
negative,yellow,2,k,None,,,,,,,,,0,144,144,144,,,,,,,,,,,,,,,,,main,None,None,1,1.501565100013977,521.403867999994,None,None,1,,,,,,,,,,,,,,021,2022-05-18_10h59.10.425,Main,2022.1.1,60.0000599970244,
negative,blue,2,None,k,,,,,,,,,0,145,145,145,,,,,,,,,,,,,,,,,main,k,k,1,1.1135921999812126,523.9065051000216,None,None,0,,,,,,,,,,,,,,021,2022-05-18_10h59.10.425,Main,2022.1.1,60.0000599970244,
negative,red,1,None,None,,,,,,,,,0,146,146,146,,,,,,,,,,,,,,,,,main,None,None,1,1.4991261000104714,526.020659700007,None,None,1,,,,,,,,,,,,,,021,2022-05-18_10h59.10.425,Main,2022.1.1,60.0000599970244,
positive,blue,1,k,None,,,,,,,,,0,147,147,147,,,,,,,,,,,,,,,,,main,None,None,1,1.4988249000161886,528.5203179999953,None,None,1,,,,,,,,,,,,,,021,2022-05-18_10h59.10.425,Main,2022.1.1,60.0000599970244,
positive,yellow,1,None,k,,,,,,,,,0,148,148,148,,,,,,,,,,,,,,,,,main,k,k,1,0.8151820000202861,531.0203876000014,None,None,0,,,,,,,,,,,,,,021,2022-05-18_10h59.10.425,Main,2022.1.1,60.0000599970244,
negative,red,2,None,None,,,,,,,,,0,149,149,149,,,,,,,,,,,,,,,,,main,None,None,1,1.501092200021958,532.8396713999973,None,None,1,,,,,,,,,,,,,,021,2022-05-18_10h59.10.425,Main,2022.1.1,60.0000599970244,
negative,blue,1,None,k,,,,,,,,,0,150,150,150,,,,,,,,,,,,,,,,,main,k,k,1,0.7306471000192687,535.3396364999935,None,None,0,,,,,,,,,,,,,,021,2022-05-18_10h59.10.425,Main,2022.1.1,60.0000599970244,
negative,yellow,2,k,None,,,,,,,,,0,151,151,151,,,,,,,,,,,,,,,,,main,None,None,1,1.5003429000207689,537.0701479999989,None,None,1,,,,,,,,,,,,,,021,2022-05-18_10h59.10.425,Main,2022.1.1,60.0000599970244,
negative,blue,2,None,k,,,,,,,,,0,152,152,152,,,,,,,,,,,,,,,,,main,k,k,1,0.7494122000061907,539.5728366000112,None,None,0,,,,,,,,,,,,,,021,2022-05-18_10h59.10.425,Main,2022.1.1,60.0000599970244,
negative,yellow,1,k,None,,,,,,,,,0,153,153,153,,,,,,,,,,,,,,,,,main,None,None,1,1.4967481999774463,541.3228286000085,None,None,1,,,,,,,,,,,,,,021,2022-05-18_10h59.10.425,Main,2022.1.1,60.0000599970244,
negative,blue,1,None,k,,,,,,,,,0,154,154,154,,,,,,,,,,,,,,,,,main,k,k,1,1.4511317999858875,543.8200093000196,None,None,0,,,,,,,,,,,,,,021,2022-05-18_10h59.10.425,Main,2022.1.1,60.0000599970244,
positive,yellow,2,None,k,,,,,,,,,0,155,155,155,,,,,,,,,,,,,,,,,main,k,k,1,0.6487941000086721,546.272750700009,None,None,0,,,,,,,,,,,,,,021,2022-05-18_10h59.10.425,Main,2022.1.1,60.0000599970244,
positive,red,2,None,None,,,,,,,,,0,156,156,156,,,,,,,,,,,,,,,,,main,None,None,1,1.4968534000217915,547.9227132000087,None,None,1,,,,,,,,,,,,,,021,2022-05-18_10h59.10.425,Main,2022.1.1,60.0000599970244,
positive,red,1,None,None,,,,,,,,,0,157,157,157,,,,,,,,,,,,,,,,,main,None,None,1,1.500618400023086,550.4199438000214,None,None,1,,,,,,,,,,,,,,021,2022-05-18_10h59.10.425,Main,2022.1.1,60.0000599970244,
positive,blue,2,k,None,,,,,,,,,0,158,158,158,,,,,,,,,,,,,,,,,main,None,None,1,1.4964561999950092,552.9226172000053,None,None,1,,,,,,,,,,,,,,021,2022-05-18_10h59.10.425,Main,2022.1.1,60.0000599970244,
negative,yellow,1,k,None,,,,,,,,,0,159,159,159,,,,,,,,,,,,,,,,,main,None,None,1,1.499809999979334,555.4200717000058,None,None,1,,,,,,,,,,,,,,021,2022-05-18_10h59.10.425,Main,2022.1.1,60.0000599970244,
negative,red,2,None,None,,,,,,,,,0,160,160,160,,,,,,,,,,,,,,,,,main,None,None,1,1.500702999997884,557.9197340999963,None,None,1,,,,,,,,,,,,,,021,2022-05-18_10h59.10.425,Main,2022.1.1,60.0000599970244,
negative,blue,1,None,k,,,,,,,,,0,161,161,161,,,,,,,,,,,,,,,,,main,k,k,1,1.1492825000023004,560.4224826999998,None,None,0,,,,,,,,,,,,,,021,2022-05-18_10h59.10.425,Main,2022.1.1,60.0000599970244,
negative,blue,1,None,k,,,,,,,,,0,162,162,162,,,,,,,,,,,,,,,,,main,k,k,1,0.7295280999969691,562.569744700013,None,None,0,,,,,,,,,,,,,,021,2022-05-18_10h59.10.425,Main,2022.1.1,60.0000599970244,
negative,yellow,1,k,None,,,,,,,,,0,163,163,163,,,,,,,,,,,,,,,,,main,None,None,1,1.5015625999949407,564.3029256000009,None,None,1,,,,,,,,,,,,,,021,2022-05-18_10h59.10.425,Main,2022.1.1,60.0000599970244,
negative,yellow,1,k,None,,,,,,,,,0,164,164,164,,,,,,,,,,,,,,,,,main,None,None,1,1.4964131000160705,566.8056532000192,None,None,1,,,,,,,,,,,,,,021,2022-05-18_10h59.10.425,Main,2022.1.1,60.0000599970244,
positive,yellow,1,None,k,,,,,,,,,0,165,165,165,,,,,,,,,,,,,,,,,main,k,k,1,0.632507500005886,569.3086646000156,None,None,0,,,,,,,,,,,,,,021,2022-05-18_10h59.10.425,Main,2022.1.1,60.0000599970244,
negative,red,1,None,None,,,,,,,,,0,166,166,166,,,,,,,,,,,,,,,,,main,None,None,1,1.5015308999863919,570.9361423999944,None,None,1,,,,,,,,,,,,,,021,2022-05-18_10h59.10.425,Main,2022.1.1,60.0000599970244,
negative,yellow,2,k,None,,,,,,,,,0,167,167,167,,,,,,,,,,,,,,,,,main,None,None,1,1.496641300007468,573.438798600022,None,None,1,,,,,,,,,,,,,,021,2022-05-18_10h59.10.425,Main,2022.1.1,60.0000599970244,
positive,blue,2,k,None,,,,,,,,,0,168,168,168,,,,,,,,,,,,,,,,,main,None,None,1,1.4988375999964774,575.9387483000173,None,None,1,,,,,,,,,,,,,,021,2022-05-18_10h59.10.425,Main,2022.1.1,60.0000599970244,
positive,red,2,None,None,,,,,,,,,0,169,169,169,,,,,,,,,,,,,,,,,main,None,None,1,1.5017535999941174,578.4359659000183,None,None,1,,,,,,,,,,,,,,021,2022-05-18_10h59.10.425,Main,2022.1.1,60.0000599970244,
positive,red,1,None,None,,,,,,,,,0,170,170,170,,,,,,,,,,,,,,,,,main,None,None,1,1.4990653999848291,580.9386896000069,None,None,1,,,,,,,,,,,,,,021,2022-05-18_10h59.10.425,Main,2022.1.1,60.0000599970244,
negative,blue,2,None,k,,,,,,,,,0,171,171,171,,,,,,,,,,,,,,,,,main,k,k,1,0.948773500014795,583.4386839000217,None,None,0,,,,,,,,,,,,,,021,2022-05-18_10h59.10.425,Main,2022.1.1,60.0000599970244,
positive,blue,2,k,None,,,,,,,,,0,172,172,172,,,,,,,,,,,,,,,,,main,None,None,1,1.498984100006055,585.3858399000019,None,None,1,,,,,,,,,,,,,,021,2022-05-18_10h59.10.425,Main,2022.1.1,60.0000599970244,
negative,yellow,2,k,None,,,,,,,,,0,173,173,173,,,,,,,,,,,,,,,,,main,None,None,1,1.4989888000127394,587.8885574000014,None,None,1,,,,,,,,,,,,,,021,2022-05-18_10h59.10.425,Main,2022.1.1,60.0000599970244,
positive,yellow,2,None,k,,,,,,,,,0,174,174,174,,,,,,,,,,,,,,,,,main,k,k,1,0.7974569000070915,590.3919534000161,None,None,0,,,,,,,,,,,,,,021,2022-05-18_10h59.10.425,Main,2022.1.1,60.0000599970244,
negative,blue,2,None,k,,,,,,,,,0,175,175,175,,,,,,,,,,,,,,,,,main,k,k,1,1.1649467999814078,592.1856995999988,None,None,0,,,,,,,,,,,,,,021,2022-05-18_10h59.10.425,Main,2022.1.1,60.0000599970244,
positive,blue,1,k,None,,,,,,,,,0,176,176,176,,,,,,,,,,,,,,,,,main,None,None,1,1.4985532000137027,594.3550828000007,None,None,1,,,,,,,,,,,,,,021,2022-05-18_10h59.10.425,Main,2022.1.1,60.0000599970244,
positive,yellow,1,None,k,,,,,,,,,0,177,177,177,,,,,,,,,,,,,,,,,main,k,k,1,0.8665343000029679,596.8525771000131,None,None,0,,,,,,,,,,,,,,021,2022-05-18_10h59.10.425,Main,2022.1.1,60.0000599970244,
positive,blue,1,k,None,,,,,,,,,0,178,178,178,,,,,,,,,,,,,,,,,main,None,None,1,1.4986425999959465,598.7189077000075,None,None,1,,,,,,,,,,,,,,021,2022-05-18_10h59.10.425,Main,2022.1.1,60.0000599970244,
positive,yellow,2,None,k,,,,,,,,,0,179,179,179,,,,,,,,,,,,,,,,,main,k,k,1,3.5979247000068426,601.2189632999944,None,None,0,,,,,,,,,,,,,,021,2022-05-18_10h59.10.425,Main,2022.1.1,60.0000599970244,
positive,blue,1,k,None,,,,,,,,,0,180,180,180,,,,,,,,,,,,,,,,,main,None,None,1,1.5033714000019245,606.8187505000096,None,None,1,,,,,,,,,,,,,,021,2022-05-18_10h59.10.425,Main,2022.1.1,60.0000599970244,
negative,red,1,None,None,,,,,,,,,0,181,181,181,,,,,,,,,,,,,,,,,main,None,None,1,1.4962021999817807,609.3214673000039,None,None,1,,,,,,,,,,,,,,021,2022-05-18_10h59.10.425,Main,2022.1.1,60.0000599970244,
negative,blue,1,None,k,,,,,,,,,0,182,182,182,,,,,,,,,,,,,,,,,main,k,k,1,0.6826627000118606,611.8189068000065,None,None,0,,,,,,,,,,,,,,021,2022-05-18_10h59.10.425,Main,2022.1.1,60.0000599970244,
negative,yellow,2,k,None,,,,,,,,,0,183,183,183,,,,,,,,,,,,,,,,,main,None,None,1,1.4991383999877144,613.5022414000123,None,None,1,,,,,,,,,,,,,,021,2022-05-18_10h59.10.425,Main,2022.1.1,60.0000599970244,
positive,yellow,2,None,k,,,,,,,,,0,184,184,184,,,,,,,,,,,,,,,,,main,k,k,1,0.5981874999997672,616.0018849000044,None,None,0,,,,,,,,,,,,,,021,2022-05-18_10h59.10.425,Main,2022.1.1,60.0000599970244,
positive,yellow,1,None,k,,,,,,,,,0,185,185,185,,,,,,,,,,,,,,,,,main,k,k,1,0.6684786999830976,617.6019283000205,None,None,0,,,,,,,,,,,,,,021,2022-05-18_10h59.10.425,Main,2022.1.1,60.0000599970244,
positive,red,2,None,None,,,,,,,,,0,186,186,186,,,,,,,,,,,,,,,,,main,None,None,1,1.4987334000179544,619.2712694999937,None,None,1,,,,,,,,,,,,,,021,2022-05-18_10h59.10.425,Main,2022.1.1,60.0000599970244,
positive,blue,1,k,None,,,,,,,,,0,187,187,187,,,,,,,,,,,,,,,,,main,None,None,1,1.4972390000184532,621.7712232000194,None,None,1,,,,,,,,,,,,,,021,2022-05-18_10h59.10.425,Main,2022.1.1,60.0000599970244,
negative,yellow,1,k,None,,,,,,,,,0,188,188,188,,,,,,,,,,,,,,,,,main,None,None,1,1.5006055000121705,624.268446800008,None,None,1,,,,,,,,,,,,,,021,2022-05-18_10h59.10.425,Main,2022.1.1,60.0000599970244,
positive,yellow,2,None,k,,,,,,,,,0,189,189,189,,,,,,,,,,,,,,,,,main,k,k,1,0.6968099999940023,626.7711149000097,None,None,0,,,,,,,,,,,,,,021,2022-05-18_10h59.10.425,Main,2022.1.1,60.0000599970244,
negative,yellow,2,k,None,,,,,,,,,0,190,190,190,,,,,,,,,,,,,,,,,main,None,None,1,1.4993397000071127,628.4685958000191,None,None,1,,,,,,,,,,,,,,021,2022-05-18_10h59.10.425,Main,2022.1.1,60.0000599970244,
negative,yellow,1,k,None,,,,,,,,,0,191,191,191,,,,,,,,,,,,,,,,,main,None,None,1,1.4987696000025608,630.9682403000188,None,None,1,,,,,,,,,,,,,,021,2022-05-18_10h59.10.425,Main,2022.1.1,60.0000599970244,
positive,blue,2,k,None,,,,,,,,,0,192,192,192,,,,,,,,,,,,,,,,,main,None,None,1,1.500838299980387,633.4682675999939,None,None,1,,,,,,,,,,,,,,021,2022-05-18_10h59.10.425,Main,2022.1.1,60.0000599970244,
positive,yellow,1,None,k,,,,,,,,,0,193,193,193,,,,,,,,,,,,,,,,,main,k,k,1,0.7992601000005379,635.9708843000117,None,None,0,,,,,,,,,,,,,,021,2022-05-18_10h59.10.425,Main,2022.1.1,60.0000599970244,
negative,red,2,None,None,,,,,,,,,0,194,194,194,,,,,,,,,,,,,,,,,main,None,None,1,1.4962820000073407,637.770898799994,None,None,1,,,,,,,,,,,,,,021,2022-05-18_10h59.10.425,Main,2022.1.1,60.0000599970244,
positive,red,1,None,None,,,,,,,,,0,195,195,195,,,,,,,,,,,,,,,,,main,None,None,1,1.4987679999903776,640.268385000003,None,None,1,,,,,,,,,,,,,,021,2022-05-18_10h59.10.425,Main,2022.1.1,60.0000599970244,
negative,blue,1,None,k,,,,,,,,,0,196,196,196,,,,,,,,,,,,,,,,,main,k,k,1,1.2687565000087488,642.7680807000143,None,None,0,,,,,,,,,,,,,,021,2022-05-18_10h59.10.425,Main,2022.1.1,60.0000599970244,
positive,blue,2,k,None,,,,,,,,,0,197,197,197,,,,,,,,,,,,,,,,,main,None,None,1,1.4968857000058051,645.0374256000214,None,None,1,,,,,,,,,,,,,,021,2022-05-18_10h59.10.425,Main,2022.1.1,60.0000599970244,
negative,blue,2,None,k,,,,,,,,,0,198,198,198,,,,,,,,,,,,,,,,,main,k,k,1,0.7647648999991361,647.5345830000006,None,None,0,,,,,,,,,,,,,,021,2022-05-18_10h59.10.425,Main,2022.1.1,60.0000599970244,
negative,blue,2,None,k,,,,,,,,,0,199,199,199,,,,,,,,,,,,,,,,,main,k,k,1,0.7518260999931954,649.3012925000221,None,None,0,,,,,,,,,,,,,,021,2022-05-18_10h59.10.425,Main,2022.1.1,60.0000599970244,
positive,blue,2,k,None,,,,,,,,,0,200,200,200,,,,,,,,,,,,,,,,,main,None,None,1,1.496967399987625,651.0539898000134,None,None,1,,,,,,,,,,,,,,021,2022-05-18_10h59.10.425,Main,2022.1.1,60.0000599970244,
positive,blue,2,k,None,,,,,,,,,0,201,201,201,,,,,,,,,,,,,,,,,main,None,None,1,1.5006265000265557,653.5511362999969,None,None,1,,,,,,,,,,,,,,021,2022-05-18_10h59.10.425,Main,2022.1.1,60.0000599970244,
negative,yellow,2,k,None,,,,,,,,,0,202,202,202,,,,,,,,,,,,,,,,,main,None,None,1,1.4991484000056516,656.0537996000203,None,None,1,,,,,,,,,,,,,,021,2022-05-18_10h59.10.425,Main,2022.1.1,60.0000599970244,
positive,red,1,None,None,,,,,,,,,0,203,203,203,,,,,,,,,,,,,,,,,main,None,None,1,1.4971690999809653,658.5538496999943,None,None,1,,,,,,,,,,,,,,021,2022-05-18_10h59.10.425,Main,2022.1.1,60.0000599970244,
negative,blue,2,None,k,,,,,,,,,0,204,204,204,,,,,,,,,,,,,,,,,main,k,k,1,0.8007660000002943,661.0510415000026,None,None,0,,,,,,,,,,,,,,021,2022-05-18_10h59.10.425,Main,2022.1.1,60.0000599970244,
negative,red,1,None,None,,,,,,,,,0,205,205,205,,,,,,,,,,,,,,,,,main,None,None,1,1.4963217999902554,662.8536722999997,None,None,1,,,,,,,,,,,,,,021,2022-05-18_10h59.10.425,Main,2022.1.1,60.0000599970244,
negative,blue,2,None,k,,,,,,,,,0,206,206,206,,,,,,,,,,,,,,,,,main,k,k,1,0.649558100005379,665.3535343999974,None,None,0,,,,,,,,,,,,,,021,2022-05-18_10h59.10.425,Main,2022.1.1,60.0000599970244,
negative,yellow,2,k,None,,,,,,,,,0,207,207,207,,,,,,,,,,,,,,,,,main,None,None,1,1.4992435000021942,667.003574900009,None,None,1,,,,,,,,,,,,,,021,2022-05-18_10h59.10.425,Main,2022.1.1,60.0000599970244,
positive,yellow,2,None,k,,,,,,,,,0,208,208,208,,,,,,,,,,,,,,,,,main,k,k,1,0.8840670999779832,669.5009421000141,None,None,0,,,,,,,,,,,,,,021,2022-05-18_10h59.10.425,Main,2022.1.1,60.0000599970244,
negative,yellow,1,k,None,,,,,,,,,0,209,209,209,,,,,,,,,,,,,,,,,main,None,None,1,1.4955032999860123,671.3869020999991,None,None,1,,,,,,,,,,,,,,021,2022-05-18_10h59.10.425,Main,2022.1.1,60.0000599970244,
negative,red,2,None,None,,,,,,,,,0,210,210,210,,,,,,,,,,,,,,,,,main,None,None,1,1.4988233000040054,673.8843481000222,None,None,1,,,,,,,,,,,,,,021,2022-05-18_10h59.10.425,Main,2022.1.1,60.0000599970244,
negative,blue,1,None,k,,,,,,,,,0,211,211,211,,,,,,,,,,,,,,,,,main,k,k,1,1.6479779999936,676.3840132000041,None,None,0,,,,,,,,,,,,,,021,2022-05-18_10h59.10.425,Main,2022.1.1,60.0000599970244,
negative,yellow,1,k,None,,,,,,,,,0,212,212,212,,,,,,,,,,,,,,,,,main,None,None,1,1.5011257999867667,680.0367028000182,None,None,1,,,,,,,,,,,,,,021,2022-05-18_10h59.10.425,Main,2022.1.1,60.0000599970244,
positive,blue,1,k,None,,,,,,,,,0,213,213,213,,,,,,,,,,,,,,,,,main,None,None,1,1.4969249999849126,682.5366516000067,None,None,1,,,,,,,,,,,,,,021,2022-05-18_10h59.10.425,Main,2022.1.1,60.0000599970244,
positive,blue,1,k,None,,,,,,,,,0,214,214,214,,,,,,,,,,,,,,,,,main,None,None,1,1.500536200008355,685.0338909999991,None,None,1,,,,,,,,,,,,,,021,2022-05-18_10h59.10.425,Main,2022.1.1,60.0000599970244,
positive,yellow,1,None,k,,,,,,,,,0,215,215,215,,,,,,,,,,,,,,,,,main,k,k,1,0.7298313000064809,687.536554499995,None,None,0,,,,,,,,,,,,,,021,2022-05-18_10h59.10.425,Main,2022.1.1,60.0000599970244,
positive,yellow,1,None,k,,,,,,,,,0,216,216,216,,,,,,,,,,,,,,,,,main,k,k,1,0.6325530000030994,689.2670716000139,None,None,0,,,,,,,,,,,,,,021,2022-05-18_10h59.10.425,Main,2022.1.1,60.0000599970244,
positive,yellow,2,None,k,,,,,,,,,0,217,217,217,,,,,,,,,,,,,,,,,main,k,k,1,0.966043400025228,690.9006253000116,None,None,0,,,,,,,,,,,,,,021,2022-05-18_10h59.10.425,Main,2022.1.1,60.0000599970244,
negative,blue,1,None,k,,,,,,,,,0,218,218,218,,,,,,,,,,,,,,,,,main,k,k,1,0.6514371999946889,692.869786700001,None,None,0,,,,,,,,,,,,,,021,2022-05-18_10h59.10.425,Main,2022.1.1,60.0000599970244,
positive,red,2,None,None,,,,,,,,,0,219,219,219,,,,,,,,,,,,,,,,,main,None,None,1,1.4969808000023477,694.5197580000095,None,None,1,,,,,,,,,,,,,,021,2022-05-18_10h59.10.425,Main,2022.1.1,60.0000599970244,
positive,yellow,1,None,k,,,,,,,,,0,220,220,220,,,,,,,,,,,,,,,,,main,k,k,1,0.6675006000150461,697.0169788000057,None,None,0,,,,,,,,,,,,,,021,2022-05-18_10h59.10.425,Main,2022.1.1,60.0000599970244,
positive,blue,1,k,None,,,,,,,,,0,221,221,221,,,,,,,,,,,,,,,,,main,None,None,1,1.5028288000030443,698.6862741000077,None,None,1,,,,,,,,,,,,,,021,2022-05-18_10h59.10.425,Main,2022.1.1,60.0000599970244,
positive,yellow,2,None,k,,,,,,,,,0,222,222,222,,,,,,,,,,,,,,,,,main,k,k,1,0.8100156000000425,701.1899424000003,None,None,0,,,,,,,,,,,,,,021,2022-05-18_10h59.10.425,Main,2022.1.1,60.0000599970244,
negative,yellow,1,k,None,,,,,,,,,0,223,223,223,,,,,,,,,,,,,,,,,main,None,None,1,1.4984551999950781,703.0027483000013,None,None,1,,,,,,,,,,,,,,021,2022-05-18_10h59.10.425,Main,2022.1.1,60.0000599970244,
positive,yellow,2,None,k,,,,,,,,,0,224,224,224,,,,,,,,,,,,,,,,,main,k,k,1,0.8508299999812152,705.5002080000122,None,None,0,,,,,,,,,,,,,,021,2022-05-18_10h59.10.425,Main,2022.1.1,60.0000599970244,
negative,yellow,2,k,None,,,,,,,,,0,225,225,225,,,,,,,,,,,,,,,,,main,None,None,1,1.4968978999822866,707.3528109000181,None,None,1,,,,,,,,,,,,,,021,2022-05-18_10h59.10.425,Main,2022.1.1,60.0000599970244,
negative,blue,2,None,k,,,,,,,,,0,226,226,226,,,,,,,,,,,,,,,,,main,k,k,1,0.7323280000127852,709.8500507000135,None,None,0,,,,,,,,,,,,,,021,2022-05-18_10h59.10.425,Main,2022.1.1,60.0000599970244,
positive,red,2,None,None,,,,,,,,,0,227,227,227,,,,,,,,,,,,,,,,,main,None,None,1,1.49923950000084,711.5833570999966,None,None,1,,,,,,,,,,,,,,021,2022-05-18_10h59.10.425,Main,2022.1.1,60.0000599970244,
positive,blue,2,k,None,,,,,,,,,0,228,228,228,,,,,,,,,,,,,,,,,main,None,None,1,1.4982092000136618,714.0860265000083,None,None,1,,,,,,,,,,,,,,021,2022-05-18_10h59.10.425,Main,2022.1.1,60.0000599970244,
negative,blue,1,None,k,,,,,,,,,0,229,229,229,,,,,,,,,,,,,,,,,main,k,k,1,0.6125371999805793,716.5834945999959,None,None,0,,,,,,,,,,,,,,021,2022-05-18_10h59.10.425,Main,2022.1.1,60.0000599970244,
positive,yellow,1,None,k,,,,,,,,,0,230,230,230,,,,,,,,,,,,,,,,,main,k,k,1,0.6159339000005275,718.2001037000155,None,None,0,,,,,,,,,,,,,,021,2022-05-18_10h59.10.425,Main,2022.1.1,60.0000599970244,
negative,blue,2,None,k,,,,,,,,,0,231,231,231,,,,,,,,,,,,,,,,,main,k,k,1,0.8322845000075176,719.816730999999,None,None,0,,,,,,,,,,,,,,021,2022-05-18_10h59.10.425,Main,2022.1.1,60.0000599970244,
negative,red,1,None,None,,,,,,,,,0,232,232,232,,,,,,,,,,,,,,,,,main,None,None,1,1.5008463999838568,721.6524253000098,None,None,1,,,,,,,,,,,,,,021,2022-05-18_10h59.10.425,Main,2022.1.1,60.0000599970244,
positive,blue,2,k,None,,,,,,,,,0,233,233,233,,,,,,,,,,,,,,,,,main,None,None,1,1.4966756000067107,724.1499440000043,None,None,1,,,,,,,,,,,,,,021,2022-05-18_10h59.10.425,Main,2022.1.1,60.0000599970244,
negative,yellow,1,k,None,,,,,,,,,0,234,234,234,,,,,,,,,,,,,,,,,main,None,k,0,0.6493068999843672,726.6499431999982,None,None,1,,,,,,,,,,,,,,021,2022-05-18_10h59.10.425,Main,2022.1.1,60.0000599970244,
negative,yellow,2,k,None,,,,,,,,,0,235,235,235,,,,,,,,,,,,,,,,,main,None,k,0,0.6985782000119798,729.2999273000169,None,None,1,,,,,,,,,,,,,,021,2022-05-18_10h59.10.425,Main,2022.1.1,60.0000599970244,
positive,red,1,None,None,,,,,,,,,0,236,236,236,,,,,,,,,,,,,,,,,main,None,None,1,1.503354099986609,731.99961910001,None,None,1,,,,,,,,,,,,,,021,2022-05-18_10h59.10.425,Main,2022.1.1,60.0000599970244,
negative,red,2,None,None,,,,,,,,,0,237,237,237,,,,,,,,,,,,,,,,,main,None,None,1,1.4962213000108022,734.5022886999941,None,None,1,,,,,,,,,,,,,,021,2022-05-18_10h59.10.425,Main,2022.1.1,60.0000599970244,
negative,blue,1,None,k,,,,,,,,,0,238,238,238,,,,,,,,,,,,,,,,,main,k,k,1,0.7822659999947064,737.0020786999958,None,None,0,,,,,,,,,,,,,,021,2022-05-18_10h59.10.425,Main,2022.1.1,60.0000599970244,
positive,blue,1,k,None,,,,,,,,,0,239,239,239,,,,,,,,,,,,,,,,,main,None,None,1,1.5017092000052799,738.7827470000193,None,None,1,,,,,,,,,,,,,,021,2022-05-18_10h59.10.425,Main,2022.1.1,60.0000599970244,
,,,,,,,,,,,,,,,,,,,,,,,,,,,,,,,,,,,,,,,,,,,,,,,,,,,,,741.2854460999952,None,,,,,,
