distractor,target,set,ans1,ans2,rep_loop4.thisRepN,rep_loop4.thisTrialN,rep_loop4.thisN,rep_loop4.thisIndex,st2_prac_loop.thisRepN,st2_prac_loop.thisTrialN,st2_prac_loop.thisN,st2_prac_loop.thisIndex,st2_main_loop.thisRepN,st2_main_loop.thisTrialN,st2_main_loop.thisN,st2_main_loop.thisIndex,image_4.started,image_4.stopped,sound_2.started,sound_2.stopped,key_resp_3.keys,key_resp_3.rt,image_5.started,image_5.stopped,st_prac_back.started,st_prac_back.stopped,st_prac_text.started,st_prac_text.stopped,st_fix_back.started,st_fix_back.stopped,st_fix_2.started,st_fix_2.stopped,main_prac,st_ans,st_res,st_corr,st_rt,st_back.started,st_back.stopped,st2_resp.keys,st2_resp.corr,st_main_back.started,st_main_back.stopped,st_main_text.started,st_main_text.stopped,mouse_4.x,mouse_4.y,mouse_4.leftButton,mouse_4.midButton,mouse_4.rightButton,mouse_4.started,mouse_4.stopped,text_2.started,text_2.stopped,id*,date,expName,psychopyVersion,frameRate,
negative,yellow,1,k,None,,,,,0,0,0,0,,,,,29.588620299997274,None,33.063084739996704,None,space,65.29155720002018,98.37818510000943,None,99.5124555999937,None,99.5124555999937,None,101.5257808000024,None,101.5257808000024,None,prac,k,k,1,1.7970703000028152,103.52582370000891,None,None,0,,,,,,,,,,,,,,022,2022-05-18_13h43.08.984,Main,2022.1.1,59.805250190280134,
positive,red,2,None,None,,,,,0,1,1,1,,,,,,,,,,,,,,,,,,,,,prac,None,None,1,1.5034857999999076,107.3423358,None,None,1,,,,,,,,,,,,,,022,2022-05-18_13h43.08.984,Main,2022.1.1,59.805250190280134,
negative,blue,2,None,k,,,,,0,2,2,2,,,,,,,,,,,,,,,,,,,,,prac,None,None,1,1.4987599000160117,109.84489010000834,None,None,1,,,,,,,,,,,,,,022,2022-05-18_13h43.08.984,Main,2022.1.1,59.805250190280134,
positive,yellow,1,None,k,,,,,0,3,3,3,,,,,,,,,,,,,,,,,,,,,prac,None,None,1,1.4988704999850597,112.34481899999082,None,None,1,,,,,,,,,,,,,,022,2022-05-18_13h43.08.984,Main,2022.1.1,59.805250190280134,
negative,blue,2,None,k,,,,,0,4,4,4,,,,,,,,,,,,,,,,,,,,,prac,None,None,1,1.499384499998996,114.84228969999822,None,None,1,,,,,,,,,,,,,,022,2022-05-18_13h43.08.984,Main,2022.1.1,59.805250190280134,
negative,blue,1,None,k,,,,,0,5,5,5,,,,,,,,,,,,,,,,,,,,,prac,None,None,1,1.4966546000214294,117.34218949999195,None,None,1,,,,,,,,,,,,,,022,2022-05-18_13h43.08.984,Main,2022.1.1,59.805250190280134,
negative,yellow,2,k,None,,,,,0,6,6,6,,,,,,,,,,,,,,,,,,,,,prac,k,k,1,1.234611699997913,119.84250729999621,None,None,0,,,,,,,,,,,,,,022,2022-05-18_13h43.08.984,Main,2022.1.1,59.805250190280134,
negative,red,1,None,None,,,,,0,7,7,7,,,,,,,,,,,,,,,,,,,,,prac,None,None,1,1.4993189000233542,122.07520339998882,None,None,1,,,,,,,,,,,,,,022,2022-05-18_13h43.08.984,Main,2022.1.1,59.805250190280134,
positive,yellow,2,None,k,,,,,0,8,8,8,,,,,,,,,,,,,,,,,,,,,prac,None,None,1,1.4994404999888502,124.57792469998822,None,None,1,,,,,,,,,,,,,,022,2022-05-18_13h43.08.984,Main,2022.1.1,59.805250190280134,
negative,yellow,1,k,None,,,,,0,9,9,9,,,,,,,,,,,,,,,,,,,,,prac,k,k,1,0.9297579000121914,127.07790189998923,None,None,0,,,,,,,,,,,,,,022,2022-05-18_13h43.08.984,Main,2022.1.1,59.805250190280134,
positive,yellow,2,None,k,,,,,0,10,10,10,,,,,,,,,,,,,,,,,,,,,prac,None,None,1,1.5013198000087868,129.00855570001295,None,None,1,,,,,,,,,,,,,,022,2022-05-18_13h43.08.984,Main,2022.1.1,59.805250190280134,
negative,yellow,2,k,None,,,,,0,11,11,11,,,,,,,,,,,,,,,,,,,,,prac,k,k,1,1.0993033000268042,131.51108550000936,None,None,0,,,,,,,,,,,,,,022,2022-05-18_13h43.08.984,Main,2022.1.1,59.805250190280134,
negative,red,2,None,None,,,,,0,12,12,12,,,,,,,,,,,,,,,,,,,,,prac,None,None,1,1.4961183000123128,133.61105639999732,None,None,1,,,,,,,,,,,,,,022,2022-05-18_13h43.08.984,Main,2022.1.1,59.805250190280134,
positive,red,1,None,None,,,,,0,13,13,13,,,,,,,,,,,,,,,,,,,,,prac,None,None,1,1.4999358000059146,136.11085759999696,None,None,1,,,,,,,,,,,,,,022,2022-05-18_13h43.08.984,Main,2022.1.1,59.805250190280134,
positive,blue,2,k,None,,,,,0,14,14,14,,,,,,,,,,,,,,,,,,,,,prac,k,k,1,0.9017650000168942,138.608435800008,None,None,0,,,,,,,,,,,,,,022,2022-05-18_13h43.08.984,Main,2022.1.1,59.805250190280134,
positive,blue,1,k,None,,,,,0,15,15,15,,,,,,,,,,,,,,,,,,,,,prac,k,k,1,1.031368800002383,140.51092279999284,None,None,0,,,,,,,,,,,,,,022,2022-05-18_13h43.08.984,Main,2022.1.1,59.805250190280134,
negative,blue,1,None,k,,,,,0,16,16,16,,,,,,,,,,,,,,,,,,,,,prac,None,None,1,1.496373500005575,142.54421389999334,None,None,1,,,,,,,,,,,,,,022,2022-05-18_13h43.08.984,Main,2022.1.1,59.805250190280134,
positive,blue,2,k,None,,,,,0,17,17,17,,,,,,,,,,,,,,,,,,,,,prac,k,k,1,0.8159509000252001,145.0419896999956,None,None,0,,,,,,,,,,,,,,022,2022-05-18_13h43.08.984,Main,2022.1.1,59.805250190280134,
positive,blue,1,k,None,,,,,0,18,18,18,,,,,,,,,,,,,,,,,,,,,prac,k,k,1,0.8656330999801867,146.8606732999906,None,None,0,,,,,,,,,,,,,,022,2022-05-18_13h43.08.984,Main,2022.1.1,59.805250190280134,
positive,yellow,1,None,k,,,,,0,19,19,19,,,,,,,,,,,,,,,,,,,,,prac,None,None,1,1.5013481999922078,148.72724050001125,None,None,1,,,,,,,,,,,,,,022,2022-05-18_13h43.08.984,Main,2022.1.1,59.805250190280134,
negative,yellow,1,k,None,,,,,1,0,20,0,,,,,,,,,,,,,,,,,,,,,prac,k,k,1,0.7131976000091527,151.2272864000115,None,None,0,,,,,,,,,,,,,,022,2022-05-18_13h43.08.984,Main,2022.1.1,59.805250190280134,
positive,red,2,None,None,,,,,1,1,21,1,,,,,,,,,,,,,,,,,,,,,prac,None,None,1,1.5016625999996904,152.9412425000046,None,None,1,,,,,,,,,,,,,,022,2022-05-18_13h43.08.984,Main,2022.1.1,59.805250190280134,
negative,blue,2,None,k,,,,,1,2,22,2,,,,,,,,,,,,,,,,,,,,,prac,None,k,0,1.0659884000197053,155.44396850001067,None,None,1,,,,,,,,,,,,,,022,2022-05-18_13h43.08.984,Main,2022.1.1,59.805250190280134,
positive,yellow,1,None,k,,,,,1,3,23,3,,,,,,,,,,,,,,,,,,,,,prac,None,None,1,1.5033999999868684,158.52447720000055,None,None,1,,,,,,,,,,,,,,022,2022-05-18_13h43.08.984,Main,2022.1.1,59.805250190280134,
negative,blue,2,None,k,,,,,1,4,24,4,,,,,,,,,,,,,,,,,,,,,prac,None,None,1,1.4985660000238568,161.0271888000134,None,None,1,,,,,,,,,,,,,,022,2022-05-18_13h43.08.984,Main,2022.1.1,59.805250190280134,
negative,blue,1,None,k,,,,,1,5,25,5,,,,,,,,,,,,,,,,,,,,,prac,None,None,1,1.4973753000085708,163.52712829998927,None,None,1,,,,,,,,,,,,,,022,2022-05-18_13h43.08.984,Main,2022.1.1,59.805250190280134,
negative,yellow,2,k,None,,,,,1,6,26,6,,,,,,,,,,,,,,,,,,,,,prac,k,k,1,1.7479592000017874,166.02459929999895,None,None,0,,,,,,,,,,,,,,022,2022-05-18_13h43.08.984,Main,2022.1.1,59.805250190280134,
negative,red,1,None,None,,,,,1,7,27,7,,,,,,,,,,,,,,,,,,,,,prac,None,None,1,1.5019245999865234,169.7769932000083,None,None,1,,,,,,,,,,,,,,022,2022-05-18_13h43.08.984,Main,2022.1.1,59.805250190280134,
positive,yellow,2,None,k,,,,,1,8,28,8,,,,,,,,,,,,,,,,,,,,,prac,None,None,1,1.4967377000139095,172.27697669999907,None,None,1,,,,,,,,,,,,,,022,2022-05-18_13h43.08.984,Main,2022.1.1,59.805250190280134,
negative,yellow,1,k,None,,,,,1,9,29,9,,,,,,,,,,,,,,,,,,,,,prac,k,k,1,0.9830229000071995,174.77414299998782,None,None,0,,,,,,,,,,,,,,022,2022-05-18_13h43.08.984,Main,2022.1.1,59.805250190280134,
positive,yellow,2,None,k,,,,,1,10,30,10,,,,,,,,,,,,,,,,,,,,,prac,None,None,1,1.499131499993382,176.7601539999887,None,None,1,,,,,,,,,,,,,,022,2022-05-18_13h43.08.984,Main,2022.1.1,59.805250190280134,
negative,yellow,2,k,None,,,,,1,11,31,11,,,,,,,,,,,,,,,,,,,,,prac,k,k,1,0.7964147000166122,179.26042179999058,None,None,0,,,,,,,,,,,,,,022,2022-05-18_13h43.08.984,Main,2022.1.1,59.805250190280134,
negative,red,2,None,None,,,,,1,12,32,12,,,,,,,,,,,,,,,,,,,,,prac,None,None,1,1.5013854000135325,181.05733959999634,None,None,1,,,,,,,,,,,,,,022,2022-05-18_13h43.08.984,Main,2022.1.1,59.805250190280134,
positive,red,1,None,None,,,,,1,13,33,13,,,,,,,,,,,,,,,,,,,,,prac,None,None,1,1.4990417000080924,183.56002740000258,None,None,1,,,,,,,,,,,,,,022,2022-05-18_13h43.08.984,Main,2022.1.1,59.805250190280134,
positive,blue,2,k,None,,,,,1,14,34,14,,,,,,,,,,,,,,,,,,,,,prac,k,k,1,0.7474990999908186,186.0598372000095,None,None,0,,,,,,,,,,,,,,022,2022-05-18_13h43.08.984,Main,2022.1.1,59.805250190280134,
positive,blue,1,k,None,,,,,1,15,35,15,,,,,,,,,,,,,,,,,,,,,prac,k,k,1,0.6650484999991022,187.80752679999568,None,None,0,,,,,,,,,,,,,,022,2022-05-18_13h43.08.984,Main,2022.1.1,59.805250190280134,
negative,blue,1,None,k,,,,,1,16,36,16,,,,,,,,,,,,,,,,,,,,,prac,None,None,1,1.5019169000152033,189.47380430001067,None,None,1,,,,,,,,,,,,,,022,2022-05-18_13h43.08.984,Main,2022.1.1,59.805250190280134,
positive,blue,2,k,None,,,,,1,17,37,17,,,,,,,,,,,,,,,,,,,,,prac,k,k,1,0.7158238999836612,191.9765796000138,None,None,0,,,,,,,,,,,,,,022,2022-05-18_13h43.08.984,Main,2022.1.1,59.805250190280134,
positive,blue,1,k,None,,,,,1,18,38,18,,,,,,,,,,,,,,,,,,,,,prac,k,k,1,0.6142660999903455,193.6931487999973,None,None,0,,,,,,,,,,,,,,022,2022-05-18_13h43.08.984,Main,2022.1.1,59.805250190280134,
positive,yellow,1,None,k,,,,,1,19,39,19,,,,,,,,,,,,,,,,,,,,,prac,None,None,1,1.498677299998235,195.30965820001438,None,None,1,,,,,,,,,,,,,,022,2022-05-18_13h43.08.984,Main,2022.1.1,59.805250190280134,
,,,,,,,,,,,,,,,,,,,,,,,,,,,,,,,,,,,,,,,,,,197.80757110001286,None,197.80757110001286,None,0.05,-0.08148148,0,0,0,0.013230740005383268,None,,,022,2022-05-18_13h43.08.984,Main,2022.1.1,59.805250190280134,
negative,yellow,2,k,None,,,,,,,,,0,0,0,0,,,,,,,,,,,,,198.89294049999444,None,198.89294049999444,None,main,k,k,1,0.9326632999873254,200.9156374000013,None,None,0,,,,,,,,,,,,,,022,2022-05-18_13h43.08.984,Main,2022.1.1,59.805250190280134,
positive,red,1,None,None,,,,,,,,,0,1,1,1,,,,,,,,,,,,,,,,,main,None,None,1,1.501212500006659,202.85689729999285,None,None,1,,,,,,,,,,,,,,022,2022-05-18_13h43.08.984,Main,2022.1.1,59.805250190280134,
positive,blue,2,k,None,,,,,,,,,0,2,2,2,,,,,,,,,,,,,,,,,main,k,k,1,0.6826502999756485,205.3599846000143,None,None,0,,,,,,,,,,,,,,022,2022-05-18_13h43.08.984,Main,2022.1.1,59.805250190280134,
positive,blue,1,k,None,,,,,,,,,0,3,3,3,,,,,,,,,,,,,,,,,main,k,k,1,0.6522365999990143,207.04288600001018,None,None,0,,,,,,,,,,,,,,022,2022-05-18_13h43.08.984,Main,2022.1.1,59.805250190280134,
negative,yellow,2,k,None,,,,,,,,,0,4,4,4,,,,,,,,,,,,,,,,,main,k,k,1,0.6768328000034671,208.69969239999773,None,None,0,,,,,,,,,,,,,,022,2022-05-18_13h43.08.984,Main,2022.1.1,59.805250190280134,
positive,yellow,2,None,k,,,,,,,,,0,5,5,5,,,,,,,,,,,,,,,,,main,None,None,1,1.5016151000163518,210.37338130001444,None,None,1,,,,,,,,,,,,,,022,2022-05-18_13h43.08.984,Main,2022.1.1,59.805250190280134,
negative,blue,2,None,k,,,,,,,,,0,6,6,6,,,,,,,,,,,,,,,,,main,None,None,1,1.4974804999947082,212.8760503999947,None,None,1,,,,,,,,,,,,,,022,2022-05-18_13h43.08.984,Main,2022.1.1,59.805250190280134,
positive,red,2,None,None,,,,,,,,,0,7,7,7,,,,,,,,,,,,,,,,,main,None,None,1,1.5004626000009011,215.37345700000878,None,None,1,,,,,,,,,,,,,,022,2022-05-18_13h43.08.984,Main,2022.1.1,59.805250190280134,
positive,yellow,1,None,k,,,,,,,,,0,8,8,8,,,,,,,,,,,,,,,,,main,None,None,1,1.4987880999979097,217.87619280000217,None,None,1,,,,,,,,,,,,,,022,2022-05-18_13h43.08.984,Main,2022.1.1,59.805250190280134,
negative,red,1,None,None,,,,,,,,,0,9,9,9,,,,,,,,,,,,,,,,,main,None,None,1,1.5022438000014517,220.37593830001424,None,None,1,,,,,,,,,,,,,,022,2022-05-18_13h43.08.984,Main,2022.1.1,59.805250190280134,
positive,yellow,1,None,k,,,,,,,,,0,10,10,10,,,,,,,,,,,,,,,,,main,None,None,1,1.4958304000028875,222.87737160001416,None,None,1,,,,,,,,,,,,,,022,2022-05-18_13h43.08.984,Main,2022.1.1,59.805250190280134,
negative,yellow,1,k,None,,,,,,,,,0,11,11,11,,,,,,,,,,,,,,,,,main,k,k,1,0.6994116000132635,225.3756635999889,None,None,0,,,,,,,,,,,,,,022,2022-05-18_13h43.08.984,Main,2022.1.1,59.805250190280134,
negative,yellow,1,k,None,,,,,,,,,0,12,12,12,,,,,,,,,,,,,,,,,main,k,k,1,0.7300481999991462,227.073321200005,None,None,0,,,,,,,,,,,,,,022,2022-05-18_13h43.08.984,Main,2022.1.1,59.805250190280134,
negative,red,2,None,None,,,,,,,,,0,13,13,13,,,,,,,,,,,,,,,,,main,None,None,1,1.5011375999893062,228.8064863999898,None,None,1,,,,,,,,,,,,,,022,2022-05-18_13h43.08.984,Main,2022.1.1,59.805250190280134,
positive,yellow,2,None,k,,,,,,,,,0,14,14,14,,,,,,,,,,,,,,,,,main,None,None,1,1.499244800012093,231.3090121000132,None,None,1,,,,,,,,,,,,,,022,2022-05-18_13h43.08.984,Main,2022.1.1,59.805250190280134,
positive,blue,1,k,None,,,,,,,,,0,15,15,15,,,,,,,,,,,,,,,,,main,k,k,1,0.7636449999990873,233.80895539998892,None,None,0,,,,,,,,,,,,,,022,2022-05-18_13h43.08.984,Main,2022.1.1,59.805250190280134,
negative,blue,1,None,k,,,,,,,,,0,16,16,16,,,,,,,,,,,,,,,,,main,None,None,1,1.499605499993777,235.57287860001088,None,None,1,,,,,,,,,,,,,,022,2022-05-18_13h43.08.984,Main,2022.1.1,59.805250190280134,
positive,blue,2,k,None,,,,,,,,,0,17,17,17,,,,,,,,,,,,,,,,,main,k,k,1,0.7672509999829344,238.0728870999883,None,None,0,,,,,,,,,,,,,,022,2022-05-18_13h43.08.984,Main,2022.1.1,59.805250190280134,
negative,blue,2,None,k,,,,,,,,,0,18,18,18,,,,,,,,,,,,,,,,,main,None,None,1,1.4988775000092573,239.84221000000252,None,None,1,,,,,,,,,,,,,,022,2022-05-18_13h43.08.984,Main,2022.1.1,59.805250190280134,
negative,blue,1,None,k,,,,,,,,,0,19,19,19,,,,,,,,,,,,,,,,,main,None,None,1,1.4974311000260059,242.3421621999878,None,None,1,,,,,,,,,,,,,,022,2022-05-18_13h43.08.984,Main,2022.1.1,59.805250190280134,
negative,blue,1,None,k,,,,,,,,,0,20,20,20,,,,,,,,,,,,,,,,,main,None,None,1,1.5006769000028726,244.8393739000021,None,None,1,,,,,,,,,,,,,,022,2022-05-18_13h43.08.984,Main,2022.1.1,59.805250190280134,
negative,blue,2,None,k,,,,,,,,,0,21,21,21,,,,,,,,,,,,,,,,,main,None,None,1,1.4990536000113934,247.34201610001037,None,None,1,,,,,,,,,,,,,,022,2022-05-18_13h43.08.984,Main,2022.1.1,59.805250190280134,
negative,red,1,None,None,,,,,,,,,0,22,22,22,,,,,,,,,,,,,,,,,main,None,None,1,1.4971882999816444,249.83953050000127,None,None,1,,,,,,,,,,,,,,022,2022-05-18_13h43.08.984,Main,2022.1.1,59.805250190280134,
positive,red,2,None,None,,,,,,,,,0,23,23,23,,,,,,,,,,,,,,,,,main,None,None,1,1.500578500010306,252.33944390001125,None,None,1,,,,,,,,,,,,,,022,2022-05-18_13h43.08.984,Main,2022.1.1,59.805250190280134,
negative,red,2,None,None,,,,,,,,,0,24,24,24,,,,,,,,,,,,,,,,,main,None,None,1,1.4991384999884758,254.84190430000308,None,None,1,,,,,,,,,,,,,,022,2022-05-18_13h43.08.984,Main,2022.1.1,59.805250190280134,
positive,blue,2,k,None,,,,,,,,,0,25,25,25,,,,,,,,,,,,,,,,,main,k,k,1,0.7801196000073105,257.3418426999997,None,None,0,,,,,,,,,,,,,,022,2022-05-18_13h43.08.984,Main,2022.1.1,59.805250190280134,
negative,yellow,1,k,None,,,,,,,,,0,26,26,26,,,,,,,,,,,,,,,,,main,k,k,1,0.8351366000133567,259.12235409999266,None,None,0,,,,,,,,,,,,,,022,2022-05-18_13h43.08.984,Main,2022.1.1,59.805250190280134,
positive,blue,2,k,None,,,,,,,,,0,27,27,27,,,,,,,,,,,,,,,,,main,k,k,1,0.7157702000113204,260.9584462000057,None,None,0,,,,,,,,,,,,,,022,2022-05-18_13h43.08.984,Main,2022.1.1,59.805250190280134,
negative,blue,2,None,k,,,,,,,,,0,28,28,28,,,,,,,,,,,,,,,,,main,None,None,1,1.4962201000016648,262.67506519999006,None,None,1,,,,,,,,,,,,,,022,2022-05-18_13h43.08.984,Main,2022.1.1,59.805250190280134,
positive,red,1,None,None,,,,,,,,,0,29,29,29,,,,,,,,,,,,,,,,,main,None,None,1,1.4997979999752715,265.1725291000039,None,None,1,,,,,,,,,,,,,,022,2022-05-18_13h43.08.984,Main,2022.1.1,59.805250190280134,
positive,blue,1,k,None,,,,,,,,,0,30,30,30,,,,,,,,,,,,,,,,,main,k,k,1,0.750927999994019,267.67221170000266,None,None,0,,,,,,,,,,,,,,022,2022-05-18_13h43.08.984,Main,2022.1.1,59.805250190280134,
positive,yellow,1,None,k,,,,,,,,,0,31,31,31,,,,,,,,,,,,,,,,,main,None,None,1,1.498713000008138,269.42492220000713,None,None,1,,,,,,,,,,,,,,022,2022-05-18_13h43.08.984,Main,2022.1.1,59.805250190280134,
negative,yellow,2,k,None,,,,,,,,,0,32,32,32,,,,,,,,,,,,,,,,,main,k,k,1,0.7974930999916978,271.924860500003,None,None,0,,,,,,,,,,,,,,022,2022-05-18_13h43.08.984,Main,2022.1.1,59.805250190280134,
negative,blue,1,None,k,,,,,,,,,0,33,33,33,,,,,,,,,,,,,,,,,main,None,None,1,1.500537899992196,273.7220862999966,None,None,1,,,,,,,,,,,,,,022,2022-05-18_13h43.08.984,Main,2022.1.1,59.805250190280134,
positive,blue,1,k,None,,,,,,,,,0,34,34,34,,,,,,,,,,,,,,,,,main,k,k,1,0.865981599985389,276.22478180000326,None,None,0,,,,,,,,,,,,,,022,2022-05-18_13h43.08.984,Main,2022.1.1,59.805250190280134,
negative,yellow,1,k,None,,,,,,,,,0,35,35,35,,,,,,,,,,,,,,,,,main,k,k,1,0.8835107999911997,278.09144489999744,None,None,0,,,,,,,,,,,,,,022,2022-05-18_13h43.08.984,Main,2022.1.1,59.805250190280134,
positive,yellow,2,None,k,,,,,,,,,0,36,36,36,,,,,,,,,,,,,,,,,main,None,None,1,1.4960160999908112,279.9745866000012,None,None,1,,,,,,,,,,,,,,022,2022-05-18_13h43.08.984,Main,2022.1.1,59.805250190280134,
positive,yellow,2,None,k,,,,,,,,,0,37,37,37,,,,,,,,,,,,,,,,,main,None,None,1,1.500576499995077,282.4718809000042,None,None,1,,,,,,,,,,,,,,022,2022-05-18_13h43.08.984,Main,2022.1.1,59.805250190280134,
negative,yellow,2,k,None,,,,,,,,,0,38,38,38,,,,,,,,,,,,,,,,,main,k,k,1,0.6669347000133712,284.9745898999972,None,None,0,,,,,,,,,,,,,,022,2022-05-18_13h43.08.984,Main,2022.1.1,59.805250190280134,
positive,yellow,1,None,k,,,,,,,,,0,39,39,39,,,,,,,,,,,,,,,,,main,None,None,1,1.498837499995716,286.64124249998713,None,None,1,,,,,,,,,,,,,,022,2022-05-18_13h43.08.984,Main,2022.1.1,59.805250190280134,
negative,yellow,2,k,None,,,,,,,,,0,40,40,40,,,,,,,,,,,,,,,,,main,k,k,1,0.6456359000003431,289.13872350001475,None,None,0,,,,,,,,,,,,,,022,2022-05-18_13h43.08.984,Main,2022.1.1,59.805250190280134,
positive,blue,2,k,None,,,,,,,,,0,41,41,41,,,,,,,,,,,,,,,,,main,k,k,1,0.716141000011703,290.78840079999645,None,None,0,,,,,,,,,,,,,,022,2022-05-18_13h43.08.984,Main,2022.1.1,59.805250190280134,
positive,blue,2,k,None,,,,,,,,,0,42,42,42,,,,,,,,,,,,,,,,,main,k,k,1,0.5992842999985442,292.5050615000073,None,None,0,,,,,,,,,,,,,,022,2022-05-18_13h43.08.984,Main,2022.1.1,59.805250190280134,
negative,blue,2,None,k,,,,,,,,,0,43,43,43,,,,,,,,,,,,,,,,,main,None,None,1,1.498446999990847,294.1077842999948,None,None,1,,,,,,,,,,,,,,022,2022-05-18_13h43.08.984,Main,2022.1.1,59.805250190280134,
negative,red,1,None,None,,,,,,,,,0,44,44,44,,,,,,,,,,,,,,,,,main,None,None,1,1.4986723999900278,296.6052223999868,None,None,1,,,,,,,,,,,,,,022,2022-05-18_13h43.08.984,Main,2022.1.1,59.805250190280134,
negative,yellow,1,k,None,,,,,,,,,0,45,45,45,,,,,,,,,,,,,,,,,main,k,k,1,0.7491680999810342,299.1048914999992,None,None,0,,,,,,,,,,,,,,022,2022-05-18_13h43.08.984,Main,2022.1.1,59.805250190280134,
negative,yellow,1,k,None,,,,,,,,,0,46,46,46,,,,,,,,,,,,,,,,,main,k,k,1,0.6682370000053197,300.8553818000073,None,None,0,,,,,,,,,,,,,,022,2022-05-18_13h43.08.984,Main,2022.1.1,59.805250190280134,
positive,red,1,None,None,,,,,,,,,0,47,47,47,,,,,,,,,,,,,,,,,main,None,None,1,1.4961650999903213,302.5241585999902,None,None,1,,,,,,,,,,,,,,022,2022-05-18_13h43.08.984,Main,2022.1.1,59.805250190280134,
positive,yellow,1,None,k,,,,,,,,,0,48,48,48,,,,,,,,,,,,,,,,,main,None,None,1,1.4997600999777205,305.0240921000077,None,None,1,,,,,,,,,,,,,,022,2022-05-18_13h43.08.984,Main,2022.1.1,59.805250190280134,
negative,blue,1,None,k,,,,,,,,,0,49,49,49,,,,,,,,,,,,,,,,,main,None,None,1,1.5002848999865819,307.52135359999374,None,None,1,,,,,,,,,,,,,,022,2022-05-18_13h43.08.984,Main,2022.1.1,59.805250190280134,
positive,yellow,2,None,k,,,,,,,,,0,50,50,50,,,,,,,,,,,,,,,,,main,None,None,1,1.4992086999991443,310.0240635999944,None,None,1,,,,,,,,,,,,,,022,2022-05-18_13h43.08.984,Main,2022.1.1,59.805250190280134,
negative,blue,1,None,k,,,,,,,,,0,51,51,51,,,,,,,,,,,,,,,,,main,None,None,1,1.4988288000167813,312.524035999988,None,None,1,,,,,,,,,,,,,,022,2022-05-18_13h43.08.984,Main,2022.1.1,59.805250190280134,
positive,red,2,None,None,,,,,,,,,0,52,52,52,,,,,,,,,,,,,,,,,main,None,None,1,1.4973139000067022,315.0219144000148,None,None,1,,,,,,,,,,,,,,022,2022-05-18_13h43.08.984,Main,2022.1.1,59.805250190280134,
positive,yellow,2,None,k,,,,,,,,,0,53,53,53,,,,,,,,,,,,,,,,,main,None,None,1,1.5008075000077952,317.5212004999921,None,None,1,,,,,,,,,,,,,,022,2022-05-18_13h43.08.984,Main,2022.1.1,59.805250190280134,
negative,red,2,None,None,,,,,,,,,0,54,54,54,,,,,,,,,,,,,,,,,main,None,None,1,1.4984454000077676,320.02409839999746,None,None,1,,,,,,,,,,,,,,022,2022-05-18_13h43.08.984,Main,2022.1.1,59.805250190280134,
positive,yellow,1,None,k,,,,,,,,,0,55,55,55,,,,,,,,,,,,,,,,,main,None,None,1,1.499189699999988,322.5210476999928,None,None,1,,,,,,,,,,,,,,022,2022-05-18_13h43.08.984,Main,2022.1.1,59.805250190280134,
negative,blue,2,None,k,,,,,,,,,0,56,56,56,,,,,,,,,,,,,,,,,main,None,None,1,1.4989254999964032,325.0240232000069,None,None,1,,,,,,,,,,,,,,022,2022-05-18_13h43.08.984,Main,2022.1.1,59.805250190280134,
positive,blue,1,k,None,,,,,,,,,0,57,57,57,,,,,,,,,,,,,,,,,main,k,k,1,0.6464832000201568,327.52373049999005,None,None,0,,,,,,,,,,,,,,022,2022-05-18_13h43.08.984,Main,2022.1.1,59.805250190280134,
positive,blue,1,k,None,,,,,,,,,0,58,58,58,,,,,,,,,,,,,,,,,main,k,k,1,0.5852010000089649,329.17093880000175,None,None,0,,,,,,,,,,,,,,022,2022-05-18_13h43.08.984,Main,2022.1.1,59.805250190280134,
negative,yellow,2,k,None,,,,,,,,,0,59,59,59,,,,,,,,,,,,,,,,,main,k,k,1,0.599036800005706,330.75695340000675,None,None,0,,,,,,,,,,,,,,022,2022-05-18_13h43.08.984,Main,2022.1.1,59.805250190280134,
positive,red,2,None,None,,,,,,,,,0,60,60,60,,,,,,,,,,,,,,,,,main,None,None,1,1.4963461000006646,332.3569579999894,None,None,1,,,,,,,,,,,,,,022,2022-05-18_13h43.08.984,Main,2022.1.1,59.805250190280134,
negative,yellow,1,k,None,,,,,,,,,0,61,61,61,,,,,,,,,,,,,,,,,main,k,k,1,1.3158675000013318,334.8544089999923,None,None,0,,,,,,,,,,,,,,022,2022-05-18_13h43.08.984,Main,2022.1.1,59.805250190280134,
negative,red,1,None,None,,,,,,,,,0,62,62,62,,,,,,,,,,,,,,,,,main,None,None,1,1.5018368000164628,337.17090960001224,None,None,1,,,,,,,,,,,,,,022,2022-05-18_13h43.08.984,Main,2022.1.1,59.805250190280134,
negative,blue,1,None,k,,,,,,,,,0,63,63,63,,,,,,,,,,,,,,,,,main,None,None,1,1.498990699998103,339.67343729999266,None,None,1,,,,,,,,,,,,,,022,2022-05-18_13h43.08.984,Main,2022.1.1,59.805250190280134,
positive,blue,2,k,None,,,,,,,,,0,64,64,64,,,,,,,,,,,,,,,,,main,k,k,1,0.6130958999856375,342.1737557000015,None,None,0,,,,,,,,,,,,,,022,2022-05-18_13h43.08.984,Main,2022.1.1,59.805250190280134,
negative,yellow,2,k,None,,,,,,,,,0,65,65,65,,,,,,,,,,,,,,,,,main,k,k,1,1.0185272000089753,343.7873074999952,None,None,0,,,,,,,,,,,,,,022,2022-05-18_13h43.08.984,Main,2022.1.1,59.805250190280134,
positive,yellow,2,None,k,,,,,,,,,0,66,66,66,,,,,,,,,,,,,,,,,main,None,None,1,1.4992828000104055,345.80667310001445,None,None,1,,,,,,,,,,,,,,022,2022-05-18_13h43.08.984,Main,2022.1.1,59.805250190280134,
positive,yellow,2,None,k,,,,,,,,,0,67,67,67,,,,,,,,,,,,,,,,,main,None,None,1,1.4967714000085834,348.306662899995,None,None,1,,,,,,,,,,,,,,022,2022-05-18_13h43.08.984,Main,2022.1.1,59.805250190280134,
positive,red,1,None,None,,,,,,,,,0,68,68,68,,,,,,,,,,,,,,,,,main,None,None,1,1.5005533999938052,350.80382480000844,None,None,1,,,,,,,,,,,,,,022,2022-05-18_13h43.08.984,Main,2022.1.1,59.805250190280134,
positive,yellow,1,None,k,,,,,,,,,0,69,69,69,,,,,,,,,,,,,,,,,main,None,None,1,1.4993463999999221,353.30654859999777,None,None,1,,,,,,,,,,,,,,022,2022-05-18_13h43.08.984,Main,2022.1.1,59.805250190280134,
negative,yellow,2,k,None,,,,,,,,,0,70,70,70,,,,,,,,,,,,,,,,,main,k,k,1,0.7467806000204291,355.80398719999357,None,None,0,,,,,,,,,,,,,,022,2022-05-18_13h43.08.984,Main,2022.1.1,59.805250190280134,
positive,yellow,1,None,k,,,,,,,,,0,71,71,71,,,,,,,,,,,,,,,,,main,None,None,1,1.4992060999793466,357.5538934000069,None,None,1,,,,,,,,,,,,,,022,2022-05-18_13h43.08.984,Main,2022.1.1,59.805250190280134,
negative,blue,1,None,k,,,,,,,,,0,72,72,72,,,,,,,,,,,,,,,,,main,None,None,1,1.4984764000109863,360.0538770999992,None,None,1,,,,,,,,,,,,,,022,2022-05-18_13h43.08.984,Main,2022.1.1,59.805250190280134,
negative,red,2,None,None,,,,,,,,,0,73,73,73,,,,,,,,,,,,,,,,,main,None,None,1,1.499725200003013,362.55623379998724,None,None,1,,,,,,,,,,,,,,022,2022-05-18_13h43.08.984,Main,2022.1.1,59.805250190280134,
positive,blue,2,k,None,,,,,,,,,0,74,74,74,,,,,,,,,,,,,,,,,main,k,k,1,0.9486795000266284,365.0535816999909,None,None,0,,,,,,,,,,,,,,022,2022-05-18_13h43.08.984,Main,2022.1.1,59.805250190280134,
negative,blue,2,None,k,,,,,,,,,0,75,75,75,,,,,,,,,,,,,,,,,main,None,None,1,1.5008823999960441,367.0063239999872,None,None,1,,,,,,,,,,,,,,022,2022-05-18_13h43.08.984,Main,2022.1.1,59.805250190280134,
negative,blue,2,None,k,,,,,,,,,0,76,76,76,,,,,,,,,,,,,,,,,main,None,None,1,1.4968596999824513,369.5037200000079,None,None,1,,,,,,,,,,,,,,022,2022-05-18_13h43.08.984,Main,2022.1.1,59.805250190280134,
negative,yellow,1,k,None,,,,,,,,,0,77,77,77,,,,,,,,,,,,,,,,,main,k,k,1,0.815692800009856,372.0059395999997,None,None,0,,,,,,,,,,,,,,022,2022-05-18_13h43.08.984,Main,2022.1.1,59.805250190280134,
positive,blue,1,k,None,,,,,,,,,0,78,78,78,,,,,,,,,,,,,,,,,main,k,k,1,1.4011222000117414,373.82025879999856,None,None,0,,,,,,,,,,,,,,022,2022-05-18_13h43.08.984,Main,2022.1.1,59.805250190280134,
positive,blue,1,k,None,,,,,,,,,0,79,79,79,,,,,,,,,,,,,,,,,main,k,k,1,0.6298756999894977,376.22268169999006,None,None,0,,,,,,,,,,,,,,022,2022-05-18_13h43.08.984,Main,2022.1.1,59.805250190280134,
positive,red,2,None,None,,,,,,,,,0,80,80,80,,,,,,,,,,,,,,,,,main,None,None,1,1.5015777999942657,377.85331030000816,None,None,1,,,,,,,,,,,,,,022,2022-05-18_13h43.08.984,Main,2022.1.1,59.805250190280134,
positive,yellow,2,None,k,,,,,,,,,0,81,81,81,,,,,,,,,,,,,,,,,main,None,None,1,1.4965895999921486,380.3561622000125,None,None,1,,,,,,,,,,,,,,022,2022-05-18_13h43.08.984,Main,2022.1.1,59.805250190280134,
positive,blue,1,k,None,,,,,,,,,0,82,82,82,,,,,,,,,,,,,,,,,main,k,k,1,0.7659358000091743,382.85914489999413,None,None,0,,,,,,,,,,,,,,022,2022-05-18_13h43.08.984,Main,2022.1.1,59.805250190280134,
negative,yellow,2,k,None,,,,,,,,,0,83,83,83,,,,,,,,,,,,,,,,,main,k,k,1,0.78218989999732,384.62006650000694,None,None,0,,,,,,,,,,,,,,022,2022-05-18_13h43.08.984,Main,2022.1.1,59.805250190280134,
positive,blue,2,k,None,,,,,,,,,0,84,84,84,,,,,,,,,,,,,,,,,main,k,k,1,0.8353293999971356,386.4033710999938,None,None,0,,,,,,,,,,,,,,022,2022-05-18_13h43.08.984,Main,2022.1.1,59.805250190280134,
positive,yellow,1,None,k,,,,,,,,,0,85,85,85,,,,,,,,,,,,,,,,,main,None,None,1,1.4988257999939378,388.2390844000038,None,None,1,,,,,,,,,,,,,,022,2022-05-18_13h43.08.984,Main,2022.1.1,59.805250190280134,
positive,blue,2,k,None,,,,,,,,,0,86,86,86,,,,,,,,,,,,,,,,,main,k,k,1,0.8473643999896012,390.7392794000043,None,None,0,,,,,,,,,,,,,,022,2022-05-18_13h43.08.984,Main,2022.1.1,59.805250190280134,
positive,blue,1,k,None,,,,,,,,,0,87,87,87,,,,,,,,,,,,,,,,,main,k,k,1,0.7480950999888591,392.5865832999989,None,None,0,,,,,,,,,,,,,,022,2022-05-18_13h43.08.984,Main,2022.1.1,59.805250190280134,
negative,yellow,2,k,None,,,,,,,,,0,88,88,88,,,,,,,,,,,,,,,,,main,k,k,1,0.7990442000154871,394.3364748999884,None,None,0,,,,,,,,,,,,,,022,2022-05-18_13h43.08.984,Main,2022.1.1,59.805250190280134,
negative,blue,2,None,k,,,,,,,,,0,89,89,89,,,,,,,,,,,,,,,,,main,None,None,1,1.5017376999894623,396.1362196000118,None,None,1,,,,,,,,,,,,,,022,2022-05-18_13h43.08.984,Main,2022.1.1,59.805250190280134,
positive,yellow,2,None,k,,,,,,,,,0,90,90,90,,,,,,,,,,,,,,,,,main,None,None,1,1.4967707000032533,398.63892190001206,None,None,1,,,,,,,,,,,,,,022,2022-05-18_13h43.08.984,Main,2022.1.1,59.805250190280134,
negative,yellow,1,k,None,,,,,,,,,0,91,91,91,,,,,,,,,,,,,,,,,main,k,k,1,0.7326601000095252,401.1366747000138,None,None,0,,,,,,,,,,,,,,022,2022-05-18_13h43.08.984,Main,2022.1.1,59.805250190280134,
negative,red,2,None,None,,,,,,,,,0,92,92,92,,,,,,,,,,,,,,,,,main,None,None,1,1.5002285000227857,402.8720955000026,None,None,1,,,,,,,,,,,,,,022,2022-05-18_13h43.08.984,Main,2022.1.1,59.805250190280134,
negative,blue,2,None,k,,,,,,,,,0,93,93,93,,,,,,,,,,,,,,,,,main,None,None,1,1.4998715000110678,405.36941220000153,None,None,1,,,,,,,,,,,,,,022,2022-05-18_13h43.08.984,Main,2022.1.1,59.805250190280134,
negative,blue,1,None,k,,,,,,,,,0,94,94,94,,,,,,,,,,,,,,,,,main,None,None,1,1.4967551000008825,407.8720461000048,None,None,1,,,,,,,,,,,,,,022,2022-05-18_13h43.08.984,Main,2022.1.1,59.805250190280134,
negative,blue,1,None,k,,,,,,,,,0,95,95,95,,,,,,,,,,,,,,,,,main,None,None,1,1.4989784999925178,410.36992160000955,None,None,1,,,,,,,,,,,,,,022,2022-05-18_13h43.08.984,Main,2022.1.1,59.805250190280134,
negative,red,1,None,None,,,,,,,,,0,96,96,96,,,,,,,,,,,,,,,,,main,None,None,1,1.4995943999965675,412.8694317000045,None,None,1,,,,,,,,,,,,,,022,2022-05-18_13h43.08.984,Main,2022.1.1,59.805250190280134,
positive,yellow,1,None,k,,,,,,,,,0,97,97,97,,,,,,,,,,,,,,,,,main,None,None,1,1.5010226999875158,415.3694322000083,None,None,1,,,,,,,,,,,,,,022,2022-05-18_13h43.08.984,Main,2022.1.1,59.805250190280134,
negative,yellow,1,k,None,,,,,,,,,0,98,98,98,,,,,,,,,,,,,,,,,main,k,k,1,1.7133843000046909,417.8717651999905,None,None,0,,,,,,,,,,,,,,022,2022-05-18_13h43.08.984,Main,2022.1.1,59.805250190280134,
positive,red,1,None,None,,,,,,,,,0,99,99,99,,,,,,,,,,,,,,,,,main,None,None,1,1.501245099992957,421.5884365999955,None,None,1,,,,,,,,,,,,,,022,2022-05-18_13h43.08.984,Main,2022.1.1,59.805250190280134,
positive,blue,1,k,None,,,,,,,,,0,100,100,100,,,,,,,,,,,,,,,,,main,k,k,1,0.7858779999951366,424.0883969000133,None,None,0,,,,,,,,,,,,,,022,2022-05-18_13h43.08.984,Main,2022.1.1,59.805250190280134,
negative,yellow,1,k,None,,,,,,,,,0,101,101,101,,,,,,,,,,,,,,,,,main,k,k,1,0.9271578000043519,425.8735855999985,None,None,0,,,,,,,,,,,,,,022,2022-05-18_13h43.08.984,Main,2022.1.1,59.805250190280134,
negative,blue,2,None,k,,,,,,,,,0,102,102,102,,,,,,,,,,,,,,,,,main,None,None,1,1.5012961000029463,427.8022937999922,None,None,1,,,,,,,,,,,,,,022,2022-05-18_13h43.08.984,Main,2022.1.1,59.805250190280134,
negative,yellow,2,k,None,,,,,,,,,0,103,103,103,,,,,,,,,,,,,,,,,main,k,k,1,1.1968963999825064,430.30491609999444,None,None,0,,,,,,,,,,,,,,022,2022-05-18_13h43.08.984,Main,2022.1.1,59.805250190280134,
positive,yellow,2,None,k,,,,,,,,,0,104,104,104,,,,,,,,,,,,,,,,,main,None,None,1,1.4981810000026599,432.50259519999963,None,None,1,,,,,,,,,,,,,,022,2022-05-18_13h43.08.984,Main,2022.1.1,59.805250190280134,
positive,blue,1,k,None,,,,,,,,,0,105,105,105,,,,,,,,,,,,,,,,,main,k,k,1,0.7661872000026051,435.0024626000086,None,None,0,,,,,,,,,,,,,,022,2022-05-18_13h43.08.984,Main,2022.1.1,59.805250190280134,
positive,blue,2,k,None,,,,,,,,,0,106,106,106,,,,,,,,,,,,,,,,,main,k,k,1,0.9343582000001334,436.7714552000107,None,None,0,,,,,,,,,,,,,,022,2022-05-18_13h43.08.984,Main,2022.1.1,59.805250190280134,
negative,blue,1,None,k,,,,,,,,,0,107,107,107,,,,,,,,,,,,,,,,,main,None,None,1,1.4967371000093408,438.7047663000121,None,None,1,,,,,,,,,,,,,,022,2022-05-18_13h43.08.984,Main,2022.1.1,59.805250190280134,
positive,yellow,2,None,k,,,,,,,,,0,108,108,108,,,,,,,,,,,,,,,,,main,None,None,1,1.501055400003679,441.2022108999954,None,None,1,,,,,,,,,,,,,,022,2022-05-18_13h43.08.984,Main,2022.1.1,59.805250190280134,
negative,yellow,1,k,None,,,,,,,,,0,109,109,109,,,,,,,,,,,,,,,,,main,k,k,1,0.8307314999983646,443.70210679998854,None,None,0,,,,,,,,,,,,,,022,2022-05-18_13h43.08.984,Main,2022.1.1,59.805250190280134,
negative,blue,2,None,k,,,,,,,,,0,110,110,110,,,,,,,,,,,,,,,,,main,None,None,1,1.499141399981454,445.53579150000587,None,None,1,,,,,,,,,,,,,,022,2022-05-18_13h43.08.984,Main,2022.1.1,59.805250190280134,
positive,blue,2,k,None,,,,,,,,,0,111,111,111,,,,,,,,,,,,,,,,,main,k,k,1,0.6317693000019062,448.0351202999882,None,None,0,,,,,,,,,,,,,,022,2022-05-18_13h43.08.984,Main,2022.1.1,59.805250190280134,
negative,blue,1,None,k,,,,,,,,,0,112,112,112,,,,,,,,,,,,,,,,,main,None,None,1,1.5015729000151623,449.66866019999725,None,None,1,,,,,,,,,,,,,,022,2022-05-18_13h43.08.984,Main,2022.1.1,59.805250190280134,
positive,yellow,1,None,k,,,,,,,,,0,113,113,113,,,,,,,,,,,,,,,,,main,None,None,1,1.496938499971293,452.17134420000366,None,None,1,,,,,,,,,,,,,,022,2022-05-18_13h43.08.984,Main,2022.1.1,59.805250190280134,
negative,red,1,None,None,,,,,,,,,0,114,114,114,,,,,,,,,,,,,,,,,main,None,None,1,1.4982209999870975,454.67104950000066,None,None,1,,,,,,,,,,,,,,022,2022-05-18_13h43.08.984,Main,2022.1.1,59.805250190280134,
positive,red,1,None,None,,,,,,,,,0,115,115,115,,,,,,,,,,,,,,,,,main,None,None,1,1.5015657999902032,457.1685254999902,None,None,1,,,,,,,,,,,,,,022,2022-05-18_13h43.08.984,Main,2022.1.1,59.805250190280134,
negative,red,2,None,None,,,,,,,,,0,116,116,116,,,,,,,,,,,,,,,,,main,None,None,1,1.4991956999874674,459.67098359999363,None,None,1,,,,,,,,,,,,,,022,2022-05-18_13h43.08.984,Main,2022.1.1,59.805250190280134,
negative,yellow,2,k,None,,,,,,,,,0,117,117,117,,,,,,,,,,,,,,,,,main,k,k,1,1.5826568999909796,462.17093389999354,None,None,0,,,,,,,,,,,,,,022,2022-05-18_13h43.08.984,Main,2022.1.1,59.805250190280134,
positive,yellow,1,None,k,,,,,,,,,0,118,118,118,,,,,,,,,,,,,,,,,main,None,None,1,1.4954908000072464,465.75336329999845,None,None,1,,,,,,,,,,,,,,022,2022-05-18_13h43.08.984,Main,2022.1.1,59.805250190280134,
positive,red,2,None,None,,,,,,,,,0,119,119,119,,,,,,,,,,,,,,,,,main,None,None,1,1.501331500010565,468.25145340000745,None,None,1,,,,,,,,,,,,,,022,2022-05-18_13h43.08.984,Main,2022.1.1,59.805250190280134,
positive,blue,2,k,None,,,,,,,,,0,120,120,120,,,,,,,,,,,,,,,,,main,k,k,1,0.8307316999998875,470.7540857999993,None,None,0,,,,,,,,,,,,,,022,2022-05-18_13h43.08.984,Main,2022.1.1,59.805250190280134,
negative,red,1,None,None,,,,,,,,,0,121,121,121,,,,,,,,,,,,,,,,,main,None,None,1,1.4984765999834053,472.5874016000016,None,None,1,,,,,,,,,,,,,,022,2022-05-18_13h43.08.984,Main,2022.1.1,59.805250190280134,
positive,yellow,2,None,k,,,,,,,,,0,122,122,122,,,,,,,,,,,,,,,,,main,None,None,1,1.502735499991104,475.08479530000477,None,None,1,,,,,,,,,,,,,,022,2022-05-18_13h43.08.984,Main,2022.1.1,59.805250190280134,
negative,red,2,None,None,,,,,,,,,0,123,123,123,,,,,,,,,,,,,,,,,main,None,None,1,1.4975193999998737,477.5872924000141,None,None,1,,,,,,,,,,,,,,022,2022-05-18_13h43.08.984,Main,2022.1.1,59.805250190280134,
negative,yellow,2,k,None,,,,,,,,,0,124,124,124,,,,,,,,,,,,,,,,,main,k,k,1,0.9975294999894686,480.08720639999956,None,None,0,,,,,,,,,,,,,,022,2022-05-18_13h43.08.984,Main,2022.1.1,59.805250190280134,
positive,red,1,None,None,,,,,,,,,0,125,125,125,,,,,,,,,,,,,,,,,main,None,None,1,1.500319099985063,482.08441740000853,None,None,1,,,,,,,,,,,,,,022,2022-05-18_13h43.08.984,Main,2022.1.1,59.805250190280134,
negative,blue,2,None,k,,,,,,,,,0,126,126,126,,,,,,,,,,,,,,,,,main,None,None,1,1.497121300024446,484.58716039999854,None,None,1,,,,,,,,,,,,,,022,2022-05-18_13h43.08.984,Main,2022.1.1,59.805250190280134,
negative,blue,1,None,k,,,,,,,,,0,127,127,127,,,,,,,,,,,,,,,,,main,None,None,1,1.5007892999856267,487.0843792000087,None,None,1,,,,,,,,,,,,,,022,2022-05-18_13h43.08.984,Main,2022.1.1,59.805250190280134,
negative,yellow,1,k,None,,,,,,,,,0,128,128,128,,,,,,,,,,,,,,,,,main,k,k,1,0.8638532000186387,489.58703749999404,None,None,0,,,,,,,,,,,,,,022,2022-05-18_13h43.08.984,Main,2022.1.1,59.805250190280134,
negative,yellow,1,k,None,,,,,,,,,0,129,129,129,,,,,,,,,,,,,,,,,main,k,k,1,0.784385899984045,491.453745900013,None,None,0,,,,,,,,,,,,,,022,2022-05-18_13h43.08.984,Main,2022.1.1,59.805250190280134,
positive,blue,1,k,None,,,,,,,,,0,130,130,130,,,,,,,,,,,,,,,,,main,k,k,1,0.7803800999827217,493.23684600001434,None,None,0,,,,,,,,,,,,,,022,2022-05-18_13h43.08.984,Main,2022.1.1,59.805250190280134,
negative,blue,1,None,k,,,,,,,,,0,131,131,131,,,,,,,,,,,,,,,,,main,None,None,1,1.4992646000173409,495.02021409998997,None,None,1,,,,,,,,,,,,,,022,2022-05-18_13h43.08.984,Main,2022.1.1,59.805250190280134,
negative,blue,2,None,k,,,,,,,,,0,132,132,132,,,,,,,,,,,,,,,,,main,None,None,1,1.5007600000244565,497.5175108000112,None,None,1,,,,,,,,,,,,,,022,2022-05-18_13h43.08.984,Main,2022.1.1,59.805250190280134,
positive,blue,2,k,None,,,,,,,,,0,133,133,133,,,,,,,,,,,,,,,,,main,k,k,1,0.9299502999929246,500.020139500004,None,None,0,,,,,,,,,,,,,,022,2022-05-18_13h43.08.984,Main,2022.1.1,59.805250190280134,
positive,red,2,None,None,,,,,,,,,0,134,134,134,,,,,,,,,,,,,,,,,main,None,None,1,1.5019198000081815,501.9512580000155,None,None,1,,,,,,,,,,,,,,022,2022-05-18_13h43.08.984,Main,2022.1.1,59.805250190280134,
negative,yellow,2,k,None,,,,,,,,,0,135,135,135,,,,,,,,,,,,,,,,,main,k,k,1,0.9153899000084493,504.4531932999962,None,None,0,,,,,,,,,,,,,,022,2022-05-18_13h43.08.984,Main,2022.1.1,59.805250190280134,
positive,yellow,2,None,k,,,,,,,,,0,136,136,136,,,,,,,,,,,,,,,,,main,None,None,1,1.5017052000039257,506.3675285000063,None,None,1,,,,,,,,,,,,,,022,2022-05-18_13h43.08.984,Main,2022.1.1,59.805250190280134,
positive,blue,1,k,None,,,,,,,,,0,137,137,137,,,,,,,,,,,,,,,,,main,k,k,1,0.9772825000109151,508.87074770001345,None,None,0,,,,,,,,,,,,,,022,2022-05-18_13h43.08.984,Main,2022.1.1,59.805250190280134,
positive,yellow,1,None,k,,,,,,,,,0,138,138,138,,,,,,,,,,,,,,,,,main,None,None,1,1.501366299984511,510.851069700002,None,None,1,,,,,,,,,,,,,,022,2022-05-18_13h43.08.984,Main,2022.1.1,59.805250190280134,
positive,yellow,1,None,k,,,,,,,,,0,139,139,139,,,,,,,,,,,,,,,,,main,None,None,1,1.499215899995761,513.3531904999982,None,None,1,,,,,,,,,,,,,,022,2022-05-18_13h43.08.984,Main,2022.1.1,59.805250190280134,
positive,yellow,1,None,k,,,,,,,,,0,140,140,140,,,,,,,,,,,,,,,,,main,None,None,1,1.497399099986069,515.8531612000079,None,None,1,,,,,,,,,,,,,,022,2022-05-18_13h43.08.984,Main,2022.1.1,59.805250190280134,
positive,blue,1,k,None,,,,,,,,,0,141,141,141,,,,,,,,,,,,,,,,,main,k,k,1,0.9506939999992028,518.3506508000137,None,None,0,,,,,,,,,,,,,,022,2022-05-18_13h43.08.984,Main,2022.1.1,59.805250190280134,
positive,blue,2,k,None,,,,,,,,,0,142,142,142,,,,,,,,,,,,,,,,,main,k,k,1,0.7992463000118732,520.3030533000128,None,None,0,,,,,,,,,,,,,,022,2022-05-18_13h43.08.984,Main,2022.1.1,59.805250190280134,
positive,yellow,2,None,k,,,,,,,,,0,143,143,143,,,,,,,,,,,,,,,,,main,None,None,1,1.4970621000102255,522.103311999992,None,None,1,,,,,,,,,,,,,,022,2022-05-18_13h43.08.984,Main,2022.1.1,59.805250190280134,
negative,yellow,2,k,None,,,,,,,,,0,144,144,144,,,,,,,,,,,,,,,,,main,k,k,1,0.7673603000002913,524.6005743000132,None,None,0,,,,,,,,,,,,,,022,2022-05-18_13h43.08.984,Main,2022.1.1,59.805250190280134,
negative,blue,2,None,k,,,,,,,,,0,145,145,145,,,,,,,,,,,,,,,,,main,None,None,1,1.4970614000048954,526.369580300001,None,None,1,,,,,,,,,,,,,,022,2022-05-18_13h43.08.984,Main,2022.1.1,59.805250190280134,
negative,red,1,None,None,,,,,,,,,0,146,146,146,,,,,,,,,,,,,,,,,main,None,None,1,1.4986832000140566,528.867009300011,None,None,1,,,,,,,,,,,,,,022,2022-05-18_13h43.08.984,Main,2022.1.1,59.805250190280134,
positive,blue,1,k,None,,,,,,,,,0,147,147,147,,,,,,,,,,,,,,,,,main,k,k,1,0.6842663999996148,531.3668002999912,None,None,0,,,,,,,,,,,,,,022,2022-05-18_13h43.08.984,Main,2022.1.1,59.805250190280134,
positive,yellow,1,None,k,,,,,,,,,0,148,148,148,,,,,,,,,,,,,,,,,main,None,None,1,1.4969357999798376,533.0528421000054,None,None,1,,,,,,,,,,,,,,022,2022-05-18_13h43.08.984,Main,2022.1.1,59.805250190280134,
negative,red,2,None,None,,,,,,,,,0,149,149,149,,,,,,,,,,,,,,,,,main,None,None,1,1.497939100023359,535.5502856000094,None,None,1,,,,,,,,,,,,,,022,2022-05-18_13h43.08.984,Main,2022.1.1,59.805250190280134,
negative,blue,1,None,k,,,,,,,,,0,150,150,150,,,,,,,,,,,,,,,,,main,None,None,1,1.4993880000256468,538.050446600013,None,None,1,,,,,,,,,,,,,,022,2022-05-18_13h43.08.984,Main,2022.1.1,59.805250190280134,
negative,yellow,2,k,None,,,,,,,,,0,151,151,151,,,,,,,,,,,,,,,,,main,k,k,1,0.8825987000018358,540.5524775999947,None,None,0,,,,,,,,,,,,,,022,2022-05-18_13h43.08.984,Main,2022.1.1,59.805250190280134,
negative,blue,2,None,k,,,,,,,,,0,152,152,152,,,,,,,,,,,,,,,,,main,None,None,1,1.499028799997177,542.4387633000151,None,None,1,,,,,,,,,,,,,,022,2022-05-18_13h43.08.984,Main,2022.1.1,59.805250190280134,
negative,yellow,1,k,None,,,,,,,,,0,153,153,153,,,,,,,,,,,,,,,,,main,k,k,1,1.117590099980589,544.9331597000128,None,None,0,,,,,,,,,,,,,,022,2022-05-18_13h43.08.984,Main,2022.1.1,59.805250190280134,
negative,blue,1,None,k,,,,,,,,,0,154,154,154,,,,,,,,,,,,,,,,,main,None,None,1,1.4964649000030477,547.0524715000065,None,None,1,,,,,,,,,,,,,,022,2022-05-18_13h43.08.984,Main,2022.1.1,59.805250190280134,
positive,yellow,2,None,k,,,,,,,,,0,155,155,155,,,,,,,,,,,,,,,,,main,None,None,1,1.4992669000057504,549.5499898999988,None,None,1,,,,,,,,,,,,,,022,2022-05-18_13h43.08.984,Main,2022.1.1,59.805250190280134,
positive,red,2,None,None,,,,,,,,,0,156,156,156,,,,,,,,,,,,,,,,,main,None,None,1,1.501339199981885,552.049877100013,None,None,1,,,,,,,,,,,,,,022,2022-05-18_13h43.08.984,Main,2022.1.1,59.805250190280134,
positive,red,1,None,None,,,,,,,,,0,157,157,157,,,,,,,,,,,,,,,,,main,None,None,1,1.497366099996725,554.5502572999976,None,None,1,,,,,,,,,,,,,,022,2022-05-18_13h43.08.984,Main,2022.1.1,59.805250190280134,
positive,blue,2,k,None,,,,,,,,,0,158,158,158,,,,,,,,,,,,,,,,,main,k,k,1,0.9482164999935776,557.0495418999926,None,None,0,,,,,,,,,,,,,,022,2022-05-18_13h43.08.984,Main,2022.1.1,59.805250190280134,
negative,yellow,1,k,None,,,,,,,,,0,159,159,159,,,,,,,,,,,,,,,,,main,k,k,1,0.801720799994655,558.9995663999871,None,None,0,,,,,,,,,,,,,,022,2022-05-18_13h43.08.984,Main,2022.1.1,59.805250190280134,
negative,red,2,None,None,,,,,,,,,0,160,160,160,,,,,,,,,,,,,,,,,main,None,None,1,1.4976245000143535,560.8022043000092,None,None,1,,,,,,,,,,,,,,022,2022-05-18_13h43.08.984,Main,2022.1.1,59.805250190280134,
negative,blue,1,None,k,,,,,,,,,0,161,161,161,,,,,,,,,,,,,,,,,main,None,None,1,1.4997157999896444,563.2994634000061,None,None,1,,,,,,,,,,,,,,022,2022-05-18_13h43.08.984,Main,2022.1.1,59.805250190280134,
negative,blue,1,None,k,,,,,,,,,0,162,162,162,,,,,,,,,,,,,,,,,main,None,None,1,1.4996705999947153,565.8020656000008,None,None,1,,,,,,,,,,,,,,022,2022-05-18_13h43.08.984,Main,2022.1.1,59.805250190280134,
negative,yellow,1,k,None,,,,,,,,,0,163,163,163,,,,,,,,,,,,,,,,,main,k,k,1,0.9464054999989457,568.302259899996,None,None,0,,,,,,,,,,,,,,022,2022-05-18_13h43.08.984,Main,2022.1.1,59.805250190280134,
negative,yellow,1,k,None,,,,,,,,,0,164,164,164,,,,,,,,,,,,,,,,,main,k,k,1,0.7827008999884129,570.249562699988,None,None,0,,,,,,,,,,,,,,022,2022-05-18_13h43.08.984,Main,2022.1.1,59.805250190280134,
positive,yellow,1,None,k,,,,,,,,,0,165,165,165,,,,,,,,,,,,,,,,,main,None,None,1,1.5013118000060786,572.0352881000144,None,None,1,,,,,,,,,,,,,,022,2022-05-18_13h43.08.984,Main,2022.1.1,59.805250190280134,
negative,red,1,None,None,,,,,,,,,0,166,166,166,,,,,,,,,,,,,,,,,main,None,None,1,1.4989457000046968,574.5352286999987,None,None,1,,,,,,,,,,,,,,022,2022-05-18_13h43.08.984,Main,2022.1.1,59.805250190280134,
negative,yellow,2,k,None,,,,,,,,,0,167,167,167,,,,,,,,,,,,,,,,,main,k,k,1,0.8467099999834318,577.0330023000133,None,None,0,,,,,,,,,,,,,,022,2022-05-18_13h43.08.984,Main,2022.1.1,59.805250190280134,
positive,blue,2,k,None,,,,,,,,,0,168,168,168,,,,,,,,,,,,,,,,,main,k,k,1,1.1661626000131946,578.8824002000038,None,None,0,,,,,,,,,,,,,,022,2022-05-18_13h43.08.984,Main,2022.1.1,59.805250190280134,
positive,red,2,None,None,,,,,,,,,0,169,169,169,,,,,,,,,,,,,,,,,main,None,None,1,1.5012311000027694,581.0517829000019,None,None,1,,,,,,,,,,,,,,022,2022-05-18_13h43.08.984,Main,2022.1.1,59.805250190280134,
positive,red,1,None,None,,,,,,,,,0,170,170,170,,,,,,,,,,,,,,,,,main,None,None,1,1.4969987999938894,583.5517728000123,None,None,1,,,,,,,,,,,,,,022,2022-05-18_13h43.08.984,Main,2022.1.1,59.805250190280134,
negative,blue,2,None,k,,,,,,,,,0,171,171,171,,,,,,,,,,,,,,,,,main,None,None,1,1.4993305999960285,586.049230900011,None,None,1,,,,,,,,,,,,,,022,2022-05-18_13h43.08.984,Main,2022.1.1,59.805250190280134,
positive,blue,2,k,None,,,,,,,,,0,172,172,172,,,,,,,,,,,,,,,,,main,k,k,1,0.835418699978618,588.54887649999,None,None,0,,,,,,,,,,,,,,022,2022-05-18_13h43.08.984,Main,2022.1.1,59.805250190280134,
negative,yellow,2,k,None,,,,,,,,,0,173,173,173,,,,,,,,,,,,,,,,,main,k,k,1,0.7316089000087231,590.3849477999902,None,None,0,,,,,,,,,,,,,,022,2022-05-18_13h43.08.984,Main,2022.1.1,59.805250190280134,
positive,yellow,2,None,k,,,,,,,,,0,174,174,174,,,,,,,,,,,,,,,,,main,None,None,1,1.495440900005633,592.1182133000111,None,None,1,,,,,,,,,,,,,,022,2022-05-18_13h43.08.984,Main,2022.1.1,59.805250190280134,
negative,blue,2,None,k,,,,,,,,,0,175,175,175,,,,,,,,,,,,,,,,,main,None,None,1,1.50200209999457,594.6154114000092,None,None,1,,,,,,,,,,,,,,022,2022-05-18_13h43.08.984,Main,2022.1.1,59.805250190280134,
positive,blue,1,k,None,,,,,,,,,0,176,176,176,,,,,,,,,,,,,,,,,main,k,k,1,0.732776200020453,597.1181157999963,None,None,0,,,,,,,,,,,,,,022,2022-05-18_13h43.08.984,Main,2022.1.1,59.805250190280134,
positive,yellow,1,None,k,,,,,,,,,0,177,177,177,,,,,,,,,,,,,,,,,main,None,None,1,1.4985910000104923,598.8514138000028,None,None,1,,,,,,,,,,,,,,022,2022-05-18_13h43.08.984,Main,2022.1.1,59.805250190280134,
positive,blue,1,k,None,,,,,,,,,0,178,178,178,,,,,,,,,,,,,,,,,main,k,k,1,0.8968040999898221,601.3491950999887,None,None,0,,,,,,,,,,,,,,022,2022-05-18_13h43.08.984,Main,2022.1.1,59.805250190280134,
positive,yellow,2,None,k,,,,,,,,,0,179,179,179,,,,,,,,,,,,,,,,,main,None,None,1,1.501504100015154,603.2488682999974,None,None,1,,,,,,,,,,,,,,022,2022-05-18_13h43.08.984,Main,2022.1.1,59.805250190280134,
positive,blue,1,k,None,,,,,,,,,0,180,180,180,,,,,,,,,,,,,,,,,main,k,k,1,0.9801852999953553,605.7514766000095,None,None,0,,,,,,,,,,,,,,022,2022-05-18_13h43.08.984,Main,2022.1.1,59.805250190280134,
negative,red,1,None,None,,,,,,,,,0,181,181,181,,,,,,,,,,,,,,,,,main,None,None,1,1.4981411999906413,607.7322415999952,None,None,1,,,,,,,,,,,,,,022,2022-05-18_13h43.08.984,Main,2022.1.1,59.805250190280134,
negative,blue,1,None,k,,,,,,,,,0,182,182,182,,,,,,,,,,,,,,,,,main,None,None,1,1.4997691000171471,610.2323688000033,None,None,1,,,,,,,,,,,,,,022,2022-05-18_13h43.08.984,Main,2022.1.1,59.805250190280134,
negative,yellow,2,k,None,,,,,,,,,0,183,183,183,,,,,,,,,,,,,,,,,main,k,k,1,0.7842505000007804,612.7317650000041,None,None,0,,,,,,,,,,,,,,022,2022-05-18_13h43.08.984,Main,2022.1.1,59.805250190280134,
positive,yellow,2,None,k,,,,,,,,,0,184,184,184,,,,,,,,,,,,,,,,,main,None,None,1,1.4989021999936085,614.5177699000051,None,None,1,,,,,,,,,,,,,,022,2022-05-18_13h43.08.984,Main,2022.1.1,59.805250190280134,
positive,yellow,1,None,k,,,,,,,,,0,185,185,185,,,,,,,,,,,,,,,,,main,None,None,1,1.4972718000062741,617.0177181999898,None,None,1,,,,,,,,,,,,,,022,2022-05-18_13h43.08.984,Main,2022.1.1,59.805250190280134,
positive,red,2,None,None,,,,,,,,,0,186,186,186,,,,,,,,,,,,,,,,,main,None,None,1,1.500530899997102,619.51496890001,None,None,1,,,,,,,,,,,,,,022,2022-05-18_13h43.08.984,Main,2022.1.1,59.805250190280134,
positive,blue,1,k,None,,,,,,,,,0,187,187,187,,,,,,,,,,,,,,,,,main,k,k,1,0.7829140000103507,622.0175952000136,None,None,0,,,,,,,,,,,,,,022,2022-05-18_13h43.08.984,Main,2022.1.1,59.805250190280134,
negative,yellow,1,k,None,,,,,,,,,0,188,188,188,,,,,,,,,,,,,,,,,main,k,k,1,0.7297452000202611,623.8008947999915,None,None,0,,,,,,,,,,,,,,022,2022-05-18_13h43.08.984,Main,2022.1.1,59.805250190280134,
positive,yellow,2,None,k,,,,,,,,,0,189,189,189,,,,,,,,,,,,,,,,,main,None,None,1,1.5013025999942329,625.5317415999889,None,None,1,,,,,,,,,,,,,,022,2022-05-18_13h43.08.984,Main,2022.1.1,59.805250190280134,
negative,yellow,2,k,None,,,,,,,,,0,190,190,190,,,,,,,,,,,,,,,,,main,k,k,1,0.8494514999911189,628.0341385999927,None,None,0,,,,,,,,,,,,,,022,2022-05-18_13h43.08.984,Main,2022.1.1,59.805250190280134,
negative,yellow,1,k,None,,,,,,,,,0,191,191,191,,,,,,,,,,,,,,,,,main,k,k,1,1.1300931999867316,629.8841337999911,None,None,0,,,,,,,,,,,,,,022,2022-05-18_13h43.08.984,Main,2022.1.1,59.805250190280134,
positive,blue,2,k,None,,,,,,,,,0,192,192,192,,,,,,,,,,,,,,,,,main,k,k,1,0.7826461000076961,632.0149130999926,None,None,0,,,,,,,,,,,,,,022,2022-05-18_13h43.08.984,Main,2022.1.1,59.805250190280134,
positive,yellow,1,None,k,,,,,,,,,0,193,193,193,,,,,,,,,,,,,,,,,main,None,None,1,1.5011156000255141,633.7982508999994,None,None,1,,,,,,,,,,,,,,022,2022-05-18_13h43.08.984,Main,2022.1.1,59.805250190280134,
negative,red,2,None,None,,,,,,,,,0,194,194,194,,,,,,,,,,,,,,,,,main,None,None,1,1.496368899999652,636.3009620000084,None,None,1,,,,,,,,,,,,,,022,2022-05-18_13h43.08.984,Main,2022.1.1,59.805250190280134,
positive,red,1,None,None,,,,,,,,,0,195,195,195,,,,,,,,,,,,,,,,,main,None,None,1,1.501684800023213,638.7978150999988,None,None,1,,,,,,,,,,,,,,022,2022-05-18_13h43.08.984,Main,2022.1.1,59.805250190280134,
negative,blue,1,None,k,,,,,,,,,0,196,196,196,,,,,,,,,,,,,,,,,main,None,None,1,1.4995924999821,641.3005707999982,None,None,1,,,,,,,,,,,,,,022,2022-05-18_13h43.08.984,Main,2022.1.1,59.805250190280134,
positive,blue,2,k,None,,,,,,,,,0,197,197,197,,,,,,,,,,,,,,,,,main,k,k,1,0.7301007999922149,643.8005041000142,None,None,0,,,,,,,,,,,,,,022,2022-05-18_13h43.08.984,Main,2022.1.1,59.805250190280134,
negative,blue,2,None,k,,,,,,,,,0,198,198,198,,,,,,,,,,,,,,,,,main,None,None,1,1.499009900027886,645.5336744000087,None,None,1,,,,,,,,,,,,,,022,2022-05-18_13h43.08.984,Main,2022.1.1,59.805250190280134,
negative,blue,2,None,k,,,,,,,,,0,199,199,199,,,,,,,,,,,,,,,,,main,None,None,1,1.500529099983396,648.0311081999971,None,None,1,,,,,,,,,,,,,,022,2022-05-18_13h43.08.984,Main,2022.1.1,59.805250190280134,
positive,blue,2,k,None,,,,,,,,,0,200,200,200,,,,,,,,,,,,,,,,,main,k,k,1,0.7995566000172403,650.5336889000027,None,None,0,,,,,,,,,,,,,,022,2022-05-18_13h43.08.984,Main,2022.1.1,59.805250190280134,
positive,blue,2,k,None,,,,,,,,,0,201,201,201,,,,,,,,,,,,,,,,,main,k,k,1,0.6965579999960028,652.3336719000072,None,None,0,,,,,,,,,,,,,,022,2022-05-18_13h43.08.984,Main,2022.1.1,59.805250190280134,
negative,yellow,2,k,None,,,,,,,,,0,202,202,202,,,,,,,,,,,,,,,,,main,k,k,1,0.6489843000017572,654.0311325000075,None,None,0,,,,,,,,,,,,,,022,2022-05-18_13h43.08.984,Main,2022.1.1,59.805250190280134,
positive,red,1,None,None,,,,,,,,,0,203,203,203,,,,,,,,,,,,,,,,,main,None,None,1,1.4992436000029556,655.6834844000114,None,None,1,,,,,,,,,,,,,,022,2022-05-18_13h43.08.984,Main,2022.1.1,59.805250190280134,
negative,blue,2,None,k,,,,,,,,,0,204,204,204,,,,,,,,,,,,,,,,,main,None,None,1,1.5013255999947432,658.1811449000088,None,None,1,,,,,,,,,,,,,,022,2022-05-18_13h43.08.984,Main,2022.1.1,59.805250190280134,
negative,red,1,None,None,,,,,,,,,0,205,205,205,,,,,,,,,,,,,,,,,main,None,None,1,1.4966022000007797,660.6836943000089,None,None,1,,,,,,,,,,,,,,022,2022-05-18_13h43.08.984,Main,2022.1.1,59.805250190280134,
negative,blue,2,None,k,,,,,,,,,0,206,206,206,,,,,,,,,,,,,,,,,main,None,None,1,1.4988354000088293,663.1833463000075,None,None,1,,,,,,,,,,,,,,022,2022-05-18_13h43.08.984,Main,2022.1.1,59.805250190280134,
negative,yellow,2,k,None,,,,,,,,,0,207,207,207,,,,,,,,,,,,,,,,,main,k,k,1,0.8189313000184484,665.680838500004,None,None,0,,,,,,,,,,,,,,022,2022-05-18_13h43.08.984,Main,2022.1.1,59.805250190280134,
positive,yellow,2,None,k,,,,,,,,,0,208,208,208,,,,,,,,,,,,,,,,,main,None,None,1,1.4986776000005193,667.5002430999884,None,None,1,,,,,,,,,,,,,,022,2022-05-18_13h43.08.984,Main,2022.1.1,59.805250190280134,
negative,yellow,1,k,None,,,,,,,,,0,209,209,209,,,,,,,,,,,,,,,,,main,k,k,1,1.0967758999904618,669.9999378999928,None,None,0,,,,,,,,,,,,,,022,2022-05-18_13h43.08.984,Main,2022.1.1,59.805250190280134,
negative,red,2,None,None,,,,,,,,,0,210,210,210,,,,,,,,,,,,,,,,,main,None,None,1,1.5014889000158291,672.0974565999932,None,None,1,,,,,,,,,,,,,,022,2022-05-18_13h43.08.984,Main,2022.1.1,59.805250190280134,
negative,blue,1,None,k,,,,,,,,,0,211,211,211,,,,,,,,,,,,,,,,,main,None,None,1,1.4964149000006728,674.6002717000083,None,None,1,,,,,,,,,,,,,,022,2022-05-18_13h43.08.984,Main,2022.1.1,59.805250190280134,
negative,yellow,1,k,None,,,,,,,,,0,212,212,212,,,,,,,,,,,,,,,,,main,k,k,1,0.9659082999860402,677.0976396999904,None,None,0,,,,,,,,,,,,,,022,2022-05-18_13h43.08.984,Main,2022.1.1,59.805250190280134,
positive,blue,1,k,None,,,,,,,,,0,213,213,213,,,,,,,,,,,,,,,,,main,k,k,1,0.6990469000011217,679.0636975000089,None,None,0,,,,,,,,,,,,,,022,2022-05-18_13h43.08.984,Main,2022.1.1,59.805250190280134,
positive,blue,1,k,None,,,,,,,,,0,214,214,214,,,,,,,,,,,,,,,,,main,k,k,1,1.3018435999983922,680.7637010999897,None,None,0,,,,,,,,,,,,,,022,2022-05-18_13h43.08.984,Main,2022.1.1,59.805250190280134,
positive,yellow,1,None,k,,,,,,,,,0,215,215,215,,,,,,,,,,,,,,,,,main,None,None,1,1.4984298000053968,683.0663519999944,None,None,1,,,,,,,,,,,,,,022,2022-05-18_13h43.08.984,Main,2022.1.1,59.805250190280134,
positive,yellow,1,None,k,,,,,,,,,0,216,216,216,,,,,,,,,,,,,,,,,main,None,None,1,1.4973194999911357,685.563835900015,None,None,1,,,,,,,,,,,,,,022,2022-05-18_13h43.08.984,Main,2022.1.1,59.805250190280134,
positive,yellow,2,None,k,,,,,,,,,0,217,217,217,,,,,,,,,,,,,,,,,main,None,None,1,1.4988785000168718,688.0634647000115,None,None,1,,,,,,,,,,,,,,022,2022-05-18_13h43.08.984,Main,2022.1.1,59.805250190280134,
negative,blue,1,None,k,,,,,,,,,0,218,218,218,,,,,,,,,,,,,,,,,main,None,None,1,1.50041889998829,690.5634968999948,None,None,1,,,,,,,,,,,,,,022,2022-05-18_13h43.08.984,Main,2022.1.1,59.805250190280134,
positive,red,2,None,None,,,,,,,,,0,219,219,219,,,,,,,,,,,,,,,,,main,None,None,1,1.496557299979031,693.0661410999892,None,None,1,,,,,,,,,,,,,,022,2022-05-18_13h43.08.984,Main,2022.1.1,59.805250190280134,
positive,yellow,1,None,k,,,,,,,,,0,220,220,220,,,,,,,,,,,,,,,,,main,None,None,1,1.4998823000059929,695.5635885999945,None,None,1,,,,,,,,,,,,,,022,2022-05-18_13h43.08.984,Main,2022.1.1,59.805250190280134,
positive,blue,1,k,None,,,,,,,,,0,221,221,221,,,,,,,,,,,,,,,,,main,k,k,1,1.9509949999919627,698.0632609000022,None,None,0,,,,,,,,,,,,,,022,2022-05-18_13h43.08.984,Main,2022.1.1,59.805250190280134,
positive,yellow,2,None,k,,,,,,,,,0,222,222,222,,,,,,,,,,,,,,,,,main,None,None,1,1.501668899989454,702.0161787999969,None,None,1,,,,,,,,,,,,,,022,2022-05-18_13h43.08.984,Main,2022.1.1,59.805250190280134,
negative,yellow,1,k,None,,,,,,,,,0,223,223,223,,,,,,,,,,,,,,,,,main,k,k,1,0.7286960999772418,704.5134084000019,None,None,0,,,,,,,,,,,,,,022,2022-05-18_13h43.08.984,Main,2022.1.1,59.805250190280134,
positive,yellow,2,None,k,,,,,,,,,0,224,224,224,,,,,,,,,,,,,,,,,main,None,None,1,1.501410000026226,706.2467461999913,None,None,1,,,,,,,,,,,,,,022,2022-05-18_13h43.08.984,Main,2022.1.1,59.805250190280134,
negative,yellow,2,k,None,,,,,,,,,0,225,225,225,,,,,,,,,,,,,,,,,main,k,k,1,0.8824116000032518,708.7493170000089,None,None,0,,,,,,,,,,,,,,022,2022-05-18_13h43.08.984,Main,2022.1.1,59.805250190280134,
negative,blue,2,None,k,,,,,,,,,0,226,226,226,,,,,,,,,,,,,,,,,main,None,None,1,1.4969862999860197,710.6324333999946,None,None,1,,,,,,,,,,,,,,022,2022-05-18_13h43.08.984,Main,2022.1.1,59.805250190280134,
positive,red,2,None,None,,,,,,,,,0,227,227,227,,,,,,,,,,,,,,,,,main,None,None,1,1.5008263000054285,713.1296287000005,None,None,1,,,,,,,,,,,,,,022,2022-05-18_13h43.08.984,Main,2022.1.1,59.805250190280134,
positive,blue,2,k,None,,,,,,,,,0,228,228,228,,,,,,,,,,,,,,,,,main,k,k,1,0.9658996999787632,715.6325433999882,None,None,0,,,,,,,,,,,,,,022,2022-05-18_13h43.08.984,Main,2022.1.1,59.805250190280134,
negative,blue,1,None,k,,,,,,,,,0,229,229,229,,,,,,,,,,,,,,,,,main,None,None,1,1.4961724000168033,717.5989523000026,None,None,1,,,,,,,,,,,,,,022,2022-05-18_13h43.08.984,Main,2022.1.1,59.805250190280134,
positive,yellow,1,None,k,,,,,,,,,0,230,230,230,,,,,,,,,,,,,,,,,main,None,None,1,1.5015758000081405,720.0964385000116,None,None,1,,,,,,,,,,,,,,022,2022-05-18_13h43.08.984,Main,2022.1.1,59.805250190280134,
negative,blue,2,None,k,,,,,,,,,0,231,231,231,,,,,,,,,,,,,,,,,main,None,None,1,1.4991472999972757,722.5988604000013,None,None,1,,,,,,,,,,,,,,022,2022-05-18_13h43.08.984,Main,2022.1.1,59.805250190280134,
negative,red,1,None,None,,,,,,,,,0,232,232,232,,,,,,,,,,,,,,,,,main,None,None,1,1.49674750000122,725.0963249999913,None,None,1,,,,,,,,,,,,,,022,2022-05-18_13h43.08.984,Main,2022.1.1,59.805250190280134,
positive,blue,2,k,None,,,,,,,,,0,233,233,233,,,,,,,,,,,,,,,,,main,k,k,1,0.7017940000223462,727.5963751999952,None,None,0,,,,,,,,,,,,,,022,2022-05-18_13h43.08.984,Main,2022.1.1,59.805250190280134,
negative,yellow,1,k,None,,,,,,,,,0,234,234,234,,,,,,,,,,,,,,,,,main,k,k,1,-0.7342240000143647,729.2987045999907,None,None,0,,,,,,,,,,,,,,022,2022-05-18_13h43.08.984,Main,2022.1.1,59.805250190280134,
negative,yellow,2,k,None,,,,,,,,,0,235,235,235,,,,,,,,,,,,,,,,,main,k,k,1,1.0179629000194836,732.5795777000021,None,None,0,,,,,,,,,,,,,,022,2022-05-18_13h43.08.984,Main,2022.1.1,59.805250190280134,
positive,red,1,None,None,,,,,,,,,0,236,236,236,,,,,,,,,,,,,,,,,main,None,None,1,1.5001722000015434,734.5963092999882,None,None,1,,,,,,,,,,,,,,022,2022-05-18_13h43.08.984,Main,2022.1.1,59.805250190280134,
negative,red,2,None,None,,,,,,,,,0,237,237,237,,,,,,,,,,,,,,,,,main,None,None,1,1.496643699996639,737.0985354000004,None,None,1,,,,,,,,,,,,,,022,2022-05-18_13h43.08.984,Main,2022.1.1,59.805250190280134,
negative,blue,1,None,k,,,,,,,,,0,238,238,238,,,,,,,,,,,,,,,,,main,None,None,1,1.5018373999919277,739.596138199995,None,None,1,,,,,,,,,,,,,,022,2022-05-18_13h43.08.984,Main,2022.1.1,59.805250190280134,
positive,blue,1,k,None,,,,,,,,,0,239,239,239,,,,,,,,,,,,,,,,,main,k,k,1,0.7824544000031892,742.0986199000035,None,None,0,,,,,,,,,,,,,,022,2022-05-18_13h43.08.984,Main,2022.1.1,59.805250190280134,
,,,,,,,,,,,,,,,,,,,,,,,,,,,,,,,,,,,,,,,,,,,,,,,,,,,,,743.8817344999989,None,,,,,,
