distractor,target,set,ans1,ans2,rep_loop4.thisRepN,rep_loop4.thisTrialN,rep_loop4.thisN,rep_loop4.thisIndex,st2_prac_loop.thisRepN,st2_prac_loop.thisTrialN,st2_prac_loop.thisN,st2_prac_loop.thisIndex,st2_main_loop.thisRepN,st2_main_loop.thisTrialN,st2_main_loop.thisN,st2_main_loop.thisIndex,image_4.started,image_4.stopped,sound_2.started,sound_2.stopped,key_resp_3.keys,key_resp_3.rt,image_5.started,image_5.stopped,st_prac_back.started,st_prac_back.stopped,st_prac_text.started,st_prac_text.stopped,st_fix_back.started,st_fix_back.stopped,st_fix_2.started,st_fix_2.stopped,main_prac,st_ans,st_res,st_corr,st_rt,st_back.started,st_back.stopped,st2_resp.keys,st2_resp.corr,st_main_back.started,st_main_back.stopped,st_main_text.started,st_main_text.stopped,mouse_4.x,mouse_4.y,mouse_4.leftButton,mouse_4.midButton,mouse_4.rightButton,mouse_4.started,mouse_4.stopped,text_2.started,text_2.stopped,id*,date,expName,psychopyVersion,frameRate,
negative,yellow,1,k,None,,,,,0,0,0,0,,,,,28.697236299980432,None,32.21965128999436,None,space,67.38392669998575,99.63555079995422,None,101.4324348999653,None,101.4324348999653,None,103.43240239995066,None,103.43240239995066,None,prac,None,None,1,1.4937438000342809,105.43367249995936,None,None,1,,,,,,,,,,,,,,023,2022-05-18_17h34.36.365,Main,2022.1.1,60.016156353537184,
positive,red,2,None,None,,,,,0,1,1,1,,,,,,,,,,,,,,,,,,,,,prac,None,None,1,1.4971487000002526,107.93490579997888,None,None,1,,,,,,,,,,,,,,023,2022-05-18_17h34.36.365,Main,2022.1.1,60.016156353537184,
negative,blue,2,None,k,,,,,0,2,2,2,,,,,,,,,,,,,,,,,,,,,prac,k,k,1,0.7341477999580093,110.4321334999986,None,None,0,,,,,,,,,,,,,,023,2022-05-18_17h34.36.365,Main,2022.1.1,60.016156353537184,
positive,yellow,1,None,k,,,,,0,3,3,3,,,,,,,,,,,,,,,,,,,,,prac,k,k,1,0.7491017999709584,112.16813539998839,None,None,0,,,,,,,,,,,,,,023,2022-05-18_17h34.36.365,Main,2022.1.1,60.016156353537184,
negative,blue,2,None,k,,,,,0,4,4,4,,,,,,,,,,,,,,,,,,,,,prac,k,k,1,0.7133106000255793,113.91811899997992,None,None,0,,,,,,,,,,,,,,023,2022-05-18_17h34.36.365,Main,2022.1.1,60.016156353537184,
negative,blue,1,None,k,,,,,0,5,5,5,,,,,,,,,,,,,,,,,,,,,prac,k,k,1,1.0817419000086375,115.62535009998828,None,None,0,,,,,,,,,,,,,,023,2022-05-18_17h34.36.365,Main,2022.1.1,60.016156353537184,
negative,yellow,2,k,None,,,,,0,6,6,6,,,,,,,,,,,,,,,,,,,,,prac,None,None,1,1.5015962999896146,117.7152677999693,None,None,1,,,,,,,,,,,,,,023,2022-05-18_17h34.36.365,Main,2022.1.1,60.016156353537184,
negative,red,1,None,None,,,,,0,7,7,7,,,,,,,,,,,,,,,,,,,,,prac,None,None,1,1.499028599995654,120.21799149998697,None,None,1,,,,,,,,,,,,,,023,2022-05-18_17h34.36.365,Main,2022.1.1,60.016156353537184,
positive,yellow,2,None,k,,,,,0,8,8,8,,,,,,,,,,,,,,,,,,,,,prac,k,k,1,0.8134474999969825,122.71792709996225,None,None,0,,,,,,,,,,,,,,023,2022-05-18_17h34.36.365,Main,2022.1.1,60.016156353537184,
negative,yellow,1,k,None,,,,,0,9,9,9,,,,,,,,,,,,,,,,,,,,,prac,None,None,1,1.4990513999946415,124.53204749996075,None,None,1,,,,,,,,,,,,,,023,2022-05-18_17h34.36.365,Main,2022.1.1,60.016156353537184,
positive,yellow,2,None,k,,,,,0,10,10,10,,,,,,,,,,,,,,,,,,,,,prac,k,k,1,0.7825080000329763,127.03174359997502,None,None,0,,,,,,,,,,,,,,023,2022-05-18_17h34.36.365,Main,2022.1.1,60.016156353537184,
negative,yellow,2,k,None,,,,,0,11,11,11,,,,,,,,,,,,,,,,,,,,,prac,None,None,1,1.5002150000073016,128.81509249994997,None,None,1,,,,,,,,,,,,,,023,2022-05-18_17h34.36.365,Main,2022.1.1,60.016156353537184,
negative,red,2,None,None,,,,,0,12,12,12,,,,,,,,,,,,,,,,,,,,,prac,None,None,1,1.4990094999666326,131.3177225999534,None,None,1,,,,,,,,,,,,,,023,2022-05-18_17h34.36.365,Main,2022.1.1,60.016156353537184,
positive,red,1,None,None,,,,,0,13,13,13,,,,,,,,,,,,,,,,,,,,,prac,None,None,1,1.4973517999751493,133.8176134999958,None,None,1,,,,,,,,,,,,,,023,2022-05-18_17h34.36.365,Main,2022.1.1,60.016156353537184,
positive,blue,2,k,None,,,,,0,14,14,14,,,,,,,,,,,,,,,,,,,,,prac,None,None,1,1.5006258999928832,136.31487129995367,None,None,1,,,,,,,,,,,,,,023,2022-05-18_17h34.36.365,Main,2022.1.1,60.016156353537184,
positive,blue,1,k,None,,,,,0,15,15,15,,,,,,,,,,,,,,,,,,,,,prac,None,None,1,1.4981101999874227,138.81758929998614,None,None,1,,,,,,,,,,,,,,023,2022-05-18_17h34.36.365,Main,2022.1.1,60.016156353537184,
negative,blue,1,None,k,,,,,0,16,16,16,,,,,,,,,,,,,,,,,,,,,prac,k,k,1,1.697444399993401,141.31743419996928,None,None,0,,,,,,,,,,,,,,023,2022-05-18_17h34.36.365,Main,2022.1.1,60.016156353537184,
positive,blue,2,k,None,,,,,0,17,17,17,,,,,,,,,,,,,,,,,,,,,prac,None,None,1,1.503294399997685,145.0147729999735,None,None,1,,,,,,,,,,,,,,023,2022-05-18_17h34.36.365,Main,2022.1.1,60.016156353537184,
positive,blue,1,k,None,,,,,0,18,18,18,,,,,,,,,,,,,,,,,,,,,prac,None,None,1,1.4969428000040352,147.51733239996247,None,None,1,,,,,,,,,,,,,,023,2022-05-18_17h34.36.365,Main,2022.1.1,60.016156353537184,
positive,yellow,1,None,k,,,,,0,19,19,19,,,,,,,,,,,,,,,,,,,,,prac,k,k,1,0.8646839000284672,150.01459129998693,None,None,0,,,,,,,,,,,,,,023,2022-05-18_17h34.36.365,Main,2022.1.1,60.016156353537184,
negative,yellow,1,k,None,,,,,1,0,20,0,,,,,,,,,,,,,,,,,,,,,prac,None,None,1,1.5015360999968834,151.88128139998298,None,None,1,,,,,,,,,,,,,,023,2022-05-18_17h34.36.365,Main,2022.1.1,60.016156353537184,
positive,red,2,None,None,,,,,1,1,21,1,,,,,,,,,,,,,,,,,,,,,prac,None,None,1,1.4965374000021257,154.38395359995775,None,None,1,,,,,,,,,,,,,,023,2022-05-18_17h34.36.365,Main,2022.1.1,60.016156353537184,
negative,blue,2,None,k,,,,,1,2,22,2,,,,,,,,,,,,,,,,,,,,,prac,k,k,1,0.6989226000150666,156.88138499995694,None,None,0,,,,,,,,,,,,,,023,2022-05-18_17h34.36.365,Main,2022.1.1,60.016156353537184,
positive,yellow,1,None,k,,,,,1,3,23,3,,,,,,,,,,,,,,,,,,,,,prac,k,k,1,0.6823906000354327,158.5810865999665,None,None,0,,,,,,,,,,,,,,023,2022-05-18_17h34.36.365,Main,2022.1.1,60.016156353537184,
negative,blue,2,None,k,,,,,1,4,24,4,,,,,,,,,,,,,,,,,,,,,prac,k,k,1,0.7824331000447273,160.2644089999958,None,None,0,,,,,,,,,,,,,,023,2022-05-18_17h34.36.365,Main,2022.1.1,60.016156353537184,
negative,blue,1,None,k,,,,,1,5,25,5,,,,,,,,,,,,,,,,,,,,,prac,k,k,1,0.8017760000075214,162.05044579994865,None,None,0,,,,,,,,,,,,,,023,2022-05-18_17h34.36.365,Main,2022.1.1,60.016156353537184,
negative,yellow,2,k,None,,,,,1,6,26,6,,,,,,,,,,,,,,,,,,,,,prac,None,None,1,1.4986833999864757,163.85041719995206,None,None,1,,,,,,,,,,,,,,023,2022-05-18_17h34.36.365,Main,2022.1.1,60.016156353537184,
negative,red,1,None,None,,,,,1,7,27,7,,,,,,,,,,,,,,,,,,,,,prac,None,None,1,1.4972201000200585,166.3478595999768,None,None,1,,,,,,,,,,,,,,023,2022-05-18_17h34.36.365,Main,2022.1.1,60.016156353537184,
positive,yellow,2,None,k,,,,,1,8,28,8,,,,,,,,,,,,,,,,,,,,,prac,k,k,1,0.7481191999977455,168.84752729994943,None,None,0,,,,,,,,,,,,,,023,2022-05-18_17h34.36.365,Main,2022.1.1,60.016156353537184,
negative,yellow,1,k,None,,,,,1,9,29,9,,,,,,,,,,,,,,,,,,,,,prac,None,None,1,1.5015555000281893,170.59754909999901,None,None,1,,,,,,,,,,,,,,023,2022-05-18_17h34.36.365,Main,2022.1.1,60.016156353537184,
positive,yellow,2,None,k,,,,,1,10,30,10,,,,,,,,,,,,,,,,,,,,,prac,k,k,1,0.5969323000172153,173.10021489998326,None,None,0,,,,,,,,,,,,,,023,2022-05-18_17h34.36.365,Main,2022.1.1,60.016156353537184,
negative,yellow,2,k,None,,,,,1,11,31,11,,,,,,,,,,,,,,,,,,,,,prac,None,None,1,1.5004156999639235,174.69768379995367,None,None,1,,,,,,,,,,,,,,023,2022-05-18_17h34.36.365,Main,2022.1.1,60.016156353537184,
negative,red,2,None,None,,,,,1,12,32,12,,,,,,,,,,,,,,,,,,,,,prac,None,None,1,1.4972089999937452,177.19735159998527,None,None,1,,,,,,,,,,,,,,023,2022-05-18_17h34.36.365,Main,2022.1.1,60.016156353537184,
positive,red,1,None,None,,,,,1,13,33,13,,,,,,,,,,,,,,,,,,,,,prac,None,None,1,1.5017351999995299,179.70030529994983,None,None,1,,,,,,,,,,,,,,023,2022-05-18_17h34.36.365,Main,2022.1.1,60.016156353537184,
positive,blue,2,k,None,,,,,1,14,34,14,,,,,,,,,,,,,,,,,,,,,prac,None,None,1,1.4965977999963798,182.2000093999668,None,None,1,,,,,,,,,,,,,,023,2022-05-18_17h34.36.365,Main,2022.1.1,60.016156353537184,
positive,blue,1,k,None,,,,,1,15,35,15,,,,,,,,,,,,,,,,,,,,,prac,None,None,1,1.5004784999764524,184.69749529997353,None,None,1,,,,,,,,,,,,,,023,2022-05-18_17h34.36.365,Main,2022.1.1,60.016156353537184,
negative,blue,1,None,k,,,,,1,16,36,16,,,,,,,,,,,,,,,,,,,,,prac,k,k,1,0.7329042000346817,187.19713629997568,None,None,0,,,,,,,,,,,,,,023,2022-05-18_17h34.36.365,Main,2022.1.1,60.016156353537184,
positive,blue,2,k,None,,,,,1,17,37,17,,,,,,,,,,,,,,,,,,,,,prac,None,None,1,1.4987783000105992,188.9331825999543,None,None,1,,,,,,,,,,,,,,023,2022-05-18_17h34.36.365,Main,2022.1.1,60.016156353537184,
positive,blue,1,k,None,,,,,1,18,38,18,,,,,,,,,,,,,,,,,,,,,prac,None,None,1,1.497134500008542,191.43315249995794,None,None,1,,,,,,,,,,,,,,023,2022-05-18_17h34.36.365,Main,2022.1.1,60.016156353537184,
positive,yellow,1,None,k,,,,,1,19,39,19,,,,,,,,,,,,,,,,,,,,,prac,k,k,1,0.7677352000027895,193.93039579998003,None,None,0,,,,,,,,,,,,,,023,2022-05-18_17h34.36.365,Main,2022.1.1,60.016156353537184,
,,,,,,,,,,,,,,,,,,,,,,,,,,,,,,,,,,,,,,,,,,195.69976399996085,None,195.69976399996085,None,0.04537037,0.0129629625,0,0,0,0.013943189987912774,None,,,023,2022-05-18_17h34.36.365,Main,2022.1.1,60.016156353537184,
negative,yellow,2,k,None,,,,,,,,,0,0,0,0,,,,,,,,,,,,,197.16637399996398,None,197.16637399996398,None,main,None,None,1,1.4990380999515764,199.20609139994485,None,None,1,,,,,,,,,,,,,,023,2022-05-18_17h34.36.365,Main,2022.1.1,60.016156353537184,
positive,red,1,None,None,,,,,,,,,0,1,1,1,,,,,,,,,,,,,,,,,main,None,None,1,1.4963683999958448,201.7162687999662,None,None,1,,,,,,,,,,,,,,023,2022-05-18_17h34.36.365,Main,2022.1.1,60.016156353537184,
positive,blue,2,k,None,,,,,,,,,0,2,2,2,,,,,,,,,,,,,,,,,main,None,None,1,1.4995874000014737,204.21615769999335,None,None,1,,,,,,,,,,,,,,023,2022-05-18_17h34.36.365,Main,2022.1.1,60.016156353537184,
positive,blue,1,k,None,,,,,,,,,0,3,3,3,,,,,,,,,,,,,,,,,main,None,None,1,1.500441599986516,206.7134041999816,None,None,1,,,,,,,,,,,,,,023,2022-05-18_17h34.36.365,Main,2022.1.1,60.016156353537184,
negative,yellow,2,k,None,,,,,,,,,0,4,4,4,,,,,,,,,,,,,,,,,main,None,None,1,1.4992167000309564,209.21612119994825,None,None,1,,,,,,,,,,,,,,023,2022-05-18_17h34.36.365,Main,2022.1.1,60.016156353537184,
positive,yellow,2,None,k,,,,,,,,,0,5,5,5,,,,,,,,,,,,,,,,,main,k,k,1,0.7140590000199154,211.7160263999831,None,None,0,,,,,,,,,,,,,,023,2022-05-18_17h34.36.365,Main,2022.1.1,60.016156353537184,
negative,blue,2,None,k,,,,,,,,,0,6,6,6,,,,,,,,,,,,,,,,,main,k,k,1,0.764728499983903,213.42993059998844,None,None,0,,,,,,,,,,,,,,023,2022-05-18_17h34.36.365,Main,2022.1.1,60.016156353537184,
positive,red,2,None,None,,,,,,,,,0,7,7,7,,,,,,,,,,,,,,,,,main,None,None,1,1.5015024000313133,215.1965988999582,None,None,1,,,,,,,,,,,,,,023,2022-05-18_17h34.36.365,Main,2022.1.1,60.016156353537184,
positive,yellow,1,None,k,,,,,,,,,0,8,8,8,,,,,,,,,,,,,,,,,main,k,k,1,0.6829569999827072,217.69921929994598,None,None,0,,,,,,,,,,,,,,023,2022-05-18_17h34.36.365,Main,2022.1.1,60.016156353537184,
negative,red,1,None,None,,,,,,,,,0,9,9,9,,,,,,,,,,,,,,,,,main,None,None,1,1.4964870999683626,219.3825793999713,None,None,1,,,,,,,,,,,,,,023,2022-05-18_17h34.36.365,Main,2022.1.1,60.016156353537184,
positive,yellow,1,None,k,,,,,,,,,0,10,10,10,,,,,,,,,,,,,,,,,main,k,k,1,0.6653555000084452,221.8797558999504,None,None,0,,,,,,,,,,,,,,023,2022-05-18_17h34.36.365,Main,2022.1.1,60.016156353537184,
negative,yellow,1,k,None,,,,,,,,,0,11,11,11,,,,,,,,,,,,,,,,,main,None,None,1,1.501122000045143,223.54915059998166,None,None,1,,,,,,,,,,,,,,023,2022-05-18_17h34.36.365,Main,2022.1.1,60.016156353537184,
negative,yellow,1,k,None,,,,,,,,,0,12,12,12,,,,,,,,,,,,,,,,,main,None,None,1,1.4973080000490882,226.04909299995052,None,None,1,,,,,,,,,,,,,,023,2022-05-18_17h34.36.365,Main,2022.1.1,60.016156353537184,
negative,red,2,None,None,,,,,,,,,0,13,13,13,,,,,,,,,,,,,,,,,main,None,None,1,1.4985372999799438,228.5489276999724,None,None,1,,,,,,,,,,,,,,023,2022-05-18_17h34.36.365,Main,2022.1.1,60.016156353537184,
positive,yellow,2,None,k,,,,,,,,,0,14,14,14,,,,,,,,,,,,,,,,,main,k,k,1,0.8012888000230305,231.04623789998004,None,None,0,,,,,,,,,,,,,,023,2022-05-18_17h34.36.365,Main,2022.1.1,60.016156353537184,
positive,blue,1,k,None,,,,,,,,,0,15,15,15,,,,,,,,,,,,,,,,,main,None,None,1,1.4982412000535987,232.84897559997626,None,None,1,,,,,,,,,,,,,,023,2022-05-18_17h34.36.365,Main,2022.1.1,60.016156353537184,
negative,blue,1,None,k,,,,,,,,,0,16,16,16,,,,,,,,,,,,,,,,,main,k,k,1,0.513509799959138,235.34888289996888,None,None,0,,,,,,,,,,,,,,023,2022-05-18_17h34.36.365,Main,2022.1.1,60.016156353537184,
positive,blue,2,k,None,,,,,,,,,0,17,17,17,,,,,,,,,,,,,,,,,main,None,None,1,1.501528299995698,236.86277779994998,None,None,1,,,,,,,,,,,,,,023,2022-05-18_17h34.36.365,Main,2022.1.1,60.016156353537184,
negative,blue,2,None,k,,,,,,,,,0,18,18,18,,,,,,,,,,,,,,,,,main,k,k,1,0.6993534999783151,239.36547879996942,None,None,0,,,,,,,,,,,,,,023,2022-05-18_17h34.36.365,Main,2022.1.1,60.016156353537184,
negative,blue,1,None,k,,,,,,,,,0,19,19,19,,,,,,,,,,,,,,,,,main,k,k,1,0.7466151000116952,241.0654002999654,None,None,0,,,,,,,,,,,,,,023,2022-05-18_17h34.36.365,Main,2022.1.1,60.016156353537184,
negative,blue,1,None,k,,,,,,,,,0,20,20,20,,,,,,,,,,,,,,,,,main,k,k,1,0.7203611000441015,242.81294329999946,None,None,0,,,,,,,,,,,,,,023,2022-05-18_17h34.36.365,Main,2022.1.1,60.016156353537184,
negative,blue,2,None,k,,,,,,,,,0,21,21,21,,,,,,,,,,,,,,,,,main,k,k,1,0.5940757000353187,244.5368363999878,None,None,0,,,,,,,,,,,,,,023,2022-05-18_17h34.36.365,Main,2022.1.1,60.016156353537184,
negative,red,1,None,None,,,,,,,,,0,22,22,22,,,,,,,,,,,,,,,,,main,None,None,1,1.5015707000275142,246.1292492999928,None,None,1,,,,,,,,,,,,,,023,2022-05-18_17h34.36.365,Main,2022.1.1,60.016156353537184,
positive,red,2,None,None,,,,,,,,,0,23,23,23,,,,,,,,,,,,,,,,,main,None,None,1,1.4965036999783479,248.63196609995794,None,None,1,,,,,,,,,,,,,,023,2022-05-18_17h34.36.365,Main,2022.1.1,60.016156353537184,
negative,red,2,None,None,,,,,,,,,0,24,24,24,,,,,,,,,,,,,,,,,main,None,None,1,1.499901300005149,251.13499749999028,None,None,1,,,,,,,,,,,,,,023,2022-05-18_17h34.36.365,Main,2022.1.1,60.016156353537184,
positive,blue,2,k,None,,,,,,,,,0,25,25,25,,,,,,,,,,,,,,,,,main,None,None,1,1.5007294000242837,253.62915079999948,None,None,1,,,,,,,,,,,,,,023,2022-05-18_17h34.36.365,Main,2022.1.1,60.016156353537184,
negative,yellow,1,k,None,,,,,,,,,0,26,26,26,,,,,,,,,,,,,,,,,main,None,None,1,1.4986778000020422,256.1319143999717,None,None,1,,,,,,,,,,,,,,023,2022-05-18_17h34.36.365,Main,2022.1.1,60.016156353537184,
positive,blue,2,k,None,,,,,,,,,0,27,27,27,,,,,,,,,,,,,,,,,main,None,None,1,1.4969226999673992,258.631645699963,None,None,1,,,,,,,,,,,,,,023,2022-05-18_17h34.36.365,Main,2022.1.1,60.016156353537184,
negative,blue,2,None,k,,,,,,,,,0,28,28,28,,,,,,,,,,,,,,,,,main,k,k,1,1.0986264999955893,261.12893379997695,None,None,0,,,,,,,,,,,,,,023,2022-05-18_17h34.36.365,Main,2022.1.1,60.016156353537184,
positive,red,1,None,None,,,,,,,,,0,29,29,29,,,,,,,,,,,,,,,,,main,None,None,1,1.4984737999620847,263.23161529999925,None,None,1,,,,,,,,,,,,,,023,2022-05-18_17h34.36.365,Main,2022.1.1,60.016156353537184,
positive,blue,1,k,None,,,,,,,,,0,30,30,30,,,,,,,,,,,,,,,,,main,None,None,1,1.500172499974724,265.73463949997677,None,None,1,,,,,,,,,,,,,,023,2022-05-18_17h34.36.365,Main,2022.1.1,60.016156353537184,
positive,yellow,1,None,k,,,,,,,,,0,31,31,31,,,,,,,,,,,,,,,,,main,k,k,1,0.7814223000314087,268.22882749995915,None,None,0,,,,,,,,,,,,,,023,2022-05-18_17h34.36.365,Main,2022.1.1,60.016156353537184,
negative,yellow,2,k,None,,,,,,,,,0,32,32,32,,,,,,,,,,,,,,,,,main,None,None,1,1.501030699990224,270.01484139997046,None,None,1,,,,,,,,,,,,,,023,2022-05-18_17h34.36.365,Main,2022.1.1,60.016156353537184,
negative,blue,1,None,k,,,,,,,,,0,33,33,33,,,,,,,,,,,,,,,,,main,k,k,1,0.8179752000141889,272.51232139999047,None,None,0,,,,,,,,,,,,,,023,2022-05-18_17h34.36.365,Main,2022.1.1,60.016156353537184,
positive,blue,1,k,None,,,,,,,,,0,34,34,34,,,,,,,,,,,,,,,,,main,None,None,1,1.4942147000110708,274.33794479997596,None,None,1,,,,,,,,,,,,,,023,2022-05-18_17h34.36.365,Main,2022.1.1,60.016156353537184,
negative,yellow,1,k,None,,,,,,,,,0,35,35,35,,,,,,,,,,,,,,,,,main,None,None,1,1.499480600003153,276.8287683999515,None,None,1,,,,,,,,,,,,,,023,2022-05-18_17h34.36.365,Main,2022.1.1,60.016156353537184,
positive,yellow,2,None,k,,,,,,,,,0,36,36,36,,,,,,,,,,,,,,,,,main,k,k,1,0.7795877999742515,279.3313117999933,None,None,0,,,,,,,,,,,,,,023,2022-05-18_17h34.36.365,Main,2022.1.1,60.016156353537184,
positive,yellow,2,None,k,,,,,,,,,0,37,37,37,,,,,,,,,,,,,,,,,main,k,k,1,0.6868205000064336,281.1121357999509,None,None,0,,,,,,,,,,,,,,023,2022-05-18_17h34.36.365,Main,2022.1.1,60.016156353537184,
negative,yellow,2,k,None,,,,,,,,,0,38,38,38,,,,,,,,,,,,,,,,,main,None,None,1,1.4957441000151448,282.8025136999786,None,None,1,,,,,,,,,,,,,,023,2022-05-18_17h34.36.365,Main,2022.1.1,60.016156353537184,
positive,yellow,1,None,k,,,,,,,,,0,39,39,39,,,,,,,,,,,,,,,,,main,k,k,1,0.6334007999976166,285.29514789994573,None,None,0,,,,,,,,,,,,,,023,2022-05-18_17h34.36.365,Main,2022.1.1,60.016156353537184,
negative,yellow,2,k,None,,,,,,,,,0,40,40,40,,,,,,,,,,,,,,,,,main,None,None,1,1.4960049000219442,286.92880769999465,None,None,1,,,,,,,,,,,,,,023,2022-05-18_17h34.36.365,Main,2022.1.1,60.016156353537184,
positive,blue,2,k,None,,,,,,,,,0,41,41,41,,,,,,,,,,,,,,,,,main,None,None,1,1.4997718000086024,289.43098719994305,None,None,1,,,,,,,,,,,,,,023,2022-05-18_17h34.36.365,Main,2022.1.1,60.016156353537184,
positive,blue,2,k,None,,,,,,,,,0,42,42,42,,,,,,,,,,,,,,,,,main,None,None,1,1.4988247999572195,291.92825269995956,None,None,1,,,,,,,,,,,,,,023,2022-05-18_17h34.36.365,Main,2022.1.1,60.016156353537184,
negative,blue,2,None,k,,,,,,,,,0,43,43,43,,,,,,,,,,,,,,,,,main,k,k,1,0.6840042999829166,294.4283006999758,None,None,0,,,,,,,,,,,,,,023,2022-05-18_17h34.36.365,Main,2022.1.1,60.016156353537184,
negative,red,1,None,None,,,,,,,,,0,44,44,44,,,,,,,,,,,,,,,,,main,None,None,1,1.4987458999967203,296.1142940999707,None,None,1,,,,,,,,,,,,,,023,2022-05-18_17h34.36.365,Main,2022.1.1,60.016156353537184,
negative,yellow,1,k,None,,,,,,,,,0,45,45,45,,,,,,,,,,,,,,,,,main,None,None,1,1.496442100033164,298.61412769998424,None,None,1,,,,,,,,,,,,,,023,2022-05-18_17h34.36.365,Main,2022.1.1,60.016156353537184,
negative,yellow,1,k,None,,,,,,,,,0,46,46,46,,,,,,,,,,,,,,,,,main,None,None,1,1.501809699984733,301.1114351999713,None,None,1,,,,,,,,,,,,,,023,2022-05-18_17h34.36.365,Main,2022.1.1,60.016156353537184,
positive,red,1,None,None,,,,,,,,,0,47,47,47,,,,,,,,,,,,,,,,,main,None,None,1,1.4989901999942958,303.61412999994354,None,None,1,,,,,,,,,,,,,,023,2022-05-18_17h34.36.365,Main,2022.1.1,60.016156353537184,
positive,yellow,1,None,k,,,,,,,,,0,48,48,48,,,,,,,,,,,,,,,,,main,k,k,1,0.9133035000413656,306.1141080999514,None,None,0,,,,,,,,,,,,,,023,2022-05-18_17h34.36.365,Main,2022.1.1,60.016156353537184,
negative,blue,1,None,k,,,,,,,,,0,49,49,49,,,,,,,,,,,,,,,,,main,k,k,1,0.632471099961549,308.0279286999721,None,None,0,,,,,,,,,,,,,,023,2022-05-18_17h34.36.365,Main,2022.1.1,60.016156353537184,
positive,yellow,2,None,k,,,,,,,,,0,50,50,50,,,,,,,,,,,,,,,,,main,k,k,1,0.7161545000271872,309.6613121999544,None,None,0,,,,,,,,,,,,,,023,2022-05-18_17h34.36.365,Main,2022.1.1,60.016156353537184,
negative,blue,1,None,k,,,,,,,,,0,51,51,51,,,,,,,,,,,,,,,,,main,k,k,1,0.6016717000165954,311.37830539996503,None,None,0,,,,,,,,,,,,,,023,2022-05-18_17h34.36.365,Main,2022.1.1,60.016156353537184,
positive,red,2,None,None,,,,,,,,,0,52,52,52,,,,,,,,,,,,,,,,,main,None,None,1,1.4958221999695525,312.980632199964,None,None,1,,,,,,,,,,,,,,023,2022-05-18_17h34.36.365,Main,2022.1.1,60.016156353537184,
positive,yellow,2,None,k,,,,,,,,,0,53,53,53,,,,,,,,,,,,,,,,,main,k,k,1,0.7992684999480844,315.47778929997,None,None,0,,,,,,,,,,,,,,023,2022-05-18_17h34.36.365,Main,2022.1.1,60.016156353537184,
negative,red,2,None,None,,,,,,,,,0,54,54,54,,,,,,,,,,,,,,,,,main,None,None,1,1.5012102000182495,317.2782111999695,None,None,1,,,,,,,,,,,,,,023,2022-05-18_17h34.36.365,Main,2022.1.1,60.016156353537184,
positive,yellow,1,None,k,,,,,,,,,0,55,55,55,,,,,,,,,,,,,,,,,main,k,k,1,0.8140488999779336,319.78048249997664,None,None,0,,,,,,,,,,,,,,023,2022-05-18_17h34.36.365,Main,2022.1.1,60.016156353537184,
negative,blue,2,None,k,,,,,,,,,0,56,56,56,,,,,,,,,,,,,,,,,main,k,k,1,0.6321430000243708,321.59433969995007,None,None,0,,,,,,,,,,,,,,023,2022-05-18_17h34.36.365,Main,2022.1.1,60.016156353537184,
positive,blue,1,k,None,,,,,,,,,0,57,57,57,,,,,,,,,,,,,,,,,main,None,None,1,1.5003202999942005,323.2276995999855,None,None,1,,,,,,,,,,,,,,023,2022-05-18_17h34.36.365,Main,2022.1.1,60.016156353537184,
positive,blue,1,k,None,,,,,,,,,0,58,58,58,,,,,,,,,,,,,,,,,main,None,None,1,1.4989234000095166,325.73036199994385,None,None,1,,,,,,,,,,,,,,023,2022-05-18_17h34.36.365,Main,2022.1.1,60.016156353537184,
negative,yellow,2,k,None,,,,,,,,,0,59,59,59,,,,,,,,,,,,,,,,,main,None,None,1,1.4972389000467956,328.2302226999891,None,None,1,,,,,,,,,,,,,,023,2022-05-18_17h34.36.365,Main,2022.1.1,60.016156353537184,
positive,red,2,None,None,,,,,,,,,0,60,60,60,,,,,,,,,,,,,,,,,main,None,None,1,1.500665899948217,330.72746399999596,None,None,1,,,,,,,,,,,,,,023,2022-05-18_17h34.36.365,Main,2022.1.1,60.016156353537184,
negative,yellow,1,k,None,,,,,,,,,0,61,61,61,,,,,,,,,,,,,,,,,main,None,None,1,1.4988411999656819,333.2302495999611,None,None,1,,,,,,,,,,,,,,023,2022-05-18_17h34.36.365,Main,2022.1.1,60.016156353537184,
negative,red,1,None,None,,,,,,,,,0,62,62,62,,,,,,,,,,,,,,,,,main,None,None,1,1.4972714000032283,335.72765909996815,None,None,1,,,,,,,,,,,,,,023,2022-05-18_17h34.36.365,Main,2022.1.1,60.016156353537184,
negative,blue,1,None,k,,,,,,,,,0,63,63,63,,,,,,,,,,,,,,,,,main,k,k,1,0.9981712000444531,338.2273218999617,None,None,0,,,,,,,,,,,,,,023,2022-05-18_17h34.36.365,Main,2022.1.1,60.016156353537184,
positive,blue,2,k,None,,,,,,,,,0,64,64,64,,,,,,,,,,,,,,,,,main,None,None,1,1.5015265999827534,340.22734549996676,None,None,1,,,,,,,,,,,,,,023,2022-05-18_17h34.36.365,Main,2022.1.1,60.016156353537184,
negative,yellow,2,k,None,,,,,,,,,0,65,65,65,,,,,,,,,,,,,,,,,main,None,None,1,1.4964561000233516,342.7300193999545,None,None,1,,,,,,,,,,,,,,023,2022-05-18_17h34.36.365,Main,2022.1.1,60.016156353537184,
positive,yellow,2,None,k,,,,,,,,,0,66,66,66,,,,,,,,,,,,,,,,,main,k,k,1,0.5833775000064634,345.2297310999711,None,None,0,,,,,,,,,,,,,,023,2022-05-18_17h34.36.365,Main,2022.1.1,60.016156353537184,
positive,yellow,2,None,k,,,,,,,,,0,67,67,67,,,,,,,,,,,,,,,,,main,k,k,1,0.7671885999734513,346.81049059994984,None,None,0,,,,,,,,,,,,,,023,2022-05-18_17h34.36.365,Main,2022.1.1,60.016156353537184,
positive,red,1,None,None,,,,,,,,,0,68,68,68,,,,,,,,,,,,,,,,,main,None,None,1,1.4988138999906369,348.5798845999525,None,None,1,,,,,,,,,,,,,,023,2022-05-18_17h34.36.365,Main,2022.1.1,60.016156353537184,
positive,yellow,1,None,k,,,,,,,,,0,69,69,69,,,,,,,,,,,,,,,,,main,k,k,1,0.9467883000033908,351.07985159999225,None,None,0,,,,,,,,,,,,,,023,2022-05-18_17h34.36.365,Main,2022.1.1,60.016156353537184,
negative,yellow,2,k,None,,,,,,,,,0,70,70,70,,,,,,,,,,,,,,,,,main,None,None,1,1.5011605999898165,353.02967029996216,None,None,1,,,,,,,,,,,,,,023,2022-05-18_17h34.36.365,Main,2022.1.1,60.016156353537184,
positive,yellow,1,None,k,,,,,,,,,0,71,71,71,,,,,,,,,,,,,,,,,main,k,k,1,0.6133345999987796,355.52719329996035,None,None,0,,,,,,,,,,,,,,023,2022-05-18_17h34.36.365,Main,2022.1.1,60.016156353537184,
negative,blue,1,None,k,,,,,,,,,0,72,72,72,,,,,,,,,,,,,,,,,main,k,k,1,1.2326412000111304,357.1438830999541,None,None,0,,,,,,,,,,,,,,023,2022-05-18_17h34.36.365,Main,2022.1.1,60.016156353537184,
negative,red,2,None,None,,,,,,,,,0,73,73,73,,,,,,,,,,,,,,,,,main,None,None,1,1.4994085999787785,359.3771902999724,None,None,1,,,,,,,,,,,,,,023,2022-05-18_17h34.36.365,Main,2022.1.1,60.016156353537184,
positive,blue,2,k,None,,,,,,,,,0,74,74,74,,,,,,,,,,,,,,,,,main,None,None,1,1.5006537000299431,361.8768831999623,None,None,1,,,,,,,,,,,,,,023,2022-05-18_17h34.36.365,Main,2022.1.1,60.016156353537184,
negative,blue,2,None,k,,,,,,,,,0,75,75,75,,,,,,,,,,,,,,,,,main,k,k,1,0.7494103999924846,364.3795206999639,None,None,0,,,,,,,,,,,,,,023,2022-05-18_17h34.36.365,Main,2022.1.1,60.016156353537184,
negative,blue,2,None,k,,,,,,,,,0,76,76,76,,,,,,,,,,,,,,,,,main,k,k,1,0.6637287000194192,366.12951459997566,None,None,0,,,,,,,,,,,,,,023,2022-05-18_17h34.36.365,Main,2022.1.1,60.016156353537184,
negative,yellow,1,k,None,,,,,,,,,0,77,77,77,,,,,,,,,,,,,,,,,main,None,None,1,1.4976547999540344,367.7933782999753,None,None,1,,,,,,,,,,,,,,023,2022-05-18_17h34.36.365,Main,2022.1.1,60.016156353537184,
positive,blue,1,k,None,,,,,,,,,0,78,78,78,,,,,,,,,,,,,,,,,main,None,None,1,1.501773600000888,370.29338199994527,None,None,1,,,,,,,,,,,,,,023,2022-05-18_17h34.36.365,Main,2022.1.1,60.016156353537184,
positive,blue,1,k,None,,,,,,,,,0,79,79,79,,,,,,,,,,,,,,,,,main,None,None,1,1.496614400006365,372.7960676999646,None,None,1,,,,,,,,,,,,,,023,2022-05-18_17h34.36.365,Main,2022.1.1,60.016156353537184,
positive,red,2,None,None,,,,,,,,,0,80,80,80,,,,,,,,,,,,,,,,,main,None,None,1,1.499484499974642,375.2935052999528,None,None,1,,,,,,,,,,,,,,023,2022-05-18_17h34.36.365,Main,2022.1.1,60.016156353537184,
positive,yellow,2,None,k,,,,,,,,,0,81,81,81,,,,,,,,,,,,,,,,,main,k,k,1,0.7814098999951966,377.7932194999885,None,None,0,,,,,,,,,,,,,,023,2022-05-18_17h34.36.365,Main,2022.1.1,60.016156353537184,
positive,blue,1,k,None,,,,,,,,,0,82,82,82,,,,,,,,,,,,,,,,,main,None,None,1,1.501632299972698,379.5765267999959,None,None,1,,,,,,,,,,,,,,023,2022-05-18_17h34.36.365,Main,2022.1.1,60.016156353537184,
negative,yellow,2,k,None,,,,,,,,,0,83,83,83,,,,,,,,,,,,,,,,,main,None,None,1,1.4969538999721408,382.0791984999669,None,None,1,,,,,,,,,,,,,,023,2022-05-18_17h34.36.365,Main,2022.1.1,60.016156353537184,
positive,blue,2,k,None,,,,,,,,,0,84,84,84,,,,,,,,,,,,,,,,,main,None,None,1,1.4986353000276722,384.5764364999486,None,None,1,,,,,,,,,,,,,,023,2022-05-18_17h34.36.365,Main,2022.1.1,60.016156353537184,
positive,yellow,1,None,k,,,,,,,,,0,85,85,85,,,,,,,,,,,,,,,,,main,k,k,1,0.6317764999694191,387.079078699986,None,None,0,,,,,,,,,,,,,,023,2022-05-18_17h34.36.365,Main,2022.1.1,60.016156353537184,
positive,blue,2,k,None,,,,,,,,,0,86,86,86,,,,,,,,,,,,,,,,,main,None,None,1,1.4970018999883905,388.71237999998266,None,None,1,,,,,,,,,,,,,,023,2022-05-18_17h34.36.365,Main,2022.1.1,60.016156353537184,
positive,blue,1,k,None,,,,,,,,,0,87,87,87,,,,,,,,,,,,,,,,,main,None,None,1,1.5005047000013292,391.2095454999944,None,None,1,,,,,,,,,,,,,,023,2022-05-18_17h34.36.365,Main,2022.1.1,60.016156353537184,
negative,yellow,2,k,None,,,,,,,,,0,88,88,88,,,,,,,,,,,,,,,,,main,None,None,1,1.497203900013119,393.7122740999912,None,None,1,,,,,,,,,,,,,,023,2022-05-18_17h34.36.365,Main,2022.1.1,60.016156353537184,
negative,blue,2,None,k,,,,,,,,,0,89,89,89,,,,,,,,,,,,,,,,,main,k,k,1,0.7814593000221066,396.20943979994627,None,None,0,,,,,,,,,,,,,,023,2022-05-18_17h34.36.365,Main,2022.1.1,60.016156353537184,
positive,yellow,2,None,k,,,,,,,,,0,90,90,90,,,,,,,,,,,,,,,,,main,k,k,1,0.7684294999926351,397.9928073999472,None,None,0,,,,,,,,,,,,,,023,2022-05-18_17h34.36.365,Main,2022.1.1,60.016156353537184,
negative,yellow,1,k,None,,,,,,,,,0,91,91,91,,,,,,,,,,,,,,,,,main,None,None,1,1.4988165000104345,399.7621574999648,None,None,1,,,,,,,,,,,,,,023,2022-05-18_17h34.36.365,Main,2022.1.1,60.016156353537184,
negative,red,2,None,None,,,,,,,,,0,92,92,92,,,,,,,,,,,,,,,,,main,None,None,1,1.4973041000193916,402.25952979997965,None,None,1,,,,,,,,,,,,,,023,2022-05-18_17h34.36.365,Main,2022.1.1,60.016156353537184,
negative,blue,2,None,k,,,,,,,,,0,93,93,93,,,,,,,,,,,,,,,,,main,k,k,1,0.7339104000129737,404.75932259997353,None,None,0,,,,,,,,,,,,,,023,2022-05-18_17h34.36.365,Main,2022.1.1,60.016156353537184,
negative,blue,1,None,k,,,,,,,,,0,94,94,94,,,,,,,,,,,,,,,,,main,k,k,1,0.6159682999714278,406.4952866999665,None,None,0,,,,,,,,,,,,,,023,2022-05-18_17h34.36.365,Main,2022.1.1,60.016156353537184,
negative,blue,1,None,k,,,,,,,,,0,95,95,95,,,,,,,,,,,,,,,,,main,k,k,1,0.6477650000015274,408.1119606999564,None,None,0,,,,,,,,,,,,,,023,2022-05-18_17h34.36.365,Main,2022.1.1,60.016156353537184,
negative,red,1,None,None,,,,,,,,,0,96,96,96,,,,,,,,,,,,,,,,,main,None,None,1,1.4999023000127636,409.7591621999745,None,None,1,,,,,,,,,,,,,,023,2022-05-18_17h34.36.365,Main,2022.1.1,60.016156353537184,
positive,yellow,1,None,k,,,,,,,,,0,97,97,97,,,,,,,,,,,,,,,,,main,k,k,1,0.6327282999991439,412.261869799986,None,None,0,,,,,,,,,,,,,,023,2022-05-18_17h34.36.365,Main,2022.1.1,60.016156353537184,
negative,yellow,1,k,None,,,,,,,,,0,98,98,98,,,,,,,,,,,,,,,,,main,None,None,1,1.4967196000507101,413.89518179994775,None,None,1,,,,,,,,,,,,,,023,2022-05-18_17h34.36.365,Main,2022.1.1,60.016156353537184,
positive,red,1,None,None,,,,,,,,,0,99,99,99,,,,,,,,,,,,,,,,,main,None,None,1,1.5008385999826714,416.39240259997314,None,None,1,,,,,,,,,,,,,,023,2022-05-18_17h34.36.365,Main,2022.1.1,60.016156353537184,
positive,blue,1,k,None,,,,,,,,,0,100,100,100,,,,,,,,,,,,,,,,,main,None,None,1,1.4962498000240885,418.89507319999393,None,None,1,,,,,,,,,,,,,,023,2022-05-18_17h34.36.365,Main,2022.1.1,60.016156353537184,
negative,yellow,1,k,None,,,,,,,,,0,101,101,101,,,,,,,,,,,,,,,,,main,None,None,1,1.5018122000037692,421.3922523999936,None,None,1,,,,,,,,,,,,,,023,2022-05-18_17h34.36.365,Main,2022.1.1,60.016156353537184,
negative,blue,2,None,k,,,,,,,,,0,102,102,102,,,,,,,,,,,,,,,,,main,k,k,1,0.7825423000031151,423.89494329999434,None,None,0,,,,,,,,,,,,,,023,2022-05-18_17h34.36.365,Main,2022.1.1,60.016156353537184,
negative,yellow,2,k,None,,,,,,,,,0,103,103,103,,,,,,,,,,,,,,,,,main,None,None,1,1.4970164999831468,425.6782525999588,None,None,1,,,,,,,,,,,,,,023,2022-05-18_17h34.36.365,Main,2022.1.1,60.016156353537184,
positive,yellow,2,None,k,,,,,,,,,0,104,104,104,,,,,,,,,,,,,,,,,main,k,k,1,0.7153452999773435,428.17544939997606,None,None,0,,,,,,,,,,,,,,023,2022-05-18_17h34.36.365,Main,2022.1.1,60.016156353537184,
positive,blue,1,k,None,,,,,,,,,0,105,105,105,,,,,,,,,,,,,,,,,main,None,None,1,1.501062300056219,429.8948300999473,None,None,1,,,,,,,,,,,,,,023,2022-05-18_17h34.36.365,Main,2022.1.1,60.016156353537184,
positive,blue,2,k,None,,,,,,,,,0,106,106,106,,,,,,,,,,,,,,,,,main,None,None,1,1.4972365999710746,432.3947991999448,None,None,1,,,,,,,,,,,,,,023,2022-05-18_17h34.36.365,Main,2022.1.1,60.016156353537184,
negative,blue,1,None,k,,,,,,,,,0,107,107,107,,,,,,,,,,,,,,,,,main,k,k,1,0.6341205000062473,434.89202819997445,None,None,0,,,,,,,,,,,,,,023,2022-05-18_17h34.36.365,Main,2022.1.1,60.016156353537184,
positive,yellow,2,None,k,,,,,,,,,0,108,108,108,,,,,,,,,,,,,,,,,main,k,k,1,0.58398739999393,436.5279649999575,None,None,0,,,,,,,,,,,,,,023,2022-05-18_17h34.36.365,Main,2022.1.1,60.016156353537184,
negative,yellow,1,k,None,,,,,,,,,0,109,109,109,,,,,,,,,,,,,,,,,main,None,None,1,1.4954977000015788,438.1113466999959,None,None,1,,,,,,,,,,,,,,023,2022-05-18_17h34.36.365,Main,2022.1.1,60.016156353537184,
negative,blue,2,None,k,,,,,,,,,0,110,110,110,,,,,,,,,,,,,,,,,main,k,k,1,0.9675755000207573,440.6085498999455,None,None,0,,,,,,,,,,,,,,023,2022-05-18_17h34.36.365,Main,2022.1.1,60.016156353537184,
positive,blue,2,k,None,,,,,,,,,0,111,111,111,,,,,,,,,,,,,,,,,main,None,None,1,1.498893899959512,442.5778586999513,None,None,1,,,,,,,,,,,,,,023,2022-05-18_17h34.36.365,Main,2022.1.1,60.016156353537184,
negative,blue,1,None,k,,,,,,,,,0,112,112,112,,,,,,,,,,,,,,,,,main,k,k,1,0.7682964000268839,445.0753827999579,None,None,0,,,,,,,,,,,,,,023,2022-05-18_17h34.36.365,Main,2022.1.1,60.016156353537184,
positive,yellow,1,None,k,,,,,,,,,0,113,113,113,,,,,,,,,,,,,,,,,main,k,k,1,0.5939553000498563,446.8513309999835,None,None,0,,,,,,,,,,,,,,023,2022-05-18_17h34.36.365,Main,2022.1.1,60.016156353537184,
negative,red,1,None,None,,,,,,,,,0,114,114,114,,,,,,,,,,,,,,,,,main,None,None,1,1.5016081999638118,448.4416877999902,None,None,1,,,,,,,,,,,,,,023,2022-05-18_17h34.36.365,Main,2022.1.1,60.016156353537184,
positive,red,1,None,None,,,,,,,,,0,115,115,115,,,,,,,,,,,,,,,,,main,None,None,1,1.4974980000406504,450.9443712999928,None,None,1,,,,,,,,,,,,,,023,2022-05-18_17h34.36.365,Main,2022.1.1,60.016156353537184,
negative,red,2,None,None,,,,,,,,,0,116,116,116,,,,,,,,,,,,,,,,,main,None,None,1,1.4994702999829315,453.4441610999638,None,None,1,,,,,,,,,,,,,,023,2022-05-18_17h34.36.365,Main,2022.1.1,60.016156353537184,
negative,yellow,2,k,None,,,,,,,,,0,117,117,117,,,,,,,,,,,,,,,,,main,None,None,1,1.4994042000034824,455.94157329999143,None,None,1,,,,,,,,,,,,,,023,2022-05-18_17h34.36.365,Main,2022.1.1,60.016156353537184,
positive,yellow,1,None,k,,,,,,,,,0,118,118,118,,,,,,,,,,,,,,,,,main,k,k,1,0.5826812000013888,458.4442371999612,None,None,0,,,,,,,,,,,,,,023,2022-05-18_17h34.36.365,Main,2022.1.1,60.016156353537184,
positive,red,2,None,None,,,,,,,,,0,119,119,119,,,,,,,,,,,,,,,,,main,None,None,1,1.4962254000129178,460.02755989995785,None,None,1,,,,,,,,,,,,,,023,2022-05-18_17h34.36.365,Main,2022.1.1,60.016156353537184,
positive,blue,2,k,None,,,,,,,,,0,120,120,120,,,,,,,,,,,,,,,,,main,None,None,1,1.499678899999708,462.52500809996855,None,None,1,,,,,,,,,,,,,,023,2022-05-18_17h34.36.365,Main,2022.1.1,60.016156353537184,
negative,red,1,None,None,,,,,,,,,0,121,121,121,,,,,,,,,,,,,,,,,main,None,None,1,1.5006223999662325,465.02467509999406,None,None,1,,,,,,,,,,,,,,023,2022-05-18_17h34.36.365,Main,2022.1.1,60.016156353537184,
positive,yellow,2,None,k,,,,,,,,,0,122,122,122,,,,,,,,,,,,,,,,,main,k,k,1,0.7493911000201479,467.52746319997823,None,None,0,,,,,,,,,,,,,,023,2022-05-18_17h34.36.365,Main,2022.1.1,60.016156353537184,
negative,red,2,None,None,,,,,,,,,0,123,123,123,,,,,,,,,,,,,,,,,main,None,None,1,1.4973960000206716,469.2773708999739,None,None,1,,,,,,,,,,,,,,023,2022-05-18_17h34.36.365,Main,2022.1.1,60.016156353537184,
negative,yellow,2,k,None,,,,,,,,,0,124,124,124,,,,,,,,,,,,,,,,,main,None,None,1,1.4997866000048816,471.7745357999811,None,None,1,,,,,,,,,,,,,,023,2022-05-18_17h34.36.365,Main,2022.1.1,60.016156353537184,
positive,red,1,None,None,,,,,,,,,0,125,125,125,,,,,,,,,,,,,,,,,main,None,None,1,1.498796600033529,474.2772583999904,None,None,1,,,,,,,,,,,,,,023,2022-05-18_17h34.36.365,Main,2022.1.1,60.016156353537184,
negative,blue,2,None,k,,,,,,,,,0,126,126,126,,,,,,,,,,,,,,,,,main,k,k,1,0.8802650999859907,476.77470569999423,None,None,0,,,,,,,,,,,,,,023,2022-05-18_17h34.36.365,Main,2022.1.1,60.016156353537184,
negative,blue,1,None,k,,,,,,,,,0,127,127,127,,,,,,,,,,,,,,,,,main,k,k,1,0.8319394999998622,478.6636904999614,None,None,0,,,,,,,,,,,,,,023,2022-05-18_17h34.36.365,Main,2022.1.1,60.016156353537184,
negative,yellow,1,k,None,,,,,,,,,0,128,128,128,,,,,,,,,,,,,,,,,main,None,None,1,1.5001463000080548,480.49102079996374,None,None,1,,,,,,,,,,,,,,023,2022-05-18_17h34.36.365,Main,2022.1.1,60.016156353537184,
negative,yellow,1,k,None,,,,,,,,,0,129,129,129,,,,,,,,,,,,,,,,,main,None,None,1,1.4989048999850638,482.993751299975,None,None,1,,,,,,,,,,,,,,023,2022-05-18_17h34.36.365,Main,2022.1.1,60.016156353537184,
positive,blue,1,k,None,,,,,,,,,0,130,130,130,,,,,,,,,,,,,,,,,main,None,None,1,1.4966518000001088,485.4912138999789,None,None,1,,,,,,,,,,,,,,023,2022-05-18_17h34.36.365,Main,2022.1.1,60.016156353537184,
negative,blue,1,None,k,,,,,,,,,0,131,131,131,,,,,,,,,,,,,,,,,main,k,k,1,0.7827993000391871,487.99110149999615,None,None,0,,,,,,,,,,,,,,023,2022-05-18_17h34.36.365,Main,2022.1.1,60.016156353537184,
negative,blue,2,None,k,,,,,,,,,0,132,132,132,,,,,,,,,,,,,,,,,main,k,k,1,0.8155332000460476,489.77672989998246,None,None,0,,,,,,,,,,,,,,023,2022-05-18_17h34.36.365,Main,2022.1.1,60.016156353537184,
positive,blue,2,k,None,,,,,,,,,0,133,133,133,,,,,,,,,,,,,,,,,main,None,None,1,1.499429500021506,491.59107799996855,None,None,1,,,,,,,,,,,,,,023,2022-05-18_17h34.36.365,Main,2022.1.1,60.016156353537184,
positive,red,2,None,None,,,,,,,,,0,134,134,134,,,,,,,,,,,,,,,,,main,None,None,1,1.5006186999962665,494.0907795999665,None,None,1,,,,,,,,,,,,,,023,2022-05-18_17h34.36.365,Main,2022.1.1,60.016156353537184,
negative,yellow,2,k,None,,,,,,,,,0,135,135,135,,,,,,,,,,,,,,,,,main,None,None,1,1.4991231000167318,496.5934549999656,None,None,1,,,,,,,,,,,,,,023,2022-05-18_17h34.36.365,Main,2022.1.1,60.016156353537184,
positive,yellow,2,None,k,,,,,,,,,0,136,136,136,,,,,,,,,,,,,,,,,main,k,k,1,0.6475185999879614,499.0933858999633,None,None,0,,,,,,,,,,,,,,023,2022-05-18_17h34.36.365,Main,2022.1.1,60.016156353537184,
positive,blue,1,k,None,,,,,,,,,0,137,137,137,,,,,,,,,,,,,,,,,main,None,None,1,1.4975716000190005,500.74056539998855,None,None,1,,,,,,,,,,,,,,023,2022-05-18_17h34.36.365,Main,2022.1.1,60.016156353537184,
positive,yellow,1,None,k,,,,,,,,,0,138,138,138,,,,,,,,,,,,,,,,,main,k,k,1,-0.6340595000074245,503.2406034999876,None,None,0,,,,,,,,,,,,,,023,2022-05-18_17h34.36.365,Main,2022.1.1,60.016156353537184,
positive,yellow,1,None,k,,,,,,,,,0,139,139,139,,,,,,,,,,,,,,,,,main,k,k,1,0.848796600010246,506.6099223999772,None,None,0,,,,,,,,,,,,,,023,2022-05-18_17h34.36.365,Main,2022.1.1,60.016156353537184,
positive,yellow,1,None,k,,,,,,,,,0,140,140,140,,,,,,,,,,,,,,,,,main,k,k,1,0.5816770000383258,508.4573742999928,None,None,0,,,,,,,,,,,,,,023,2022-05-18_17h34.36.365,Main,2022.1.1,60.016156353537184,
positive,blue,1,k,None,,,,,,,,,0,141,141,141,,,,,,,,,,,,,,,,,main,None,None,1,1.4985644000116736,510.0430214999942,None,None,1,,,,,,,,,,,,,,023,2022-05-18_17h34.36.365,Main,2022.1.1,60.016156353537184,
positive,blue,2,k,None,,,,,,,,,0,142,142,142,,,,,,,,,,,,,,,,,main,None,None,1,1.5017704999772832,512.5404038999695,None,None,1,,,,,,,,,,,,,,023,2022-05-18_17h34.36.365,Main,2022.1.1,60.016156353537184,
positive,yellow,2,None,k,,,,,,,,,0,143,143,143,,,,,,,,,,,,,,,,,main,k,k,1,0.763504600035958,515.0430719999713,None,None,0,,,,,,,,,,,,,,023,2022-05-18_17h34.36.365,Main,2022.1.1,60.016156353537184,
negative,yellow,2,k,None,,,,,,,,,0,144,144,144,,,,,,,,,,,,,,,,,main,None,None,1,1.4984928000485525,516.8071924999822,None,None,1,,,,,,,,,,,,,,023,2022-05-18_17h34.36.365,Main,2022.1.1,60.016156353537184,
negative,blue,2,None,k,,,,,,,,,0,145,145,145,,,,,,,,,,,,,,,,,main,k,k,1,0.6139799000229686,519.3068840999622,None,None,0,,,,,,,,,,,,,,023,2022-05-18_17h34.36.365,Main,2022.1.1,60.016156353537184,
negative,red,1,None,None,,,,,,,,,0,146,146,146,,,,,,,,,,,,,,,,,main,None,None,1,1.50140630005626,520.9235817999579,None,None,1,,,,,,,,,,,,,,023,2022-05-18_17h34.36.365,Main,2022.1.1,60.016156353537184,
positive,blue,1,k,None,,,,,,,,,0,147,147,147,,,,,,,,,,,,,,,,,main,None,None,1,1.4972348000155762,523.4262275999645,None,None,1,,,,,,,,,,,,,,023,2022-05-18_17h34.36.365,Main,2022.1.1,60.016156353537184,
positive,yellow,1,None,k,,,,,,,,,0,148,148,148,,,,,,,,,,,,,,,,,main,k,k,1,0.6980655000079423,525.9233953999938,None,None,0,,,,,,,,,,,,,,023,2022-05-18_17h34.36.365,Main,2022.1.1,60.016156353537184,
negative,red,2,None,None,,,,,,,,,0,149,149,149,,,,,,,,,,,,,,,,,main,None,None,1,1.5015930999652483,527.6234344999539,None,None,1,,,,,,,,,,,,,,023,2022-05-18_17h34.36.365,Main,2022.1.1,60.016156353537184,
negative,blue,1,None,k,,,,,,,,,0,150,150,150,,,,,,,,,,,,,,,,,main,k,k,1,0.7634977000416256,530.1260810999665,None,None,0,,,,,,,,,,,,,,023,2022-05-18_17h34.36.365,Main,2022.1.1,60.016156353537184,
negative,yellow,2,k,None,,,,,,,,,0,151,151,151,,,,,,,,,,,,,,,,,main,None,None,1,1.4993157999706455,531.8925875999848,None,None,1,,,,,,,,,,,,,,023,2022-05-18_17h34.36.365,Main,2022.1.1,60.016156353537184,
negative,blue,2,None,k,,,,,,,,,0,152,152,152,,,,,,,,,,,,,,,,,main,k,k,1,0.6818206000025384,534.3898897999898,None,None,0,,,,,,,,,,,,,,023,2022-05-18_17h34.36.365,Main,2022.1.1,60.016156353537184,
negative,yellow,1,k,None,,,,,,,,,0,153,153,153,,,,,,,,,,,,,,,,,main,None,None,1,1.5013092000153847,536.0761385999504,None,None,1,,,,,,,,,,,,,,023,2022-05-18_17h34.36.365,Main,2022.1.1,60.016156353537184,
negative,blue,1,None,k,,,,,,,,,0,154,154,154,,,,,,,,,,,,,,,,,main,k,k,1,0.7477455000043847,538.5759131999803,None,None,0,,,,,,,,,,,,,,023,2022-05-18_17h34.36.365,Main,2022.1.1,60.016156353537184,
positive,yellow,2,None,k,,,,,,,,,0,155,155,155,,,,,,,,,,,,,,,,,main,k,k,1,0.9648688000161201,540.3233953999588,None,None,0,,,,,,,,,,,,,,023,2022-05-18_17h34.36.365,Main,2022.1.1,60.016156353537184,
positive,red,2,None,None,,,,,,,,,0,156,156,156,,,,,,,,,,,,,,,,,main,None,None,1,1.5004278999986127,542.2897184999892,None,None,1,,,,,,,,,,,,,,023,2022-05-18_17h34.36.365,Main,2022.1.1,60.016156353537184,
positive,red,1,None,None,,,,,,,,,0,157,157,157,,,,,,,,,,,,,,,,,main,None,None,1,1.4990547999623232,544.7924525999697,None,None,1,,,,,,,,,,,,,,023,2022-05-18_17h34.36.365,Main,2022.1.1,60.016156353537184,
positive,blue,2,k,None,,,,,,,,,0,158,158,158,,,,,,,,,,,,,,,,,main,None,None,1,1.4971810999559239,547.292394499993,None,None,1,,,,,,,,,,,,,,023,2022-05-18_17h34.36.365,Main,2022.1.1,60.016156353537184,
negative,yellow,1,k,None,,,,,,,,,0,159,159,159,,,,,,,,,,,,,,,,,main,None,None,1,1.5006258999928832,549.7895826999447,None,None,1,,,,,,,,,,,,,,023,2022-05-18_17h34.36.365,Main,2022.1.1,60.016156353537184,
negative,red,2,None,None,,,,,,,,,0,160,160,160,,,,,,,,,,,,,,,,,main,None,None,1,1.4990625999635085,552.292295399995,None,None,1,,,,,,,,,,,,,,023,2022-05-18_17h34.36.365,Main,2022.1.1,60.016156353537184,
negative,blue,1,None,k,,,,,,,,,0,161,161,161,,,,,,,,,,,,,,,,,main,k,k,1,0.6969787999987602,554.7922329999856,None,None,0,,,,,,,,,,,,,,023,2022-05-18_17h34.36.365,Main,2022.1.1,60.016156353537184,
negative,blue,1,None,k,,,,,,,,,0,162,162,162,,,,,,,,,,,,,,,,,main,k,k,1,0.6489974000141956,556.489717599994,None,None,0,,,,,,,,,,,,,,023,2022-05-18_17h34.36.365,Main,2022.1.1,60.016156353537184,
negative,yellow,1,k,None,,,,,,,,,0,163,163,163,,,,,,,,,,,,,,,,,main,None,None,1,1.4994143000221811,558.1397150999983,None,None,1,,,,,,,,,,,,,,023,2022-05-18_17h34.36.365,Main,2022.1.1,60.016156353537184,
negative,yellow,1,k,None,,,,,,,,,0,164,164,164,,,,,,,,,,,,,,,,,main,None,None,1,1.5005132000078447,560.6393954999512,None,None,1,,,,,,,,,,,,,,023,2022-05-18_17h34.36.365,Main,2022.1.1,60.016156353537184,
positive,yellow,1,None,k,,,,,,,,,0,165,165,165,,,,,,,,,,,,,,,,,main,k,k,1,0.5637477000127546,563.141996899969,None,None,0,,,,,,,,,,,,,,023,2022-05-18_17h34.36.365,Main,2022.1.1,60.016156353537184,
negative,red,1,None,None,,,,,,,,,0,166,166,166,,,,,,,,,,,,,,,,,main,None,None,1,1.4987447999883443,564.708710499981,None,None,1,,,,,,,,,,,,,,023,2022-05-18_17h34.36.365,Main,2022.1.1,60.016156353537184,
negative,yellow,2,k,None,,,,,,,,,0,167,167,167,,,,,,,,,,,,,,,,,main,None,None,1,1.4987770000007004,567.2061846999568,None,None,1,,,,,,,,,,,,,,023,2022-05-18_17h34.36.365,Main,2022.1.1,60.016156353537184,
positive,blue,2,k,None,,,,,,,,,0,168,168,168,,,,,,,,,,,,,,,,,main,None,None,1,1.5015483000315726,569.7059277999797,None,None,1,,,,,,,,,,,,,,023,2022-05-18_17h34.36.365,Main,2022.1.1,60.016156353537184,
positive,red,2,None,None,,,,,,,,,0,169,169,169,,,,,,,,,,,,,,,,,main,None,None,1,1.4987251999555156,572.2085327999666,None,None,1,,,,,,,,,,,,,,023,2022-05-18_17h34.36.365,Main,2022.1.1,60.016156353537184,
positive,red,1,None,None,,,,,,,,,0,170,170,170,,,,,,,,,,,,,,,,,main,None,None,1,1.497366100025829,574.7060052999877,None,None,1,,,,,,,,,,,,,,023,2022-05-18_17h34.36.365,Main,2022.1.1,60.016156353537184,
negative,blue,2,None,k,,,,,,,,,0,171,171,171,,,,,,,,,,,,,,,,,main,k,k,1,0.6481748999794945,577.2057306999923,None,None,0,,,,,,,,,,,,,,023,2022-05-18_17h34.36.365,Main,2022.1.1,60.016156353537184,
positive,blue,2,k,None,,,,,,,,,0,172,172,172,,,,,,,,,,,,,,,,,main,None,None,1,1.5015729000442661,578.8556976999971,None,None,1,,,,,,,,,,,,,,023,2022-05-18_17h34.36.365,Main,2022.1.1,60.016156353537184,
negative,yellow,2,k,None,,,,,,,,,0,173,173,173,,,,,,,,,,,,,,,,,main,None,None,1,1.4990499999839813,581.3583433999447,None,None,1,,,,,,,,,,,,,,023,2022-05-18_17h34.36.365,Main,2022.1.1,60.016156353537184,
positive,yellow,2,None,k,,,,,,,,,0,174,174,174,,,,,,,,,,,,,,,,,main,k,k,1,0.7465493999770842,583.8558131999453,None,None,0,,,,,,,,,,,,,,023,2022-05-18_17h34.36.365,Main,2022.1.1,60.016156353537184,
negative,blue,2,None,k,,,,,,,,,0,175,175,175,,,,,,,,,,,,,,,,,main,k,k,1,0.6021075999597088,585.6054899999872,None,None,0,,,,,,,,,,,,,,023,2022-05-18_17h34.36.365,Main,2022.1.1,60.016156353537184,
positive,blue,1,k,None,,,,,,,,,0,176,176,176,,,,,,,,,,,,,,,,,main,None,None,1,1.4994123000069521,587.2055737999617,None,None,1,,,,,,,,,,,,,,023,2022-05-18_17h34.36.365,Main,2022.1.1,60.016156353537184,
positive,yellow,1,None,k,,,,,,,,,0,177,177,177,,,,,,,,,,,,,,,,,main,k,k,1,0.646635300014168,589.7081648999592,None,None,0,,,,,,,,,,,,,,023,2022-05-18_17h34.36.365,Main,2022.1.1,60.016156353537184,
positive,blue,1,k,None,,,,,,,,,0,178,178,178,,,,,,,,,,,,,,,,,main,None,None,1,1.5003754000063054,591.3553726999671,None,None,1,,,,,,,,,,,,,,023,2022-05-18_17h34.36.365,Main,2022.1.1,60.016156353537184,
positive,yellow,2,None,k,,,,,,,,,0,179,179,179,,,,,,,,,,,,,,,,,main,k,k,1,0.6992607999709435,593.8580717999721,None,None,0,,,,,,,,,,,,,,023,2022-05-18_17h34.36.365,Main,2022.1.1,60.016156353537184,
positive,blue,1,k,None,,,,,,,,,0,180,180,180,,,,,,,,,,,,,,,,,main,None,None,1,1.4986530000460334,595.5580563999829,None,None,1,,,,,,,,,,,,,,023,2022-05-18_17h34.36.365,Main,2022.1.1,60.016156353537184,
negative,red,1,None,None,,,,,,,,,0,181,181,181,,,,,,,,,,,,,,,,,main,None,None,1,1.497423399996478,598.0555092999712,None,None,1,,,,,,,,,,,,,,023,2022-05-18_17h34.36.365,Main,2022.1.1,60.016156353537184,
negative,blue,1,None,k,,,,,,,,,0,182,182,182,,,,,,,,,,,,,,,,,main,k,k,1,0.6480887000216171,600.5551548999501,None,None,0,,,,,,,,,,,,,,023,2022-05-18_17h34.36.365,Main,2022.1.1,60.016156353537184,
negative,yellow,2,k,None,,,,,,,,,0,183,183,183,,,,,,,,,,,,,,,,,main,None,None,1,1.5015267999842763,602.2051873999881,None,None,1,,,,,,,,,,,,,,023,2022-05-18_17h34.36.365,Main,2022.1.1,60.016156353537184,
positive,yellow,2,None,k,,,,,,,,,0,184,184,184,,,,,,,,,,,,,,,,,main,k,k,1,0.7805507000302896,604.7078674999648,None,None,0,,,,,,,,,,,,,,023,2022-05-18_17h34.36.365,Main,2022.1.1,60.016156353537184,
positive,yellow,1,None,k,,,,,,,,,0,185,185,185,,,,,,,,,,,,,,,,,main,k,k,1,0.8492026000167243,606.4911637999467,None,None,0,,,,,,,,,,,,,,023,2022-05-18_17h34.36.365,Main,2022.1.1,60.016156353537184,
positive,red,2,None,None,,,,,,,,,0,186,186,186,,,,,,,,,,,,,,,,,main,None,None,1,1.5003561999765225,608.3383385999477,None,None,1,,,,,,,,,,,,,,023,2022-05-18_17h34.36.365,Main,2022.1.1,60.016156353537184,
positive,blue,1,k,None,,,,,,,,,0,187,187,187,,,,,,,,,,,,,,,,,main,None,None,1,1.4990098999696784,610.8410507999943,None,None,1,,,,,,,,,,,,,,023,2022-05-18_17h34.36.365,Main,2022.1.1,60.016156353537184,
negative,yellow,1,k,None,,,,,,,,,0,188,188,188,,,,,,,,,,,,,,,,,main,None,None,1,1.4972402000566944,613.338539099961,None,None,1,,,,,,,,,,,,,,023,2022-05-18_17h34.36.365,Main,2022.1.1,60.016156353537184,
positive,yellow,2,None,k,,,,,,,,,0,189,189,189,,,,,,,,,,,,,,,,,main,k,k,1,0.6819872999913059,615.8381804999663,None,None,0,,,,,,,,,,,,,,023,2022-05-18_17h34.36.365,Main,2022.1.1,60.016156353537184,
negative,yellow,2,k,None,,,,,,,,,0,190,190,190,,,,,,,,,,,,,,,,,main,None,k,0,0.6025882000103593,617.5218900999753,None,None,1,,,,,,,,,,,,,,023,2022-05-18_17h34.36.365,Main,2022.1.1,60.016156353537184,
negative,yellow,1,k,None,,,,,,,,,0,191,191,191,,,,,,,,,,,,,,,,,main,None,None,1,1.5010837999871,620.1242040999932,None,None,1,,,,,,,,,,,,,,023,2022-05-18_17h34.36.365,Main,2022.1.1,60.016156353537184,
positive,blue,2,k,None,,,,,,,,,0,192,192,192,,,,,,,,,,,,,,,,,main,None,None,1,1.496795800048858,622.6216663999949,None,None,1,,,,,,,,,,,,,,023,2022-05-18_17h34.36.365,Main,2022.1.1,60.016156353537184,
positive,yellow,1,None,k,,,,,,,,,0,193,193,193,,,,,,,,,,,,,,,,,main,k,k,1,0.7175374999642372,625.1212852999452,None,None,0,,,,,,,,,,,,,,023,2022-05-18_17h34.36.365,Main,2022.1.1,60.016156353537184,
negative,red,2,None,None,,,,,,,,,0,194,194,194,,,,,,,,,,,,,,,,,main,None,None,1,1.498909600020852,626.8407041999744,None,None,1,,,,,,,,,,,,,,023,2022-05-18_17h34.36.365,Main,2022.1.1,60.016156353537184,
positive,red,1,None,None,,,,,,,,,0,195,195,195,,,,,,,,,,,,,,,,,main,None,None,1,1.4970706999883987,629.3406813999754,None,None,1,,,,,,,,,,,,,,023,2022-05-18_17h34.36.365,Main,2022.1.1,60.016156353537184,
negative,blue,1,None,k,,,,,,,,,0,196,196,196,,,,,,,,,,,,,,,,,main,k,k,1,0.8985948000336066,631.8378820999642,None,None,0,,,,,,,,,,,,,,023,2022-05-18_17h34.36.365,Main,2022.1.1,60.016156353537184,
positive,blue,2,k,None,,,,,,,,,0,197,197,197,,,,,,,,,,,,,,,,,main,None,None,1,1.5008909999742173,633.7382399999769,None,None,1,,,,,,,,,,,,,,023,2022-05-18_17h34.36.365,Main,2022.1.1,60.016156353537184,
negative,blue,2,None,k,,,,,,,,,0,198,198,198,,,,,,,,,,,,,,,,,main,k,k,1,0.6964492999832146,636.2405458999565,None,None,0,,,,,,,,,,,,,,023,2022-05-18_17h34.36.365,Main,2022.1.1,60.016156353537184,
negative,blue,2,None,k,,,,,,,,,0,199,199,199,,,,,,,,,,,,,,,,,main,k,k,1,0.9487786000245251,637.9377298999461,None,None,0,,,,,,,,,,,,,,023,2022-05-18_17h34.36.365,Main,2022.1.1,60.016156353537184,
positive,blue,2,k,None,,,,,,,,,0,200,200,200,,,,,,,,,,,,,,,,,main,None,None,1,1.5011208999785595,639.888075099967,None,None,1,,,,,,,,,,,,,,023,2022-05-18_17h34.36.365,Main,2022.1.1,60.016156353537184,
positive,blue,2,k,None,,,,,,,,,0,201,201,201,,,,,,,,,,,,,,,,,main,None,None,1,1.496573799988255,642.390360499965,None,None,1,,,,,,,,,,,,,,023,2022-05-18_17h34.36.365,Main,2022.1.1,60.016156353537184,
negative,yellow,2,k,None,,,,,,,,,0,202,202,202,,,,,,,,,,,,,,,,,main,None,None,1,1.4987109000212513,644.8878684999654,None,None,1,,,,,,,,,,,,,,023,2022-05-18_17h34.36.365,Main,2022.1.1,60.016156353537184,
positive,red,1,None,None,,,,,,,,,0,203,203,203,,,,,,,,,,,,,,,,,main,None,None,1,1.5020264000049792,647.3875215999433,None,None,1,,,,,,,,,,,,,,023,2022-05-18_17h34.36.365,Main,2022.1.1,60.016156353537184,
negative,blue,2,None,k,,,,,,,,,0,204,204,204,,,,,,,,,,,,,,,,,main,k,k,1,0.8802015000255778,649.8902501999983,None,None,0,,,,,,,,,,,,,,023,2022-05-18_17h34.36.365,Main,2022.1.1,60.016156353537184,
negative,red,1,None,None,,,,,,,,,0,205,205,205,,,,,,,,,,,,,,,,,main,None,None,1,1.4980972000048496,651.7736492999829,None,None,1,,,,,,,,,,,,,,023,2022-05-18_17h34.36.365,Main,2022.1.1,60.016156353537184,
negative,blue,2,None,k,,,,,,,,,0,206,206,206,,,,,,,,,,,,,,,,,main,k,k,1,0.7495866999961436,654.2707729999674,None,None,0,,,,,,,,,,,,,,023,2022-05-18_17h34.36.365,Main,2022.1.1,60.016156353537184,
negative,yellow,2,k,None,,,,,,,,,0,207,207,207,,,,,,,,,,,,,,,,,main,None,None,1,1.5012681999942288,656.0211132999975,None,None,1,,,,,,,,,,,,,,023,2022-05-18_17h34.36.365,Main,2022.1.1,60.016156353537184,
positive,yellow,2,None,k,,,,,,,,,0,208,208,208,,,,,,,,,,,,,,,,,main,k,k,1,0.9297891000169329,658.5234064999968,None,None,0,,,,,,,,,,,,,,023,2022-05-18_17h34.36.365,Main,2022.1.1,60.016156353537184,
negative,yellow,1,k,None,,,,,,,,,0,209,209,209,,,,,,,,,,,,,,,,,main,None,None,1,1.501626200042665,660.453916599974,None,None,1,,,,,,,,,,,,,,023,2022-05-18_17h34.36.365,Main,2022.1.1,60.016156353537184,
negative,red,2,None,None,,,,,,,,,0,210,210,210,,,,,,,,,,,,,,,,,main,None,None,1,1.496551999996882,662.956638899981,None,None,1,,,,,,,,,,,,,,023,2022-05-18_17h34.36.365,Main,2022.1.1,60.016156353537184,
negative,blue,1,None,k,,,,,,,,,0,211,211,211,,,,,,,,,,,,,,,,,main,k,k,1,0.6156652999925427,665.4594876999618,None,None,0,,,,,,,,,,,,,,023,2022-05-18_17h34.36.365,Main,2022.1.1,60.016156353537184,
negative,yellow,1,k,None,,,,,,,,,0,212,212,212,,,,,,,,,,,,,,,,,main,None,None,1,1.501688299991656,667.0704490999924,None,None,1,,,,,,,,,,,,,,023,2022-05-18_17h34.36.365,Main,2022.1.1,60.016156353537184,
positive,blue,1,k,None,,,,,,,,,0,213,213,213,,,,,,,,,,,,,,,,,main,None,None,1,1.4970784000470303,669.5731440999662,None,None,1,,,,,,,,,,,,,,023,2022-05-18_17h34.36.365,Main,2022.1.1,60.016156353537184,
positive,blue,1,k,None,,,,,,,,,0,214,214,214,,,,,,,,,,,,,,,,,main,None,None,1,1.5007553999894299,672.0703379999613,None,None,1,,,,,,,,,,,,,,023,2022-05-18_17h34.36.365,Main,2022.1.1,60.016156353537184,
positive,yellow,1,None,k,,,,,,,,,0,215,215,215,,,,,,,,,,,,,,,,,main,k,k,1,0.9992339999880642,674.5730053999578,None,None,0,,,,,,,,,,,,,,023,2022-05-18_17h34.36.365,Main,2022.1.1,60.016156353537184,
positive,yellow,1,None,k,,,,,,,,,0,216,216,216,,,,,,,,,,,,,,,,,main,k,k,1,0.5795681999879889,676.5729885999463,None,None,0,,,,,,,,,,,,,,023,2022-05-18_17h34.36.365,Main,2022.1.1,60.016156353537184,
positive,yellow,2,None,k,,,,,,,,,0,217,217,217,,,,,,,,,,,,,,,,,main,k,k,1,0.8007214000099339,678.153554599965,None,None,0,,,,,,,,,,,,,,023,2022-05-18_17h34.36.365,Main,2022.1.1,60.016156353537184,
negative,blue,1,None,k,,,,,,,,,0,218,218,218,,,,,,,,,,,,,,,,,main,k,k,1,0.8143245000392199,679.95624889998,None,None,0,,,,,,,,,,,,,,023,2022-05-18_17h34.36.365,Main,2022.1.1,60.016156353537184,
positive,red,2,None,None,,,,,,,,,0,219,219,219,,,,,,,,,,,,,,,,,main,None,None,1,1.501118200016208,681.7728760999744,None,None,1,,,,,,,,,,,,,,023,2022-05-18_17h34.36.365,Main,2022.1.1,60.016156353537184,
positive,yellow,1,None,k,,,,,,,,,0,220,220,220,,,,,,,,,,,,,,,,,main,k,k,1,0.880811300012283,684.2703742999583,None,None,0,,,,,,,,,,,,,,023,2022-05-18_17h34.36.365,Main,2022.1.1,60.016156353537184,
positive,blue,1,k,None,,,,,,,,,0,221,221,221,,,,,,,,,,,,,,,,,main,None,None,1,1.500363799976185,686.1533809999819,None,None,1,,,,,,,,,,,,,,023,2022-05-18_17h34.36.365,Main,2022.1.1,60.016156353537184,
positive,yellow,2,None,k,,,,,,,,,0,222,222,222,,,,,,,,,,,,,,,,,main,k,k,1,0.6135990000329912,688.6560134999454,None,None,0,,,,,,,,,,,,,,023,2022-05-18_17h34.36.365,Main,2022.1.1,60.016156353537184,
negative,yellow,1,k,None,,,,,,,,,0,223,223,223,,,,,,,,,,,,,,,,,main,None,None,1,1.4986778000020422,690.2727266999427,None,None,1,,,,,,,,,,,,,,023,2022-05-18_17h34.36.365,Main,2022.1.1,60.016156353537184,
positive,yellow,2,None,k,,,,,,,,,0,224,224,224,,,,,,,,,,,,,,,,,main,k,k,1,0.6665096000069752,692.7701871999889,None,None,0,,,,,,,,,,,,,,023,2022-05-18_17h34.36.365,Main,2022.1.1,60.016156353537184,
negative,yellow,2,k,None,,,,,,,,,0,225,225,225,,,,,,,,,,,,,,,,,main,None,None,1,1.4985642000101507,694.4365352999885,None,None,1,,,,,,,,,,,,,,023,2022-05-18_17h34.36.365,Main,2022.1.1,60.016156353537184,
negative,blue,2,None,k,,,,,,,,,0,226,226,226,,,,,,,,,,,,,,,,,main,k,k,1,0.8651784000103362,696.9365495999809,None,None,0,,,,,,,,,,,,,,023,2022-05-18_17h34.36.365,Main,2022.1.1,60.016156353537184,
positive,red,2,None,None,,,,,,,,,0,227,227,227,,,,,,,,,,,,,,,,,main,None,None,1,1.4986688999924809,698.8060063999728,None,None,1,,,,,,,,,,,,,,023,2022-05-18_17h34.36.365,Main,2022.1.1,60.016156353537184,
positive,blue,2,k,None,,,,,,,,,0,228,228,228,,,,,,,,,,,,,,,,,main,None,None,1,1.4988229000009596,701.3033522999613,None,None,1,,,,,,,,,,,,,,023,2022-05-18_17h34.36.365,Main,2022.1.1,60.016156353537184,
negative,blue,1,None,k,,,,,,,,,0,229,229,229,,,,,,,,,,,,,,,,,main,k,k,1,0.999742099957075,703.8030142999487,None,None,0,,,,,,,,,,,,,,023,2022-05-18_17h34.36.365,Main,2022.1.1,60.016156353537184,
positive,yellow,1,None,k,,,,,,,,,0,230,230,230,,,,,,,,,,,,,,,,,main,k,k,1,0.6847416000091471,705.8056403999799,None,None,0,,,,,,,,,,,,,,023,2022-05-18_17h34.36.365,Main,2022.1.1,60.016156353537184,
negative,blue,2,None,k,,,,,,,,,0,231,231,231,,,,,,,,,,,,,,,,,main,k,k,1,0.9968550999765284,707.4890038999729,None,None,0,,,,,,,,,,,,,,023,2022-05-18_17h34.36.365,Main,2022.1.1,60.016156353537184,
negative,red,1,None,None,,,,,,,,,0,232,232,232,,,,,,,,,,,,,,,,,main,None,None,1,1.4994565999950282,709.4864878999651,None,None,1,,,,,,,,,,,,,,023,2022-05-18_17h34.36.365,Main,2022.1.1,60.016156353537184,
positive,blue,2,k,None,,,,,,,,,0,233,233,233,,,,,,,,,,,,,,,,,main,None,None,1,1.500612000003457,711.9861814999604,None,None,1,,,,,,,,,,,,,,023,2022-05-18_17h34.36.365,Main,2022.1.1,60.016156353537184,
negative,yellow,1,k,None,,,,,,,,,0,234,234,234,,,,,,,,,,,,,,,,,main,None,None,1,1.4991095999721438,714.4889141999884,None,None,1,,,,,,,,,,,,,,023,2022-05-18_17h34.36.365,Main,2022.1.1,60.016156353537184,
negative,yellow,2,k,None,,,,,,,,,0,235,235,235,,,,,,,,,,,,,,,,,main,None,None,1,1.4962501999689266,716.9888470999431,None,None,1,,,,,,,,,,,,,,023,2022-05-18_17h34.36.365,Main,2022.1.1,60.016156353537184,
positive,red,1,None,None,,,,,,,,,0,236,236,236,,,,,,,,,,,,,,,,,main,None,None,1,1.5017982000135817,719.4860101999948,None,None,1,,,,,,,,,,,,,,023,2022-05-18_17h34.36.365,Main,2022.1.1,60.016156353537184,
negative,red,2,None,None,,,,,,,,,0,237,237,237,,,,,,,,,,,,,,,,,main,None,None,1,1.4989807000383735,721.9887457999866,None,None,1,,,,,,,,,,,,,,023,2022-05-18_17h34.36.365,Main,2022.1.1,60.016156353537184,
negative,blue,1,None,k,,,,,,,,,0,238,238,238,,,,,,,,,,,,,,,,,main,k,k,1,0.8141461000195704,724.4886857999954,None,None,0,,,,,,,,,,,,,,023,2022-05-18_17h34.36.365,Main,2022.1.1,60.016156353537184,
positive,blue,1,k,None,,,,,,,,,0,239,239,239,,,,,,,,,,,,,,,,,main,None,None,1,1.5014673999976367,726.3025498999632,None,None,1,,,,,,,,,,,,,,023,2022-05-18_17h34.36.365,Main,2022.1.1,60.016156353537184,
,,,,,,,,,,,,,,,,,,,,,,,,,,,,,,,,,,,,,,,,,,,,,,,,,,,,,728.8052537999465,None,,,,,,
