distractor,target,set,ans1,ans2,rep_loop4.thisRepN,rep_loop4.thisTrialN,rep_loop4.thisN,rep_loop4.thisIndex,st2_prac_loop.thisRepN,st2_prac_loop.thisTrialN,st2_prac_loop.thisN,st2_prac_loop.thisIndex,st2_main_loop.thisRepN,st2_main_loop.thisTrialN,st2_main_loop.thisN,st2_main_loop.thisIndex,image_4.started,image_4.stopped,sound_2.started,sound_2.stopped,key_resp_3.keys,key_resp_3.rt,image_5.started,image_5.stopped,st_prac_back.started,st_prac_back.stopped,st_prac_text.started,st_prac_text.stopped,st_fix_back.started,st_fix_back.stopped,st_fix_2.started,st_fix_2.stopped,main_prac,st_ans,st_res,st_corr,st_rt,st_back.started,st_back.stopped,st2_resp.keys,st2_resp.corr,st_main_back.started,st_main_back.stopped,st_main_text.started,st_main_text.stopped,mouse_4.x,mouse_4.y,mouse_4.leftButton,mouse_4.midButton,mouse_4.rightButton,mouse_4.started,mouse_4.stopped,text_2.started,text_2.stopped,id*,date,expName,psychopyVersion,frameRate,
negative,yellow,1,k,None,,,,,0,0,0,0,,,,,29.587991099979263,None,34.005141479999295,None,space,59.622401600005105,93.65359529998386,None,95.10134829999879,None,95.10134829999879,None,97.10130420001224,None,97.10130420001224,None,prac,k,k,1,15.998191600025166,99.11538259999361,None,None,0,,,,,,,,,,,,,,024,2022-05-19_10h43.26.196,Main,2022.1.1,60.42697702793046,
positive,red,2,None,None,,,,,0,1,1,1,,,,,,,,,,,,,,,,,,,,,prac,None,None,1,1.501650599995628,117.11771939997561,None,None,1,,,,,,,,,,,,,,024,2022-05-19_10h43.26.196,Main,2022.1.1,60.42697702793046,
negative,blue,2,None,k,,,,,0,2,2,2,,,,,,,,,,,,,,,,,,,,,prac,None,k,0,1.2312452000332996,119.6200057999813,None,None,1,,,,,,,,,,,,,,024,2022-05-19_10h43.26.196,Main,2022.1.1,60.42697702793046,
positive,yellow,1,None,k,,,,,0,3,3,3,,,,,,,,,,,,,,,,,,,,,prac,None,k,0,1.1655255000223406,122.853249399981,None,None,1,,,,,,,,,,,,,,024,2022-05-19_10h43.26.196,Main,2022.1.1,60.42697702793046,
negative,blue,2,None,k,,,,,0,4,4,4,,,,,,,,,,,,,,,,,,,,,prac,None,None,1,1.5032256999984384,126.01717690000078,None,None,1,,,,,,,,,,,,,,024,2022-05-19_10h43.26.196,Main,2022.1.1,60.42697702793046,
negative,blue,1,None,k,,,,,0,5,5,5,,,,,,,,,,,,,,,,,,,,,prac,None,None,1,1.4968460000236519,128.52057410002453,None,None,1,,,,,,,,,,,,,,024,2022-05-19_10h43.26.196,Main,2022.1.1,60.42697702793046,
negative,yellow,2,k,None,,,,,0,6,6,6,,,,,,,,,,,,,,,,,,,,,prac,k,k,1,6.914767000009306,131.01701270003105,None,None,0,,,,,,,,,,,,,,024,2022-05-19_10h43.26.196,Main,2022.1.1,60.42697702793046,
negative,red,1,None,None,,,,,0,7,7,7,,,,,,,,,,,,,,,,,,,,,prac,None,None,1,1.4867026999709196,139.9336079999921,None,None,1,,,,,,,,,,,,,,024,2022-05-19_10h43.26.196,Main,2022.1.1,60.42697702793046,
positive,yellow,2,None,k,,,,,0,8,8,8,,,,,,,,,,,,,,,,,,,,,prac,None,None,1,1.49642420001328,142.42076990002533,None,None,1,,,,,,,,,,,,,,024,2022-05-19_10h43.26.196,Main,2022.1.1,60.42697702793046,
negative,yellow,1,k,None,,,,,0,9,9,9,,,,,,,,,,,,,,,,,,,,,prac,k,k,1,1.9680865000118501,144.91669129999354,None,None,0,,,,,,,,,,,,,,024,2022-05-19_10h43.26.196,Main,2022.1.1,60.42697702793046,
positive,yellow,2,None,k,,,,,0,10,10,10,,,,,,,,,,,,,,,,,,,,,prac,None,None,1,1.5000536000006832,148.88607880001655,None,None,1,,,,,,,,,,,,,,024,2022-05-19_10h43.26.196,Main,2022.1.1,60.42697702793046,
negative,yellow,2,k,None,,,,,0,11,11,11,,,,,,,,,,,,,,,,,,,,,prac,k,k,1,1.4161415999988094,151.3832460999838,None,None,0,,,,,,,,,,,,,,024,2022-05-19_10h43.26.196,Main,2022.1.1,60.42697702793046,
negative,red,2,None,None,,,,,0,12,12,12,,,,,,,,,,,,,,,,,,,,,prac,None,None,1,1.4959597999695688,153.80262249999214,None,None,1,,,,,,,,,,,,,,024,2022-05-19_10h43.26.196,Main,2022.1.1,60.42697702793046,
positive,red,1,None,None,,,,,0,13,13,13,,,,,,,,,,,,,,,,,,,,,prac,None,None,1,1.5001142999972217,156.2998069000314,None,None,1,,,,,,,,,,,,,,024,2022-05-19_10h43.26.196,Main,2022.1.1,60.42697702793046,
positive,blue,2,k,None,,,,,0,14,14,14,,,,,,,,,,,,,,,,,,,,,prac,k,k,1,47.297384200035594,158.79980390000856,None,None,0,,,,,,,,,,,,,,024,2022-05-19_10h43.26.196,Main,2022.1.1,60.42697702793046,
positive,blue,1,k,None,,,,,0,15,15,15,,,,,,,,,,,,,,,,,,,,,prac,k,k,1,4.801379600015935,208.09873129997868,None,None,0,,,,,,,,,,,,,,024,2022-05-19_10h43.26.196,Main,2022.1.1,60.42697702793046,
negative,blue,1,None,k,,,,,0,16,16,16,,,,,,,,,,,,,,,,,,,,,prac,None,None,1,1.4990981000009924,214.89890540001215,None,None,1,,,,,,,,,,,,,,024,2022-05-19_10h43.26.196,Main,2022.1.1,60.42697702793046,
positive,blue,2,k,None,,,,,0,17,17,17,,,,,,,,,,,,,,,,,,,,,prac,k,k,1,1.0339256000006571,217.39860369998496,None,None,0,,,,,,,,,,,,,,024,2022-05-19_10h43.26.196,Main,2022.1.1,60.42697702793046,
positive,blue,1,k,None,,,,,0,18,18,18,,,,,,,,,,,,,,,,,,,,,prac,k,k,1,1.7130029000109062,219.43618630000856,None,None,0,,,,,,,,,,,,,,024,2022-05-19_10h43.26.196,Main,2022.1.1,60.42697702793046,
positive,yellow,1,None,k,,,,,0,19,19,19,,,,,,,,,,,,,,,,,,,,,prac,None,None,1,1.4867356999893673,223.14842340000905,None,None,1,,,,,,,,,,,,,,024,2022-05-19_10h43.26.196,Main,2022.1.1,60.42697702793046,
negative,yellow,1,k,None,,,,,1,0,20,0,,,,,,,,,,,,,,,,,,,,,prac,k,k,1,1.5796985000488348,225.63444230001187,None,None,0,,,,,,,,,,,,,,024,2022-05-19_10h43.26.196,Main,2022.1.1,60.42697702793046,
positive,red,2,None,None,,,,,1,1,21,1,,,,,,,,,,,,,,,,,,,,,prac,None,None,1,1.4867266999790445,229.2150432000053,None,None,1,,,,,,,,,,,,,,024,2022-05-19_10h43.26.196,Main,2022.1.1,60.42697702793046,
negative,blue,2,None,k,,,,,1,2,22,2,,,,,,,,,,,,,,,,,,,,,prac,None,None,1,1.4970048000104725,231.70102889998816,None,None,1,,,,,,,,,,,,,,024,2022-05-19_10h43.26.196,Main,2022.1.1,60.42697702793046,
positive,yellow,1,None,k,,,,,1,3,23,3,,,,,,,,,,,,,,,,,,,,,prac,None,None,1,1.5007284000166692,234.19819070002995,None,None,1,,,,,,,,,,,,,,024,2022-05-19_10h43.26.196,Main,2022.1.1,60.42697702793046,
negative,blue,2,None,k,,,,,1,4,24,4,,,,,,,,,,,,,,,,,,,,,prac,None,None,1,1.499056099972222,236.70091509999475,None,None,1,,,,,,,,,,,,,,024,2022-05-19_10h43.26.196,Main,2022.1.1,60.42697702793046,
negative,blue,1,None,k,,,,,1,5,25,5,,,,,,,,,,,,,,,,,,,,,prac,None,None,1,1.4973559000063688,239.20087080000667,None,None,1,,,,,,,,,,,,,,024,2022-05-19_10h43.26.196,Main,2022.1.1,60.42697702793046,
negative,yellow,2,k,None,,,,,1,6,26,6,,,,,,,,,,,,,,,,,,,,,prac,k,k,1,1.5176780999754556,241.71483240003,None,None,0,,,,,,,,,,,,,,024,2022-05-19_10h43.26.196,Main,2022.1.1,60.42697702793046,
negative,red,1,None,None,,,,,1,7,27,7,,,,,,,,,,,,,,,,,,,,,prac,None,None,1,1.4990243000211194,245.2174124000012,None,None,1,,,,,,,,,,,,,,024,2022-05-19_10h43.26.196,Main,2022.1.1,60.42697702793046,
positive,yellow,2,None,k,,,,,1,8,28,8,,,,,,,,,,,,,,,,,,,,,prac,None,None,1,1.5000922000035644,247.71497939998517,None,None,1,,,,,,,,,,,,,,024,2022-05-19_10h43.26.196,Main,2022.1.1,60.42697702793046,
negative,yellow,1,k,None,,,,,1,9,29,9,,,,,,,,,,,,,,,,,,,,,prac,k,k,1,1.3637258000089787,250.21772610000335,None,None,0,,,,,,,,,,,,,,024,2022-05-19_10h43.26.196,Main,2022.1.1,60.42697702793046,
positive,yellow,2,None,k,,,,,1,10,30,10,,,,,,,,,,,,,,,,,,,,,prac,None,None,1,1.4992211000062525,252.58173739997437,None,None,1,,,,,,,,,,,,,,024,2022-05-19_10h43.26.196,Main,2022.1.1,60.42697702793046,
negative,yellow,2,k,None,,,,,1,11,31,11,,,,,,,,,,,,,,,,,,,,,prac,k,k,1,0.9004500000155531,255.08133519999683,None,None,0,,,,,,,,,,,,,,024,2022-05-19_10h43.26.196,Main,2022.1.1,60.42697702793046,
negative,red,2,None,None,,,,,1,12,32,12,,,,,,,,,,,,,,,,,,,,,prac,None,None,1,1.4990415999782272,256.98385850002524,None,None,1,,,,,,,,,,,,,,024,2022-05-19_10h43.26.196,Main,2022.1.1,60.42697702793046,
positive,red,1,None,None,,,,,1,13,33,13,,,,,,,,,,,,,,,,,,,,,prac,None,None,1,1.4971978000248782,259.483825000003,None,None,1,,,,,,,,,,,,,,024,2022-05-19_10h43.26.196,Main,2022.1.1,60.42697702793046,
positive,blue,2,k,None,,,,,1,14,34,14,,,,,,,,,,,,,,,,,,,,,prac,k,k,1,1.8171758000389673,261.9809416999924,None,None,0,,,,,,,,,,,,,,024,2022-05-19_10h43.26.196,Main,2022.1.1,60.42697702793046,
positive,blue,1,k,None,,,,,1,15,35,15,,,,,,,,,,,,,,,,,,,,,prac,k,k,1,0.9323474999982864,265.80033589998493,None,None,0,,,,,,,,,,,,,,024,2022-05-19_10h43.26.196,Main,2022.1.1,60.42697702793046,
negative,blue,1,None,k,,,,,1,16,36,16,,,,,,,,,,,,,,,,,,,,,prac,None,None,1,1.499202300037723,267.7336056000204,None,None,1,,,,,,,,,,,,,,024,2022-05-19_10h43.26.196,Main,2022.1.1,60.42697702793046,
positive,blue,2,k,None,,,,,1,17,37,17,,,,,,,,,,,,,,,,,,,,,prac,k,k,1,1.4663647999987006,270.2308422999922,None,None,0,,,,,,,,,,,,,,024,2022-05-19_10h43.26.196,Main,2022.1.1,60.42697702793046,
positive,blue,1,k,None,,,,,1,18,38,18,,,,,,,,,,,,,,,,,,,,,prac,k,k,1,0.780278799997177,272.70019740000134,None,None,0,,,,,,,,,,,,,,024,2022-05-19_10h43.26.196,Main,2022.1.1,60.42697702793046,
positive,yellow,1,None,k,,,,,1,19,39,19,,,,,,,,,,,,,,,,,,,,,prac,None,None,1,1.4991432999959216,274.483329700015,None,None,1,,,,,,,,,,,,,,024,2022-05-19_10h43.26.196,Main,2022.1.1,60.42697702793046,
,,,,,,,,,,,,,,,,,,,,,,,,,,,,,,,,,,,,,,,,,,276.98069529997883,None,276.98069529997883,None,0.15833333,0.0712963,0,0,0,0.013461980037391186,None,,,024,2022-05-19_10h43.26.196,Main,2022.1.1,60.42697702793046,
negative,yellow,2,k,None,,,,,,,,,0,0,0,0,,,,,,,,,,,,,278.3809272000217,None,278.3809272000217,None,main,k,k,1,1.1459682999993674,280.43002839997644,None,None,0,,,,,,,,,,,,,,024,2022-05-19_10h43.26.196,Main,2022.1.1,60.42697702793046,
positive,red,1,None,None,,,,,,,,,0,1,1,1,,,,,,,,,,,,,,,,,main,None,None,1,1.4964885999797843,282.5833083000034,None,None,1,,,,,,,,,,,,,,024,2022-05-19_10h43.26.196,Main,2022.1.1,60.42697702793046,
positive,blue,2,k,None,,,,,,,,,0,2,2,2,,,,,,,,,,,,,,,,,main,k,k,1,0.9650345999980345,285.0804863999947,None,None,0,,,,,,,,,,,,,,024,2022-05-19_10h43.26.196,Main,2022.1.1,60.42697702793046,
positive,blue,1,k,None,,,,,,,,,0,3,3,3,,,,,,,,,,,,,,,,,main,k,k,1,0.7367121999850497,287.0471399999806,None,None,0,,,,,,,,,,,,,,024,2022-05-19_10h43.26.196,Main,2022.1.1,60.42697702793046,
negative,yellow,2,k,None,,,,,,,,,0,4,4,4,,,,,,,,,,,,,,,,,main,k,k,1,0.8470711999689229,288.7831925000064,None,None,0,,,,,,,,,,,,,,024,2022-05-19_10h43.26.196,Main,2022.1.1,60.42697702793046,
positive,yellow,2,None,k,,,,,,,,,0,5,5,5,,,,,,,,,,,,,,,,,main,None,None,1,1.4962643000180833,290.6331595000229,None,None,1,,,,,,,,,,,,,,024,2022-05-19_10h43.26.196,Main,2022.1.1,60.42697702793046,
negative,blue,2,None,k,,,,,,,,,0,6,6,6,,,,,,,,,,,,,,,,,main,None,None,1,1.501752200012561,293.1305768000311,None,None,1,,,,,,,,,,,,,,024,2022-05-19_10h43.26.196,Main,2022.1.1,60.42697702793046,
positive,red,2,None,None,,,,,,,,,0,7,7,7,,,,,,,,,,,,,,,,,main,None,None,1,1.4962750000413507,295.63305379997473,None,None,1,,,,,,,,,,,,,,024,2022-05-19_10h43.26.196,Main,2022.1.1,60.42697702793046,
positive,yellow,1,None,k,,,,,,,,,0,8,8,8,,,,,,,,,,,,,,,,,main,None,k,0,1.4496294999844395,298.1359973999788,None,None,1,,,,,,,,,,,,,,024,2022-05-19_10h43.26.196,Main,2022.1.1,60.42697702793046,
negative,red,1,None,None,,,,,,,,,0,9,9,9,,,,,,,,,,,,,,,,,main,None,None,1,1.5019273000070825,301.5831447999808,None,None,1,,,,,,,,,,,,,,024,2022-05-19_10h43.26.196,Main,2022.1.1,60.42697702793046,
positive,yellow,1,None,k,,,,,,,,,0,10,10,10,,,,,,,,,,,,,,,,,main,None,None,1,1.4968532000202686,304.08325750002405,None,None,1,,,,,,,,,,,,,,024,2022-05-19_10h43.26.196,Main,2022.1.1,60.42697702793046,
negative,yellow,1,k,None,,,,,,,,,0,11,11,11,,,,,,,,,,,,,,,,,main,k,k,1,1.0480950999772176,306.58008290000726,None,None,0,,,,,,,,,,,,,,024,2022-05-19_10h43.26.196,Main,2022.1.1,60.42697702793046,
negative,yellow,1,k,None,,,,,,,,,0,12,12,12,,,,,,,,,,,,,,,,,main,k,k,1,0.752460699994117,308.6303976000054,None,None,0,,,,,,,,,,,,,,024,2022-05-19_10h43.26.196,Main,2022.1.1,60.42697702793046,
negative,red,2,None,None,,,,,,,,,0,13,13,13,,,,,,,,,,,,,,,,,main,None,None,1,1.4941547999624163,310.3799506999785,None,None,1,,,,,,,,,,,,,,024,2022-05-19_10h43.26.196,Main,2022.1.1,60.42697702793046,
positive,yellow,2,None,k,,,,,,,,,0,14,14,14,,,,,,,,,,,,,,,,,main,None,None,1,1.5016094999737106,312.8799574000295,None,None,1,,,,,,,,,,,,,,024,2022-05-19_10h43.26.196,Main,2022.1.1,60.42697702793046,
positive,blue,1,k,None,,,,,,,,,0,15,15,15,,,,,,,,,,,,,,,,,main,k,k,1,2.880380199989304,315.3826119999867,None,None,0,,,,,,,,,,,,,,024,2022-05-19_10h43.26.196,Main,2022.1.1,60.42697702793046,
negative,blue,1,None,k,,,,,,,,,0,16,16,16,,,,,,,,,,,,,,,,,main,None,None,1,1.4986409000121057,320.26584429998184,None,None,1,,,,,,,,,,,,,,024,2022-05-19_10h43.26.196,Main,2022.1.1,60.42697702793046,
positive,blue,2,k,None,,,,,,,,,0,17,17,17,,,,,,,,,,,,,,,,,main,k,k,1,1.2759682000032626,322.7658836999908,None,None,0,,,,,,,,,,,,,,024,2022-05-19_10h43.26.196,Main,2022.1.1,60.42697702793046,
negative,blue,2,None,k,,,,,,,,,0,18,18,18,,,,,,,,,,,,,,,,,main,None,None,1,1.5055546999792568,325.04416749998927,None,None,1,,,,,,,,,,,,,,024,2022-05-19_10h43.26.196,Main,2022.1.1,60.42697702793046,
negative,blue,1,None,k,,,,,,,,,0,19,19,19,,,,,,,,,,,,,,,,,main,None,None,1,1.5012640000204556,327.54634780000197,None,None,1,,,,,,,,,,,,,,024,2022-05-19_10h43.26.196,Main,2022.1.1,60.42697702793046,
negative,blue,1,None,k,,,,,,,,,0,20,20,20,,,,,,,,,,,,,,,,,main,None,None,1,1.4965308000100777,330.04900290002115,None,None,1,,,,,,,,,,,,,,024,2022-05-19_10h43.26.196,Main,2022.1.1,60.42697702793046,
negative,blue,2,None,k,,,,,,,,,0,21,21,21,,,,,,,,,,,,,,,,,main,None,None,1,1.5018048000056297,332.5461554999929,None,None,1,,,,,,,,,,,,,,024,2022-05-19_10h43.26.196,Main,2022.1.1,60.42697702793046,
negative,red,1,None,None,,,,,,,,,0,22,22,22,,,,,,,,,,,,,,,,,main,None,None,1,1.5024841999984346,335.04886290000286,None,None,1,,,,,,,,,,,,,,024,2022-05-19_10h43.26.196,Main,2022.1.1,60.42697702793046,
positive,red,2,None,None,,,,,,,,,0,23,23,23,,,,,,,,,,,,,,,,,main,None,None,1,1.493117100035306,337.55022979999194,None,None,1,,,,,,,,,,,,,,024,2022-05-19_10h43.26.196,Main,2022.1.1,60.42697702793046,
negative,red,2,None,None,,,,,,,,,0,24,24,24,,,,,,,,,,,,,,,,,main,None,None,1,1.5003016999689862,340.04600400000345,None,None,1,,,,,,,,,,,,,,024,2022-05-19_10h43.26.196,Main,2022.1.1,60.42697702793046,
positive,blue,2,k,None,,,,,,,,,0,25,25,25,,,,,,,,,,,,,,,,,main,k,k,1,1.1314711999730207,342.5459782999824,None,None,0,,,,,,,,,,,,,,024,2022-05-19_10h43.26.196,Main,2022.1.1,60.42697702793046,
negative,yellow,1,k,None,,,,,,,,,0,26,26,26,,,,,,,,,,,,,,,,,main,k,k,1,0.8012291999766603,344.6820169999846,None,None,0,,,,,,,,,,,,,,024,2022-05-19_10h43.26.196,Main,2022.1.1,60.42697702793046,
positive,blue,2,k,None,,,,,,,,,0,27,27,27,,,,,,,,,,,,,,,,,main,k,k,1,0.8971267999731936,346.4819834000082,None,None,0,,,,,,,,,,,,,,024,2022-05-19_10h43.26.196,Main,2022.1.1,60.42697702793046,
negative,blue,2,None,k,,,,,,,,,0,28,28,28,,,,,,,,,,,,,,,,,main,None,None,1,1.4976230000029318,348.3791671000072,None,None,1,,,,,,,,,,,,,,024,2022-05-19_10h43.26.196,Main,2022.1.1,60.42697702793046,
positive,red,1,None,None,,,,,,,,,0,29,29,29,,,,,,,,,,,,,,,,,main,None,None,1,1.501786200038623,350.8791844000225,None,None,1,,,,,,,,,,,,,,024,2022-05-19_10h43.26.196,Main,2022.1.1,60.42697702793046,
positive,blue,1,k,None,,,,,,,,,0,30,30,30,,,,,,,,,,,,,,,,,main,k,k,1,1.2357754000113346,353.38184940000065,None,None,0,,,,,,,,,,,,,,024,2022-05-19_10h43.26.196,Main,2022.1.1,60.42697702793046,
positive,yellow,1,None,k,,,,,,,,,0,31,31,31,,,,,,,,,,,,,,,,,main,None,None,1,1.4931533000199124,355.617405899975,None,None,1,,,,,,,,,,,,,,024,2022-05-19_10h43.26.196,Main,2022.1.1,60.42697702793046,
negative,yellow,2,k,None,,,,,,,,,0,32,32,32,,,,,,,,,,,,,,,,,main,k,k,1,0.7978755999938585,358.1123581000138,None,None,0,,,,,,,,,,,,,,024,2022-05-19_10h43.26.196,Main,2022.1.1,60.42697702793046,
negative,blue,1,None,k,,,,,,,,,0,33,33,33,,,,,,,,,,,,,,,,,main,None,None,1,1.499212399998214,359.9127245999989,None,None,1,,,,,,,,,,,,,,024,2022-05-19_10h43.26.196,Main,2022.1.1,60.42697702793046,
positive,blue,1,k,None,,,,,,,,,0,34,34,34,,,,,,,,,,,,,,,,,main,k,k,1,1.1010675000143237,362.41222019999987,None,None,0,,,,,,,,,,,,,,024,2022-05-19_10h43.26.196,Main,2022.1.1,60.42697702793046,
negative,yellow,1,k,None,,,,,,,,,0,35,35,35,,,,,,,,,,,,,,,,,main,k,k,1,0.7491255999775603,364.5149238000158,None,None,0,,,,,,,,,,,,,,024,2022-05-19_10h43.26.196,Main,2022.1.1,60.42697702793046,
positive,yellow,2,None,k,,,,,,,,,0,36,36,36,,,,,,,,,,,,,,,,,main,None,None,1,1.4968611000222154,366.2649179000291,None,None,1,,,,,,,,,,,,,,024,2022-05-19_10h43.26.196,Main,2022.1.1,60.42697702793046,
positive,yellow,2,None,k,,,,,,,,,0,37,37,37,,,,,,,,,,,,,,,,,main,None,None,1,1.5007970000151545,368.76207589998376,None,None,1,,,,,,,,,,,,,,024,2022-05-19_10h43.26.196,Main,2022.1.1,60.42697702793046,
negative,yellow,2,k,None,,,,,,,,,0,38,38,38,,,,,,,,,,,,,,,,,main,k,k,1,0.8659095999901183,371.2647720000241,None,None,0,,,,,,,,,,,,,,024,2022-05-19_10h43.26.196,Main,2022.1.1,60.42697702793046,
positive,yellow,1,None,k,,,,,,,,,0,39,39,39,,,,,,,,,,,,,,,,,main,None,None,1,1.496772599988617,373.1314138000016,None,None,1,,,,,,,,,,,,,,024,2022-05-19_10h43.26.196,Main,2022.1.1,60.42697702793046,
negative,yellow,2,k,None,,,,,,,,,0,40,40,40,,,,,,,,,,,,,,,,,main,k,k,1,1.4322015999932773,375.6313262999756,None,None,0,,,,,,,,,,,,,,024,2022-05-19_10h43.26.196,Main,2022.1.1,60.42697702793046,
positive,blue,2,k,None,,,,,,,,,0,41,41,41,,,,,,,,,,,,,,,,,main,k,k,1,0.898907600028906,378.06224579998525,None,None,0,,,,,,,,,,,,,,024,2022-05-19_10h43.26.196,Main,2022.1.1,60.42697702793046,
positive,blue,2,k,None,,,,,,,,,0,42,42,42,,,,,,,,,,,,,,,,,main,k,k,1,0.7158119999803603,379.96227630000794,None,None,0,,,,,,,,,,,,,,024,2022-05-19_10h43.26.196,Main,2022.1.1,60.42697702793046,
negative,blue,2,None,k,,,,,,,,,0,43,43,43,,,,,,,,,,,,,,,,,main,None,None,1,1.5011172999511473,381.6790096000186,None,None,1,,,,,,,,,,,,,,024,2022-05-19_10h43.26.196,Main,2022.1.1,60.42697702793046,
negative,red,1,None,None,,,,,,,,,0,44,44,44,,,,,,,,,,,,,,,,,main,None,None,1,1.5020138999680057,384.17870190000394,None,None,1,,,,,,,,,,,,,,024,2022-05-19_10h43.26.196,Main,2022.1.1,60.42697702793046,
negative,yellow,1,k,None,,,,,,,,,0,45,45,45,,,,,,,,,,,,,,,,,main,k,k,1,1.5103841999662109,386.6816751000006,None,None,0,,,,,,,,,,,,,,024,2022-05-19_10h43.26.196,Main,2022.1.1,60.42697702793046,
negative,yellow,1,k,None,,,,,,,,,0,46,46,46,,,,,,,,,,,,,,,,,main,k,k,1,0.7158705000183545,390.1977410999825,None,None,0,,,,,,,,,,,,,,024,2022-05-19_10h43.26.196,Main,2022.1.1,60.42697702793046,
positive,red,1,None,None,,,,,,,,,0,47,47,47,,,,,,,,,,,,,,,,,main,None,None,1,1.498802199959755,391.9120013000211,None,None,1,,,,,,,,,,,,,,024,2022-05-19_10h43.26.196,Main,2022.1.1,60.42697702793046,
positive,yellow,1,None,k,,,,,,,,,0,48,48,48,,,,,,,,,,,,,,,,,main,None,None,1,1.5008667000220157,394.41154439997626,None,None,1,,,,,,,,,,,,,,024,2022-05-19_10h43.26.196,Main,2022.1.1,60.42697702793046,
negative,blue,1,None,k,,,,,,,,,0,49,49,49,,,,,,,,,,,,,,,,,main,None,None,1,1.498992000008002,396.91426190000493,None,None,1,,,,,,,,,,,,,,024,2022-05-19_10h43.26.196,Main,2022.1.1,60.42697702793046,
positive,yellow,2,None,k,,,,,,,,,0,50,50,50,,,,,,,,,,,,,,,,,main,None,None,1,1.4973692999919876,399.4142119999742,None,None,1,,,,,,,,,,,,,,024,2022-05-19_10h43.26.196,Main,2022.1.1,60.42697702793046,
negative,blue,1,None,k,,,,,,,,,0,51,51,51,,,,,,,,,,,,,,,,,main,None,None,1,1.5006061000167392,401.911688400025,None,None,1,,,,,,,,,,,,,,024,2022-05-19_10h43.26.196,Main,2022.1.1,60.42697702793046,
positive,red,2,None,None,,,,,,,,,0,52,52,52,,,,,,,,,,,,,,,,,main,None,None,1,1.5020500000100583,404.4143168000155,None,None,1,,,,,,,,,,,,,,024,2022-05-19_10h43.26.196,Main,2022.1.1,60.42697702793046,
positive,yellow,2,None,k,,,,,,,,,0,53,53,53,,,,,,,,,,,,,,,,,main,None,None,1,1.4936382999876514,406.9151419000118,None,None,1,,,,,,,,,,,,,,024,2022-05-19_10h43.26.196,Main,2022.1.1,60.42697702793046,
negative,red,2,None,None,,,,,,,,,0,54,54,54,,,,,,,,,,,,,,,,,main,None,None,1,1.498735300032422,409.41387940000277,None,None,1,,,,,,,,,,,,,,024,2022-05-19_10h43.26.196,Main,2022.1.1,60.42697702793046,
positive,yellow,1,None,k,,,,,,,,,0,55,55,55,,,,,,,,,,,,,,,,,main,None,None,1,1.5018978000152856,411.9114474999951,None,None,1,,,,,,,,,,,,,,024,2022-05-19_10h43.26.196,Main,2022.1.1,60.42697702793046,
negative,blue,2,None,k,,,,,,,,,0,56,56,56,,,,,,,,,,,,,,,,,main,None,None,1,1.4988362000440247,414.4140638000099,None,None,1,,,,,,,,,,,,,,024,2022-05-19_10h43.26.196,Main,2022.1.1,60.42697702793046,
positive,blue,1,k,None,,,,,,,,,0,57,57,57,,,,,,,,,,,,,,,,,main,k,k,1,1.4302708999603055,416.9113717,None,None,0,,,,,,,,,,,,,,024,2022-05-19_10h43.26.196,Main,2022.1.1,60.42697702793046,
positive,blue,1,k,None,,,,,,,,,0,58,58,58,,,,,,,,,,,,,,,,,main,k,k,1,0.7661121000419371,419.3443900999846,None,None,0,,,,,,,,,,,,,,024,2022-05-19_10h43.26.196,Main,2022.1.1,60.42697702793046,
negative,yellow,2,k,None,,,,,,,,,0,59,59,59,,,,,,,,,,,,,,,,,main,k,k,1,0.7824091999791563,421.11173140001483,None,None,0,,,,,,,,,,,,,,024,2022-05-19_10h43.26.196,Main,2022.1.1,60.42697702793046,
positive,red,2,None,None,,,,,,,,,0,60,60,60,,,,,,,,,,,,,,,,,main,None,None,1,1.4987012000055984,422.8971274999785,None,None,1,,,,,,,,,,,,,,024,2022-05-19_10h43.26.196,Main,2022.1.1,60.42697702793046,
negative,yellow,1,k,None,,,,,,,,,0,61,61,61,,,,,,,,,,,,,,,,,main,k,k,1,1.2325423000147566,425.3945607999922,None,None,0,,,,,,,,,,,,,,024,2022-05-19_10h43.26.196,Main,2022.1.1,60.42697702793046,
negative,red,1,None,None,,,,,,,,,0,62,62,62,,,,,,,,,,,,,,,,,main,None,None,1,1.4985503000207245,427.6275464000064,None,None,1,,,,,,,,,,,,,,024,2022-05-19_10h43.26.196,Main,2022.1.1,60.42697702793046,
negative,blue,1,None,k,,,,,,,,,0,63,63,63,,,,,,,,,,,,,,,,,main,None,None,1,1.4996989999781363,430.1275585999829,None,None,1,,,,,,,,,,,,,,024,2022-05-19_10h43.26.196,Main,2022.1.1,60.42697702793046,
positive,blue,2,k,None,,,,,,,,,0,64,64,64,,,,,,,,,,,,,,,,,main,k,k,1,0.6660937999840826,432.63022739998996,None,None,0,,,,,,,,,,,,,,024,2022-05-19_10h43.26.196,Main,2022.1.1,60.42697702793046,
negative,yellow,2,k,None,,,,,,,,,0,65,65,65,,,,,,,,,,,,,,,,,main,k,k,1,0.7950907000340521,434.29679729999043,None,None,0,,,,,,,,,,,,,,024,2022-05-19_10h43.26.196,Main,2022.1.1,60.42697702793046,
positive,yellow,2,None,k,,,,,,,,,0,66,66,66,,,,,,,,,,,,,,,,,main,None,None,1,1.5015952999820001,436.09404019999783,None,None,1,,,,,,,,,,,,,,024,2022-05-19_10h43.26.196,Main,2022.1.1,60.42697702793046,
positive,yellow,2,None,k,,,,,,,,,0,67,67,67,,,,,,,,,,,,,,,,,main,None,None,1,1.4973786000045948,438.59673190000467,None,None,1,,,,,,,,,,,,,,024,2022-05-19_10h43.26.196,Main,2022.1.1,60.42697702793046,
positive,red,1,None,None,,,,,,,,,0,68,68,68,,,,,,,,,,,,,,,,,main,None,None,1,1.5005330000421964,441.0939360000193,None,None,1,,,,,,,,,,,,,,024,2022-05-19_10h43.26.196,Main,2022.1.1,60.42697702793046,
positive,yellow,1,None,k,,,,,,,,,0,69,69,69,,,,,,,,,,,,,,,,,main,None,None,1,1.4989874999737367,443.596553499985,None,None,1,,,,,,,,,,,,,,024,2022-05-19_10h43.26.196,Main,2022.1.1,60.42697702793046,
negative,yellow,2,k,None,,,,,,,,,0,70,70,70,,,,,,,,,,,,,,,,,main,k,k,1,0.8463581000105478,446.0965973000275,None,None,0,,,,,,,,,,,,,,024,2022-05-19_10h43.26.196,Main,2022.1.1,60.42697702793046,
positive,yellow,1,None,k,,,,,,,,,0,71,71,71,,,,,,,,,,,,,,,,,main,None,None,1,1.5016769000212662,447.9437908999971,None,None,1,,,,,,,,,,,,,,024,2022-05-19_10h43.26.196,Main,2022.1.1,60.42697702793046,
negative,blue,1,None,k,,,,,,,,,0,72,72,72,,,,,,,,,,,,,,,,,main,None,None,1,1.502107199979946,450.4464945999789,None,None,1,,,,,,,,,,,,,,024,2022-05-19_10h43.26.196,Main,2022.1.1,60.42697702793046,
negative,red,2,None,None,,,,,,,,,0,73,73,73,,,,,,,,,,,,,,,,,main,None,None,1,1.495317899971269,452.9477360000019,None,None,1,,,,,,,,,,,,,,024,2022-05-19_10h43.26.196,Main,2022.1.1,60.42697702793046,
positive,blue,2,k,None,,,,,,,,,0,74,74,74,,,,,,,,,,,,,,,,,main,k,k,1,1.1328523000120185,455.44377140002325,None,None,0,,,,,,,,,,,,,,024,2022-05-19_10h43.26.196,Main,2022.1.1,60.42697702793046,
negative,blue,2,None,k,,,,,,,,,0,75,75,75,,,,,,,,,,,,,,,,,main,None,None,1,1.4951486999634653,457.57971010002075,None,None,1,,,,,,,,,,,,,,024,2022-05-19_10h43.26.196,Main,2022.1.1,60.42697702793046,
negative,blue,2,None,k,,,,,,,,,0,76,76,76,,,,,,,,,,,,,,,,,main,None,None,1,1.5010043000220321,460.07686879998073,None,None,1,,,,,,,,,,,,,,024,2022-05-19_10h43.26.196,Main,2022.1.1,60.42697702793046,
negative,yellow,1,k,None,,,,,,,,,0,77,77,77,,,,,,,,,,,,,,,,,main,k,k,1,1.248587400012184,462.5776509999996,None,None,0,,,,,,,,,,,,,,024,2022-05-19_10h43.26.196,Main,2022.1.1,60.42697702793046,
positive,blue,1,k,None,,,,,,,,,0,78,78,78,,,,,,,,,,,,,,,,,main,k,k,1,1.0294751999899745,464.8295105000143,None,None,0,,,,,,,,,,,,,,024,2022-05-19_10h43.26.196,Main,2022.1.1,60.42697702793046,
positive,blue,1,k,None,,,,,,,,,0,79,79,79,,,,,,,,,,,,,,,,,main,k,k,1,1.0851892999489792,466.86005319998367,None,None,0,,,,,,,,,,,,,,024,2022-05-19_10h43.26.196,Main,2022.1.1,60.42697702793046,
positive,red,2,None,None,,,,,,,,,0,80,80,80,,,,,,,,,,,,,,,,,main,None,None,1,1.497236899973359,468.9461115000304,None,None,1,,,,,,,,,,,,,,024,2022-05-19_10h43.26.196,Main,2022.1.1,60.42697702793046,
positive,yellow,2,None,k,,,,,,,,,0,81,81,81,,,,,,,,,,,,,,,,,main,None,None,1,1.500438800023403,471.4432812000159,None,None,1,,,,,,,,,,,,,,024,2022-05-19_10h43.26.196,Main,2022.1.1,60.42697702793046,
positive,blue,1,k,None,,,,,,,,,0,82,82,82,,,,,,,,,,,,,,,,,main,k,k,1,0.9308473999844864,473.94597990001785,None,None,0,,,,,,,,,,,,,,024,2022-05-19_10h43.26.196,Main,2022.1.1,60.42697702793046,
negative,yellow,2,k,None,,,,,,,,,0,83,83,83,,,,,,,,,,,,,,,,,main,k,k,1,0.765086000028532,475.87929830001667,None,None,0,,,,,,,,,,,,,,024,2022-05-19_10h43.26.196,Main,2022.1.1,60.42697702793046,
positive,blue,2,k,None,,,,,,,,,0,84,84,84,,,,,,,,,,,,,,,,,main,k,k,1,0.8158025000011548,477.6431622999953,None,None,0,,,,,,,,,,,,,,024,2022-05-19_10h43.26.196,Main,2022.1.1,60.42697702793046,
positive,yellow,1,None,k,,,,,,,,,0,85,85,85,,,,,,,,,,,,,,,,,main,None,None,1,1.5012927000061609,479.45984319999116,None,None,1,,,,,,,,,,,,,,024,2022-05-19_10h43.26.196,Main,2022.1.1,60.42697702793046,
positive,blue,2,k,None,,,,,,,,,0,86,86,86,,,,,,,,,,,,,,,,,main,k,k,1,1.1141945999697782,481.9624920000206,None,None,0,,,,,,,,,,,,,,024,2022-05-19_10h43.26.196,Main,2022.1.1,60.42697702793046,
positive,blue,1,k,None,,,,,,,,,0,87,87,87,,,,,,,,,,,,,,,,,main,k,k,1,0.8984423999791034,484.078995399992,None,None,0,,,,,,,,,,,,,,024,2022-05-19_10h43.26.196,Main,2022.1.1,60.42697702793046,
negative,yellow,2,k,None,,,,,,,,,0,88,88,88,,,,,,,,,,,,,,,,,main,k,k,1,1.24920140003087,485.97631579998415,None,None,0,,,,,,,,,,,,,,024,2022-05-19_10h43.26.196,Main,2022.1.1,60.42697702793046,
negative,blue,2,None,k,,,,,,,,,0,89,89,89,,,,,,,,,,,,,,,,,main,None,None,1,1.5031786999898031,488.22632249997696,None,None,1,,,,,,,,,,,,,,024,2022-05-19_10h43.26.196,Main,2022.1.1,60.42697702793046,
positive,yellow,2,None,k,,,,,,,,,0,90,90,90,,,,,,,,,,,,,,,,,main,None,None,1,1.4943742000032216,490.72900549997576,None,None,1,,,,,,,,,,,,,,024,2022-05-19_10h43.26.196,Main,2022.1.1,60.42697702793046,
negative,yellow,1,k,None,,,,,,,,,0,91,91,91,,,,,,,,,,,,,,,,,main,k,k,1,0.8669889000011608,493.22616060002474,None,None,0,,,,,,,,,,,,,,024,2022-05-19_10h43.26.196,Main,2022.1.1,60.42697702793046,
negative,red,2,None,None,,,,,,,,,0,92,92,92,,,,,,,,,,,,,,,,,main,None,None,1,1.5004872999852523,495.09282080002595,None,None,1,,,,,,,,,,,,,,024,2022-05-19_10h43.26.196,Main,2022.1.1,60.42697702793046,
negative,blue,2,None,k,,,,,,,,,0,93,93,93,,,,,,,,,,,,,,,,,main,None,None,1,1.502266800031066,497.5955227999948,None,None,1,,,,,,,,,,,,,,024,2022-05-19_10h43.26.196,Main,2022.1.1,60.42697702793046,
negative,blue,1,None,k,,,,,,,,,0,94,94,94,,,,,,,,,,,,,,,,,main,None,None,1,1.493661999993492,500.0965039000148,None,None,1,,,,,,,,,,,,,,024,2022-05-19_10h43.26.196,Main,2022.1.1,60.42697702793046,
negative,blue,1,None,k,,,,,,,,,0,95,95,95,,,,,,,,,,,,,,,,,main,None,None,1,1.4988486000220291,502.59278710000217,None,None,1,,,,,,,,,,,,,,024,2022-05-19_10h43.26.196,Main,2022.1.1,60.42697702793046,
negative,red,1,None,None,,,,,,,,,0,96,96,96,,,,,,,,,,,,,,,,,main,None,None,1,1.5017227999633178,505.0926408999949,None,None,1,,,,,,,,,,,,,,024,2022-05-19_10h43.26.196,Main,2022.1.1,60.42697702793046,
positive,yellow,1,None,k,,,,,,,,,0,97,97,97,,,,,,,,,,,,,,,,,main,None,k,0,0.8637012999970466,507.5953015999985,None,None,1,,,,,,,,,,,,,,024,2022-05-19_10h43.26.196,Main,2022.1.1,60.42697702793046,
negative,yellow,1,k,None,,,,,,,,,0,98,98,98,,,,,,,,,,,,,,,,,main,k,k,1,0.9987581999739632,510.459706499998,None,None,0,,,,,,,,,,,,,,024,2022-05-19_10h43.26.196,Main,2022.1.1,60.42697702793046,
positive,red,1,None,None,,,,,,,,,0,99,99,99,,,,,,,,,,,,,,,,,main,None,None,1,1.501249100023415,512.4593516999739,None,None,1,,,,,,,,,,,,,,024,2022-05-19_10h43.26.196,Main,2022.1.1,60.42697702793046,
positive,blue,1,k,None,,,,,,,,,0,100,100,100,,,,,,,,,,,,,,,,,main,k,k,1,1.0802429000032134,514.9618210999761,None,None,0,,,,,,,,,,,,,,024,2022-05-19_10h43.26.196,Main,2022.1.1,60.42697702793046,
negative,yellow,1,k,None,,,,,,,,,0,101,101,101,,,,,,,,,,,,,,,,,main,k,k,1,1.1998734999797307,517.0451100000064,None,None,0,,,,,,,,,,,,,,024,2022-05-19_10h43.26.196,Main,2022.1.1,60.42697702793046,
negative,blue,2,None,k,,,,,,,,,0,102,102,102,,,,,,,,,,,,,,,,,main,None,None,1,1.4984645000076853,519.2423004999873,None,None,1,,,,,,,,,,,,,,024,2022-05-19_10h43.26.196,Main,2022.1.1,60.42697702793046,
negative,yellow,2,k,None,,,,,,,,,0,103,103,103,,,,,,,,,,,,,,,,,main,k,k,1,1.2488383000018075,521.7423051000223,None,None,0,,,,,,,,,,,,,,024,2022-05-19_10h43.26.196,Main,2022.1.1,60.42697702793046,
positive,yellow,2,None,k,,,,,,,,,0,104,104,104,,,,,,,,,,,,,,,,,main,None,None,1,1.4990598000003956,523.9926818999811,None,None,1,,,,,,,,,,,,,,024,2022-05-19_10h43.26.196,Main,2022.1.1,60.42697702793046,
positive,blue,1,k,None,,,,,,,,,0,105,105,105,,,,,,,,,,,,,,,,,main,k,k,1,0.981706699996721,526.4921376000275,None,None,0,,,,,,,,,,,,,,024,2022-05-19_10h43.26.196,Main,2022.1.1,60.42697702793046,
positive,blue,2,k,None,,,,,,,,,0,106,106,106,,,,,,,,,,,,,,,,,main,k,k,1,0.8158618999877945,528.4754714000155,None,None,0,,,,,,,,,,,,,,024,2022-05-19_10h43.26.196,Main,2022.1.1,60.42697702793046,
negative,blue,1,None,k,,,,,,,,,0,107,107,107,,,,,,,,,,,,,,,,,main,None,None,1,1.5006815000087954,530.2921290000086,None,None,1,,,,,,,,,,,,,,024,2022-05-19_10h43.26.196,Main,2022.1.1,60.42697702793046,
positive,yellow,2,None,k,,,,,,,,,0,108,108,108,,,,,,,,,,,,,,,,,main,None,None,1,1.4964339999714866,532.7947718999931,None,None,1,,,,,,,,,,,,,,024,2022-05-19_10h43.26.196,Main,2022.1.1,60.42697702793046,
negative,yellow,1,k,None,,,,,,,,,0,109,109,109,,,,,,,,,,,,,,,,,main,k,k,1,1.0167080000392161,535.2919961999869,None,None,0,,,,,,,,,,,,,,024,2022-05-19_10h43.26.196,Main,2022.1.1,60.42697702793046,
negative,blue,2,None,k,,,,,,,,,0,110,110,110,,,,,,,,,,,,,,,,,main,None,None,1,1.4989928000140935,537.3113246000139,None,None,1,,,,,,,,,,,,,,024,2022-05-19_10h43.26.196,Main,2022.1.1,60.42697702793046,
positive,blue,2,k,None,,,,,,,,,0,111,111,111,,,,,,,,,,,,,,,,,main,k,k,1,0.9133379000122659,539.8113160000066,None,None,0,,,,,,,,,,,,,,024,2022-05-19_10h43.26.196,Main,2022.1.1,60.42697702793046,
negative,blue,1,None,k,,,,,,,,,0,112,112,112,,,,,,,,,,,,,,,,,main,None,None,1,1.5016144999535754,541.7251804000116,None,None,1,,,,,,,,,,,,,,024,2022-05-19_10h43.26.196,Main,2022.1.1,60.42697702793046,
positive,yellow,1,None,k,,,,,,,,,0,113,113,113,,,,,,,,,,,,,,,,,main,None,None,1,1.4988794000237249,544.2279237000039,None,None,1,,,,,,,,,,,,,,024,2022-05-19_10h43.26.196,Main,2022.1.1,60.42697702793046,
negative,red,1,None,None,,,,,,,,,0,114,114,114,,,,,,,,,,,,,,,,,main,None,None,1,1.4975739000365138,546.7253449999844,None,None,1,,,,,,,,,,,,,,024,2022-05-19_10h43.26.196,Main,2022.1.1,60.42697702793046,
positive,red,1,None,None,,,,,,,,,0,115,115,115,,,,,,,,,,,,,,,,,main,None,None,1,1.5005036999937147,549.2250361000188,None,None,1,,,,,,,,,,,,,,024,2022-05-19_10h43.26.196,Main,2022.1.1,60.42697702793046,
negative,red,2,None,None,,,,,,,,,0,116,116,116,,,,,,,,,,,,,,,,,main,None,None,1,1.4991476999712177,551.7277190000168,None,None,1,,,,,,,,,,,,,,024,2022-05-19_10h43.26.196,Main,2022.1.1,60.42697702793046,
negative,yellow,2,k,None,,,,,,,,,0,117,117,117,,,,,,,,,,,,,,,,,main,k,k,1,1.013305099972058,554.227704400022,None,None,0,,,,,,,,,,,,,,024,2022-05-19_10h43.26.196,Main,2022.1.1,60.42697702793046,
positive,yellow,1,None,k,,,,,,,,,0,118,118,118,,,,,,,,,,,,,,,,,main,None,None,1,1.5017217000131495,556.2415270999772,None,None,1,,,,,,,,,,,,,,024,2022-05-19_10h43.26.196,Main,2022.1.1,60.42697702793046,
positive,red,2,None,None,,,,,,,,,0,119,119,119,,,,,,,,,,,,,,,,,main,None,None,1,1.4992615000228398,558.7442483999766,None,None,1,,,,,,,,,,,,,,024,2022-05-19_10h43.26.196,Main,2022.1.1,60.42697702793046,
positive,blue,2,k,None,,,,,,,,,0,120,120,120,,,,,,,,,,,,,,,,,main,k,k,1,1.5132767999893986,561.2441825999995,None,None,0,,,,,,,,,,,,,,024,2022-05-19_10h43.26.196,Main,2022.1.1,60.42697702793046,
negative,red,1,None,None,,,,,,,,,0,121,121,121,,,,,,,,,,,,,,,,,main,None,None,1,1.4867350999847986,564.7580672000186,None,None,1,,,,,,,,,,,,,,024,2022-05-19_10h43.26.196,Main,2022.1.1,60.42697702793046,
positive,yellow,2,None,k,,,,,,,,,0,122,122,122,,,,,,,,,,,,,,,,,main,None,None,1,1.499038100009784,567.2440721999737,None,None,1,,,,,,,,,,,,,,024,2022-05-19_10h43.26.196,Main,2022.1.1,60.42697702793046,
negative,red,2,None,None,,,,,,,,,0,123,123,123,,,,,,,,,,,,,,,,,main,None,None,1,1.497120600019116,569.7440687000053,None,None,1,,,,,,,,,,,,,,024,2022-05-19_10h43.26.196,Main,2022.1.1,60.42697702793046,
negative,yellow,2,k,None,,,,,,,,,0,124,124,124,,,,,,,,,,,,,,,,,main,k,k,1,0.8313887999975123,572.2414890999789,None,None,0,,,,,,,,,,,,,,024,2022-05-19_10h43.26.196,Main,2022.1.1,60.42697702793046,
positive,red,1,None,None,,,,,,,,,0,125,125,125,,,,,,,,,,,,,,,,,main,None,None,1,1.5016098999767564,574.074513599975,None,None,1,,,,,,,,,,,,,,024,2022-05-19_10h43.26.196,Main,2022.1.1,60.42697702793046,
negative,blue,2,None,k,,,,,,,,,0,126,126,126,,,,,,,,,,,,,,,,,main,None,None,1,1.4990085000172257,576.575144500006,None,None,1,,,,,,,,,,,,,,024,2022-05-19_10h43.26.196,Main,2022.1.1,60.42697702793046,
negative,blue,1,None,k,,,,,,,,,0,127,127,127,,,,,,,,,,,,,,,,,main,None,None,1,1.496524700021837,579.0771648000227,None,None,1,,,,,,,,,,,,,,024,2022-05-19_10h43.26.196,Main,2022.1.1,60.42697702793046,
negative,yellow,1,k,None,,,,,,,,,0,128,128,128,,,,,,,,,,,,,,,,,main,k,k,1,1.1828965000458993,581.5746389999986,None,None,0,,,,,,,,,,,,,,024,2022-05-19_10h43.26.196,Main,2022.1.1,60.42697702793046,
negative,yellow,1,k,None,,,,,,,,,0,129,129,129,,,,,,,,,,,,,,,,,main,k,k,1,0.7986831999733113,583.7581236999831,None,None,0,,,,,,,,,,,,,,024,2022-05-19_10h43.26.196,Main,2022.1.1,60.42697702793046,
positive,blue,1,k,None,,,,,,,,,0,130,130,130,,,,,,,,,,,,,,,,,main,k,k,1,0.832724500040058,585.5578916000086,None,None,0,,,,,,,,,,,,,,024,2022-05-19_10h43.26.196,Main,2022.1.1,60.42697702793046,
negative,blue,1,None,k,,,,,,,,,0,131,131,131,,,,,,,,,,,,,,,,,main,None,None,1,1.5012336000218056,587.3909655000316,None,None,1,,,,,,,,,,,,,,024,2022-05-19_10h43.26.196,Main,2022.1.1,60.42697702793046,
negative,blue,2,None,k,,,,,,,,,0,132,132,132,,,,,,,,,,,,,,,,,main,None,None,1,1.4967692000209354,589.8936212999979,None,None,1,,,,,,,,,,,,,,024,2022-05-19_10h43.26.196,Main,2022.1.1,60.42697702793046,
positive,blue,2,k,None,,,,,,,,,0,133,133,133,,,,,,,,,,,,,,,,,main,k,k,1,0.7991823999909684,592.3910694000078,None,None,0,,,,,,,,,,,,,,024,2022-05-19_10h43.26.196,Main,2022.1.1,60.42697702793046,
positive,red,2,None,None,,,,,,,,,0,134,134,134,,,,,,,,,,,,,,,,,main,None,None,1,1.5016084999660961,594.1907474999898,None,None,1,,,,,,,,,,,,,,024,2022-05-19_10h43.26.196,Main,2022.1.1,60.42697702793046,
negative,yellow,2,k,None,,,,,,,,,0,135,135,135,,,,,,,,,,,,,,,,,main,k,k,1,0.9472721000202,596.6935252000112,None,None,0,,,,,,,,,,,,,,024,2022-05-19_10h43.26.196,Main,2022.1.1,60.42697702793046,
positive,yellow,2,None,k,,,,,,,,,0,136,136,136,,,,,,,,,,,,,,,,,main,None,None,1,1.2505956999957561,598.6410669999896,None,None,1,,,,,,,,,,,,,,024,2022-05-19_10h43.26.196,Main,2022.1.1,60.42697702793046,
positive,blue,1,k,None,,,,,,,,,0,137,137,137,,,,,,,,,,,,,,,,,main,k,k,1,0.9300767999957316,600.8905968000181,None,None,0,,,,,,,,,,,,,,024,2022-05-19_10h43.26.196,Main,2022.1.1,60.42697702793046,
positive,yellow,1,None,k,,,,,,,,,0,138,138,138,,,,,,,,,,,,,,,,,main,None,None,1,1.500378200027626,602.8239637999795,None,None,1,,,,,,,,,,,,,,024,2022-05-19_10h43.26.196,Main,2022.1.1,60.42697702793046,
positive,yellow,1,None,k,,,,,,,,,0,139,139,139,,,,,,,,,,,,,,,,,main,None,None,1,1.4984148999792524,605.3266177999903,None,None,1,,,,,,,,,,,,,,024,2022-05-19_10h43.26.196,Main,2022.1.1,60.42697702793046,
positive,yellow,1,None,k,,,,,,,,,0,140,140,140,,,,,,,,,,,,,,,,,main,None,None,1,1.5010586000280455,607.8240725999931,None,None,1,,,,,,,,,,,,,,024,2022-05-19_10h43.26.196,Main,2022.1.1,60.42697702793046,
positive,blue,1,k,None,,,,,,,,,0,141,141,141,,,,,,,,,,,,,,,,,main,k,k,1,1.176377700001467,610.3282720000134,None,None,0,,,,,,,,,,,,,,024,2022-05-19_10h43.26.196,Main,2022.1.1,60.42697702793046,
positive,blue,2,k,None,,,,,,,,,0,142,142,142,,,,,,,,,,,,,,,,,main,k,k,1,0.9518706000526436,612.5071097000036,None,None,0,,,,,,,,,,,,,,024,2022-05-19_10h43.26.196,Main,2022.1.1,60.42697702793046,
positive,yellow,2,None,k,,,,,,,,,0,143,143,143,,,,,,,,,,,,,,,,,main,None,None,1,1.4969029999920167,614.4597257000278,None,None,1,,,,,,,,,,,,,,024,2022-05-19_10h43.26.196,Main,2022.1.1,60.42697702793046,
negative,yellow,2,k,None,,,,,,,,,0,144,144,144,,,,,,,,,,,,,,,,,main,k,k,1,0.8150533000007272,616.9572519999929,None,None,0,,,,,,,,,,,,,,024,2022-05-19_10h43.26.196,Main,2022.1.1,60.42697702793046,
negative,blue,2,None,k,,,,,,,,,0,145,145,145,,,,,,,,,,,,,,,,,main,None,None,1,1.4991480999742635,618.7736001000158,None,None,1,,,,,,,,,,,,,,024,2022-05-19_10h43.26.196,Main,2022.1.1,60.42697702793046,
negative,red,1,None,None,,,,,,,,,0,146,146,146,,,,,,,,,,,,,,,,,main,None,None,1,1.5005098999827169,621.2735967999906,None,None,1,,,,,,,,,,,,,,024,2022-05-19_10h43.26.196,Main,2022.1.1,60.42697702793046,
positive,blue,1,k,None,,,,,,,,,0,147,147,147,,,,,,,,,,,,,,,,,main,k,k,1,0.6637304000323638,623.7762714999844,None,None,0,,,,,,,,,,,,,,024,2022-05-19_10h43.26.196,Main,2022.1.1,60.42697702793046,
positive,yellow,1,None,k,,,,,,,,,0,148,148,148,,,,,,,,,,,,,,,,,main,None,None,1,1.4992825000081211,625.4428424999933,None,None,1,,,,,,,,,,,,,,024,2022-05-19_10h43.26.196,Main,2022.1.1,60.42697702793046,
negative,red,2,None,None,,,,,,,,,0,149,149,149,,,,,,,,,,,,,,,,,main,None,None,1,1.5007026999955997,627.940073899983,None,None,1,,,,,,,,,,,,,,024,2022-05-19_10h43.26.196,Main,2022.1.1,60.42697702793046,
negative,blue,1,None,k,,,,,,,,,0,150,150,150,,,,,,,,,,,,,,,,,main,None,None,1,1.4990397000219673,630.4427600000054,None,None,1,,,,,,,,,,,,,,024,2022-05-19_10h43.26.196,Main,2022.1.1,60.42697702793046,
negative,yellow,2,k,None,,,,,,,,,0,151,151,151,,,,,,,,,,,,,,,,,main,k,k,1,0.8632084000273608,632.9427249000291,None,None,0,,,,,,,,,,,,,,024,2022-05-19_10h43.26.196,Main,2022.1.1,60.42697702793046,
negative,blue,2,None,k,,,,,,,,,0,152,152,152,,,,,,,,,,,,,,,,,main,None,None,1,1.5016558000352234,634.8065627000178,None,None,1,,,,,,,,,,,,,,024,2022-05-19_10h43.26.196,Main,2022.1.1,60.42697702793046,
negative,yellow,1,k,None,,,,,,,,,0,153,153,153,,,,,,,,,,,,,,,,,main,k,k,1,1.1994871000060812,637.3092756000115,None,None,0,,,,,,,,,,,,,,024,2022-05-19_10h43.26.196,Main,2022.1.1,60.42697702793046,
negative,blue,1,None,k,,,,,,,,,0,154,154,154,,,,,,,,,,,,,,,,,main,None,None,1,1.4970188000006601,639.5092359000118,None,None,1,,,,,,,,,,,,,,024,2022-05-19_10h43.26.196,Main,2022.1.1,60.42697702793046,
positive,yellow,2,None,k,,,,,,,,,0,155,155,155,,,,,,,,,,,,,,,,,main,None,None,1,1.5005641999887303,642.0067607000237,None,None,1,,,,,,,,,,,,,,024,2022-05-19_10h43.26.196,Main,2022.1.1,60.42697702793046,
positive,red,2,None,None,,,,,,,,,0,156,156,156,,,,,,,,,,,,,,,,,main,None,None,1,1.4971548999892548,644.5091149000218,None,None,1,,,,,,,,,,,,,,024,2022-05-19_10h43.26.196,Main,2022.1.1,60.42697702793046,
positive,red,1,None,None,,,,,,,,,0,157,157,157,,,,,,,,,,,,,,,,,main,None,None,1,1.5006090000388213,647.0063058999949,None,None,1,,,,,,,,,,,,,,024,2022-05-19_10h43.26.196,Main,2022.1.1,60.42697702793046,
positive,blue,2,k,None,,,,,,,,,0,158,158,158,,,,,,,,,,,,,,,,,main,k,k,1,0.847161799960304,649.5090127000003,None,None,0,,,,,,,,,,,,,,024,2022-05-19_10h43.26.196,Main,2022.1.1,60.42697702793046,
negative,yellow,1,k,None,,,,,,,,,0,159,159,159,,,,,,,,,,,,,,,,,main,k,k,1,1.1486257999786176,651.3566167000099,None,None,0,,,,,,,,,,,,,,024,2022-05-19_10h43.26.196,Main,2022.1.1,60.42697702793046,
negative,red,2,None,None,,,,,,,,,0,160,160,160,,,,,,,,,,,,,,,,,main,None,None,1,1.5015204999945126,653.5062047999818,None,None,1,,,,,,,,,,,,,,024,2022-05-19_10h43.26.196,Main,2022.1.1,60.42697702793046,
negative,blue,1,None,k,,,,,,,,,0,161,161,161,,,,,,,,,,,,,,,,,main,None,None,1,1.4976056999876164,656.0088794999756,None,None,1,,,,,,,,,,,,,,024,2022-05-19_10h43.26.196,Main,2022.1.1,60.42697702793046,
negative,blue,1,None,k,,,,,,,,,0,162,162,162,,,,,,,,,,,,,,,,,main,None,None,1,1.4986526999855414,658.5063661999884,None,None,1,,,,,,,,,,,,,,024,2022-05-19_10h43.26.196,Main,2022.1.1,60.42697702793046,
negative,yellow,1,k,None,,,,,,,,,0,163,163,163,,,,,,,,,,,,,,,,,main,k,k,1,1.2320095000322908,661.0060291999835,None,None,0,,,,,,,,,,,,,,024,2022-05-19_10h43.26.196,Main,2022.1.1,60.42697702793046,
negative,yellow,1,k,None,,,,,,,,,0,164,164,164,,,,,,,,,,,,,,,,,main,k,k,1,0.9325338000198826,663.2393949999823,None,None,0,,,,,,,,,,,,,,024,2022-05-19_10h43.26.196,Main,2022.1.1,60.42697702793046,
positive,yellow,1,None,k,,,,,,,,,0,165,165,165,,,,,,,,,,,,,,,,,main,None,None,1,1.501035499968566,665.1757473999751,None,None,1,,,,,,,,,,,,,,024,2022-05-19_10h43.26.196,Main,2022.1.1,60.42697702793046,
negative,red,1,None,None,,,,,,,,,0,166,166,166,,,,,,,,,,,,,,,,,main,None,None,1,1.4970429000095464,667.6755044999882,None,None,1,,,,,,,,,,,,,,024,2022-05-19_10h43.26.196,Main,2022.1.1,60.42697702793046,
negative,yellow,2,k,None,,,,,,,,,0,167,167,167,,,,,,,,,,,,,,,,,main,k,k,1,0.9492098999908194,670.1725454999832,None,None,0,,,,,,,,,,,,,,024,2022-05-19_10h43.26.196,Main,2022.1.1,60.42697702793046,
positive,blue,2,k,None,,,,,,,,,0,168,168,168,,,,,,,,,,,,,,,,,main,k,k,1,0.8642735000466928,672.1224950000178,None,None,0,,,,,,,,,,,,,,024,2022-05-19_10h43.26.196,Main,2022.1.1,60.42697702793046,
positive,red,2,None,None,,,,,,,,,0,169,169,169,,,,,,,,,,,,,,,,,main,None,None,1,1.4975112999673001,673.9895093999803,None,None,1,,,,,,,,,,,,,,024,2022-05-19_10h43.26.196,Main,2022.1.1,60.42697702793046,
positive,red,1,None,None,,,,,,,,,0,170,170,170,,,,,,,,,,,,,,,,,main,None,None,1,1.4993532999651507,676.4948815000243,None,None,1,,,,,,,,,,,,,,024,2022-05-19_10h43.26.196,Main,2022.1.1,60.42697702793046,
negative,blue,2,None,k,,,,,,,,,0,171,171,171,,,,,,,,,,,,,,,,,main,None,None,1,1.4992138000088744,678.9891134999925,None,None,1,,,,,,,,,,,,,,024,2022-05-19_10h43.26.196,Main,2022.1.1,60.42697702793046,
positive,blue,2,k,None,,,,,,,,,0,172,172,172,,,,,,,,,,,,,,,,,main,k,k,1,0.6809374000295065,681.4917148000095,None,None,0,,,,,,,,,,,,,,024,2022-05-19_10h43.26.196,Main,2022.1.1,60.42697702793046,
negative,yellow,2,k,None,,,,,,,,,0,173,173,173,,,,,,,,,,,,,,,,,main,k,k,1,0.7635000000009313,683.1722577000037,None,None,0,,,,,,,,,,,,,,024,2022-05-19_10h43.26.196,Main,2022.1.1,60.42697702793046,
positive,yellow,2,None,k,,,,,,,,,0,174,174,174,,,,,,,,,,,,,,,,,main,None,k,0,0.7354645999730565,684.938926999981,None,None,1,,,,,,,,,,,,,,024,2022-05-19_10h43.26.196,Main,2022.1.1,60.42697702793046,
negative,blue,2,None,k,,,,,,,,,0,175,175,175,,,,,,,,,,,,,,,,,main,None,None,1,1.4986386999953538,687.6749253000016,None,None,1,,,,,,,,,,,,,,024,2022-05-19_10h43.26.196,Main,2022.1.1,60.42697702793046,
positive,blue,1,k,None,,,,,,,,,0,176,176,176,,,,,,,,,,,,,,,,,main,k,k,1,0.8649338000104763,690.1723758000298,None,None,0,,,,,,,,,,,,,,024,2022-05-19_10h43.26.196,Main,2022.1.1,60.42697702793046,
positive,yellow,1,None,k,,,,,,,,,0,177,177,177,,,,,,,,,,,,,,,,,main,None,None,1,1.5016789000364952,692.038725099992,None,None,1,,,,,,,,,,,,,,024,2022-05-19_10h43.26.196,Main,2022.1.1,60.42697702793046,
positive,blue,1,k,None,,,,,,,,,0,178,178,178,,,,,,,,,,,,,,,,,main,k,k,1,1.6857999000349082,694.5414522999781,None,None,0,,,,,,,,,,,,,,024,2022-05-19_10h43.26.196,Main,2022.1.1,60.42697702793046,
positive,yellow,2,None,k,,,,,,,,,0,179,179,179,,,,,,,,,,,,,,,,,main,None,None,1,1.4981507000047714,698.2388712000102,None,None,1,,,,,,,,,,,,,,024,2022-05-19_10h43.26.196,Main,2022.1.1,60.42697702793046,
positive,blue,1,k,None,,,,,,,,,0,180,180,180,,,,,,,,,,,,,,,,,main,k,k,1,1.3850748999975622,700.7385486999992,None,None,0,,,,,,,,,,,,,,024,2022-05-19_10h43.26.196,Main,2022.1.1,60.42697702793046,
negative,red,1,None,None,,,,,,,,,0,181,181,181,,,,,,,,,,,,,,,,,main,None,None,1,1.4989651000360027,703.1245790999965,None,None,1,,,,,,,,,,,,,,024,2022-05-19_10h43.26.196,Main,2022.1.1,60.42697702793046,
negative,blue,1,None,k,,,,,,,,,0,182,182,182,,,,,,,,,,,,,,,,,main,None,None,1,1.4972319999942556,705.6245346000069,None,None,1,,,,,,,,,,,,,,024,2022-05-19_10h43.26.196,Main,2022.1.1,60.42697702793046,
negative,yellow,2,k,None,,,,,,,,,0,183,183,183,,,,,,,,,,,,,,,,,main,k,k,1,1.1025925000431016,708.1217996000196,None,None,0,,,,,,,,,,,,,,024,2022-05-19_10h43.26.196,Main,2022.1.1,60.42697702793046,
positive,yellow,2,None,k,,,,,,,,,0,184,184,184,,,,,,,,,,,,,,,,,main,None,None,1,1.494989299972076,710.2244257000275,None,None,1,,,,,,,,,,,,,,024,2022-05-19_10h43.26.196,Main,2022.1.1,60.42697702793046,
positive,yellow,1,None,k,,,,,,,,,0,185,185,185,,,,,,,,,,,,,,,,,main,None,None,1,1.500736899964977,712.7216181000113,None,None,1,,,,,,,,,,,,,,024,2022-05-19_10h43.26.196,Main,2022.1.1,60.42697702793046,
positive,red,2,None,None,,,,,,,,,0,186,186,186,,,,,,,,,,,,,,,,,main,None,None,1,1.4992474999744445,715.224315200001,None,None,1,,,,,,,,,,,,,,024,2022-05-19_10h43.26.196,Main,2022.1.1,60.42697702793046,
positive,blue,1,k,None,,,,,,,,,0,187,187,187,,,,,,,,,,,,,,,,,main,k,k,1,0.8466155999922194,717.724288300029,None,None,0,,,,,,,,,,,,,,024,2022-05-19_10h43.26.196,Main,2022.1.1,60.42697702793046,
negative,yellow,1,k,None,,,,,,,,,0,188,188,188,,,,,,,,,,,,,,,,,main,k,k,1,0.8996689000050537,719.5714735999936,None,None,0,,,,,,,,,,,,,,024,2022-05-19_10h43.26.196,Main,2022.1.1,60.42697702793046,
positive,yellow,2,None,k,,,,,,,,,0,189,189,189,,,,,,,,,,,,,,,,,main,None,None,1,1.5009525999776088,721.4718443999882,None,None,1,,,,,,,,,,,,,,024,2022-05-19_10h43.26.196,Main,2022.1.1,60.42697702793046,
negative,yellow,2,k,None,,,,,,,,,0,190,190,190,,,,,,,,,,,,,,,,,main,k,k,1,0.8964810000034049,723.9741821999778,None,None,0,,,,,,,,,,,,,,024,2022-05-19_10h43.26.196,Main,2022.1.1,60.42697702793046,
negative,yellow,1,k,None,,,,,,,,,0,191,191,191,,,,,,,,,,,,,,,,,main,k,k,1,0.899704199982807,725.8713405000162,None,None,0,,,,,,,,,,,,,,024,2022-05-19_10h43.26.196,Main,2022.1.1,60.42697702793046,
positive,blue,2,k,None,,,,,,,,,0,192,192,192,,,,,,,,,,,,,,,,,main,k,k,1,0.8323106999741867,727.7718041000189,None,None,0,,,,,,,,,,,,,,024,2022-05-19_10h43.26.196,Main,2022.1.1,60.42697702793046,
positive,yellow,1,None,k,,,,,,,,,0,193,193,193,,,,,,,,,,,,,,,,,main,None,None,1,1.4993811000022106,729.6073938999907,None,None,1,,,,,,,,,,,,,,024,2022-05-19_10h43.26.196,Main,2022.1.1,60.42697702793046,
negative,red,2,None,None,,,,,,,,,0,194,194,194,,,,,,,,,,,,,,,,,main,None,None,1,1.5005302999634296,732.1046053000027,None,None,1,,,,,,,,,,,,,,024,2022-05-19_10h43.26.196,Main,2022.1.1,60.42697702793046,
positive,red,1,None,None,,,,,,,,,0,195,195,195,,,,,,,,,,,,,,,,,main,None,None,1,1.4973441999754868,734.6072556999861,None,None,1,,,,,,,,,,,,,,024,2022-05-19_10h43.26.196,Main,2022.1.1,60.42697702793046,
negative,blue,1,None,k,,,,,,,,,0,196,196,196,,,,,,,,,,,,,,,,,main,None,None,1,1.5009093999979086,737.1044406000292,None,None,1,,,,,,,,,,,,,,024,2022-05-19_10h43.26.196,Main,2022.1.1,60.42697702793046,
positive,blue,2,k,None,,,,,,,,,0,197,197,197,,,,,,,,,,,,,,,,,main,k,k,1,0.684206300007645,739.6072622999782,None,None,0,,,,,,,,,,,,,,024,2022-05-19_10h43.26.196,Main,2022.1.1,60.42697702793046,
negative,blue,2,None,k,,,,,,,,,0,198,198,198,,,,,,,,,,,,,,,,,main,None,None,1,1.4945481999893673,741.2904763999977,None,None,1,,,,,,,,,,,,,,024,2022-05-19_10h43.26.196,Main,2022.1.1,60.42697702793046,
negative,blue,2,None,k,,,,,,,,,0,199,199,199,,,,,,,,,,,,,,,,,main,None,None,1,1.5019241000409238,743.7876420000102,None,None,1,,,,,,,,,,,,,,024,2022-05-19_10h43.26.196,Main,2022.1.1,60.42697702793046,
positive,blue,2,k,None,,,,,,,,,0,200,200,200,,,,,,,,,,,,,,,,,main,k,k,1,0.8829835000215098,746.2903572000214,None,None,0,,,,,,,,,,,,,,024,2022-05-19_10h43.26.196,Main,2022.1.1,60.42697702793046,
positive,blue,2,k,None,,,,,,,,,0,201,201,201,,,,,,,,,,,,,,,,,main,k,k,1,0.896011599979829,748.1737014999962,None,None,0,,,,,,,,,,,,,,024,2022-05-19_10h43.26.196,Main,2022.1.1,60.42697702793046,
negative,yellow,2,k,None,,,,,,,,,0,202,202,202,,,,,,,,,,,,,,,,,main,k,k,1,1.0828404999920167,750.0708467999939,None,None,0,,,,,,,,,,,,,,024,2022-05-19_10h43.26.196,Main,2022.1.1,60.42697702793046,
positive,red,1,None,None,,,,,,,,,0,203,203,203,,,,,,,,,,,,,,,,,main,None,None,1,1.4985176000045612,752.1569241000107,None,None,1,,,,,,,,,,,,,,024,2022-05-19_10h43.26.196,Main,2022.1.1,60.42697702793046,
negative,blue,2,None,k,,,,,,,,,0,204,204,204,,,,,,,,,,,,,,,,,main,None,None,1,1.499216400028672,754.6567124000285,None,None,1,,,,,,,,,,,,,,024,2022-05-19_10h43.26.196,Main,2022.1.1,60.42697702793046,
negative,red,1,None,None,,,,,,,,,0,205,205,205,,,,,,,,,,,,,,,,,main,None,None,1,1.4990996000124142,757.1542887000251,None,None,1,,,,,,,,,,,,,,024,2022-05-19_10h43.26.196,Main,2022.1.1,60.42697702793046,
negative,blue,2,None,k,,,,,,,,,0,206,206,206,,,,,,,,,,,,,,,,,main,None,None,1,1.4990263999789022,759.6546104000299,None,None,1,,,,,,,,,,,,,,024,2022-05-19_10h43.26.196,Main,2022.1.1,60.42697702793046,
negative,yellow,2,k,None,,,,,,,,,0,207,207,207,,,,,,,,,,,,,,,,,main,k,k,1,0.9167980999918655,762.15662720002,None,None,0,,,,,,,,,,,,,,024,2022-05-19_10h43.26.196,Main,2022.1.1,60.42697702793046,
positive,yellow,2,None,k,,,,,,,,,0,208,208,208,,,,,,,,,,,,,,,,,main,None,None,1,1.5014983000000939,764.0706268000067,None,None,1,,,,,,,,,,,,,,024,2022-05-19_10h43.26.196,Main,2022.1.1,60.42697702793046,
negative,yellow,1,k,None,,,,,,,,,0,209,209,209,,,,,,,,,,,,,,,,,main,k,k,1,0.9818550000200048,766.5732505000196,None,None,0,,,,,,,,,,,,,,024,2022-05-19_10h43.26.196,Main,2022.1.1,60.42697702793046,
negative,red,2,None,None,,,,,,,,,0,210,210,210,,,,,,,,,,,,,,,,,main,None,None,1,1.497337199980393,768.5541978999972,None,None,1,,,,,,,,,,,,,,024,2022-05-19_10h43.26.196,Main,2022.1.1,60.42697702793046,
negative,blue,1,None,k,,,,,,,,,0,211,211,211,,,,,,,,,,,,,,,,,main,None,None,1,1.500422700017225,771.0538273000275,None,None,1,,,,,,,,,,,,,,024,2022-05-19_10h43.26.196,Main,2022.1.1,60.42697702793046,
negative,yellow,1,k,None,,,,,,,,,0,212,212,212,,,,,,,,,,,,,,,,,main,k,k,1,0.9317067000083625,773.556513699994,None,None,0,,,,,,,,,,,,,,024,2022-05-19_10h43.26.196,Main,2022.1.1,60.42697702793046,
positive,blue,1,k,None,,,,,,,,,0,213,213,213,,,,,,,,,,,,,,,,,main,k,k,1,0.7468391999718733,775.4897608999745,None,None,0,,,,,,,,,,,,,,024,2022-05-19_10h43.26.196,Main,2022.1.1,60.42697702793046,
positive,blue,1,k,None,,,,,,,,,0,214,214,214,,,,,,,,,,,,,,,,,main,k,k,1,0.7033021000097506,777.2372502000071,None,None,0,,,,,,,,,,,,,,024,2022-05-19_10h43.26.196,Main,2022.1.1,60.42697702793046,
positive,yellow,1,None,k,,,,,,,,,0,215,215,215,,,,,,,,,,,,,,,,,main,None,None,1,1.4942200999939814,778.9440739999991,None,None,1,,,,,,,,,,,,,,024,2022-05-19_10h43.26.196,Main,2022.1.1,60.42697702793046,
positive,yellow,1,None,k,,,,,,,,,0,216,216,216,,,,,,,,,,,,,,,,,main,None,None,1,1.5017124000005424,781.436918899999,None,None,1,,,,,,,,,,,,,,024,2022-05-19_10h43.26.196,Main,2022.1.1,60.42697702793046,
positive,yellow,2,None,k,,,,,,,,,0,217,217,217,,,,,,,,,,,,,,,,,main,None,None,1,1.496796199993696,783.9396331000025,None,None,1,,,,,,,,,,,,,,024,2022-05-19_10h43.26.196,Main,2022.1.1,60.42697702793046,
negative,blue,1,None,k,,,,,,,,,0,218,218,218,,,,,,,,,,,,,,,,,main,None,None,1,1.499464499996975,786.436755999981,None,None,1,,,,,,,,,,,,,,024,2022-05-19_10h43.26.196,Main,2022.1.1,60.42697702793046,
positive,red,2,None,None,,,,,,,,,0,219,219,219,,,,,,,,,,,,,,,,,main,None,None,1,1.50058180000633,788.9367653999943,None,None,1,,,,,,,,,,,,,,024,2022-05-19_10h43.26.196,Main,2022.1.1,60.42697702793046,
positive,yellow,1,None,k,,,,,,,,,0,220,220,220,,,,,,,,,,,,,,,,,main,None,None,1,1.4990108999772929,791.4394827000215,None,None,1,,,,,,,,,,,,,,024,2022-05-19_10h43.26.196,Main,2022.1.1,60.42697702793046,
positive,blue,1,k,None,,,,,,,,,0,221,221,221,,,,,,,,,,,,,,,,,main,k,k,1,0.930589499999769,793.9393958,None,None,0,,,,,,,,,,,,,,024,2022-05-19_10h43.26.196,Main,2022.1.1,60.42697702793046,
positive,yellow,2,None,k,,,,,,,,,0,222,222,222,,,,,,,,,,,,,,,,,main,None,None,1,1.4992412999854423,795.8701811999781,None,None,1,,,,,,,,,,,,,,024,2022-05-19_10h43.26.196,Main,2022.1.1,60.42697702793046,
negative,yellow,1,k,None,,,,,,,,,0,223,223,223,,,,,,,,,,,,,,,,,main,k,k,1,0.714975599956233,798.3698747000308,None,None,0,,,,,,,,,,,,,,024,2022-05-19_10h43.26.196,Main,2022.1.1,60.42697702793046,
positive,yellow,2,None,k,,,,,,,,,0,224,224,224,,,,,,,,,,,,,,,,,main,None,None,1,1.5016652999911457,800.0892322,None,None,1,,,,,,,,,,,,,,024,2022-05-19_10h43.26.196,Main,2022.1.1,60.42697702793046,
negative,yellow,2,k,None,,,,,,,,,0,225,225,225,,,,,,,,,,,,,,,,,main,k,k,1,0.9803890999755822,802.5892074999865,None,None,0,,,,,,,,,,,,,,024,2022-05-19_10h43.26.196,Main,2022.1.1,60.42697702793046,
negative,blue,2,None,k,,,,,,,,,0,226,226,226,,,,,,,,,,,,,,,,,main,None,None,1,1.4993005000287667,804.5723270000308,None,None,1,,,,,,,,,,,,,,024,2022-05-19_10h43.26.196,Main,2022.1.1,60.42697702793046,
positive,red,2,None,None,,,,,,,,,0,227,227,227,,,,,,,,,,,,,,,,,main,None,None,1,1.5007449999684468,807.0696712000063,None,None,1,,,,,,,,,,,,,,024,2022-05-19_10h43.26.196,Main,2022.1.1,60.42697702793046,
positive,blue,2,k,None,,,,,,,,,0,228,228,228,,,,,,,,,,,,,,,,,main,k,k,1,0.7306334999739192,809.572384900006,None,None,0,,,,,,,,,,,,,,024,2022-05-19_10h43.26.196,Main,2022.1.1,60.42697702793046,
negative,blue,1,None,k,,,,,,,,,0,229,229,229,,,,,,,,,,,,,,,,,main,None,None,1,1.4992775000282563,811.3057055000099,None,None,1,,,,,,,,,,,,,,024,2022-05-19_10h43.26.196,Main,2022.1.1,60.42697702793046,
positive,yellow,1,None,k,,,,,,,,,0,230,230,230,,,,,,,,,,,,,,,,,main,None,None,1,1.5005115000531077,813.8028664999874,None,None,1,,,,,,,,,,,,,,024,2022-05-19_10h43.26.196,Main,2022.1.1,60.42697702793046,
negative,blue,2,None,k,,,,,,,,,0,231,231,231,,,,,,,,,,,,,,,,,main,None,None,1,1.4973429999663495,816.3055776000256,None,None,1,,,,,,,,,,,,,,024,2022-05-19_10h43.26.196,Main,2022.1.1,60.42697702793046,
negative,red,1,None,None,,,,,,,,,0,232,232,232,,,,,,,,,,,,,,,,,main,None,None,1,1.5020802999497391,818.8028027000255,None,None,1,,,,,,,,,,,,,,024,2022-05-19_10h43.26.196,Main,2022.1.1,60.42697702793046,
positive,blue,2,k,None,,,,,,,,,0,233,233,233,,,,,,,,,,,,,,,,,main,k,k,1,0.9788884000154212,821.3059817000176,None,None,0,,,,,,,,,,,,,,024,2022-05-19_10h43.26.196,Main,2022.1.1,60.42697702793046,
negative,yellow,1,k,None,,,,,,,,,0,234,234,234,,,,,,,,,,,,,,,,,main,k,k,1,1.9983802000060678,823.2887948999996,None,None,0,,,,,,,,,,,,,,024,2022-05-19_10h43.26.196,Main,2022.1.1,60.42697702793046,
negative,yellow,2,k,None,,,,,,,,,0,235,235,235,,,,,,,,,,,,,,,,,main,k,k,1,1.0535264000063762,827.2859224000131,None,None,0,,,,,,,,,,,,,,024,2022-05-19_10h43.26.196,Main,2022.1.1,60.42697702793046,
positive,red,1,None,None,,,,,,,,,0,236,236,236,,,,,,,,,,,,,,,,,main,None,None,1,1.4985846999916248,829.338661900023,None,None,1,,,,,,,,,,,,,,024,2022-05-19_10h43.26.196,Main,2022.1.1,60.42697702793046,
negative,red,2,None,None,,,,,,,,,0,237,237,237,,,,,,,,,,,,,,,,,main,None,None,1,1.4972925999900326,831.8386207000003,None,None,1,,,,,,,,,,,,,,024,2022-05-19_10h43.26.196,Main,2022.1.1,60.42697702793046,
negative,blue,1,None,k,,,,,,,,,0,238,238,238,,,,,,,,,,,,,,,,,main,None,None,1,1.500674600014463,834.3357681999914,None,None,1,,,,,,,,,,,,,,024,2022-05-19_10h43.26.196,Main,2022.1.1,60.42697702793046,
positive,blue,1,k,None,,,,,,,,,0,239,239,239,,,,,,,,,,,,,,,,,main,k,k,1,0.9638920999714173,836.8385005000164,None,None,0,,,,,,,,,,,,,,024,2022-05-19_10h43.26.196,Main,2022.1.1,60.42697702793046,
,,,,,,,,,,,,,,,,,,,,,,,,,,,,,,,,,,,,,,,,,,,,,,,,,,,,,838.8051445999881,None,,,,,,
