distractor,target,set,ans1,ans2,rep_loop4.thisRepN,rep_loop4.thisTrialN,rep_loop4.thisN,rep_loop4.thisIndex,st2_prac_loop.thisRepN,st2_prac_loop.thisTrialN,st2_prac_loop.thisN,st2_prac_loop.thisIndex,st2_main_loop.thisRepN,st2_main_loop.thisTrialN,st2_main_loop.thisN,st2_main_loop.thisIndex,image_4.started,image_4.stopped,sound_2.started,sound_2.stopped,key_resp_3.keys,key_resp_3.rt,image_5.started,image_5.stopped,st_prac_back.started,st_prac_back.stopped,st_prac_text.started,st_prac_text.stopped,st_fix_back.started,st_fix_back.stopped,st_fix_2.started,st_fix_2.stopped,main_prac,st_ans,st_res,st_corr,st_rt,st_back.started,st_back.stopped,st2_resp.keys,st2_resp.corr,st_main_back.started,st_main_back.stopped,st_main_text.started,st_main_text.stopped,mouse_4.x,mouse_4.y,mouse_4.leftButton,mouse_4.midButton,mouse_4.rightButton,mouse_4.started,mouse_4.stopped,text_2.started,text_2.stopped,id*,date,expName,psychopyVersion,frameRate,
negative,yellow,1,k,None,,,,,0,0,0,0,,,,,28.88170170004014,None,34.145001470006534,None,space,60.30326329998206,94.47657430003164,None,95.86072210001294,None,95.86072210001294,None,97.8743642999907,None,97.8743642999907,None,prac,None,None,1,1.4944511000066996,99.8745004000375,None,None,1,,,,,,,,,,,,,,025,2022-05-19_13h50.09.266,Main,2022.1.1,59.972029028163185,
positive,red,2,None,None,,,,,0,1,1,1,,,,,,,,,,,,,,,,,,,,,prac,None,None,1,1.498861100000795,102.3770869,None,None,1,,,,,,,,,,,,,,025,2022-05-19_13h50.09.266,Main,2022.1.1,59.972029028163185,
negative,blue,2,None,k,,,,,0,2,2,2,,,,,,,,,,,,,,,,,,,,,prac,k,k,1,2.5136841000057757,104.87439000001177,None,None,0,,,,,,,,,,,,,,025,2022-05-19_13h50.09.266,Main,2022.1.1,59.972029028163185,
positive,yellow,1,None,k,,,,,0,3,3,3,,,,,,,,,,,,,,,,,,,,,prac,k,k,1,1.0511931999935769,109.39340160001302,None,None,0,,,,,,,,,,,,,,025,2022-05-19_13h50.09.266,Main,2022.1.1,59.972029028163185,
negative,blue,2,None,k,,,,,0,4,4,4,,,,,,,,,,,,,,,,,,,,,prac,k,k,1,1.029505699989386,111.44335250003496,None,None,0,,,,,,,,,,,,,,025,2022-05-19_13h50.09.266,Main,2022.1.1,59.972029028163185,
negative,blue,1,None,k,,,,,0,5,5,5,,,,,,,,,,,,,,,,,,,,,prac,k,k,1,1.5325583000085317,113.47389960003784,None,None,0,,,,,,,,,,,,,,025,2022-05-19_13h50.09.266,Main,2022.1.1,59.972029028163185,
negative,yellow,2,k,None,,,,,0,6,6,6,,,,,,,,,,,,,,,,,,,,,prac,None,None,1,1.5010815999703482,117.00989580003079,None,None,1,,,,,,,,,,,,,,025,2022-05-19_13h50.09.266,Main,2022.1.1,59.972029028163185,
negative,red,1,None,None,,,,,0,7,7,7,,,,,,,,,,,,,,,,,,,,,prac,None,None,1,1.497021200018935,119.50987589999568,None,None,1,,,,,,,,,,,,,,025,2022-05-19_13h50.09.266,Main,2022.1.1,59.972029028163185,
positive,yellow,2,None,k,,,,,0,8,8,8,,,,,,,,,,,,,,,,,,,,,prac,k,k,1,0.9821248999796808,122.00705800001742,None,None,0,,,,,,,,,,,,,,025,2022-05-19_13h50.09.266,Main,2022.1.1,59.972029028163185,
negative,yellow,1,k,None,,,,,0,9,9,9,,,,,,,,,,,,,,,,,,,,,prac,None,None,1,1.5012173000141047,123.99313240003539,None,None,1,,,,,,,,,,,,,,025,2022-05-19_13h50.09.266,Main,2022.1.1,59.972029028163185,
positive,yellow,2,None,k,,,,,0,10,10,10,,,,,,,,,,,,,,,,,,,,,prac,k,k,1,0.8295664999750443,126.49309370003175,None,None,0,,,,,,,,,,,,,,025,2022-05-19_13h50.09.266,Main,2022.1.1,59.972029028163185,
negative,yellow,2,k,None,,,,,0,11,11,11,,,,,,,,,,,,,,,,,,,,,prac,None,None,1,1.501592599961441,128.32358880003449,None,None,1,,,,,,,,,,,,,,025,2022-05-19_13h50.09.266,Main,2022.1.1,59.972029028163185,
negative,red,2,None,None,,,,,0,12,12,12,,,,,,,,,,,,,,,,,,,,,prac,None,None,1,1.499221200007014,130.82629029999953,None,None,1,,,,,,,,,,,,,,025,2022-05-19_13h50.09.266,Main,2022.1.1,59.972029028163185,
positive,red,1,None,None,,,,,0,13,13,13,,,,,,,,,,,,,,,,,,,,,prac,None,None,1,1.4973652000189759,133.32625460001873,None,None,1,,,,,,,,,,,,,,025,2022-05-19_13h50.09.266,Main,2022.1.1,59.972029028163185,
positive,blue,2,k,None,,,,,0,14,14,14,,,,,,,,,,,,,,,,,,,,,prac,None,None,1,1.5006177999894135,135.82348660001298,None,None,1,,,,,,,,,,,,,,025,2022-05-19_13h50.09.266,Main,2022.1.1,59.972029028163185,
positive,blue,1,k,None,,,,,0,15,15,15,,,,,,,,,,,,,,,,,,,,,prac,None,None,1,1.4966699999640696,138.3261354000424,None,None,1,,,,,,,,,,,,,,025,2022-05-19_13h50.09.266,Main,2022.1.1,59.972029028163185,
negative,blue,1,None,k,,,,,0,16,16,16,,,,,,,,,,,,,,,,,,,,,prac,k,k,1,0.883377099991776,140.82361220003804,None,None,0,,,,,,,,,,,,,,025,2022-05-19_13h50.09.266,Main,2022.1.1,59.972029028163185,
positive,blue,2,k,None,,,,,0,17,17,17,,,,,,,,,,,,,,,,,,,,,prac,None,None,1,1.5002394000184722,142.70662290003384,None,None,1,,,,,,,,,,,,,,025,2022-05-19_13h50.09.266,Main,2022.1.1,59.972029028163185,
positive,blue,1,k,None,,,,,0,18,18,18,,,,,,,,,,,,,,,,,,,,,prac,None,None,1,1.499336700013373,145.20931700000074,None,None,1,,,,,,,,,,,,,,025,2022-05-19_13h50.09.266,Main,2022.1.1,59.972029028163185,
positive,yellow,1,None,k,,,,,0,19,19,19,,,,,,,,,,,,,,,,,,,,,prac,k,k,1,0.8966606000321917,147.7093312999932,None,None,0,,,,,,,,,,,,,,025,2022-05-19_13h50.09.266,Main,2022.1.1,59.972029028163185,
negative,yellow,1,k,None,,,,,1,0,20,0,,,,,,,,,,,,,,,,,,,,,prac,None,None,1,1.4996519000269473,149.6067937000189,None,None,1,,,,,,,,,,,,,,025,2022-05-19_13h50.09.266,Main,2022.1.1,59.972029028163185,
positive,red,2,None,None,,,,,1,1,21,1,,,,,,,,,,,,,,,,,,,,,prac,None,None,1,1.5004999000229873,152.10655379999662,None,None,1,,,,,,,,,,,,,,025,2022-05-19_13h50.09.266,Main,2022.1.1,59.972029028163185,
negative,blue,2,None,k,,,,,1,2,22,2,,,,,,,,,,,,,,,,,,,,,prac,k,k,1,0.885814199980814,154.60919170000125,None,None,0,,,,,,,,,,,,,,025,2022-05-19_13h50.09.266,Main,2022.1.1,59.972029028163185,
positive,yellow,1,None,k,,,,,1,3,23,3,,,,,,,,,,,,,,,,,,,,,prac,k,k,1,0.9310919999843463,156.49399570003152,None,None,0,,,,,,,,,,,,,,025,2022-05-19_13h50.09.266,Main,2022.1.1,59.972029028163185,
negative,blue,2,None,k,,,,,1,4,24,4,,,,,,,,,,,,,,,,,,,,,prac,k,k,1,0.8936482999706641,158.43213830003515,None,None,0,,,,,,,,,,,,,,025,2022-05-19_13h50.09.266,Main,2022.1.1,59.972029028163185,
negative,blue,1,None,k,,,,,1,5,25,5,,,,,,,,,,,,,,,,,,,,,prac,k,k,1,1.018356499960646,160.3229549000389,None,None,0,,,,,,,,,,,,,,025,2022-05-19_13h50.09.266,Main,2022.1.1,59.972029028163185,
negative,yellow,2,k,None,,,,,1,6,26,6,,,,,,,,,,,,,,,,,,,,,prac,None,None,1,1.5019549999851733,162.34228780004196,None,None,1,,,,,,,,,,,,,,025,2022-05-19_13h50.09.266,Main,2022.1.1,59.972029028163185,
negative,red,1,None,None,,,,,1,7,27,7,,,,,,,,,,,,,,,,,,,,,prac,None,None,1,1.4942180000361986,164.84325750003336,None,None,1,,,,,,,,,,,,,,025,2022-05-19_13h50.09.266,Main,2022.1.1,59.972029028163185,
positive,yellow,2,None,k,,,,,1,8,28,8,,,,,,,,,,,,,,,,,,,,,prac,k,k,1,0.7321983999572694,167.33950190001633,None,None,0,,,,,,,,,,,,,,025,2022-05-19_13h50.09.266,Main,2022.1.1,59.972029028163185,
negative,yellow,1,k,None,,,,,1,9,29,9,,,,,,,,,,,,,,,,,,,,,prac,None,None,1,1.5009259000071324,169.07551200001035,None,None,1,,,,,,,,,,,,,,025,2022-05-19_13h50.09.266,Main,2022.1.1,59.972029028163185,
positive,yellow,2,None,k,,,,,1,10,30,10,,,,,,,,,,,,,,,,,,,,,prac,k,k,1,0.7135749000008218,171.5753054000088,None,None,0,,,,,,,,,,,,,,025,2022-05-19_13h50.09.266,Main,2022.1.1,59.972029028163185,
negative,yellow,2,k,None,,,,,1,11,31,11,,,,,,,,,,,,,,,,,,,,,prac,None,None,1,1.4987092000083067,173.28958470001817,None,None,1,,,,,,,,,,,,,,025,2022-05-19_13h50.09.266,Main,2022.1.1,59.972029028163185,
negative,red,2,None,None,,,,,1,12,32,12,,,,,,,,,,,,,,,,,,,,,prac,None,None,1,1.499431199976243,175.78954490000615,None,None,1,,,,,,,,,,,,,,025,2022-05-19_13h50.09.266,Main,2022.1.1,59.972029028163185,
positive,red,1,None,None,,,,,1,13,33,13,,,,,,,,,,,,,,,,,,,,,prac,None,None,1,1.4995618999819271,178.29194379999535,None,None,1,,,,,,,,,,,,,,025,2022-05-19_13h50.09.266,Main,2022.1.1,59.972029028163185,
positive,blue,2,k,None,,,,,1,14,34,14,,,,,,,,,,,,,,,,,,,,,prac,None,None,1,1.4982245999854058,180.78947810002137,None,None,1,,,,,,,,,,,,,,025,2022-05-19_13h50.09.266,Main,2022.1.1,59.972029028163185,
positive,blue,1,k,None,,,,,1,15,35,15,,,,,,,,,,,,,,,,,,,,,prac,None,None,1,1.4996894000214525,183.2894167000195,None,None,1,,,,,,,,,,,,,,025,2022-05-19_13h50.09.266,Main,2022.1.1,59.972029028163185,
negative,blue,1,None,k,,,,,1,16,36,16,,,,,,,,,,,,,,,,,,,,,prac,k,k,1,0.8649092999985442,185.78908920002868,None,None,0,,,,,,,,,,,,,,025,2022-05-19_13h50.09.266,Main,2022.1.1,59.972029028163185,
positive,blue,2,k,None,,,,,1,17,37,17,,,,,,,,,,,,,,,,,,,,,prac,None,None,1,1.5014959000400268,187.65575410000747,None,None,1,,,,,,,,,,,,,,025,2022-05-19_13h50.09.266,Main,2022.1.1,59.972029028163185,
positive,blue,1,k,None,,,,,1,18,38,18,,,,,,,,,,,,,,,,,,,,,prac,None,None,1,1.4973246000008658,190.1584039000445,None,None,1,,,,,,,,,,,,,,025,2022-05-19_13h50.09.266,Main,2022.1.1,59.972029028163185,
positive,yellow,1,None,k,,,,,1,19,39,19,,,,,,,,,,,,,,,,,,,,,prac,k,k,1,0.7315906999865547,192.65587180003058,None,None,0,,,,,,,,,,,,,,025,2022-05-19_13h50.09.266,Main,2022.1.1,59.972029028163185,
,,,,,,,,,,,,,,,,,,,,,,,,,,,,,,,,,,,,,,,,,,194.38888330000918,None,194.38888330000918,None,0.12222222,-0.049074072,0,0,0,0.01409157004673034,None,,,025,2022-05-19_13h50.09.266,Main,2022.1.1,59.972029028163185,
negative,yellow,2,k,None,,,,,,,,,0,0,0,0,,,,,,,,,,,,,196.6249488000176,None,196.6249488000176,None,main,None,None,1,1.5016086000250652,198.64525120001053,None,None,1,,,,,,,,,,,,,,025,2022-05-19_13h50.09.266,Main,2022.1.1,59.972029028163185,
positive,red,1,None,None,,,,,,,,,0,1,1,1,,,,,,,,,,,,,,,,,main,None,None,1,1.499597600020934,201.1561103000422,None,None,1,,,,,,,,,,,,,,025,2022-05-19_13h50.09.266,Main,2022.1.1,59.972029028163185,
positive,blue,2,k,None,,,,,,,,,0,2,2,2,,,,,,,,,,,,,,,,,main,None,None,1,1.4980804999941029,203.6555882000248,None,None,1,,,,,,,,,,,,,,025,2022-05-19_13h50.09.266,Main,2022.1.1,59.972029028163185,
positive,blue,1,k,None,,,,,,,,,0,3,3,3,,,,,,,,,,,,,,,,,main,None,None,1,1.498823000001721,206.15560230001574,None,None,1,,,,,,,,,,,,,,025,2022-05-19_13h50.09.266,Main,2022.1.1,59.972029028163185,
negative,yellow,2,k,None,,,,,,,,,0,4,4,4,,,,,,,,,,,,,,,,,main,None,None,1,1.501973700011149,208.65526860003592,None,None,1,,,,,,,,,,,,,,025,2022-05-19_13h50.09.266,Main,2022.1.1,59.972029028163185,
positive,yellow,2,None,k,,,,,,,,,0,5,5,5,,,,,,,,,,,,,,,,,main,k,k,1,0.7660757999983616,211.15803360001883,None,None,0,,,,,,,,,,,,,,025,2022-05-19_13h50.09.266,Main,2022.1.1,59.972029028163185,
negative,blue,2,None,k,,,,,,,,,0,6,6,6,,,,,,,,,,,,,,,,,main,k,k,1,0.9471404000069015,212.92461889999686,None,None,0,,,,,,,,,,,,,,025,2022-05-19_13h50.09.266,Main,2022.1.1,59.972029028163185,
positive,red,2,None,None,,,,,,,,,0,7,7,7,,,,,,,,,,,,,,,,,main,None,None,1,1.5005969000048935,214.8717956999899,None,None,1,,,,,,,,,,,,,,025,2022-05-19_13h50.09.266,Main,2022.1.1,59.972029028163185,
positive,yellow,1,None,k,,,,,,,,,0,8,8,8,,,,,,,,,,,,,,,,,main,k,k,1,0.8324610000126995,217.37448840000434,None,None,0,,,,,,,,,,,,,,025,2022-05-19_13h50.09.266,Main,2022.1.1,59.972029028163185,
negative,red,1,None,None,,,,,,,,,0,9,9,9,,,,,,,,,,,,,,,,,main,None,None,1,1.4969177999882959,219.20780040003592,None,None,1,,,,,,,,,,,,,,025,2022-05-19_13h50.09.266,Main,2022.1.1,59.972029028163185,
positive,yellow,1,None,k,,,,,,,,,0,10,10,10,,,,,,,,,,,,,,,,,main,k,k,1,0.6983494000160135,221.7049917000113,None,None,0,,,,,,,,,,,,,,025,2022-05-19_13h50.09.266,Main,2022.1.1,59.972029028163185,
negative,yellow,1,k,None,,,,,,,,,0,11,11,11,,,,,,,,,,,,,,,,,main,None,None,1,1.5016044999938458,223.40501580003183,None,None,1,,,,,,,,,,,,,,025,2022-05-19_13h50.09.266,Main,2022.1.1,59.972029028163185,
negative,yellow,1,k,None,,,,,,,,,0,12,12,12,,,,,,,,,,,,,,,,,main,None,None,1,1.4972455999813974,225.90767129999585,None,None,1,,,,,,,,,,,,,,025,2022-05-19_13h50.09.266,Main,2022.1.1,59.972029028163185,
negative,red,2,None,None,,,,,,,,,0,13,13,13,,,,,,,,,,,,,,,,,main,None,None,1,1.5006346000009216,228.40485640004044,None,None,1,,,,,,,,,,,,,,025,2022-05-19_13h50.09.266,Main,2022.1.1,59.972029028163185,
positive,yellow,2,None,k,,,,,,,,,0,14,14,14,,,,,,,,,,,,,,,,,main,k,k,1,0.714014999975916,230.90755430003628,None,None,0,,,,,,,,,,,,,,025,2022-05-19_13h50.09.266,Main,2022.1.1,59.972029028163185,
positive,blue,1,k,None,,,,,,,,,0,15,15,15,,,,,,,,,,,,,,,,,main,None,None,1,1.5018284000107087,232.62420530000236,None,None,1,,,,,,,,,,,,,,025,2022-05-19_13h50.09.266,Main,2022.1.1,59.972029028163185,
negative,blue,1,None,k,,,,,,,,,0,16,16,16,,,,,,,,,,,,,,,,,main,k,k,1,0.8453156999894418,235.1240672999993,None,None,0,,,,,,,,,,,,,,025,2022-05-19_13h50.09.266,Main,2022.1.1,59.972029028163185,
positive,blue,2,k,None,,,,,,,,,0,17,17,17,,,,,,,,,,,,,,,,,main,None,None,1,1.5019589999574237,236.9713458000333,None,None,1,,,,,,,,,,,,,,025,2022-05-19_13h50.09.266,Main,2022.1.1,59.972029028163185,
negative,blue,2,None,k,,,,,,,,,0,18,18,18,,,,,,,,,,,,,,,,,main,k,k,1,0.8324177999747917,239.47418700001435,None,None,0,,,,,,,,,,,,,,025,2022-05-19_13h50.09.266,Main,2022.1.1,59.972029028163185,
negative,blue,1,None,k,,,,,,,,,0,19,19,19,,,,,,,,,,,,,,,,,main,k,k,1,0.7492050000000745,241.30760900001042,None,None,0,,,,,,,,,,,,,,025,2022-05-19_13h50.09.266,Main,2022.1.1,59.972029028163185,
negative,blue,1,None,k,,,,,,,,,0,20,20,20,,,,,,,,,,,,,,,,,main,k,k,1,0.6799390999949537,243.0548698999919,None,None,0,,,,,,,,,,,,,,025,2022-05-19_13h50.09.266,Main,2022.1.1,59.972029028163185,
negative,blue,2,None,k,,,,,,,,,0,21,21,21,,,,,,,,,,,,,,,,,main,k,k,1,0.8153994999593124,244.73787630000152,None,None,0,,,,,,,,,,,,,,025,2022-05-19_13h50.09.266,Main,2022.1.1,59.972029028163185,
negative,red,1,None,None,,,,,,,,,0,22,22,22,,,,,,,,,,,,,,,,,main,None,None,1,1.5015302000101656,246.5545345999999,None,None,1,,,,,,,,,,,,,,025,2022-05-19_13h50.09.266,Main,2022.1.1,59.972029028163185,
positive,red,2,None,None,,,,,,,,,0,23,23,23,,,,,,,,,,,,,,,,,main,None,None,1,1.4989142999984324,249.05723630002467,None,None,1,,,,,,,,,,,,,,025,2022-05-19_13h50.09.266,Main,2022.1.1,59.972029028163185,
negative,red,2,None,None,,,,,,,,,0,24,24,24,,,,,,,,,,,,,,,,,main,None,None,1,1.4973258000100031,251.5546518000192,None,None,1,,,,,,,,,,,,,,025,2022-05-19_13h50.09.266,Main,2022.1.1,59.972029028163185,
positive,blue,2,k,None,,,,,,,,,0,25,25,25,,,,,,,,,,,,,,,,,main,None,None,1,1.5004873999860138,254.05458799999906,None,None,1,,,,,,,,,,,,,,025,2022-05-19_13h50.09.266,Main,2022.1.1,59.972029028163185,
negative,yellow,1,k,None,,,,,,,,,0,26,26,26,,,,,,,,,,,,,,,,,main,None,None,1,1.4991462999605574,256.5570207000128,None,None,1,,,,,,,,,,,,,,025,2022-05-19_13h50.09.266,Main,2022.1.1,59.972029028163185,
positive,blue,2,k,None,,,,,,,,,0,27,27,27,,,,,,,,,,,,,,,,,main,None,None,1,1.49987699999474,259.05703020002693,None,None,1,,,,,,,,,,,,,,025,2022-05-19_13h50.09.266,Main,2022.1.1,59.972029028163185,
negative,blue,2,None,k,,,,,,,,,0,28,28,28,,,,,,,,,,,,,,,,,main,k,k,1,0.9296891000121832,261.5568021000363,None,None,0,,,,,,,,,,,,,,025,2022-05-19_13h50.09.266,Main,2022.1.1,59.972029028163185,
positive,red,1,None,None,,,,,,,,,0,29,29,29,,,,,,,,,,,,,,,,,main,None,None,1,1.5005186999915168,263.48746299999766,None,None,1,,,,,,,,,,,,,,025,2022-05-19_13h50.09.266,Main,2022.1.1,59.972029028163185,
positive,blue,1,k,None,,,,,,,,,0,30,30,30,,,,,,,,,,,,,,,,,main,None,None,1,1.4965328000253066,265.9901818000362,None,None,1,,,,,,,,,,,,,,025,2022-05-19_13h50.09.266,Main,2022.1.1,59.972029028163185,
positive,yellow,1,None,k,,,,,,,,,0,31,31,31,,,,,,,,,,,,,,,,,main,k,k,1,0.9351355999824591,268.48764619999565,None,None,0,,,,,,,,,,,,,,025,2022-05-19_13h50.09.266,Main,2022.1.1,59.972029028163185,
negative,yellow,2,k,None,,,,,,,,,0,32,32,32,,,,,,,,,,,,,,,,,main,None,None,1,1.4970562999951653,270.4212564000045,None,None,1,,,,,,,,,,,,,,025,2022-05-19_13h50.09.266,Main,2022.1.1,59.972029028163185,
negative,blue,1,None,k,,,,,,,,,0,33,33,33,,,,,,,,,,,,,,,,,main,k,k,1,0.9342538000200875,272.92065600003116,None,None,0,,,,,,,,,,,,,,025,2022-05-19_13h50.09.266,Main,2022.1.1,59.972029028163185,
positive,blue,1,k,None,,,,,,,,,0,34,34,34,,,,,,,,,,,,,,,,,main,None,None,1,1.4970245999866165,274.8566206000396,None,None,1,,,,,,,,,,,,,,025,2022-05-19_13h50.09.266,Main,2022.1.1,59.972029028163185,
negative,yellow,1,k,None,,,,,,,,,0,35,35,35,,,,,,,,,,,,,,,,,main,None,None,1,1.5007226000307128,277.3538665000233,None,None,1,,,,,,,,,,,,,,025,2022-05-19_13h50.09.266,Main,2022.1.1,59.972029028163185,
positive,yellow,2,None,k,,,,,,,,,0,36,36,36,,,,,,,,,,,,,,,,,main,k,k,1,0.6494893999770284,279.8565427000285,None,None,0,,,,,,,,,,,,,,025,2022-05-19_13h50.09.266,Main,2022.1.1,59.972029028163185,
positive,yellow,2,None,k,,,,,,,,,0,37,37,37,,,,,,,,,,,,,,,,,main,k,k,1,0.7963930999976583,281.50651949999155,None,None,0,,,,,,,,,,,,,,025,2022-05-19_13h50.09.266,Main,2022.1.1,59.972029028163185,
negative,yellow,2,k,None,,,,,,,,,0,38,38,38,,,,,,,,,,,,,,,,,main,None,None,1,1.501752200012561,283.3037279000273,None,None,1,,,,,,,,,,,,,,025,2022-05-19_13h50.09.266,Main,2022.1.1,59.972029028163185,
positive,yellow,1,None,k,,,,,,,,,0,39,39,39,,,,,,,,,,,,,,,,,main,k,k,1,0.7993829000042751,285.80661980004515,None,None,0,,,,,,,,,,,,,,025,2022-05-19_13h50.09.266,Main,2022.1.1,59.972029028163185,
negative,yellow,2,k,None,,,,,,,,,0,40,40,40,,,,,,,,,,,,,,,,,main,None,None,1,1.496287800022401,287.6063976000296,None,None,1,,,,,,,,,,,,,,025,2022-05-19_13h50.09.266,Main,2022.1.1,59.972029028163185,
positive,blue,2,k,None,,,,,,,,,0,41,41,41,,,,,,,,,,,,,,,,,main,None,None,1,1.5014344999799505,290.10414470004616,None,None,1,,,,,,,,,,,,,,025,2022-05-19_13h50.09.266,Main,2022.1.1,59.972029028163185,
positive,blue,2,k,None,,,,,,,,,0,42,42,42,,,,,,,,,,,,,,,,,main,None,None,1,1.4967291999491863,292.6040435000323,None,None,1,,,,,,,,,,,,,,025,2022-05-19_13h50.09.266,Main,2022.1.1,59.972029028163185,
negative,blue,2,None,k,,,,,,,,,0,43,43,43,,,,,,,,,,,,,,,,,main,k,k,1,0.802679399959743,295.1037945999997,None,None,0,,,,,,,,,,,,,,025,2022-05-19_13h50.09.266,Main,2022.1.1,59.972029028163185,
negative,red,1,None,None,,,,,,,,,0,44,44,44,,,,,,,,,,,,,,,,,main,None,None,1,1.4972485000034794,296.906110800046,None,None,1,,,,,,,,,,,,,,025,2022-05-19_13h50.09.266,Main,2022.1.1,59.972029028163185,
negative,yellow,1,k,None,,,,,,,,,0,45,45,45,,,,,,,,,,,,,,,,,main,None,None,1,1.5003691000165418,299.4036542000249,None,None,1,,,,,,,,,,,,,,025,2022-05-19_13h50.09.266,Main,2022.1.1,59.972029028163185,
negative,yellow,1,k,None,,,,,,,,,0,46,46,46,,,,,,,,,,,,,,,,,main,None,None,1,1.4988984999945387,301.90627140004653,None,None,1,,,,,,,,,,,,,,025,2022-05-19_13h50.09.266,Main,2022.1.1,59.972029028163185,
positive,red,1,None,None,,,,,,,,,0,47,47,47,,,,,,,,,,,,,,,,,main,None,None,1,1.497609600017313,304.4060533000156,None,None,1,,,,,,,,,,,,,,025,2022-05-19_13h50.09.266,Main,2022.1.1,59.972029028163185,
positive,yellow,1,None,k,,,,,,,,,0,48,48,48,,,,,,,,,,,,,,,,,main,k,k,1,0.7001181999803521,306.9035645000404,None,None,0,,,,,,,,,,,,,,025,2022-05-19_13h50.09.266,Main,2022.1.1,59.972029028163185,
negative,blue,1,None,k,,,,,,,,,0,49,49,49,,,,,,,,,,,,,,,,,main,k,k,1,1.0163404999766499,308.6059502999997,None,None,0,,,,,,,,,,,,,,025,2022-05-19_13h50.09.266,Main,2022.1.1,59.972029028163185,
positive,yellow,2,None,k,,,,,,,,,0,50,50,50,,,,,,,,,,,,,,,,,main,k,k,1,0.679047100013122,310.62261800002307,None,None,0,,,,,,,,,,,,,,025,2022-05-19_13h50.09.266,Main,2022.1.1,59.972029028163185,
negative,blue,1,None,k,,,,,,,,,0,51,51,51,,,,,,,,,,,,,,,,,main,k,k,1,0.6865377000067383,312.3034159000381,None,None,0,,,,,,,,,,,,,,025,2022-05-19_13h50.09.266,Main,2022.1.1,59.972029028163185,
positive,red,2,None,None,,,,,,,,,0,52,52,52,,,,,,,,,,,,,,,,,main,None,None,1,1.4953936000238173,313.9932512000087,None,None,1,,,,,,,,,,,,,,025,2022-05-19_13h50.09.266,Main,2022.1.1,59.972029028163185,
positive,yellow,2,None,k,,,,,,,,,0,53,53,53,,,,,,,,,,,,,,,,,main,k,k,1,0.7009264000225812,316.4864233999979,None,None,0,,,,,,,,,,,,,,025,2022-05-19_13h50.09.266,Main,2022.1.1,59.972029028163185,
negative,red,2,None,None,,,,,,,,,0,54,54,54,,,,,,,,,,,,,,,,,main,None,None,1,1.4969775999779813,318.189005799999,None,None,1,,,,,,,,,,,,,,025,2022-05-19_13h50.09.266,Main,2022.1.1,59.972029028163185,
positive,yellow,1,None,k,,,,,,,,,0,55,55,55,,,,,,,,,,,,,,,,,main,k,k,1,0.8313632999779657,320.6863008000073,None,None,0,,,,,,,,,,,,,,025,2022-05-19_13h50.09.266,Main,2022.1.1,59.972029028163185,
negative,blue,2,None,k,,,,,,,,,0,56,56,56,,,,,,,,,,,,,,,,,main,k,k,1,1.0852526999660768,322.5196500000311,None,None,0,,,,,,,,,,,,,,025,2022-05-19_13h50.09.266,Main,2022.1.1,59.972029028163185,
positive,blue,1,k,None,,,,,,,,,0,57,57,57,,,,,,,,,,,,,,,,,main,None,None,1,1.4975689999992028,324.6056274000439,None,None,1,,,,,,,,,,,,,,025,2022-05-19_13h50.09.266,Main,2022.1.1,59.972029028163185,
positive,blue,1,k,None,,,,,,,,,0,58,58,58,,,,,,,,,,,,,,,,,main,None,None,1,1.4998515999759547,327.1028181000147,None,None,1,,,,,,,,,,,,,,025,2022-05-19_13h50.09.266,Main,2022.1.1,59.972029028163185,
negative,yellow,2,k,None,,,,,,,,,0,59,59,59,,,,,,,,,,,,,,,,,main,None,None,1,1.4992866999818943,329.6055940000224,None,None,1,,,,,,,,,,,,,,025,2022-05-19_13h50.09.266,Main,2022.1.1,59.972029028163185,
positive,red,2,None,None,,,,,,,,,0,60,60,60,,,,,,,,,,,,,,,,,main,None,None,1,1.4971405999967828,332.1054672000464,None,None,1,,,,,,,,,,,,,,025,2022-05-19_13h50.09.266,Main,2022.1.1,59.972029028163185,
negative,yellow,1,k,None,,,,,,,,,0,61,61,61,,,,,,,,,,,,,,,,,main,None,None,1,1.5005903000128455,334.6026494000107,None,None,1,,,,,,,,,,,,,,025,2022-05-19_13h50.09.266,Main,2022.1.1,59.972029028163185,
negative,red,1,None,None,,,,,,,,,0,62,62,62,,,,,,,,,,,,,,,,,main,None,None,1,1.4964549000142142,337.10536119999597,None,None,1,,,,,,,,,,,,,,025,2022-05-19_13h50.09.266,Main,2022.1.1,59.972029028163185,
negative,blue,1,None,k,,,,,,,,,0,63,63,63,,,,,,,,,,,,,,,,,main,k,k,1,0.9522924000048079,339.6025412000017,None,None,0,,,,,,,,,,,,,,025,2022-05-19_13h50.09.266,Main,2022.1.1,59.972029028163185,
positive,blue,2,k,None,,,,,,,,,0,64,64,64,,,,,,,,,,,,,,,,,main,None,None,1,1.4987981999875046,341.5552926000091,None,None,1,,,,,,,,,,,,,,025,2022-05-19_13h50.09.266,Main,2022.1.1,59.972029028163185,
negative,yellow,2,k,None,,,,,,,,,0,65,65,65,,,,,,,,,,,,,,,,,main,None,None,1,1.4971070000319742,344.0552303000004,None,None,1,,,,,,,,,,,,,,025,2022-05-19_13h50.09.266,Main,2022.1.1,59.972029028163185,
positive,yellow,2,None,k,,,,,,,,,0,66,66,66,,,,,,,,,,,,,,,,,main,k,k,1,0.650899300002493,346.5524554000003,None,None,0,,,,,,,,,,,,,,025,2022-05-19_13h50.09.266,Main,2022.1.1,59.972029028163185,
positive,yellow,2,None,k,,,,,,,,,0,67,67,67,,,,,,,,,,,,,,,,,main,k,k,1,0.6660032999934629,348.2051144000143,None,None,0,,,,,,,,,,,,,,025,2022-05-19_13h50.09.266,Main,2022.1.1,59.972029028163185,
positive,red,1,None,None,,,,,,,,,0,68,68,68,,,,,,,,,,,,,,,,,main,None,None,1,1.4961630000034347,349.8718775000307,None,None,1,,,,,,,,,,,,,,025,2022-05-19_13h50.09.266,Main,2022.1.1,59.972029028163185,
positive,yellow,1,None,k,,,,,,,,,0,69,69,69,,,,,,,,,,,,,,,,,main,k,k,1,0.8826138000003994,352.36947740003234,None,None,0,,,,,,,,,,,,,,025,2022-05-19_13h50.09.266,Main,2022.1.1,59.972029028163185,
negative,yellow,2,k,None,,,,,,,,,0,70,70,70,,,,,,,,,,,,,,,,,main,None,None,1,1.4987368999863975,354.2529673000099,None,None,1,,,,,,,,,,,,,,025,2022-05-19_13h50.09.266,Main,2022.1.1,59.972029028163185,
positive,yellow,1,None,k,,,,,,,,,0,71,71,71,,,,,,,,,,,,,,,,,main,k,k,1,0.7161204000003636,356.7528307000175,None,None,0,,,,,,,,,,,,,,025,2022-05-19_13h50.09.266,Main,2022.1.1,59.972029028163185,
negative,blue,1,None,k,,,,,,,,,0,72,72,72,,,,,,,,,,,,,,,,,main,k,k,1,0.999185899971053,358.47152339998866,None,None,0,,,,,,,,,,,,,,025,2022-05-19_13h50.09.266,Main,2022.1.1,59.972029028163185,
negative,red,2,None,None,,,,,,,,,0,73,73,73,,,,,,,,,,,,,,,,,main,None,None,1,1.5009238999919035,360.46902230003616,None,None,1,,,,,,,,,,,,,,025,2022-05-19_13h50.09.266,Main,2022.1.1,59.972029028163185,
positive,blue,2,k,None,,,,,,,,,0,74,74,74,,,,,,,,,,,,,,,,,main,None,None,1,1.496588799986057,362.9690246999962,None,None,1,,,,,,,,,,,,,,025,2022-05-19_13h50.09.266,Main,2022.1.1,59.972029028163185,
negative,blue,2,None,k,,,,,,,,,0,75,75,75,,,,,,,,,,,,,,,,,main,k,k,1,0.7495355000137351,365.46868680004263,None,None,0,,,,,,,,,,,,,,025,2022-05-19_13h50.09.266,Main,2022.1.1,59.972029028163185,
negative,blue,2,None,k,,,,,,,,,0,76,76,76,,,,,,,,,,,,,,,,,main,k,k,1,0.6683308000210673,367.2187278000056,None,None,0,,,,,,,,,,,,,,025,2022-05-19_13h50.09.266,Main,2022.1.1,59.972029028163185,
negative,yellow,1,k,None,,,,,,,,,0,77,77,77,,,,,,,,,,,,,,,,,main,None,None,1,1.4988362000440247,368.888061500038,None,None,1,,,,,,,,,,,,,,025,2022-05-19_13h50.09.266,Main,2022.1.1,59.972029028163185,
positive,blue,1,k,None,,,,,,,,,0,78,78,78,,,,,,,,,,,,,,,,,main,None,None,1,1.497947599971667,371.38552489998983,None,None,1,,,,,,,,,,,,,,025,2022-05-19_13h50.09.266,Main,2022.1.1,59.972029028163185,
positive,blue,1,k,None,,,,,,,,,0,79,79,79,,,,,,,,,,,,,,,,,main,None,None,1,1.500037699996028,373.88517820002744,None,None,1,,,,,,,,,,,,,,025,2022-05-19_13h50.09.266,Main,2022.1.1,59.972029028163185,
positive,red,2,None,None,,,,,,,,,0,80,80,80,,,,,,,,,,,,,,,,,main,None,None,1,1.4992316999705508,376.3879111999995,None,None,1,,,,,,,,,,,,,,025,2022-05-19_13h50.09.266,Main,2022.1.1,59.972029028163185,
positive,yellow,2,None,k,,,,,,,,,0,81,81,81,,,,,,,,,,,,,,,,,main,k,k,1,0.9964254000224173,378.88784869998926,None,None,0,,,,,,,,,,,,,,025,2022-05-19_13h50.09.266,Main,2022.1.1,59.972029028163185,
positive,blue,1,k,None,,,,,,,,,0,82,82,82,,,,,,,,,,,,,,,,,main,None,None,1,1.5016720999847166,380.88504180003656,None,None,1,,,,,,,,,,,,,,025,2022-05-19_13h50.09.266,Main,2022.1.1,59.972029028163185,
negative,yellow,2,k,None,,,,,,,,,0,83,83,83,,,,,,,,,,,,,,,,,main,None,None,1,1.4969591000117362,383.38773570000194,None,None,1,,,,,,,,,,,,,,025,2022-05-19_13h50.09.266,Main,2022.1.1,59.972029028163185,
positive,blue,2,k,None,,,,,,,,,0,84,84,84,,,,,,,,,,,,,,,,,main,None,None,1,1.499318799993489,385.88758070004405,None,None,1,,,,,,,,,,,,,,025,2022-05-19_13h50.09.266,Main,2022.1.1,59.972029028163185,
positive,yellow,1,None,k,,,,,,,,,0,85,85,85,,,,,,,,,,,,,,,,,main,k,k,1,0.9813534999848343,388.3848903999897,None,None,0,,,,,,,,,,,,,,025,2022-05-19_13h50.09.266,Main,2022.1.1,59.972029028163185,
positive,blue,2,k,None,,,,,,,,,0,86,86,86,,,,,,,,,,,,,,,,,main,None,None,1,1.5001253000227734,390.36843490001047,None,None,1,,,,,,,,,,,,,,025,2022-05-19_13h50.09.266,Main,2022.1.1,59.972029028163185,
positive,blue,1,k,None,,,,,,,,,0,87,87,87,,,,,,,,,,,,,,,,,main,None,None,1,1.4983159999828786,392.87088510004105,None,None,1,,,,,,,,,,,,,,025,2022-05-19_13h50.09.266,Main,2022.1.1,59.972029028163185,
negative,yellow,2,k,None,,,,,,,,,0,88,88,88,,,,,,,,,,,,,,,,,main,None,None,1,1.4958989000297152,395.37083670002175,None,None,1,,,,,,,,,,,,,,025,2022-05-19_13h50.09.266,Main,2022.1.1,59.972029028163185,
negative,blue,2,None,k,,,,,,,,,0,89,89,89,,,,,,,,,,,,,,,,,main,k,k,1,0.8340600999654271,397.86817700002575,None,None,0,,,,,,,,,,,,,,025,2022-05-19_13h50.09.266,Main,2022.1.1,59.972029028163185,
positive,yellow,2,None,k,,,,,,,,,0,90,90,90,,,,,,,,,,,,,,,,,main,k,k,1,0.7157123000361025,399.70422630000394,None,None,0,,,,,,,,,,,,,,025,2022-05-19_13h50.09.266,Main,2022.1.1,59.972029028163185,
negative,yellow,1,k,None,,,,,,,,,0,91,91,91,,,,,,,,,,,,,,,,,main,None,None,1,1.4963796999654733,401.42071910004597,None,None,1,,,,,,,,,,,,,,025,2022-05-19_13h50.09.266,Main,2022.1.1,59.972029028163185,
negative,red,2,None,None,,,,,,,,,0,92,92,92,,,,,,,,,,,,,,,,,main,None,None,1,1.4997060000314377,403.91818340000464,None,None,1,,,,,,,,,,,,,,025,2022-05-19_13h50.09.266,Main,2022.1.1,59.972029028163185,
negative,blue,2,None,k,,,,,,,,,0,93,93,93,,,,,,,,,,,,,,,,,main,k,k,1,1.0008291999693029,406.4178774000029,None,None,0,,,,,,,,,,,,,,025,2022-05-19_13h50.09.266,Main,2022.1.1,59.972029028163185,
negative,blue,1,None,k,,,,,,,,,0,94,94,94,,,,,,,,,,,,,,,,,main,k,k,1,0.8325112000457011,408.42053880001185,None,None,0,,,,,,,,,,,,,,025,2022-05-19_13h50.09.266,Main,2022.1.1,59.972029028163185,
negative,blue,1,None,k,,,,,,,,,0,95,95,95,,,,,,,,,,,,,,,,,main,k,k,1,0.615942400007043,410.2538325000205,None,None,0,,,,,,,,,,,,,,025,2022-05-19_13h50.09.266,Main,2022.1.1,59.972029028163185,
negative,red,1,None,None,,,,,,,,,0,96,96,96,,,,,,,,,,,,,,,,,main,None,None,1,1.4972550000529736,411.8705065000104,None,None,1,,,,,,,,,,,,,,025,2022-05-19_13h50.09.266,Main,2022.1.1,59.972029028163185,
positive,yellow,1,None,k,,,,,,,,,0,97,97,97,,,,,,,,,,,,,,,,,main,k,k,1,0.631264999974519,414.36776620004093,None,None,0,,,,,,,,,,,,,,025,2022-05-19_13h50.09.266,Main,2022.1.1,59.972029028163185,
negative,yellow,1,k,None,,,,,,,,,0,98,98,98,,,,,,,,,,,,,,,,,main,None,None,1,1.5016436000005342,416.00103630003287,None,None,1,,,,,,,,,,,,,,025,2022-05-19_13h50.09.266,Main,2022.1.1,59.972029028163185,
positive,red,1,None,None,,,,,,,,,0,99,99,99,,,,,,,,,,,,,,,,,main,None,None,1,1.4970831000246108,418.50368800002616,None,None,1,,,,,,,,,,,,,,025,2022-05-19_13h50.09.266,Main,2022.1.1,59.972029028163185,
positive,blue,1,k,None,,,,,,,,,0,100,100,100,,,,,,,,,,,,,,,,,main,None,None,1,1.5005948999896646,421.0008672000258,None,None,1,,,,,,,,,,,,,,025,2022-05-19_13h50.09.266,Main,2022.1.1,59.972029028163185,
negative,yellow,1,k,None,,,,,,,,,0,101,101,101,,,,,,,,,,,,,,,,,main,None,None,1,1.4965513999923132,423.5035618999973,None,None,1,,,,,,,,,,,,,,025,2022-05-19_13h50.09.266,Main,2022.1.1,59.972029028163185,
negative,blue,2,None,k,,,,,,,,,0,102,102,102,,,,,,,,,,,,,,,,,main,k,k,1,0.9826227999874391,426.0065932000289,None,None,0,,,,,,,,,,,,,,025,2022-05-19_13h50.09.266,Main,2022.1.1,59.972029028163185,
negative,yellow,2,k,None,,,,,,,,,0,103,103,103,,,,,,,,,,,,,,,,,main,None,None,1,1.5016872999840416,427.98411120002856,None,None,1,,,,,,,,,,,,,,025,2022-05-19_13h50.09.266,Main,2022.1.1,59.972029028163185,
positive,yellow,2,None,k,,,,,,,,,0,104,104,104,,,,,,,,,,,,,,,,,main,k,k,1,0.682778199960012,430.4867755000014,None,None,0,,,,,,,,,,,,,,025,2022-05-19_13h50.09.266,Main,2022.1.1,59.972029028163185,
positive,blue,1,k,None,,,,,,,,,0,105,105,105,,,,,,,,,,,,,,,,,main,None,None,1,1.497301499999594,432.1700792000047,None,None,1,,,,,,,,,,,,,,025,2022-05-19_13h50.09.266,Main,2022.1.1,59.972029028163185,
positive,blue,2,k,None,,,,,,,,,0,106,106,106,,,,,,,,,,,,,,,,,main,None,None,1,1.50073520001024,434.667551200022,None,None,1,,,,,,,,,,,,,,025,2022-05-19_13h50.09.266,Main,2022.1.1,59.972029028163185,
negative,blue,1,None,k,,,,,,,,,0,107,107,107,,,,,,,,,,,,,,,,,main,k,k,1,0.6847384999855421,437.1700020999997,None,None,0,,,,,,,,,,,,,,025,2022-05-19_13h50.09.266,Main,2022.1.1,59.972029028163185,
positive,yellow,2,None,k,,,,,,,,,0,108,108,108,,,,,,,,,,,,,,,,,main,k,k,1,0.727523600042332,438.8597721999977,None,None,0,,,,,,,,,,,,,,025,2022-05-19_13h50.09.266,Main,2022.1.1,59.972029028163185,
negative,yellow,1,k,None,,,,,,,,,0,109,109,109,,,,,,,,,,,,,,,,,main,None,None,1,1.499509899993427,440.58410460001323,None,None,1,,,,,,,,,,,,,,025,2022-05-19_13h50.09.266,Main,2022.1.1,59.972029028163185,
negative,blue,2,None,k,,,,,,,,,0,110,110,110,,,,,,,,,,,,,,,,,main,k,k,1,0.782026200031396,443.08382510003867,None,None,0,,,,,,,,,,,,,,025,2022-05-19_13h50.09.266,Main,2022.1.1,59.972029028163185,
positive,blue,2,k,None,,,,,,,,,0,111,111,111,,,,,,,,,,,,,,,,,main,None,None,1,1.4982251000474207,444.86977720004506,None,None,1,,,,,,,,,,,,,,025,2022-05-19_13h50.09.266,Main,2022.1.1,59.972029028163185,
negative,blue,1,None,k,,,,,,,,,0,112,112,112,,,,,,,,,,,,,,,,,main,k,k,1,0.7161052000010386,447.36698710004566,None,None,0,,,,,,,,,,,,,,025,2022-05-19_13h50.09.266,Main,2022.1.1,59.972029028163185,
positive,yellow,1,None,k,,,,,,,,,0,113,113,113,,,,,,,,,,,,,,,,,main,k,k,1,0.851812900044024,449.08362879999913,None,None,0,,,,,,,,,,,,,,025,2022-05-19_13h50.09.266,Main,2022.1.1,59.972029028163185,
negative,red,1,None,None,,,,,,,,,0,114,114,114,,,,,,,,,,,,,,,,,main,None,None,1,1.4990831000031903,450.93633200001204,None,None,1,,,,,,,,,,,,,,025,2022-05-19_13h50.09.266,Main,2022.1.1,59.972029028163185,
positive,red,1,None,None,,,,,,,,,0,115,115,115,,,,,,,,,,,,,,,,,main,None,None,1,1.499067600001581,453.436296400032,None,None,1,,,,,,,,,,,,,,025,2022-05-19_13h50.09.266,Main,2022.1.1,59.972029028163185,
negative,red,2,None,None,,,,,,,,,0,116,116,116,,,,,,,,,,,,,,,,,main,None,None,1,1.4974339000182226,455.9337913999916,None,None,1,,,,,,,,,,,,,,025,2022-05-19_13h50.09.266,Main,2022.1.1,59.972029028163185,
negative,yellow,2,k,None,,,,,,,,,0,117,117,117,,,,,,,,,,,,,,,,,main,None,None,1,1.5007264000014402,458.4334874000051,None,None,1,,,,,,,,,,,,,,025,2022-05-19_13h50.09.266,Main,2022.1.1,59.972029028163185,
positive,yellow,1,None,k,,,,,,,,,0,118,118,118,,,,,,,,,,,,,,,,,main,k,k,1,0.7505599999567494,460.9361448000418,None,None,0,,,,,,,,,,,,,,025,2022-05-19_13h50.09.266,Main,2022.1.1,59.972029028163185,
positive,red,2,None,None,,,,,,,,,0,119,119,119,,,,,,,,,,,,,,,,,main,None,None,1,1.4968720999895595,462.68610039999476,None,None,1,,,,,,,,,,,,,,025,2022-05-19_13h50.09.266,Main,2022.1.1,59.972029028163185,
positive,blue,2,k,None,,,,,,,,,0,120,120,120,,,,,,,,,,,,,,,,,main,None,None,1,1.5006747999577783,465.1832900000154,None,None,1,,,,,,,,,,,,,,025,2022-05-19_13h50.09.266,Main,2022.1.1,59.972029028163185,
negative,red,1,None,None,,,,,,,,,0,121,121,121,,,,,,,,,,,,,,,,,main,None,None,1,1.498586500005331,467.6860123000224,None,None,1,,,,,,,,,,,,,,025,2022-05-19_13h50.09.266,Main,2022.1.1,59.972029028163185,
positive,yellow,2,None,k,,,,,,,,,0,122,122,122,,,,,,,,,,,,,,,,,main,k,k,1,0.9959367000265047,470.18597079999745,None,None,0,,,,,,,,,,,,,,025,2022-05-19_13h50.09.266,Main,2022.1.1,59.972029028163185,
negative,red,2,None,None,,,,,,,,,0,123,123,123,,,,,,,,,,,,,,,,,main,None,None,1,1.501408000010997,472.18315019999864,None,None,1,,,,,,,,,,,,,,025,2022-05-19_13h50.09.266,Main,2022.1.1,59.972029028163185,
negative,yellow,2,k,None,,,,,,,,,0,124,124,124,,,,,,,,,,,,,,,,,main,None,None,1,1.4992052000015974,474.6858165000449,None,None,1,,,,,,,,,,,,,,025,2022-05-19_13h50.09.266,Main,2022.1.1,59.972029028163185,
positive,red,1,None,None,,,,,,,,,0,125,125,125,,,,,,,,,,,,,,,,,main,None,None,1,1.4963348000310361,477.18348060001153,None,None,1,,,,,,,,,,,,,,025,2022-05-19_13h50.09.266,Main,2022.1.1,59.972029028163185,
negative,blue,2,None,k,,,,,,,,,0,126,126,126,,,,,,,,,,,,,,,,,main,k,k,1,1.367275000025984,479.6830078000203,None,None,0,,,,,,,,,,,,,,025,2022-05-19_13h50.09.266,Main,2022.1.1,59.972029028163185,
negative,blue,1,None,k,,,,,,,,,0,127,127,127,,,,,,,,,,,,,,,,,main,k,k,1,0.8338809999986552,482.05239220004296,None,None,0,,,,,,,,,,,,,,025,2022-05-19_13h50.09.266,Main,2022.1.1,59.972029028163185,
negative,yellow,1,k,None,,,,,,,,,0,128,128,128,,,,,,,,,,,,,,,,,main,None,None,1,1.4969132000114769,483.8856955000083,None,None,1,,,,,,,,,,,,,,025,2022-05-19_13h50.09.266,Main,2022.1.1,59.972029028163185,
negative,yellow,1,k,None,,,,,,,,,0,129,129,129,,,,,,,,,,,,,,,,,main,None,None,1,1.5006527999648824,486.38295440003276,None,None,1,,,,,,,,,,,,,,025,2022-05-19_13h50.09.266,Main,2022.1.1,59.972029028163185,
positive,blue,1,k,None,,,,,,,,,0,130,130,130,,,,,,,,,,,,,,,,,main,None,None,1,1.499899699992966,488.8855504000094,None,None,1,,,,,,,,,,,,,,025,2022-05-19_13h50.09.266,Main,2022.1.1,59.972029028163185,
negative,blue,1,None,k,,,,,,,,,0,131,131,131,,,,,,,,,,,,,,,,,main,k,k,1,1.1290379000129178,491.38303460000316,None,None,0,,,,,,,,,,,,,,025,2022-05-19_13h50.09.266,Main,2022.1.1,59.972029028163185,
negative,blue,2,None,k,,,,,,,,,0,132,132,132,,,,,,,,,,,,,,,,,main,k,k,1,0.6327870999812149,493.51605690002907,None,None,0,,,,,,,,,,,,,,025,2022-05-19_13h50.09.266,Main,2022.1.1,59.972029028163185,
positive,blue,2,k,None,,,,,,,,,0,133,133,133,,,,,,,,,,,,,,,,,main,None,None,1,1.5014245000202209,495.1493881000206,None,None,1,,,,,,,,,,,,,,025,2022-05-19_13h50.09.266,Main,2022.1.1,59.972029028163185,
positive,red,2,None,None,,,,,,,,,0,134,134,134,,,,,,,,,,,,,,,,,main,None,None,1,1.4967814999981783,497.6520395000116,None,None,1,,,,,,,,,,,,,,025,2022-05-19_13h50.09.266,Main,2022.1.1,59.972029028163185,
negative,yellow,2,k,None,,,,,,,,,0,135,135,135,,,,,,,,,,,,,,,,,main,None,None,1,1.4987108000204898,500.1495138000464,None,None,1,,,,,,,,,,,,,,025,2022-05-19_13h50.09.266,Main,2022.1.1,59.972029028163185,
positive,yellow,2,None,k,,,,,,,,,0,136,136,136,,,,,,,,,,,,,,,,,main,k,k,1,0.7185097999754362,502.6492025000043,None,None,0,,,,,,,,,,,,,,025,2022-05-19_13h50.09.266,Main,2022.1.1,59.972029028163185,
positive,blue,1,k,None,,,,,,,,,0,137,137,137,,,,,,,,,,,,,,,,,main,None,None,1,1.4989065999980085,504.3685851999908,None,None,1,,,,,,,,,,,,,,025,2022-05-19_13h50.09.266,Main,2022.1.1,59.972029028163185,
positive,yellow,1,None,k,,,,,,,,,0,138,138,138,,,,,,,,,,,,,,,,,main,k,k,1,0.796581199974753,506.8685261000064,None,None,0,,,,,,,,,,,,,,025,2022-05-19_13h50.09.266,Main,2022.1.1,59.972029028163185,
positive,yellow,1,None,k,,,,,,,,,0,139,139,139,,,,,,,,,,,,,,,,,main,k,k,1,0.5992495000245981,508.66574700002093,None,None,0,,,,,,,,,,,,,,025,2022-05-19_13h50.09.266,Main,2022.1.1,59.972029028163185,
positive,yellow,1,None,k,,,,,,,,,0,140,140,140,,,,,,,,,,,,,,,,,main,k,k,1,0.6018672999925911,510.2657465999946,None,None,0,,,,,,,,,,,,,,025,2022-05-19_13h50.09.266,Main,2022.1.1,59.972029028163185,
positive,blue,1,k,None,,,,,,,,,0,141,141,141,,,,,,,,,,,,,,,,,main,None,None,1,1.4960297999787144,511.8684069000301,None,None,1,,,,,,,,,,,,,,025,2022-05-19_13h50.09.266,Main,2022.1.1,59.972029028163185,
positive,blue,2,k,None,,,,,,,,,0,142,142,142,,,,,,,,,,,,,,,,,main,None,None,1,1.5054261000477709,514.3714308000053,None,None,1,,,,,,,,,,,,,,025,2022-05-19_13h50.09.266,Main,2022.1.1,59.972029028163185,
positive,yellow,2,None,k,,,,,,,,,0,143,143,143,,,,,,,,,,,,,,,,,main,k,k,1,0.7430180999799632,516.87100069999,None,None,0,,,,,,,,,,,,,,025,2022-05-19_13h50.09.266,Main,2022.1.1,59.972029028163185,
negative,yellow,2,k,None,,,,,,,,,0,144,144,144,,,,,,,,,,,,,,,,,main,None,None,1,1.5013647999730892,518.6155411000364,None,None,1,,,,,,,,,,,,,,025,2022-05-19_13h50.09.266,Main,2022.1.1,59.972029028163185,
negative,blue,2,None,k,,,,,,,,,0,145,145,145,,,,,,,,,,,,,,,,,main,k,k,1,0.7661008999566548,521.1182512000087,None,None,0,,,,,,,,,,,,,,025,2022-05-19_13h50.09.266,Main,2022.1.1,59.972029028163185,
negative,red,1,None,None,,,,,,,,,0,146,146,146,,,,,,,,,,,,,,,,,main,None,None,1,1.4969380999682471,522.8848438000423,None,None,1,,,,,,,,,,,,,,025,2022-05-19_13h50.09.266,Main,2022.1.1,59.972029028163185,
positive,blue,1,k,None,,,,,,,,,0,147,147,147,,,,,,,,,,,,,,,,,main,None,None,1,1.4986627000034787,525.3820962000173,None,None,1,,,,,,,,,,,,,,025,2022-05-19_13h50.09.266,Main,2022.1.1,59.972029028163185,
positive,yellow,1,None,k,,,,,,,,,0,148,148,148,,,,,,,,,,,,,,,,,main,k,k,1,0.9680378999910317,527.88215270004,None,None,0,,,,,,,,,,,,,,025,2022-05-19_13h50.09.266,Main,2022.1.1,59.972029028163185,
negative,red,2,None,None,,,,,,,,,0,149,149,149,,,,,,,,,,,,,,,,,main,None,None,1,1.4971086999867111,529.85138930002,None,None,1,,,,,,,,,,,,,,025,2022-05-19_13h50.09.266,Main,2022.1.1,59.972029028163185,
negative,blue,1,None,k,,,,,,,,,0,150,150,150,,,,,,,,,,,,,,,,,main,k,k,1,1.0654188999906182,532.3485646999907,None,None,0,,,,,,,,,,,,,,025,2022-05-19_13h50.09.266,Main,2022.1.1,59.972029028163185,
negative,yellow,2,k,None,,,,,,,,,0,151,151,151,,,,,,,,,,,,,,,,,main,None,None,1,1.5009360000258312,534.4152457000455,None,None,1,,,,,,,,,,,,,,025,2022-05-19_13h50.09.266,Main,2022.1.1,59.972029028163185,
negative,blue,2,None,k,,,,,,,,,0,152,152,152,,,,,,,,,,,,,,,,,main,k,k,1,1.0801399999763817,536.917886500014,None,None,0,,,,,,,,,,,,,,025,2022-05-19_13h50.09.266,Main,2022.1.1,59.972029028163185,
negative,yellow,1,k,None,,,,,,,,,0,153,153,153,,,,,,,,,,,,,,,,,main,None,None,1,1.499412700009998,538.9987286000396,None,None,1,,,,,,,,,,,,,,025,2022-05-19_13h50.09.266,Main,2022.1.1,59.972029028163185,
negative,blue,1,None,k,,,,,,,,,0,154,154,154,,,,,,,,,,,,,,,,,main,k,k,1,0.9006850000005215,541.4984855999937,None,None,0,,,,,,,,,,,,,,025,2022-05-19_13h50.09.266,Main,2022.1.1,59.972029028163185,
positive,yellow,2,None,k,,,,,,,,,0,155,155,155,,,,,,,,,,,,,,,,,main,k,k,1,0.7656843999866396,543.4013081000303,None,None,0,,,,,,,,,,,,,,025,2022-05-19_13h50.09.266,Main,2022.1.1,59.972029028163185,
positive,red,2,None,None,,,,,,,,,0,156,156,156,,,,,,,,,,,,,,,,,main,None,None,1,1.4971853999886662,545.1677666000323,None,None,1,,,,,,,,,,,,,,025,2022-05-19_13h50.09.266,Main,2022.1.1,59.972029028163185,
positive,red,1,None,None,,,,,,,,,0,157,157,157,,,,,,,,,,,,,,,,,main,None,None,1,1.5006130000110716,547.6649116000044,None,None,1,,,,,,,,,,,,,,025,2022-05-19_13h50.09.266,Main,2022.1.1,59.972029028163185,
positive,blue,2,k,None,,,,,,,,,0,158,158,158,,,,,,,,,,,,,,,,,main,None,None,1,1.499232399975881,550.1676120000193,None,None,1,,,,,,,,,,,,,,025,2022-05-19_13h50.09.266,Main,2022.1.1,59.972029028163185,
negative,yellow,1,k,None,,,,,,,,,0,159,159,159,,,,,,,,,,,,,,,,,main,None,None,1,1.4973936000023969,552.6675736000179,None,None,1,,,,,,,,,,,,,,025,2022-05-19_13h50.09.266,Main,2022.1.1,59.972029028163185,
negative,red,2,None,None,,,,,,,,,0,160,160,160,,,,,,,,,,,,,,,,,main,None,None,1,1.5006408999906853,555.1647533000214,None,None,1,,,,,,,,,,,,,,025,2022-05-19_13h50.09.266,Main,2022.1.1,59.972029028163185,
negative,blue,1,None,k,,,,,,,,,0,161,161,161,,,,,,,,,,,,,,,,,main,k,k,1,0.8635978999664076,557.6674641999998,None,None,0,,,,,,,,,,,,,,025,2022-05-19_13h50.09.266,Main,2022.1.1,59.972029028163185,
negative,blue,1,None,k,,,,,,,,,0,162,162,162,,,,,,,,,,,,,,,,,main,k,k,1,0.6486696000210941,559.5341329000075,None,None,0,,,,,,,,,,,,,,025,2022-05-19_13h50.09.266,Main,2022.1.1,59.972029028163185,
negative,yellow,1,k,None,,,,,,,,,0,163,163,163,,,,,,,,,,,,,,,,,main,None,None,1,1.5015400999691337,561.1813241000054,None,None,1,,,,,,,,,,,,,,025,2022-05-19_13h50.09.266,Main,2022.1.1,59.972029028163185,
negative,yellow,1,k,None,,,,,,,,,0,164,164,164,,,,,,,,,,,,,,,,,main,None,None,1,1.4978805999853648,563.6840413000318,None,None,1,,,,,,,,,,,,,,025,2022-05-19_13h50.09.266,Main,2022.1.1,59.972029028163185,
positive,yellow,1,None,k,,,,,,,,,0,165,165,165,,,,,,,,,,,,,,,,,main,k,k,1,0.9308413000544533,566.181276999996,None,None,0,,,,,,,,,,,,,,025,2022-05-19_13h50.09.266,Main,2022.1.1,59.972029028163185,
negative,red,1,None,None,,,,,,,,,0,166,166,166,,,,,,,,,,,,,,,,,main,None,None,1,1.5016023999778554,568.1145494999946,None,None,1,,,,,,,,,,,,,,025,2022-05-19_13h50.09.266,Main,2022.1.1,59.972029028163185,
negative,yellow,2,k,None,,,,,,,,,0,167,167,167,,,,,,,,,,,,,,,,,main,None,None,1,1.4973518999759108,570.6172127000173,None,None,1,,,,,,,,,,,,,,025,2022-05-19_13h50.09.266,Main,2022.1.1,59.972029028163185,
positive,blue,2,k,None,,,,,,,,,0,168,168,168,,,,,,,,,,,,,,,,,main,None,None,1,1.5005890000029467,573.1144333000411,None,None,1,,,,,,,,,,,,,,025,2022-05-19_13h50.09.266,Main,2022.1.1,59.972029028163185,
positive,red,2,None,None,,,,,,,,,0,169,169,169,,,,,,,,,,,,,,,,,main,None,None,1,1.4966782999690622,575.6170896000112,None,None,1,,,,,,,,,,,,,,025,2022-05-19_13h50.09.266,Main,2022.1.1,59.972029028163185,
positive,red,1,None,None,,,,,,,,,0,170,170,170,,,,,,,,,,,,,,,,,main,None,None,1,1.504034399986267,578.114561400027,None,None,1,,,,,,,,,,,,,,025,2022-05-19_13h50.09.266,Main,2022.1.1,59.972029028163185,
negative,blue,2,None,k,,,,,,,,,0,171,171,171,,,,,,,,,,,,,,,,,main,k,k,1,0.9437668000464328,580.6177594999899,None,None,0,,,,,,,,,,,,,,025,2022-05-19_13h50.09.266,Main,2022.1.1,59.972029028163185,
positive,blue,2,k,None,,,,,,,,,0,172,172,172,,,,,,,,,,,,,,,,,main,None,None,1,1.5012133999844082,582.5643428000039,None,None,1,,,,,,,,,,,,,,025,2022-05-19_13h50.09.266,Main,2022.1.1,59.972029028163185,
negative,yellow,2,k,None,,,,,,,,,0,173,173,173,,,,,,,,,,,,,,,,,main,None,None,1,1.498997299990151,585.0668845000328,None,None,1,,,,,,,,,,,,,,025,2022-05-19_13h50.09.266,Main,2022.1.1,59.972029028163185,
positive,yellow,2,None,k,,,,,,,,,0,174,174,174,,,,,,,,,,,,,,,,,main,k,k,1,0.6801550000091083,587.5669605000294,None,None,0,,,,,,,,,,,,,,025,2022-05-19_13h50.09.266,Main,2022.1.1,59.972029028163185,
negative,blue,2,None,k,,,,,,,,,0,175,175,175,,,,,,,,,,,,,,,,,main,k,k,1,0.9489416000433266,589.2499946000171,None,None,0,,,,,,,,,,,,,,025,2022-05-19_13h50.09.266,Main,2022.1.1,59.972029028163185,
positive,blue,1,k,None,,,,,,,,,0,176,176,176,,,,,,,,,,,,,,,,,main,None,None,1,1.5012753999908455,591.1976347000455,None,None,1,,,,,,,,,,,,,,025,2022-05-19_13h50.09.266,Main,2022.1.1,59.972029028163185,
positive,yellow,1,None,k,,,,,,,,,0,177,177,177,,,,,,,,,,,,,,,,,main,k,k,1,0.9302198000368662,593.69758919999,None,None,0,,,,,,,,,,,,,,025,2022-05-19_13h50.09.266,Main,2022.1.1,59.972029028163185,
positive,blue,1,k,None,,,,,,,,,0,178,178,178,,,,,,,,,,,,,,,,,main,None,None,1,1.5016327000339516,595.6305916000274,None,None,1,,,,,,,,,,,,,,025,2022-05-19_13h50.09.266,Main,2022.1.1,59.972029028163185,
positive,yellow,2,None,k,,,,,,,,,0,179,179,179,,,,,,,,,,,,,,,,,main,k,k,1,0.8328912000288256,598.1332797000068,None,None,0,,,,,,,,,,,,,,025,2022-05-19_13h50.09.266,Main,2022.1.1,59.972029028163185,
positive,blue,1,k,None,,,,,,,,,0,180,180,180,,,,,,,,,,,,,,,,,main,None,None,1,1.4966115999850444,599.9666998999892,None,None,1,,,,,,,,,,,,,,025,2022-05-19_13h50.09.266,Main,2022.1.1,59.972029028163185,
negative,red,1,None,None,,,,,,,,,0,181,181,181,,,,,,,,,,,,,,,,,main,None,None,1,1.498591400042642,602.4643053000327,None,None,1,,,,,,,,,,,,,,025,2022-05-19_13h50.09.266,Main,2022.1.1,59.972029028163185,
negative,blue,1,None,k,,,,,,,,,0,182,182,182,,,,,,,,,,,,,,,,,main,k,k,1,0.8685350999585353,604.964145200036,None,None,0,,,,,,,,,,,,,,025,2022-05-19_13h50.09.266,Main,2022.1.1,59.972029028163185,
negative,yellow,2,k,None,,,,,,,,,0,183,183,183,,,,,,,,,,,,,,,,,main,None,None,1,1.4988104999647476,606.8331066000392,None,None,1,,,,,,,,,,,,,,025,2022-05-19_13h50.09.266,Main,2022.1.1,59.972029028163185,
positive,yellow,2,None,k,,,,,,,,,0,184,184,184,,,,,,,,,,,,,,,,,main,k,k,1,0.596430900041014,609.3331132000312,None,None,0,,,,,,,,,,,,,,025,2022-05-19_13h50.09.266,Main,2022.1.1,59.972029028163185,
positive,yellow,1,None,k,,,,,,,,,0,185,185,185,,,,,,,,,,,,,,,,,main,k,k,1,0.7187001999700442,610.9302718000254,None,None,0,,,,,,,,,,,,,,025,2022-05-19_13h50.09.266,Main,2022.1.1,59.972029028163185,
positive,red,2,None,None,,,,,,,,,0,186,186,186,,,,,,,,,,,,,,,,,main,None,None,1,1.4989395000156946,612.6496479000198,None,None,1,,,,,,,,,,,,,,025,2022-05-19_13h50.09.266,Main,2022.1.1,59.972029028163185,
positive,blue,1,k,None,,,,,,,,,0,187,187,187,,,,,,,,,,,,,,,,,main,None,None,1,1.4973899000324309,615.1496284999885,None,None,1,,,,,,,,,,,,,,025,2022-05-19_13h50.09.266,Main,2022.1.1,59.972029028163185,
negative,yellow,1,k,None,,,,,,,,,0,188,188,188,,,,,,,,,,,,,,,,,main,None,None,1,1.500474700005725,617.6469180000131,None,None,1,,,,,,,,,,,,,,025,2022-05-19_13h50.09.266,Main,2022.1.1,59.972029028163185,
positive,yellow,2,None,k,,,,,,,,,0,189,189,189,,,,,,,,,,,,,,,,,main,k,k,1,0.7160786000313237,620.1495538000017,None,None,0,,,,,,,,,,,,,,025,2022-05-19_13h50.09.266,Main,2022.1.1,59.972029028163185,
negative,yellow,2,k,None,,,,,,,,,0,190,190,190,,,,,,,,,,,,,,,,,main,None,None,1,1.4969949999940582,621.8660809000139,None,None,1,,,,,,,,,,,,,,025,2022-05-19_13h50.09.266,Main,2022.1.1,59.972029028163185,
negative,yellow,1,k,None,,,,,,,,,0,191,191,191,,,,,,,,,,,,,,,,,main,None,None,1,1.5004938999773003,624.3636353000184,None,None,1,,,,,,,,,,,,,,025,2022-05-19_13h50.09.266,Main,2022.1.1,59.972029028163185,
positive,blue,2,k,None,,,,,,,,,0,192,192,192,,,,,,,,,,,,,,,,,main,None,None,1,1.496330099995248,626.8660346000106,None,None,1,,,,,,,,,,,,,,025,2022-05-19_13h50.09.266,Main,2022.1.1,59.972029028163185,
positive,yellow,1,None,k,,,,,,,,,0,193,193,193,,,,,,,,,,,,,,,,,main,k,k,1,0.7826335999998264,629.3632231000229,None,None,0,,,,,,,,,,,,,,025,2022-05-19_13h50.09.266,Main,2022.1.1,59.972029028163185,
negative,red,2,None,None,,,,,,,,,0,194,194,194,,,,,,,,,,,,,,,,,main,None,None,1,1.501736800011713,631.146581900015,None,None,1,,,,,,,,,,,,,,025,2022-05-19_13h50.09.266,Main,2022.1.1,59.972029028163185,
positive,red,1,None,None,,,,,,,,,0,195,195,195,,,,,,,,,,,,,,,,,main,None,None,1,1.498813699989114,633.6492384000449,None,None,1,,,,,,,,,,,,,,025,2022-05-19_13h50.09.266,Main,2022.1.1,59.972029028163185,
negative,blue,1,None,k,,,,,,,,,0,196,196,196,,,,,,,,,,,,,,,,,main,k,k,1,1.4469672999694012,636.1490901000216,None,None,0,,,,,,,,,,,,,,025,2022-05-19_13h50.09.266,Main,2022.1.1,59.972029028163185,
positive,blue,2,k,None,,,,,,,,,0,197,197,197,,,,,,,,,,,,,,,,,main,None,None,1,1.5015552999684587,638.5963728000061,None,None,1,,,,,,,,,,,,,,025,2022-05-19_13h50.09.266,Main,2022.1.1,59.972029028163185,
negative,blue,2,None,k,,,,,,,,,0,198,198,198,,,,,,,,,,,,,,,,,main,k,k,1,0.7158956999774091,641.099098900042,None,None,0,,,,,,,,,,,,,,025,2022-05-19_13h50.09.266,Main,2022.1.1,59.972029028163185,
negative,blue,2,None,k,,,,,,,,,0,199,199,199,,,,,,,,,,,,,,,,,main,k,k,1,0.5806140000349842,642.8156895000138,None,None,0,,,,,,,,,,,,,,025,2022-05-19_13h50.09.266,Main,2022.1.1,59.972029028163185,
positive,blue,2,k,None,,,,,,,,,0,200,200,200,,,,,,,,,,,,,,,,,main,None,None,1,1.5004354999982752,644.3962402000325,None,None,1,,,,,,,,,,,,,,025,2022-05-19_13h50.09.266,Main,2022.1.1,59.972029028163185,
positive,blue,2,k,None,,,,,,,,,0,201,201,201,,,,,,,,,,,,,,,,,main,None,None,1,1.4990944000310265,646.8989592000144,None,None,1,,,,,,,,,,,,,,025,2022-05-19_13h50.09.266,Main,2022.1.1,59.972029028163185,
negative,yellow,2,k,None,,,,,,,,,0,202,202,202,,,,,,,,,,,,,,,,,main,None,None,1,1.499794400006067,649.3989193000016,None,None,1,,,,,,,,,,,,,,025,2022-05-19_13h50.09.266,Main,2022.1.1,59.972029028163185,
positive,red,1,None,None,,,,,,,,,0,203,203,203,,,,,,,,,,,,,,,,,main,None,None,1,1.4963633000152186,651.8963566000457,None,None,1,,,,,,,,,,,,,,025,2022-05-19_13h50.09.266,Main,2022.1.1,59.972029028163185,
negative,blue,2,None,k,,,,,,,,,0,204,204,204,,,,,,,,,,,,,,,,,main,k,k,1,0.7316192999714985,654.3960892999894,None,None,0,,,,,,,,,,,,,,025,2022-05-19_13h50.09.266,Main,2022.1.1,59.972029028163185,
negative,red,1,None,None,,,,,,,,,0,205,205,205,,,,,,,,,,,,,,,,,main,None,None,1,1.5015881000435911,656.1293919000309,None,None,1,,,,,,,,,,,,,,025,2022-05-19_13h50.09.266,Main,2022.1.1,59.972029028163185,
negative,blue,2,None,k,,,,,,,,,0,206,206,206,,,,,,,,,,,,,,,,,main,k,k,1,0.7799667000072077,658.6320656000171,None,None,0,,,,,,,,,,,,,,025,2022-05-19_13h50.09.266,Main,2022.1.1,59.972029028163185,
negative,yellow,2,k,None,,,,,,,,,0,207,207,207,,,,,,,,,,,,,,,,,main,None,None,1,1.4990769000141881,660.4125709999935,None,None,1,,,,,,,,,,,,,,025,2022-05-19_13h50.09.266,Main,2022.1.1,59.972029028163185,
positive,yellow,2,None,k,,,,,,,,,0,208,208,208,,,,,,,,,,,,,,,,,main,k,k,1,0.7016004000324756,662.9125708999927,None,None,0,,,,,,,,,,,,,,025,2022-05-19_13h50.09.266,Main,2022.1.1,59.972029028163185,
negative,yellow,1,k,None,,,,,,,,,0,209,209,209,,,,,,,,,,,,,,,,,main,None,None,1,1.4987908999901265,664.6152581000351,None,None,1,,,,,,,,,,,,,,025,2022-05-19_13h50.09.266,Main,2022.1.1,59.972029028163185,
negative,red,2,None,None,,,,,,,,,0,210,210,210,,,,,,,,,,,,,,,,,main,None,None,1,1.497286300000269,667.1151983000454,None,None,1,,,,,,,,,,,,,,025,2022-05-19_13h50.09.266,Main,2022.1.1,59.972029028163185,
negative,blue,1,None,k,,,,,,,,,0,211,211,211,,,,,,,,,,,,,,,,,main,k,k,1,1.4675331999897026,669.6123720000032,None,None,0,,,,,,,,,,,,,,025,2022-05-19_13h50.09.266,Main,2022.1.1,59.972029028163185,
negative,yellow,1,k,None,,,,,,,,,0,212,212,212,,,,,,,,,,,,,,,,,main,None,None,1,1.501746199966874,672.0817621999886,None,None,1,,,,,,,,,,,,,,025,2022-05-19_13h50.09.266,Main,2022.1.1,59.972029028163185,
positive,blue,1,k,None,,,,,,,,,0,213,213,213,,,,,,,,,,,,,,,,,main,None,None,1,1.493656699953135,674.5826129000052,None,None,1,,,,,,,,,,,,,,025,2022-05-19_13h50.09.266,Main,2022.1.1,59.972029028163185,
positive,blue,1,k,None,,,,,,,,,0,214,214,214,,,,,,,,,,,,,,,,,main,None,None,1,1.499271199980285,677.0791267000022,None,None,1,,,,,,,,,,,,,,025,2022-05-19_13h50.09.266,Main,2022.1.1,59.972029028163185,
positive,yellow,1,None,k,,,,,,,,,0,215,215,215,,,,,,,,,,,,,,,,,main,k,k,1,0.8349805999896489,679.5791178999934,None,None,0,,,,,,,,,,,,,,025,2022-05-19_13h50.09.266,Main,2022.1.1,59.972029028163185,
positive,yellow,1,None,k,,,,,,,,,0,216,216,216,,,,,,,,,,,,,,,,,main,k,k,1,0.5475945000071079,681.4124509000103,None,None,0,,,,,,,,,,,,,,025,2022-05-19_13h50.09.266,Main,2022.1.1,59.972029028163185,
positive,yellow,2,None,k,,,,,,,,,0,217,217,217,,,,,,,,,,,,,,,,,main,k,k,1,0.7145381000009365,682.9621068999986,None,None,0,,,,,,,,,,,,,,025,2022-05-19_13h50.09.266,Main,2022.1.1,59.972029028163185,
negative,blue,1,None,k,,,,,,,,,0,218,218,218,,,,,,,,,,,,,,,,,main,k,k,1,0.7343498999834992,684.678760800045,None,None,0,,,,,,,,,,,,,,025,2022-05-19_13h50.09.266,Main,2022.1.1,59.972029028163185,
positive,red,2,None,None,,,,,,,,,0,219,219,219,,,,,,,,,,,,,,,,,main,None,None,1,1.4988784000161104,686.4148031999939,None,None,1,,,,,,,,,,,,,,025,2022-05-19_13h50.09.266,Main,2022.1.1,59.972029028163185,
positive,yellow,1,None,k,,,,,,,,,0,220,220,220,,,,,,,,,,,,,,,,,main,k,k,1,0.8477092999964952,688.9120814999915,None,None,0,,,,,,,,,,,,,,025,2022-05-19_13h50.09.266,Main,2022.1.1,59.972029028163185,
positive,blue,1,k,None,,,,,,,,,0,221,221,221,,,,,,,,,,,,,,,,,main,None,None,1,1.5002379000070505,690.7619571000105,None,None,1,,,,,,,,,,,,,,025,2022-05-19_13h50.09.266,Main,2022.1.1,59.972029028163185,
positive,yellow,2,None,k,,,,,,,,,0,222,222,222,,,,,,,,,,,,,,,,,main,k,k,1,0.9659644999774173,693.2646723000216,None,None,0,,,,,,,,,,,,,,025,2022-05-19_13h50.09.266,Main,2022.1.1,59.972029028163185,
negative,yellow,1,k,None,,,,,,,,,0,223,223,223,,,,,,,,,,,,,,,,,main,None,None,1,1.4972806999576278,695.2312911000336,None,None,1,,,,,,,,,,,,,,025,2022-05-19_13h50.09.266,Main,2022.1.1,59.972029028163185,
positive,yellow,2,None,k,,,,,,,,,0,224,224,224,,,,,,,,,,,,,,,,,main,k,k,1,0.7342718999716453,697.7285514000105,None,None,0,,,,,,,,,,,,,,025,2022-05-19_13h50.09.266,Main,2022.1.1,59.972029028163185,
negative,yellow,2,k,None,,,,,,,,,0,225,225,225,,,,,,,,,,,,,,,,,main,None,None,1,1.4962046999717131,699.464976200019,None,None,1,,,,,,,,,,,,,,025,2022-05-19_13h50.09.266,Main,2022.1.1,59.972029028163185,
negative,blue,2,None,k,,,,,,,,,0,226,226,226,,,,,,,,,,,,,,,,,main,k,k,1,1.0682334000011906,701.9619938000105,None,None,0,,,,,,,,,,,,,,025,2022-05-19_13h50.09.266,Main,2022.1.1,59.972029028163185,
positive,red,2,None,None,,,,,,,,,0,227,227,227,,,,,,,,,,,,,,,,,main,None,None,1,1.4972314999904484,704.0310264000436,None,None,1,,,,,,,,,,,,,,025,2022-05-19_13h50.09.266,Main,2022.1.1,59.972029028163185,
positive,blue,2,k,None,,,,,,,,,0,228,228,228,,,,,,,,,,,,,,,,,main,None,k,0,0.7176554999896325,706.528344099992,None,None,1,,,,,,,,,,,,,,025,2022-05-19_13h50.09.266,Main,2022.1.1,59.972029028163185,
negative,blue,1,None,k,,,,,,,,,0,229,229,229,,,,,,,,,,,,,,,,,main,k,k,1,0.6820596000179648,709.2476645000279,None,None,0,,,,,,,,,,,,,,025,2022-05-19_13h50.09.266,Main,2022.1.1,59.972029028163185,
positive,yellow,1,None,k,,,,,,,,,0,230,230,230,,,,,,,,,,,,,,,,,main,k,k,1,0.765668599982746,710.9285023999983,None,None,0,,,,,,,,,,,,,,025,2022-05-19_13h50.09.266,Main,2022.1.1,59.972029028163185,
negative,blue,2,None,k,,,,,,,,,0,231,231,231,,,,,,,,,,,,,,,,,main,k,k,1,0.8320082999998704,712.7005998000386,None,None,0,,,,,,,,,,,,,,025,2022-05-19_13h50.09.266,Main,2022.1.1,59.972029028163185,
negative,red,1,None,None,,,,,,,,,0,232,232,232,,,,,,,,,,,,,,,,,main,None,None,1,1.5017926000291482,714.5281287000398,None,None,1,,,,,,,,,,,,,,025,2022-05-19_13h50.09.266,Main,2022.1.1,59.972029028163185,
positive,blue,2,k,None,,,,,,,,,0,233,233,233,,,,,,,,,,,,,,,,,main,None,None,1,1.4965410999720916,717.0308153000078,None,None,1,,,,,,,,,,,,,,025,2022-05-19_13h50.09.266,Main,2022.1.1,59.972029028163185,
negative,yellow,1,k,None,,,,,,,,,0,234,234,234,,,,,,,,,,,,,,,,,main,None,None,1,1.4996516999672167,719.5283367999946,None,None,1,,,,,,,,,,,,,,025,2022-05-19_13h50.09.266,Main,2022.1.1,59.972029028163185,
negative,yellow,2,k,None,,,,,,,,,0,235,235,235,,,,,,,,,,,,,,,,,main,None,None,1,1.5006839000270702,722.0279870000086,None,None,1,,,,,,,,,,,,,,025,2022-05-19_13h50.09.266,Main,2022.1.1,59.972029028163185,
positive,red,1,None,None,,,,,,,,,0,236,236,236,,,,,,,,,,,,,,,,,main,None,None,1,1.4989699000143446,724.5306926000048,None,None,1,,,,,,,,,,,,,,025,2022-05-19_13h50.09.266,Main,2022.1.1,59.972029028163185,
negative,red,2,None,None,,,,,,,,,0,237,237,237,,,,,,,,,,,,,,,,,main,None,None,1,1.496984799974598,727.030656900024,None,None,1,,,,,,,,,,,,,,025,2022-05-19_13h50.09.266,Main,2022.1.1,59.972029028163185,
negative,blue,1,None,k,,,,,,,,,0,238,238,238,,,,,,,,,,,,,,,,,main,k,k,1,0.9493559999973513,729.5281172000105,None,None,0,,,,,,,,,,,,,,025,2022-05-19_13h50.09.266,Main,2022.1.1,59.972029028163185,
positive,blue,1,k,None,,,,,,,,,0,239,239,239,,,,,,,,,,,,,,,,,main,None,None,1,1.4984044999582693,731.4804293999914,None,None,1,,,,,,,,,,,,,,025,2022-05-19_13h50.09.266,Main,2022.1.1,59.972029028163185,
,,,,,,,,,,,,,,,,,,,,,,,,,,,,,,,,,,,,,,,,,,,,,,,,,,,,,733.9803324000095,None,,,,,,
