distractor,target,set,ans1,ans2,rep_loop4.thisRepN,rep_loop4.thisTrialN,rep_loop4.thisN,rep_loop4.thisIndex,st2_prac_loop.thisRepN,st2_prac_loop.thisTrialN,st2_prac_loop.thisN,st2_prac_loop.thisIndex,st2_main_loop.thisRepN,st2_main_loop.thisTrialN,st2_main_loop.thisN,st2_main_loop.thisIndex,image_4.started,image_4.stopped,sound_2.started,sound_2.stopped,key_resp_3.keys,key_resp_3.rt,image_5.started,image_5.stopped,st_prac_back.started,st_prac_back.stopped,st_prac_text.started,st_prac_text.stopped,st_fix_back.started,st_fix_back.stopped,st_fix_2.started,st_fix_2.stopped,main_prac,st_ans,st_res,st_corr,st_rt,st_back.started,st_back.stopped,st2_resp.keys,st2_resp.corr,st_main_back.started,st_main_back.stopped,st_main_text.started,st_main_text.stopped,mouse_4.x,mouse_4.y,mouse_4.leftButton,mouse_4.midButton,mouse_4.rightButton,mouse_4.started,mouse_4.stopped,text_2.started,text_2.stopped,id*,date,expName,psychopyVersion,frameRate,
negative,yellow,1,k,None,,,,,0,0,0,0,,,,,28.94902210001601,None,32.765652990021046,None,space,59.36881060001906,92.16400000004796,None,93.44516510004178,None,93.44516510004178,None,95.44511990004685,None,95.44511990004685,None,prac,k,k,1,1.9851077999919653,97.45405480003683,None,None,0,,,,,,,,,,,,,,026,2022-05-19_19h32.09.695,Main,2022.1.1,61.195166074670695,
positive,red,2,None,None,,,,,0,1,1,1,,,,,,,,,,,,,,,,,,,,,prac,None,None,1,1.498625300009735,101.44510910002282,None,None,1,,,,,,,,,,,,,,026,2022-05-19_19h32.09.695,Main,2022.1.1,61.195166074670695,
negative,blue,2,None,k,,,,,0,2,2,2,,,,,,,,,,,,,,,,,,,,,prac,None,None,1,1.498832900018897,103.94488890003413,None,None,1,,,,,,,,,,,,,,026,2022-05-19_19h32.09.695,Main,2022.1.1,61.195166074670695,
positive,yellow,1,None,k,,,,,0,3,3,3,,,,,,,,,,,,,,,,,,,,,prac,None,None,1,1.4995601000264287,106.44501020002645,None,None,1,,,,,,,,,,,,,,026,2022-05-19_19h32.09.695,Main,2022.1.1,61.195166074670695,
negative,blue,2,None,k,,,,,0,4,4,4,,,,,,,,,,,,,,,,,,,,,prac,None,None,1,1.5007439000182785,108.94470829999773,None,None,1,,,,,,,,,,,,,,026,2022-05-19_19h32.09.695,Main,2022.1.1,61.195166074670695,
negative,blue,1,None,k,,,,,0,5,5,5,,,,,,,,,,,,,,,,,,,,,prac,None,None,1,1.496303900028579,111.44501360005233,None,None,1,,,,,,,,,,,,,,026,2022-05-19_19h32.09.695,Main,2022.1.1,61.195166074670695,
negative,yellow,2,k,None,,,,,0,6,6,6,,,,,,,,,,,,,,,,,,,,,prac,k,k,1,0.9666711000027135,113.94495820003795,None,None,0,,,,,,,,,,,,,,026,2022-05-19_19h32.09.695,Main,2022.1.1,61.195166074670695,
negative,red,1,None,None,,,,,0,7,7,7,,,,,,,,,,,,,,,,,,,,,prac,None,k,0,-0.7183301000040956,115.91597040003398,None,None,1,,,,,,,,,,,,,,026,2022-05-19_19h32.09.695,Main,2022.1.1,61.195166074670695,
positive,yellow,2,None,k,,,,,0,8,8,8,,,,,,,,,,,,,,,,,,,,,prac,None,None,1,1.5012529999949038,119.19713169999886,None,None,1,,,,,,,,,,,,,,026,2022-05-19_19h32.09.695,Main,2022.1.1,61.195166074670695,
negative,yellow,1,k,None,,,,,0,9,9,9,,,,,,,,,,,,,,,,,,,,,prac,k,k,1,1.3289990000193939,121.6970777999959,None,None,0,,,,,,,,,,,,,,026,2022-05-19_19h32.09.695,Main,2022.1.1,61.195166074670695,
positive,yellow,2,None,k,,,,,0,10,10,10,,,,,,,,,,,,,,,,,,,,,prac,None,None,1,1.5013762000016868,124.0276744000148,None,None,1,,,,,,,,,,,,,,026,2022-05-19_19h32.09.695,Main,2022.1.1,61.195166074670695,
negative,yellow,2,k,None,,,,,0,11,11,11,,,,,,,,,,,,,,,,,,,,,prac,k,k,1,1.0638669000472873,126.52801880001789,None,None,0,,,,,,,,,,,,,,026,2022-05-19_19h32.09.695,Main,2022.1.1,61.195166074670695,
negative,red,2,None,None,,,,,0,12,12,12,,,,,,,,,,,,,,,,,,,,,prac,None,None,1,1.4992237000260502,128.59466120001161,None,None,1,,,,,,,,,,,,,,026,2022-05-19_19h32.09.695,Main,2022.1.1,61.195166074670695,
positive,red,1,None,None,,,,,0,13,13,13,,,,,,,,,,,,,,,,,,,,,prac,None,None,1,1.498362599988468,131.09425720002037,None,None,1,,,,,,,,,,,,,,026,2022-05-19_19h32.09.695,Main,2022.1.1,61.195166074670695,
positive,blue,2,k,None,,,,,0,14,14,14,,,,,,,,,,,,,,,,,,,,,prac,k,k,1,0.6826023999601603,133.5945675999974,None,None,0,,,,,,,,,,,,,,026,2022-05-19_19h32.09.695,Main,2022.1.1,61.195166074670695,
positive,blue,1,k,None,,,,,0,15,15,15,,,,,,,,,,,,,,,,,,,,,prac,k,k,1,0.7314785000053234,135.27763180003967,None,None,0,,,,,,,,,,,,,,026,2022-05-19_19h32.09.695,Main,2022.1.1,61.195166074670695,
negative,blue,1,None,k,,,,,0,16,16,16,,,,,,,,,,,,,,,,,,,,,prac,None,None,1,1.5012364000431262,137.01076850004029,None,None,1,,,,,,,,,,,,,,026,2022-05-19_19h32.09.695,Main,2022.1.1,61.195166074670695,
positive,blue,2,k,None,,,,,0,17,17,17,,,,,,,,,,,,,,,,,,,,,prac,k,k,1,1.49700600001961,139.5135275000357,None,None,0,,,,,,,,,,,,,,026,2022-05-19_19h32.09.695,Main,2022.1.1,61.195166074670695,
positive,blue,1,k,None,,,,,0,18,18,18,,,,,,,,,,,,,,,,,,,,,prac,k,k,1,1.0001698999549262,142.0109506000299,None,None,0,,,,,,,,,,,,,,026,2022-05-19_19h32.09.695,Main,2022.1.1,61.195166074670695,
positive,yellow,1,None,k,,,,,0,19,19,19,,,,,,,,,,,,,,,,,,,,,prac,None,None,1,1.4988495000288822,144.01085750001948,None,None,1,,,,,,,,,,,,,,026,2022-05-19_19h32.09.695,Main,2022.1.1,61.195166074670695,
negative,yellow,1,k,None,,,,,1,0,20,0,,,,,,,,,,,,,,,,,,,,,prac,k,k,1,0.9310021999990568,146.51083899999503,None,None,0,,,,,,,,,,,,,,026,2022-05-19_19h32.09.695,Main,2022.1.1,61.195166074670695,
positive,red,2,None,None,,,,,1,1,21,1,,,,,,,,,,,,,,,,,,,,,prac,None,None,1,1.4988605999969877,148.4442256000475,None,None,1,,,,,,,,,,,,,,026,2022-05-19_19h32.09.695,Main,2022.1.1,61.195166074670695,
negative,blue,2,None,k,,,,,1,2,22,2,,,,,,,,,,,,,,,,,,,,,prac,None,None,1,1.4991516000009142,150.9442463000305,None,None,1,,,,,,,,,,,,,,026,2022-05-19_19h32.09.695,Main,2022.1.1,61.195166074670695,
positive,yellow,1,None,k,,,,,1,3,23,3,,,,,,,,,,,,,,,,,,,,,prac,None,None,1,1.4991185999824665,153.44642390002264,None,None,1,,,,,,,,,,,,,,026,2022-05-19_19h32.09.695,Main,2022.1.1,61.195166074670695,
negative,blue,2,None,k,,,,,1,4,24,4,,,,,,,,,,,,,,,,,,,,,prac,None,None,1,1.4993959999992512,155.94427830004133,None,None,1,,,,,,,,,,,,,,026,2022-05-19_19h32.09.695,Main,2022.1.1,61.195166074670695,
negative,blue,1,None,k,,,,,1,5,25,5,,,,,,,,,,,,,,,,,,,,,prac,None,None,1,1.4986443999805488,158.44421139999758,None,None,1,,,,,,,,,,,,,,026,2022-05-19_19h32.09.695,Main,2022.1.1,61.195166074670695,
negative,yellow,2,k,None,,,,,1,6,26,6,,,,,,,,,,,,,,,,,,,,,prac,k,k,1,0.9160009999759495,160.94418450002559,None,None,0,,,,,,,,,,,,,,026,2022-05-19_19h32.09.695,Main,2022.1.1,61.195166074670695,
negative,red,1,None,None,,,,,1,7,27,7,,,,,,,,,,,,,,,,,,,,,prac,None,None,1,1.50123649998568,162.8605848000152,None,None,1,,,,,,,,,,,,,,026,2022-05-19_19h32.09.695,Main,2022.1.1,61.195166074670695,
positive,yellow,2,None,k,,,,,1,8,28,8,,,,,,,,,,,,,,,,,,,,,prac,None,None,1,1.4978073999518529,165.3604632000206,None,None,1,,,,,,,,,,,,,,026,2022-05-19_19h32.09.695,Main,2022.1.1,61.195166074670695,
negative,yellow,1,k,None,,,,,1,9,29,9,,,,,,,,,,,,,,,,,,,,,prac,k,k,1,0.8973755000042729,167.86043719999725,None,None,0,,,,,,,,,,,,,,026,2022-05-19_19h32.09.695,Main,2022.1.1,61.195166074670695,
positive,yellow,2,None,k,,,,,1,10,30,10,,,,,,,,,,,,,,,,,,,,,prac,None,None,1,1.498702900018543,169.76040349999676,None,None,1,,,,,,,,,,,,,,026,2022-05-19_19h32.09.695,Main,2022.1.1,61.195166074670695,
negative,yellow,2,k,None,,,,,1,11,31,11,,,,,,,,,,,,,,,,,,,,,prac,k,k,1,0.983103500038851,172.26054720004322,None,None,0,,,,,,,,,,,,,,026,2022-05-19_19h32.09.695,Main,2022.1.1,61.195166074670695,
negative,red,2,None,None,,,,,1,12,32,12,,,,,,,,,,,,,,,,,,,,,prac,None,None,1,1.4992249000351876,174.24362970003858,None,None,1,,,,,,,,,,,,,,026,2022-05-19_19h32.09.695,Main,2022.1.1,61.195166074670695,
positive,red,1,None,None,,,,,1,13,33,13,,,,,,,,,,,,,,,,,,,,,prac,None,None,1,1.4977504999842495,176.74354440002935,None,None,1,,,,,,,,,,,,,,026,2022-05-19_19h32.09.695,Main,2022.1.1,61.195166074670695,
positive,blue,2,k,None,,,,,1,14,34,14,,,,,,,,,,,,,,,,,,,,,prac,k,k,1,0.7662445999449119,179.24351210001623,None,None,0,,,,,,,,,,,,,,026,2022-05-19_19h32.09.695,Main,2022.1.1,61.195166074670695,
positive,blue,1,k,None,,,,,1,15,35,15,,,,,,,,,,,,,,,,,,,,,prac,k,k,1,1.2487615999998525,181.01017550000688,None,None,0,,,,,,,,,,,,,,026,2022-05-19_19h32.09.695,Main,2022.1.1,61.195166074670695,
negative,blue,1,None,k,,,,,1,16,36,16,,,,,,,,,,,,,,,,,,,,,prac,None,None,1,1.5013751999940723,183.25981290003983,None,None,1,,,,,,,,,,,,,,026,2022-05-19_19h32.09.695,Main,2022.1.1,61.195166074670695,
positive,blue,2,k,None,,,,,1,17,37,17,,,,,,,,,,,,,,,,,,,,,prac,k,k,1,1.080647199996747,185.7625216000015,None,None,0,,,,,,,,,,,,,,026,2022-05-19_19h32.09.695,Main,2022.1.1,61.195166074670695,
positive,blue,1,k,None,,,,,1,18,38,18,,,,,,,,,,,,,,,,,,,,,prac,k,k,1,0.7990227000555024,187.84346300002653,None,None,0,,,,,,,,,,,,,,026,2022-05-19_19h32.09.695,Main,2022.1.1,61.195166074670695,
positive,yellow,1,None,k,,,,,1,19,39,19,,,,,,,,,,,,,,,,,,,,,prac,None,None,1,1.5011453999904916,189.64329570002155,None,None,1,,,,,,,,,,,,,,026,2022-05-19_19h32.09.695,Main,2022.1.1,61.195166074670695,
,,,,,,,,,,,,,,,,,,,,,,,,,,,,,,,,,,,,,,,,,,192.14324890001444,None,192.14324890001444,None,0.036111113,0.06574074,0,0,0,0.014340889931190759,None,,,026,2022-05-19_19h32.09.695,Main,2022.1.1,61.195166074670695,
negative,yellow,2,k,None,,,,,,,,,0,0,0,0,,,,,,,,,,,,,193.29324150003958,None,193.29324150003958,None,main,k,k,1,1.4387351000332274,195.3293040000135,None,None,0,,,,,,,,,,,,,,026,2022-05-19_19h32.09.695,Main,2022.1.1,61.195166074670695,
positive,red,1,None,None,,,,,,,,,0,1,1,1,,,,,,,,,,,,,,,,,main,None,None,1,1.4985584000241943,197.77649190003285,None,None,1,,,,,,,,,,,,,,026,2022-05-19_19h32.09.695,Main,2022.1.1,61.195166074670695,
positive,blue,2,k,None,,,,,,,,,0,2,2,2,,,,,,,,,,,,,,,,,main,k,k,1,1.249981100030709,200.27618870005244,None,None,0,,,,,,,,,,,,,,026,2022-05-19_19h32.09.695,Main,2022.1.1,61.195166074670695,
positive,blue,1,k,None,,,,,,,,,0,3,3,3,,,,,,,,,,,,,,,,,main,k,k,1,0.7659659999771975,202.52654940000502,None,None,0,,,,,,,,,,,,,,026,2022-05-19_19h32.09.695,Main,2022.1.1,61.195166074670695,
negative,yellow,2,k,None,,,,,,,,,0,4,4,4,,,,,,,,,,,,,,,,,main,k,k,1,1.4480598000227474,204.28750120004406,None,None,0,,,,,,,,,,,,,,026,2022-05-19_19h32.09.695,Main,2022.1.1,61.195166074670695,
positive,yellow,2,None,k,,,,,,,,,0,5,5,5,,,,,,,,,,,,,,,,,main,None,None,1,1.4997911999817006,206.7428920000093,None,None,1,,,,,,,,,,,,,,026,2022-05-19_19h32.09.695,Main,2022.1.1,61.195166074670695,
negative,blue,2,None,k,,,,,,,,,0,6,6,6,,,,,,,,,,,,,,,,,main,None,None,1,1.4976552000152878,209.24296170001617,None,None,1,,,,,,,,,,,,,,026,2022-05-19_19h32.09.695,Main,2022.1.1,61.195166074670695,
positive,red,2,None,None,,,,,,,,,0,7,7,7,,,,,,,,,,,,,,,,,main,None,None,1,1.499684199981857,211.7487162000034,None,None,1,,,,,,,,,,,,,,026,2022-05-19_19h32.09.695,Main,2022.1.1,61.195166074670695,
positive,yellow,1,None,k,,,,,,,,,0,8,8,8,,,,,,,,,,,,,,,,,main,None,None,1,1.49904179997975,214.24284479999915,None,None,1,,,,,,,,,,,,,,026,2022-05-19_19h32.09.695,Main,2022.1.1,61.195166074670695,
negative,red,1,None,None,,,,,,,,,0,9,9,9,,,,,,,,,,,,,,,,,main,None,None,1,1.4994904000195675,216.74307900003623,None,None,1,,,,,,,,,,,,,,026,2022-05-19_19h32.09.695,Main,2022.1.1,61.195166074670695,
positive,yellow,1,None,k,,,,,,,,,0,10,10,10,,,,,,,,,,,,,,,,,main,None,None,1,1.5005793999880552,219.24269390001427,None,None,1,,,,,,,,,,,,,,026,2022-05-19_19h32.09.695,Main,2022.1.1,61.195166074670695,
negative,yellow,1,k,None,,,,,,,,,0,11,11,11,,,,,,,,,,,,,,,,,main,k,k,1,0.7971244000364095,221.7452379000024,None,None,0,,,,,,,,,,,,,,026,2022-05-19_19h32.09.695,Main,2022.1.1,61.195166074670695,
negative,yellow,1,k,None,,,,,,,,,0,12,12,12,,,,,,,,,,,,,,,,,main,k,k,1,0.715475199976936,223.54289470001822,None,None,0,,,,,,,,,,,,,,026,2022-05-19_19h32.09.695,Main,2022.1.1,61.195166074670695,
negative,red,2,None,None,,,,,,,,,0,13,13,13,,,,,,,,,,,,,,,,,main,None,None,1,1.499588800012134,225.26160550001077,None,None,1,,,,,,,,,,,,,,026,2022-05-19_19h32.09.695,Main,2022.1.1,61.195166074670695,
positive,yellow,2,None,k,,,,,,,,,0,14,14,14,,,,,,,,,,,,,,,,,main,None,None,1,1.5003987000091001,227.75901199999498,None,None,1,,,,,,,,,,,,,,026,2022-05-19_19h32.09.695,Main,2022.1.1,61.195166074670695,
positive,blue,1,k,None,,,,,,,,,0,15,15,15,,,,,,,,,,,,,,,,,main,k,k,1,1.0303748999722302,230.26165210001636,None,None,0,,,,,,,,,,,,,,026,2022-05-19_19h32.09.695,Main,2022.1.1,61.195166074670695,
negative,blue,1,None,k,,,,,,,,,0,16,16,16,,,,,,,,,,,,,,,,,main,None,None,1,1.4989681000006385,232.2924231000361,None,None,1,,,,,,,,,,,,,,026,2022-05-19_19h32.09.695,Main,2022.1.1,61.195166074670695,
positive,blue,2,k,None,,,,,,,,,0,17,17,17,,,,,,,,,,,,,,,,,main,k,k,1,0.8827758000115864,234.7923289000173,None,None,0,,,,,,,,,,,,,,026,2022-05-19_19h32.09.695,Main,2022.1.1,61.195166074670695,
negative,blue,2,None,k,,,,,,,,,0,18,18,18,,,,,,,,,,,,,,,,,main,None,None,1,1.5044986000284553,236.6756752000074,None,None,1,,,,,,,,,,,,,,026,2022-05-19_19h32.09.695,Main,2022.1.1,61.195166074670695,
negative,blue,1,None,k,,,,,,,,,0,19,19,19,,,,,,,,,,,,,,,,,main,None,None,1,1.4955321000306867,239.17961470002774,None,None,1,,,,,,,,,,,,,,026,2022-05-19_19h32.09.695,Main,2022.1.1,61.195166074670695,
negative,blue,1,None,k,,,,,,,,,0,20,20,20,,,,,,,,,,,,,,,,,main,None,None,1,1.4976597999921069,241.67787010001484,None,None,1,,,,,,,,,,,,,,026,2022-05-19_19h32.09.695,Main,2022.1.1,61.195166074670695,
negative,blue,2,None,k,,,,,,,,,0,21,21,21,,,,,,,,,,,,,,,,,main,None,None,1,1.4988994000013918,244.17556100001093,None,None,1,,,,,,,,,,,,,,026,2022-05-19_19h32.09.695,Main,2022.1.1,61.195166074670695,
negative,red,1,None,None,,,,,,,,,0,22,22,22,,,,,,,,,,,,,,,,,main,None,None,1,1.4977059999946505,246.67775220004842,None,None,1,,,,,,,,,,,,,,026,2022-05-19_19h32.09.695,Main,2022.1.1,61.195166074670695,
positive,red,2,None,None,,,,,,,,,0,23,23,23,,,,,,,,,,,,,,,,,main,None,None,1,1.5000240000081249,249.1754320000182,None,None,1,,,,,,,,,,,,,,026,2022-05-19_19h32.09.695,Main,2022.1.1,61.195166074670695,
negative,red,2,None,None,,,,,,,,,0,24,24,24,,,,,,,,,,,,,,,,,main,None,None,1,1.4980183999869041,251.6753135000472,None,None,1,,,,,,,,,,,,,,026,2022-05-19_19h32.09.695,Main,2022.1.1,61.195166074670695,
positive,blue,2,k,None,,,,,,,,,0,25,25,25,,,,,,,,,,,,,,,,,main,k,k,1,1.0990556000033394,254.175367799995,None,None,0,,,,,,,,,,,,,,026,2022-05-19_19h32.09.695,Main,2022.1.1,61.195166074670695,
negative,yellow,1,k,None,,,,,,,,,0,26,26,26,,,,,,,,,,,,,,,,,main,k,k,1,0.7492272999952547,256.27529220003635,None,None,0,,,,,,,,,,,,,,026,2022-05-19_19h32.09.695,Main,2022.1.1,61.195166074670695,
positive,blue,2,k,None,,,,,,,,,0,27,27,27,,,,,,,,,,,,,,,,,main,k,k,1,0.7814564000000246,258.02523680002196,None,None,0,,,,,,,,,,,,,,026,2022-05-19_19h32.09.695,Main,2022.1.1,61.195166074670695,
negative,blue,2,None,k,,,,,,,,,0,28,28,28,,,,,,,,,,,,,,,,,main,None,None,1,1.4996005999855697,259.80854729999555,None,None,1,,,,,,,,,,,,,,026,2022-05-19_19h32.09.695,Main,2022.1.1,61.195166074670695,
positive,red,1,None,None,,,,,,,,,0,29,29,29,,,,,,,,,,,,,,,,,main,None,None,1,1.4978319999645464,262.30844440002693,None,None,1,,,,,,,,,,,,,,026,2022-05-19_19h32.09.695,Main,2022.1.1,61.195166074670695,
positive,blue,1,k,None,,,,,,,,,0,30,30,30,,,,,,,,,,,,,,,,,main,k,k,1,1.5657513999613002,264.80846270004986,None,None,0,,,,,,,,,,,,,,026,2022-05-19_19h32.09.695,Main,2022.1.1,61.195166074670695,
positive,yellow,1,None,k,,,,,,,,,0,31,31,31,,,,,,,,,,,,,,,,,main,None,None,1,1.5010185000137426,268.3754606000148,None,None,1,,,,,,,,,,,,,,026,2022-05-19_19h32.09.695,Main,2022.1.1,61.195166074670695,
negative,yellow,2,k,None,,,,,,,,,0,32,32,32,,,,,,,,,,,,,,,,,main,k,k,1,2.114124100015033,270.8751025000238,None,None,0,,,,,,,,,,,,,,026,2022-05-19_19h32.09.695,Main,2022.1.1,61.195166074670695,
negative,blue,1,None,k,,,,,,,,,0,33,33,33,,,,,,,,,,,,,,,,,main,None,None,1,1.5009341999539174,274.99149970000144,None,None,1,,,,,,,,,,,,,,026,2022-05-19_19h32.09.695,Main,2022.1.1,61.195166074670695,
positive,blue,1,k,None,,,,,,,,,0,34,34,34,,,,,,,,,,,,,,,,,main,k,k,1,0.8991418999503367,277.49149060004856,None,None,0,,,,,,,,,,,,,,026,2022-05-19_19h32.09.695,Main,2022.1.1,61.195166074670695,
negative,yellow,1,k,None,,,,,,,,,0,35,35,35,,,,,,,,,,,,,,,,,main,k,k,1,0.8986444000038318,279.39150170003995,None,None,0,,,,,,,,,,,,,,026,2022-05-19_19h32.09.695,Main,2022.1.1,61.195166074670695,
positive,yellow,2,None,k,,,,,,,,,0,36,36,36,,,,,,,,,,,,,,,,,main,None,None,1,1.5017103000427596,281.29113320005126,None,None,1,,,,,,,,,,,,,,026,2022-05-19_19h32.09.695,Main,2022.1.1,61.195166074670695,
positive,yellow,2,None,k,,,,,,,,,0,37,37,37,,,,,,,,,,,,,,,,,main,None,None,1,1.4965172000229359,283.7938767000451,None,None,1,,,,,,,,,,,,,,026,2022-05-19_19h32.09.695,Main,2022.1.1,61.195166074670695,
negative,yellow,2,k,None,,,,,,,,,0,38,38,38,,,,,,,,,,,,,,,,,main,k,k,1,1.1828392000170425,286.2913339000079,None,None,0,,,,,,,,,,,,,,026,2022-05-19_19h32.09.695,Main,2022.1.1,61.195166074670695,
positive,yellow,1,None,k,,,,,,,,,0,39,39,39,,,,,,,,,,,,,,,,,main,None,None,1,1.4988544000079855,288.4746855000267,None,None,1,,,,,,,,,,,,,,026,2022-05-19_19h32.09.695,Main,2022.1.1,61.195166074670695,
negative,yellow,2,k,None,,,,,,,,,0,40,40,40,,,,,,,,,,,,,,,,,main,k,k,1,0.8994348000269383,290.97457200003555,None,None,0,,,,,,,,,,,,,,026,2022-05-19_19h32.09.695,Main,2022.1.1,61.195166074670695,
positive,blue,2,k,None,,,,,,,,,0,41,41,41,,,,,,,,,,,,,,,,,main,k,k,1,1.215234800009057,292.87458770000376,None,None,0,,,,,,,,,,,,,,026,2022-05-19_19h32.09.695,Main,2022.1.1,61.195166074670695,
positive,blue,2,k,None,,,,,,,,,0,42,42,42,,,,,,,,,,,,,,,,,main,k,k,1,1.2330160000128672,295.090934100037,None,None,0,,,,,,,,,,,,,,026,2022-05-19_19h32.09.695,Main,2022.1.1,61.195166074670695,
negative,blue,2,None,k,,,,,,,,,0,43,43,43,,,,,,,,,,,,,,,,,main,None,None,1,1.4987337000202388,297.3269892000244,None,None,1,,,,,,,,,,,,,,026,2022-05-19_19h32.09.695,Main,2022.1.1,61.195166074670695,
negative,red,1,None,None,,,,,,,,,0,44,44,44,,,,,,,,,,,,,,,,,main,None,None,1,1.498984100006055,299.82472880004207,None,None,1,,,,,,,,,,,,,,026,2022-05-19_19h32.09.695,Main,2022.1.1,61.195166074670695,
negative,yellow,1,k,None,,,,,,,,,0,45,45,45,,,,,,,,,,,,,,,,,main,k,k,1,1.4001057000132278,302.32455140003003,None,None,0,,,,,,,,,,,,,,026,2022-05-19_19h32.09.695,Main,2022.1.1,61.195166074670695,
negative,yellow,1,k,None,,,,,,,,,0,46,46,46,,,,,,,,,,,,,,,,,main,k,k,1,1.1149046000209637,304.7245621000184,None,None,0,,,,,,,,,,,,,,026,2022-05-19_19h32.09.695,Main,2022.1.1,61.195166074670695,
positive,red,1,None,None,,,,,,,,,0,47,47,47,,,,,,,,,,,,,,,,,main,None,None,1,1.498901599959936,306.84094250004273,None,None,1,,,,,,,,,,,,,,026,2022-05-19_19h32.09.695,Main,2022.1.1,61.195166074670695,
positive,yellow,1,None,k,,,,,,,,,0,48,48,48,,,,,,,,,,,,,,,,,main,None,None,1,1.5015722999814898,309.34064639999997,None,None,1,,,,,,,,,,,,,,026,2022-05-19_19h32.09.695,Main,2022.1.1,61.195166074670695,
negative,blue,1,None,k,,,,,,,,,0,49,49,49,,,,,,,,,,,,,,,,,main,None,None,1,1.4989131999900565,311.8409038000391,None,None,1,,,,,,,,,,,,,,026,2022-05-19_19h32.09.695,Main,2022.1.1,61.195166074670695,
positive,yellow,2,None,k,,,,,,,,,0,50,50,50,,,,,,,,,,,,,,,,,main,None,None,1,1.4964761000010185,314.3408326000208,None,None,1,,,,,,,,,,,,,,026,2022-05-19_19h32.09.695,Main,2022.1.1,61.195166074670695,
negative,blue,1,None,k,,,,,,,,,0,51,51,51,,,,,,,,,,,,,,,,,main,None,k,0,0.8997187999775633,316.8407583000371,None,None,1,,,,,,,,,,,,,,026,2022-05-19_19h32.09.695,Main,2022.1.1,61.195166074670695,
positive,red,2,None,None,,,,,,,,,0,52,52,52,,,,,,,,,,,,,,,,,main,None,None,1,1.5016068000113592,319.7407146000187,None,None,1,,,,,,,,,,,,,,026,2022-05-19_19h32.09.695,Main,2022.1.1,61.195166074670695,
positive,yellow,2,None,k,,,,,,,,,0,53,53,53,,,,,,,,,,,,,,,,,main,None,None,1,1.4982113000005484,322.240673399996,None,None,1,,,,,,,,,,,,,,026,2022-05-19_19h32.09.695,Main,2022.1.1,61.195166074670695,
negative,red,2,None,None,,,,,,,,,0,54,54,54,,,,,,,,,,,,,,,,,main,None,None,1,1.4986116999643855,324.74297960003605,None,None,1,,,,,,,,,,,,,,026,2022-05-19_19h32.09.695,Main,2022.1.1,61.195166074670695,
positive,yellow,1,None,k,,,,,,,,,0,55,55,55,,,,,,,,,,,,,,,,,main,None,None,1,1.4988217999925837,327.24024430004647,None,None,1,,,,,,,,,,,,,,026,2022-05-19_19h32.09.695,Main,2022.1.1,61.195166074670695,
negative,blue,2,None,k,,,,,,,,,0,56,56,56,,,,,,,,,,,,,,,,,main,None,None,1,1.5007836999720894,329.7401837000507,None,None,1,,,,,,,,,,,,,,026,2022-05-19_19h32.09.695,Main,2022.1.1,61.195166074670695,
positive,blue,1,k,None,,,,,,,,,0,57,57,57,,,,,,,,,,,,,,,,,main,k,k,1,0.9639202999533154,332.2428560000262,None,None,0,,,,,,,,,,,,,,026,2022-05-19_19h32.09.695,Main,2022.1.1,61.195166074670695,
positive,blue,1,k,None,,,,,,,,,0,58,58,58,,,,,,,,,,,,,,,,,main,k,k,1,0.5986329999868758,334.2095070000505,None,None,0,,,,,,,,,,,,,,026,2022-05-19_19h32.09.695,Main,2022.1.1,61.195166074670695,
negative,yellow,2,k,None,,,,,,,,,0,59,59,59,,,,,,,,,,,,,,,,,main,k,k,1,1.0333702000207268,335.8066960000433,None,None,0,,,,,,,,,,,,,,026,2022-05-19_19h32.09.695,Main,2022.1.1,61.195166074670695,
positive,red,2,None,None,,,,,,,,,0,60,60,60,,,,,,,,,,,,,,,,,main,None,None,1,1.5007276000105776,337.8427784999949,None,None,1,,,,,,,,,,,,,,026,2022-05-19_19h32.09.695,Main,2022.1.1,61.195166074670695,
negative,yellow,1,k,None,,,,,,,,,0,61,61,61,,,,,,,,,,,,,,,,,main,k,k,1,1.0636344000231475,340.34268000000156,None,None,0,,,,,,,,,,,,,,026,2022-05-19_19h32.09.695,Main,2022.1.1,61.195166074670695,
negative,red,1,None,None,,,,,,,,,0,62,62,62,,,,,,,,,,,,,,,,,main,None,None,1,1.4989200999843888,342.40685040003154,None,None,1,,,,,,,,,,,,,,026,2022-05-19_19h32.09.695,Main,2022.1.1,61.195166074670695,
negative,blue,1,None,k,,,,,,,,,0,63,63,63,,,,,,,,,,,,,,,,,main,None,None,1,1.4991437999997288,344.9067605000455,None,None,1,,,,,,,,,,,,,,026,2022-05-19_19h32.09.695,Main,2022.1.1,61.195166074670695,
positive,blue,2,k,None,,,,,,,,,0,64,64,64,,,,,,,,,,,,,,,,,main,k,k,1,0.7495052000158466,347.4071982000023,None,None,0,,,,,,,,,,,,,,026,2022-05-19_19h32.09.695,Main,2022.1.1,61.195166074670695,
negative,yellow,2,k,None,,,,,,,,,0,65,65,65,,,,,,,,,,,,,,,,,main,k,k,1,0.865847599983681,349.1566539000487,None,None,0,,,,,,,,,,,,,,026,2022-05-19_19h32.09.695,Main,2022.1.1,61.195166074670695,
positive,yellow,2,None,k,,,,,,,,,0,66,66,66,,,,,,,,,,,,,,,,,main,None,None,1,1.4987080999999307,351.02377300005173,None,None,1,,,,,,,,,,,,,,026,2022-05-19_19h32.09.695,Main,2022.1.1,61.195166074670695,
positive,yellow,2,None,k,,,,,,,,,0,67,67,67,,,,,,,,,,,,,,,,,main,None,None,1,1.5018687999690883,353.52360320003936,None,None,1,,,,,,,,,,,,,,026,2022-05-19_19h32.09.695,Main,2022.1.1,61.195166074670695,
positive,red,1,None,None,,,,,,,,,0,68,68,68,,,,,,,,,,,,,,,,,main,None,None,1,1.4994857999845408,356.0235348000424,None,None,1,,,,,,,,,,,,,,026,2022-05-19_19h32.09.695,Main,2022.1.1,61.195166074670695,
positive,yellow,1,None,k,,,,,,,,,0,69,69,69,,,,,,,,,,,,,,,,,main,None,None,1,1.4954003000166267,358.52346739999484,None,None,1,,,,,,,,,,,,,,026,2022-05-19_19h32.09.695,Main,2022.1.1,61.195166074670695,
negative,yellow,2,k,None,,,,,,,,,0,70,70,70,,,,,,,,,,,,,,,,,main,k,k,1,0.9994019000441767,361.02309020003304,None,None,0,,,,,,,,,,,,,,026,2022-05-19_19h32.09.695,Main,2022.1.1,61.195166074670695,
positive,yellow,1,None,k,,,,,,,,,0,71,71,71,,,,,,,,,,,,,,,,,main,None,None,1,1.4991568000405096,363.0231038000202,None,None,1,,,,,,,,,,,,,,026,2022-05-19_19h32.09.695,Main,2022.1.1,61.195166074670695,
negative,blue,1,None,k,,,,,,,,,0,72,72,72,,,,,,,,,,,,,,,,,main,None,None,1,1.4991763000143692,365.52341690001776,None,None,1,,,,,,,,,,,,,,026,2022-05-19_19h32.09.695,Main,2022.1.1,61.195166074670695,
negative,red,2,None,None,,,,,,,,,0,73,73,73,,,,,,,,,,,,,,,,,main,None,None,1,1.5001263999729417,368.0233591000433,None,None,1,,,,,,,,,,,,,,026,2022-05-19_19h32.09.695,Main,2022.1.1,61.195166074670695,
positive,blue,2,k,None,,,,,,,,,0,74,74,74,,,,,,,,,,,,,,,,,main,k,k,1,0.765566400019452,370.52887890004786,None,None,0,,,,,,,,,,,,,,026,2022-05-19_19h32.09.695,Main,2022.1.1,61.195166074670695,
negative,blue,2,None,k,,,,,,,,,0,75,75,75,,,,,,,,,,,,,,,,,main,None,None,1,1.49977629998466,372.2895897999988,None,None,1,,,,,,,,,,,,,,026,2022-05-19_19h32.09.695,Main,2022.1.1,61.195166074670695,
negative,blue,2,None,k,,,,,,,,,0,76,76,76,,,,,,,,,,,,,,,,,main,None,None,1,1.4973130999715067,374.7895433000522,None,None,1,,,,,,,,,,,,,,026,2022-05-19_19h32.09.695,Main,2022.1.1,61.195166074670695,
negative,yellow,1,k,None,,,,,,,,,0,77,77,77,,,,,,,,,,,,,,,,,main,k,k,1,1.0321446000016294,377.28918469999917,None,None,0,,,,,,,,,,,,,,026,2022-05-19_19h32.09.695,Main,2022.1.1,61.195166074670695,
positive,blue,1,k,None,,,,,,,,,0,78,78,78,,,,,,,,,,,,,,,,,main,k,k,1,0.6658644000417553,379.3253437000094,None,None,0,,,,,,,,,,,,,,026,2022-05-19_19h32.09.695,Main,2022.1.1,61.195166074670695,
positive,blue,1,k,None,,,,,,,,,0,79,79,79,,,,,,,,,,,,,,,,,main,k,k,1,0.7491437999997288,380.9918926000246,None,None,0,,,,,,,,,,,,,,026,2022-05-19_19h32.09.695,Main,2022.1.1,61.195166074670695,
positive,red,2,None,None,,,,,,,,,0,80,80,80,,,,,,,,,,,,,,,,,main,None,None,1,1.4992649999912828,382.7393682000111,None,None,1,,,,,,,,,,,,,,026,2022-05-19_19h32.09.695,Main,2022.1.1,61.195166074670695,
positive,yellow,2,None,k,,,,,,,,,0,81,81,81,,,,,,,,,,,,,,,,,main,None,None,1,1.4988027999643236,385.2390194000327,None,None,1,,,,,,,,,,,,,,026,2022-05-19_19h32.09.695,Main,2022.1.1,61.195166074670695,
positive,blue,1,k,None,,,,,,,,,0,82,82,82,,,,,,,,,,,,,,,,,main,k,k,1,1.2490799999795854,387.7418194000493,None,None,0,,,,,,,,,,,,,,026,2022-05-19_19h32.09.695,Main,2022.1.1,61.195166074670695,
negative,yellow,2,k,None,,,,,,,,,0,83,83,83,,,,,,,,,,,,,,,,,main,k,k,1,0.932922400010284,389.98936470004264,None,None,0,,,,,,,,,,,,,,026,2022-05-19_19h32.09.695,Main,2022.1.1,61.195166074670695,
positive,blue,2,k,None,,,,,,,,,0,84,84,84,,,,,,,,,,,,,,,,,main,k,k,1,0.8322553000180051,391.922212400008,None,None,0,,,,,,,,,,,,,,026,2022-05-19_19h32.09.695,Main,2022.1.1,61.195166074670695,
positive,yellow,1,None,k,,,,,,,,,0,85,85,85,,,,,,,,,,,,,,,,,main,None,None,1,1.5013271999778226,393.7555942000472,None,None,1,,,,,,,,,,,,,,026,2022-05-19_19h32.09.695,Main,2022.1.1,61.195166074670695,
positive,blue,2,k,None,,,,,,,,,0,86,86,86,,,,,,,,,,,,,,,,,main,k,k,1,1.3128658000496216,396.2561742000398,None,None,0,,,,,,,,,,,,,,026,2022-05-19_19h32.09.695,Main,2022.1.1,61.195166074670695,
positive,blue,1,k,None,,,,,,,,,0,87,87,87,,,,,,,,,,,,,,,,,main,k,k,1,0.7874472999828868,398.5727926000254,None,None,0,,,,,,,,,,,,,,026,2022-05-19_19h32.09.695,Main,2022.1.1,61.195166074670695,
negative,yellow,2,k,None,,,,,,,,,0,88,88,88,,,,,,,,,,,,,,,,,main,k,k,1,0.9267161999596283,400.3668455000152,None,None,0,,,,,,,,,,,,,,026,2022-05-19_19h32.09.695,Main,2022.1.1,61.195166074670695,
negative,blue,2,None,k,,,,,,,,,0,89,89,89,,,,,,,,,,,,,,,,,main,None,None,1,1.5019907000241801,402.28899020003155,None,None,1,,,,,,,,,,,,,,026,2022-05-19_19h32.09.695,Main,2022.1.1,61.195166074670695,
positive,yellow,2,None,k,,,,,,,,,0,90,90,90,,,,,,,,,,,,,,,,,main,None,None,1,1.4961978999781422,404.788973000017,None,None,1,,,,,,,,,,,,,,026,2022-05-19_19h32.09.695,Main,2022.1.1,61.195166074670695,
negative,yellow,1,k,None,,,,,,,,,0,91,91,91,,,,,,,,,,,,,,,,,main,k,k,1,0.7490554000250995,407.28862639999716,None,None,0,,,,,,,,,,,,,,026,2022-05-19_19h32.09.695,Main,2022.1.1,61.195166074670695,
negative,red,2,None,None,,,,,,,,,0,92,92,92,,,,,,,,,,,,,,,,,main,None,None,1,1.4980236000264995,409.041366200021,None,None,1,,,,,,,,,,,,,,026,2022-05-19_19h32.09.695,Main,2022.1.1,61.195166074670695,
negative,blue,2,None,k,,,,,,,,,0,93,93,93,,,,,,,,,,,,,,,,,main,None,None,1,1.4999759999918751,411.54439759999514,None,None,1,,,,,,,,,,,,,,026,2022-05-19_19h32.09.695,Main,2022.1.1,61.195166074670695,
negative,blue,1,None,k,,,,,,,,,0,94,94,94,,,,,,,,,,,,,,,,,main,None,None,1,1.5009334000060335,414.0384309000219,None,None,1,,,,,,,,,,,,,,026,2022-05-19_19h32.09.695,Main,2022.1.1,61.195166074670695,
negative,blue,1,None,k,,,,,,,,,0,95,95,95,,,,,,,,,,,,,,,,,main,None,None,1,1.4986656000255607,416.5411134000169,None,None,1,,,,,,,,,,,,,,026,2022-05-19_19h32.09.695,Main,2022.1.1,61.195166074670695,
negative,red,1,None,None,,,,,,,,,0,96,96,96,,,,,,,,,,,,,,,,,main,None,None,1,1.4972435000236146,419.04111000004923,None,None,1,,,,,,,,,,,,,,026,2022-05-19_19h32.09.695,Main,2022.1.1,61.195166074670695,
positive,yellow,1,None,k,,,,,,,,,0,97,97,97,,,,,,,,,,,,,,,,,main,None,None,1,1.4978848999598995,421.5385743000079,None,None,1,,,,,,,,,,,,,,026,2022-05-19_19h32.09.695,Main,2022.1.1,61.195166074670695,
negative,yellow,1,k,None,,,,,,,,,0,98,98,98,,,,,,,,,,,,,,,,,main,k,k,1,1.566102399956435,424.0385031000478,None,None,0,,,,,,,,,,,,,,026,2022-05-19_19h32.09.695,Main,2022.1.1,61.195166074670695,
positive,red,1,None,None,,,,,,,,,0,99,99,99,,,,,,,,,,,,,,,,,main,None,None,1,1.5010377999860793,427.6052113000187,None,None,1,,,,,,,,,,,,,,026,2022-05-19_19h32.09.695,Main,2022.1.1,61.195166074670695,
positive,blue,1,k,None,,,,,,,,,0,100,100,100,,,,,,,,,,,,,,,,,main,k,k,1,1.114974699972663,430.10482230002526,None,None,0,,,,,,,,,,,,,,026,2022-05-19_19h32.09.695,Main,2022.1.1,61.195166074670695,
negative,yellow,1,k,None,,,,,,,,,0,101,101,101,,,,,,,,,,,,,,,,,main,k,k,1,0.9490159000270069,432.2218183000223,None,None,0,,,,,,,,,,,,,,026,2022-05-19_19h32.09.695,Main,2022.1.1,61.195166074670695,
negative,blue,2,None,k,,,,,,,,,0,102,102,102,,,,,,,,,,,,,,,,,main,None,None,1,1.4994700999814086,434.1717439000495,None,None,1,,,,,,,,,,,,,,026,2022-05-19_19h32.09.695,Main,2022.1.1,61.195166074670695,
negative,yellow,2,k,None,,,,,,,,,0,103,103,103,,,,,,,,,,,,,,,,,main,k,k,1,1.1818852999713272,436.67162730003474,None,None,0,,,,,,,,,,,,,,026,2022-05-19_19h32.09.695,Main,2022.1.1,61.195166074670695,
positive,yellow,2,None,k,,,,,,,,,0,104,104,104,,,,,,,,,,,,,,,,,main,None,None,1,1.5042750000138767,438.8549668000196,None,None,1,,,,,,,,,,,,,,026,2022-05-19_19h32.09.695,Main,2022.1.1,61.195166074670695,
positive,blue,1,k,None,,,,,,,,,0,105,105,105,,,,,,,,,,,,,,,,,main,k,k,1,0.9769528000033461,441.3583720000461,None,None,0,,,,,,,,,,,,,,026,2022-05-19_19h32.09.695,Main,2022.1.1,61.195166074670695,
positive,blue,2,k,None,,,,,,,,,0,106,106,106,,,,,,,,,,,,,,,,,main,k,k,1,1.2197566000395454,443.33818240003893,None,None,0,,,,,,,,,,,,,,026,2022-05-19_19h32.09.695,Main,2022.1.1,61.195166074670695,
negative,blue,1,None,k,,,,,,,,,0,107,107,107,,,,,,,,,,,,,,,,,main,None,None,1,1.4947287000250071,445.5547737000161,None,None,1,,,,,,,,,,,,,,026,2022-05-19_19h32.09.695,Main,2022.1.1,61.195166074670695,
positive,yellow,2,None,k,,,,,,,,,0,108,108,108,,,,,,,,,,,,,,,,,main,None,None,1,1.4990993000101298,448.05464420001954,None,None,1,,,,,,,,,,,,,,026,2022-05-19_19h32.09.695,Main,2022.1.1,61.195166074670695,
negative,yellow,1,k,None,,,,,,,,,0,109,109,109,,,,,,,,,,,,,,,,,main,k,k,1,0.8991748999687843,450.55464440002106,None,None,0,,,,,,,,,,,,,,026,2022-05-19_19h32.09.695,Main,2022.1.1,61.195166074670695,
negative,blue,2,None,k,,,,,,,,,0,110,110,110,,,,,,,,,,,,,,,,,main,None,None,1,1.498932100017555,452.45456390001345,None,None,1,,,,,,,,,,,,,,026,2022-05-19_19h32.09.695,Main,2022.1.1,61.195166074670695,
positive,blue,2,k,None,,,,,,,,,0,111,111,111,,,,,,,,,,,,,,,,,main,k,k,1,1.0160721000283957,454.95497610000893,None,None,0,,,,,,,,,,,,,,026,2022-05-19_19h32.09.695,Main,2022.1.1,61.195166074670695,
negative,blue,1,None,k,,,,,,,,,0,112,112,112,,,,,,,,,,,,,,,,,main,None,None,1,1.498807099997066,456.9712690000306,None,None,1,,,,,,,,,,,,,,026,2022-05-19_19h32.09.695,Main,2022.1.1,61.195166074670695,
positive,yellow,1,None,k,,,,,,,,,0,113,113,113,,,,,,,,,,,,,,,,,main,None,None,1,1.4991288000019267,459.4712068000226,None,None,1,,,,,,,,,,,,,,026,2022-05-19_19h32.09.695,Main,2022.1.1,61.195166074670695,
negative,red,1,None,None,,,,,,,,,0,114,114,114,,,,,,,,,,,,,,,,,main,None,None,1,1.499043799994979,461.9712591000134,None,None,1,,,,,,,,,,,,,,026,2022-05-19_19h32.09.695,Main,2022.1.1,61.195166074670695,
positive,red,1,None,None,,,,,,,,,0,115,115,115,,,,,,,,,,,,,,,,,main,None,None,1,1.4990765000111423,464.4714307000395,None,None,1,,,,,,,,,,,,,,026,2022-05-19_19h32.09.695,Main,2022.1.1,61.195166074670695,
negative,red,2,None,None,,,,,,,,,0,116,116,116,,,,,,,,,,,,,,,,,main,None,None,1,1.4994397000409663,466.97099360002903,None,None,1,,,,,,,,,,,,,,026,2022-05-19_19h32.09.695,Main,2022.1.1,61.195166074670695,
negative,yellow,2,k,None,,,,,,,,,0,117,117,117,,,,,,,,,,,,,,,,,main,k,k,1,1.19855109998025,469.4715322999982,None,None,0,,,,,,,,,,,,,,026,2022-05-19_19h32.09.695,Main,2022.1.1,61.195166074670695,
positive,yellow,1,None,k,,,,,,,,,0,118,118,118,,,,,,,,,,,,,,,,,main,None,None,1,1.5009870000067167,471.67090160003863,None,None,1,,,,,,,,,,,,,,026,2022-05-19_19h32.09.695,Main,2022.1.1,61.195166074670695,
positive,red,2,None,None,,,,,,,,,0,119,119,119,,,,,,,,,,,,,,,,,main,None,None,1,1.499024000018835,474.17332709999755,None,None,1,,,,,,,,,,,,,,026,2022-05-19_19h32.09.695,Main,2022.1.1,61.195166074670695,
positive,blue,2,k,None,,,,,,,,,0,120,120,120,,,,,,,,,,,,,,,,,main,k,k,1,1.080062699969858,476.6732620000257,None,None,0,,,,,,,,,,,,,,026,2022-05-19_19h32.09.695,Main,2022.1.1,61.195166074670695,
negative,red,1,None,None,,,,,,,,,0,121,121,121,,,,,,,,,,,,,,,,,main,None,None,1,1.5019076000317,478.7537952000275,None,None,1,,,,,,,,,,,,,,026,2022-05-19_19h32.09.695,Main,2022.1.1,61.195166074670695,
positive,yellow,2,None,k,,,,,,,,,0,122,122,122,,,,,,,,,,,,,,,,,main,None,None,1,1.49634180002613,481.2566060000099,None,None,1,,,,,,,,,,,,,,026,2022-05-19_19h32.09.695,Main,2022.1.1,61.195166074670695,
negative,red,2,None,None,,,,,,,,,0,123,123,123,,,,,,,,,,,,,,,,,main,None,None,1,1.499740200000815,483.7543577000033,None,None,1,,,,,,,,,,,,,,026,2022-05-19_19h32.09.695,Main,2022.1.1,61.195166074670695,
negative,yellow,2,k,None,,,,,,,,,0,124,124,124,,,,,,,,,,,,,,,,,main,k,k,1,0.9982470999821089,486.25389580003684,None,None,0,,,,,,,,,,,,,,026,2022-05-19_19h32.09.695,Main,2022.1.1,61.195166074670695,
positive,red,1,None,None,,,,,,,,,0,125,125,125,,,,,,,,,,,,,,,,,main,None,None,1,1.5012676999904215,488.25386520003667,None,None,1,,,,,,,,,,,,,,026,2022-05-19_19h32.09.695,Main,2022.1.1,61.195166074670695,
negative,blue,2,None,k,,,,,,,,,0,126,126,126,,,,,,,,,,,,,,,,,main,None,None,1,1.4966745999990962,490.7536199000315,None,None,1,,,,,,,,,,,,,,026,2022-05-19_19h32.09.695,Main,2022.1.1,61.195166074670695,
negative,blue,1,None,k,,,,,,,,,0,127,127,127,,,,,,,,,,,,,,,,,main,None,None,1,1.5022858000011183,493.25374000001466,None,None,1,,,,,,,,,,,,,,026,2022-05-19_19h32.09.695,Main,2022.1.1,61.195166074670695,
negative,yellow,1,k,None,,,,,,,,,0,128,128,128,,,,,,,,,,,,,,,,,main,k,k,1,0.9629457999835722,495.7537435000413,None,None,0,,,,,,,,,,,,,,026,2022-05-19_19h32.09.695,Main,2022.1.1,61.195166074670695,
negative,yellow,1,k,None,,,,,,,,,0,129,129,129,,,,,,,,,,,,,,,,,main,k,k,1,0.7657823000336066,497.72029110003496,None,None,0,,,,,,,,,,,,,,026,2022-05-19_19h32.09.695,Main,2022.1.1,61.195166074670695,
positive,blue,1,k,None,,,,,,,,,0,130,130,130,,,,,,,,,,,,,,,,,main,k,k,1,0.9157094999682158,499.4869675000082,None,None,0,,,,,,,,,,,,,,026,2022-05-19_19h32.09.695,Main,2022.1.1,61.195166074670695,
negative,blue,1,None,k,,,,,,,,,0,131,131,131,,,,,,,,,,,,,,,,,main,None,None,1,1.49842700001318,501.40364810003666,None,None,1,,,,,,,,,,,,,,026,2022-05-19_19h32.09.695,Main,2022.1.1,61.195166074670695,
negative,blue,2,None,k,,,,,,,,,0,132,132,132,,,,,,,,,,,,,,,,,main,None,None,1,1.4993839000235312,503.9033272000379,None,None,1,,,,,,,,,,,,,,026,2022-05-19_19h32.09.695,Main,2022.1.1,61.195166074670695,
positive,blue,2,k,None,,,,,,,,,0,133,133,133,,,,,,,,,,,,,,,,,main,k,k,1,0.9338060999871232,506.40362980001373,None,None,0,,,,,,,,,,,,,,026,2022-05-19_19h32.09.695,Main,2022.1.1,61.195166074670695,
positive,red,2,None,None,,,,,,,,,0,134,134,134,,,,,,,,,,,,,,,,,main,None,None,1,1.4940409999690019,508.34403160004877,None,None,1,,,,,,,,,,,,,,026,2022-05-19_19h32.09.695,Main,2022.1.1,61.195166074670695,
negative,yellow,2,k,None,,,,,,,,,0,135,135,135,,,,,,,,,,,,,,,,,main,k,k,1,0.8332985999877565,510.836480900005,None,None,0,,,,,,,,,,,,,,026,2022-05-19_19h32.09.695,Main,2022.1.1,61.195166074670695,
positive,yellow,2,None,k,,,,,,,,,0,136,136,136,,,,,,,,,,,,,,,,,main,None,None,1,1.4990737999905832,512.6726082999958,None,None,1,,,,,,,,,,,,,,026,2022-05-19_19h32.09.695,Main,2022.1.1,61.195166074670695,
positive,blue,1,k,None,,,,,,,,,0,137,137,137,,,,,,,,,,,,,,,,,main,k,k,1,3.798772700014524,515.1703729000292,None,None,0,,,,,,,,,,,,,,026,2022-05-19_19h32.09.695,Main,2022.1.1,61.195166074670695,
positive,yellow,1,None,k,,,,,,,,,0,138,138,138,,,,,,,,,,,,,,,,,main,None,None,1,1.5009014999959618,520.9698576000519,None,None,1,,,,,,,,,,,,,,026,2022-05-19_19h32.09.695,Main,2022.1.1,61.195166074670695,
positive,yellow,1,None,k,,,,,,,,,0,139,139,139,,,,,,,,,,,,,,,,,main,None,None,1,1.4992015999741852,523.4698572000489,None,None,1,,,,,,,,,,,,,,026,2022-05-19_19h32.09.695,Main,2022.1.1,61.195166074670695,
positive,yellow,1,None,k,,,,,,,,,0,140,140,140,,,,,,,,,,,,,,,,,main,None,None,1,1.5007509000133723,525.9695499000372,None,None,1,,,,,,,,,,,,,,026,2022-05-19_19h32.09.695,Main,2022.1.1,61.195166074670695,
positive,blue,1,k,None,,,,,,,,,0,141,141,141,,,,,,,,,,,,,,,,,main,k,k,1,1.0312430000049062,528.472236600006,None,None,0,,,,,,,,,,,,,,026,2022-05-19_19h32.09.695,Main,2022.1.1,61.195166074670695,
positive,blue,2,k,None,,,,,,,,,0,142,142,142,,,,,,,,,,,,,,,,,main,k,k,1,0.8147367000347003,530.5033625000506,None,None,0,,,,,,,,,,,,,,026,2022-05-19_19h32.09.695,Main,2022.1.1,61.195166074670695,
positive,yellow,2,None,k,,,,,,,,,0,143,143,143,,,,,,,,,,,,,,,,,main,None,None,1,1.4990544999600388,532.3196030000108,None,None,1,,,,,,,,,,,,,,026,2022-05-19_19h32.09.695,Main,2022.1.1,61.195166074670695,
negative,yellow,2,k,None,,,,,,,,,0,144,144,144,,,,,,,,,,,,,,,,,main,k,k,1,0.8324283999972977,534.819658500026,None,None,0,,,,,,,,,,,,,,026,2022-05-19_19h32.09.695,Main,2022.1.1,61.195166074670695,
negative,blue,2,None,k,,,,,,,,,0,145,145,145,,,,,,,,,,,,,,,,,main,None,None,1,1.4995874000014737,536.6529389000498,None,None,1,,,,,,,,,,,,,,026,2022-05-19_19h32.09.695,Main,2022.1.1,61.195166074670695,
negative,red,1,None,None,,,,,,,,,0,146,146,146,,,,,,,,,,,,,,,,,main,None,None,1,1.500374199997168,539.1526243000408,None,None,1,,,,,,,,,,,,,,026,2022-05-19_19h32.09.695,Main,2022.1.1,61.195166074670695,
positive,blue,1,k,None,,,,,,,,,0,147,147,147,,,,,,,,,,,,,,,,,main,k,k,1,0.9802387999952771,541.6554258000106,None,None,0,,,,,,,,,,,,,,026,2022-05-19_19h32.09.695,Main,2022.1.1,61.195166074670695,
positive,yellow,1,None,k,,,,,,,,,0,148,148,148,,,,,,,,,,,,,,,,,main,None,None,1,1.4991975000011735,543.6363578000455,None,None,1,,,,,,,,,,,,,,026,2022-05-19_19h32.09.695,Main,2022.1.1,61.195166074670695,
negative,red,2,None,None,,,,,,,,,0,149,149,149,,,,,,,,,,,,,,,,,main,None,None,1,1.5011744999792427,546.1360008000047,None,None,1,,,,,,,,,,,,,,026,2022-05-19_19h32.09.695,Main,2022.1.1,61.195166074670695,
negative,blue,1,None,k,,,,,,,,,0,150,150,150,,,,,,,,,,,,,,,,,main,None,None,1,1.49614229996223,548.6359922999982,None,None,1,,,,,,,,,,,,,,026,2022-05-19_19h32.09.695,Main,2022.1.1,61.195166074670695,
negative,yellow,2,k,None,,,,,,,,,0,151,151,151,,,,,,,,,,,,,,,,,main,k,k,1,1.365942400007043,551.1358966000262,None,None,0,,,,,,,,,,,,,,026,2022-05-19_19h32.09.695,Main,2022.1.1,61.195166074670695,
negative,blue,2,None,k,,,,,,,,,0,152,152,152,,,,,,,,,,,,,,,,,main,None,None,1,1.4988064999924973,553.5025444000494,None,None,1,,,,,,,,,,,,,,026,2022-05-19_19h32.09.695,Main,2022.1.1,61.195166074670695,
negative,yellow,1,k,None,,,,,,,,,0,153,153,153,,,,,,,,,,,,,,,,,main,k,k,1,1.2995068000163883,556.0083627999993,None,None,0,,,,,,,,,,,,,,026,2022-05-19_19h32.09.695,Main,2022.1.1,61.195166074670695,
negative,blue,1,None,k,,,,,,,,,0,154,154,154,,,,,,,,,,,,,,,,,main,None,None,1,1.501416499959305,558.3022237000405,None,None,1,,,,,,,,,,,,,,026,2022-05-19_19h32.09.695,Main,2022.1.1,61.195166074670695,
positive,yellow,2,None,k,,,,,,,,,0,155,155,155,,,,,,,,,,,,,,,,,main,None,None,1,1.4976763000013307,560.80491050001,None,None,1,,,,,,,,,,,,,,026,2022-05-19_19h32.09.695,Main,2022.1.1,61.195166074670695,
positive,red,2,None,None,,,,,,,,,0,156,156,156,,,,,,,,,,,,,,,,,main,None,None,1,1.4981536000268534,563.3023852000479,None,None,1,,,,,,,,,,,,,,026,2022-05-19_19h32.09.695,Main,2022.1.1,61.195166074670695,
positive,red,1,None,None,,,,,,,,,0,157,157,157,,,,,,,,,,,,,,,,,main,None,None,1,1.5042468999745324,565.8025540999952,None,None,1,,,,,,,,,,,,,,026,2022-05-19_19h32.09.695,Main,2022.1.1,61.195166074670695,
positive,blue,2,k,None,,,,,,,,,0,158,158,158,,,,,,,,,,,,,,,,,main,k,k,1,1.2937892000190914,568.3062701000017,None,None,0,,,,,,,,,,,,,,026,2022-05-19_19h32.09.695,Main,2022.1.1,61.195166074670695,
negative,yellow,1,k,None,,,,,,,,,0,159,159,159,,,,,,,,,,,,,,,,,main,k,k,1,0.7658344000228681,570.6021804000484,None,None,0,,,,,,,,,,,,,,026,2022-05-19_19h32.09.695,Main,2022.1.1,61.195166074670695,
negative,red,2,None,None,,,,,,,,,0,160,160,160,,,,,,,,,,,,,,,,,main,None,None,1,1.5010226999875158,572.3687992000487,None,None,1,,,,,,,,,,,,,,026,2022-05-19_19h32.09.695,Main,2022.1.1,61.195166074670695,
negative,blue,1,None,k,,,,,,,,,0,161,161,161,,,,,,,,,,,,,,,,,main,None,None,1,1.4986824999796227,574.8688320000074,None,None,1,,,,,,,,,,,,,,026,2022-05-19_19h32.09.695,Main,2022.1.1,61.195166074670695,
negative,blue,1,None,k,,,,,,,,,0,162,162,162,,,,,,,,,,,,,,,,,main,None,None,1,1.49917359999381,577.3685145000345,None,None,1,,,,,,,,,,,,,,026,2022-05-19_19h32.09.695,Main,2022.1.1,61.195166074670695,
negative,yellow,1,k,None,,,,,,,,,0,163,163,163,,,,,,,,,,,,,,,,,main,k,k,1,2.213799300021492,579.8712002999964,None,None,0,,,,,,,,,,,,,,026,2022-05-19_19h32.09.695,Main,2022.1.1,61.195166074670695,
negative,yellow,1,k,None,,,,,,,,,0,164,164,164,,,,,,,,,,,,,,,,,main,k,k,1,0.8009705999866128,584.0850486000418,None,None,0,,,,,,,,,,,,,,026,2022-05-19_19h32.09.695,Main,2022.1.1,61.195166074670695,
positive,yellow,1,None,k,,,,,,,,,0,165,165,165,,,,,,,,,,,,,,,,,main,None,None,1,1.5011631999514066,585.8850005000131,None,None,1,,,,,,,,,,,,,,026,2022-05-19_19h32.09.695,Main,2022.1.1,61.195166074670695,
negative,red,1,None,None,,,,,,,,,0,166,166,166,,,,,,,,,,,,,,,,,main,None,None,1,1.4991918000159785,588.3876411000383,None,None,1,,,,,,,,,,,,,,026,2022-05-19_19h32.09.695,Main,2022.1.1,61.195166074670695,
negative,yellow,2,k,None,,,,,,,,,0,167,167,167,,,,,,,,,,,,,,,,,main,k,k,1,0.9136428000056185,590.8854154000292,None,None,0,,,,,,,,,,,,,,026,2022-05-19_19h32.09.695,Main,2022.1.1,61.195166074670695,
positive,blue,2,k,None,,,,,,,,,0,168,168,168,,,,,,,,,,,,,,,,,main,k,k,1,0.9491842999705113,592.8017483000294,None,None,0,,,,,,,,,,,,,,026,2022-05-19_19h32.09.695,Main,2022.1.1,61.195166074670695,
positive,red,2,None,None,,,,,,,,,0,169,169,169,,,,,,,,,,,,,,,,,main,None,None,1,1.4989506999845617,594.7517043999978,None,None,1,,,,,,,,,,,,,,026,2022-05-19_19h32.09.695,Main,2022.1.1,61.195166074670695,
positive,red,1,None,None,,,,,,,,,0,170,170,170,,,,,,,,,,,,,,,,,main,None,None,1,1.4995844999793917,597.2516926000244,None,None,1,,,,,,,,,,,,,,026,2022-05-19_19h32.09.695,Main,2022.1.1,61.195166074670695,
negative,blue,2,None,k,,,,,,,,,0,171,171,171,,,,,,,,,,,,,,,,,main,None,None,1,1.500651599955745,599.7513819000451,None,None,1,,,,,,,,,,,,,,026,2022-05-19_19h32.09.695,Main,2022.1.1,61.195166074670695,
positive,blue,2,k,None,,,,,,,,,0,172,172,172,,,,,,,,,,,,,,,,,main,k,k,1,1.0136139999958687,602.2540588999982,None,None,0,,,,,,,,,,,,,,026,2022-05-19_19h32.09.695,Main,2022.1.1,61.195166074670695,
negative,yellow,2,k,None,,,,,,,,,0,173,173,173,,,,,,,,,,,,,,,,,main,k,k,1,0.8048858999973163,604.2705833000364,None,None,0,,,,,,,,,,,,,,026,2022-05-19_19h32.09.695,Main,2022.1.1,61.195166074670695,
positive,yellow,2,None,k,,,,,,,,,0,174,174,174,,,,,,,,,,,,,,,,,main,None,None,1,1.4935886999592185,606.072556100029,None,None,1,,,,,,,,,,,,,,026,2022-05-19_19h32.09.695,Main,2022.1.1,61.195166074670695,
negative,blue,2,None,k,,,,,,,,,0,175,175,175,,,,,,,,,,,,,,,,,main,None,None,1,1.5005542999715544,608.5678674000083,None,None,1,,,,,,,,,,,,,,026,2022-05-19_19h32.09.695,Main,2022.1.1,61.195166074670695,
positive,blue,1,k,None,,,,,,,,,0,176,176,176,,,,,,,,,,,,,,,,,main,k,k,1,0.8805205999524333,611.0681767000351,None,None,0,,,,,,,,,,,,,,026,2022-05-19_19h32.09.695,Main,2022.1.1,61.195166074670695,
positive,yellow,1,None,k,,,,,,,,,0,177,177,177,,,,,,,,,,,,,,,,,main,None,None,1,1.498689199972432,612.9513427000493,None,None,1,,,,,,,,,,,,,,026,2022-05-19_19h32.09.695,Main,2022.1.1,61.195166074670695,
positive,blue,1,k,None,,,,,,,,,0,178,178,178,,,,,,,,,,,,,,,,,main,k,k,1,0.9827942000119947,615.4512416000362,None,None,0,,,,,,,,,,,,,,026,2022-05-19_19h32.09.695,Main,2022.1.1,61.195166074670695,
positive,yellow,2,None,k,,,,,,,,,0,179,179,179,,,,,,,,,,,,,,,,,main,None,None,1,1.4992674000095576,617.4345824000193,None,None,1,,,,,,,,,,,,,,026,2022-05-19_19h32.09.695,Main,2022.1.1,61.195166074670695,
positive,blue,1,k,None,,,,,,,,,0,180,180,180,,,,,,,,,,,,,,,,,main,k,k,1,0.9318700000294484,619.9342846000218,None,None,0,,,,,,,,,,,,,,026,2022-05-19_19h32.09.695,Main,2022.1.1,61.195166074670695,
negative,red,1,None,None,,,,,,,,,0,181,181,181,,,,,,,,,,,,,,,,,main,None,None,1,1.5013144999975339,621.8675960000255,None,None,1,,,,,,,,,,,,,,026,2022-05-19_19h32.09.695,Main,2022.1.1,61.195166074670695,
negative,blue,1,None,k,,,,,,,,,0,182,182,182,,,,,,,,,,,,,,,,,main,None,None,1,1.499030600010883,624.3703238000162,None,None,1,,,,,,,,,,,,,,026,2022-05-19_19h32.09.695,Main,2022.1.1,61.195166074670695,
negative,yellow,2,k,None,,,,,,,,,0,183,183,183,,,,,,,,,,,,,,,,,main,k,k,1,0.8805976999574341,626.867726800032,None,None,0,,,,,,,,,,,,,,026,2022-05-19_19h32.09.695,Main,2022.1.1,61.195166074670695,
positive,yellow,2,None,k,,,,,,,,,0,184,184,184,,,,,,,,,,,,,,,,,main,None,None,1,1.5019970000139438,628.7509597000317,None,None,1,,,,,,,,,,,,,,026,2022-05-19_19h32.09.695,Main,2022.1.1,61.195166074670695,
positive,yellow,1,None,k,,,,,,,,,0,185,185,185,,,,,,,,,,,,,,,,,main,None,None,1,1.496496699983254,631.2510067000403,None,None,1,,,,,,,,,,,,,,026,2022-05-19_19h32.09.695,Main,2022.1.1,61.195166074670695,
positive,red,2,None,None,,,,,,,,,0,186,186,186,,,,,,,,,,,,,,,,,main,None,None,1,1.497730600007344,633.7509055000264,None,None,1,,,,,,,,,,,,,,026,2022-05-19_19h32.09.695,Main,2022.1.1,61.195166074670695,
positive,blue,1,k,None,,,,,,,,,0,187,187,187,,,,,,,,,,,,,,,,,main,k,k,1,1.0330927000031807,636.2508415000048,None,None,0,,,,,,,,,,,,,,026,2022-05-19_19h32.09.695,Main,2022.1.1,61.195166074670695,
negative,yellow,1,k,None,,,,,,,,,0,188,188,188,,,,,,,,,,,,,,,,,main,k,k,1,0.7653833000222221,638.2841878000181,None,None,0,,,,,,,,,,,,,,026,2022-05-19_19h32.09.695,Main,2022.1.1,61.195166074670695,
positive,yellow,2,None,k,,,,,,,,,0,189,189,189,,,,,,,,,,,,,,,,,main,None,None,1,1.5015810000477359,640.0505039000418,None,None,1,,,,,,,,,,,,,,026,2022-05-19_19h32.09.695,Main,2022.1.1,61.195166074670695,
negative,yellow,2,k,None,,,,,,,,,0,190,190,190,,,,,,,,,,,,,,,,,main,k,k,1,0.7971016999799758,642.5532038999954,None,None,0,,,,,,,,,,,,,,026,2022-05-19_19h32.09.695,Main,2022.1.1,61.195166074670695,
negative,yellow,1,k,None,,,,,,,,,0,191,191,191,,,,,,,,,,,,,,,,,main,k,k,1,0.7656041000154801,644.3508105000365,None,None,0,,,,,,,,,,,,,,026,2022-05-19_19h32.09.695,Main,2022.1.1,61.195166074670695,
positive,blue,2,k,None,,,,,,,,,0,192,192,192,,,,,,,,,,,,,,,,,main,k,k,1,1.0156931999954395,646.1173192000133,None,None,0,,,,,,,,,,,,,,026,2022-05-19_19h32.09.695,Main,2022.1.1,61.195166074670695,
positive,yellow,1,None,k,,,,,,,,,0,193,193,193,,,,,,,,,,,,,,,,,main,None,None,1,1.5014743999927305,648.1364509999985,None,None,1,,,,,,,,,,,,,,026,2022-05-19_19h32.09.695,Main,2022.1.1,61.195166074670695,
negative,red,2,None,None,,,,,,,,,0,194,194,194,,,,,,,,,,,,,,,,,main,None,None,1,1.4970426999498159,650.636438800022,None,None,1,,,,,,,,,,,,,,026,2022-05-19_19h32.09.695,Main,2022.1.1,61.195166074670695,
positive,red,1,None,None,,,,,,,,,0,195,195,195,,,,,,,,,,,,,,,,,main,None,None,1,1.5005956999957561,653.1336229000008,None,None,1,,,,,,,,,,,,,,026,2022-05-19_19h32.09.695,Main,2022.1.1,61.195166074670695,
negative,blue,1,None,k,,,,,,,,,0,196,196,196,,,,,,,,,,,,,,,,,main,None,None,1,1.4991334999795072,655.6363083000178,None,None,1,,,,,,,,,,,,,,026,2022-05-19_19h32.09.695,Main,2022.1.1,61.195166074670695,
positive,blue,2,k,None,,,,,,,,,0,197,197,197,,,,,,,,,,,,,,,,,main,k,k,1,0.7973296999698505,658.1337670000503,None,None,0,,,,,,,,,,,,,,026,2022-05-19_19h32.09.695,Main,2022.1.1,61.195166074670695,
negative,blue,2,None,k,,,,,,,,,0,198,198,198,,,,,,,,,,,,,,,,,main,None,None,1,1.499257999996189,659.9360136000323,None,None,1,,,,,,,,,,,,,,026,2022-05-19_19h32.09.695,Main,2022.1.1,61.195166074670695,
negative,blue,2,None,k,,,,,,,,,0,199,199,199,,,,,,,,,,,,,,,,,main,None,None,1,1.498900100006722,662.4337264000205,None,None,1,,,,,,,,,,,,,,026,2022-05-19_19h32.09.695,Main,2022.1.1,61.195166074670695,
positive,blue,2,k,None,,,,,,,,,0,200,200,200,,,,,,,,,,,,,,,,,main,k,k,1,0.7982714000390843,664.9336141000385,None,None,0,,,,,,,,,,,,,,026,2022-05-19_19h32.09.695,Main,2022.1.1,61.195166074670695,
positive,blue,2,k,None,,,,,,,,,0,201,201,201,,,,,,,,,,,,,,,,,main,k,k,1,1.2327414999599569,666.7335728000035,None,None,0,,,,,,,,,,,,,,026,2022-05-19_19h32.09.695,Main,2022.1.1,61.195166074670695,
negative,yellow,2,k,None,,,,,,,,,0,202,202,202,,,,,,,,,,,,,,,,,main,k,k,1,0.915392900002189,668.9668862000108,None,None,0,,,,,,,,,,,,,,026,2022-05-19_19h32.09.695,Main,2022.1.1,61.195166074670695,
positive,red,1,None,None,,,,,,,,,0,203,203,203,,,,,,,,,,,,,,,,,main,None,None,1,1.4993503000005148,670.8835314000025,None,None,1,,,,,,,,,,,,,,026,2022-05-19_19h32.09.695,Main,2022.1.1,61.195166074670695,
negative,blue,2,None,k,,,,,,,,,0,204,204,204,,,,,,,,,,,,,,,,,main,None,None,1,1.5019307000329718,673.3834644000162,None,None,1,,,,,,,,,,,,,,026,2022-05-19_19h32.09.695,Main,2022.1.1,61.195166074670695,
negative,red,1,None,None,,,,,,,,,0,205,205,205,,,,,,,,,,,,,,,,,main,None,None,1,1.4960283999680541,675.883395700017,None,None,1,,,,,,,,,,,,,,026,2022-05-19_19h32.09.695,Main,2022.1.1,61.195166074670695,
negative,blue,2,None,k,,,,,,,,,0,206,206,206,,,,,,,,,,,,,,,,,main,None,None,1,1.4987087000044994,678.383351800032,None,None,1,,,,,,,,,,,,,,026,2022-05-19_19h32.09.695,Main,2022.1.1,61.195166074670695,
negative,yellow,2,k,None,,,,,,,,,0,207,207,207,,,,,,,,,,,,,,,,,main,k,k,1,0.8657447999576107,680.8837067999993,None,None,0,,,,,,,,,,,,,,026,2022-05-19_19h32.09.695,Main,2022.1.1,61.195166074670695,
positive,yellow,2,None,k,,,,,,,,,0,208,208,208,,,,,,,,,,,,,,,,,main,None,None,1,1.4991394000244327,682.7499020000105,None,None,1,,,,,,,,,,,,,,026,2022-05-19_19h32.09.695,Main,2022.1.1,61.195166074670695,
negative,yellow,1,k,None,,,,,,,,,0,209,209,209,,,,,,,,,,,,,,,,,main,k,k,1,1.565771300054621,685.2501639000257,None,None,0,,,,,,,,,,,,,,026,2022-05-19_19h32.09.695,Main,2022.1.1,61.195166074670695,
negative,red,2,None,None,,,,,,,,,0,210,210,210,,,,,,,,,,,,,,,,,main,None,None,1,1.5031859999871813,688.8163294999977,None,None,1,,,,,,,,,,,,,,026,2022-05-19_19h32.09.695,Main,2022.1.1,61.195166074670695,
negative,blue,1,None,k,,,,,,,,,0,211,211,211,,,,,,,,,,,,,,,,,main,None,None,1,1.4966707999701612,691.3188924000133,None,None,1,,,,,,,,,,,,,,026,2022-05-19_19h32.09.695,Main,2022.1.1,61.195166074670695,
negative,yellow,1,k,None,,,,,,,,,0,212,212,212,,,,,,,,,,,,,,,,,main,k,k,1,0.7819907999946736,693.81677580002,None,None,0,,,,,,,,,,,,,,026,2022-05-19_19h32.09.695,Main,2022.1.1,61.195166074670695,
positive,blue,1,k,None,,,,,,,,,0,213,213,213,,,,,,,,,,,,,,,,,main,k,k,1,0.9661051000002772,695.5993735000375,None,None,0,,,,,,,,,,,,,,026,2022-05-19_19h32.09.695,Main,2022.1.1,61.195166074670695,
positive,blue,1,k,None,,,,,,,,,0,214,214,214,,,,,,,,,,,,,,,,,main,k,k,1,0.6160378000349738,697.5660555000068,None,None,0,,,,,,,,,,,,,,026,2022-05-19_19h32.09.695,Main,2022.1.1,61.195166074670695,
positive,yellow,1,None,k,,,,,,,,,0,215,215,215,,,,,,,,,,,,,,,,,main,None,None,1,1.5011498999665491,699.1853373000049,None,None,1,,,,,,,,,,,,,,026,2022-05-19_19h32.09.695,Main,2022.1.1,61.195166074670695,
positive,yellow,1,None,k,,,,,,,,,0,216,216,216,,,,,,,,,,,,,,,,,main,None,None,1,1.49709860002622,701.6853266000398,None,None,1,,,,,,,,,,,,,,026,2022-05-19_19h32.09.695,Main,2022.1.1,61.195166074670695,
positive,yellow,2,None,k,,,,,,,,,0,217,217,217,,,,,,,,,,,,,,,,,main,None,None,1,1.4993340999935754,704.18285750004,None,None,1,,,,,,,,,,,,,,026,2022-05-19_19h32.09.695,Main,2022.1.1,61.195166074670695,
negative,blue,1,None,k,,,,,,,,,0,218,218,218,,,,,,,,,,,,,,,,,main,None,None,1,1.498080099991057,706.682745500002,None,None,1,,,,,,,,,,,,,,026,2022-05-19_19h32.09.695,Main,2022.1.1,61.195166074670695,
positive,red,2,None,None,,,,,,,,,0,219,219,219,,,,,,,,,,,,,,,,,main,None,None,1,1.499536600022111,709.1827301000012,None,None,1,,,,,,,,,,,,,,026,2022-05-19_19h32.09.695,Main,2022.1.1,61.195166074670695,
positive,yellow,1,None,k,,,,,,,,,0,220,220,220,,,,,,,,,,,,,,,,,main,None,None,1,1.5008768999832682,711.6823734000209,None,None,1,,,,,,,,,,,,,,026,2022-05-19_19h32.09.695,Main,2022.1.1,61.195166074670695,
positive,blue,1,k,None,,,,,,,,,0,221,221,221,,,,,,,,,,,,,,,,,main,k,k,1,1.2866335000144318,714.185111400031,None,None,0,,,,,,,,,,,,,,026,2022-05-19_19h32.09.695,Main,2022.1.1,61.195166074670695,
positive,yellow,2,None,k,,,,,,,,,0,222,222,222,,,,,,,,,,,,,,,,,main,None,None,1,1.4938973000389524,716.4712743000127,None,None,1,,,,,,,,,,,,,,026,2022-05-19_19h32.09.695,Main,2022.1.1,61.195166074670695,
negative,yellow,1,k,None,,,,,,,,,0,223,223,223,,,,,,,,,,,,,,,,,main,k,k,1,0.9476814999943599,718.9656456000521,None,None,0,,,,,,,,,,,,,,026,2022-05-19_19h32.09.695,Main,2022.1.1,61.195166074670695,
positive,yellow,2,None,k,,,,,,,,,0,224,224,224,,,,,,,,,,,,,,,,,main,None,None,1,1.4990920000127517,720.9183133000042,None,None,1,,,,,,,,,,,,,,026,2022-05-19_19h32.09.695,Main,2022.1.1,61.195166074670695,
negative,yellow,2,k,None,,,,,,,,,0,225,225,225,,,,,,,,,,,,,,,,,main,k,k,1,1.0821735000354238,723.4160772000323,None,None,0,,,,,,,,,,,,,,026,2022-05-19_19h32.09.695,Main,2022.1.1,61.195166074670695,
negative,blue,2,None,k,,,,,,,,,0,226,226,226,,,,,,,,,,,,,,,,,main,None,None,1,1.4993221000186168,725.4989957000362,None,None,1,,,,,,,,,,,,,,026,2022-05-19_19h32.09.695,Main,2022.1.1,61.195166074670695,
positive,red,2,None,None,,,,,,,,,0,227,227,227,,,,,,,,,,,,,,,,,main,None,None,1,1.498672500019893,727.9992719000438,None,None,1,,,,,,,,,,,,,,026,2022-05-19_19h32.09.695,Main,2022.1.1,61.195166074670695,
positive,blue,2,k,None,,,,,,,,,0,228,228,228,,,,,,,,,,,,,,,,,main,k,k,1,0.99945810000645,730.4988764000009,None,None,0,,,,,,,,,,,,,,026,2022-05-19_19h32.09.695,Main,2022.1.1,61.195166074670695,
negative,blue,1,None,k,,,,,,,,,0,229,229,229,,,,,,,,,,,,,,,,,main,None,None,1,1.4987788000144064,732.4991704000277,None,None,1,,,,,,,,,,,,,,026,2022-05-19_19h32.09.695,Main,2022.1.1,61.195166074670695,
positive,yellow,1,None,k,,,,,,,,,0,230,230,230,,,,,,,,,,,,,,,,,main,None,None,1,1.4996912999777123,734.9990998000139,None,None,1,,,,,,,,,,,,,,026,2022-05-19_19h32.09.695,Main,2022.1.1,61.195166074670695,
negative,blue,2,None,k,,,,,,,,,0,231,231,231,,,,,,,,,,,,,,,,,main,None,k,0,0.9152865000069141,737.4985744000296,None,None,1,,,,,,,,,,,,,,026,2022-05-19_19h32.09.695,Main,2022.1.1,61.195166074670695,
negative,red,1,None,None,,,,,,,,,0,232,232,232,,,,,,,,,,,,,,,,,main,None,None,1,1.4983966000145301,740.4181566000334,None,None,1,,,,,,,,,,,,,,026,2022-05-19_19h32.09.695,Main,2022.1.1,61.195166074670695,
positive,blue,2,k,None,,,,,,,,,0,233,233,233,,,,,,,,,,,,,,,,,main,k,k,1,1.682906300004106,742.9153808000265,None,None,0,,,,,,,,,,,,,,026,2022-05-19_19h32.09.695,Main,2022.1.1,61.195166074670695,
negative,yellow,1,k,None,,,,,,,,,0,234,234,234,,,,,,,,,,,,,,,,,main,k,k,1,0.8841232999693602,746.5986178000458,None,None,0,,,,,,,,,,,,,,026,2022-05-19_19h32.09.695,Main,2022.1.1,61.195166074670695,
negative,yellow,2,k,None,,,,,,,,,0,235,235,235,,,,,,,,,,,,,,,,,main,k,k,1,0.748557900020387,748.4842626000172,None,None,0,,,,,,,,,,,,,,026,2022-05-19_19h32.09.695,Main,2022.1.1,61.195166074670695,
positive,red,1,None,None,,,,,,,,,0,236,236,236,,,,,,,,,,,,,,,,,main,None,None,1,1.5015906000044197,750.231588500028,None,None,1,,,,,,,,,,,,,,026,2022-05-19_19h32.09.695,Main,2022.1.1,61.195166074670695,
negative,red,2,None,None,,,,,,,,,0,237,237,237,,,,,,,,,,,,,,,,,main,None,None,1,1.499075100000482,752.734220900049,None,None,1,,,,,,,,,,,,,,026,2022-05-19_19h32.09.695,Main,2022.1.1,61.195166074670695,
negative,blue,1,None,k,,,,,,,,,0,238,238,238,,,,,,,,,,,,,,,,,main,None,None,1,1.4961833999841474,755.2342694000108,None,None,1,,,,,,,,,,,,,,026,2022-05-19_19h32.09.695,Main,2022.1.1,61.195166074670695,
positive,blue,1,k,None,,,,,,,,,0,239,239,239,,,,,,,,,,,,,,,,,main,k,k,1,0.8166540999663994,757.7314279000275,None,None,0,,,,,,,,,,,,,,026,2022-05-19_19h32.09.695,Main,2022.1.1,61.195166074670695,
,,,,,,,,,,,,,,,,,,,,,,,,,,,,,,,,,,,,,,,,,,,,,,,,,,,,,759.5508562000468,None,,,,,,
