distractor,target,set,ans1,ans2,rep_loop4.thisRepN,rep_loop4.thisTrialN,rep_loop4.thisN,rep_loop4.thisIndex,st2_prac_loop.thisRepN,st2_prac_loop.thisTrialN,st2_prac_loop.thisN,st2_prac_loop.thisIndex,st2_main_loop.thisRepN,st2_main_loop.thisTrialN,st2_main_loop.thisN,st2_main_loop.thisIndex,image_4.started,image_4.stopped,sound_2.started,sound_2.stopped,key_resp_3.keys,key_resp_3.rt,image_5.started,image_5.stopped,st_prac_back.started,st_prac_back.stopped,st_prac_text.started,st_prac_text.stopped,st_fix_back.started,st_fix_back.stopped,st_fix_2.started,st_fix_2.stopped,main_prac,st_ans,st_res,st_corr,st_rt,st_back.started,st_back.stopped,st2_resp.keys,st2_resp.corr,st_main_back.started,st_main_back.stopped,st_main_text.started,st_main_text.stopped,mouse_4.x,mouse_4.y,mouse_4.leftButton,mouse_4.midButton,mouse_4.rightButton,mouse_4.started,mouse_4.stopped,text_2.started,text_2.stopped,id*,date,expName,psychopyVersion,frameRate,
negative,yellow,1,k,None,,,,,0,0,0,0,,,,,29.681289799977094,None,32.96564109997125,None,space,59.53187180001987,92.51356420002412,None,96.57768709998345,None,96.57768709998345,None,98.58025599998655,None,98.58025599998655,None,prac,None,None,1,1.4948189000133425,100.59218520001741,None,None,1,,,,,,,,,,,,,,027,2022-05-20_18h25.22.105,Main,2022.1.1,59.79977838896618,
positive,red,2,None,None,,,,,0,1,1,1,,,,,,,,,,,,,,,,,,,,,prac,None,None,1,1.4989276999840513,103.09452199999942,None,None,1,,,,,,,,,,,,,,027,2022-05-20_18h25.22.105,Main,2022.1.1,59.79977838896618,
negative,blue,2,None,k,,,,,0,2,2,2,,,,,,,,,,,,,,,,,,,,,prac,k,k,1,0.5168524999753572,105.59428929997375,None,None,0,,,,,,,,,,,,,,027,2022-05-20_18h25.22.105,Main,2022.1.1,59.79977838896618,
positive,yellow,1,None,k,,,,,0,3,3,3,,,,,,,,,,,,,,,,,,,,,prac,k,k,1,1.1481748999794945,107.11096060002455,None,None,0,,,,,,,,,,,,,,027,2022-05-20_18h25.22.105,Main,2022.1.1,59.79977838896618,
negative,blue,2,None,k,,,,,0,4,4,4,,,,,,,,,,,,,,,,,,,,,prac,k,k,1,0.9320502000045963,109.26192610000726,None,None,0,,,,,,,,,,,,,,027,2022-05-20_18h25.22.105,Main,2022.1.1,59.79977838896618,
negative,blue,1,None,k,,,,,0,5,5,5,,,,,,,,,,,,,,,,,,,,,prac,k,k,1,1.766142199980095,111.19395460002124,None,None,0,,,,,,,,,,,,,,027,2022-05-20_18h25.22.105,Main,2022.1.1,59.79977838896618,
negative,yellow,2,k,None,,,,,0,6,6,6,,,,,,,,,,,,,,,,,,,,,prac,None,None,1,1.4992075000191107,114.96337969996966,None,None,1,,,,,,,,,,,,,,027,2022-05-20_18h25.22.105,Main,2022.1.1,59.79977838896618,
negative,red,1,None,None,,,,,0,7,7,7,,,,,,,,,,,,,,,,,,,,,prac,None,None,1,1.4981622999766842,117.46310090000043,None,None,1,,,,,,,,,,,,,,027,2022-05-20_18h25.22.105,Main,2022.1.1,59.79977838896618,
positive,yellow,2,None,k,,,,,0,8,8,8,,,,,,,,,,,,,,,,,,,,,prac,k,k,1,1.464973199996166,119.9607013000059,None,None,0,,,,,,,,,,,,,,027,2022-05-20_18h25.22.105,Main,2022.1.1,59.79977838896618,
negative,yellow,1,k,None,,,,,0,9,9,9,,,,,,,,,,,,,,,,,,,,,prac,None,None,1,1.499530400033109,122.42734150000615,None,None,1,,,,,,,,,,,,,,027,2022-05-20_18h25.22.105,Main,2022.1.1,59.79977838896618,
positive,yellow,2,None,k,,,,,0,10,10,10,,,,,,,,,,,,,,,,,,,,,prac,k,k,1,1.4649318999727257,124.92727919999743,None,None,0,,,,,,,,,,,,,,027,2022-05-20_18h25.22.105,Main,2022.1.1,59.79977838896618,
negative,yellow,2,k,None,,,,,0,11,11,11,,,,,,,,,,,,,,,,,,,,,prac,None,None,1,1.499153100012336,127.39391400001477,None,None,1,,,,,,,,,,,,,,027,2022-05-20_18h25.22.105,Main,2022.1.1,59.79977838896618,
negative,red,2,None,None,,,,,0,12,12,12,,,,,,,,,,,,,,,,,,,,,prac,None,k,0,1.417556100001093,129.89354560000356,None,None,1,,,,,,,,,,,,,,027,2022-05-20_18h25.22.105,Main,2022.1.1,59.79977838896618,
positive,red,1,None,None,,,,,0,13,13,13,,,,,,,,,,,,,,,,,,,,,prac,None,None,1,1.49828240001807,133.31301009998424,None,None,1,,,,,,,,,,,,,,027,2022-05-20_18h25.22.105,Main,2022.1.1,59.79977838896618,
positive,blue,2,k,None,,,,,0,14,14,14,,,,,,,,,,,,,,,,,,,,,prac,None,None,1,1.4995415000012144,135.81036429997766,None,None,1,,,,,,,,,,,,,,027,2022-05-20_18h25.22.105,Main,2022.1.1,59.79977838896618,
positive,blue,1,k,None,,,,,0,15,15,15,,,,,,,,,,,,,,,,,,,,,prac,None,k,0,0.6815481000230648,138.31240230001276,None,None,1,,,,,,,,,,,,,,027,2022-05-20_18h25.22.105,Main,2022.1.1,59.79977838896618,
negative,blue,1,None,k,,,,,0,16,16,16,,,,,,,,,,,,,,,,,,,,,prac,k,k,1,0.7341884999768808,140.9936130999704,None,None,0,,,,,,,,,,,,,,027,2022-05-20_18h25.22.105,Main,2022.1.1,59.79977838896618,
positive,blue,2,k,None,,,,,0,17,17,17,,,,,,,,,,,,,,,,,,,,,prac,None,None,1,1.499551499960944,142.72695739998017,None,None,1,,,,,,,,,,,,,,027,2022-05-20_18h25.22.105,Main,2022.1.1,59.79977838896618,
positive,blue,1,k,None,,,,,0,18,18,18,,,,,,,,,,,,,,,,,,,,,prac,None,None,1,1.5001554999616928,145.2268155000056,None,None,1,,,,,,,,,,,,,,027,2022-05-20_18h25.22.105,Main,2022.1.1,59.79977838896618,
positive,yellow,1,None,k,,,,,0,19,19,19,,,,,,,,,,,,,,,,,,,,,prac,k,k,1,1.0301960000069812,147.72681620001094,None,None,0,,,,,,,,,,,,,,027,2022-05-20_18h25.22.105,Main,2022.1.1,59.79977838896618,
negative,yellow,1,k,None,,,,,1,0,20,0,,,,,,,,,,,,,,,,,,,,,prac,None,None,1,1.499766599969007,149.76004459999967,None,None,1,,,,,,,,,,,,,,027,2022-05-20_18h25.22.105,Main,2022.1.1,59.79977838896618,
positive,red,2,None,None,,,,,1,1,21,1,,,,,,,,,,,,,,,,,,,,,prac,None,None,1,1.4979446000070311,152.26003710000077,None,None,1,,,,,,,,,,,,,,027,2022-05-20_18h25.22.105,Main,2022.1.1,59.79977838896618,
negative,blue,2,None,k,,,,,1,2,22,2,,,,,,,,,,,,,,,,,,,,,prac,k,k,1,0.6824773999978788,154.7600469000172,None,None,0,,,,,,,,,,,,,,027,2022-05-20_18h25.22.105,Main,2022.1.1,59.79977838896618,
positive,yellow,1,None,k,,,,,1,3,23,3,,,,,,,,,,,,,,,,,,,,,prac,k,k,1,0.701860300032422,156.44302990002325,None,None,0,,,,,,,,,,,,,,027,2022-05-20_18h25.22.105,Main,2022.1.1,59.79977838896618,
negative,blue,2,None,k,,,,,1,4,24,4,,,,,,,,,,,,,,,,,,,,,prac,k,k,1,0.9657476000138558,158.14570970000932,None,None,0,,,,,,,,,,,,,,027,2022-05-20_18h25.22.105,Main,2022.1.1,59.79977838896618,
negative,blue,1,None,k,,,,,1,5,25,5,,,,,,,,,,,,,,,,,,,,,prac,k,k,1,1.2630711999954656,160.10999560001073,None,None,0,,,,,,,,,,,,,,027,2022-05-20_18h25.22.105,Main,2022.1.1,59.79977838896618,
negative,yellow,2,k,None,,,,,1,6,26,6,,,,,,,,,,,,,,,,,,,,,prac,None,None,1,1.5015839000116102,162.3762406000169,None,None,1,,,,,,,,,,,,,,027,2022-05-20_18h25.22.105,Main,2022.1.1,59.79977838896618,
negative,red,1,None,None,,,,,1,7,27,7,,,,,,,,,,,,,,,,,,,,,prac,None,None,1,1.4989807999809273,164.87893609999446,None,None,1,,,,,,,,,,,,,,027,2022-05-20_18h25.22.105,Main,2022.1.1,59.79977838896618,
positive,yellow,2,None,k,,,,,1,8,28,8,,,,,,,,,,,,,,,,,,,,,prac,k,k,1,0.7412930999998935,167.37894819997018,None,None,0,,,,,,,,,,,,,,027,2022-05-20_18h25.22.105,Main,2022.1.1,59.79977838896618,
negative,yellow,1,k,None,,,,,1,9,29,9,,,,,,,,,,,,,,,,,,,,,prac,None,None,1,1.4900824000360444,169.11156920000212,None,None,1,,,,,,,,,,,,,,027,2022-05-20_18h25.22.105,Main,2022.1.1,59.79977838896618,
positive,yellow,2,None,k,,,,,1,10,30,10,,,,,,,,,,,,,,,,,,,,,prac,k,k,1,0.9302269999752752,171.6121656000032,None,None,0,,,,,,,,,,,,,,027,2022-05-20_18h25.22.105,Main,2022.1.1,59.79977838896618,
negative,yellow,2,k,None,,,,,1,11,31,11,,,,,,,,,,,,,,,,,,,,,prac,None,None,1,1.4993552999803796,173.54545610002242,None,None,1,,,,,,,,,,,,,,027,2022-05-20_18h25.22.105,Main,2022.1.1,59.79977838896618,
negative,red,2,None,None,,,,,1,12,32,12,,,,,,,,,,,,,,,,,,,,,prac,None,None,1,1.5006774999783374,176.04267009999603,None,None,1,,,,,,,,,,,,,,027,2022-05-20_18h25.22.105,Main,2022.1.1,59.79977838896618,
positive,red,1,None,None,,,,,1,13,33,13,,,,,,,,,,,,,,,,,,,,,prac,None,None,1,1.4964866999653168,178.54541570000583,None,None,1,,,,,,,,,,,,,,027,2022-05-20_18h25.22.105,Main,2022.1.1,59.79977838896618,
positive,blue,2,k,None,,,,,1,14,34,14,,,,,,,,,,,,,,,,,,,,,prac,None,None,1,1.499333799991291,181.04281060001813,None,None,1,,,,,,,,,,,,,,027,2022-05-20_18h25.22.105,Main,2022.1.1,59.79977838896618,
positive,blue,1,k,None,,,,,1,15,35,15,,,,,,,,,,,,,,,,,,,,,prac,None,None,1,1.4996174999978393,183.54273029998876,None,None,1,,,,,,,,,,,,,,027,2022-05-20_18h25.22.105,Main,2022.1.1,59.79977838896618,
negative,blue,1,None,k,,,,,1,16,36,16,,,,,,,,,,,,,,,,,,,,,prac,k,k,1,2.7482135000173002,186.04270799999358,None,None,0,,,,,,,,,,,,,,027,2022-05-20_18h25.22.105,Main,2022.1.1,59.79977838896618,
positive,blue,2,k,None,,,,,1,17,37,17,,,,,,,,,,,,,,,,,,,,,prac,None,None,1,1.5014075000071898,190.79500819998793,None,None,1,,,,,,,,,,,,,,027,2022-05-20_18h25.22.105,Main,2022.1.1,59.79977838896618,
positive,blue,1,k,None,,,,,1,18,38,18,,,,,,,,,,,,,,,,,,,,,prac,None,None,1,1.4974125000298955,193.29252100002486,None,None,1,,,,,,,,,,,,,,027,2022-05-20_18h25.22.105,Main,2022.1.1,59.79977838896618,
positive,yellow,1,None,k,,,,,1,19,39,19,,,,,,,,,,,,,,,,,,,,,prac,k,k,1,0.7660354999825358,195.79251629998907,None,None,0,,,,,,,,,,,,,,027,2022-05-20_18h25.22.105,Main,2022.1.1,59.79977838896618,
,,,,,,,,,,,,,,,,,,,,,,,,,,,,,,,,,,,,,,,,,,197.55921969999326,None,197.55921969999326,None,0.06481481,-0.06851852,0,0,0,0.0139686000184156,None,,,027,2022-05-20_18h25.22.105,Main,2022.1.1,59.79977838896618,
negative,yellow,2,k,None,,,,,,,,,0,0,0,0,,,,,,,,,,,,,198.70888859999832,None,198.70888859999832,None,main,None,None,1,1.5020676999702118,200.75103029998718,None,None,1,,,,,,,,,,,,,,027,2022-05-20_18h25.22.105,Main,2022.1.1,59.79977838896618,
positive,red,1,None,None,,,,,,,,,0,1,1,1,,,,,,,,,,,,,,,,,main,None,None,1,1.496325700019952,203.2615564999869,None,None,1,,,,,,,,,,,,,,027,2022-05-20_18h25.22.105,Main,2022.1.1,59.79977838896618,
positive,blue,2,k,None,,,,,,,,,0,2,2,2,,,,,,,,,,,,,,,,,main,None,None,1,1.5003393999650143,205.75898199999938,None,None,1,,,,,,,,,,,,,,027,2022-05-20_18h25.22.105,Main,2022.1.1,59.79977838896618,
positive,blue,1,k,None,,,,,,,,,0,3,3,3,,,,,,,,,,,,,,,,,main,None,None,1,1.4998098000069149,208.25864850002108,None,None,1,,,,,,,,,,,,,,027,2022-05-20_18h25.22.105,Main,2022.1.1,59.79977838896618,
negative,yellow,2,k,None,,,,,,,,,0,4,4,4,,,,,,,,,,,,,,,,,main,None,None,1,1.499772800016217,210.76141969999298,None,None,1,,,,,,,,,,,,,,027,2022-05-20_18h25.22.105,Main,2022.1.1,59.79977838896618,
positive,yellow,2,None,k,,,,,,,,,0,5,5,5,,,,,,,,,,,,,,,,,main,k,k,1,0.9292376000084914,213.25881239998853,None,None,0,,,,,,,,,,,,,,027,2022-05-20_18h25.22.105,Main,2022.1.1,59.79977838896618,
negative,blue,2,None,k,,,,,,,,,0,6,6,6,,,,,,,,,,,,,,,,,main,k,k,1,0.6491519000264816,215.19206279999344,None,None,0,,,,,,,,,,,,,,027,2022-05-20_18h25.22.105,Main,2022.1.1,59.79977838896618,
positive,red,2,None,None,,,,,,,,,0,7,7,7,,,,,,,,,,,,,,,,,main,None,None,1,1.4989392000134103,216.84207910002442,None,None,1,,,,,,,,,,,,,,027,2022-05-20_18h25.22.105,Main,2022.1.1,59.79977838896618,
positive,yellow,1,None,k,,,,,,,,,0,8,8,8,,,,,,,,,,,,,,,,,main,k,k,1,1.1656038999790326,219.34213569998974,None,None,0,,,,,,,,,,,,,,027,2022-05-20_18h25.22.105,Main,2022.1.1,59.79977838896618,
negative,red,1,None,None,,,,,,,,,0,9,9,9,,,,,,,,,,,,,,,,,main,None,None,1,1.5015565000358038,221.50836989999516,None,None,1,,,,,,,,,,,,,,027,2022-05-20_18h25.22.105,Main,2022.1.1,59.79977838896618,
positive,yellow,1,None,k,,,,,,,,,0,10,10,10,,,,,,,,,,,,,,,,,main,k,k,1,0.8828316999715753,224.01102109998465,None,None,0,,,,,,,,,,,,,,027,2022-05-20_18h25.22.105,Main,2022.1.1,59.79977838896618,
negative,yellow,1,k,None,,,,,,,,,0,11,11,11,,,,,,,,,,,,,,,,,main,None,None,1,1.4971152999787591,225.8944755999837,None,None,1,,,,,,,,,,,,,,027,2022-05-20_18h25.22.105,Main,2022.1.1,59.79977838896618,
negative,yellow,1,k,None,,,,,,,,,0,12,12,12,,,,,,,,,,,,,,,,,main,None,None,1,1.4989035000326112,228.39185269997688,None,None,1,,,,,,,,,,,,,,027,2022-05-20_18h25.22.105,Main,2022.1.1,59.79977838896618,
negative,red,2,None,None,,,,,,,,,0,13,13,13,,,,,,,,,,,,,,,,,main,None,None,1,1.4979802999878302,230.89179490000242,None,None,1,,,,,,,,,,,,,,027,2022-05-20_18h25.22.105,Main,2022.1.1,59.79977838896618,
positive,yellow,2,None,k,,,,,,,,,0,14,14,14,,,,,,,,,,,,,,,,,main,k,k,1,0.683376400033012,233.39421539998148,None,None,0,,,,,,,,,,,,,,027,2022-05-20_18h25.22.105,Main,2022.1.1,59.79977838896618,
positive,blue,1,k,None,,,,,,,,,0,15,15,15,,,,,,,,,,,,,,,,,main,None,None,1,1.500253900012467,235.07477920001838,None,None,1,,,,,,,,,,,,,,027,2022-05-20_18h25.22.105,Main,2022.1.1,59.79977838896618,
negative,blue,1,None,k,,,,,,,,,0,16,16,16,,,,,,,,,,,,,,,,,main,k,k,1,0.91360990004614,237.57753800001228,None,None,0,,,,,,,,,,,,,,027,2022-05-20_18h25.22.105,Main,2022.1.1,59.79977838896618,
positive,blue,2,k,None,,,,,,,,,0,17,17,17,,,,,,,,,,,,,,,,,main,None,None,1,1.4995704000466503,239.49173279997194,None,None,1,,,,,,,,,,,,,,027,2022-05-20_18h25.22.105,Main,2022.1.1,59.79977838896618,
negative,blue,2,None,k,,,,,,,,,0,18,18,18,,,,,,,,,,,,,,,,,main,k,k,1,0.7814199000131339,241.99159380001947,None,None,0,,,,,,,,,,,,,,027,2022-05-20_18h25.22.105,Main,2022.1.1,59.79977838896618,
negative,blue,1,None,k,,,,,,,,,0,19,19,19,,,,,,,,,,,,,,,,,main,k,k,1,0.6825044000288472,243.7748353999923,None,None,0,,,,,,,,,,,,,,027,2022-05-20_18h25.22.105,Main,2022.1.1,59.79977838896618,
negative,blue,1,None,k,,,,,,,,,0,20,20,20,,,,,,,,,,,,,,,,,main,k,k,1,1.449121900019236,245.45815010002116,None,None,0,,,,,,,,,,,,,,027,2022-05-20_18h25.22.105,Main,2022.1.1,59.79977838896618,
negative,blue,2,None,k,,,,,,,,,0,21,21,21,,,,,,,,,,,,,,,,,main,k,k,1,0.8496030999813229,247.9081488000229,None,None,0,,,,,,,,,,,,,,027,2022-05-20_18h25.22.105,Main,2022.1.1,59.79977838896618,
negative,red,1,None,None,,,,,,,,,0,22,22,22,,,,,,,,,,,,,,,,,main,None,None,1,1.501260299992282,249.75781759998063,None,None,1,,,,,,,,,,,,,,027,2022-05-20_18h25.22.105,Main,2022.1.1,59.79977838896618,
positive,red,2,None,None,,,,,,,,,0,23,23,23,,,,,,,,,,,,,,,,,main,None,None,1,1.4992820000043139,252.2581871000002,None,None,1,,,,,,,,,,,,,,027,2022-05-20_18h25.22.105,Main,2022.1.1,59.79977838896618,
negative,red,2,None,None,,,,,,,,,0,24,24,24,,,,,,,,,,,,,,,,,main,None,None,1,1.4980710999807343,254.75812090002,None,None,1,,,,,,,,,,,,,,027,2022-05-20_18h25.22.105,Main,2022.1.1,59.79977838896618,
positive,blue,2,k,None,,,,,,,,,0,25,25,25,,,,,,,,,,,,,,,,,main,None,None,1,1.499515000032261,257.2577061000047,None,None,1,,,,,,,,,,,,,,027,2022-05-20_18h25.22.105,Main,2022.1.1,59.79977838896618,
negative,yellow,1,k,None,,,,,,,,,0,26,26,26,,,,,,,,,,,,,,,,,main,None,None,1,1.496500900015235,259.7579819000093,None,None,1,,,,,,,,,,,,,,027,2022-05-20_18h25.22.105,Main,2022.1.1,59.79977838896618,
positive,blue,2,k,None,,,,,,,,,0,27,27,27,,,,,,,,,,,,,,,,,main,None,None,1,1.500891399977263,262.25785739999264,None,None,1,,,,,,,,,,,,,,027,2022-05-20_18h25.22.105,Main,2022.1.1,59.79977838896618,
negative,blue,2,None,k,,,,,,,,,0,28,28,28,,,,,,,,,,,,,,,,,main,k,k,1,0.7792340999585576,264.7575803999789,None,None,0,,,,,,,,,,,,,,027,2022-05-20_18h25.22.105,Main,2022.1.1,59.79977838896618,
positive,red,1,None,None,,,,,,,,,0,29,29,29,,,,,,,,,,,,,,,,,main,None,None,1,1.5016663999995217,266.54084859997965,None,None,1,,,,,,,,,,,,,,027,2022-05-20_18h25.22.105,Main,2022.1.1,59.79977838896618,
positive,blue,1,k,None,,,,,,,,,0,30,30,30,,,,,,,,,,,,,,,,,main,None,None,1,1.4974692999967374,269.0435605000239,None,None,1,,,,,,,,,,,,,,027,2022-05-20_18h25.22.105,Main,2022.1.1,59.79977838896618,
positive,yellow,1,None,k,,,,,,,,,0,31,31,31,,,,,,,,,,,,,,,,,main,k,k,1,1.4481553000514396,271.54100409999955,None,None,0,,,,,,,,,,,,,,027,2022-05-20_18h25.22.105,Main,2022.1.1,59.79977838896618,
negative,yellow,2,k,None,,,,,,,,,0,32,32,32,,,,,,,,,,,,,,,,,main,None,None,1,1.4999321000068448,273.9909458999755,None,None,1,,,,,,,,,,,,,,027,2022-05-20_18h25.22.105,Main,2022.1.1,59.79977838896618,
negative,blue,1,None,k,,,,,,,,,0,33,33,33,,,,,,,,,,,,,,,,,main,k,k,1,0.7647756999940611,276.4908643999952,None,None,0,,,,,,,,,,,,,,027,2022-05-20_18h25.22.105,Main,2022.1.1,59.79977838896618,
positive,blue,1,k,None,,,,,,,,,0,34,34,34,,,,,,,,,,,,,,,,,main,None,k,0,0.6487472000299022,278.2575415999745,None,None,1,,,,,,,,,,,,,,027,2022-05-20_18h25.22.105,Main,2022.1.1,59.79977838896618,
negative,yellow,1,k,None,,,,,,,,,0,35,35,35,,,,,,,,,,,,,,,,,main,None,None,1,1.5032309000380337,280.9072260999819,None,None,1,,,,,,,,,,,,,,027,2022-05-20_18h25.22.105,Main,2022.1.1,59.79977838896618,
positive,yellow,2,None,k,,,,,,,,,0,36,36,36,,,,,,,,,,,,,,,,,main,k,k,1,0.6465081999776885,283.4099106999929,None,None,0,,,,,,,,,,,,,,027,2022-05-20_18h25.22.105,Main,2022.1.1,59.79977838896618,
positive,yellow,2,None,k,,,,,,,,,0,37,37,37,,,,,,,,,,,,,,,,,main,k,k,1,0.6158492000540718,285.0598358999705,None,None,0,,,,,,,,,,,,,,027,2022-05-20_18h25.22.105,Main,2022.1.1,59.79977838896618,
negative,yellow,2,k,None,,,,,,,,,0,38,38,38,,,,,,,,,,,,,,,,,main,None,k,0,0.5497157000354491,286.67403649998596,None,None,1,,,,,,,,,,,,,,027,2022-05-20_18h25.22.105,Main,2022.1.1,59.79977838896618,
positive,yellow,1,None,k,,,,,,,,,0,39,39,39,,,,,,,,,,,,,,,,,main,k,k,1,0.7511494999635033,289.2237415999989,None,None,0,,,,,,,,,,,,,,027,2022-05-20_18h25.22.105,Main,2022.1.1,59.79977838896618,
negative,yellow,2,k,None,,,,,,,,,0,40,40,40,,,,,,,,,,,,,,,,,main,None,None,1,1.499240999983158,290.9740189000149,None,None,1,,,,,,,,,,,,,,027,2022-05-20_18h25.22.105,Main,2022.1.1,59.79977838896618,
positive,blue,2,k,None,,,,,,,,,0,41,41,41,,,,,,,,,,,,,,,,,main,None,k,0,1.0149007000145502,293.476293899992,None,None,1,,,,,,,,,,,,,,027,2022-05-20_18h25.22.105,Main,2022.1.1,59.79977838896618,
positive,blue,2,k,None,,,,,,,,,0,42,42,42,,,,,,,,,,,,,,,,,main,None,None,1,1.5015637999749742,296.506870799989,None,None,1,,,,,,,,,,,,,,027,2022-05-20_18h25.22.105,Main,2022.1.1,59.79977838896618,
negative,blue,2,None,k,,,,,,,,,0,43,43,43,,,,,,,,,,,,,,,,,main,k,k,1,0.7337534999824129,299.0068811000092,None,None,0,,,,,,,,,,,,,,027,2022-05-20_18h25.22.105,Main,2022.1.1,59.79977838896618,
negative,red,1,None,None,,,,,,,,,0,44,44,44,,,,,,,,,,,,,,,,,main,None,None,1,1.4998314999975264,300.74280190002173,None,None,1,,,,,,,,,,,,,,027,2022-05-20_18h25.22.105,Main,2022.1.1,59.79977838896618,
negative,yellow,1,k,None,,,,,,,,,0,45,45,45,,,,,,,,,,,,,,,,,main,None,None,1,1.4962162000010721,303.24035460001323,None,None,1,,,,,,,,,,,,,,027,2022-05-20_18h25.22.105,Main,2022.1.1,59.79977838896618,
negative,yellow,1,k,None,,,,,,,,,0,46,46,46,,,,,,,,,,,,,,,,,main,None,None,1,1.498026299988851,305.7402488000225,None,None,1,,,,,,,,,,,,,,027,2022-05-20_18h25.22.105,Main,2022.1.1,59.79977838896618,
positive,red,1,None,None,,,,,,,,,0,47,47,47,,,,,,,,,,,,,,,,,main,None,None,1,1.4996000000392087,308.24025159998564,None,None,1,,,,,,,,,,,,,,027,2022-05-20_18h25.22.105,Main,2022.1.1,59.79977838896618,
positive,yellow,1,None,k,,,,,,,,,0,48,48,48,,,,,,,,,,,,,,,,,main,k,k,1,1.2150945999892429,310.7399158999906,None,None,0,,,,,,,,,,,,,,027,2022-05-20_18h25.22.105,Main,2022.1.1,59.79977838896618,
negative,blue,1,None,k,,,,,,,,,0,49,49,49,,,,,,,,,,,,,,,,,main,k,k,1,0.7014831000124104,312.9593036000151,None,None,0,,,,,,,,,,,,,,027,2022-05-20_18h25.22.105,Main,2022.1.1,59.79977838896618,
positive,yellow,2,None,k,,,,,,,,,0,50,50,50,,,,,,,,,,,,,,,,,main,k,k,1,0.7133597999927588,314.6592837999924,None,None,0,,,,,,,,,,,,,,027,2022-05-20_18h25.22.105,Main,2022.1.1,59.79977838896618,
negative,blue,1,None,k,,,,,,,,,0,51,51,51,,,,,,,,,,,,,,,,,main,k,k,1,0.5322837000130676,316.37340560002485,None,None,0,,,,,,,,,,,,,,027,2022-05-20_18h25.22.105,Main,2022.1.1,59.79977838896618,
positive,red,2,None,None,,,,,,,,,0,52,52,52,,,,,,,,,,,,,,,,,main,None,None,1,1.499680900014937,317.9067285999772,None,None,1,,,,,,,,,,,,,,027,2022-05-20_18h25.22.105,Main,2022.1.1,59.79977838896618,
positive,yellow,2,None,k,,,,,,,,,0,53,53,53,,,,,,,,,,,,,,,,,main,k,k,1,0.7484807000146247,320.40647470002295,None,None,0,,,,,,,,,,,,,,027,2022-05-20_18h25.22.105,Main,2022.1.1,59.79977838896618,
negative,red,2,None,None,,,,,,,,,0,54,54,54,,,,,,,,,,,,,,,,,main,None,None,1,1.5047116000205278,322.15912949998165,None,None,1,,,,,,,,,,,,,,027,2022-05-20_18h25.22.105,Main,2022.1.1,59.79977838896618,
positive,yellow,1,None,k,,,,,,,,,0,55,55,55,,,,,,,,,,,,,,,,,main,k,k,1,0.7266407000133768,324.66084299999056,None,None,0,,,,,,,,,,,,,,027,2022-05-20_18h25.22.105,Main,2022.1.1,59.79977838896618,
negative,blue,2,None,k,,,,,,,,,0,56,56,56,,,,,,,,,,,,,,,,,main,k,k,1,0.6823354999651201,326.38989009999204,None,None,0,,,,,,,,,,,,,,027,2022-05-20_18h25.22.105,Main,2022.1.1,59.79977838896618,
positive,blue,1,k,None,,,,,,,,,0,57,57,57,,,,,,,,,,,,,,,,,main,None,None,1,1.4987773000029847,328.07314410002436,None,None,1,,,,,,,,,,,,,,027,2022-05-20_18h25.22.105,Main,2022.1.1,59.79977838896618,
positive,blue,1,k,None,,,,,,,,,0,58,58,58,,,,,,,,,,,,,,,,,main,None,k,0,0.7988418000168167,330.5754952999996,None,None,1,,,,,,,,,,,,,,027,2022-05-20_18h25.22.105,Main,2022.1.1,59.79977838896618,
negative,yellow,2,k,None,,,,,,,,,0,59,59,59,,,,,,,,,,,,,,,,,main,None,None,1,1.5034213000326417,333.3727933000191,None,None,1,,,,,,,,,,,,,,027,2022-05-20_18h25.22.105,Main,2022.1.1,59.79977838896618,
positive,red,2,None,None,,,,,,,,,0,60,60,60,,,,,,,,,,,,,,,,,main,None,None,1,1.4964947000262327,335.87549250002485,None,None,1,,,,,,,,,,,,,,027,2022-05-20_18h25.22.105,Main,2022.1.1,59.79977838896618,
negative,yellow,1,k,None,,,,,,,,,0,61,61,61,,,,,,,,,,,,,,,,,main,None,None,1,1.4989658000413328,338.3729677000083,None,None,1,,,,,,,,,,,,,,027,2022-05-20_18h25.22.105,Main,2022.1.1,59.79977838896618,
negative,red,1,None,None,,,,,,,,,0,62,62,62,,,,,,,,,,,,,,,,,main,None,None,1,1.4991144000086933,340.8728453000076,None,None,1,,,,,,,,,,,,,,027,2022-05-20_18h25.22.105,Main,2022.1.1,59.79977838896618,
negative,blue,1,None,k,,,,,,,,,0,63,63,63,,,,,,,,,,,,,,,,,main,k,k,1,1.115734799997881,343.37286669999594,None,None,0,,,,,,,,,,,,,,027,2022-05-20_18h25.22.105,Main,2022.1.1,59.79977838896618,
positive,blue,2,k,None,,,,,,,,,0,64,64,64,,,,,,,,,,,,,,,,,main,None,None,1,1.4988011999521405,345.4918663999997,None,None,1,,,,,,,,,,,,,,027,2022-05-20_18h25.22.105,Main,2022.1.1,59.79977838896618,
negative,yellow,2,k,None,,,,,,,,,0,65,65,65,,,,,,,,,,,,,,,,,main,None,None,1,1.5000529999961145,347.9894482999807,None,None,1,,,,,,,,,,,,,,027,2022-05-20_18h25.22.105,Main,2022.1.1,59.79977838896618,
positive,yellow,2,None,k,,,,,,,,,0,66,66,66,,,,,,,,,,,,,,,,,main,k,k,1,0.7654389999806881,350.4893955999869,None,None,0,,,,,,,,,,,,,,027,2022-05-20_18h25.22.105,Main,2022.1.1,59.79977838896618,
positive,yellow,2,None,k,,,,,,,,,0,67,67,67,,,,,,,,,,,,,,,,,main,k,k,1,0.664595999987796,352.2557517000241,None,None,0,,,,,,,,,,,,,,027,2022-05-20_18h25.22.105,Main,2022.1.1,59.79977838896618,
positive,red,1,None,None,,,,,,,,,0,68,68,68,,,,,,,,,,,,,,,,,main,None,None,1,1.5015386000159197,353.9224196000141,None,None,1,,,,,,,,,,,,,,027,2022-05-20_18h25.22.105,Main,2022.1.1,59.79977838896618,
positive,yellow,1,None,k,,,,,,,,,0,69,69,69,,,,,,,,,,,,,,,,,main,k,k,1,0.646781999967061,356.4251187000191,None,None,0,,,,,,,,,,,,,,027,2022-05-20_18h25.22.105,Main,2022.1.1,59.79977838896618,
negative,yellow,2,k,None,,,,,,,,,0,70,70,70,,,,,,,,,,,,,,,,,main,None,None,1,1.49944929999765,358.0726171999704,None,None,1,,,,,,,,,,,,,,027,2022-05-20_18h25.22.105,Main,2022.1.1,59.79977838896618,
positive,yellow,1,None,k,,,,,,,,,0,71,71,71,,,,,,,,,,,,,,,,,main,k,k,1,0.6986117000342347,360.57244690001244,None,None,0,,,,,,,,,,,,,,027,2022-05-20_18h25.22.105,Main,2022.1.1,59.79977838896618,
negative,blue,1,None,k,,,,,,,,,0,72,72,72,,,,,,,,,,,,,,,,,main,k,k,1,0.8656503000529483,362.2724565999815,None,None,0,,,,,,,,,,,,,,027,2022-05-20_18h25.22.105,Main,2022.1.1,59.79977838896618,
negative,red,2,None,None,,,,,,,,,0,73,73,73,,,,,,,,,,,,,,,,,main,None,None,1,1.499417099985294,364.13913979998324,None,None,1,,,,,,,,,,,,,,027,2022-05-20_18h25.22.105,Main,2022.1.1,59.79977838896618,
positive,blue,2,k,None,,,,,,,,,0,74,74,74,,,,,,,,,,,,,,,,,main,None,None,1,1.5007358000148088,366.6387885999866,None,None,1,,,,,,,,,,,,,,027,2022-05-20_18h25.22.105,Main,2022.1.1,59.79977838896618,
negative,blue,2,None,k,,,,,,,,,0,75,75,75,,,,,,,,,,,,,,,,,main,k,k,1,0.8802465000189841,369.1414657999994,None,None,0,,,,,,,,,,,,,,027,2022-05-20_18h25.22.105,Main,2022.1.1,59.79977838896618,
negative,blue,2,None,k,,,,,,,,,0,76,76,76,,,,,,,,,,,,,,,,,main,k,k,1,0.99853979999898,371.024708300014,None,None,0,,,,,,,,,,,,,,027,2022-05-20_18h25.22.105,Main,2022.1.1,59.79977838896618,
negative,yellow,1,k,None,,,,,,,,,0,77,77,77,,,,,,,,,,,,,,,,,main,None,None,1,1.5014820999931544,373.02197190001607,None,None,1,,,,,,,,,,,,,,027,2022-05-20_18h25.22.105,Main,2022.1.1,59.79977838896618,
positive,blue,1,k,None,,,,,,,,,0,78,78,78,,,,,,,,,,,,,,,,,main,None,None,1,1.4991487999795936,375.52230309997685,None,None,1,,,,,,,,,,,,,,027,2022-05-20_18h25.22.105,Main,2022.1.1,59.79977838896618,
positive,blue,1,k,None,,,,,,,,,0,79,79,79,,,,,,,,,,,,,,,,,main,None,None,1,1.4973923999932595,378.0246353999828,None,None,1,,,,,,,,,,,,,,027,2022-05-20_18h25.22.105,Main,2022.1.1,59.79977838896618,
positive,red,2,None,None,,,,,,,,,0,80,80,80,,,,,,,,,,,,,,,,,main,None,None,1,1.500568499963265,380.52189719997114,None,None,1,,,,,,,,,,,,,,027,2022-05-20_18h25.22.105,Main,2022.1.1,59.79977838896618,
positive,yellow,2,None,k,,,,,,,,,0,81,81,81,,,,,,,,,,,,,,,,,main,k,k,1,2.130958399968222,383.02447020000545,None,None,0,,,,,,,,,,,,,,027,2022-05-20_18h25.22.105,Main,2022.1.1,59.79977838896618,
positive,blue,1,k,None,,,,,,,,,0,82,82,82,,,,,,,,,,,,,,,,,main,None,None,1,1.498245400027372,387.15540150000015,None,None,1,,,,,,,,,,,,,,027,2022-05-20_18h25.22.105,Main,2022.1.1,59.79977838896618,
negative,yellow,2,k,None,,,,,,,,,0,83,83,83,,,,,,,,,,,,,,,,,main,None,None,1,1.4998831000411883,389.6552065999713,None,None,1,,,,,,,,,,,,,,027,2022-05-20_18h25.22.105,Main,2022.1.1,59.79977838896618,
positive,blue,2,k,None,,,,,,,,,0,84,84,84,,,,,,,,,,,,,,,,,main,None,None,1,1.4979326999746263,392.1552866999991,None,None,1,,,,,,,,,,,,,,027,2022-05-20_18h25.22.105,Main,2022.1.1,59.79977838896618,
positive,yellow,1,None,k,,,,,,,,,0,85,85,85,,,,,,,,,,,,,,,,,main,k,k,1,1.3502194000175223,394.65509850002127,None,None,0,,,,,,,,,,,,,,027,2022-05-20_18h25.22.105,Main,2022.1.1,59.79977838896618,
positive,blue,2,k,None,,,,,,,,,0,86,86,86,,,,,,,,,,,,,,,,,main,None,None,1,1.4982908999663778,397.00512709998293,None,None,1,,,,,,,,,,,,,,027,2022-05-20_18h25.22.105,Main,2022.1.1,59.79977838896618,
positive,blue,1,k,None,,,,,,,,,0,87,87,87,,,,,,,,,,,,,,,,,main,None,None,1,1.497947900032159,399.5050229000044,None,None,1,,,,,,,,,,,,,,027,2022-05-20_18h25.22.105,Main,2022.1.1,59.79977838896618,
negative,yellow,2,k,None,,,,,,,,,0,88,88,88,,,,,,,,,,,,,,,,,main,None,None,1,1.4990188000374474,402.0050045999815,None,None,1,,,,,,,,,,,,,,027,2022-05-20_18h25.22.105,Main,2022.1.1,59.79977838896618,
negative,blue,2,None,k,,,,,,,,,0,89,89,89,,,,,,,,,,,,,,,,,main,k,k,1,1.6332096999976784,404.5049982999917,None,None,0,,,,,,,,,,,,,,027,2022-05-20_18h25.22.105,Main,2022.1.1,59.79977838896618,
positive,yellow,2,None,k,,,,,,,,,0,90,90,90,,,,,,,,,,,,,,,,,main,k,k,1,0.8346904999925755,408.14073970000027,None,None,0,,,,,,,,,,,,,,027,2022-05-20_18h25.22.105,Main,2022.1.1,59.79977838896618,
negative,yellow,1,k,None,,,,,,,,,0,91,91,91,,,,,,,,,,,,,,,,,main,None,None,1,1.4961606999859214,409.9741369999829,None,None,1,,,,,,,,,,,,,,027,2022-05-20_18h25.22.105,Main,2022.1.1,59.79977838896618,
negative,red,2,None,None,,,,,,,,,0,92,92,92,,,,,,,,,,,,,,,,,main,None,None,1,1.4989695000112988,412.4718424999737,None,None,1,,,,,,,,,,,,,,027,2022-05-20_18h25.22.105,Main,2022.1.1,59.79977838896618,
negative,blue,2,None,k,,,,,,,,,0,93,93,93,,,,,,,,,,,,,,,,,main,k,k,1,0.9992286000051536,414.9716415000148,None,None,0,,,,,,,,,,,,,,027,2022-05-20_18h25.22.105,Main,2022.1.1,59.79977838896618,
negative,blue,1,None,k,,,,,,,,,0,94,94,94,,,,,,,,,,,,,,,,,main,k,k,1,0.8153783000307158,416.9714093999937,None,None,0,,,,,,,,,,,,,,027,2022-05-20_18h25.22.105,Main,2022.1.1,59.79977838896618,
negative,blue,1,None,k,,,,,,,,,0,95,95,95,,,,,,,,,,,,,,,,,main,k,k,1,0.8991806999547407,418.7879410000169,None,None,0,,,,,,,,,,,,,,027,2022-05-20_18h25.22.105,Main,2022.1.1,59.79977838896618,
negative,red,1,None,None,,,,,,,,,0,96,96,96,,,,,,,,,,,,,,,,,main,None,None,1,1.498807800002396,420.6880116999964,None,None,1,,,,,,,,,,,,,,027,2022-05-20_18h25.22.105,Main,2022.1.1,59.79977838896618,
positive,yellow,1,None,k,,,,,,,,,0,97,97,97,,,,,,,,,,,,,,,,,main,k,k,1,1.5324392999755219,423.1902440999984,None,None,0,,,,,,,,,,,,,,027,2022-05-20_18h25.22.105,Main,2022.1.1,59.79977838896618,
negative,yellow,1,k,None,,,,,,,,,0,98,98,98,,,,,,,,,,,,,,,,,main,None,None,1,1.5032291000243276,426.7211713999859,None,None,1,,,,,,,,,,,,,,027,2022-05-20_18h25.22.105,Main,2022.1.1,59.79977838896618,
positive,red,1,None,None,,,,,,,,,0,99,99,99,,,,,,,,,,,,,,,,,main,None,None,1,1.4969875999959186,429.2211635999847,None,None,1,,,,,,,,,,,,,,027,2022-05-20_18h25.22.105,Main,2022.1.1,59.79977838896618,
positive,blue,1,k,None,,,,,,,,,0,100,100,100,,,,,,,,,,,,,,,,,main,None,None,1,1.5005819000070915,431.7208570999792,None,None,1,,,,,,,,,,,,,,027,2022-05-20_18h25.22.105,Main,2022.1.1,59.79977838896618,
negative,yellow,1,k,None,,,,,,,,,0,101,101,101,,,,,,,,,,,,,,,,,main,None,None,1,1.4964665999868885,434.22358180000447,None,None,1,,,,,,,,,,,,,,027,2022-05-20_18h25.22.105,Main,2022.1.1,59.79977838896618,
negative,blue,2,None,k,,,,,,,,,0,102,102,102,,,,,,,,,,,,,,,,,main,k,k,1,0.7490416999789886,436.7210026999819,None,None,0,,,,,,,,,,,,,,027,2022-05-20_18h25.22.105,Main,2022.1.1,59.79977838896618,
negative,yellow,2,k,None,,,,,,,,,0,103,103,103,,,,,,,,,,,,,,,,,main,None,None,1,1.4994989999686368,438.4733388000168,None,None,1,,,,,,,,,,,,,,027,2022-05-20_18h25.22.105,Main,2022.1.1,59.79977838896618,
positive,yellow,2,None,k,,,,,,,,,0,104,104,104,,,,,,,,,,,,,,,,,main,k,k,1,0.7508064999710768,440.97067660000175,None,None,0,,,,,,,,,,,,,,027,2022-05-20_18h25.22.105,Main,2022.1.1,59.79977838896618,
positive,blue,1,k,None,,,,,,,,,0,105,105,105,,,,,,,,,,,,,,,,,main,None,None,1,1.4979016999714077,442.72095649997937,None,None,1,,,,,,,,,,,,,,027,2022-05-20_18h25.22.105,Main,2022.1.1,59.79977838896618,
positive,blue,2,k,None,,,,,,,,,0,106,106,106,,,,,,,,,,,,,,,,,main,None,None,1,1.4966280999942683,445.22080409998307,None,None,1,,,,,,,,,,,,,,027,2022-05-20_18h25.22.105,Main,2022.1.1,59.79977838896618,
negative,blue,1,None,k,,,,,,,,,0,107,107,107,,,,,,,,,,,,,,,,,main,k,k,1,0.6804287999984808,447.7207166000153,None,None,0,,,,,,,,,,,,,,027,2022-05-20_18h25.22.105,Main,2022.1.1,59.79977838896618,
positive,yellow,2,None,k,,,,,,,,,0,108,108,108,,,,,,,,,,,,,,,,,main,k,k,1,6.0490375000517815,449.40403019997757,None,None,0,,,,,,,,,,,,,,027,2022-05-20_18h25.22.105,Main,2022.1.1,59.79977838896618,
negative,yellow,1,k,None,,,,,,,,,0,109,109,109,,,,,,,,,,,,,,,,,main,None,None,1,1.49943979998352,457.45390279998537,None,None,1,,,,,,,,,,,,,,027,2022-05-20_18h25.22.105,Main,2022.1.1,59.79977838896618,
negative,blue,2,None,k,,,,,,,,,0,110,110,110,,,,,,,,,,,,,,,,,main,k,k,1,0.6974453000002541,459.9537961999886,None,None,0,,,,,,,,,,,,,,027,2022-05-20_18h25.22.105,Main,2022.1.1,59.79977838896618,
positive,blue,2,k,None,,,,,,,,,0,111,111,111,,,,,,,,,,,,,,,,,main,None,None,1,1.4995806000079028,461.6537991000223,None,None,1,,,,,,,,,,,,,,027,2022-05-20_18h25.22.105,Main,2022.1.1,59.79977838896618,
negative,blue,1,None,k,,,,,,,,,0,112,112,112,,,,,,,,,,,,,,,,,main,k,k,1,0.7482673000195064,464.1537172999815,None,None,0,,,,,,,,,,,,,,027,2022-05-20_18h25.22.105,Main,2022.1.1,59.79977838896618,
positive,yellow,1,None,k,,,,,,,,,0,113,113,113,,,,,,,,,,,,,,,,,main,k,k,1,0.5990505000227131,465.90371230000164,None,None,0,,,,,,,,,,,,,,027,2022-05-20_18h25.22.105,Main,2022.1.1,59.79977838896618,
negative,red,1,None,None,,,,,,,,,0,114,114,114,,,,,,,,,,,,,,,,,main,None,None,1,1.4989367999951355,467.50368700001854,None,None,1,,,,,,,,,,,,,,027,2022-05-20_18h25.22.105,Main,2022.1.1,59.79977838896618,
positive,red,1,None,None,,,,,,,,,0,115,115,115,,,,,,,,,,,,,,,,,main,None,None,1,1.5011849000002258,470.00337440002477,None,None,1,,,,,,,,,,,,,,027,2022-05-20_18h25.22.105,Main,2022.1.1,59.79977838896618,
negative,red,2,None,None,,,,,,,,,0,116,116,116,,,,,,,,,,,,,,,,,main,None,None,1,1.4989583000424318,472.50612550001824,None,None,1,,,,,,,,,,,,,,027,2022-05-20_18h25.22.105,Main,2022.1.1,59.79977838896618,
negative,yellow,2,k,None,,,,,,,,,0,117,117,117,,,,,,,,,,,,,,,,,main,None,None,1,1.4998740999726579,475.0060322000063,None,None,1,,,,,,,,,,,,,,027,2022-05-20_18h25.22.105,Main,2022.1.1,59.79977838896618,
positive,yellow,1,None,k,,,,,,,,,0,118,118,118,,,,,,,,,,,,,,,,,main,k,k,1,3.0126960999914445,477.5035254000104,None,None,0,,,,,,,,,,,,,,027,2022-05-20_18h25.22.105,Main,2022.1.1,59.79977838896618,
positive,red,2,None,None,,,,,,,,,0,119,119,119,,,,,,,,,,,,,,,,,main,None,None,1,1.5007359000155702,482.5226207000087,None,None,1,,,,,,,,,,,,,,027,2022-05-20_18h25.22.105,Main,2022.1.1,59.79977838896618,
positive,blue,2,k,None,,,,,,,,,0,120,120,120,,,,,,,,,,,,,,,,,main,None,None,1,1.4969374000211246,485.0200020999764,None,None,1,,,,,,,,,,,,,,027,2022-05-20_18h25.22.105,Main,2022.1.1,59.79977838896618,
negative,red,1,None,None,,,,,,,,,0,121,121,121,,,,,,,,,,,,,,,,,main,None,None,1,1.5005650999955833,487.5197368999943,None,None,1,,,,,,,,,,,,,,027,2022-05-20_18h25.22.105,Main,2022.1.1,59.79977838896618,
positive,yellow,2,None,k,,,,,,,,,0,122,122,122,,,,,,,,,,,,,,,,,main,k,k,1,0.7469611999695189,490.02243379998254,None,None,0,,,,,,,,,,,,,,027,2022-05-20_18h25.22.105,Main,2022.1.1,59.79977838896618,
negative,red,2,None,None,,,,,,,,,0,123,123,123,,,,,,,,,,,,,,,,,main,None,None,1,1.498708600003738,491.7724270999897,None,None,1,,,,,,,,,,,,,,027,2022-05-20_18h25.22.105,Main,2022.1.1,59.79977838896618,
negative,yellow,2,k,None,,,,,,,,,0,124,124,124,,,,,,,,,,,,,,,,,main,None,None,1,1.499910100013949,494.27011270000366,None,None,1,,,,,,,,,,,,,,027,2022-05-20_18h25.22.105,Main,2022.1.1,59.79977838896618,
positive,red,1,None,None,,,,,,,,,0,125,125,125,,,,,,,,,,,,,,,,,main,None,None,1,1.4990140000008978,496.76975019997917,None,None,1,,,,,,,,,,,,,,027,2022-05-20_18h25.22.105,Main,2022.1.1,59.79977838896618,
negative,blue,2,None,k,,,,,,,,,0,126,126,126,,,,,,,,,,,,,,,,,main,k,k,1,0.7809951999806799,499.27210000000196,None,None,0,,,,,,,,,,,,,,027,2022-05-20_18h25.22.105,Main,2022.1.1,59.79977838896618,
negative,blue,1,None,k,,,,,,,,,0,127,127,127,,,,,,,,,,,,,,,,,main,k,k,1,0.6995122999651358,501.0527452999959,None,None,0,,,,,,,,,,,,,,027,2022-05-20_18h25.22.105,Main,2022.1.1,59.79977838896618,
negative,yellow,1,k,None,,,,,,,,,0,128,128,128,,,,,,,,,,,,,,,,,main,None,None,1,1.5011099000112154,502.755542400002,None,None,1,,,,,,,,,,,,,,027,2022-05-20_18h25.22.105,Main,2022.1.1,59.79977838896618,
negative,yellow,1,k,None,,,,,,,,,0,129,129,129,,,,,,,,,,,,,,,,,main,None,None,1,1.4965695000137202,505.25551049999194,None,None,1,,,,,,,,,,,,,,027,2022-05-20_18h25.22.105,Main,2022.1.1,59.79977838896618,
positive,blue,1,k,None,,,,,,,,,0,130,130,130,,,,,,,,,,,,,,,,,main,None,None,1,1.499852200038731,507.75289349997183,None,None,1,,,,,,,,,,,,,,027,2022-05-20_18h25.22.105,Main,2022.1.1,59.79977838896618,
negative,blue,1,None,k,,,,,,,,,0,131,131,131,,,,,,,,,,,,,,,,,main,k,k,1,0.7316181000205688,510.25283760001184,None,None,0,,,,,,,,,,,,,,027,2022-05-20_18h25.22.105,Main,2022.1.1,59.79977838896618,
negative,blue,2,None,k,,,,,,,,,0,132,132,132,,,,,,,,,,,,,,,,,main,k,k,1,0.9156811999855563,511.9861158999847,None,None,0,,,,,,,,,,,,,,027,2022-05-20_18h25.22.105,Main,2022.1.1,59.79977838896618,
positive,blue,2,k,None,,,,,,,,,0,133,133,133,,,,,,,,,,,,,,,,,main,None,None,1,1.4993386999703944,513.9026287000161,None,None,1,,,,,,,,,,,,,,027,2022-05-20_18h25.22.105,Main,2022.1.1,59.79977838896618,
positive,red,2,None,None,,,,,,,,,0,134,134,134,,,,,,,,,,,,,,,,,main,None,None,1,1.5006075999699533,516.4024866999825,None,None,1,,,,,,,,,,,,,,027,2022-05-20_18h25.22.105,Main,2022.1.1,59.79977838896618,
negative,yellow,2,k,None,,,,,,,,,0,135,135,135,,,,,,,,,,,,,,,,,main,None,None,1,1.496735599997919,518.9051141000236,None,None,1,,,,,,,,,,,,,,027,2022-05-20_18h25.22.105,Main,2022.1.1,59.79977838896618,
positive,yellow,2,None,k,,,,,,,,,0,136,136,136,,,,,,,,,,,,,,,,,main,k,k,1,0.5546971000148915,521.4026199000073,None,None,0,,,,,,,,,,,,,,027,2022-05-20_18h25.22.105,Main,2022.1.1,59.79977838896618,
positive,blue,1,k,None,,,,,,,,,0,137,137,137,,,,,,,,,,,,,,,,,main,None,None,1,1.4935917999828234,522.9614931999822,None,None,1,,,,,,,,,,,,,,027,2022-05-20_18h25.22.105,Main,2022.1.1,59.79977838896618,
positive,yellow,1,None,k,,,,,,,,,0,138,138,138,,,,,,,,,,,,,,,,,main,k,k,1,0.7160613000160083,525.4525108999806,None,None,0,,,,,,,,,,,,,,027,2022-05-20_18h25.22.105,Main,2022.1.1,59.79977838896618,
positive,yellow,1,None,k,,,,,,,,,0,139,139,139,,,,,,,,,,,,,,,,,main,k,k,1,0.5878530999762006,527.1691573999706,None,None,0,,,,,,,,,,,,,,027,2022-05-20_18h25.22.105,Main,2022.1.1,59.79977838896618,
positive,yellow,1,None,k,,,,,,,,,0,140,140,140,,,,,,,,,,,,,,,,,main,k,k,1,1.1097561999922618,528.7565646999865,None,None,0,,,,,,,,,,,,,,027,2022-05-20_18h25.22.105,Main,2022.1.1,59.79977838896618,
positive,blue,1,k,None,,,,,,,,,0,141,141,141,,,,,,,,,,,,,,,,,main,None,None,1,1.501438999956008,530.8688669999829,None,None,1,,,,,,,,,,,,,,027,2022-05-20_18h25.22.105,Main,2022.1.1,59.79977838896618,
positive,blue,2,k,None,,,,,,,,,0,142,142,142,,,,,,,,,,,,,,,,,main,None,None,1,1.4975471000070684,533.3715488999733,None,None,1,,,,,,,,,,,,,,027,2022-05-20_18h25.22.105,Main,2022.1.1,59.79977838896618,
positive,yellow,2,None,k,,,,,,,,,0,143,143,143,,,,,,,,,,,,,,,,,main,k,k,1,0.7324797000037506,535.8689861000166,None,None,0,,,,,,,,,,,,,,027,2022-05-20_18h25.22.105,Main,2022.1.1,59.79977838896618,
negative,yellow,2,k,None,,,,,,,,,0,144,144,144,,,,,,,,,,,,,,,,,main,None,None,1,1.4997811000212096,537.6022162999725,None,None,1,,,,,,,,,,,,,,027,2022-05-20_18h25.22.105,Main,2022.1.1,59.79977838896618,
negative,blue,2,None,k,,,,,,,,,0,145,145,145,,,,,,,,,,,,,,,,,main,k,k,1,1.9634862000239082,540.1022278000019,None,None,0,,,,,,,,,,,,,,027,2022-05-20_18h25.22.105,Main,2022.1.1,59.79977838896618,
negative,red,1,None,None,,,,,,,,,0,146,146,146,,,,,,,,,,,,,,,,,main,None,None,1,1.503428999974858,544.068542300025,None,None,1,,,,,,,,,,,,,,027,2022-05-20_18h25.22.105,Main,2022.1.1,59.79977838896618,
positive,blue,1,k,None,,,,,,,,,0,147,147,147,,,,,,,,,,,,,,,,,main,None,None,1,1.4986668999772519,546.5688725999789,None,None,1,,,,,,,,,,,,,,027,2022-05-20_18h25.22.105,Main,2022.1.1,59.79977838896618,
positive,yellow,1,None,k,,,,,,,,,0,148,148,148,,,,,,,,,,,,,,,,,main,k,k,1,0.9132008000160567,549.0713324000244,None,None,0,,,,,,,,,,,,,,027,2022-05-20_18h25.22.105,Main,2022.1.1,59.79977838896618,
negative,red,2,None,None,,,,,,,,,0,149,149,149,,,,,,,,,,,,,,,,,main,None,None,1,1.5016193999908864,550.985068399983,None,None,1,,,,,,,,,,,,,,027,2022-05-20_18h25.22.105,Main,2022.1.1,59.79977838896618,
negative,blue,1,None,k,,,,,,,,,0,150,150,150,,,,,,,,,,,,,,,,,main,k,k,1,0.7494660000083968,553.4877919999999,None,None,0,,,,,,,,,,,,,,027,2022-05-20_18h25.22.105,Main,2022.1.1,59.79977838896618,
negative,yellow,2,k,None,,,,,,,,,0,151,151,151,,,,,,,,,,,,,,,,,main,None,None,1,1.4966308000148274,555.2377542000031,None,None,1,,,,,,,,,,,,,,027,2022-05-20_18h25.22.105,Main,2022.1.1,59.79977838896618,
negative,blue,2,None,k,,,,,,,,,0,152,152,152,,,,,,,,,,,,,,,,,main,k,k,1,0.681614900007844,557.7349773999886,None,None,0,,,,,,,,,,,,,,027,2022-05-20_18h25.22.105,Main,2022.1.1,59.79977838896618,
negative,yellow,1,k,None,,,,,,,,,0,153,153,153,,,,,,,,,,,,,,,,,main,None,None,1,1.501497899997048,559.4182696000207,None,None,1,,,,,,,,,,,,,,027,2022-05-20_18h25.22.105,Main,2022.1.1,59.79977838896618,
negative,blue,1,None,k,,,,,,,,,0,154,154,154,,,,,,,,,,,,,,,,,main,k,k,1,0.719877399969846,561.9209319999791,None,None,0,,,,,,,,,,,,,,027,2022-05-20_18h25.22.105,Main,2022.1.1,59.79977838896618,
positive,yellow,2,None,k,,,,,,,,,0,155,155,155,,,,,,,,,,,,,,,,,main,k,k,1,0.8094332999899052,563.6449883999885,None,None,0,,,,,,,,,,,,,,027,2022-05-20_18h25.22.105,Main,2022.1.1,59.79977838896618,
positive,red,2,None,None,,,,,,,,,0,156,156,156,,,,,,,,,,,,,,,,,main,None,None,1,1.498707699996885,565.4517265000031,None,None,1,,,,,,,,,,,,,,027,2022-05-20_18h25.22.105,Main,2022.1.1,59.79977838896618,
positive,red,1,None,None,,,,,,,,,0,157,157,157,,,,,,,,,,,,,,,,,main,None,None,1,1.501866600010544,567.9513963999925,None,None,1,,,,,,,,,,,,,,027,2022-05-20_18h25.22.105,Main,2022.1.1,59.79977838896618,
positive,blue,2,k,None,,,,,,,,,0,158,158,158,,,,,,,,,,,,,,,,,main,None,None,1,1.4997699999948964,570.4542025999981,None,None,1,,,,,,,,,,,,,,027,2022-05-20_18h25.22.105,Main,2022.1.1,59.79977838896618,
negative,yellow,1,k,None,,,,,,,,,0,159,159,159,,,,,,,,,,,,,,,,,main,None,None,1,1.49545390001731,572.9515527000185,None,None,1,,,,,,,,,,,,,,027,2022-05-20_18h25.22.105,Main,2022.1.1,59.79977838896618,
negative,red,2,None,None,,,,,,,,,0,160,160,160,,,,,,,,,,,,,,,,,main,None,None,1,1.499240099976305,575.451496499998,None,None,1,,,,,,,,,,,,,,027,2022-05-20_18h25.22.105,Main,2022.1.1,59.79977838896618,
negative,blue,1,None,k,,,,,,,,,0,161,161,161,,,,,,,,,,,,,,,,,main,k,k,1,0.8015943000209518,577.9514680000138,None,None,0,,,,,,,,,,,,,,027,2022-05-20_18h25.22.105,Main,2022.1.1,59.79977838896618,
negative,blue,1,None,k,,,,,,,,,0,162,162,162,,,,,,,,,,,,,,,,,main,k,k,1,0.6473467999603599,579.7515033999807,None,None,0,,,,,,,,,,,,,,027,2022-05-20_18h25.22.105,Main,2022.1.1,59.79977838896618,
negative,yellow,1,k,None,,,,,,,,,0,163,163,163,,,,,,,,,,,,,,,,,main,None,None,1,1.5015215000021271,581.4011180999805,None,None,1,,,,,,,,,,,,,,027,2022-05-20_18h25.22.105,Main,2022.1.1,59.79977838896618,
negative,yellow,1,k,None,,,,,,,,,0,164,164,164,,,,,,,,,,,,,,,,,main,None,None,1,1.4993074999656528,583.9014579000068,None,None,1,,,,,,,,,,,,,,027,2022-05-20_18h25.22.105,Main,2022.1.1,59.79977838896618,
positive,yellow,1,None,k,,,,,,,,,0,165,165,165,,,,,,,,,,,,,,,,,main,k,k,1,1.312248800008092,586.4014047000092,None,None,0,,,,,,,,,,,,,,027,2022-05-20_18h25.22.105,Main,2022.1.1,59.79977838896618,
negative,red,1,None,None,,,,,,,,,0,166,166,166,,,,,,,,,,,,,,,,,main,None,None,1,1.5015572999836877,588.7176786999917,None,None,1,,,,,,,,,,,,,,027,2022-05-20_18h25.22.105,Main,2022.1.1,59.79977838896618,
negative,yellow,2,k,None,,,,,,,,,0,167,167,167,,,,,,,,,,,,,,,,,main,None,None,1,1.4988514000433497,591.220372700016,None,None,1,,,,,,,,,,,,,,027,2022-05-20_18h25.22.105,Main,2022.1.1,59.79977838896618,
positive,blue,2,k,None,,,,,,,,,0,168,168,168,,,,,,,,,,,,,,,,,main,None,None,1,1.496682500001043,593.7202404999989,None,None,1,,,,,,,,,,,,,,027,2022-05-20_18h25.22.105,Main,2022.1.1,59.79977838896618,
positive,red,2,None,None,,,,,,,,,0,169,169,169,,,,,,,,,,,,,,,,,main,None,None,1,1.49910259997705,596.217721300025,None,None,1,,,,,,,,,,,,,,027,2022-05-20_18h25.22.105,Main,2022.1.1,59.79977838896618,
positive,red,1,None,None,,,,,,,,,0,170,170,170,,,,,,,,,,,,,,,,,main,None,None,1,1.499684199981857,598.7177041000105,None,None,1,,,,,,,,,,,,,,027,2022-05-20_18h25.22.105,Main,2022.1.1,59.79977838896618,
negative,blue,2,None,k,,,,,,,,,0,171,171,171,,,,,,,,,,,,,,,,,main,k,k,1,0.7147754000034183,601.2173898000037,None,None,0,,,,,,,,,,,,,,027,2022-05-20_18h25.22.105,Main,2022.1.1,59.79977838896618,
positive,blue,2,k,None,,,,,,,,,0,172,172,172,,,,,,,,,,,,,,,,,main,None,None,1,1.5015477999695577,602.9340609000064,None,None,1,,,,,,,,,,,,,,027,2022-05-20_18h25.22.105,Main,2022.1.1,59.79977838896618,
negative,yellow,2,k,None,,,,,,,,,0,173,173,173,,,,,,,,,,,,,,,,,main,None,None,1,1.4965553000220098,605.4368192999973,None,None,1,,,,,,,,,,,,,,027,2022-05-20_18h25.22.105,Main,2022.1.1,59.79977838896618,
positive,yellow,2,None,k,,,,,,,,,0,174,174,174,,,,,,,,,,,,,,,,,main,k,k,1,0.732747100002598,607.9341880999855,None,None,0,,,,,,,,,,,,,,027,2022-05-20_18h25.22.105,Main,2022.1.1,59.79977838896618,
negative,blue,2,None,k,,,,,,,,,0,175,175,175,,,,,,,,,,,,,,,,,main,k,k,1,2.4655429999693297,609.6674519000226,None,None,0,,,,,,,,,,,,,,027,2022-05-20_18h25.22.105,Main,2022.1.1,59.79977838896618,
positive,blue,1,k,None,,,,,,,,,0,176,176,176,,,,,,,,,,,,,,,,,main,None,None,1,1.4959092999924906,614.1375538000138,None,None,1,,,,,,,,,,,,,,027,2022-05-20_18h25.22.105,Main,2022.1.1,59.79977838896618,
positive,yellow,1,None,k,,,,,,,,,0,177,177,177,,,,,,,,,,,,,,,,,main,k,k,1,0.6814253000193276,616.6341017999803,None,None,0,,,,,,,,,,,,,,027,2022-05-20_18h25.22.105,Main,2022.1.1,59.79977838896618,
positive,blue,1,k,None,,,,,,,,,0,178,178,178,,,,,,,,,,,,,,,,,main,None,None,1,1.499696800019592,618.3173374999897,None,None,1,,,,,,,,,,,,,,027,2022-05-20_18h25.22.105,Main,2022.1.1,59.79977838896618,
positive,yellow,2,None,k,,,,,,,,,0,179,179,179,,,,,,,,,,,,,,,,,main,k,k,1,1.2482120000058785,620.8171883000177,None,None,0,,,,,,,,,,,,,,027,2022-05-20_18h25.22.105,Main,2022.1.1,59.79977838896618,
positive,blue,1,k,None,,,,,,,,,0,180,180,180,,,,,,,,,,,,,,,,,main,None,None,1,1.4983151000342332,623.0672290999792,None,None,1,,,,,,,,,,,,,,027,2022-05-20_18h25.22.105,Main,2022.1.1,59.79977838896618,
negative,red,1,None,None,,,,,,,,,0,181,181,181,,,,,,,,,,,,,,,,,main,None,None,1,1.5002447000006214,625.5668824000168,None,None,1,,,,,,,,,,,,,,027,2022-05-20_18h25.22.105,Main,2022.1.1,59.79977838896618,
negative,blue,1,None,k,,,,,,,,,0,182,182,182,,,,,,,,,,,,,,,,,main,k,k,1,0.715076600026805,628.0669021999929,None,None,0,,,,,,,,,,,,,,027,2022-05-20_18h25.22.105,Main,2022.1.1,59.79977838896618,
negative,yellow,2,k,None,,,,,,,,,0,183,183,183,,,,,,,,,,,,,,,,,main,None,None,1,1.5011457999935374,629.7838633999927,None,None,1,,,,,,,,,,,,,,027,2022-05-20_18h25.22.105,Main,2022.1.1,59.79977838896618,
positive,yellow,2,None,k,,,,,,,,,0,184,184,184,,,,,,,,,,,,,,,,,main,k,k,1,0.813426700013224,632.2838063000236,None,None,0,,,,,,,,,,,,,,027,2022-05-20_18h25.22.105,Main,2022.1.1,59.79977838896618,
positive,yellow,1,None,k,,,,,,,,,0,185,185,185,,,,,,,,,,,,,,,,,main,k,k,1,0.7993519000010565,634.1002762999851,None,None,0,,,,,,,,,,,,,,027,2022-05-20_18h25.22.105,Main,2022.1.1,59.79977838896618,
positive,red,2,None,None,,,,,,,,,0,186,186,186,,,,,,,,,,,,,,,,,main,None,None,1,1.5010434000287205,635.9003923999844,None,None,1,,,,,,,,,,,,,,027,2022-05-20_18h25.22.105,Main,2022.1.1,59.79977838896618,
positive,blue,1,k,None,,,,,,,,,0,187,187,187,,,,,,,,,,,,,,,,,main,None,None,1,1.4971676000277512,638.402723599982,None,None,1,,,,,,,,,,,,,,027,2022-05-20_18h25.22.105,Main,2022.1.1,59.79977838896618,
negative,yellow,1,k,None,,,,,,,,,0,188,188,188,,,,,,,,,,,,,,,,,main,None,None,1,1.500757900008466,640.8999047999969,None,None,1,,,,,,,,,,,,,,027,2022-05-20_18h25.22.105,Main,2022.1.1,59.79977838896618,
positive,yellow,2,None,k,,,,,,,,,0,189,189,189,,,,,,,,,,,,,,,,,main,k,k,1,0.6468982000369579,643.4002871999983,None,None,0,,,,,,,,,,,,,,027,2022-05-20_18h25.22.105,Main,2022.1.1,59.79977838896618,
negative,yellow,2,k,None,,,,,,,,,0,190,190,190,,,,,,,,,,,,,,,,,main,None,None,1,1.4992615999653935,645.0502181000193,None,None,1,,,,,,,,,,,,,,027,2022-05-20_18h25.22.105,Main,2022.1.1,59.79977838896618,
negative,yellow,1,k,None,,,,,,,,,0,191,191,191,,,,,,,,,,,,,,,,,main,None,None,1,1.5006325999856927,647.549784599978,None,None,1,,,,,,,,,,,,,,027,2022-05-20_18h25.22.105,Main,2022.1.1,59.79977838896618,
positive,blue,2,k,None,,,,,,,,,0,192,192,192,,,,,,,,,,,,,,,,,main,None,None,1,1.4966311999596655,650.0525054999744,None,None,1,,,,,,,,,,,,,,027,2022-05-20_18h25.22.105,Main,2022.1.1,59.79977838896618,
positive,yellow,1,None,k,,,,,,,,,0,193,193,193,,,,,,,,,,,,,,,,,main,k,k,1,2.365915199974552,652.5499505000189,None,None,0,,,,,,,,,,,,,,027,2022-05-20_18h25.22.105,Main,2022.1.1,59.79977838896618,
negative,red,2,None,None,,,,,,,,,0,194,194,194,,,,,,,,,,,,,,,,,main,None,None,1,1.5067098999861628,656.9165864000097,None,None,1,,,,,,,,,,,,,,027,2022-05-20_18h25.22.105,Main,2022.1.1,59.79977838896618,
positive,red,1,None,None,,,,,,,,,0,195,195,195,,,,,,,,,,,,,,,,,main,None,None,1,1.4938706999528222,659.4208157000248,None,None,1,,,,,,,,,,,,,,027,2022-05-20_18h25.22.105,Main,2022.1.1,59.79977838896618,
negative,blue,1,None,k,,,,,,,,,0,196,196,196,,,,,,,,,,,,,,,,,main,k,k,1,0.964560899999924,661.9164235999924,None,None,0,,,,,,,,,,,,,,027,2022-05-20_18h25.22.105,Main,2022.1.1,59.79977838896618,
positive,blue,2,k,None,,,,,,,,,0,197,197,197,,,,,,,,,,,,,,,,,main,None,None,1,1.4997837000410073,663.8830848999787,None,None,1,,,,,,,,,,,,,,027,2022-05-20_18h25.22.105,Main,2022.1.1,59.79977838896618,
negative,blue,2,None,k,,,,,,,,,0,198,198,198,,,,,,,,,,,,,,,,,main,k,k,1,0.7650905000045896,666.3830608999706,None,None,0,,,,,,,,,,,,,,027,2022-05-20_18h25.22.105,Main,2022.1.1,59.79977838896618,
negative,blue,2,None,k,,,,,,,,,0,199,199,199,,,,,,,,,,,,,,,,,main,k,k,1,0.5821102999616414,668.1496941000223,None,None,0,,,,,,,,,,,,,,027,2022-05-20_18h25.22.105,Main,2022.1.1,59.79977838896618,
positive,blue,2,k,None,,,,,,,,,0,200,200,200,,,,,,,,,,,,,,,,,main,None,None,1,1.4994212000165135,669.732954600011,None,None,1,,,,,,,,,,,,,,027,2022-05-20_18h25.22.105,Main,2022.1.1,59.79977838896618,
positive,blue,2,k,None,,,,,,,,,0,201,201,201,,,,,,,,,,,,,,,,,main,None,None,1,1.5007734999526292,672.2326536999899,None,None,1,,,,,,,,,,,,,,027,2022-05-20_18h25.22.105,Main,2022.1.1,59.79977838896618,
negative,yellow,2,k,None,,,,,,,,,0,202,202,202,,,,,,,,,,,,,,,,,main,None,None,1,1.496532900026068,674.7354265999747,None,None,1,,,,,,,,,,,,,,027,2022-05-20_18h25.22.105,Main,2022.1.1,59.79977838896618,
positive,red,1,None,None,,,,,,,,,0,203,203,203,,,,,,,,,,,,,,,,,main,None,None,1,1.4997811000212096,677.2328255000175,None,None,1,,,,,,,,,,,,,,027,2022-05-20_18h25.22.105,Main,2022.1.1,59.79977838896618,
negative,blue,2,None,k,,,,,,,,,0,204,204,204,,,,,,,,,,,,,,,,,main,k,k,1,0.7983425999991596,679.7326696999953,None,None,0,,,,,,,,,,,,,,027,2022-05-20_18h25.22.105,Main,2022.1.1,59.79977838896618,
negative,red,1,None,None,,,,,,,,,0,205,205,205,,,,,,,,,,,,,,,,,main,None,None,1,1.4989440999925137,681.5327295999741,None,None,1,,,,,,,,,,,,,,027,2022-05-20_18h25.22.105,Main,2022.1.1,59.79977838896618,
negative,blue,2,None,k,,,,,,,,,0,206,206,206,,,,,,,,,,,,,,,,,main,k,k,1,0.7322082999744453,684.0326719000004,None,None,0,,,,,,,,,,,,,,027,2022-05-20_18h25.22.105,Main,2022.1.1,59.79977838896618,
negative,yellow,2,k,None,,,,,,,,,0,207,207,207,,,,,,,,,,,,,,,,,main,None,None,1,1.5018586000078358,685.7656670999713,None,None,1,,,,,,,,,,,,,,027,2022-05-20_18h25.22.105,Main,2022.1.1,59.79977838896618,
positive,yellow,2,None,k,,,,,,,,,0,208,208,208,,,,,,,,,,,,,,,,,main,k,k,1,2.38078189996304,688.2684130999842,None,None,0,,,,,,,,,,,,,,027,2022-05-20_18h25.22.105,Main,2022.1.1,59.79977838896618,
negative,yellow,1,k,None,,,,,,,,,0,209,209,209,,,,,,,,,,,,,,,,,main,None,None,1,1.503447899944149,692.6488741000067,None,None,1,,,,,,,,,,,,,,027,2022-05-20_18h25.22.105,Main,2022.1.1,59.79977838896618,
negative,red,2,None,None,,,,,,,,,0,210,210,210,,,,,,,,,,,,,,,,,main,None,None,1,1.4962764999945648,695.1489935999853,None,None,1,,,,,,,,,,,,,,027,2022-05-20_18h25.22.105,Main,2022.1.1,59.79977838896618,
negative,blue,1,None,k,,,,,,,,,0,211,211,211,,,,,,,,,,,,,,,,,main,k,k,1,0.7490584999904968,697.6493286999757,None,None,0,,,,,,,,,,,,,,027,2022-05-20_18h25.22.105,Main,2022.1.1,59.79977838896618,
negative,yellow,1,k,None,,,,,,,,,0,212,212,212,,,,,,,,,,,,,,,,,main,None,None,1,1.499008699960541,699.3990968000144,None,None,1,,,,,,,,,,,,,,027,2022-05-20_18h25.22.105,Main,2022.1.1,59.79977838896618,
positive,blue,1,k,None,,,,,,,,,0,213,213,213,,,,,,,,,,,,,,,,,main,None,k,0,0.6660104999900796,701.8990390999825,None,None,1,,,,,,,,,,,,,,027,2022-05-20_18h25.22.105,Main,2022.1.1,59.79977838896618,
positive,blue,1,k,None,,,,,,,,,0,214,214,214,,,,,,,,,,,,,,,,,main,None,None,1,1.4991571999853477,704.5655831000186,None,None,1,,,,,,,,,,,,,,027,2022-05-20_18h25.22.105,Main,2022.1.1,59.79977838896618,
positive,yellow,1,None,k,,,,,,,,,0,215,215,215,,,,,,,,,,,,,,,,,main,k,k,1,0.9649095000349917,707.0652480999706,None,None,0,,,,,,,,,,,,,,027,2022-05-20_18h25.22.105,Main,2022.1.1,59.79977838896618,
positive,yellow,1,None,k,,,,,,,,,0,216,216,216,,,,,,,,,,,,,,,,,main,k,k,1,0.6013343000086024,709.0347708999761,None,None,0,,,,,,,,,,,,,,027,2022-05-20_18h25.22.105,Main,2022.1.1,59.79977838896618,
positive,yellow,2,None,k,,,,,,,,,0,217,217,217,,,,,,,,,,,,,,,,,main,k,k,1,0.6630976000451483,710.6345421000151,None,None,0,,,,,,,,,,,,,,027,2022-05-20_18h25.22.105,Main,2022.1.1,59.79977838896618,
negative,blue,1,None,k,,,,,,,,,0,218,218,218,,,,,,,,,,,,,,,,,main,k,k,1,0.8489526999765076,712.298741400009,None,None,0,,,,,,,,,,,,,,027,2022-05-20_18h25.22.105,Main,2022.1.1,59.79977838896618,
positive,red,2,None,None,,,,,,,,,0,219,219,219,,,,,,,,,,,,,,,,,main,None,None,1,1.4997296999790706,714.1486669000005,None,None,1,,,,,,,,,,,,,,027,2022-05-20_18h25.22.105,Main,2022.1.1,59.79977838896618,
positive,yellow,1,None,k,,,,,,,,,0,220,220,220,,,,,,,,,,,,,,,,,main,k,k,1,0.93156729999464,716.648704399995,None,None,0,,,,,,,,,,,,,,027,2022-05-20_18h25.22.105,Main,2022.1.1,59.79977838896618,
positive,blue,1,k,None,,,,,,,,,0,221,221,221,,,,,,,,,,,,,,,,,main,None,None,1,1.499270099971909,718.5819715000107,None,None,1,,,,,,,,,,,,,,027,2022-05-20_18h25.22.105,Main,2022.1.1,59.79977838896618,
positive,yellow,2,None,k,,,,,,,,,0,222,222,222,,,,,,,,,,,,,,,,,main,k,k,1,0.8178150999592617,721.0816093999892,None,None,0,,,,,,,,,,,,,,027,2022-05-20_18h25.22.105,Main,2022.1.1,59.79977838896618,
negative,yellow,1,k,None,,,,,,,,,0,223,223,223,,,,,,,,,,,,,,,,,main,None,None,1,1.5003305000136606,722.901030900015,None,None,1,,,,,,,,,,,,,,027,2022-05-20_18h25.22.105,Main,2022.1.1,59.79977838896618,
positive,yellow,2,None,k,,,,,,,,,0,224,224,224,,,,,,,,,,,,,,,,,main,k,k,1,0.6638973000226542,725.400971599971,None,None,0,,,,,,,,,,,,,,027,2022-05-20_18h25.22.105,Main,2022.1.1,59.79977838896618,
negative,yellow,2,k,None,,,,,,,,,0,225,225,225,,,,,,,,,,,,,,,,,main,None,None,1,1.499791299982462,727.0648467999999,None,None,1,,,,,,,,,,,,,,027,2022-05-20_18h25.22.105,Main,2022.1.1,59.79977838896618,
negative,blue,2,None,k,,,,,,,,,0,226,226,226,,,,,,,,,,,,,,,,,main,k,k,1,0.748486700002104,729.5651708000223,None,None,0,,,,,,,,,,,,,,027,2022-05-20_18h25.22.105,Main,2022.1.1,59.79977838896618,
positive,red,2,None,None,,,,,,,,,0,227,227,227,,,,,,,,,,,,,,,,,main,None,None,1,1.497617100016214,731.3151475000195,None,None,1,,,,,,,,,,,,,,027,2022-05-20_18h25.22.105,Main,2022.1.1,59.79977838896618,
positive,blue,2,k,None,,,,,,,,,0,228,228,228,,,,,,,,,,,,,,,,,main,None,None,1,1.499679600005038,733.8147685999866,None,None,1,,,,,,,,,,,,,,027,2022-05-20_18h25.22.105,Main,2022.1.1,59.79977838896618,
negative,blue,1,None,k,,,,,,,,,0,229,229,229,,,,,,,,,,,,,,,,,main,k,k,1,0.6801413000212051,736.3175067999982,None,None,0,,,,,,,,,,,,,,027,2022-05-20_18h25.22.105,Main,2022.1.1,59.79977838896618,
positive,yellow,1,None,k,,,,,,,,,0,230,230,230,,,,,,,,,,,,,,,,,main,k,k,1,1.087107700004708,737.9982202000101,None,None,0,,,,,,,,,,,,,,027,2022-05-20_18h25.22.105,Main,2022.1.1,59.79977838896618,
negative,blue,2,None,k,,,,,,,,,0,231,231,231,,,,,,,,,,,,,,,,,main,k,k,1,1.8278829000191763,740.0886632999755,None,None,0,,,,,,,,,,,,,,027,2022-05-20_18h25.22.105,Main,2022.1.1,59.79977838896618,
negative,red,1,None,None,,,,,,,,,0,232,232,232,,,,,,,,,,,,,,,,,main,None,None,1,1.5017749999533407,743.914829300018,None,None,1,,,,,,,,,,,,,,027,2022-05-20_18h25.22.105,Main,2022.1.1,59.79977838896618,
positive,blue,2,k,None,,,,,,,,,0,233,233,233,,,,,,,,,,,,,,,,,main,None,None,1,1.4974756000447087,746.414735600003,None,None,1,,,,,,,,,,,,,,027,2022-05-20_18h25.22.105,Main,2022.1.1,59.79977838896618,
negative,yellow,1,k,None,,,,,,,,,0,234,234,234,,,,,,,,,,,,,,,,,main,None,None,1,1.5048698000027798,748.9171070000157,None,None,1,,,,,,,,,,,,,,027,2022-05-20_18h25.22.105,Main,2022.1.1,59.79977838896618,
negative,yellow,2,k,None,,,,,,,,,0,235,235,235,,,,,,,,,,,,,,,,,main,None,None,1,1.4930890999967232,751.4187224999769,None,None,1,,,,,,,,,,,,,,027,2022-05-20_18h25.22.105,Main,2022.1.1,59.79977838896618,
positive,red,1,None,None,,,,,,,,,0,236,236,236,,,,,,,,,,,,,,,,,main,None,None,1,1.4990953999804333,753.9145739999949,None,None,1,,,,,,,,,,,,,,027,2022-05-20_18h25.22.105,Main,2022.1.1,59.79977838896618,
negative,red,2,None,None,,,,,,,,,0,237,237,237,,,,,,,,,,,,,,,,,main,None,None,1,1.4999039999675006,756.4145718999789,None,None,1,,,,,,,,,,,,,,027,2022-05-20_18h25.22.105,Main,2022.1.1,59.79977838896618,
negative,blue,1,None,k,,,,,,,,,0,238,238,238,,,,,,,,,,,,,,,,,main,k,k,1,0.667436900024768,758.9142999000032,None,None,0,,,,,,,,,,,,,,027,2022-05-20_18h25.22.105,Main,2022.1.1,59.79977838896618,
positive,blue,1,k,None,,,,,,,,,0,239,239,239,,,,,,,,,,,,,,,,,main,None,None,1,1.4995451999711804,760.5835937000229,None,None,1,,,,,,,,,,,,,,027,2022-05-20_18h25.22.105,Main,2022.1.1,59.79977838896618,
,,,,,,,,,,,,,,,,,,,,,,,,,,,,,,,,,,,,,,,,,,,,,,,,,,,,,763.0810784000205,None,,,,,,
