distractor,target,set,ans1,ans2,rep_loop4.thisRepN,rep_loop4.thisTrialN,rep_loop4.thisN,rep_loop4.thisIndex,st2_prac_loop.thisRepN,st2_prac_loop.thisTrialN,st2_prac_loop.thisN,st2_prac_loop.thisIndex,st2_main_loop.thisRepN,st2_main_loop.thisTrialN,st2_main_loop.thisN,st2_main_loop.thisIndex,image_4.started,image_4.stopped,sound_2.started,sound_2.stopped,key_resp_3.keys,key_resp_3.rt,image_5.started,image_5.stopped,st_prac_back.started,st_prac_back.stopped,st_prac_text.started,st_prac_text.stopped,st_fix_back.started,st_fix_back.stopped,st_fix_2.started,st_fix_2.stopped,main_prac,st_ans,st_res,st_corr,st_rt,st_back.started,st_back.stopped,st2_resp.keys,st2_resp.corr,st_main_back.started,st_main_back.stopped,st_main_text.started,st_main_text.stopped,mouse_4.x,mouse_4.y,mouse_4.leftButton,mouse_4.midButton,mouse_4.rightButton,mouse_4.started,mouse_4.stopped,text_2.started,text_2.stopped,id*,date,expName,psychopyVersion,frameRate,
negative,yellow,1,k,None,,,,,0,0,0,0,,,,,29.872208999935538,None,35.603646319999825,None,space,61.6838173000142,97.31713759992272,None,99.03321349993348,None,99.03321349993348,None,101.03323810000438,None,101.03323810000438,None,prac,k,k,1,1.397832400049083,103.0441466999473,None,None,0,,,,,,,,,,,,,,028,2022-05-23_11h04.16.958,Main,2022.1.1,61.17498799652491,
positive,red,2,None,None,,,,,0,1,1,1,,,,,,,,,,,,,,,,,,,,,prac,None,None,1,1.501541699981317,105.4496882999083,None,None,1,,,,,,,,,,,,,,028,2022-05-23_11h04.16.958,Main,2022.1.1,61.17498799652491,
negative,blue,2,None,k,,,,,0,2,2,2,,,,,,,,,,,,,,,,,,,,,prac,None,None,1,1.4990677000023425,107.9526373000117,None,None,1,,,,,,,,,,,,,,028,2022-05-23_11h04.16.958,Main,2022.1.1,61.17498799652491,
positive,yellow,1,None,k,,,,,0,3,3,3,,,,,,,,,,,,,,,,,,,,,prac,None,None,1,1.4970852000406012,110.44979649991728,None,None,1,,,,,,,,,,,,,,028,2022-05-23_11h04.16.958,Main,2022.1.1,61.17498799652491,
negative,blue,2,None,k,,,,,0,4,4,4,,,,,,,,,,,,,,,,,,,,,prac,None,None,1,1.5007804998895153,112.94959559990093,None,None,1,,,,,,,,,,,,,,028,2022-05-23_11h04.16.958,Main,2022.1.1,61.17498799652491,
negative,blue,1,None,k,,,,,0,5,5,5,,,,,,,,,,,,,,,,,,,,,prac,None,None,1,1.4965450000017881,115.45240869990084,None,None,1,,,,,,,,,,,,,,028,2022-05-23_11h04.16.958,Main,2022.1.1,61.17498799652491,
negative,yellow,2,k,None,,,,,0,6,6,6,,,,,,,,,,,,,,,,,,,,,prac,k,k,1,1.0157020000042394,117.94972889998462,None,None,0,,,,,,,,,,,,,,028,2022-05-23_11h04.16.958,Main,2022.1.1,61.17498799652491,
negative,red,1,None,None,,,,,0,7,7,7,,,,,,,,,,,,,,,,,,,,,prac,None,None,1,1.501718300045468,119.96629339992069,None,None,1,,,,,,,,,,,,,,028,2022-05-23_11h04.16.958,Main,2022.1.1,61.17498799652491,
positive,yellow,2,None,k,,,,,0,8,8,8,,,,,,,,,,,,,,,,,,,,,prac,None,None,1,1.498901000013575,122.4690298999194,None,None,1,,,,,,,,,,,,,,028,2022-05-23_11h04.16.958,Main,2022.1.1,61.17498799652491,
negative,yellow,1,k,None,,,,,0,9,9,9,,,,,,,,,,,,,,,,,,,,,prac,k,k,1,2.046825199970044,124.9717476000078,None,None,0,,,,,,,,,,,,,,028,2022-05-23_11h04.16.958,Main,2022.1.1,61.17498799652491,
positive,yellow,2,None,k,,,,,0,10,10,10,,,,,,,,,,,,,,,,,,,,,prac,None,None,1,1.5013034000294283,129.01866289996542,None,None,1,,,,,,,,,,,,,,028,2022-05-23_11h04.16.958,Main,2022.1.1,61.17498799652491,
negative,yellow,2,k,None,,,,,0,11,11,11,,,,,,,,,,,,,,,,,,,,,prac,k,k,1,0.81362800009083,131.5186093999073,None,None,0,,,,,,,,,,,,,,028,2022-05-23_11h04.16.958,Main,2022.1.1,61.17498799652491,
negative,red,2,None,None,,,,,0,12,12,12,,,,,,,,,,,,,,,,,,,,,prac,None,None,1,1.4987580999732018,133.33274599991273,None,None,1,,,,,,,,,,,,,,028,2022-05-23_11h04.16.958,Main,2022.1.1,61.17498799652491,
positive,red,1,None,None,,,,,0,13,13,13,,,,,,,,,,,,,,,,,,,,,prac,None,None,1,1.5006508000660688,135.83242310001515,None,None,1,,,,,,,,,,,,,,028,2022-05-23_11h04.16.958,Main,2022.1.1,61.17498799652491,
positive,blue,2,k,None,,,,,0,14,14,14,,,,,,,,,,,,,,,,,,,,,prac,k,k,1,1.2160043000476435,138.33306269999593,None,None,0,,,,,,,,,,,,,,028,2022-05-23_11h04.16.958,Main,2022.1.1,61.17498799652491,
positive,blue,1,k,None,,,,,0,15,15,15,,,,,,,,,,,,,,,,,,,,,prac,k,k,1,0.9962475999491289,140.5517594999401,None,None,0,,,,,,,,,,,,,,028,2022-05-23_11h04.16.958,Main,2022.1.1,61.17498799652491,
negative,blue,1,None,k,,,,,0,16,16,16,,,,,,,,,,,,,,,,,,,,,prac,None,None,1,1.501471900031902,142.54896739998367,None,None,1,,,,,,,,,,,,,,028,2022-05-23_11h04.16.958,Main,2022.1.1,61.17498799652491,
positive,blue,2,k,None,,,,,0,17,17,17,,,,,,,,,,,,,,,,,,,,,prac,k,k,1,0.8662080999929458,145.051613299991,None,None,0,,,,,,,,,,,,,,028,2022-05-23_11h04.16.958,Main,2022.1.1,61.17498799652491,
positive,blue,1,k,None,,,,,0,18,18,18,,,,,,,,,,,,,,,,,,,,,prac,k,k,1,1.0800699000246823,146.91829539998434,None,None,0,,,,,,,,,,,,,,028,2022-05-23_11h04.16.958,Main,2022.1.1,61.17498799652491,
positive,yellow,1,None,k,,,,,0,19,19,19,,,,,,,,,,,,,,,,,,,,,prac,None,None,1,1.4994668000144884,148.99910369992722,None,None,1,,,,,,,,,,,,,,028,2022-05-23_11h04.16.958,Main,2022.1.1,61.17498799652491,
negative,yellow,1,k,None,,,,,1,0,20,0,,,,,,,,,,,,,,,,,,,,,prac,k,k,1,0.7008454999886453,151.49878079991322,None,None,0,,,,,,,,,,,,,,028,2022-05-23_11h04.16.958,Main,2022.1.1,61.17498799652491,
positive,red,2,None,None,,,,,1,1,21,1,,,,,,,,,,,,,,,,,,,,,prac,None,None,1,1.4987336000194773,153.20166819996666,None,None,1,,,,,,,,,,,,,,028,2022-05-23_11h04.16.958,Main,2022.1.1,61.17498799652491,
negative,blue,2,None,k,,,,,1,2,22,2,,,,,,,,,,,,,,,,,,,,,prac,None,None,1,1.4962069999892265,155.70162539999,None,None,1,,,,,,,,,,,,,,028,2022-05-23_11h04.16.958,Main,2022.1.1,61.17498799652491,
positive,yellow,1,None,k,,,,,1,3,23,3,,,,,,,,,,,,,,,,,,,,,prac,None,None,1,1.5019915999146178,158.19865589996334,None,None,1,,,,,,,,,,,,,,028,2022-05-23_11h04.16.958,Main,2022.1.1,61.17498799652491,
negative,blue,2,None,k,,,,,1,4,24,4,,,,,,,,,,,,,,,,,,,,,prac,None,None,1,1.4963526000501588,160.70138669991866,None,None,1,,,,,,,,,,,,,,028,2022-05-23_11h04.16.958,Main,2022.1.1,61.17498799652491,
negative,blue,1,None,k,,,,,1,5,25,5,,,,,,,,,,,,,,,,,,,,,prac,None,None,1,1.4998725999612361,163.20445630000904,None,None,1,,,,,,,,,,,,,,028,2022-05-23_11h04.16.958,Main,2022.1.1,61.17498799652491,
negative,yellow,2,k,None,,,,,1,6,26,6,,,,,,,,,,,,,,,,,,,,,prac,k,k,1,0.9981460000853986,165.69851269992068,None,None,0,,,,,,,,,,,,,,028,2022-05-23_11h04.16.958,Main,2022.1.1,61.17498799652491,
negative,red,1,None,None,,,,,1,7,27,7,,,,,,,,,,,,,,,,,,,,,prac,None,None,1,1.5014334000879899,167.69851739995647,None,None,1,,,,,,,,,,,,,,028,2022-05-23_11h04.16.958,Main,2022.1.1,61.17498799652491,
positive,yellow,2,None,k,,,,,1,8,28,8,,,,,,,,,,,,,,,,,,,,,prac,None,None,1,1.496514099999331,170.2011803999776,None,None,1,,,,,,,,,,,,,,028,2022-05-23_11h04.16.958,Main,2022.1.1,61.17498799652491,
negative,yellow,1,k,None,,,,,1,9,29,9,,,,,,,,,,,,,,,,,,,,,prac,k,k,1,1.0183045000303537,172.69835849991068,None,None,0,,,,,,,,,,,,,,028,2022-05-23_11h04.16.958,Main,2022.1.1,61.17498799652491,
positive,yellow,2,None,k,,,,,1,10,30,10,,,,,,,,,,,,,,,,,,,,,prac,None,None,1,1.4989446999970824,174.71775219996925,None,None,1,,,,,,,,,,,,,,028,2022-05-23_11h04.16.958,Main,2022.1.1,61.17498799652491,
negative,yellow,2,k,None,,,,,1,11,31,11,,,,,,,,,,,,,,,,,,,,,prac,k,k,1,0.9148486000485718,177.21772740001325,None,None,0,,,,,,,,,,,,,,028,2022-05-23_11h04.16.958,Main,2022.1.1,61.17498799652491,
negative,red,2,None,None,,,,,1,12,32,12,,,,,,,,,,,,,,,,,,,,,prac,None,None,1,1.4978990000672638,179.13186079997104,None,None,1,,,,,,,,,,,,,,028,2022-05-23_11h04.16.958,Main,2022.1.1,61.17498799652491,
positive,red,1,None,None,,,,,1,13,33,13,,,,,,,,,,,,,,,,,,,,,prac,None,None,1,1.5005807999987155,181.6317700999789,None,None,1,,,,,,,,,,,,,,028,2022-05-23_11h04.16.958,Main,2022.1.1,61.17498799652491,
positive,blue,2,k,None,,,,,1,14,34,14,,,,,,,,,,,,,,,,,,,,,prac,k,k,1,0.78039249998983,184.13175539998338,None,None,0,,,,,,,,,,,,,,028,2022-05-23_11h04.16.958,Main,2022.1.1,61.17498799652491,
positive,blue,1,k,None,,,,,1,15,35,15,,,,,,,,,,,,,,,,,,,,,prac,k,k,1,0.8324308999581262,185.91499849990942,None,None,0,,,,,,,,,,,,,,028,2022-05-23_11h04.16.958,Main,2022.1.1,61.17498799652491,
negative,blue,1,None,k,,,,,1,16,36,16,,,,,,,,,,,,,,,,,,,,,prac,None,None,1,1.5006411999929696,187.7483704999322,None,None,1,,,,,,,,,,,,,,028,2022-05-23_11h04.16.958,Main,2022.1.1,61.17498799652491,
positive,blue,2,k,None,,,,,1,17,37,17,,,,,,,,,,,,,,,,,,,,,prac,k,k,1,0.7617064999649301,190.24833520001266,None,None,0,,,,,,,,,,,,,,028,2022-05-23_11h04.16.958,Main,2022.1.1,61.17498799652491,
positive,blue,1,k,None,,,,,1,18,38,18,,,,,,,,,,,,,,,,,,,,,prac,k,k,1,1.2702466000337154,192.00382169999648,None,None,0,,,,,,,,,,,,,,028,2022-05-23_11h04.16.958,Main,2022.1.1,61.17498799652491,
positive,yellow,1,None,k,,,,,1,19,39,19,,,,,,,,,,,,,,,,,,,,,prac,None,None,1,1.4988606999395415,194.284055099939,None,None,1,,,,,,,,,,,,,,028,2022-05-23_11h04.16.958,Main,2022.1.1,61.17498799652491,
,,,,,,,,,,,,,,,,,,,,,,,,,,,,,,,,,,,,,,,,,,196.78401669999585,None,196.78401669999585,None,0.021296296,0.043518517,0,0,0,0.014338120119646192,None,,,028,2022-05-23_11h04.16.958,Main,2022.1.1,61.17498799652491,
negative,yellow,2,k,None,,,,,,,,,0,0,0,0,,,,,,,,,,,,,205.48694109998178,None,205.48694109998178,None,main,k,k,1,1.5305069000460207,207.52781319990754,None,None,0,,,,,,,,,,,,,,028,2022-05-23_11h04.16.958,Main,2022.1.1,61.17498799652491,
positive,red,1,None,None,,,,,,,,,0,1,1,1,,,,,,,,,,,,,,,,,main,None,None,1,1.4989606000017375,211.06704479991458,None,None,1,,,,,,,,,,,,,,028,2022-05-23_11h04.16.958,Main,2022.1.1,61.17498799652491,
positive,blue,2,k,None,,,,,,,,,0,2,2,2,,,,,,,,,,,,,,,,,main,k,k,1,0.8482637000270188,213.56480309995823,None,None,0,,,,,,,,,,,,,,028,2022-05-23_11h04.16.958,Main,2022.1.1,61.17498799652491,
positive,blue,1,k,None,,,,,,,,,0,3,3,3,,,,,,,,,,,,,,,,,main,k,k,1,0.616246199933812,215.41450640000403,None,None,0,,,,,,,,,,,,,,028,2022-05-23_11h04.16.958,Main,2022.1.1,61.17498799652491,
negative,yellow,2,k,None,,,,,,,,,0,4,4,4,,,,,,,,,,,,,,,,,main,k,k,1,0.7173534000758082,217.0313576000044,None,None,0,,,,,,,,,,,,,,028,2022-05-23_11h04.16.958,Main,2022.1.1,61.17498799652491,
positive,yellow,2,None,k,,,,,,,,,0,5,5,5,,,,,,,,,,,,,,,,,main,None,None,1,1.495757699944079,218.75022019993048,None,None,1,,,,,,,,,,,,,,028,2022-05-23_11h04.16.958,Main,2022.1.1,61.17498799652491,
negative,blue,2,None,k,,,,,,,,,0,6,6,6,,,,,,,,,,,,,,,,,main,None,None,1,1.4988544000079855,221.24769589991774,None,None,1,,,,,,,,,,,,,,028,2022-05-23_11h04.16.958,Main,2022.1.1,61.17498799652491,
positive,red,2,None,None,,,,,,,,,0,7,7,7,,,,,,,,,,,,,,,,,main,None,None,1,1.5004681999562308,223.74736649997067,None,None,1,,,,,,,,,,,,,,028,2022-05-23_11h04.16.958,Main,2022.1.1,61.17498799652491,
positive,yellow,1,None,k,,,,,,,,,0,8,8,8,,,,,,,,,,,,,,,,,main,None,None,1,1.4981451999628916,226.25028189993463,None,None,1,,,,,,,,,,,,,,028,2022-05-23_11h04.16.958,Main,2022.1.1,61.17498799652491,
negative,red,1,None,None,,,,,,,,,0,9,9,9,,,,,,,,,,,,,,,,,main,None,None,1,1.4970550999278203,228.7500195999164,None,None,1,,,,,,,,,,,,,,028,2022-05-23_11h04.16.958,Main,2022.1.1,61.17498799652491,
positive,yellow,1,None,k,,,,,,,,,0,10,10,10,,,,,,,,,,,,,,,,,main,None,None,1,1.4994663000106812,231.24726959993131,None,None,1,,,,,,,,,,,,,,028,2022-05-23_11h04.16.958,Main,2022.1.1,61.17498799652491,
negative,yellow,1,k,None,,,,,,,,,0,11,11,11,,,,,,,,,,,,,,,,,main,k,k,1,0.9350558000151068,233.7499210999813,None,None,0,,,,,,,,,,,,,,028,2022-05-23_11h04.16.958,Main,2022.1.1,61.17498799652491,
negative,yellow,1,k,None,,,,,,,,,0,12,12,12,,,,,,,,,,,,,,,,,main,k,k,1,0.5933414000319317,235.68433949991595,None,None,0,,,,,,,,,,,,,,028,2022-05-23_11h04.16.958,Main,2022.1.1,61.17498799652491,
negative,red,2,None,None,,,,,,,,,0,13,13,13,,,,,,,,,,,,,,,,,main,None,None,1,1.5016310999635607,237.2804336999543,None,None,1,,,,,,,,,,,,,,028,2022-05-23_11h04.16.958,Main,2022.1.1,61.17498799652491,
positive,yellow,2,None,k,,,,,,,,,0,14,14,14,,,,,,,,,,,,,,,,,main,None,None,1,1.4964700000127777,239.78313389990944,None,None,1,,,,,,,,,,,,,,028,2022-05-23_11h04.16.958,Main,2022.1.1,61.17498799652491,
positive,blue,1,k,None,,,,,,,,,0,15,15,15,,,,,,,,,,,,,,,,,main,k,k,1,0.8002735000336543,242.2861430000048,None,None,0,,,,,,,,,,,,,,028,2022-05-23_11h04.16.958,Main,2022.1.1,61.17498799652491,
negative,blue,1,None,k,,,,,,,,,0,16,16,16,,,,,,,,,,,,,,,,,main,None,None,1,1.500251799938269,244.0803150999127,None,None,1,,,,,,,,,,,,,,028,2022-05-23_11h04.16.958,Main,2022.1.1,61.17498799652491,
positive,blue,2,k,None,,,,,,,,,0,17,17,17,,,,,,,,,,,,,,,,,main,k,k,1,0.7135541000170633,246.58298680000007,None,None,0,,,,,,,,,,,,,,028,2022-05-23_11h04.16.958,Main,2022.1.1,61.17498799652491,
negative,blue,2,None,k,,,,,,,,,0,18,18,18,,,,,,,,,,,,,,,,,main,None,None,1,1.5016369000077248,248.29962399997748,None,None,1,,,,,,,,,,,,,,028,2022-05-23_11h04.16.958,Main,2022.1.1,61.17498799652491,
negative,blue,1,None,k,,,,,,,,,0,19,19,19,,,,,,,,,,,,,,,,,main,None,None,1,1.4977590000489727,250.79689249990042,None,None,1,,,,,,,,,,,,,,028,2022-05-23_11h04.16.958,Main,2022.1.1,61.17498799652491,
negative,blue,1,None,k,,,,,,,,,0,20,20,20,,,,,,,,,,,,,,,,,main,None,None,1,1.4963288999861106,253.29952110000886,None,None,1,,,,,,,,,,,,,,028,2022-05-23_11h04.16.958,Main,2022.1.1,61.17498799652491,
negative,blue,2,None,k,,,,,,,,,0,21,21,21,,,,,,,,,,,,,,,,,main,None,None,1,1.501807100023143,255.796968700015,None,None,1,,,,,,,,,,,,,,028,2022-05-23_11h04.16.958,Main,2022.1.1,61.17498799652491,
negative,red,1,None,None,,,,,,,,,0,22,22,22,,,,,,,,,,,,,,,,,main,None,None,1,1.496748400037177,258.29946419992484,None,None,1,,,,,,,,,,,,,,028,2022-05-23_11h04.16.958,Main,2022.1.1,61.17498799652491,
positive,red,2,None,None,,,,,,,,,0,23,23,23,,,,,,,,,,,,,,,,,main,None,None,1,1.4996674000285566,260.79927089996636,None,None,1,,,,,,,,,,,,,,028,2022-05-23_11h04.16.958,Main,2022.1.1,61.17498799652491,
negative,red,2,None,None,,,,,,,,,0,24,24,24,,,,,,,,,,,,,,,,,main,None,None,1,1.500781000009738,263.2966275999788,None,None,1,,,,,,,,,,,,,,028,2022-05-23_11h04.16.958,Main,2022.1.1,61.17498799652491,
positive,blue,2,k,None,,,,,,,,,0,25,25,25,,,,,,,,,,,,,,,,,main,k,k,1,1.1995818000286818,265.79928099992685,None,None,0,,,,,,,,,,,,,,028,2022-05-23_11h04.16.958,Main,2022.1.1,61.17498799652491,
negative,yellow,1,k,None,,,,,,,,,0,26,26,26,,,,,,,,,,,,,,,,,main,k,k,1,0.9131366999354213,267.9992565999273,None,None,0,,,,,,,,,,,,,,028,2022-05-23_11h04.16.958,Main,2022.1.1,61.17498799652491,
positive,blue,2,k,None,,,,,,,,,0,27,27,27,,,,,,,,,,,,,,,,,main,k,k,1,0.6993968000169843,269.913380999933,None,None,0,,,,,,,,,,,,,,028,2022-05-23_11h04.16.958,Main,2022.1.1,61.17498799652491,
negative,blue,2,None,k,,,,,,,,,0,28,28,28,,,,,,,,,,,,,,,,,main,None,None,1,1.5006176999304444,271.6131696999073,None,None,1,,,,,,,,,,,,,,028,2022-05-23_11h04.16.958,Main,2022.1.1,61.17498799652491,
positive,red,1,None,None,,,,,,,,,0,29,29,29,,,,,,,,,,,,,,,,,main,None,None,1,1.4964803999755532,274.1158119000029,None,None,1,,,,,,,,,,,,,,028,2022-05-23_11h04.16.958,Main,2022.1.1,61.17498799652491,
positive,blue,1,k,None,,,,,,,,,0,30,30,30,,,,,,,,,,,,,,,,,main,k,k,1,0.8186715999618173,276.6132358999457,None,None,0,,,,,,,,,,,,,,028,2022-05-23_11h04.16.958,Main,2022.1.1,61.17498799652491,
positive,yellow,1,None,k,,,,,,,,,0,31,31,31,,,,,,,,,,,,,,,,,main,None,None,1,1.4986685999901965,278.43028709990904,None,None,1,,,,,,,,,,,,,,028,2022-05-23_11h04.16.958,Main,2022.1.1,61.17498799652491,
negative,yellow,2,k,None,,,,,,,,,0,32,32,32,,,,,,,,,,,,,,,,,main,k,k,1,0.5977330999448895,280.9323385999305,None,None,0,,,,,,,,,,,,,,028,2022-05-23_11h04.16.958,Main,2022.1.1,61.17498799652491,
negative,blue,1,None,k,,,,,,,,,0,33,33,33,,,,,,,,,,,,,,,,,main,None,None,1,1.5016558000352234,282.5295641999692,None,None,1,,,,,,,,,,,,,,028,2022-05-23_11h04.16.958,Main,2022.1.1,61.17498799652491,
positive,blue,1,k,None,,,,,,,,,0,34,34,34,,,,,,,,,,,,,,,,,main,k,k,1,0.6982080999296159,285.03228169993963,None,None,0,,,,,,,,,,,,,,028,2022-05-23_11h04.16.958,Main,2022.1.1,61.17498799652491,
negative,yellow,1,k,None,,,,,,,,,0,35,35,35,,,,,,,,,,,,,,,,,main,k,k,1,0.8631847000215203,286.73226189997513,None,None,0,,,,,,,,,,,,,,028,2022-05-23_11h04.16.958,Main,2022.1.1,61.17498799652491,
positive,yellow,2,None,k,,,,,,,,,0,36,36,36,,,,,,,,,,,,,,,,,main,None,None,1,1.4995830999687314,288.5987202000106,None,None,1,,,,,,,,,,,,,,028,2022-05-23_11h04.16.958,Main,2022.1.1,61.17498799652491,
positive,yellow,2,None,k,,,,,,,,,0,37,37,37,,,,,,,,,,,,,,,,,main,None,None,1,1.5004790999228135,291.0960582999978,None,None,1,,,,,,,,,,,,,,028,2022-05-23_11h04.16.958,Main,2022.1.1,61.17498799652491,
negative,yellow,2,k,None,,,,,,,,,0,38,38,38,,,,,,,,,,,,,,,,,main,k,k,1,0.699391599977389,293.5987585999537,None,None,0,,,,,,,,,,,,,,028,2022-05-23_11h04.16.958,Main,2022.1.1,61.17498799652491,
positive,yellow,1,None,k,,,,,,,,,0,39,39,39,,,,,,,,,,,,,,,,,main,None,None,1,1.4965200999286026,295.29874909995124,None,None,1,,,,,,,,,,,,,,028,2022-05-23_11h04.16.958,Main,2022.1.1,61.17498799652491,
negative,yellow,2,k,None,,,,,,,,,0,40,40,40,,,,,,,,,,,,,,,,,main,k,k,1,1.182448900071904,297.7985781999305,None,None,0,,,,,,,,,,,,,,028,2022-05-23_11h04.16.958,Main,2022.1.1,61.17498799652491,
positive,blue,2,k,None,,,,,,,,,0,41,41,41,,,,,,,,,,,,,,,,,main,k,k,1,0.6338320999639109,299.979205599986,None,None,0,,,,,,,,,,,,,,028,2022-05-23_11h04.16.958,Main,2022.1.1,61.17498799652491,
positive,blue,2,k,None,,,,,,,,,0,42,42,42,,,,,,,,,,,,,,,,,main,k,k,1,0.7499899999238551,301.6125802999595,None,None,0,,,,,,,,,,,,,,028,2022-05-23_11h04.16.958,Main,2022.1.1,61.17498799652491,
negative,blue,2,None,k,,,,,,,,,0,43,43,43,,,,,,,,,,,,,,,,,main,None,None,1,1.49890929996036,303.3652513999259,None,None,1,,,,,,,,,,,,,,028,2022-05-23_11h04.16.958,Main,2022.1.1,61.17498799652491,
negative,red,1,None,None,,,,,,,,,0,44,44,44,,,,,,,,,,,,,,,,,main,None,None,1,1.4971490000607446,305.8652087999508,None,None,1,,,,,,,,,,,,,,028,2022-05-23_11h04.16.958,Main,2022.1.1,61.17498799652491,
negative,yellow,1,k,None,,,,,,,,,0,45,45,45,,,,,,,,,,,,,,,,,main,k,k,1,0.9990957999834791,308.3624147999799,None,None,0,,,,,,,,,,,,,,028,2022-05-23_11h04.16.958,Main,2022.1.1,61.17498799652491,
negative,yellow,1,k,None,,,,,,,,,0,46,46,46,,,,,,,,,,,,,,,,,main,k,k,1,0.6010415999917313,310.36514179990627,None,None,0,,,,,,,,,,,,,,028,2022-05-23_11h04.16.958,Main,2022.1.1,61.17498799652491,
positive,red,1,None,None,,,,,,,,,0,47,47,47,,,,,,,,,,,,,,,,,main,None,None,1,1.4959713000571355,311.96506869990844,None,None,1,,,,,,,,,,,,,,028,2022-05-23_11h04.16.958,Main,2022.1.1,61.17498799652491,
positive,yellow,1,None,k,,,,,,,,,0,48,48,48,,,,,,,,,,,,,,,,,main,None,None,1,1.5019380000885576,314.46226669999305,None,None,1,,,,,,,,,,,,,,028,2022-05-23_11h04.16.958,Main,2022.1.1,61.17498799652491,
negative,blue,1,None,k,,,,,,,,,0,49,49,49,,,,,,,,,,,,,,,,,main,None,None,1,1.4991392000811175,316.96494759991765,None,None,1,,,,,,,,,,,,,,028,2022-05-23_11h04.16.958,Main,2022.1.1,61.17498799652491,
positive,yellow,2,None,k,,,,,,,,,0,50,50,50,,,,,,,,,,,,,,,,,main,None,None,1,1.4964539000065997,319.4649363999488,None,None,1,,,,,,,,,,,,,,028,2022-05-23_11h04.16.958,Main,2022.1.1,61.17498799652491,
negative,blue,1,None,k,,,,,,,,,0,51,51,51,,,,,,,,,,,,,,,,,main,None,None,1,1.501591399894096,321.96212649997324,None,None,1,,,,,,,,,,,,,,028,2022-05-23_11h04.16.958,Main,2022.1.1,61.17498799652491,
positive,red,2,None,None,,,,,,,,,0,52,52,52,,,,,,,,,,,,,,,,,main,None,None,1,1.4965495000360534,324.4648247999139,None,None,1,,,,,,,,,,,,,,028,2022-05-23_11h04.16.958,Main,2022.1.1,61.17498799652491,
positive,yellow,2,None,k,,,,,,,,,0,53,53,53,,,,,,,,,,,,,,,,,main,None,None,1,1.5000354999210685,326.9677492999472,None,None,1,,,,,,,,,,,,,,028,2022-05-23_11h04.16.958,Main,2022.1.1,61.17498799652491,
negative,red,2,None,None,,,,,,,,,0,54,54,54,,,,,,,,,,,,,,,,,main,None,k,0,1.5004275999963284,329.4620862000156,None,None,1,,,,,,,,,,,,,,028,2022-05-23_11h04.16.958,Main,2022.1.1,61.17498799652491,
positive,yellow,1,None,k,,,,,,,,,0,55,55,55,,,,,,,,,,,,,,,,,main,None,None,1,1.4959639000007883,332.96417890000157,None,None,1,,,,,,,,,,,,,,028,2022-05-23_11h04.16.958,Main,2022.1.1,61.17498799652491,
negative,blue,2,None,k,,,,,,,,,0,56,56,56,,,,,,,,,,,,,,,,,main,None,None,1,1.5001242000143975,335.4619187999051,None,None,1,,,,,,,,,,,,,,028,2022-05-23_11h04.16.958,Main,2022.1.1,61.17498799652491,
positive,blue,1,k,None,,,,,,,,,0,57,57,57,,,,,,,,,,,,,,,,,main,k,k,1,1.0161993999499828,337.9646181999706,None,None,0,,,,,,,,,,,,,,028,2022-05-23_11h04.16.958,Main,2022.1.1,61.17498799652491,
positive,blue,1,k,None,,,,,,,,,0,58,58,58,,,,,,,,,,,,,,,,,main,k,k,1,0.6357858999399468,339.98125589999836,None,None,0,,,,,,,,,,,,,,028,2022-05-23_11h04.16.958,Main,2022.1.1,61.17498799652491,
negative,yellow,2,k,None,,,,,,,,,0,59,59,59,,,,,,,,,,,,,,,,,main,k,k,1,0.80953710002359,341.61376029998064,None,None,0,,,,,,,,,,,,,,028,2022-05-23_11h04.16.958,Main,2022.1.1,61.17498799652491,
positive,red,2,None,None,,,,,,,,,0,60,60,60,,,,,,,,,,,,,,,,,main,None,None,1,1.5030761000234634,343.42842629994266,None,None,1,,,,,,,,,,,,,,028,2022-05-23_11h04.16.958,Main,2022.1.1,61.17498799652491,
negative,yellow,1,k,None,,,,,,,,,0,61,61,61,,,,,,,,,,,,,,,,,main,k,k,1,1.1852069000015035,345.93106119998265,None,None,0,,,,,,,,,,,,,,028,2022-05-23_11h04.16.958,Main,2022.1.1,61.17498799652491,
negative,red,1,None,None,,,,,,,,,0,62,62,62,,,,,,,,,,,,,,,,,main,None,None,1,1.4925800000783056,348.12244860001374,None,None,1,,,,,,,,,,,,,,028,2022-05-23_11h04.16.958,Main,2022.1.1,61.17498799652491,
negative,blue,1,None,k,,,,,,,,,0,63,63,63,,,,,,,,,,,,,,,,,main,None,None,1,1.4994809000054374,350.6116762999445,None,None,1,,,,,,,,,,,,,,028,2022-05-23_11h04.16.958,Main,2022.1.1,61.17498799652491,
positive,blue,2,k,None,,,,,,,,,0,64,64,64,,,,,,,,,,,,,,,,,main,k,k,1,0.6796548999845982,353.1142386000138,None,None,0,,,,,,,,,,,,,,028,2022-05-23_11h04.16.958,Main,2022.1.1,61.17498799652491,
negative,yellow,2,k,None,,,,,,,,,0,65,65,65,,,,,,,,,,,,,,,,,main,k,k,1,0.7489750999957323,354.7950705999974,None,None,0,,,,,,,,,,,,,,028,2022-05-23_11h04.16.958,Main,2022.1.1,61.17498799652491,
positive,yellow,2,None,k,,,,,,,,,0,66,66,66,,,,,,,,,,,,,,,,,main,None,None,1,1.5022030998952687,356.54507439990994,None,None,1,,,,,,,,,,,,,,028,2022-05-23_11h04.16.958,Main,2022.1.1,61.17498799652491,
positive,yellow,2,None,k,,,,,,,,,0,67,67,67,,,,,,,,,,,,,,,,,main,None,None,1,1.49549899995327,359.04525959992316,None,None,1,,,,,,,,,,,,,,028,2022-05-23_11h04.16.958,Main,2022.1.1,61.17498799652491,
positive,red,1,None,None,,,,,,,,,0,68,68,68,,,,,,,,,,,,,,,,,main,None,None,1,1.4997801999561489,361.54539569991175,None,None,1,,,,,,,,,,,,,,028,2022-05-23_11h04.16.958,Main,2022.1.1,61.17498799652491,
positive,yellow,1,None,k,,,,,,,,,0,69,69,69,,,,,,,,,,,,,,,,,main,None,None,1,1.5006022000452504,364.04551450000145,None,None,1,,,,,,,,,,,,,,028,2022-05-23_11h04.16.958,Main,2022.1.1,61.17498799652491,
negative,yellow,2,k,None,,,,,,,,,0,70,70,70,,,,,,,,,,,,,,,,,main,k,k,1,0.6962764000054449,366.5475610999856,None,None,0,,,,,,,,,,,,,,028,2022-05-23_11h04.16.958,Main,2022.1.1,61.17498799652491,
positive,yellow,1,None,k,,,,,,,,,0,71,71,71,,,,,,,,,,,,,,,,,main,None,None,1,1.5000001000007614,368.2445338999387,None,None,1,,,,,,,,,,,,,,028,2022-05-23_11h04.16.958,Main,2022.1.1,61.17498799652491,
negative,blue,1,None,k,,,,,,,,,0,72,72,72,,,,,,,,,,,,,,,,,main,None,None,1,1.5006675999611616,370.74478419998195,None,None,1,,,,,,,,,,,,,,028,2022-05-23_11h04.16.958,Main,2022.1.1,61.17498799652491,
negative,red,2,None,None,,,,,,,,,0,73,73,73,,,,,,,,,,,,,,,,,main,None,None,1,1.496967500075698,373.24722679995466,None,None,1,,,,,,,,,,,,,,028,2022-05-23_11h04.16.958,Main,2022.1.1,61.17498799652491,
positive,blue,2,k,None,,,,,,,,,0,74,74,74,,,,,,,,,,,,,,,,,main,k,k,1,0.7826699999859557,375.7443936999189,None,None,0,,,,,,,,,,,,,,028,2022-05-23_11h04.16.958,Main,2022.1.1,61.17498799652491,
negative,blue,2,None,k,,,,,,,,,0,75,75,75,,,,,,,,,,,,,,,,,main,None,None,1,1.5006089999806136,377.53043899999466,None,None,1,,,,,,,,,,,,,,028,2022-05-23_11h04.16.958,Main,2022.1.1,61.17498799652491,
negative,blue,2,None,k,,,,,,,,,0,76,76,76,,,,,,,,,,,,,,,,,main,None,None,1,1.4967662000562996,380.0303886999609,None,None,1,,,,,,,,,,,,,,028,2022-05-23_11h04.16.958,Main,2022.1.1,61.17498799652491,
negative,yellow,1,k,None,,,,,,,,,0,77,77,77,,,,,,,,,,,,,,,,,main,k,k,1,0.9155852000694722,382.5278815999627,None,None,0,,,,,,,,,,,,,,028,2022-05-23_11h04.16.958,Main,2022.1.1,61.17498799652491,
positive,blue,1,k,None,,,,,,,,,0,78,78,78,,,,,,,,,,,,,,,,,main,k,k,1,0.7830548000056297,384.44445599999744,None,None,0,,,,,,,,,,,,,,028,2022-05-23_11h04.16.958,Main,2022.1.1,61.17498799652491,
positive,blue,1,k,None,,,,,,,,,0,79,79,79,,,,,,,,,,,,,,,,,main,k,k,1,0.6844096999848261,386.227595299948,None,None,0,,,,,,,,,,,,,,028,2022-05-23_11h04.16.958,Main,2022.1.1,61.17498799652491,
positive,red,2,None,None,,,,,,,,,0,80,80,80,,,,,,,,,,,,,,,,,main,None,None,1,1.497342100017704,387.91355970001314,None,None,1,,,,,,,,,,,,,,028,2022-05-23_11h04.16.958,Main,2022.1.1,61.17498799652491,
positive,yellow,2,None,k,,,,,,,,,0,81,81,81,,,,,,,,,,,,,,,,,main,None,None,1,1.5004408999811858,390.41099519992713,None,None,1,,,,,,,,,,,,,,028,2022-05-23_11h04.16.958,Main,2022.1.1,61.17498799652491,
positive,blue,1,k,None,,,,,,,,,0,82,82,82,,,,,,,,,,,,,,,,,main,k,k,1,0.8327830999623984,392.91345019999426,None,None,0,,,,,,,,,,,,,,028,2022-05-23_11h04.16.958,Main,2022.1.1,61.17498799652491,
negative,yellow,2,k,None,,,,,,,,,0,83,83,83,,,,,,,,,,,,,,,,,main,k,k,1,0.7695115000242367,394.74679989996366,None,None,0,,,,,,,,,,,,,,028,2022-05-23_11h04.16.958,Main,2022.1.1,61.17498799652491,
positive,blue,2,k,None,,,,,,,,,0,84,84,84,,,,,,,,,,,,,,,,,main,k,k,1,0.8932131000328809,396.5205956000136,None,None,0,,,,,,,,,,,,,,028,2022-05-23_11h04.16.958,Main,2022.1.1,61.17498799652491,
positive,yellow,1,None,k,,,,,,,,,0,85,85,85,,,,,,,,,,,,,,,,,main,None,None,1,1.5014265000354499,398.4108433999354,None,None,1,,,,,,,,,,,,,,028,2022-05-23_11h04.16.958,Main,2022.1.1,61.17498799652491,
positive,blue,2,k,None,,,,,,,,,0,86,86,86,,,,,,,,,,,,,,,,,main,k,k,1,0.7688955999910831,400.91352189995814,None,None,0,,,,,,,,,,,,,,028,2022-05-23_11h04.16.958,Main,2022.1.1,61.17498799652491,
positive,blue,1,k,None,,,,,,,,,0,87,87,87,,,,,,,,,,,,,,,,,main,k,k,1,0.8625774999381974,402.6797854999313,None,None,0,,,,,,,,,,,,,,028,2022-05-23_11h04.16.958,Main,2022.1.1,61.17498799652491,
negative,yellow,2,k,None,,,,,,,,,0,88,88,88,,,,,,,,,,,,,,,,,main,k,k,1,0.6634927000850439,404.54656569997314,None,None,0,,,,,,,,,,,,,,028,2022-05-23_11h04.16.958,Main,2022.1.1,61.17498799652491,
negative,blue,2,None,k,,,,,,,,,0,89,89,89,,,,,,,,,,,,,,,,,main,None,None,1,1.5014150999486446,406.21068479993846,None,None,1,,,,,,,,,,,,,,028,2022-05-23_11h04.16.958,Main,2022.1.1,61.17498799652491,
positive,yellow,2,None,k,,,,,,,,,0,90,90,90,,,,,,,,,,,,,,,,,main,None,None,1,1.4989518000511453,408.7133685000008,None,None,1,,,,,,,,,,,,,,028,2022-05-23_11h04.16.958,Main,2022.1.1,61.17498799652491,
negative,yellow,1,k,None,,,,,,,,,0,91,91,91,,,,,,,,,,,,,,,,,main,k,k,1,1.0318575000856072,411.21310990001075,None,None,0,,,,,,,,,,,,,,028,2022-05-23_11h04.16.958,Main,2022.1.1,61.17498799652491,
negative,red,2,None,None,,,,,,,,,0,92,92,92,,,,,,,,,,,,,,,,,main,None,None,1,1.4967235999647528,413.2463560999604,None,None,1,,,,,,,,,,,,,,028,2022-05-23_11h04.16.958,Main,2022.1.1,61.17498799652491,
negative,blue,2,None,k,,,,,,,,,0,93,93,93,,,,,,,,,,,,,,,,,main,None,None,1,1.5017667999491096,415.7436119999038,None,None,1,,,,,,,,,,,,,,028,2022-05-23_11h04.16.958,Main,2022.1.1,61.17498799652491,
negative,blue,1,None,k,,,,,,,,,0,94,94,94,,,,,,,,,,,,,,,,,main,None,None,1,1.4991389999631792,418.2463158000028,None,None,1,,,,,,,,,,,,,,028,2022-05-23_11h04.16.958,Main,2022.1.1,61.17498799652491,
negative,blue,1,None,k,,,,,,,,,0,95,95,95,,,,,,,,,,,,,,,,,main,None,None,1,1.4967657999368384,420.74628919991665,None,None,1,,,,,,,,,,,,,,028,2022-05-23_11h04.16.958,Main,2022.1.1,61.17498799652491,
negative,red,1,None,None,,,,,,,,,0,96,96,96,,,,,,,,,,,,,,,,,main,None,None,1,1.5006031000521034,423.2437346999068,None,None,1,,,,,,,,,,,,,,028,2022-05-23_11h04.16.958,Main,2022.1.1,61.17498799652491,
positive,yellow,1,None,k,,,,,,,,,0,97,97,97,,,,,,,,,,,,,,,,,main,None,None,1,1.4996173999970779,425.7435315999901,None,None,1,,,,,,,,,,,,,,028,2022-05-23_11h04.16.958,Main,2022.1.1,61.17498799652491,
negative,yellow,1,k,None,,,,,,,,,0,98,98,98,,,,,,,,,,,,,,,,,main,k,k,1,1.13038820005022,428.2435465999879,None,None,0,,,,,,,,,,,,,,028,2022-05-23_11h04.16.958,Main,2022.1.1,61.17498799652491,
positive,red,1,None,None,,,,,,,,,0,99,99,99,,,,,,,,,,,,,,,,,main,None,None,1,1.4977829999988899,430.3769280000124,None,None,1,,,,,,,,,,,,,,028,2022-05-23_11h04.16.958,Main,2022.1.1,61.17498799652491,
positive,blue,1,k,None,,,,,,,,,0,100,100,100,,,,,,,,,,,,,,,,,main,k,k,1,0.9646716000279412,432.8768153999699,None,None,0,,,,,,,,,,,,,,028,2022-05-23_11h04.16.958,Main,2022.1.1,61.17498799652491,
negative,yellow,1,k,None,,,,,,,,,0,101,101,101,,,,,,,,,,,,,,,,,main,k,k,1,0.8995263000251725,434.8435693999054,None,None,0,,,,,,,,,,,,,,028,2022-05-23_11h04.16.958,Main,2022.1.1,61.17498799652491,
negative,blue,2,None,k,,,,,,,,,0,102,102,102,,,,,,,,,,,,,,,,,main,None,None,1,1.4977940999669954,436.7458748999052,None,None,1,,,,,,,,,,,,,,028,2022-05-23_11h04.16.958,Main,2022.1.1,61.17498799652491,
negative,yellow,2,k,None,,,,,,,,,0,103,103,103,,,,,,,,,,,,,,,,,main,k,k,1,0.8518132000463083,439.2434217999689,None,None,0,,,,,,,,,,,,,,028,2022-05-23_11h04.16.958,Main,2022.1.1,61.17498799652491,
positive,yellow,2,None,k,,,,,,,,,0,104,104,104,,,,,,,,,,,,,,,,,main,None,None,1,1.4989860999630764,441.0958639999153,None,None,1,,,,,,,,,,,,,,028,2022-05-23_11h04.16.958,Main,2022.1.1,61.17498799652491,
positive,blue,1,k,None,,,,,,,,,0,105,105,105,,,,,,,,,,,,,,,,,main,k,k,1,0.6805280999979004,443.59580909996293,None,None,0,,,,,,,,,,,,,,028,2022-05-23_11h04.16.958,Main,2022.1.1,61.17498799652491,
positive,blue,2,k,None,,,,,,,,,0,106,106,106,,,,,,,,,,,,,,,,,main,k,k,1,0.8485554000362754,445.2766461999854,None,None,0,,,,,,,,,,,,,,028,2022-05-23_11h04.16.958,Main,2022.1.1,61.17498799652491,
negative,blue,1,None,k,,,,,,,,,0,107,107,107,,,,,,,,,,,,,,,,,main,None,None,1,1.5013862999621779,447.12634139996953,None,None,1,,,,,,,,,,,,,,028,2022-05-23_11h04.16.958,Main,2022.1.1,61.17498799652491,
positive,yellow,2,None,k,,,,,,,,,0,108,108,108,,,,,,,,,,,,,,,,,main,None,None,1,1.4990528000053018,449.6290264999261,None,None,1,,,,,,,,,,,,,,028,2022-05-23_11h04.16.958,Main,2022.1.1,61.17498799652491,
negative,yellow,1,k,None,,,,,,,,,0,109,109,109,,,,,,,,,,,,,,,,,main,k,k,1,0.6802474999567494,452.12896120001096,None,None,0,,,,,,,,,,,,,,028,2022-05-23_11h04.16.958,Main,2022.1.1,61.17498799652491,
negative,blue,2,None,k,,,,,,,,,0,110,110,110,,,,,,,,,,,,,,,,,main,None,None,1,1.5012239000061527,453.80984020000324,None,None,1,,,,,,,,,,,,,,028,2022-05-23_11h04.16.958,Main,2022.1.1,61.17498799652491,
positive,blue,2,k,None,,,,,,,,,0,111,111,111,,,,,,,,,,,,,,,,,main,k,k,1,0.6828170000808313,456.31223149993457,None,None,0,,,,,,,,,,,,,,028,2022-05-23_11h04.16.958,Main,2022.1.1,61.17498799652491,
negative,blue,1,None,k,,,,,,,,,0,112,112,112,,,,,,,,,,,,,,,,,main,None,None,1,1.4977650000946596,457.9955056000035,None,None,1,,,,,,,,,,,,,,028,2022-05-23_11h04.16.958,Main,2022.1.1,61.17498799652491,
positive,yellow,1,None,k,,,,,,,,,0,113,113,113,,,,,,,,,,,,,,,,,main,None,None,1,1.4997247999999672,460.4927248999011,None,None,1,,,,,,,,,,,,,,028,2022-05-23_11h04.16.958,Main,2022.1.1,61.17498799652491,
negative,red,1,None,None,,,,,,,,,0,114,114,114,,,,,,,,,,,,,,,,,main,None,None,1,1.4992363000055775,462.9954233999597,None,None,1,,,,,,,,,,,,,,028,2022-05-23_11h04.16.958,Main,2022.1.1,61.17498799652491,
positive,red,1,None,None,,,,,,,,,0,115,115,115,,,,,,,,,,,,,,,,,main,None,None,1,1.4964892999269068,465.4953894999344,None,None,1,,,,,,,,,,,,,,028,2022-05-23_11h04.16.958,Main,2022.1.1,61.17498799652491,
negative,red,2,None,None,,,,,,,,,0,116,116,116,,,,,,,,,,,,,,,,,main,None,None,1,1.5014020000817254,467.9926239999477,None,None,1,,,,,,,,,,,,,,028,2022-05-23_11h04.16.958,Main,2022.1.1,61.17498799652491,
negative,yellow,2,k,None,,,,,,,,,0,117,117,117,,,,,,,,,,,,,,,,,main,k,k,1,1.2467389999656007,470.4952939999057,None,None,0,,,,,,,,,,,,,,028,2022-05-23_11h04.16.958,Main,2022.1.1,61.17498799652491,
positive,yellow,1,None,k,,,,,,,,,0,118,118,118,,,,,,,,,,,,,,,,,main,None,None,1,1.5014859000220895,472.74285309994593,None,None,1,,,,,,,,,,,,,,028,2022-05-23_11h04.16.958,Main,2022.1.1,61.17498799652491,
positive,red,2,None,None,,,,,,,,,0,119,119,119,,,,,,,,,,,,,,,,,main,None,None,1,1.5002105999737978,475.2452592999907,None,None,1,,,,,,,,,,,,,,028,2022-05-23_11h04.16.958,Main,2022.1.1,61.17498799652491,
positive,blue,2,k,None,,,,,,,,,0,120,120,120,,,,,,,,,,,,,,,,,main,k,k,1,0.6954960000002757,477.74515779991634,None,None,0,,,,,,,,,,,,,,028,2022-05-23_11h04.16.958,Main,2022.1.1,61.17498799652491,
negative,red,1,None,None,,,,,,,,,0,121,121,121,,,,,,,,,,,,,,,,,main,None,None,1,1.5028804999310523,479.44233079999685,None,None,1,,,,,,,,,,,,,,028,2022-05-23_11h04.16.958,Main,2022.1.1,61.17498799652491,
positive,yellow,2,None,k,,,,,,,,,0,122,122,122,,,,,,,,,,,,,,,,,main,None,None,1,1.4956725999945775,481.9450680000009,None,None,1,,,,,,,,,,,,,,028,2022-05-23_11h04.16.958,Main,2022.1.1,61.17498799652491,
negative,red,2,None,None,,,,,,,,,0,123,123,123,,,,,,,,,,,,,,,,,main,None,None,1,1.500465300050564,484.4423127999762,None,None,1,,,,,,,,,,,,,,028,2022-05-23_11h04.16.958,Main,2022.1.1,61.17498799652491,
negative,yellow,2,k,None,,,,,,,,,0,124,124,124,,,,,,,,,,,,,,,,,main,k,k,1,0.8661028000060469,486.94496439991053,None,None,0,,,,,,,,,,,,,,028,2022-05-23_11h04.16.958,Main,2022.1.1,61.17498799652491,
positive,red,1,None,None,,,,,,,,,0,125,125,125,,,,,,,,,,,,,,,,,main,None,None,1,1.4968703999184072,488.81159930001013,None,None,1,,,,,,,,,,,,,,028,2022-05-23_11h04.16.958,Main,2022.1.1,61.17498799652491,
negative,blue,2,None,k,,,,,,,,,0,126,126,126,,,,,,,,,,,,,,,,,main,None,None,1,1.5006427000043914,491.30879779998213,None,None,1,,,,,,,,,,,,,,028,2022-05-23_11h04.16.958,Main,2022.1.1,61.17498799652491,
negative,blue,1,None,k,,,,,,,,,0,127,127,127,,,,,,,,,,,,,,,,,main,None,None,1,1.5032545999856666,493.8114883999806,None,None,1,,,,,,,,,,,,,,028,2022-05-23_11h04.16.958,Main,2022.1.1,61.17498799652491,
negative,yellow,1,k,None,,,,,,,,,0,128,128,128,,,,,,,,,,,,,,,,,main,k,k,1,0.7760970999952406,496.31483589997515,None,None,0,,,,,,,,,,,,,,028,2022-05-23_11h04.16.958,Main,2022.1.1,61.17498799652491,
negative,yellow,1,k,None,,,,,,,,,0,129,129,129,,,,,,,,,,,,,,,,,main,k,k,1,0.6986858999589458,498.0922945999773,None,None,0,,,,,,,,,,,,,,028,2022-05-23_11h04.16.958,Main,2022.1.1,61.17498799652491,
positive,blue,1,k,None,,,,,,,,,0,130,130,130,,,,,,,,,,,,,,,,,main,k,k,1,0.6685076999710873,499.7919288999401,None,None,0,,,,,,,,,,,,,,028,2022-05-23_11h04.16.958,Main,2022.1.1,61.17498799652491,
negative,blue,1,None,k,,,,,,,,,0,131,131,131,,,,,,,,,,,,,,,,,main,None,None,1,1.497923200018704,501.4613482999848,None,None,1,,,,,,,,,,,,,,028,2022-05-23_11h04.16.958,Main,2022.1.1,61.17498799652491,
negative,blue,2,None,k,,,,,,,,,0,132,132,132,,,,,,,,,,,,,,,,,main,None,None,1,1.4964622999541461,503.961280999938,None,None,1,,,,,,,,,,,,,,028,2022-05-23_11h04.16.958,Main,2022.1.1,61.17498799652491,
positive,blue,2,k,None,,,,,,,,,0,133,133,133,,,,,,,,,,,,,,,,,main,k,k,1,0.6506868000142276,506.45849679992534,None,None,0,,,,,,,,,,,,,,028,2022-05-23_11h04.16.958,Main,2022.1.1,61.17498799652491,
positive,red,2,None,None,,,,,,,,,0,134,134,134,,,,,,,,,,,,,,,,,main,None,None,1,1.4988178999628872,508.109074399923,None,None,1,,,,,,,,,,,,,,028,2022-05-23_11h04.16.958,Main,2022.1.1,61.17498799652491,
negative,yellow,2,k,None,,,,,,,,,0,135,135,135,,,,,,,,,,,,,,,,,main,k,k,1,0.8965048999525607,510.6111443999689,None,None,0,,,,,,,,,,,,,,028,2022-05-23_11h04.16.958,Main,2022.1.1,61.17498799652491,
positive,yellow,2,None,k,,,,,,,,,0,136,136,136,,,,,,,,,,,,,,,,,main,None,None,1,1.5015379999531433,512.5085949999047,None,None,1,,,,,,,,,,,,,,028,2022-05-23_11h04.16.958,Main,2022.1.1,61.17498799652491,
positive,blue,1,k,None,,,,,,,,,0,137,137,137,,,,,,,,,,,,,,,,,main,k,k,1,0.7662466000765562,515.0110880999127,None,None,0,,,,,,,,,,,,,,028,2022-05-23_11h04.16.958,Main,2022.1.1,61.17498799652491,
positive,yellow,1,None,k,,,,,,,,,0,138,138,138,,,,,,,,,,,,,,,,,main,None,None,1,1.4970710000488907,516.7777244999306,None,None,1,,,,,,,,,,,,,,028,2022-05-23_11h04.16.958,Main,2022.1.1,61.17498799652491,
positive,yellow,1,None,k,,,,,,,,,0,139,139,139,,,,,,,,,,,,,,,,,main,None,None,1,1.5004965999396518,519.2749004999641,None,None,1,,,,,,,,,,,,,,028,2022-05-23_11h04.16.958,Main,2022.1.1,61.17498799652491,
positive,yellow,1,None,k,,,,,,,,,0,140,140,140,,,,,,,,,,,,,,,,,main,None,None,1,1.4973710000049323,521.7776009999216,None,None,1,,,,,,,,,,,,,,028,2022-05-23_11h04.16.958,Main,2022.1.1,61.17498799652491,
positive,blue,1,k,None,,,,,,,,,0,141,141,141,,,,,,,,,,,,,,,,,main,k,k,1,0.8174736999208108,524.2747945999727,None,None,0,,,,,,,,,,,,,,028,2022-05-23_11h04.16.958,Main,2022.1.1,61.17498799652491,
positive,blue,2,k,None,,,,,,,,,0,142,142,142,,,,,,,,,,,,,,,,,main,k,k,1,0.7325315000489354,526.0941608999856,None,None,0,,,,,,,,,,,,,,028,2022-05-23_11h04.16.958,Main,2022.1.1,61.17498799652491,
positive,yellow,2,None,k,,,,,,,,,0,143,143,143,,,,,,,,,,,,,,,,,main,None,None,1,1.4969146999064833,527.8275010999059,None,None,1,,,,,,,,,,,,,,028,2022-05-23_11h04.16.958,Main,2022.1.1,61.17498799652491,
negative,yellow,2,k,None,,,,,,,,,0,144,144,144,,,,,,,,,,,,,,,,,main,k,k,1,0.6150362000335008,530.3246747999219,None,None,0,,,,,,,,,,,,,,028,2022-05-23_11h04.16.958,Main,2022.1.1,61.17498799652491,
negative,blue,2,None,k,,,,,,,,,0,145,145,145,,,,,,,,,,,,,,,,,main,None,None,1,1.5014809999847785,531.9413639999693,None,None,1,,,,,,,,,,,,,,028,2022-05-23_11h04.16.958,Main,2022.1.1,61.17498799652491,
negative,red,1,None,None,,,,,,,,,0,146,146,146,,,,,,,,,,,,,,,,,main,None,None,1,1.4974944000132382,534.444010199979,None,None,1,,,,,,,,,,,,,,028,2022-05-23_11h04.16.958,Main,2022.1.1,61.17498799652491,
positive,blue,1,k,None,,,,,,,,,0,147,147,147,,,,,,,,,,,,,,,,,main,k,k,1,0.8819792999420315,536.9412016000133,None,None,0,,,,,,,,,,,,,,028,2022-05-23_11h04.16.958,Main,2022.1.1,61.17498799652491,
positive,yellow,1,None,k,,,,,,,,,0,148,148,148,,,,,,,,,,,,,,,,,main,None,None,1,1.5008994999807328,538.8272377999965,None,None,1,,,,,,,,,,,,,,028,2022-05-23_11h04.16.958,Main,2022.1.1,61.17498799652491,
negative,red,2,None,None,,,,,,,,,0,149,149,149,,,,,,,,,,,,,,,,,main,None,None,1,1.4964204999851063,541.3272148999386,None,None,1,,,,,,,,,,,,,,028,2022-05-23_11h04.16.958,Main,2022.1.1,61.17498799652491,
negative,blue,1,None,k,,,,,,,,,0,150,150,150,,,,,,,,,,,,,,,,,main,None,None,1,1.5016759999562055,543.8249147000024,None,None,1,,,,,,,,,,,,,,028,2022-05-23_11h04.16.958,Main,2022.1.1,61.17498799652491,
negative,yellow,2,k,None,,,,,,,,,0,151,151,151,,,,,,,,,,,,,,,,,main,k,k,1,0.8300800999859348,546.327106499928,None,None,0,,,,,,,,,,,,,,028,2022-05-23_11h04.16.958,Main,2022.1.1,61.17498799652491,
negative,blue,2,None,k,,,,,,,,,0,152,152,152,,,,,,,,,,,,,,,,,main,None,None,1,1.5015118999872357,548.1580026999582,None,None,1,,,,,,,,,,,,,,028,2022-05-23_11h04.16.958,Main,2022.1.1,61.17498799652491,
negative,yellow,1,k,None,,,,,,,,,0,153,153,153,,,,,,,,,,,,,,,,,main,k,k,1,0.8495868999743834,550.660337899928,None,None,0,,,,,,,,,,,,,,028,2022-05-23_11h04.16.958,Main,2022.1.1,61.17498799652491,
negative,blue,1,None,k,,,,,,,,,0,154,154,154,,,,,,,,,,,,,,,,,main,None,None,1,1.4964205999858677,552.5103272999404,None,None,1,,,,,,,,,,,,,,028,2022-05-23_11h04.16.958,Main,2022.1.1,61.17498799652491,
positive,yellow,2,None,k,,,,,,,,,0,155,155,155,,,,,,,,,,,,,,,,,main,None,None,1,1.4988983001094311,555.0082167999353,None,None,1,,,,,,,,,,,,,,028,2022-05-23_11h04.16.958,Main,2022.1.1,61.17498799652491,
positive,red,2,None,None,,,,,,,,,0,156,156,156,,,,,,,,,,,,,,,,,main,None,None,1,1.5015775000210851,557.5077157999622,None,None,1,,,,,,,,,,,,,,028,2022-05-23_11h04.16.958,Main,2022.1.1,61.17498799652491,
positive,red,1,None,None,,,,,,,,,0,157,157,157,,,,,,,,,,,,,,,,,main,None,None,1,1.4990530000068247,560.0101874999236,None,None,1,,,,,,,,,,,,,,028,2022-05-23_11h04.16.958,Main,2022.1.1,61.17498799652491,
positive,blue,2,k,None,,,,,,,,,0,158,158,158,,,,,,,,,,,,,,,,,main,k,k,1,0.8965711999917403,562.5101663999958,None,None,0,,,,,,,,,,,,,,028,2022-05-23_11h04.16.958,Main,2022.1.1,61.17498799652491,
negative,yellow,1,k,None,,,,,,,,,0,159,159,159,,,,,,,,,,,,,,,,,main,k,k,1,0.8153138000052422,564.4073353999993,None,None,0,,,,,,,,,,,,,,028,2022-05-23_11h04.16.958,Main,2022.1.1,61.17498799652491,
negative,red,2,None,None,,,,,,,,,0,160,160,160,,,,,,,,,,,,,,,,,main,None,None,1,1.4980015000328422,566.2266981999855,None,None,1,,,,,,,,,,,,,,028,2022-05-23_11h04.16.958,Main,2022.1.1,61.17498799652491,
negative,blue,1,None,k,,,,,,,,,0,161,161,161,,,,,,,,,,,,,,,,,main,None,None,1,1.5000650000292808,568.7297268999973,None,None,1,,,,,,,,,,,,,,028,2022-05-23_11h04.16.958,Main,2022.1.1,61.17498799652491,
negative,blue,1,None,k,,,,,,,,,0,162,162,162,,,,,,,,,,,,,,,,,main,None,None,1,1.5007754999678582,571.223944599973,None,None,1,,,,,,,,,,,,,,028,2022-05-23_11h04.16.958,Main,2022.1.1,61.17498799652491,
negative,yellow,1,k,None,,,,,,,,,0,163,163,163,,,,,,,,,,,,,,,,,main,k,k,1,0.8632237000856549,573.726845899946,None,None,0,,,,,,,,,,,,,,028,2022-05-23_11h04.16.958,Main,2022.1.1,61.17498799652491,
negative,yellow,1,k,None,,,,,,,,,0,164,164,164,,,,,,,,,,,,,,,,,main,k,k,1,0.7497860000003129,575.5904644000111,None,None,0,,,,,,,,,,,,,,028,2022-05-23_11h04.16.958,Main,2022.1.1,61.17498799652491,
positive,yellow,1,None,k,,,,,,,,,0,165,165,165,,,,,,,,,,,,,,,,,main,None,None,1,1.5008185000624508,577.3408942999085,None,None,1,,,,,,,,,,,,,,028,2022-05-23_11h04.16.958,Main,2022.1.1,61.17498799652491,
negative,red,1,None,None,,,,,,,,,0,166,166,166,,,,,,,,,,,,,,,,,main,None,None,1,1.4977076000068337,579.8431298999349,None,None,1,,,,,,,,,,,,,,028,2022-05-23_11h04.16.958,Main,2022.1.1,61.17498799652491,
negative,yellow,2,k,None,,,,,,,,,0,167,167,167,,,,,,,,,,,,,,,,,main,k,k,1,1.097842000075616,582.3409037999809,None,None,0,,,,,,,,,,,,,,028,2022-05-23_11h04.16.958,Main,2022.1.1,61.17498799652491,
positive,blue,2,k,None,,,,,,,,,0,168,168,168,,,,,,,,,,,,,,,,,main,k,k,1,0.7017441999632865,584.4402693000156,None,None,0,,,,,,,,,,,,,,028,2022-05-23_11h04.16.958,Main,2022.1.1,61.17498799652491,
positive,red,2,None,None,,,,,,,,,0,169,169,169,,,,,,,,,,,,,,,,,main,None,None,1,1.4989514000480995,586.1429866999388,None,None,1,,,,,,,,,,,,,,028,2022-05-23_11h04.16.958,Main,2022.1.1,61.17498799652491,
positive,red,1,None,None,,,,,,,,,0,170,170,170,,,,,,,,,,,,,,,,,main,None,None,1,1.497432000003755,588.6429507000139,None,None,1,,,,,,,,,,,,,,028,2022-05-23_11h04.16.958,Main,2022.1.1,61.17498799652491,
negative,blue,2,None,k,,,,,,,,,0,171,171,171,,,,,,,,,,,,,,,,,main,None,None,1,1.4978428999893367,591.140439299983,None,None,1,,,,,,,,,,,,,,028,2022-05-23_11h04.16.958,Main,2022.1.1,61.17498799652491,
positive,blue,2,k,None,,,,,,,,,0,172,172,172,,,,,,,,,,,,,,,,,main,k,k,1,0.7995038999943063,593.6404577000067,None,None,0,,,,,,,,,,,,,,028,2022-05-23_11h04.16.958,Main,2022.1.1,61.17498799652491,
negative,yellow,2,k,None,,,,,,,,,0,173,173,173,,,,,,,,,,,,,,,,,main,k,k,1,0.8510512999491766,595.442854099907,None,None,0,,,,,,,,,,,,,,028,2022-05-23_11h04.16.958,Main,2022.1.1,61.17498799652491,
positive,yellow,2,None,k,,,,,,,,,0,174,174,174,,,,,,,,,,,,,,,,,main,None,None,1,1.4963072000537068,597.2928215999855,None,None,1,,,,,,,,,,,,,,028,2022-05-23_11h04.16.958,Main,2022.1.1,61.17498799652491,
negative,blue,2,None,k,,,,,,,,,0,175,175,175,,,,,,,,,,,,,,,,,main,None,None,1,1.4987507000332698,599.7903128999751,None,None,1,,,,,,,,,,,,,,028,2022-05-23_11h04.16.958,Main,2022.1.1,61.17498799652491,
positive,blue,1,k,None,,,,,,,,,0,176,176,176,,,,,,,,,,,,,,,,,main,k,k,1,0.8853392000310123,602.2901633000001,None,None,0,,,,,,,,,,,,,,028,2022-05-23_11h04.16.958,Main,2022.1.1,61.17498799652491,
positive,yellow,1,None,k,,,,,,,,,0,177,177,177,,,,,,,,,,,,,,,,,main,None,None,1,1.498679600073956,604.175973800011,None,None,1,,,,,,,,,,,,,,028,2022-05-23_11h04.16.958,Main,2022.1.1,61.17498799652491,
positive,blue,1,k,None,,,,,,,,,0,178,178,178,,,,,,,,,,,,,,,,,main,k,k,1,0.7805960000259802,606.6759339999408,None,None,0,,,,,,,,,,,,,,028,2022-05-23_11h04.16.958,Main,2022.1.1,61.17498799652491,
positive,yellow,2,None,k,,,,,,,,,0,179,179,179,,,,,,,,,,,,,,,,,main,None,None,1,1.501281600096263,608.4567087999312,None,None,1,,,,,,,,,,,,,,028,2022-05-23_11h04.16.958,Main,2022.1.1,61.17498799652491,
positive,blue,1,k,None,,,,,,,,,0,180,180,180,,,,,,,,,,,,,,,,,main,k,k,1,0.7993255999172106,610.959156799945,None,None,0,,,,,,,,,,,,,,028,2022-05-23_11h04.16.958,Main,2022.1.1,61.17498799652491,
negative,red,1,None,None,,,,,,,,,0,181,181,181,,,,,,,,,,,,,,,,,main,None,None,1,1.4961212000343949,612.7591923999134,None,None,1,,,,,,,,,,,,,,028,2022-05-23_11h04.16.958,Main,2022.1.1,61.17498799652491,
negative,blue,1,None,k,,,,,,,,,0,182,182,182,,,,,,,,,,,,,,,,,main,None,None,1,1.5018723000539467,615.2563980999403,None,None,1,,,,,,,,,,,,,,028,2022-05-23_11h04.16.958,Main,2022.1.1,61.17498799652491,
negative,yellow,2,k,None,,,,,,,,,0,183,183,183,,,,,,,,,,,,,,,,,main,k,k,1,0.7851273999549448,617.7590534999035,None,None,0,,,,,,,,,,,,,,028,2022-05-23_11h04.16.958,Main,2022.1.1,61.17498799652491,
positive,yellow,2,None,k,,,,,,,,,0,184,184,184,,,,,,,,,,,,,,,,,main,None,None,1,1.494510699994862,619.5488956999034,None,None,1,,,,,,,,,,,,,,028,2022-05-23_11h04.16.958,Main,2022.1.1,61.17498799652491,
positive,yellow,1,None,k,,,,,,,,,0,185,185,185,,,,,,,,,,,,,,,,,main,None,None,1,1.5004832999547943,622.0395881999284,None,None,1,,,,,,,,,,,,,,028,2022-05-23_11h04.16.958,Main,2022.1.1,61.17498799652491,
positive,red,2,None,None,,,,,,,,,0,186,186,186,,,,,,,,,,,,,,,,,main,None,None,1,1.4972216000314802,624.5424880000064,None,None,1,,,,,,,,,,,,,,028,2022-05-23_11h04.16.958,Main,2022.1.1,61.17498799652491,
positive,blue,1,k,None,,,,,,,,,0,187,187,187,,,,,,,,,,,,,,,,,main,k,k,1,0.6981791000580415,627.039429299999,None,None,0,,,,,,,,,,,,,,028,2022-05-23_11h04.16.958,Main,2022.1.1,61.17498799652491,
negative,yellow,1,k,None,,,,,,,,,0,188,188,188,,,,,,,,,,,,,,,,,main,k,k,1,0.8349331000354141,628.7421345999464,None,None,0,,,,,,,,,,,,,,028,2022-05-23_11h04.16.958,Main,2022.1.1,61.17498799652491,
positive,yellow,2,None,k,,,,,,,,,0,189,189,189,,,,,,,,,,,,,,,,,main,None,None,1,1.4998880000784993,630.5755231999792,None,None,1,,,,,,,,,,,,,,028,2022-05-23_11h04.16.958,Main,2022.1.1,61.17498799652491,
negative,yellow,2,k,None,,,,,,,,,0,190,190,190,,,,,,,,,,,,,,,,,main,k,k,1,0.6455821000272408,633.0729511999525,None,None,0,,,,,,,,,,,,,,028,2022-05-23_11h04.16.958,Main,2022.1.1,61.17498799652491,
negative,yellow,1,k,None,,,,,,,,,0,191,191,191,,,,,,,,,,,,,,,,,main,k,k,1,0.6985589999239892,634.7229469999438,None,None,0,,,,,,,,,,,,,,028,2022-05-23_11h04.16.958,Main,2022.1.1,61.17498799652491,
positive,blue,2,k,None,,,,,,,,,0,192,192,192,,,,,,,,,,,,,,,,,main,k,k,1,0.7818396000657231,636.4226069999859,None,None,0,,,,,,,,,,,,,,028,2022-05-23_11h04.16.958,Main,2022.1.1,61.17498799652491,
positive,yellow,1,None,k,,,,,,,,,0,193,193,193,,,,,,,,,,,,,,,,,main,None,None,1,1.5014563000295311,638.2059515999863,None,None,1,,,,,,,,,,,,,,028,2022-05-23_11h04.16.958,Main,2022.1.1,61.17498799652491,
negative,red,2,None,None,,,,,,,,,0,194,194,194,,,,,,,,,,,,,,,,,main,None,None,1,1.4967739999992773,640.7086111999815,None,None,1,,,,,,,,,,,,,,028,2022-05-23_11h04.16.958,Main,2022.1.1,61.17498799652491,
positive,red,1,None,None,,,,,,,,,0,195,195,195,,,,,,,,,,,,,,,,,main,None,None,1,1.4990660999901593,643.2083633999573,None,None,1,,,,,,,,,,,,,,028,2022-05-23_11h04.16.958,Main,2022.1.1,61.17498799652491,
negative,blue,1,None,k,,,,,,,,,0,196,196,196,,,,,,,,,,,,,,,,,main,None,None,1,1.5014674999983981,645.7057620999403,None,None,1,,,,,,,,,,,,,,028,2022-05-23_11h04.16.958,Main,2022.1.1,61.17498799652491,
positive,blue,2,k,None,,,,,,,,,0,197,197,197,,,,,,,,,,,,,,,,,main,k,k,1,1.0993719000834972,648.2084763000021,None,None,0,,,,,,,,,,,,,,028,2022-05-23_11h04.16.958,Main,2022.1.1,61.17498799652491,
negative,blue,2,None,k,,,,,,,,,0,198,198,198,,,,,,,,,,,,,,,,,main,None,None,1,1.4968233000254259,650.3083910999121,None,None,1,,,,,,,,,,,,,,028,2022-05-23_11h04.16.958,Main,2022.1.1,61.17498799652491,
negative,blue,2,None,k,,,,,,,,,0,199,199,199,,,,,,,,,,,,,,,,,main,None,None,1,1.5010439000325277,652.8055857999716,None,None,1,,,,,,,,,,,,,,028,2022-05-23_11h04.16.958,Main,2022.1.1,61.17498799652491,
positive,blue,2,k,None,,,,,,,,,0,200,200,200,,,,,,,,,,,,,,,,,main,k,k,1,0.7138268999988213,655.3083130000159,None,None,0,,,,,,,,,,,,,,028,2022-05-23_11h04.16.958,Main,2022.1.1,61.17498799652491,
positive,blue,2,k,None,,,,,,,,,0,201,201,201,,,,,,,,,,,,,,,,,main,k,k,1,0.6486123000504449,657.0248969999375,None,None,0,,,,,,,,,,,,,,028,2022-05-23_11h04.16.958,Main,2022.1.1,61.17498799652491,
negative,yellow,2,k,None,,,,,,,,,0,202,202,202,,,,,,,,,,,,,,,,,main,k,k,1,0.7656396999955177,658.6749022000004,None,None,0,,,,,,,,,,,,,,028,2022-05-23_11h04.16.958,Main,2022.1.1,61.17498799652491,
positive,red,1,None,None,,,,,,,,,0,203,203,203,,,,,,,,,,,,,,,,,main,None,None,1,1.5017969999462366,660.4390205999371,None,None,1,,,,,,,,,,,,,,028,2022-05-23_11h04.16.958,Main,2022.1.1,61.17498799652491,
negative,blue,2,None,k,,,,,,,,,0,204,204,204,,,,,,,,,,,,,,,,,main,None,None,1,1.495911700068973,662.9414664999349,None,None,1,,,,,,,,,,,,,,028,2022-05-23_11h04.16.958,Main,2022.1.1,61.17498799652491,
negative,red,1,None,None,,,,,,,,,0,205,205,205,,,,,,,,,,,,,,,,,main,None,None,1,1.4994932999834418,665.4444935999345,None,None,1,,,,,,,,,,,,,,028,2022-05-23_11h04.16.958,Main,2022.1.1,61.17498799652491,
negative,blue,2,None,k,,,,,,,,,0,206,206,206,,,,,,,,,,,,,,,,,main,None,None,1,1.5014803999802098,667.9387115999125,None,None,1,,,,,,,,,,,,,,028,2022-05-23_11h04.16.958,Main,2022.1.1,61.17498799652491,
negative,yellow,2,k,None,,,,,,,,,0,207,207,207,,,,,,,,,,,,,,,,,main,k,k,1,0.7634380999952555,670.4413722999161,None,None,0,,,,,,,,,,,,,,028,2022-05-23_11h04.16.958,Main,2022.1.1,61.17498799652491,
positive,yellow,2,None,k,,,,,,,,,0,208,208,208,,,,,,,,,,,,,,,,,main,None,None,1,1.5016468000831082,672.2054540999234,None,None,1,,,,,,,,,,,,,,028,2022-05-23_11h04.16.958,Main,2022.1.1,61.17498799652491,
negative,yellow,1,k,None,,,,,,,,,0,209,209,209,,,,,,,,,,,,,,,,,main,k,k,1,0.7659062000457197,674.7081517999759,None,None,0,,,,,,,,,,,,,,028,2022-05-23_11h04.16.958,Main,2022.1.1,61.17498799652491,
negative,red,2,None,None,,,,,,,,,0,210,210,210,,,,,,,,,,,,,,,,,main,None,None,1,1.4978631000267342,676.4745913000079,None,None,1,,,,,,,,,,,,,,028,2022-05-23_11h04.16.958,Main,2022.1.1,61.17498799652491,
negative,blue,1,None,k,,,,,,,,,0,211,211,211,,,,,,,,,,,,,,,,,main,None,None,1,1.4994329999899492,678.9717691999394,None,None,1,,,,,,,,,,,,,,028,2022-05-23_11h04.16.958,Main,2022.1.1,61.17498799652491,
negative,yellow,1,k,None,,,,,,,,,0,212,212,212,,,,,,,,,,,,,,,,,main,k,k,1,0.7162099999841303,681.4744846000103,None,None,0,,,,,,,,,,,,,,028,2022-05-23_11h04.16.958,Main,2022.1.1,61.17498799652491,
positive,blue,1,k,None,,,,,,,,,0,213,213,213,,,,,,,,,,,,,,,,,main,k,k,1,0.7128937999950722,683.1911117999116,None,None,0,,,,,,,,,,,,,,028,2022-05-23_11h04.16.958,Main,2022.1.1,61.17498799652491,
positive,blue,1,k,None,,,,,,,,,0,214,214,214,,,,,,,,,,,,,,,,,main,k,k,1,0.6663377999793738,684.9049570999341,None,None,0,,,,,,,,,,,,,,028,2022-05-23_11h04.16.958,Main,2022.1.1,61.17498799652491,
positive,yellow,1,None,k,,,,,,,,,0,215,215,215,,,,,,,,,,,,,,,,,main,None,None,1,1.5011876000789925,686.5743933999911,None,None,1,,,,,,,,,,,,,,028,2022-05-23_11h04.16.958,Main,2022.1.1,61.17498799652491,
positive,yellow,1,None,k,,,,,,,,,0,216,216,216,,,,,,,,,,,,,,,,,main,None,None,1,1.4970009999815375,689.0743047000142,None,None,1,,,,,,,,,,,,,,028,2022-05-23_11h04.16.958,Main,2022.1.1,61.17498799652491,
positive,yellow,2,None,k,,,,,,,,,0,217,217,217,,,,,,,,,,,,,,,,,main,None,None,1,1.5004477000329643,691.5715201999992,None,None,1,,,,,,,,,,,,,,028,2022-05-23_11h04.16.958,Main,2022.1.1,61.17498799652491,
negative,blue,1,None,k,,,,,,,,,0,218,218,218,,,,,,,,,,,,,,,,,main,None,None,1,1.496756299980916,694.0741995999124,None,None,1,,,,,,,,,,,,,,028,2022-05-23_11h04.16.958,Main,2022.1.1,61.17498799652491,
positive,red,2,None,None,,,,,,,,,0,219,219,219,,,,,,,,,,,,,,,,,main,None,None,1,1.4995470999274403,696.5717015999835,None,None,1,,,,,,,,,,,,,,028,2022-05-23_11h04.16.958,Main,2022.1.1,61.17498799652491,
positive,yellow,1,None,k,,,,,,,,,0,220,220,220,,,,,,,,,,,,,,,,,main,None,None,1,1.499195000040345,699.071370099904,None,None,1,,,,,,,,,,,,,,028,2022-05-23_11h04.16.958,Main,2022.1.1,61.17498799652491,
positive,blue,1,k,None,,,,,,,,,0,221,221,221,,,,,,,,,,,,,,,,,main,k,k,1,0.7672671999316663,701.5713892999338,None,None,0,,,,,,,,,,,,,,028,2022-05-23_11h04.16.958,Main,2022.1.1,61.17498799652491,
positive,yellow,2,None,k,,,,,,,,,0,222,222,222,,,,,,,,,,,,,,,,,main,None,None,1,1.4964102000230923,703.3407035999699,None,None,1,,,,,,,,,,,,,,028,2022-05-23_11h04.16.958,Main,2022.1.1,61.17498799652491,
negative,yellow,1,k,None,,,,,,,,,0,223,223,223,,,,,,,,,,,,,,,,,main,k,k,1,0.6851018000161275,705.8381922999397,None,None,0,,,,,,,,,,,,,,028,2022-05-23_11h04.16.958,Main,2022.1.1,61.17498799652491,
positive,yellow,2,None,k,,,,,,,,,0,224,224,224,,,,,,,,,,,,,,,,,main,None,None,1,1.4965602000011131,707.5214980999008,None,None,1,,,,,,,,,,,,,,028,2022-05-23_11h04.16.958,Main,2022.1.1,61.17498799652491,
negative,yellow,2,k,None,,,,,,,,,0,225,225,225,,,,,,,,,,,,,,,,,main,k,k,1,0.6682709000306204,710.0212155999616,None,None,0,,,,,,,,,,,,,,028,2022-05-23_11h04.16.958,Main,2022.1.1,61.17498799652491,
negative,blue,2,None,k,,,,,,,,,0,226,226,226,,,,,,,,,,,,,,,,,main,None,None,1,1.496054199989885,711.6905394999776,None,None,1,,,,,,,,,,,,,,028,2022-05-23_11h04.16.958,Main,2022.1.1,61.17498799652491,
positive,red,2,None,None,,,,,,,,,0,227,227,227,,,,,,,,,,,,,,,,,main,None,None,1,1.501884000026621,714.1879593000049,None,None,1,,,,,,,,,,,,,,028,2022-05-23_11h04.16.958,Main,2022.1.1,61.17498799652491,
positive,blue,2,k,None,,,,,,,,,0,228,228,228,,,,,,,,,,,,,,,,,main,k,k,1,1.0493217000039294,716.6905505999457,None,None,0,,,,,,,,,,,,,,028,2022-05-23_11h04.16.958,Main,2022.1.1,61.17498799652491,
negative,blue,1,None,k,,,,,,,,,0,229,229,229,,,,,,,,,,,,,,,,,main,None,None,1,1.4962689999956638,718.7403795999708,None,None,1,,,,,,,,,,,,,,028,2022-05-23_11h04.16.958,Main,2022.1.1,61.17498799652491,
positive,yellow,1,None,k,,,,,,,,,0,230,230,230,,,,,,,,,,,,,,,,,main,None,None,1,1.4997181999497116,721.2379048999865,None,None,1,,,,,,,,,,,,,,028,2022-05-23_11h04.16.958,Main,2022.1.1,61.17498799652491,
negative,blue,2,None,k,,,,,,,,,0,231,231,231,,,,,,,,,,,,,,,,,main,None,None,1,1.500582700013183,723.7377032999648,None,None,1,,,,,,,,,,,,,,028,2022-05-23_11h04.16.958,Main,2022.1.1,61.17498799652491,
negative,red,1,None,None,,,,,,,,,0,232,232,232,,,,,,,,,,,,,,,,,main,None,None,1,1.497342300019227,726.240239399951,None,None,1,,,,,,,,,,,,,,028,2022-05-23_11h04.16.958,Main,2022.1.1,61.17498799652491,
positive,blue,2,k,None,,,,,,,,,0,233,233,233,,,,,,,,,,,,,,,,,main,k,k,1,0.714933600043878,728.7374388999306,None,None,0,,,,,,,,,,,,,,028,2022-05-23_11h04.16.958,Main,2022.1.1,61.17498799652491,
negative,yellow,1,k,None,,,,,,,,,0,234,234,234,,,,,,,,,,,,,,,,,main,k,k,1,0.6851751999929547,730.4541525999084,None,None,0,,,,,,,,,,,,,,028,2022-05-23_11h04.16.958,Main,2022.1.1,61.17498799652491,
negative,yellow,2,k,None,,,,,,,,,0,235,235,235,,,,,,,,,,,,,,,,,main,k,k,1,0.7324467999860644,732.1401740999427,None,None,0,,,,,,,,,,,,,,028,2022-05-23_11h04.16.958,Main,2022.1.1,61.17498799652491,
positive,red,1,None,None,,,,,,,,,0,236,236,236,,,,,,,,,,,,,,,,,main,None,None,1,1.4969760000240058,733.873437399976,None,None,1,,,,,,,,,,,,,,028,2022-05-23_11h04.16.958,Main,2022.1.1,61.17498799652491,
negative,red,2,None,None,,,,,,,,,0,237,237,237,,,,,,,,,,,,,,,,,main,None,None,1,1.4984447999158874,736.3706393999746,None,None,1,,,,,,,,,,,,,,028,2022-05-23_11h04.16.958,Main,2022.1.1,61.17498799652491,
negative,blue,1,None,k,,,,,,,,,0,238,238,238,,,,,,,,,,,,,,,,,main,None,None,1,1.5010395999997854,738.8733630999923,None,None,1,,,,,,,,,,,,,,028,2022-05-23_11h04.16.958,Main,2022.1.1,61.17498799652491,
positive,blue,1,k,None,,,,,,,,,0,239,239,239,,,,,,,,,,,,,,,,,main,k,k,1,0.6847301999805495,741.3708250999916,None,None,0,,,,,,,,,,,,,,028,2022-05-23_11h04.16.958,Main,2022.1.1,61.17498799652491,
,,,,,,,,,,,,,,,,,,,,,,,,,,,,,,,,,,,,,,,,,,,,,,,,,,,,,743.0600310999434,None,,,,,,
