distractor,target,set,ans1,ans2,rep_loop4.thisRepN,rep_loop4.thisTrialN,rep_loop4.thisN,rep_loop4.thisIndex,st2_prac_loop.thisRepN,st2_prac_loop.thisTrialN,st2_prac_loop.thisN,st2_prac_loop.thisIndex,st2_main_loop.thisRepN,st2_main_loop.thisTrialN,st2_main_loop.thisN,st2_main_loop.thisIndex,image_4.started,image_4.stopped,sound_2.started,sound_2.stopped,key_resp_3.keys,key_resp_3.rt,image_5.started,image_5.stopped,st_prac_back.started,st_prac_back.stopped,st_prac_text.started,st_prac_text.stopped,st_fix_back.started,st_fix_back.stopped,st_fix_2.started,st_fix_2.stopped,main_prac,st_ans,st_res,st_corr,st_rt,st_back.started,st_back.stopped,st2_resp.keys,st2_resp.corr,st_main_back.started,st_main_back.stopped,st_main_text.started,st_main_text.stopped,mouse_4.x,mouse_4.y,mouse_4.leftButton,mouse_4.midButton,mouse_4.rightButton,mouse_4.started,mouse_4.stopped,text_2.started,text_2.stopped,id*,date,expName,psychopyVersion,frameRate,
negative,yellow,1,k,None,,,,,0,0,0,0,,,,,29.83930670004338,None,35.28259031999623,None,space,66.83965259999968,102.14814780000597,None,103.33107710001059,None,103.33107710001059,None,105.33104229997844,None,105.33104229997844,None,prac,None,None,1,1.48692779999692,107.35035780002363,None,None,1,,,,,,,,,,,,,,029,2022-05-25_19h47.23.276,Main,2022.1.1,58.974886690683974,
positive,red,2,None,None,,,,,0,1,1,1,,,,,,,,,,,,,,,,,,,,,prac,None,None,1,1.4990578000433743,109.84798009996302,None,None,1,,,,,,,,,,,,,,029,2022-05-25_19h47.23.276,Main,2022.1.1,58.974886690683974,
negative,blue,2,None,k,,,,,0,2,2,2,,,,,,,,,,,,,,,,,,,,,prac,k,k,1,0.6633022000314668,112.34832510002889,None,None,0,,,,,,,,,,,,,,029,2022-05-25_19h47.23.276,Main,2022.1.1,58.974886690683974,
positive,yellow,1,None,k,,,,,0,3,3,3,,,,,,,,,,,,,,,,,,,,,prac,k,k,1,0.8495435999939218,114.01137960003689,None,None,0,,,,,,,,,,,,,,029,2022-05-25_19h47.23.276,Main,2022.1.1,58.974886690683974,
negative,blue,2,None,k,,,,,0,4,4,4,,,,,,,,,,,,,,,,,,,,,prac,k,k,1,0.9012942999834195,115.8641912000021,None,None,0,,,,,,,,,,,,,,029,2022-05-25_19h47.23.276,Main,2022.1.1,58.974886690683974,
negative,blue,1,None,k,,,,,0,5,5,5,,,,,,,,,,,,,,,,,,,,,prac,k,k,1,1.4799157000379637,117.76408580003772,None,None,0,,,,,,,,,,,,,,029,2022-05-25_19h47.23.276,Main,2022.1.1,58.974886690683974,
negative,yellow,2,k,None,,,,,0,6,6,6,,,,,,,,,,,,,,,,,,,,,prac,None,None,1,1.499427599948831,120.24723390000872,None,None,1,,,,,,,,,,,,,,029,2022-05-25_19h47.23.276,Main,2022.1.1,58.974886690683974,
negative,red,1,None,None,,,,,0,7,7,7,,,,,,,,,,,,,,,,,,,,,prac,None,None,1,1.5004444000078365,122.7612564000301,None,None,1,,,,,,,,,,,,,,029,2022-05-25_19h47.23.276,Main,2022.1.1,58.974886690683974,
positive,yellow,2,None,k,,,,,0,8,8,8,,,,,,,,,,,,,,,,,,,,,prac,k,k,1,0.6995802000164986,125.24791150004603,None,None,0,,,,,,,,,,,,,,029,2022-05-25_19h47.23.276,Main,2022.1.1,58.974886690683974,
negative,yellow,1,k,None,,,,,0,9,9,9,,,,,,,,,,,,,,,,,,,,,prac,None,None,1,1.496868300018832,126.94722540001385,None,None,1,,,,,,,,,,,,,,029,2022-05-25_19h47.23.276,Main,2022.1.1,58.974886690683974,
positive,yellow,2,None,k,,,,,0,10,10,10,,,,,,,,,,,,,,,,,,,,,prac,k,k,1,0.98409239994362,129.44446200004313,None,None,0,,,,,,,,,,,,,,029,2022-05-25_19h47.23.276,Main,2022.1.1,58.974886690683974,
negative,yellow,2,k,None,,,,,0,11,11,11,,,,,,,,,,,,,,,,,,,,,prac,None,None,1,1.4968198999995366,131.43045889993664,None,None,1,,,,,,,,,,,,,,029,2022-05-25_19h47.23.276,Main,2022.1.1,58.974886690683974,
negative,red,2,None,None,,,,,0,12,12,12,,,,,,,,,,,,,,,,,,,,,prac,None,None,1,1.5003867000341415,133.9276313999435,None,None,1,,,,,,,,,,,,,,029,2022-05-25_19h47.23.276,Main,2022.1.1,58.974886690683974,
positive,red,1,None,None,,,,,0,13,13,13,,,,,,,,,,,,,,,,,,,,,prac,None,None,1,1.499050399987027,136.42977499996778,None,None,1,,,,,,,,,,,,,,029,2022-05-25_19h47.23.276,Main,2022.1.1,58.974886690683974,
positive,blue,2,k,None,,,,,0,14,14,14,,,,,,,,,,,,,,,,,,,,,prac,None,None,1,1.4973044000798836,138.9303320000181,None,None,1,,,,,,,,,,,,,,029,2022-05-25_19h47.23.276,Main,2022.1.1,58.974886690683974,
positive,blue,1,k,None,,,,,0,15,15,15,,,,,,,,,,,,,,,,,,,,,prac,None,None,1,1.5006494000554085,141.4275489000138,None,None,1,,,,,,,,,,,,,,029,2022-05-25_19h47.23.276,Main,2022.1.1,58.974886690683974,
negative,blue,1,None,k,,,,,0,16,16,16,,,,,,,,,,,,,,,,,,,,,prac,k,k,1,2.030230399919674,143.9301875999663,None,None,0,,,,,,,,,,,,,,029,2022-05-25_19h47.23.276,Main,2022.1.1,58.974886690683974,
positive,blue,2,k,None,,,,,0,17,17,17,,,,,,,,,,,,,,,,,,,,,prac,None,None,1,1.4866776999551803,147.97741619998123,None,None,1,,,,,,,,,,,,,,029,2022-05-25_19h47.23.276,Main,2022.1.1,58.974886690683974,
positive,blue,1,k,None,,,,,0,18,18,18,,,,,,,,,,,,,,,,,,,,,prac,None,None,1,1.4987446001032367,150.46338289999403,None,None,1,,,,,,,,,,,,,,029,2022-05-25_19h47.23.276,Main,2022.1.1,58.974886690683974,
positive,yellow,1,None,k,,,,,0,19,19,19,,,,,,,,,,,,,,,,,,,,,prac,k,k,1,0.5793320999946445,152.96332640002947,None,None,0,,,,,,,,,,,,,,029,2022-05-25_19h47.23.276,Main,2022.1.1,58.974886690683974,
negative,yellow,1,k,None,,,,,1,0,20,0,,,,,,,,,,,,,,,,,,,,,prac,None,None,1,1.498654399998486,154.54648759996053,None,None,1,,,,,,,,,,,,,,029,2022-05-25_19h47.23.276,Main,2022.1.1,58.974886690683974,
positive,red,2,None,None,,,,,1,1,21,1,,,,,,,,,,,,,,,,,,,,,prac,None,None,1,1.5005928000900894,157.04941630002577,None,None,1,,,,,,,,,,,,,,029,2022-05-25_19h47.23.276,Main,2022.1.1,58.974886690683974,
negative,blue,2,None,k,,,,,1,2,22,2,,,,,,,,,,,,,,,,,,,,,prac,k,k,1,0.5474293999141082,159.54382919997443,None,None,0,,,,,,,,,,,,,,029,2022-05-25_19h47.23.276,Main,2022.1.1,58.974886690683974,
positive,yellow,1,None,k,,,,,1,3,23,3,,,,,,,,,,,,,,,,,,,,,prac,k,k,1,0.8515058000339195,161.0964955999516,None,None,0,,,,,,,,,,,,,,029,2022-05-25_19h47.23.276,Main,2022.1.1,58.974886690683974,
negative,blue,2,None,k,,,,,1,4,24,4,,,,,,,,,,,,,,,,,,,,,prac,k,k,1,0.8629972001072019,162.94647460000124,None,None,0,,,,,,,,,,,,,,029,2022-05-25_19h47.23.276,Main,2022.1.1,58.974886690683974,
negative,blue,1,None,k,,,,,1,5,25,5,,,,,,,,,,,,,,,,,,,,,prac,k,k,1,1.0685531999915838,164.81031960004475,None,None,0,,,,,,,,,,,,,,029,2022-05-25_19h47.23.276,Main,2022.1.1,58.974886690683974,
negative,yellow,2,k,None,,,,,1,6,26,6,,,,,,,,,,,,,,,,,,,,,prac,None,None,1,1.4987242000643164,166.87972029997036,None,None,1,,,,,,,,,,,,,,029,2022-05-25_19h47.23.276,Main,2022.1.1,58.974886690683974,
negative,red,1,None,None,,,,,1,7,27,7,,,,,,,,,,,,,,,,,,,,,prac,None,None,1,1.4973951999563724,169.37965919997077,None,None,1,,,,,,,,,,,,,,029,2022-05-25_19h47.23.276,Main,2022.1.1,58.974886690683974,
positive,yellow,2,None,k,,,,,1,8,28,8,,,,,,,,,,,,,,,,,,,,,prac,k,k,1,0.9984253000002354,171.87691220000852,None,None,0,,,,,,,,,,,,,,029,2022-05-25_19h47.23.276,Main,2022.1.1,58.974886690683974,
negative,yellow,1,k,None,,,,,1,9,29,9,,,,,,,,,,,,,,,,,,,,,prac,None,None,1,1.4986973999766633,173.87957800005097,None,None,1,,,,,,,,,,,,,,029,2022-05-25_19h47.23.276,Main,2022.1.1,58.974886690683974,
positive,yellow,2,None,k,,,,,1,10,30,10,,,,,,,,,,,,,,,,,,,,,prac,k,k,1,1.399857300100848,176.3793601000216,None,None,0,,,,,,,,,,,,,,029,2022-05-25_19h47.23.276,Main,2022.1.1,58.974886690683974,
negative,yellow,2,k,None,,,,,1,11,31,11,,,,,,,,,,,,,,,,,,,,,prac,None,None,1,1.5005217998987064,178.7767096000025,None,None,1,,,,,,,,,,,,,,029,2022-05-25_19h47.23.276,Main,2022.1.1,58.974886690683974,
negative,red,2,None,None,,,,,1,12,32,12,,,,,,,,,,,,,,,,,,,,,prac,None,None,1,1.4991791000356898,181.27944680000655,None,None,1,,,,,,,,,,,,,,029,2022-05-25_19h47.23.276,Main,2022.1.1,58.974886690683974,
positive,red,1,None,None,,,,,1,13,33,13,,,,,,,,,,,,,,,,,,,,,prac,None,None,1,1.4971853999886662,183.7793537999969,None,None,1,,,,,,,,,,,,,,029,2022-05-25_19h47.23.276,Main,2022.1.1,58.974886690683974,
positive,blue,2,k,None,,,,,1,14,34,14,,,,,,,,,,,,,,,,,,,,,prac,None,k,0,0.6815622000722215,186.2765341999475,None,None,1,,,,,,,,,,,,,,029,2022-05-25_19h47.23.276,Main,2022.1.1,58.974886690683974,
positive,blue,1,k,None,,,,,1,15,35,15,,,,,,,,,,,,,,,,,,,,,prac,None,None,1,1.4983150999760255,188.96258079994004,None,None,1,,,,,,,,,,,,,,029,2022-05-25_19h47.23.276,Main,2022.1.1,58.974886690683974,
negative,blue,1,None,k,,,,,1,16,36,16,,,,,,,,,,,,,,,,,,,,,prac,k,k,1,0.7825101000489667,191.46005390002392,None,None,0,,,,,,,,,,,,,,029,2022-05-25_19h47.23.276,Main,2022.1.1,58.974886690683974,
positive,blue,2,k,None,,,,,1,17,37,17,,,,,,,,,,,,,,,,,,,,,prac,None,None,1,1.499323199968785,193.24565850000363,None,None,1,,,,,,,,,,,,,,029,2022-05-25_19h47.23.276,Main,2022.1.1,58.974886690683974,
positive,blue,1,k,None,,,,,1,18,38,18,,,,,,,,,,,,,,,,,,,,,prac,None,None,1,1.500675900024362,195.74300260003656,None,None,1,,,,,,,,,,,,,,029,2022-05-25_19h47.23.276,Main,2022.1.1,58.974886690683974,
positive,yellow,1,None,k,,,,,1,19,39,19,,,,,,,,,,,,,,,,,,,,,prac,k,k,1,0.7324816000182182,198.2433449999662,None,None,0,,,,,,,,,,,,,,029,2022-05-25_19h47.23.276,Main,2022.1.1,58.974886690683974,
,,,,,,,,,,,,,,,,,,,,,,,,,,,,,,,,,,,,,,,,,,199.97900890000165,None,199.97900890000165,None,0.14629629,0.02037037,0,0,0,0.013495519990101457,None,,,029,2022-05-25_19h47.23.276,Main,2022.1.1,58.974886690683974,
negative,yellow,2,k,None,,,,,,,,,0,0,0,0,,,,,,,,,,,,,201.40962699998636,None,201.40962699998636,None,main,None,None,1,1.5053105000406504,203.44820939993951,None,None,1,,,,,,,,,,,,,,029,2022-05-25_19h47.23.276,Main,2022.1.1,58.974886690683974,
positive,red,1,None,None,,,,,,,,,0,1,1,1,,,,,,,,,,,,,,,,,main,None,None,1,1.4995533999754116,205.96221080003306,None,None,1,,,,,,,,,,,,,,029,2022-05-25_19h47.23.276,Main,2022.1.1,58.974886690683974,
positive,blue,2,k,None,,,,,,,,,0,2,2,2,,,,,,,,,,,,,,,,,main,None,None,1,1.4961105999536812,208.4596766999457,None,None,1,,,,,,,,,,,,,,029,2022-05-25_19h47.23.276,Main,2022.1.1,58.974886690683974,
positive,blue,1,k,None,,,,,,,,,0,3,3,3,,,,,,,,,,,,,,,,,main,None,None,1,1.5006150000263005,210.9593934000004,None,None,1,,,,,,,,,,,,,,029,2022-05-25_19h47.23.276,Main,2022.1.1,58.974886690683974,
negative,yellow,2,k,None,,,,,,,,,0,4,4,4,,,,,,,,,,,,,,,,,main,None,None,1,1.4990312000736594,213.46205870003905,None,None,1,,,,,,,,,,,,,,029,2022-05-25_19h47.23.276,Main,2022.1.1,58.974886690683974,
positive,yellow,2,None,k,,,,,,,,,0,5,5,5,,,,,,,,,,,,,,,,,main,k,k,1,0.9131976999342442,215.9594500999665,None,None,0,,,,,,,,,,,,,,029,2022-05-25_19h47.23.276,Main,2022.1.1,58.974886690683974,
negative,blue,2,None,k,,,,,,,,,0,6,6,6,,,,,,,,,,,,,,,,,main,k,k,1,0.7684390000067651,217.87586839997675,None,None,0,,,,,,,,,,,,,,029,2022-05-25_19h47.23.276,Main,2022.1.1,58.974886690683974,
positive,red,2,None,None,,,,,,,,,0,7,7,7,,,,,,,,,,,,,,,,,main,None,None,1,1.4988454000558704,219.64525870000944,None,None,1,,,,,,,,,,,,,,029,2022-05-25_19h47.23.276,Main,2022.1.1,58.974886690683974,
positive,yellow,1,None,k,,,,,,,,,0,8,8,8,,,,,,,,,,,,,,,,,main,k,k,1,0.5963605999713764,222.14518450002652,None,None,0,,,,,,,,,,,,,,029,2022-05-25_19h47.23.276,Main,2022.1.1,58.974886690683974,
negative,red,1,None,None,,,,,,,,,0,9,9,9,,,,,,,,,,,,,,,,,main,None,None,1,1.500961699988693,223.74240580003243,None,None,1,,,,,,,,,,,,,,029,2022-05-25_19h47.23.276,Main,2022.1.1,58.974886690683974,
positive,yellow,1,None,k,,,,,,,,,0,10,10,10,,,,,,,,,,,,,,,,,main,k,k,1,0.7318409000290558,226.24509059998672,None,None,0,,,,,,,,,,,,,,029,2022-05-25_19h47.23.276,Main,2022.1.1,58.974886690683974,
negative,yellow,1,k,None,,,,,,,,,0,11,11,11,,,,,,,,,,,,,,,,,main,None,None,1,1.496925999992527,227.97842850000598,None,None,1,,,,,,,,,,,,,,029,2022-05-25_19h47.23.276,Main,2022.1.1,58.974886690683974,
negative,yellow,1,k,None,,,,,,,,,0,12,12,12,,,,,,,,,,,,,,,,,main,None,None,1,1.5003812999930233,230.47566050000023,None,None,1,,,,,,,,,,,,,,029,2022-05-25_19h47.23.276,Main,2022.1.1,58.974886690683974,
negative,red,2,None,None,,,,,,,,,0,13,13,13,,,,,,,,,,,,,,,,,main,None,None,1,1.4971740000182763,232.9783252000343,None,None,1,,,,,,,,,,,,,,029,2022-05-25_19h47.23.276,Main,2022.1.1,58.974886690683974,
positive,yellow,2,None,k,,,,,,,,,0,14,14,14,,,,,,,,,,,,,,,,,main,k,k,1,0.8341516000218689,235.47551300004125,None,None,0,,,,,,,,,,,,,,029,2022-05-25_19h47.23.276,Main,2022.1.1,58.974886690683974,
positive,blue,1,k,None,,,,,,,,,0,15,15,15,,,,,,,,,,,,,,,,,main,None,None,1,1.4988971001002938,237.30897470004857,None,None,1,,,,,,,,,,,,,,029,2022-05-25_19h47.23.276,Main,2022.1.1,58.974886690683974,
negative,blue,1,None,k,,,,,,,,,0,16,16,16,,,,,,,,,,,,,,,,,main,k,k,1,0.5633997999830171,239.81154549994972,None,None,0,,,,,,,,,,,,,,029,2022-05-25_19h47.23.276,Main,2022.1.1,58.974886690683974,
positive,blue,2,k,None,,,,,,,,,0,17,17,17,,,,,,,,,,,,,,,,,main,None,None,1,1.4996749000856653,241.375693900045,None,None,1,,,,,,,,,,,,,,029,2022-05-25_19h47.23.276,Main,2022.1.1,58.974886690683974,
negative,blue,2,None,k,,,,,,,,,0,18,18,18,,,,,,,,,,,,,,,,,main,k,k,1,0.7648083999520168,243.8753255000338,None,None,0,,,,,,,,,,,,,,029,2022-05-25_19h47.23.276,Main,2022.1.1,58.974886690683974,
negative,blue,1,None,k,,,,,,,,,0,19,19,19,,,,,,,,,,,,,,,,,main,k,k,1,1.3184421999612823,245.64202090003528,None,None,0,,,,,,,,,,,,,,029,2022-05-25_19h47.23.276,Main,2022.1.1,58.974886690683974,
negative,blue,1,None,k,,,,,,,,,0,20,20,20,,,,,,,,,,,,,,,,,main,k,k,1,1.1154156000120565,247.96132450003643,None,None,0,,,,,,,,,,,,,,029,2022-05-25_19h47.23.276,Main,2022.1.1,58.974886690683974,
negative,blue,2,None,k,,,,,,,,,0,21,21,21,,,,,,,,,,,,,,,,,main,k,k,1,0.6632690998958424,250.07548330002464,None,None,0,,,,,,,,,,,,,,029,2022-05-25_19h47.23.276,Main,2022.1.1,58.974886690683974,
negative,red,1,None,None,,,,,,,,,0,22,22,22,,,,,,,,,,,,,,,,,main,None,None,1,1.5017237000865862,251.74183419998735,None,None,1,,,,,,,,,,,,,,029,2022-05-25_19h47.23.276,Main,2022.1.1,58.974886690683974,
positive,red,2,None,None,,,,,,,,,0,23,23,23,,,,,,,,,,,,,,,,,main,None,None,1,1.4989709000801668,254.2445237999782,None,None,1,,,,,,,,,,,,,,029,2022-05-25_19h47.23.276,Main,2022.1.1,58.974886690683974,
negative,red,2,None,None,,,,,,,,,0,24,24,24,,,,,,,,,,,,,,,,,main,None,None,1,1.4990100000286475,256.7444664000068,None,None,1,,,,,,,,,,,,,,029,2022-05-25_19h47.23.276,Main,2022.1.1,58.974886690683974,
positive,blue,2,k,None,,,,,,,,,0,25,25,25,,,,,,,,,,,,,,,,,main,None,None,1,1.4981591999530792,259.24433919996955,None,None,1,,,,,,,,,,,,,,029,2022-05-25_19h47.23.276,Main,2022.1.1,58.974886690683974,
negative,yellow,1,k,None,,,,,,,,,0,26,26,26,,,,,,,,,,,,,,,,,main,None,None,1,1.499711100012064,261.741610600031,None,None,1,,,,,,,,,,,,,,029,2022-05-25_19h47.23.276,Main,2022.1.1,58.974886690683974,
positive,blue,2,k,None,,,,,,,,,0,27,27,27,,,,,,,,,,,,,,,,,main,None,None,1,1.496597999939695,264.24432239995804,None,None,1,,,,,,,,,,,,,,029,2022-05-25_19h47.23.276,Main,2022.1.1,58.974886690683974,
negative,blue,2,None,k,,,,,,,,,0,28,28,28,,,,,,,,,,,,,,,,,main,k,k,1,0.7042527000885457,266.74181070004124,None,None,0,,,,,,,,,,,,,,029,2022-05-25_19h47.23.276,Main,2022.1.1,58.974886690683974,
positive,red,1,None,None,,,,,,,,,0,29,29,29,,,,,,,,,,,,,,,,,main,None,None,1,1.4945778999244794,268.4503134000115,None,None,1,,,,,,,,,,,,,,029,2022-05-25_19h47.23.276,Main,2022.1.1,58.974886690683974,
positive,blue,1,k,None,,,,,,,,,0,30,30,30,,,,,,,,,,,,,,,,,main,None,None,1,1.5005284000653774,270.9414816000499,None,None,1,,,,,,,,,,,,,,029,2022-05-25_19h47.23.276,Main,2022.1.1,58.974886690683974,
positive,yellow,1,None,k,,,,,,,,,0,31,31,31,,,,,,,,,,,,,,,,,main,k,k,1,0.6631598999956623,273.4441316999728,None,None,0,,,,,,,,,,,,,,029,2022-05-25_19h47.23.276,Main,2022.1.1,58.974886690683974,
negative,yellow,2,k,None,,,,,,,,,0,32,32,32,,,,,,,,,,,,,,,,,main,None,None,1,1.5025376999983564,275.10800100001507,None,None,1,,,,,,,,,,,,,,029,2022-05-25_19h47.23.276,Main,2022.1.1,58.974886690683974,
negative,blue,1,None,k,,,,,,,,,0,33,33,33,,,,,,,,,,,,,,,,,main,k,k,1,0.881454800022766,277.61070419999305,None,None,0,,,,,,,,,,,,,,029,2022-05-25_19h47.23.276,Main,2022.1.1,58.974886690683974,
positive,blue,1,k,None,,,,,,,,,0,34,34,34,,,,,,,,,,,,,,,,,main,None,None,1,1.4962029000744224,279.4940082000103,None,None,1,,,,,,,,,,,,,,029,2022-05-25_19h47.23.276,Main,2022.1.1,58.974886690683974,
negative,yellow,1,k,None,,,,,,,,,0,35,35,35,,,,,,,,,,,,,,,,,main,None,None,1,1.4997282000258565,281.99707339995075,None,None,1,,,,,,,,,,,,,,029,2022-05-25_19h47.23.276,Main,2022.1.1,58.974886690683974,
positive,yellow,2,None,k,,,,,,,,,0,36,36,36,,,,,,,,,,,,,,,,,main,k,k,1,0.6151290000416338,284.4912180999527,None,None,0,,,,,,,,,,,,,,029,2022-05-25_19h47.23.276,Main,2022.1.1,58.974886690683974,
positive,yellow,2,None,k,,,,,,,,,0,37,37,37,,,,,,,,,,,,,,,,,main,k,k,1,0.665906099951826,286.1078274999745,None,None,0,,,,,,,,,,,,,,029,2022-05-25_19h47.23.276,Main,2022.1.1,58.974886690683974,
negative,yellow,2,k,None,,,,,,,,,0,38,38,38,,,,,,,,,,,,,,,,,main,None,None,1,1.5012169000692666,287.7771811999846,None,None,1,,,,,,,,,,,,,,029,2022-05-25_19h47.23.276,Main,2022.1.1,58.974886690683974,
positive,yellow,1,None,k,,,,,,,,,0,39,39,39,,,,,,,,,,,,,,,,,main,k,k,1,0.6301459999522194,290.27714569994714,None,None,0,,,,,,,,,,,,,,029,2022-05-25_19h47.23.276,Main,2022.1.1,58.974886690683974,
negative,yellow,2,k,None,,,,,,,,,0,40,40,40,,,,,,,,,,,,,,,,,main,None,None,1,1.4995003000367433,291.90792999998666,None,None,1,,,,,,,,,,,,,,029,2022-05-25_19h47.23.276,Main,2022.1.1,58.974886690683974,
positive,blue,2,k,None,,,,,,,,,0,41,41,41,,,,,,,,,,,,,,,,,main,None,None,1,1.5005721999332309,294.4076545999851,None,None,1,,,,,,,,,,,,,,029,2022-05-25_19h47.23.276,Main,2022.1.1,58.974886690683974,
positive,blue,2,k,None,,,,,,,,,0,42,42,42,,,,,,,,,,,,,,,,,main,None,None,1,1.502030499977991,296.9103090999415,None,None,1,,,,,,,,,,,,,,029,2022-05-25_19h47.23.276,Main,2022.1.1,58.974886690683974,
negative,blue,2,None,k,,,,,,,,,0,43,43,43,,,,,,,,,,,,,,,,,main,k,k,1,0.5935678000096232,299.4113607000327,None,None,0,,,,,,,,,,,,,,029,2022-05-25_19h47.23.276,Main,2022.1.1,58.974886690683974,
negative,red,1,None,None,,,,,,,,,0,44,44,44,,,,,,,,,,,,,,,,,main,None,None,1,1.5007923999801278,301.00747209996916,None,None,1,,,,,,,,,,,,,,029,2022-05-25_19h47.23.276,Main,2022.1.1,58.974886690683974,
negative,yellow,1,k,None,,,,,,,,,0,45,45,45,,,,,,,,,,,,,,,,,main,None,None,1,1.495368400006555,303.5101813999936,None,None,1,,,,,,,,,,,,,,029,2022-05-25_19h47.23.276,Main,2022.1.1,58.974886690683974,
negative,yellow,1,k,None,,,,,,,,,0,46,46,46,,,,,,,,,,,,,,,,,main,None,None,1,1.501059899921529,306.00736940000206,None,None,1,,,,,,,,,,,,,,029,2022-05-25_19h47.23.276,Main,2022.1.1,58.974886690683974,
positive,red,1,None,None,,,,,,,,,0,47,47,47,,,,,,,,,,,,,,,,,main,None,None,1,1.498598299920559,308.51015149999876,None,None,1,,,,,,,,,,,,,,029,2022-05-25_19h47.23.276,Main,2022.1.1,58.974886690683974,
positive,yellow,1,None,k,,,,,,,,,0,48,48,48,,,,,,,,,,,,,,,,,main,k,k,1,0.5957607999444008,311.01000739994925,None,None,0,,,,,,,,,,,,,,029,2022-05-25_19h47.23.276,Main,2022.1.1,58.974886690683974,
negative,blue,1,None,k,,,,,,,,,0,49,49,49,,,,,,,,,,,,,,,,,main,k,k,1,0.7852420000126585,312.6072279999498,None,None,0,,,,,,,,,,,,,,029,2022-05-25_19h47.23.276,Main,2022.1.1,58.974886690683974,
positive,yellow,2,None,k,,,,,,,,,0,50,50,50,,,,,,,,,,,,,,,,,main,k,k,1,0.7657348000211641,314.3932629999472,None,None,0,,,,,,,,,,,,,,029,2022-05-25_19h47.23.276,Main,2022.1.1,58.974886690683974,
negative,blue,1,None,k,,,,,,,,,0,51,51,51,,,,,,,,,,,,,,,,,main,k,k,1,0.6968295000260696,316.1598814999452,None,None,0,,,,,,,,,,,,,,029,2022-05-25_19h47.23.276,Main,2022.1.1,58.974886690683974,
positive,red,2,None,None,,,,,,,,,0,52,52,52,,,,,,,,,,,,,,,,,main,None,None,1,1.4990585000487044,317.85739689995535,None,None,1,,,,,,,,,,,,,,029,2022-05-25_19h47.23.276,Main,2022.1.1,58.974886690683974,
positive,yellow,2,None,k,,,,,,,,,0,53,53,53,,,,,,,,,,,,,,,,,main,k,k,1,0.665720299934037,320.3570663999999,None,None,0,,,,,,,,,,,,,,029,2022-05-25_19h47.23.276,Main,2022.1.1,58.974886690683974,
negative,red,2,None,None,,,,,,,,,0,54,54,54,,,,,,,,,,,,,,,,,main,None,None,1,1.5002668999368325,322.02374189998955,None,None,1,,,,,,,,,,,,,,029,2022-05-25_19h47.23.276,Main,2022.1.1,58.974886690683974,
positive,yellow,1,None,k,,,,,,,,,0,55,55,55,,,,,,,,,,,,,,,,,main,k,k,1,0.6689810999669135,324.5264016999863,None,None,0,,,,,,,,,,,,,,029,2022-05-25_19h47.23.276,Main,2022.1.1,58.974886690683974,
negative,blue,2,None,k,,,,,,,,,0,56,56,56,,,,,,,,,,,,,,,,,main,k,k,1,0.6932674000272527,326.1902496999828,None,None,0,,,,,,,,,,,,,,029,2022-05-25_19h47.23.276,Main,2022.1.1,58.974886690683974,
positive,blue,1,k,None,,,,,,,,,0,57,57,57,,,,,,,,,,,,,,,,,main,None,None,1,1.5016510999994352,327.8902262999909,None,None,1,,,,,,,,,,,,,,029,2022-05-25_19h47.23.276,Main,2022.1.1,58.974886690683974,
positive,blue,1,k,None,,,,,,,,,0,58,58,58,,,,,,,,,,,,,,,,,main,None,k,0,0.7669937000609934,330.3929380000336,None,None,1,,,,,,,,,,,,,,029,2022-05-25_19h47.23.276,Main,2022.1.1,58.974886690683974,
negative,yellow,2,k,None,,,,,,,,,0,59,59,59,,,,,,,,,,,,,,,,,main,None,k,0,0.8651620999444276,333.15955870004836,None,None,1,,,,,,,,,,,,,,029,2022-05-25_19h47.23.276,Main,2022.1.1,58.974886690683974,
positive,red,2,None,None,,,,,,,,,0,60,60,60,,,,,,,,,,,,,,,,,main,None,None,1,1.5006785000441596,336.02613020001445,None,None,1,,,,,,,,,,,,,,029,2022-05-25_19h47.23.276,Main,2022.1.1,58.974886690683974,
negative,yellow,1,k,None,,,,,,,,,0,61,61,61,,,,,,,,,,,,,,,,,main,None,None,1,1.4959583999589086,338.52611229999457,None,None,1,,,,,,,,,,,,,,029,2022-05-25_19h47.23.276,Main,2022.1.1,58.974886690683974,
negative,red,1,None,None,,,,,,,,,0,62,62,62,,,,,,,,,,,,,,,,,main,None,None,1,1.5020947000011802,341.02328580000903,None,None,1,,,,,,,,,,,,,,029,2022-05-25_19h47.23.276,Main,2022.1.1,58.974886690683974,
negative,blue,1,None,k,,,,,,,,,0,63,63,63,,,,,,,,,,,,,,,,,main,k,k,1,1.5631457000272349,343.52598399994895,None,None,0,,,,,,,,,,,,,,029,2022-05-25_19h47.23.276,Main,2022.1.1,58.974886690683974,
positive,blue,2,k,None,,,,,,,,,0,64,64,64,,,,,,,,,,,,,,,,,main,None,None,1,1.4991774000227451,347.0901259999955,None,None,1,,,,,,,,,,,,,,029,2022-05-25_19h47.23.276,Main,2022.1.1,58.974886690683974,
negative,yellow,2,k,None,,,,,,,,,0,65,65,65,,,,,,,,,,,,,,,,,main,None,None,1,1.5001392000121996,349.58984230004717,None,None,1,,,,,,,,,,,,,,029,2022-05-25_19h47.23.276,Main,2022.1.1,58.974886690683974,
positive,yellow,2,None,k,,,,,,,,,0,66,66,66,,,,,,,,,,,,,,,,,main,k,k,1,1.0144889999646693,352.09248570003547,None,None,0,,,,,,,,,,,,,,029,2022-05-25_19h47.23.276,Main,2022.1.1,58.974886690683974,
positive,yellow,2,None,k,,,,,,,,,0,67,67,67,,,,,,,,,,,,,,,,,main,k,k,1,0.7813784000463784,354.10662800003774,None,None,0,,,,,,,,,,,,,,029,2022-05-25_19h47.23.276,Main,2022.1.1,58.974886690683974,
positive,red,1,None,None,,,,,,,,,0,68,68,68,,,,,,,,,,,,,,,,,main,None,None,1,1.4996108999475837,355.8900780000258,None,None,1,,,,,,,,,,,,,,029,2022-05-25_19h47.23.276,Main,2022.1.1,58.974886690683974,
positive,yellow,1,None,k,,,,,,,,,0,69,69,69,,,,,,,,,,,,,,,,,main,k,k,1,0.7483884000685066,358.3896509000333,None,None,0,,,,,,,,,,,,,,029,2022-05-25_19h47.23.276,Main,2022.1.1,58.974886690683974,
negative,yellow,2,k,None,,,,,,,,,0,70,70,70,,,,,,,,,,,,,,,,,main,None,None,1,1.5012559000169858,360.1425098000327,None,None,1,,,,,,,,,,,,,,029,2022-05-25_19h47.23.276,Main,2022.1.1,58.974886690683974,
positive,yellow,1,None,k,,,,,,,,,0,71,71,71,,,,,,,,,,,,,,,,,main,k,k,1,0.6636676000198349,362.6421936999541,None,None,0,,,,,,,,,,,,,,029,2022-05-25_19h47.23.276,Main,2022.1.1,58.974886690683974,
negative,blue,1,None,k,,,,,,,,,0,72,72,72,,,,,,,,,,,,,,,,,main,k,k,1,0.7486943000694737,364.3064413999673,None,None,0,,,,,,,,,,,,,,029,2022-05-25_19h47.23.276,Main,2022.1.1,58.974886690683974,
negative,red,2,None,None,,,,,,,,,0,73,73,73,,,,,,,,,,,,,,,,,main,None,None,1,1.5016243999125436,366.0561060999753,None,None,1,,,,,,,,,,,,,,029,2022-05-25_19h47.23.276,Main,2022.1.1,58.974886690683974,
positive,blue,2,k,None,,,,,,,,,0,74,74,74,,,,,,,,,,,,,,,,,main,None,None,1,1.4990354999899864,368.5587949999608,None,None,1,,,,,,,,,,,,,,029,2022-05-25_19h47.23.276,Main,2022.1.1,58.974886690683974,
negative,blue,2,None,k,,,,,,,,,0,75,75,75,,,,,,,,,,,,,,,,,main,k,k,1,0.7966043999185786,371.0587607000489,None,None,0,,,,,,,,,,,,,,029,2022-05-25_19h47.23.276,Main,2022.1.1,58.974886690683974,
negative,blue,2,None,k,,,,,,,,,0,76,76,76,,,,,,,,,,,,,,,,,main,k,k,1,0.8999305999604985,372.8559480999829,None,None,0,,,,,,,,,,,,,,029,2022-05-25_19h47.23.276,Main,2022.1.1,58.974886690683974,
negative,yellow,1,k,None,,,,,,,,,0,77,77,77,,,,,,,,,,,,,,,,,main,None,None,1,1.5004479999188334,374.7559589999728,None,None,1,,,,,,,,,,,,,,029,2022-05-25_19h47.23.276,Main,2022.1.1,58.974886690683974,
positive,blue,1,k,None,,,,,,,,,0,78,78,78,,,,,,,,,,,,,,,,,main,None,None,1,1.4971196000697091,377.25861260003876,None,None,1,,,,,,,,,,,,,,029,2022-05-25_19h47.23.276,Main,2022.1.1,58.974886690683974,
positive,blue,1,k,None,,,,,,,,,0,79,79,79,,,,,,,,,,,,,,,,,main,None,None,1,1.5007060000207275,379.75586599996313,None,None,1,,,,,,,,,,,,,,029,2022-05-25_19h47.23.276,Main,2022.1.1,58.974886690683974,
positive,red,2,None,None,,,,,,,,,0,80,80,80,,,,,,,,,,,,,,,,,main,None,None,1,1.49636789993383,382.258504300029,None,None,1,,,,,,,,,,,,,,029,2022-05-25_19h47.23.276,Main,2022.1.1,58.974886690683974,
positive,yellow,2,None,k,,,,,,,,,0,81,81,81,,,,,,,,,,,,,,,,,main,k,k,1,0.8828555999789387,384.761515900027,None,None,0,,,,,,,,,,,,,,029,2022-05-25_19h47.23.276,Main,2022.1.1,58.974886690683974,
positive,blue,1,k,None,,,,,,,,,0,82,82,82,,,,,,,,,,,,,,,,,main,None,None,1,1.4993060000706464,386.6393070999766,None,None,1,,,,,,,,,,,,,,029,2022-05-25_19h47.23.276,Main,2022.1.1,58.974886690683974,
negative,yellow,2,k,None,,,,,,,,,0,83,83,83,,,,,,,,,,,,,,,,,main,None,None,1,1.5006332999328151,389.13894850004,None,None,1,,,,,,,,,,,,,,029,2022-05-25_19h47.23.276,Main,2022.1.1,58.974886690683974,
positive,blue,2,k,None,,,,,,,,,0,84,84,84,,,,,,,,,,,,,,,,,main,None,None,1,1.4965589999919757,391.6416222000262,None,None,1,,,,,,,,,,,,,,029,2022-05-25_19h47.23.276,Main,2022.1.1,58.974886690683974,
positive,yellow,1,None,k,,,,,,,,,0,85,85,85,,,,,,,,,,,,,,,,,main,k,k,1,0.8664737000362948,394.13913589995354,None,None,0,,,,,,,,,,,,,,029,2022-05-25_19h47.23.276,Main,2022.1.1,58.974886690683974,
positive,blue,2,k,None,,,,,,,,,0,86,86,86,,,,,,,,,,,,,,,,,main,None,None,1,1.4991916000144556,396.0057954000076,None,None,1,,,,,,,,,,,,,,029,2022-05-25_19h47.23.276,Main,2022.1.1,58.974886690683974,
positive,blue,1,k,None,,,,,,,,,0,87,87,87,,,,,,,,,,,,,,,,,main,None,None,1,1.5006239999784157,398.5054549999768,None,None,1,,,,,,,,,,,,,,029,2022-05-25_19h47.23.276,Main,2022.1.1,58.974886690683974,
negative,yellow,2,k,None,,,,,,,,,0,88,88,88,,,,,,,,,,,,,,,,,main,None,None,1,1.4966144999489188,401.0081175999949,None,None,1,,,,,,,,,,,,,,029,2022-05-25_19h47.23.276,Main,2022.1.1,58.974886690683974,
negative,blue,2,None,k,,,,,,,,,0,89,89,89,,,,,,,,,,,,,,,,,main,k,k,1,0.9331031000474468,403.50796479999553,None,None,0,,,,,,,,,,,,,,029,2022-05-25_19h47.23.276,Main,2022.1.1,58.974886690683974,
positive,yellow,2,None,k,,,,,,,,,0,90,90,90,,,,,,,,,,,,,,,,,main,k,k,1,0.7480476000346243,405.4386101999553,None,None,0,,,,,,,,,,,,,,029,2022-05-25_19h47.23.276,Main,2022.1.1,58.974886690683974,
negative,yellow,1,k,None,,,,,,,,,0,91,91,91,,,,,,,,,,,,,,,,,main,None,None,1,1.5014542000135407,407.1886424999684,None,None,1,,,,,,,,,,,,,,029,2022-05-25_19h47.23.276,Main,2022.1.1,58.974886690683974,
negative,red,2,None,None,,,,,,,,,0,92,92,92,,,,,,,,,,,,,,,,,main,None,None,1,1.5000308000016958,409.6912674000487,None,None,1,,,,,,,,,,,,,,029,2022-05-25_19h47.23.276,Main,2022.1.1,58.974886690683974,
negative,blue,2,None,k,,,,,,,,,0,93,93,93,,,,,,,,,,,,,,,,,main,k,k,1,0.7958243999164551,412.19112490001135,None,None,0,,,,,,,,,,,,,,029,2022-05-25_19h47.23.276,Main,2022.1.1,58.974886690683974,
negative,blue,1,None,k,,,,,,,,,0,94,94,94,,,,,,,,,,,,,,,,,main,k,k,1,1.3822580999694765,413.98875609994866,None,None,0,,,,,,,,,,,,,,029,2022-05-25_19h47.23.276,Main,2022.1.1,58.974886690683974,
negative,blue,1,None,k,,,,,,,,,0,95,95,95,,,,,,,,,,,,,,,,,main,k,k,1,0.7159562000306323,416.37173959997017,None,None,0,,,,,,,,,,,,,,029,2022-05-25_19h47.23.276,Main,2022.1.1,58.974886690683974,
negative,red,1,None,None,,,,,,,,,0,96,96,96,,,,,,,,,,,,,,,,,main,None,None,1,1.4986499000806361,418.0887356000021,None,None,1,,,,,,,,,,,,,,029,2022-05-25_19h47.23.276,Main,2022.1.1,58.974886690683974,
positive,yellow,1,None,k,,,,,,,,,0,97,97,97,,,,,,,,,,,,,,,,,main,k,k,1,0.815966899972409,420.58857090002857,None,None,0,,,,,,,,,,,,,,029,2022-05-25_19h47.23.276,Main,2022.1.1,58.974886690683974,
negative,yellow,1,k,None,,,,,,,,,0,98,98,98,,,,,,,,,,,,,,,,,main,None,k,0,0.7145585999824107,422.40523769997526,None,None,1,,,,,,,,,,,,,,029,2022-05-25_19h47.23.276,Main,2022.1.1,58.974886690683974,
positive,red,1,None,None,,,,,,,,,0,99,99,99,,,,,,,,,,,,,,,,,main,None,None,1,1.486647899961099,425.12153859995306,None,None,1,,,,,,,,,,,,,,029,2022-05-25_19h47.23.276,Main,2022.1.1,58.974886690683974,
positive,blue,1,k,None,,,,,,,,,0,100,100,100,,,,,,,,,,,,,,,,,main,None,None,1,1.4962075999937952,427.6075555999996,None,None,1,,,,,,,,,,,,,,029,2022-05-25_19h47.23.276,Main,2022.1.1,58.974886690683974,
negative,yellow,1,k,None,,,,,,,,,0,101,101,101,,,,,,,,,,,,,,,,,main,None,None,1,1.4887896999716759,430.11057380004786,None,None,1,,,,,,,,,,,,,,029,2022-05-25_19h47.23.276,Main,2022.1.1,58.974886690683974,
negative,blue,2,None,k,,,,,,,,,0,102,102,102,,,,,,,,,,,,,,,,,main,k,k,1,0.8933538999408484,432.5919450999936,None,None,0,,,,,,,,,,,,,,029,2022-05-25_19h47.23.276,Main,2022.1.1,58.974886690683974,
negative,yellow,2,k,None,,,,,,,,,0,103,103,103,,,,,,,,,,,,,,,,,main,None,None,1,1.5003702000249177,434.48806020000484,None,None,1,,,,,,,,,,,,,,029,2022-05-25_19h47.23.276,Main,2022.1.1,58.974886690683974,
positive,yellow,2,None,k,,,,,,,,,0,104,104,104,,,,,,,,,,,,,,,,,main,k,k,1,0.7302943000104278,436.9907176999841,None,None,0,,,,,,,,,,,,,,029,2022-05-25_19h47.23.276,Main,2022.1.1,58.974886690683974,
positive,blue,1,k,None,,,,,,,,,0,105,105,105,,,,,,,,,,,,,,,,,main,None,None,1,1.4993316000327468,438.72158420004416,None,None,1,,,,,,,,,,,,,,029,2022-05-25_19h47.23.276,Main,2022.1.1,58.974886690683974,
positive,blue,2,k,None,,,,,,,,,0,106,106,106,,,,,,,,,,,,,,,,,main,None,k,0,0.6164168000686914,441.2211823000107,None,None,1,,,,,,,,,,,,,,029,2022-05-25_19h47.23.276,Main,2022.1.1,58.974886690683974,
negative,blue,1,None,k,,,,,,,,,0,107,107,107,,,,,,,,,,,,,,,,,main,k,k,1,0.651333799934946,443.84054729994386,None,None,0,,,,,,,,,,,,,,029,2022-05-25_19h47.23.276,Main,2022.1.1,58.974886690683974,
positive,yellow,2,None,k,,,,,,,,,0,108,108,108,,,,,,,,,,,,,,,,,main,k,k,1,0.8628828000510111,445.49054989998695,None,None,0,,,,,,,,,,,,,,029,2022-05-25_19h47.23.276,Main,2022.1.1,58.974886690683974,
negative,yellow,1,k,None,,,,,,,,,0,109,109,109,,,,,,,,,,,,,,,,,main,None,None,1,1.4991792000364512,447.35467899998184,None,None,1,,,,,,,,,,,,,,029,2022-05-25_19h47.23.276,Main,2022.1.1,58.974886690683974,
negative,blue,2,None,k,,,,,,,,,0,110,110,110,,,,,,,,,,,,,,,,,main,k,k,1,0.7470459999749437,449.85433570004534,None,None,0,,,,,,,,,,,,,,029,2022-05-25_19h47.23.276,Main,2022.1.1,58.974886690683974,
positive,blue,2,k,None,,,,,,,,,0,111,111,111,,,,,,,,,,,,,,,,,main,None,None,1,1.501685999915935,451.6043574999785,None,None,1,,,,,,,,,,,,,,029,2022-05-25_19h47.23.276,Main,2022.1.1,58.974886690683974,
negative,blue,1,None,k,,,,,,,,,0,112,112,112,,,,,,,,,,,,,,,,,main,k,k,1,0.8468716000206769,454.1069706999697,None,None,0,,,,,,,,,,,,,,029,2022-05-25_19h47.23.276,Main,2022.1.1,58.974886690683974,
positive,yellow,1,None,k,,,,,,,,,0,113,113,113,,,,,,,,,,,,,,,,,main,k,k,1,0.7825984000228345,455.95681280002464,None,None,0,,,,,,,,,,,,,,029,2022-05-25_19h47.23.276,Main,2022.1.1,58.974886690683974,
negative,red,1,None,None,,,,,,,,,0,114,114,114,,,,,,,,,,,,,,,,,main,None,None,1,1.499628199962899,457.740217100014,None,None,1,,,,,,,,,,,,,,029,2022-05-25_19h47.23.276,Main,2022.1.1,58.974886690683974,
positive,red,1,None,None,,,,,,,,,0,115,115,115,,,,,,,,,,,,,,,,,main,None,None,1,1.5006356000667438,460.2374789000023,None,None,1,,,,,,,,,,,,,,029,2022-05-25_19h47.23.276,Main,2022.1.1,58.974886690683974,
negative,red,2,None,None,,,,,,,,,0,116,116,116,,,,,,,,,,,,,,,,,main,None,None,1,1.4990019000833854,462.7401673999848,None,None,1,,,,,,,,,,,,,,029,2022-05-25_19h47.23.276,Main,2022.1.1,58.974886690683974,
negative,yellow,2,k,None,,,,,,,,,0,117,117,117,,,,,,,,,,,,,,,,,main,None,None,1,1.4972733999602497,465.24011959997006,None,None,1,,,,,,,,,,,,,,029,2022-05-25_19h47.23.276,Main,2022.1.1,58.974886690683974,
positive,yellow,1,None,k,,,,,,,,,0,118,118,118,,,,,,,,,,,,,,,,,main,k,k,1,0.8175210000481457,467.7373454000335,None,None,0,,,,,,,,,,,,,,029,2022-05-25_19h47.23.276,Main,2022.1.1,58.974886690683974,
positive,red,2,None,None,,,,,,,,,0,119,119,119,,,,,,,,,,,,,,,,,main,None,None,1,1.4968806999968365,469.5566758000059,None,None,1,,,,,,,,,,,,,,029,2022-05-25_19h47.23.276,Main,2022.1.1,58.974886690683974,
positive,blue,2,k,None,,,,,,,,,0,120,120,120,,,,,,,,,,,,,,,,,main,None,None,1,1.4989671000512317,472.0538869999582,None,None,1,,,,,,,,,,,,,,029,2022-05-25_19h47.23.276,Main,2022.1.1,58.974886690683974,
negative,red,1,None,None,,,,,,,,,0,121,121,121,,,,,,,,,,,,,,,,,main,None,None,1,1.500678800046444,474.5565591000486,None,None,1,,,,,,,,,,,,,,029,2022-05-25_19h47.23.276,Main,2022.1.1,58.974886690683974,
positive,yellow,2,None,k,,,,,,,,,0,122,122,122,,,,,,,,,,,,,,,,,main,k,k,1,0.7134451000019908,477.05652949993964,None,None,0,,,,,,,,,,,,,,029,2022-05-25_19h47.23.276,Main,2022.1.1,58.974886690683974,
negative,red,2,None,None,,,,,,,,,0,123,123,123,,,,,,,,,,,,,,,,,main,None,None,1,1.499380800058134,478.77068349998444,None,None,1,,,,,,,,,,,,,,029,2022-05-25_19h47.23.276,Main,2022.1.1,58.974886690683974,
negative,yellow,2,k,None,,,,,,,,,0,124,124,124,,,,,,,,,,,,,,,,,main,None,k,0,0.7148623999673873,481.2703400000464,None,None,1,,,,,,,,,,,,,,029,2022-05-25_19h47.23.276,Main,2022.1.1,58.974886690683974,
positive,red,1,None,None,,,,,,,,,0,125,125,125,,,,,,,,,,,,,,,,,main,None,None,1,1.500852599972859,483.98971450002864,None,None,1,,,,,,,,,,,,,,029,2022-05-25_19h47.23.276,Main,2022.1.1,58.974886690683974,
negative,blue,2,None,k,,,,,,,,,0,126,126,126,,,,,,,,,,,,,,,,,main,k,k,1,0.7628665999509394,486.48966920003295,None,None,0,,,,,,,,,,,,,,029,2022-05-25_19h47.23.276,Main,2022.1.1,58.974886690683974,
negative,blue,1,None,k,,,,,,,,,0,127,127,127,,,,,,,,,,,,,,,,,main,k,k,1,1.0351673999102786,488.25352989998646,None,None,0,,,,,,,,,,,,,,029,2022-05-25_19h47.23.276,Main,2022.1.1,58.974886690683974,
negative,yellow,1,k,None,,,,,,,,,0,128,128,128,,,,,,,,,,,,,,,,,main,None,None,1,1.4988210999872535,490.28957389993593,None,None,1,,,,,,,,,,,,,,029,2022-05-25_19h47.23.276,Main,2022.1.1,58.974886690683974,
negative,yellow,1,k,None,,,,,,,,,0,129,129,129,,,,,,,,,,,,,,,,,main,None,None,1,1.4972152000991628,492.78954080003314,None,None,1,,,,,,,,,,,,,,029,2022-05-25_19h47.23.276,Main,2022.1.1,58.974886690683974,
positive,blue,1,k,None,,,,,,,,,0,130,130,130,,,,,,,,,,,,,,,,,main,None,None,1,1.5006554999854416,495.2868175000185,None,None,1,,,,,,,,,,,,,,029,2022-05-25_19h47.23.276,Main,2022.1.1,58.974886690683974,
negative,blue,1,None,k,,,,,,,,,0,131,131,131,,,,,,,,,,,,,,,,,main,k,k,1,0.9307141000172123,497.78941420000046,None,None,0,,,,,,,,,,,,,,029,2022-05-25_19h47.23.276,Main,2022.1.1,58.974886690683974,
negative,blue,2,None,k,,,,,,,,,0,132,132,132,,,,,,,,,,,,,,,,,main,k,k,1,1.1006558000808582,499.71997049998026,None,None,0,,,,,,,,,,,,,,029,2022-05-25_19h47.23.276,Main,2022.1.1,58.974886690683974,
positive,blue,2,k,None,,,,,,,,,0,133,133,133,,,,,,,,,,,,,,,,,main,None,None,1,1.4988335000816733,501.82031390001066,None,None,1,,,,,,,,,,,,,,029,2022-05-25_19h47.23.276,Main,2022.1.1,58.974886690683974,
positive,red,2,None,None,,,,,,,,,0,134,134,134,,,,,,,,,,,,,,,,,main,None,None,1,1.4965156998950988,504.3226647999836,None,None,1,,,,,,,,,,,,,,029,2022-05-25_19h47.23.276,Main,2022.1.1,58.974886690683974,
negative,yellow,2,k,None,,,,,,,,,0,135,135,135,,,,,,,,,,,,,,,,,main,None,None,1,1.5019252999918535,506.81982780003455,None,None,1,,,,,,,,,,,,,,029,2022-05-25_19h47.23.276,Main,2022.1.1,58.974886690683974,
positive,yellow,2,None,k,,,,,,,,,0,136,136,136,,,,,,,,,,,,,,,,,main,k,k,1,0.8566528999945149,509.3225296000019,None,None,0,,,,,,,,,,,,,,029,2022-05-25_19h47.23.276,Main,2022.1.1,58.974886690683974,
positive,blue,1,k,None,,,,,,,,,0,137,137,137,,,,,,,,,,,,,,,,,main,None,None,1,1.4895440998952836,511.17975689994637,None,None,1,,,,,,,,,,,,,,029,2022-05-25_19h47.23.276,Main,2022.1.1,58.974886690683974,
positive,yellow,1,None,k,,,,,,,,,0,138,138,138,,,,,,,,,,,,,,,,,main,k,k,1,1.0320151000050828,513.6697261000518,None,None,0,,,,,,,,,,,,,,029,2022-05-25_19h47.23.276,Main,2022.1.1,58.974886690683974,
positive,yellow,1,None,k,,,,,,,,,0,139,139,139,,,,,,,,,,,,,,,,,main,k,k,1,1.0653754000086337,515.7033529999899,None,None,0,,,,,,,,,,,,,,029,2022-05-25_19h47.23.276,Main,2022.1.1,58.974886690683974,
positive,yellow,1,None,k,,,,,,,,,0,140,140,140,,,,,,,,,,,,,,,,,main,k,k,1,0.7348587999586016,517.769869599957,None,None,0,,,,,,,,,,,,,,029,2022-05-25_19h47.23.276,Main,2022.1.1,58.974886690683974,
positive,blue,1,k,None,,,,,,,,,0,141,141,141,,,,,,,,,,,,,,,,,main,None,None,1,1.4971939999377355,519.5031924999785,None,None,1,,,,,,,,,,,,,,029,2022-05-25_19h47.23.276,Main,2022.1.1,58.974886690683974,
positive,blue,2,k,None,,,,,,,,,0,142,142,142,,,,,,,,,,,,,,,,,main,None,None,1,1.5008295000297949,522.0028823999455,None,None,1,,,,,,,,,,,,,,029,2022-05-25_19h47.23.276,Main,2022.1.1,58.974886690683974,
positive,yellow,2,None,k,,,,,,,,,0,143,143,143,,,,,,,,,,,,,,,,,main,k,k,1,0.7192702000029385,524.5055500000017,None,None,0,,,,,,,,,,,,,,029,2022-05-25_19h47.23.276,Main,2022.1.1,58.974886690683974,
negative,yellow,2,k,None,,,,,,,,,0,144,144,144,,,,,,,,,,,,,,,,,main,None,None,1,1.4983081000391394,526.2306960000424,None,None,1,,,,,,,,,,,,,,029,2022-05-25_19h47.23.276,Main,2022.1.1,58.974886690683974,
negative,blue,2,None,k,,,,,,,,,0,145,145,145,,,,,,,,,,,,,,,,,main,k,k,1,0.9601816999493167,528.7230028000195,None,None,0,,,,,,,,,,,,,,029,2022-05-25_19h47.23.276,Main,2022.1.1,58.974886690683974,
negative,red,1,None,None,,,,,,,,,0,146,146,146,,,,,,,,,,,,,,,,,main,None,None,1,1.5015688000712544,530.6859749000287,None,None,1,,,,,,,,,,,,,,029,2022-05-25_19h47.23.276,Main,2022.1.1,58.974886690683974,
positive,blue,1,k,None,,,,,,,,,0,147,147,147,,,,,,,,,,,,,,,,,main,None,None,1,1.497241200064309,533.1886457999935,None,None,1,,,,,,,,,,,,,,029,2022-05-25_19h47.23.276,Main,2022.1.1,58.974886690683974,
positive,yellow,1,None,k,,,,,,,,,0,148,148,148,,,,,,,,,,,,,,,,,main,k,k,1,0.6982483000028878,535.6858780999901,None,None,0,,,,,,,,,,,,,,029,2022-05-25_19h47.23.276,Main,2022.1.1,58.974886690683974,
negative,red,2,None,None,,,,,,,,,0,149,149,149,,,,,,,,,,,,,,,,,main,None,None,1,1.5015772000188008,537.3858989999862,None,None,1,,,,,,,,,,,,,,029,2022-05-25_19h47.23.276,Main,2022.1.1,58.974886690683974,
negative,blue,1,None,k,,,,,,,,,0,150,150,150,,,,,,,,,,,,,,,,,main,k,k,1,0.9311645999550819,539.8885345000308,None,None,0,,,,,,,,,,,,,,029,2022-05-25_19h47.23.276,Main,2022.1.1,58.974886690683974,
negative,yellow,2,k,None,,,,,,,,,0,151,151,151,,,,,,,,,,,,,,,,,main,None,None,1,1.4979807999916375,541.8193776999833,None,None,1,,,,,,,,,,,,,,029,2022-05-25_19h47.23.276,Main,2022.1.1,58.974886690683974,
negative,blue,2,None,k,,,,,,,,,0,152,152,152,,,,,,,,,,,,,,,,,main,k,k,1,4.267586299916729,544.3190761000151,None,None,0,,,,,,,,,,,,,,029,2022-05-25_19h47.23.276,Main,2022.1.1,58.974886690683974,
negative,yellow,1,k,None,,,,,,,,,0,153,153,153,,,,,,,,,,,,,,,,,main,None,None,1,1.5015514999395236,550.6022434999468,None,None,1,,,,,,,,,,,,,,029,2022-05-25_19h47.23.276,Main,2022.1.1,58.974886690683974,
negative,blue,1,None,k,,,,,,,,,0,154,154,154,,,,,,,,,,,,,,,,,main,k,k,1,0.9169619000749663,553.1022323999787,None,None,0,,,,,,,,,,,,,,029,2022-05-25_19h47.23.276,Main,2022.1.1,58.974886690683974,
positive,yellow,2,None,k,,,,,,,,,0,155,155,155,,,,,,,,,,,,,,,,,main,k,k,1,0.7634669999824837,555.0216024999972,None,None,0,,,,,,,,,,,,,,029,2022-05-25_19h47.23.276,Main,2022.1.1,58.974886690683974,
positive,red,2,None,None,,,,,,,,,0,156,156,156,,,,,,,,,,,,,,,,,main,None,None,1,1.4995186000596732,556.7857153000077,None,None,1,,,,,,,,,,,,,,029,2022-05-25_19h47.23.276,Main,2022.1.1,58.974886690683974,
positive,red,1,None,None,,,,,,,,,0,157,157,157,,,,,,,,,,,,,,,,,main,None,None,1,1.4988494999706745,559.2853814000264,None,None,1,,,,,,,,,,,,,,029,2022-05-25_19h47.23.276,Main,2022.1.1,58.974886690683974,
positive,blue,2,k,None,,,,,,,,,0,158,158,158,,,,,,,,,,,,,,,,,main,None,None,1,1.5006025999318808,561.7853856999427,None,None,1,,,,,,,,,,,,,,029,2022-05-25_19h47.23.276,Main,2022.1.1,58.974886690683974,
negative,yellow,1,k,None,,,,,,,,,0,159,159,159,,,,,,,,,,,,,,,,,main,None,k,0,0.7734178999671713,564.2880497999722,None,None,1,,,,,,,,,,,,,,029,2022-05-25_19h47.23.276,Main,2022.1.1,58.974886690683974,
negative,red,2,None,None,,,,,,,,,0,160,160,160,,,,,,,,,,,,,,,,,main,None,None,1,1.4866563000250608,567.0686311000027,None,None,1,,,,,,,,,,,,,,029,2022-05-25_19h47.23.276,Main,2022.1.1,58.974886690683974,
negative,blue,1,None,k,,,,,,,,,0,161,161,161,,,,,,,,,,,,,,,,,main,k,k,1,0.7468082000268623,569.5545770999743,None,None,0,,,,,,,,,,,,,,029,2022-05-25_19h47.23.276,Main,2022.1.1,58.974886690683974,
negative,blue,1,None,k,,,,,,,,,0,162,162,162,,,,,,,,,,,,,,,,,main,k,k,1,0.8150521999923512,571.3022023999365,None,None,0,,,,,,,,,,,,,,029,2022-05-25_19h47.23.276,Main,2022.1.1,58.974886690683974,
negative,yellow,1,k,None,,,,,,,,,0,163,163,163,,,,,,,,,,,,,,,,,main,None,None,1,1.5016239000251517,573.1184226999758,None,None,1,,,,,,,,,,,,,,029,2022-05-25_19h47.23.276,Main,2022.1.1,58.974886690683974,
negative,yellow,1,k,None,,,,,,,,,0,164,164,164,,,,,,,,,,,,,,,,,main,None,None,1,1.5021454999223351,575.6211347000208,None,None,1,,,,,,,,,,,,,,029,2022-05-25_19h47.23.276,Main,2022.1.1,58.974886690683974,
positive,yellow,1,None,k,,,,,,,,,0,165,165,165,,,,,,,,,,,,,,,,,main,k,k,1,0.6768792000366375,578.1240105000325,None,None,0,,,,,,,,,,,,,,029,2022-05-25_19h47.23.276,Main,2022.1.1,58.974886690683974,
negative,red,1,None,None,,,,,,,,,0,166,166,166,,,,,,,,,,,,,,,,,main,None,None,1,1.501542399986647,579.8016194000375,None,None,1,,,,,,,,,,,,,,029,2022-05-25_19h47.23.276,Main,2022.1.1,58.974886690683974,
negative,yellow,2,k,None,,,,,,,,,0,167,167,167,,,,,,,,,,,,,,,,,main,None,None,1,1.4966064000036567,582.3042969999369,None,None,1,,,,,,,,,,,,,,029,2022-05-25_19h47.23.276,Main,2022.1.1,58.974886690683974,
positive,blue,2,k,None,,,,,,,,,0,168,168,168,,,,,,,,,,,,,,,,,main,None,None,1,1.504533200059086,584.8017904999433,None,None,1,,,,,,,,,,,,,,029,2022-05-25_19h47.23.276,Main,2022.1.1,58.974886690683974,
positive,red,2,None,None,,,,,,,,,0,169,169,169,,,,,,,,,,,,,,,,,main,None,None,1,1.4942813999950886,587.3053670000518,None,None,1,,,,,,,,,,,,,,029,2022-05-25_19h47.23.276,Main,2022.1.1,58.974886690683974,
positive,red,1,None,None,,,,,,,,,0,170,170,170,,,,,,,,,,,,,,,,,main,None,None,1,1.5004987000720575,589.8015190999722,None,None,1,,,,,,,,,,,,,,029,2022-05-25_19h47.23.276,Main,2022.1.1,58.974886690683974,
negative,blue,2,None,k,,,,,,,,,0,171,171,171,,,,,,,,,,,,,,,,,main,k,k,1,0.8302718999329954,592.3041056999937,None,None,0,,,,,,,,,,,,,,029,2022-05-25_19h47.23.276,Main,2022.1.1,58.974886690683974,
positive,blue,2,k,None,,,,,,,,,0,172,172,172,,,,,,,,,,,,,,,,,main,None,None,1,1.499522399972193,594.1349506999832,None,None,1,,,,,,,,,,,,,,029,2022-05-25_19h47.23.276,Main,2022.1.1,58.974886690683974,
negative,yellow,2,k,None,,,,,,,,,0,173,173,173,,,,,,,,,,,,,,,,,main,None,None,1,1.5005430999444798,596.6346047000261,None,None,1,,,,,,,,,,,,,,029,2022-05-25_19h47.23.276,Main,2022.1.1,58.974886690683974,
positive,yellow,2,None,k,,,,,,,,,0,174,174,174,,,,,,,,,,,,,,,,,main,k,k,1,0.8135511000873521,599.1372985000489,None,None,0,,,,,,,,,,,,,,029,2022-05-25_19h47.23.276,Main,2022.1.1,58.974886690683974,
negative,blue,2,None,k,,,,,,,,,0,175,175,175,,,,,,,,,,,,,,,,,main,k,k,1,0.8157618000404909,600.951620799955,None,None,0,,,,,,,,,,,,,,029,2022-05-25_19h47.23.276,Main,2022.1.1,58.974886690683974,
positive,blue,1,k,None,,,,,,,,,0,176,176,176,,,,,,,,,,,,,,,,,main,None,None,1,1.4994074000278488,602.7681506000226,None,None,1,,,,,,,,,,,,,,029,2022-05-25_19h47.23.276,Main,2022.1.1,58.974886690683974,
positive,yellow,1,None,k,,,,,,,,,0,177,177,177,,,,,,,,,,,,,,,,,main,k,k,1,0.6315166000276804,605.2677509000059,None,None,0,,,,,,,,,,,,,,029,2022-05-25_19h47.23.276,Main,2022.1.1,58.974886690683974,
positive,blue,1,k,None,,,,,,,,,0,178,178,178,,,,,,,,,,,,,,,,,main,None,None,1,1.5015118999872357,606.9011270999908,None,None,1,,,,,,,,,,,,,,029,2022-05-25_19h47.23.276,Main,2022.1.1,58.974886690683974,
positive,yellow,2,None,k,,,,,,,,,0,179,179,179,,,,,,,,,,,,,,,,,main,k,k,1,0.813827499980107,609.4037418999942,None,None,0,,,,,,,,,,,,,,029,2022-05-25_19h47.23.276,Main,2022.1.1,58.974886690683974,
positive,blue,1,k,None,,,,,,,,,0,180,180,180,,,,,,,,,,,,,,,,,main,None,None,1,1.4993758000200614,611.2180403999519,None,None,1,,,,,,,,,,,,,,029,2022-05-25_19h47.23.276,Main,2022.1.1,58.974886690683974,
negative,red,1,None,None,,,,,,,,,0,181,181,181,,,,,,,,,,,,,,,,,main,None,None,1,1.5005381000228226,613.7176228000317,None,None,1,,,,,,,,,,,,,,029,2022-05-25_19h47.23.276,Main,2022.1.1,58.974886690683974,
negative,blue,1,None,k,,,,,,,,,0,182,182,182,,,,,,,,,,,,,,,,,main,k,k,1,0.6798734000185505,616.2202770999866,None,None,0,,,,,,,,,,,,,,029,2022-05-25_19h47.23.276,Main,2022.1.1,58.974886690683974,
negative,yellow,2,k,None,,,,,,,,,0,183,183,183,,,,,,,,,,,,,,,,,main,None,None,1,1.4993610000237823,617.9011452000123,None,None,1,,,,,,,,,,,,,,029,2022-05-25_19h47.23.276,Main,2022.1.1,58.974886690683974,
positive,yellow,2,None,k,,,,,,,,,0,184,184,184,,,,,,,,,,,,,,,,,main,k,k,1,0.6650446000276133,620.4008113000309,None,None,0,,,,,,,,,,,,,,029,2022-05-25_19h47.23.276,Main,2022.1.1,58.974886690683974,
positive,yellow,1,None,k,,,,,,,,,0,185,185,185,,,,,,,,,,,,,,,,,main,k,k,1,0.8828670000657439,622.0674544000067,None,None,0,,,,,,,,,,,,,,029,2022-05-25_19h47.23.276,Main,2022.1.1,58.974886690683974,
positive,red,2,None,None,,,,,,,,,0,186,186,186,,,,,,,,,,,,,,,,,main,None,None,1,1.4984931000508368,623.9510899999877,None,None,1,,,,,,,,,,,,,,029,2022-05-25_19h47.23.276,Main,2022.1.1,58.974886690683974,
positive,blue,1,k,None,,,,,,,,,0,187,187,187,,,,,,,,,,,,,,,,,main,None,None,1,1.5001140999374911,626.4564436000073,None,None,1,,,,,,,,,,,,,,029,2022-05-25_19h47.23.276,Main,2022.1.1,58.974886690683974,
negative,yellow,1,k,None,,,,,,,,,0,188,188,188,,,,,,,,,,,,,,,,,main,None,None,1,1.5005984000163153,628.9506782999961,None,None,1,,,,,,,,,,,,,,029,2022-05-25_19h47.23.276,Main,2022.1.1,58.974886690683974,
positive,yellow,2,None,k,,,,,,,,,0,189,189,189,,,,,,,,,,,,,,,,,main,k,k,1,0.6003665999742225,631.4533022999531,None,None,0,,,,,,,,,,,,,,029,2022-05-25_19h47.23.276,Main,2022.1.1,58.974886690683974,
negative,yellow,2,k,None,,,,,,,,,0,190,190,190,,,,,,,,,,,,,,,,,main,None,None,1,1.495422999956645,633.0507768000243,None,None,1,,,,,,,,,,,,,,029,2022-05-25_19h47.23.276,Main,2022.1.1,58.974886690683974,
negative,yellow,1,k,None,,,,,,,,,0,191,191,191,,,,,,,,,,,,,,,,,main,None,None,1,1.5006218999624252,635.5505050000502,None,None,1,,,,,,,,,,,,,,029,2022-05-25_19h47.23.276,Main,2022.1.1,58.974886690683974,
positive,blue,2,k,None,,,,,,,,,0,192,192,192,,,,,,,,,,,,,,,,,main,None,None,1,1.4990032000932842,638.0531716999831,None,None,1,,,,,,,,,,,,,,029,2022-05-25_19h47.23.276,Main,2022.1.1,58.974886690683974,
positive,yellow,1,None,k,,,,,,,,,0,193,193,193,,,,,,,,,,,,,,,,,main,k,k,1,0.7132930000079796,640.5530951999826,None,None,0,,,,,,,,,,,,,,029,2022-05-25_19h47.23.276,Main,2022.1.1,58.974886690683974,
negative,red,2,None,None,,,,,,,,,0,194,194,194,,,,,,,,,,,,,,,,,main,None,None,1,1.5015357000520453,642.2669743000297,None,None,1,,,,,,,,,,,,,,029,2022-05-25_19h47.23.276,Main,2022.1.1,58.974886690683974,
positive,red,1,None,None,,,,,,,,,0,195,195,195,,,,,,,,,,,,,,,,,main,None,None,1,1.4968021999811754,644.769702999969,None,None,1,,,,,,,,,,,,,,029,2022-05-25_19h47.23.276,Main,2022.1.1,58.974886690683974,
negative,blue,1,None,k,,,,,,,,,0,196,196,196,,,,,,,,,,,,,,,,,main,k,k,1,0.8159437000285834,647.267161399941,None,None,0,,,,,,,,,,,,,,029,2022-05-25_19h47.23.276,Main,2022.1.1,58.974886690683974,
positive,blue,2,k,None,,,,,,,,,0,197,197,197,,,,,,,,,,,,,,,,,main,None,k,0,0.8165786999743432,649.0861485999776,None,None,1,,,,,,,,,,,,,,029,2022-05-25_19h47.23.276,Main,2022.1.1,58.974886690683974,
negative,blue,2,None,k,,,,,,,,,0,198,198,198,,,,,,,,,,,,,,,,,main,k,k,1,0.7369176999200135,651.9002465000376,None,None,0,,,,,,,,,,,,,,029,2022-05-25_19h47.23.276,Main,2022.1.1,58.974886690683974,
negative,blue,2,None,k,,,,,,,,,0,199,199,199,,,,,,,,,,,,,,,,,main,k,k,1,0.8466576000209898,653.6361935000168,None,None,0,,,,,,,,,,,,,,029,2022-05-25_19h47.23.276,Main,2022.1.1,58.974886690683974,
positive,blue,2,k,None,,,,,,,,,0,200,200,200,,,,,,,,,,,,,,,,,main,None,None,1,1.498451100080274,655.4838355999673,None,None,1,,,,,,,,,,,,,,029,2022-05-25_19h47.23.276,Main,2022.1.1,58.974886690683974,
positive,blue,2,k,None,,,,,,,,,0,201,201,201,,,,,,,,,,,,,,,,,main,None,None,1,1.499628399964422,657.9835992000299,None,None,1,,,,,,,,,,,,,,029,2022-05-25_19h47.23.276,Main,2022.1.1,58.974886690683974,
negative,yellow,2,k,None,,,,,,,,,0,202,202,202,,,,,,,,,,,,,,,,,main,None,None,1,1.5006210999563336,660.483269099961,None,None,1,,,,,,,,,,,,,,029,2022-05-25_19h47.23.276,Main,2022.1.1,58.974886690683974,
positive,red,1,None,None,,,,,,,,,0,203,203,203,,,,,,,,,,,,,,,,,main,None,None,1,1.499062899965793,662.9859610999702,None,None,1,,,,,,,,,,,,,,029,2022-05-25_19h47.23.276,Main,2022.1.1,58.974886690683974,
negative,blue,2,None,k,,,,,,,,,0,204,204,204,,,,,,,,,,,,,,,,,main,k,k,1,1.563314100028947,665.48593049997,None,None,0,,,,,,,,,,,,,,029,2022-05-25_19h47.23.276,Main,2022.1.1,58.974886690683974,
negative,red,1,None,None,,,,,,,,,0,205,205,205,,,,,,,,,,,,,,,,,main,None,None,1,1.5010013999417424,669.0524937999435,None,None,1,,,,,,,,,,,,,,029,2022-05-25_19h47.23.276,Main,2022.1.1,58.974886690683974,
negative,blue,2,None,k,,,,,,,,,0,206,206,206,,,,,,,,,,,,,,,,,main,k,k,1,0.7129308000439778,671.5524671999738,None,None,0,,,,,,,,,,,,,,029,2022-05-25_19h47.23.276,Main,2022.1.1,58.974886690683974,
negative,yellow,2,k,None,,,,,,,,,0,207,207,207,,,,,,,,,,,,,,,,,main,None,None,1,1.5015949999215081,673.2663139000069,None,None,1,,,,,,,,,,,,,,029,2022-05-25_19h47.23.276,Main,2022.1.1,58.974886690683974,
positive,yellow,2,None,k,,,,,,,,,0,208,208,208,,,,,,,,,,,,,,,,,main,k,k,1,0.5969229000620544,675.7690437999554,None,None,0,,,,,,,,,,,,,,029,2022-05-25_19h47.23.276,Main,2022.1.1,58.974886690683974,
negative,yellow,1,k,None,,,,,,,,,0,209,209,209,,,,,,,,,,,,,,,,,main,None,None,1,1.4984619000460953,677.3692377000116,None,None,1,,,,,,,,,,,,,,029,2022-05-25_19h47.23.276,Main,2022.1.1,58.974886690683974,
negative,red,2,None,None,,,,,,,,,0,210,210,210,,,,,,,,,,,,,,,,,main,None,None,1,1.50173779996112,679.8662500999635,None,None,1,,,,,,,,,,,,,,029,2022-05-25_19h47.23.276,Main,2022.1.1,58.974886690683974,
negative,blue,1,None,k,,,,,,,,,0,211,211,211,,,,,,,,,,,,,,,,,main,k,k,1,1.9143436000449583,682.3689195000334,None,None,0,,,,,,,,,,,,,,029,2022-05-25_19h47.23.276,Main,2022.1.1,58.974886690683974,
negative,yellow,1,k,None,,,,,,,,,0,212,212,212,,,,,,,,,,,,,,,,,main,None,None,1,1.486596000031568,686.2827840000391,None,None,1,,,,,,,,,,,,,,029,2022-05-25_19h47.23.276,Main,2022.1.1,58.974886690683974,
positive,blue,1,k,None,,,,,,,,,0,213,213,213,,,,,,,,,,,,,,,,,main,None,None,1,1.4827392000006512,688.7687653000467,None,None,1,,,,,,,,,,,,,,029,2022-05-25_19h47.23.276,Main,2022.1.1,58.974886690683974,
positive,blue,1,k,None,,,,,,,,,0,214,214,214,,,,,,,,,,,,,,,,,main,None,k,0,-0.8040770000079647,691.2495587000158,None,None,1,,,,,,,,,,,,,,029,2022-05-25_19h47.23.276,Main,2022.1.1,58.974886690683974,
positive,yellow,1,None,k,,,,,,,,,0,215,215,215,,,,,,,,,,,,,,,,,main,k,k,1,0.984672199934721,694.4492351999506,None,None,0,,,,,,,,,,,,,,029,2022-05-25_19h47.23.276,Main,2022.1.1,58.974886690683974,
positive,yellow,1,None,k,,,,,,,,,0,216,216,216,,,,,,,,,,,,,,,,,main,k,k,1,0.832090099924244,696.4328902999405,None,None,0,,,,,,,,,,,,,,029,2022-05-25_19h47.23.276,Main,2022.1.1,58.974886690683974,
positive,yellow,2,None,k,,,,,,,,,0,217,217,217,,,,,,,,,,,,,,,,,main,k,k,1,1.1320258000632748,698.2662335999776,None,None,0,,,,,,,,,,,,,,029,2022-05-25_19h47.23.276,Main,2022.1.1,58.974886690683974,
negative,blue,1,None,k,,,,,,,,,0,218,218,218,,,,,,,,,,,,,,,,,main,k,k,1,0.9104005000554025,700.399391300045,None,None,0,,,,,,,,,,,,,,029,2022-05-25_19h47.23.276,Main,2022.1.1,58.974886690683974,
positive,red,2,None,None,,,,,,,,,0,219,219,219,,,,,,,,,,,,,,,,,main,None,None,1,1.5041963000549003,702.313580899965,None,None,1,,,,,,,,,,,,,,029,2022-05-25_19h47.23.276,Main,2022.1.1,58.974886690683974,
positive,yellow,1,None,k,,,,,,,,,0,220,220,220,,,,,,,,,,,,,,,,,main,k,k,1,0.6662554000504315,704.8157261000015,None,None,0,,,,,,,,,,,,,,029,2022-05-25_19h47.23.276,Main,2022.1.1,58.974886690683974,
positive,blue,1,k,None,,,,,,,,,0,221,221,221,,,,,,,,,,,,,,,,,main,None,None,1,1.4993035000516102,706.4827181999572,None,None,1,,,,,,,,,,,,,,029,2022-05-25_19h47.23.276,Main,2022.1.1,58.974886690683974,
positive,yellow,2,None,k,,,,,,,,,0,222,222,222,,,,,,,,,,,,,,,,,main,k,k,1,0.6648341999389231,708.9822603999637,None,None,0,,,,,,,,,,,,,,029,2022-05-25_19h47.23.276,Main,2022.1.1,58.974886690683974,
negative,yellow,1,k,None,,,,,,,,,0,223,223,223,,,,,,,,,,,,,,,,,main,None,None,1,1.501589999999851,710.6489565999946,None,None,1,,,,,,,,,,,,,,029,2022-05-25_19h47.23.276,Main,2022.1.1,58.974886690683974,
positive,yellow,2,None,k,,,,,,,,,0,224,224,224,,,,,,,,,,,,,,,,,main,k,k,1,0.6302843999583274,713.1515951999463,None,None,0,,,,,,,,,,,,,,029,2022-05-25_19h47.23.276,Main,2022.1.1,58.974886690683974,
negative,yellow,2,k,None,,,,,,,,,0,225,225,225,,,,,,,,,,,,,,,,,main,None,None,1,1.499134200043045,714.7849758999655,None,None,1,,,,,,,,,,,,,,029,2022-05-25_19h47.23.276,Main,2022.1.1,58.974886690683974,
negative,blue,2,None,k,,,,,,,,,0,226,226,226,,,,,,,,,,,,,,,,,main,k,k,1,0.7817866000114009,717.2820891999872,None,None,0,,,,,,,,,,,,,,029,2022-05-25_19h47.23.276,Main,2022.1.1,58.974886690683974,
positive,red,2,None,None,,,,,,,,,0,227,227,227,,,,,,,,,,,,,,,,,main,None,None,1,1.499364500050433,719.0657727000071,None,None,1,,,,,,,,,,,,,,029,2022-05-25_19h47.23.276,Main,2022.1.1,58.974886690683974,
positive,blue,2,k,None,,,,,,,,,0,228,228,228,,,,,,,,,,,,,,,,,main,None,k,0,0.5981482000788674,721.5653162000235,None,None,1,,,,,,,,,,,,,,029,2022-05-25_19h47.23.276,Main,2022.1.1,58.974886690683974,
negative,blue,1,None,k,,,,,,,,,0,229,229,229,,,,,,,,,,,,,,,,,main,k,k,1,0.6869861999293789,724.165318400017,None,None,0,,,,,,,,,,,,,,029,2022-05-25_19h47.23.276,Main,2022.1.1,58.974886690683974,
positive,yellow,1,None,k,,,,,,,,,0,230,230,230,,,,,,,,,,,,,,,,,main,k,k,1,1.2484423000132665,725.8513321999926,None,None,0,,,,,,,,,,,,,,029,2022-05-25_19h47.23.276,Main,2022.1.1,58.974886690683974,
negative,blue,2,None,k,,,,,,,,,0,231,231,231,,,,,,,,,,,,,,,,,main,k,k,1,0.7307911000680178,728.1011363000143,None,None,0,,,,,,,,,,,,,,029,2022-05-25_19h47.23.276,Main,2022.1.1,58.974886690683974,
negative,red,1,None,None,,,,,,,,,0,232,232,232,,,,,,,,,,,,,,,,,main,None,None,1,1.4985085999360308,729.831816000049,None,None,1,,,,,,,,,,,,,,029,2022-05-25_19h47.23.276,Main,2022.1.1,58.974886690683974,
positive,blue,2,k,None,,,,,,,,,0,233,233,233,,,,,,,,,,,,,,,,,main,None,None,1,1.5005467999726534,732.3318727000151,None,None,1,,,,,,,,,,,,,,029,2022-05-25_19h47.23.276,Main,2022.1.1,58.974886690683974,
negative,yellow,1,k,None,,,,,,,,,0,234,234,234,,,,,,,,,,,,,,,,,main,None,None,1,1.4973263000138104,734.8344366999809,None,None,1,,,,,,,,,,,,,,029,2022-05-25_19h47.23.276,Main,2022.1.1,58.974886690683974,
negative,yellow,2,k,None,,,,,,,,,0,235,235,235,,,,,,,,,,,,,,,,,main,None,None,1,1.5005462000845,737.3316781000467,None,None,1,,,,,,,,,,,,,,029,2022-05-25_19h47.23.276,Main,2022.1.1,58.974886690683974,
positive,red,1,None,None,,,,,,,,,0,236,236,236,,,,,,,,,,,,,,,,,main,None,None,1,1.4992268000496551,739.8344660999719,None,None,1,,,,,,,,,,,,,,029,2022-05-25_19h47.23.276,Main,2022.1.1,58.974886690683974,
negative,red,2,None,None,,,,,,,,,0,237,237,237,,,,,,,,,,,,,,,,,main,None,None,1,1.4972277999622747,742.3343244999414,None,None,1,,,,,,,,,,,,,,029,2022-05-25_19h47.23.276,Main,2022.1.1,58.974886690683974,
negative,blue,1,None,k,,,,,,,,,0,238,238,238,,,,,,,,,,,,,,,,,main,k,k,1,0.9151332000037655,744.8315639999928,None,None,0,,,,,,,,,,,,,,029,2022-05-25_19h47.23.276,Main,2022.1.1,58.974886690683974,
positive,blue,1,k,None,,,,,,,,,0,239,239,239,,,,,,,,,,,,,,,,,main,None,None,1,1.499316200031899,746.748524799943,None,None,1,,,,,,,,,,,,,,029,2022-05-25_19h47.23.276,Main,2022.1.1,58.974886690683974,
,,,,,,,,,,,,,,,,,,,,,,,,,,,,,,,,,,,,,,,,,,,,,,,,,,,,,749.2480846999679,None,,,,,,
