distractor,target,set,ans1,ans2,rep_loop4.thisRepN,rep_loop4.thisTrialN,rep_loop4.thisN,rep_loop4.thisIndex,st2_prac_loop.thisRepN,st2_prac_loop.thisTrialN,st2_prac_loop.thisN,st2_prac_loop.thisIndex,st2_main_loop.thisRepN,st2_main_loop.thisTrialN,st2_main_loop.thisN,st2_main_loop.thisIndex,image_4.started,image_4.stopped,sound_2.started,sound_2.stopped,key_resp_3.keys,key_resp_3.rt,image_5.started,image_5.stopped,st_prac_back.started,st_prac_back.stopped,st_prac_text.started,st_prac_text.stopped,st_fix_back.started,st_fix_back.stopped,st_fix_2.started,st_fix_2.stopped,main_prac,st_ans,st_res,st_corr,st_rt,st_back.started,st_back.stopped,st2_resp.keys,st2_resp.corr,st_main_back.started,st_main_back.stopped,st_main_text.started,st_main_text.stopped,mouse_4.x,mouse_4.y,mouse_4.leftButton,mouse_4.midButton,mouse_4.rightButton,mouse_4.started,mouse_4.stopped,text_2.started,text_2.stopped,id*,date,expName,psychopyVersion,frameRate,
negative,yellow,1,k,None,,,,,0,0,0,0,,,,,31.126972600002773,None,34.554452260071415,None,space,57.86432460008655,92.4361580000259,None,93.5061476000119,None,93.5061476000119,None,95.51737540005706,None,95.51737540005706,None,prac,k,k,1,1.4933643999975175,97.5199227000121,None,None,0,,,,,,,,,,,,,,030,2022-05-26_10h39.15.702,Main,2022.1.1,61.078064488548854,
positive,red,2,None,None,,,,,0,1,1,1,,,,,,,,,,,,,,,,,,,,,prac,None,None,1,1.4968358000041917,100.02032110001892,None,None,1,,,,,,,,,,,,,,030,2022-05-26_10h39.15.702,Main,2022.1.1,61.078064488548854,
negative,blue,2,None,k,,,,,0,2,2,2,,,,,,,,,,,,,,,,,,,,,prac,None,None,1,1.5005725000519305,102.51979190006386,None,None,1,,,,,,,,,,,,,,030,2022-05-26_10h39.15.702,Main,2022.1.1,61.078064488548854,
positive,yellow,1,None,k,,,,,0,3,3,3,,,,,,,,,,,,,,,,,,,,,prac,None,None,1,1.4989680999424309,105.01960960007273,None,None,1,,,,,,,,,,,,,,030,2022-05-26_10h39.15.702,Main,2022.1.1,61.078064488548854,
negative,blue,2,None,k,,,,,0,4,4,4,,,,,,,,,,,,,,,,,,,,,prac,None,None,1,1.4974019998917356,107.51949610002339,None,None,1,,,,,,,,,,,,,,030,2022-05-26_10h39.15.702,Main,2022.1.1,61.078064488548854,
negative,blue,1,None,k,,,,,0,5,5,5,,,,,,,,,,,,,,,,,,,,,prac,None,None,1,1.500671899993904,110.01684360008221,None,None,1,,,,,,,,,,,,,,030,2022-05-26_10h39.15.702,Main,2022.1.1,61.078064488548854,
negative,yellow,2,k,None,,,,,0,6,6,6,,,,,,,,,,,,,,,,,,,,,prac,k,k,1,1.282806699979119,112.51955160009675,None,None,0,,,,,,,,,,,,,,030,2022-05-26_10h39.15.702,Main,2022.1.1,61.078064488548854,
negative,red,1,None,None,,,,,0,7,7,7,,,,,,,,,,,,,,,,,,,,,prac,None,None,1,1.4969363999553025,114.80332320008893,None,None,1,,,,,,,,,,,,,,030,2022-05-26_10h39.15.702,Main,2022.1.1,61.078064488548854,
positive,yellow,2,None,k,,,,,0,8,8,8,,,,,,,,,,,,,,,,,,,,,prac,None,None,1,1.5007478999905288,117.30158080009278,None,None,1,,,,,,,,,,,,,,030,2022-05-26_10h39.15.702,Main,2022.1.1,61.078064488548854,
negative,yellow,1,k,None,,,,,0,9,9,9,,,,,,,,,,,,,,,,,,,,,prac,k,k,1,1.4802158999955282,119.8029468000168,None,None,0,,,,,,,,,,,,,,030,2022-05-26_10h39.15.702,Main,2022.1.1,61.078064488548854,
positive,yellow,2,None,k,,,,,0,10,10,10,,,,,,,,,,,,,,,,,,,,,prac,None,None,1,1.499178700032644,122.2835716000991,None,None,1,,,,,,,,,,,,,,030,2022-05-26_10h39.15.702,Main,2022.1.1,61.078064488548854,
negative,yellow,2,k,None,,,,,0,11,11,11,,,,,,,,,,,,,,,,,,,,,prac,k,k,1,0.9482444999739528,124.78322800004389,None,None,0,,,,,,,,,,,,,,030,2022-05-26_10h39.15.702,Main,2022.1.1,61.078064488548854,
negative,red,2,None,None,,,,,0,12,12,12,,,,,,,,,,,,,,,,,,,,,prac,None,None,1,1.5013132999883965,126.73324990004767,None,None,1,,,,,,,,,,,,,,030,2022-05-26_10h39.15.702,Main,2022.1.1,61.078064488548854,
positive,red,1,None,None,,,,,0,13,13,13,,,,,,,,,,,,,,,,,,,,,prac,None,None,1,1.4999420999083668,129.23585320007987,None,None,1,,,,,,,,,,,,,,030,2022-05-26_10h39.15.702,Main,2022.1.1,61.078064488548854,
positive,blue,2,k,None,,,,,0,14,14,14,,,,,,,,,,,,,,,,,,,,,prac,k,k,1,1.0123424000339583,131.73341029998846,None,None,0,,,,,,,,,,,,,,030,2022-05-26_10h39.15.702,Main,2022.1.1,61.078064488548854,
positive,blue,1,k,None,,,,,0,15,15,15,,,,,,,,,,,,,,,,,,,,,prac,k,k,1,0.9511583000421524,133.7503384000156,None,None,0,,,,,,,,,,,,,,030,2022-05-26_10h39.15.702,Main,2022.1.1,61.078064488548854,
negative,blue,1,None,k,,,,,0,16,16,16,,,,,,,,,,,,,,,,,,,,,prac,None,None,1,1.4967447000090033,135.69993980007712,None,None,1,,,,,,,,,,,,,,030,2022-05-26_10h39.15.702,Main,2022.1.1,61.078064488548854,
positive,blue,2,k,None,,,,,0,17,17,17,,,,,,,,,,,,,,,,,,,,,prac,k,k,1,0.9157876999815926,138.20229280006606,None,None,0,,,,,,,,,,,,,,030,2022-05-26_10h39.15.702,Main,2022.1.1,61.078064488548854,
positive,blue,1,k,None,,,,,0,18,18,18,,,,,,,,,,,,,,,,,,,,,prac,k,k,1,0.9497897000983357,140.11622560000978,None,None,0,,,,,,,,,,,,,,030,2022-05-26_10h39.15.702,Main,2022.1.1,61.078064488548854,
positive,yellow,1,None,k,,,,,0,19,19,19,,,,,,,,,,,,,,,,,,,,,prac,None,None,1,1.5010500000789762,142.06896619999316,None,None,1,,,,,,,,,,,,,,030,2022-05-26_10h39.15.702,Main,2022.1.1,61.078064488548854,
negative,yellow,1,k,None,,,,,1,0,20,0,,,,,,,,,,,,,,,,,,,,,prac,k,k,1,0.8133003000402823,144.56890870002098,None,None,0,,,,,,,,,,,,,,030,2022-05-26_10h39.15.702,Main,2022.1.1,61.078064488548854,
positive,red,2,None,None,,,,,1,1,21,1,,,,,,,,,,,,,,,,,,,,,prac,None,None,1,1.501887199934572,146.3827706000302,None,None,1,,,,,,,,,,,,,,030,2022-05-26_10h39.15.702,Main,2022.1.1,61.078064488548854,
negative,blue,2,None,k,,,,,1,2,22,2,,,,,,,,,,,,,,,,,,,,,prac,None,None,1,1.4992843999061733,148.88548110006377,None,None,1,,,,,,,,,,,,,,030,2022-05-26_10h39.15.702,Main,2022.1.1,61.078064488548854,
positive,yellow,1,None,k,,,,,1,3,23,3,,,,,,,,,,,,,,,,,,,,,prac,None,None,1,1.4969228999689221,151.38563929998782,None,None,1,,,,,,,,,,,,,,030,2022-05-26_10h39.15.702,Main,2022.1.1,61.078064488548854,
negative,blue,2,None,k,,,,,1,4,24,4,,,,,,,,,,,,,,,,,,,,,prac,None,None,1,1.5004904998932034,153.88293790002353,None,None,1,,,,,,,,,,,,,,030,2022-05-26_10h39.15.702,Main,2022.1.1,61.078064488548854,
negative,blue,1,None,k,,,,,1,5,25,5,,,,,,,,,,,,,,,,,,,,,prac,None,None,1,1.4992578000528738,156.38531630008947,None,None,1,,,,,,,,,,,,,,030,2022-05-26_10h39.15.702,Main,2022.1.1,61.078064488548854,
negative,yellow,2,k,None,,,,,1,6,26,6,,,,,,,,,,,,,,,,,,,,,prac,k,k,1,1.6968678999692202,158.88532250002027,None,None,0,,,,,,,,,,,,,,030,2022-05-26_10h39.15.702,Main,2022.1.1,61.078064488548854,
negative,red,1,None,None,,,,,1,7,27,7,,,,,,,,,,,,,,,,,,,,,prac,None,None,1,1.5032445000251755,162.5991235000547,None,None,1,,,,,,,,,,,,,,030,2022-05-26_10h39.15.702,Main,2022.1.1,61.078064488548854,
positive,yellow,2,None,k,,,,,1,8,28,8,,,,,,,,,,,,,,,,,,,,,prac,None,None,1,1.4990847000153735,165.1018427000381,None,None,1,,,,,,,,,,,,,,030,2022-05-26_10h39.15.702,Main,2022.1.1,61.078064488548854,
negative,yellow,1,k,None,,,,,1,9,29,9,,,,,,,,,,,,,,,,,,,,,prac,k,k,1,0.8147714000660926,167.6018011000706,None,None,0,,,,,,,,,,,,,,030,2022-05-26_10h39.15.702,Main,2022.1.1,61.078064488548854,
positive,yellow,2,None,k,,,,,1,10,30,10,,,,,,,,,,,,,,,,,,,,,prac,None,None,1,1.4988807000918314,169.41849180008285,None,None,1,,,,,,,,,,,,,,030,2022-05-26_10h39.15.702,Main,2022.1.1,61.078064488548854,
negative,yellow,2,k,None,,,,,1,11,31,11,,,,,,,,,,,,,,,,,,,,,prac,k,k,1,0.8300801999866962,171.91556990006939,None,None,0,,,,,,,,,,,,,,030,2022-05-26_10h39.15.702,Main,2022.1.1,61.078064488548854,
negative,red,2,None,None,,,,,1,12,32,12,,,,,,,,,,,,,,,,,,,,,prac,None,None,1,1.5016407000366598,173.748954800074,None,None,1,,,,,,,,,,,,,,030,2022-05-26_10h39.15.702,Main,2022.1.1,61.078064488548854,
positive,red,1,None,None,,,,,1,13,33,13,,,,,,,,,,,,,,,,,,,,,prac,None,None,1,1.496763200033456,176.2516240000259,None,None,1,,,,,,,,,,,,,,030,2022-05-26_10h39.15.702,Main,2022.1.1,61.078064488548854,
positive,blue,2,k,None,,,,,1,14,34,14,,,,,,,,,,,,,,,,,,,,,prac,k,k,1,0.8662468999391422,178.7490667999955,None,None,0,,,,,,,,,,,,,,030,2022-05-26_10h39.15.702,Main,2022.1.1,61.078064488548854,
positive,blue,1,k,None,,,,,1,15,35,15,,,,,,,,,,,,,,,,,,,,,prac,k,k,1,0.6813725000247359,180.6154018000234,None,None,0,,,,,,,,,,,,,,030,2022-05-26_10h39.15.702,Main,2022.1.1,61.078064488548854,
negative,blue,1,None,k,,,,,1,16,36,16,,,,,,,,,,,,,,,,,,,,,prac,None,None,1,1.5015136000001803,182.29875479999464,None,None,1,,,,,,,,,,,,,,030,2022-05-26_10h39.15.702,Main,2022.1.1,61.078064488548854,
positive,blue,2,k,None,,,,,1,17,37,17,,,,,,,,,,,,,,,,,,,,,prac,k,k,1,0.8468494999688119,184.80144910002127,None,None,0,,,,,,,,,,,,,,030,2022-05-26_10h39.15.702,Main,2022.1.1,61.078064488548854,
positive,blue,1,k,None,,,,,1,18,38,18,,,,,,,,,,,,,,,,,,,,,prac,k,k,1,0.8320904000429437,186.64891890005674,None,None,0,,,,,,,,,,,,,,030,2022-05-26_10h39.15.702,Main,2022.1.1,61.078064488548854,
positive,yellow,1,None,k,,,,,1,19,39,19,,,,,,,,,,,,,,,,,,,,,prac,None,None,1,1.4998391000553966,188.48192729998846,None,None,1,,,,,,,,,,,,,,030,2022-05-26_10h39.15.702,Main,2022.1.1,61.078064488548854,
,,,,,,,,,,,,,,,,,,,,,,,,,,,,,,,,,,,,,,,,,,190.98213040002156,None,190.98213040002156,None,0.22685185,0.0055555557,0,0,0,0.013236860046163201,None,,,030,2022-05-26_10h39.15.702,Main,2022.1.1,61.078064488548854,
negative,yellow,2,k,None,,,,,,,,,0,0,0,0,,,,,,,,,,,,,192.26823980000336,None,192.26823980000336,None,main,k,k,1,1.0874539000215009,194.3027111000847,None,None,0,,,,,,,,,,,,,,030,2022-05-26_10h39.15.702,Main,2022.1.1,61.078064488548854,
positive,red,1,None,None,,,,,,,,,0,1,1,1,,,,,,,,,,,,,,,,,main,None,None,1,1.501049599959515,196.39844330004416,None,None,1,,,,,,,,,,,,,,030,2022-05-26_10h39.15.702,Main,2022.1.1,61.078064488548854,
positive,blue,2,k,None,,,,,,,,,0,2,2,2,,,,,,,,,,,,,,,,,main,k,k,1,0.9302153000608087,198.90112150006462,None,None,0,,,,,,,,,,,,,,030,2022-05-26_10h39.15.702,Main,2022.1.1,61.078064488548854,
positive,blue,1,k,None,,,,,,,,,0,3,3,3,,,,,,,,,,,,,,,,,main,k,k,1,0.6659514000639319,200.83195070002694,None,None,0,,,,,,,,,,,,,,030,2022-05-26_10h39.15.702,Main,2022.1.1,61.078064488548854,
negative,yellow,2,k,None,,,,,,,,,0,4,4,4,,,,,,,,,,,,,,,,,main,k,k,1,0.7822575999889523,202.50099890003912,None,None,0,,,,,,,,,,,,,,030,2022-05-26_10h39.15.702,Main,2022.1.1,61.078064488548854,
positive,yellow,2,None,k,,,,,,,,,0,5,5,5,,,,,,,,,,,,,,,,,main,None,None,1,1.5006784000433981,204.28183440002613,None,None,1,,,,,,,,,,,,,,030,2022-05-26_10h39.15.702,Main,2022.1.1,61.078064488548854,
negative,blue,2,None,k,,,,,,,,,0,6,6,6,,,,,,,,,,,,,,,,,main,None,None,1,1.4968082000268623,206.7818252000725,None,None,1,,,,,,,,,,,,,,030,2022-05-26_10h39.15.702,Main,2022.1.1,61.078064488548854,
positive,red,2,None,None,,,,,,,,,0,7,7,7,,,,,,,,,,,,,,,,,main,None,None,1,1.5015762000111863,209.28169750003144,None,None,1,,,,,,,,,,,,,,030,2022-05-26_10h39.15.702,Main,2022.1.1,61.078064488548854,
positive,yellow,1,None,k,,,,,,,,,0,8,8,8,,,,,,,,,,,,,,,,,main,None,None,1,1.4962982999859378,211.78408760007005,None,None,1,,,,,,,,,,,,,,030,2022-05-26_10h39.15.702,Main,2022.1.1,61.078064488548854,
negative,red,1,None,None,,,,,,,,,0,9,9,9,,,,,,,,,,,,,,,,,main,None,None,1,1.5017433000029996,214.28136200003792,None,None,1,,,,,,,,,,,,,,030,2022-05-26_10h39.15.702,Main,2022.1.1,61.078064488548854,
positive,yellow,1,None,k,,,,,,,,,0,10,10,10,,,,,,,,,,,,,,,,,main,None,None,1,1.4992057000054047,216.78407100006007,None,None,1,,,,,,,,,,,,,,030,2022-05-26_10h39.15.702,Main,2022.1.1,61.078064488548854,
negative,yellow,1,k,None,,,,,,,,,0,11,11,11,,,,,,,,,,,,,,,,,main,k,k,1,1.663589600007981,219.28403820004314,None,None,0,,,,,,,,,,,,,,030,2022-05-26_10h39.15.702,Main,2022.1.1,61.078064488548854,
negative,yellow,1,k,None,,,,,,,,,0,12,12,12,,,,,,,,,,,,,,,,,main,k,k,1,0.949027800001204,222.96473260002676,None,None,0,,,,,,,,,,,,,,030,2022-05-26_10h39.15.702,Main,2022.1.1,61.078064488548854,
negative,red,2,None,None,,,,,,,,,0,13,13,13,,,,,,,,,,,,,,,,,main,None,None,1,1.5026782000204548,224.90664749999996,None,None,1,,,,,,,,,,,,,,030,2022-05-26_10h39.15.702,Main,2022.1.1,61.078064488548854,
positive,yellow,2,None,k,,,,,,,,,0,14,14,14,,,,,,,,,,,,,,,,,main,None,None,1,1.4966150000691414,227.41717390005942,None,None,1,,,,,,,,,,,,,,030,2022-05-26_10h39.15.702,Main,2022.1.1,61.078064488548854,
positive,blue,1,k,None,,,,,,,,,0,15,15,15,,,,,,,,,,,,,,,,,main,k,k,1,1.0822983999969438,229.9170410000952,None,None,0,,,,,,,,,,,,,,030,2022-05-26_10h39.15.702,Main,2022.1.1,61.078064488548854,
negative,blue,1,None,k,,,,,,,,,0,16,16,16,,,,,,,,,,,,,,,,,main,None,None,1,1.501643699943088,231.99767180008348,None,None,1,,,,,,,,,,,,,,030,2022-05-26_10h39.15.702,Main,2022.1.1,61.078064488548854,
positive,blue,2,k,None,,,,,,,,,0,17,17,17,,,,,,,,,,,,,,,,,main,k,k,1,0.7640899999532849,234.50039230007678,None,None,0,,,,,,,,,,,,,,030,2022-05-26_10h39.15.702,Main,2022.1.1,61.078064488548854,
negative,blue,2,None,k,,,,,,,,,0,18,18,18,,,,,,,,,,,,,,,,,main,None,None,1,1.4983542000409216,236.26695190009195,None,None,1,,,,,,,,,,,,,,030,2022-05-26_10h39.15.702,Main,2022.1.1,61.078064488548854,
negative,blue,1,None,k,,,,,,,,,0,19,19,19,,,,,,,,,,,,,,,,,main,None,None,1,1.4999316999455914,238.76448470004834,None,None,1,,,,,,,,,,,,,,030,2022-05-26_10h39.15.702,Main,2022.1.1,61.078064488548854,
negative,blue,1,None,k,,,,,,,,,0,20,20,20,,,,,,,,,,,,,,,,,main,None,None,1,1.4997738000238314,241.26413650007453,None,None,1,,,,,,,,,,,,,,030,2022-05-26_10h39.15.702,Main,2022.1.1,61.078064488548854,
negative,blue,2,None,k,,,,,,,,,0,21,21,21,,,,,,,,,,,,,,,,,main,None,None,1,1.4992198999971151,243.76686700002756,None,None,1,,,,,,,,,,,,,,030,2022-05-26_10h39.15.702,Main,2022.1.1,61.078064488548854,
negative,red,1,None,None,,,,,,,,,0,22,22,22,,,,,,,,,,,,,,,,,main,None,None,1,1.4970921999774873,246.26433100004215,None,None,1,,,,,,,,,,,,,,030,2022-05-26_10h39.15.702,Main,2022.1.1,61.078064488548854,
positive,red,2,None,None,,,,,,,,,0,23,23,23,,,,,,,,,,,,,,,,,main,None,None,1,1.5007006999803707,248.76404220005497,None,None,1,,,,,,,,,,,,,,030,2022-05-26_10h39.15.702,Main,2022.1.1,61.078064488548854,
negative,red,2,None,None,,,,,,,,,0,24,24,24,,,,,,,,,,,,,,,,,main,None,None,1,1.4988387000048533,251.26663600001484,None,None,1,,,,,,,,,,,,,,030,2022-05-26_10h39.15.702,Main,2022.1.1,61.078064488548854,
positive,blue,2,k,None,,,,,,,,,0,25,25,25,,,,,,,,,,,,,,,,,main,k,k,1,2.1132923000259325,253.76667280006222,None,None,0,,,,,,,,,,,,,,030,2022-05-26_10h39.15.702,Main,2022.1.1,61.078064488548854,
negative,yellow,1,k,None,,,,,,,,,0,26,26,26,,,,,,,,,,,,,,,,,main,k,k,1,0.9347287999698892,257.8832425000146,None,None,0,,,,,,,,,,,,,,030,2022-05-26_10h39.15.702,Main,2022.1.1,61.078064488548854,
positive,blue,2,k,None,,,,,,,,,0,27,27,27,,,,,,,,,,,,,,,,,main,k,k,1,0.8652900999877602,259.8144030000549,None,None,0,,,,,,,,,,,,,,030,2022-05-26_10h39.15.702,Main,2022.1.1,61.078064488548854,
negative,blue,2,None,k,,,,,,,,,0,28,28,28,,,,,,,,,,,,,,,,,main,None,None,1,1.4972275999607518,261.68070730008185,None,None,1,,,,,,,,,,,,,,030,2022-05-26_10h39.15.702,Main,2022.1.1,61.078064488548854,
positive,red,1,None,None,,,,,,,,,0,29,29,29,,,,,,,,,,,,,,,,,main,None,None,1,1.5004368999507278,264.18066900002304,None,None,1,,,,,,,,,,,,,,030,2022-05-26_10h39.15.702,Main,2022.1.1,61.078064488548854,
positive,blue,1,k,None,,,,,,,,,0,30,30,30,,,,,,,,,,,,,,,,,main,k,k,1,0.7803460999857634,266.6831035000505,None,None,0,,,,,,,,,,,,,,030,2022-05-26_10h39.15.702,Main,2022.1.1,61.078064488548854,
positive,yellow,1,None,k,,,,,,,,,0,31,31,31,,,,,,,,,,,,,,,,,main,None,None,1,1.4992115000495687,268.46631660009734,None,None,1,,,,,,,,,,,,,,030,2022-05-26_10h39.15.702,Main,2022.1.1,61.078064488548854,
negative,yellow,2,k,None,,,,,,,,,0,32,32,32,,,,,,,,,,,,,,,,,main,k,k,1,1.0820373999886215,270.9663494999986,None,None,0,,,,,,,,,,,,,,030,2022-05-26_10h39.15.702,Main,2022.1.1,61.078064488548854,
negative,blue,1,None,k,,,,,,,,,0,33,33,33,,,,,,,,,,,,,,,,,main,None,None,1,1.5015456000110134,273.04685030004475,None,None,1,,,,,,,,,,,,,,030,2022-05-26_10h39.15.702,Main,2022.1.1,61.078064488548854,
positive,blue,1,k,None,,,,,,,,,0,34,34,34,,,,,,,,,,,,,,,,,main,k,k,1,0.7328503000317141,275.5495172000956,None,None,0,,,,,,,,,,,,,,030,2022-05-26_10h39.15.702,Main,2022.1.1,61.078064488548854,
negative,yellow,1,k,None,,,,,,,,,0,35,35,35,,,,,,,,,,,,,,,,,main,k,k,1,0.7461263000732288,277.28281440003775,None,None,0,,,,,,,,,,,,,,030,2022-05-26_10h39.15.702,Main,2022.1.1,61.078064488548854,
positive,yellow,2,None,k,,,,,,,,,0,36,36,36,,,,,,,,,,,,,,,,,main,None,None,1,1.5018519000150263,279.03002579999156,None,None,1,,,,,,,,,,,,,,030,2022-05-26_10h39.15.702,Main,2022.1.1,61.078064488548854,
positive,yellow,2,None,k,,,,,,,,,0,37,37,37,,,,,,,,,,,,,,,,,main,None,None,1,1.4989655000390485,281.53274350007996,None,None,1,,,,,,,,,,,,,,030,2022-05-26_10h39.15.702,Main,2022.1.1,61.078064488548854,
negative,yellow,2,k,None,,,,,,,,,0,38,38,38,,,,,,,,,,,,,,,,,main,k,k,1,1.0133363999193534,284.0327467999887,None,None,0,,,,,,,,,,,,,,030,2022-05-26_10h39.15.702,Main,2022.1.1,61.078064488548854,
positive,yellow,1,None,k,,,,,,,,,0,39,39,39,,,,,,,,,,,,,,,,,main,None,None,1,1.501681900001131,286.04656730010174,None,None,1,,,,,,,,,,,,,,030,2022-05-26_10h39.15.702,Main,2022.1.1,61.078064488548854,
negative,yellow,2,k,None,,,,,,,,,0,40,40,40,,,,,,,,,,,,,,,,,main,k,k,1,1.0327586000785232,288.54927590000443,None,None,0,,,,,,,,,,,,,,030,2022-05-26_10h39.15.702,Main,2022.1.1,61.078064488548854,
positive,blue,2,k,None,,,,,,,,,0,41,41,41,,,,,,,,,,,,,,,,,main,k,k,1,0.9963843999430537,290.5825862000929,None,None,0,,,,,,,,,,,,,,030,2022-05-26_10h39.15.702,Main,2022.1.1,61.078064488548854,
positive,blue,2,k,None,,,,,,,,,0,42,42,42,,,,,,,,,,,,,,,,,main,k,k,1,0.6178438999922946,292.579764300026,None,None,0,,,,,,,,,,,,,,030,2022-05-26_10h39.15.702,Main,2022.1.1,61.078064488548854,
negative,blue,2,None,k,,,,,,,,,0,43,43,43,,,,,,,,,,,,,,,,,main,None,None,1,1.499120399937965,294.19918009999674,None,None,1,,,,,,,,,,,,,,030,2022-05-26_10h39.15.702,Main,2022.1.1,61.078064488548854,
negative,red,1,None,None,,,,,,,,,0,44,44,44,,,,,,,,,,,,,,,,,main,None,None,1,1.4981266000540927,296.6970081999898,None,None,1,,,,,,,,,,,,,,030,2022-05-26_10h39.15.702,Main,2022.1.1,61.078064488548854,
negative,yellow,1,k,None,,,,,,,,,0,45,45,45,,,,,,,,,,,,,,,,,main,k,k,1,0.8497819000622258,299.1966196000576,None,None,0,,,,,,,,,,,,,,030,2022-05-26_10h39.15.702,Main,2022.1.1,61.078064488548854,
negative,yellow,1,k,None,,,,,,,,,0,46,46,46,,,,,,,,,,,,,,,,,main,k,k,1,0.7989855000050738,301.04692900006194,None,None,0,,,,,,,,,,,,,,030,2022-05-26_10h39.15.702,Main,2022.1.1,61.078064488548854,
positive,red,1,None,None,,,,,,,,,0,47,47,47,,,,,,,,,,,,,,,,,main,None,None,1,1.4971740999026224,302.84903070004657,None,None,1,,,,,,,,,,,,,,030,2022-05-26_10h39.15.702,Main,2022.1.1,61.078064488548854,
positive,yellow,1,None,k,,,,,,,,,0,48,48,48,,,,,,,,,,,,,,,,,main,None,None,1,1.5007823000196368,305.34622669999953,None,None,1,,,,,,,,,,,,,,030,2022-05-26_10h39.15.702,Main,2022.1.1,61.078064488548854,
negative,blue,1,None,k,,,,,,,,,0,49,49,49,,,,,,,,,,,,,,,,,main,None,None,1,1.498891800059937,307.8489832000341,None,None,1,,,,,,,,,,,,,,030,2022-05-26_10h39.15.702,Main,2022.1.1,61.078064488548854,
positive,yellow,2,None,k,,,,,,,,,0,50,50,50,,,,,,,,,,,,,,,,,main,None,None,1,1.4971402999944985,310.34663760010153,None,None,1,,,,,,,,,,,,,,030,2022-05-26_10h39.15.702,Main,2022.1.1,61.078064488548854,
negative,blue,1,None,k,,,,,,,,,0,51,51,51,,,,,,,,,,,,,,,,,main,None,None,1,1.4985889999661595,312.84662670001853,None,None,1,,,,,,,,,,,,,,030,2022-05-26_10h39.15.702,Main,2022.1.1,61.078064488548854,
positive,red,2,None,None,,,,,,,,,0,52,52,52,,,,,,,,,,,,,,,,,main,None,None,1,1.4997466000495479,315.3462569999974,None,None,1,,,,,,,,,,,,,,030,2022-05-26_10h39.15.702,Main,2022.1.1,61.078064488548854,
positive,yellow,2,None,k,,,,,,,,,0,53,53,53,,,,,,,,,,,,,,,,,main,None,None,1,1.5005500999977812,317.8459503999911,None,None,1,,,,,,,,,,,,,,030,2022-05-26_10h39.15.702,Main,2022.1.1,61.078064488548854,
negative,red,2,None,None,,,,,,,,,0,54,54,54,,,,,,,,,,,,,,,,,main,None,None,1,1.4992199999978766,320.34861029998865,None,None,1,,,,,,,,,,,,,,030,2022-05-26_10h39.15.702,Main,2022.1.1,61.078064488548854,
positive,yellow,1,None,k,,,,,,,,,0,55,55,55,,,,,,,,,,,,,,,,,main,None,None,1,1.4972794000059366,322.84858109999914,None,None,1,,,,,,,,,,,,,,030,2022-05-26_10h39.15.702,Main,2022.1.1,61.078064488548854,
negative,blue,2,None,k,,,,,,,,,0,56,56,56,,,,,,,,,,,,,,,,,main,None,None,1,1.4986329999519512,325.3457972999895,None,None,1,,,,,,,,,,,,,,030,2022-05-26_10h39.15.702,Main,2022.1.1,61.078064488548854,
positive,blue,1,k,None,,,,,,,,,0,57,57,57,,,,,,,,,,,,,,,,,main,k,k,1,0.7183469999581575,327.8484793000389,None,None,0,,,,,,,,,,,,,,030,2022-05-26_10h39.15.702,Main,2022.1.1,61.078064488548854,
positive,blue,1,k,None,,,,,,,,,0,58,58,58,,,,,,,,,,,,,,,,,main,k,k,1,0.6960278000915423,329.56513010000344,None,None,0,,,,,,,,,,,,,,030,2022-05-26_10h39.15.702,Main,2022.1.1,61.078064488548854,
negative,yellow,2,k,None,,,,,,,,,0,59,59,59,,,,,,,,,,,,,,,,,main,k,k,1,0.8489162999903783,331.26230880001094,None,None,0,,,,,,,,,,,,,,030,2022-05-26_10h39.15.702,Main,2022.1.1,61.078064488548854,
positive,red,2,None,None,,,,,,,,,0,60,60,60,,,,,,,,,,,,,,,,,main,None,None,1,1.501035699970089,333.1150399000617,None,None,1,,,,,,,,,,,,,,030,2022-05-26_10h39.15.702,Main,2022.1.1,61.078064488548854,
negative,yellow,1,k,None,,,,,,,,,0,61,61,61,,,,,,,,,,,,,,,,,main,k,k,1,3.396669299923815,335.61497370002326,None,None,0,,,,,,,,,,,,,,030,2022-05-26_10h39.15.702,Main,2022.1.1,61.078064488548854,
negative,red,1,None,None,,,,,,,,,0,62,62,62,,,,,,,,,,,,,,,,,main,None,None,1,1.486829400062561,341.01217630004976,None,None,1,,,,,,,,,,,,,,030,2022-05-26_10h39.15.702,Main,2022.1.1,61.078064488548854,
negative,blue,1,None,k,,,,,,,,,0,63,63,63,,,,,,,,,,,,,,,,,main,None,None,1,1.4976331999059767,343.4982624000404,None,None,1,,,,,,,,,,,,,,030,2022-05-26_10h39.15.702,Main,2022.1.1,61.078064488548854,
positive,blue,2,k,None,,,,,,,,,0,64,64,64,,,,,,,,,,,,,,,,,main,k,k,1,0.9807123999344185,345.9953315000748,None,None,0,,,,,,,,,,,,,,030,2022-05-26_10h39.15.702,Main,2022.1.1,61.078064488548854,
negative,yellow,2,k,None,,,,,,,,,0,65,65,65,,,,,,,,,,,,,,,,,main,k,k,1,0.7686051999917254,347.9786897000158,None,None,0,,,,,,,,,,,,,,030,2022-05-26_10h39.15.702,Main,2022.1.1,61.078064488548854,
positive,yellow,2,None,k,,,,,,,,,0,66,66,66,,,,,,,,,,,,,,,,,main,None,None,1,1.4985496000153944,349.7481631000992,None,None,1,,,,,,,,,,,,,,030,2022-05-26_10h39.15.702,Main,2022.1.1,61.078064488548854,
positive,yellow,2,None,k,,,,,,,,,0,67,67,67,,,,,,,,,,,,,,,,,main,None,None,1,1.4963899999856949,352.2459098000545,None,None,1,,,,,,,,,,,,,,030,2022-05-26_10h39.15.702,Main,2022.1.1,61.078064488548854,
positive,red,1,None,None,,,,,,,,,0,68,68,68,,,,,,,,,,,,,,,,,main,None,None,1,1.5019286000169814,354.74540800007526,None,None,1,,,,,,,,,,,,,,030,2022-05-26_10h39.15.702,Main,2022.1.1,61.078064488548854,
positive,yellow,1,None,k,,,,,,,,,0,69,69,69,,,,,,,,,,,,,,,,,main,None,None,1,1.4988649999722838,357.24812910007313,None,None,1,,,,,,,,,,,,,,030,2022-05-26_10h39.15.702,Main,2022.1.1,61.078064488548854,
negative,yellow,2,k,None,,,,,,,,,0,70,70,70,,,,,,,,,,,,,,,,,main,k,k,1,0.8802821999415755,359.74790419999044,None,None,0,,,,,,,,,,,,,,030,2022-05-26_10h39.15.702,Main,2022.1.1,61.078064488548854,
positive,yellow,1,None,k,,,,,,,,,0,71,71,71,,,,,,,,,,,,,,,,,main,None,None,1,1.4987282999791205,361.62864720006473,None,None,1,,,,,,,,,,,,,,030,2022-05-26_10h39.15.702,Main,2022.1.1,61.078064488548854,
negative,blue,1,None,k,,,,,,,,,0,72,72,72,,,,,,,,,,,,,,,,,main,None,None,1,1.4990548000205308,364.12862540001515,None,None,1,,,,,,,,,,,,,,030,2022-05-26_10h39.15.702,Main,2022.1.1,61.078064488548854,
negative,red,2,None,None,,,,,,,,,0,73,73,73,,,,,,,,,,,,,,,,,main,None,None,1,1.4982440000167117,366.6285288000945,None,None,1,,,,,,,,,,,,,,030,2022-05-26_10h39.15.702,Main,2022.1.1,61.078064488548854,
positive,blue,2,k,None,,,,,,,,,0,74,74,74,,,,,,,,,,,,,,,,,main,k,k,1,1.0354809999698773,369.1282097999938,None,None,0,,,,,,,,,,,,,,030,2022-05-26_10h39.15.702,Main,2022.1.1,61.078064488548854,
negative,blue,2,None,k,,,,,,,,,0,75,75,75,,,,,,,,,,,,,,,,,main,None,k,0,0.6664893999695778,371.164458299987,None,None,1,,,,,,,,,,,,,,030,2022-05-26_10h39.15.702,Main,2022.1.1,61.078064488548854,
negative,blue,2,None,k,,,,,,,,,0,76,76,76,,,,,,,,,,,,,,,,,main,None,None,1,1.498359699966386,373.83093310007825,None,None,1,,,,,,,,,,,,,,030,2022-05-26_10h39.15.702,Main,2022.1.1,61.078064488548854,
negative,yellow,1,k,None,,,,,,,,,0,77,77,77,,,,,,,,,,,,,,,,,main,k,k,1,1.166278999997303,376.3283431000309,None,None,0,,,,,,,,,,,,,,030,2022-05-26_10h39.15.702,Main,2022.1.1,61.078064488548854,
positive,blue,1,k,None,,,,,,,,,0,78,78,78,,,,,,,,,,,,,,,,,main,k,k,1,0.9338396999519318,378.49468700005673,None,None,0,,,,,,,,,,,,,,030,2022-05-26_10h39.15.702,Main,2022.1.1,61.078064488548854,
positive,blue,1,k,None,,,,,,,,,0,79,79,79,,,,,,,,,,,,,,,,,main,k,k,1,0.6971921999938786,380.43074139999226,None,None,0,,,,,,,,,,,,,,030,2022-05-26_10h39.15.702,Main,2022.1.1,61.078064488548854,
positive,red,2,None,None,,,,,,,,,0,80,80,80,,,,,,,,,,,,,,,,,main,None,None,1,1.4988298999378458,382.1307895000791,None,None,1,,,,,,,,,,,,,,030,2022-05-26_10h39.15.702,Main,2022.1.1,61.078064488548854,
positive,yellow,2,None,k,,,,,,,,,0,81,81,81,,,,,,,,,,,,,,,,,main,None,None,1,1.4992443999508396,384.63052520004567,None,None,1,,,,,,,,,,,,,,030,2022-05-26_10h39.15.702,Main,2022.1.1,61.078064488548854,
positive,blue,1,k,None,,,,,,,,,0,82,82,82,,,,,,,,,,,,,,,,,main,k,k,1,1.1177866000216454,387.127822700073,None,None,0,,,,,,,,,,,,,,030,2022-05-26_10h39.15.702,Main,2022.1.1,61.078064488548854,
negative,yellow,2,k,None,,,,,,,,,0,83,83,83,,,,,,,,,,,,,,,,,main,k,k,1,0.7323505999520421,389.2473939000629,None,None,0,,,,,,,,,,,,,,030,2022-05-26_10h39.15.702,Main,2022.1.1,61.078064488548854,
positive,blue,2,k,None,,,,,,,,,0,84,84,84,,,,,,,,,,,,,,,,,main,k,k,1,0.9300165999447927,390.9805792000843,None,None,0,,,,,,,,,,,,,,030,2022-05-26_10h39.15.702,Main,2022.1.1,61.078064488548854,
positive,yellow,1,None,k,,,,,,,,,0,85,85,85,,,,,,,,,,,,,,,,,main,None,None,1,1.4992819000035524,392.9137050000718,None,None,1,,,,,,,,,,,,,,030,2022-05-26_10h39.15.702,Main,2022.1.1,61.078064488548854,
positive,blue,2,k,None,,,,,,,,,0,86,86,86,,,,,,,,,,,,,,,,,main,k,k,1,0.8990625999867916,395.4110316000879,None,None,0,,,,,,,,,,,,,,030,2022-05-26_10h39.15.702,Main,2022.1.1,61.078064488548854,
positive,blue,1,k,None,,,,,,,,,0,87,87,87,,,,,,,,,,,,,,,,,main,k,k,1,0.7990489999065176,397.3137577000307,None,None,0,,,,,,,,,,,,,,030,2022-05-26_10h39.15.702,Main,2022.1.1,61.078064488548854,
negative,yellow,2,k,None,,,,,,,,,0,88,88,88,,,,,,,,,,,,,,,,,main,k,k,1,0.7984020999865606,399.113713900093,None,None,0,,,,,,,,,,,,,,030,2022-05-26_10h39.15.702,Main,2022.1.1,61.078064488548854,
negative,blue,2,None,k,,,,,,,,,0,89,89,89,,,,,,,,,,,,,,,,,main,None,None,1,1.4996612999821082,400.91086629999336,None,None,1,,,,,,,,,,,,,,030,2022-05-26_10h39.15.702,Main,2022.1.1,61.078064488548854,
positive,yellow,2,None,k,,,,,,,,,0,90,90,90,,,,,,,,,,,,,,,,,main,None,None,1,1.5005022999830544,403.41112760000397,None,None,1,,,,,,,,,,,,,,030,2022-05-26_10h39.15.702,Main,2022.1.1,61.078064488548854,
negative,yellow,1,k,None,,,,,,,,,0,91,91,91,,,,,,,,,,,,,,,,,main,k,k,1,0.8163014000747353,405.9135624000337,None,None,0,,,,,,,,,,,,,,030,2022-05-26_10h39.15.702,Main,2022.1.1,61.078064488548854,
negative,red,2,None,None,,,,,,,,,0,92,92,92,,,,,,,,,,,,,,,,,main,None,None,1,1.4960972999688238,407.73035319999326,None,None,1,,,,,,,,,,,,,,030,2022-05-26_10h39.15.702,Main,2022.1.1,61.078064488548854,
negative,blue,2,None,k,,,,,,,,,0,93,93,93,,,,,,,,,,,,,,,,,main,None,None,1,1.4997434999095276,410.227668800042,None,None,1,,,,,,,,,,,,,,030,2022-05-26_10h39.15.702,Main,2022.1.1,61.078064488548854,
negative,blue,1,None,k,,,,,,,,,0,94,94,94,,,,,,,,,,,,,,,,,main,None,None,1,1.500512900063768,412.7273242000956,None,None,1,,,,,,,,,,,,,,030,2022-05-26_10h39.15.702,Main,2022.1.1,61.078064488548854,
negative,blue,1,None,k,,,,,,,,,0,95,95,95,,,,,,,,,,,,,,,,,main,None,None,1,1.4965954000363126,415.23005030001514,None,None,1,,,,,,,,,,,,,,030,2022-05-26_10h39.15.702,Main,2022.1.1,61.078064488548854,
negative,red,1,None,None,,,,,,,,,0,96,96,96,,,,,,,,,,,,,,,,,main,None,None,1,1.4999147000489756,417.7331223000074,None,None,1,,,,,,,,,,,,,,030,2022-05-26_10h39.15.702,Main,2022.1.1,61.078064488548854,
positive,yellow,1,None,k,,,,,,,,,0,97,97,97,,,,,,,,,,,,,,,,,main,None,None,1,1.500460400013253,420.2271591000026,None,None,1,,,,,,,,,,,,,,030,2022-05-26_10h39.15.702,Main,2022.1.1,61.078064488548854,
negative,yellow,1,k,None,,,,,,,,,0,98,98,98,,,,,,,,,,,,,,,,,main,k,k,1,0.9159055000636727,422.72990360006224,None,None,0,,,,,,,,,,,,,,030,2022-05-26_10h39.15.702,Main,2022.1.1,61.078064488548854,
positive,red,1,None,None,,,,,,,,,0,99,99,99,,,,,,,,,,,,,,,,,main,None,None,1,1.4966870999196544,424.64652000006754,None,None,1,,,,,,,,,,,,,,030,2022-05-26_10h39.15.702,Main,2022.1.1,61.078064488548854,
positive,blue,1,k,None,,,,,,,,,0,100,100,100,,,,,,,,,,,,,,,,,main,k,k,1,0.9160729999421164,427.1442443000851,None,None,0,,,,,,,,,,,,,,030,2022-05-26_10h39.15.702,Main,2022.1.1,61.078064488548854,
negative,yellow,1,k,None,,,,,,,,,0,101,101,101,,,,,,,,,,,,,,,,,main,k,k,1,0.6823245999403298,429.0609890000196,None,None,0,,,,,,,,,,,,,,030,2022-05-26_10h39.15.702,Main,2022.1.1,61.078064488548854,
negative,blue,2,None,k,,,,,,,,,0,102,102,102,,,,,,,,,,,,,,,,,main,None,None,1,1.4985317999962717,430.74420880002435,None,None,1,,,,,,,,,,,,,,030,2022-05-26_10h39.15.702,Main,2022.1.1,61.078064488548854,
negative,yellow,2,k,None,,,,,,,,,0,103,103,103,,,,,,,,,,,,,,,,,main,k,k,1,0.9658374999416992,433.24413640005514,None,None,0,,,,,,,,,,,,,,030,2022-05-26_10h39.15.702,Main,2022.1.1,61.078064488548854,
positive,yellow,2,None,k,,,,,,,,,0,104,104,104,,,,,,,,,,,,,,,,,main,None,None,1,1.5015201000496745,435.210398400086,None,None,1,,,,,,,,,,,,,,030,2022-05-26_10h39.15.702,Main,2022.1.1,61.078064488548854,
positive,blue,1,k,None,,,,,,,,,0,105,105,105,,,,,,,,,,,,,,,,,main,k,k,1,0.7660197999794036,437.71305190003477,None,None,0,,,,,,,,,,,,,,030,2022-05-26_10h39.15.702,Main,2022.1.1,61.078064488548854,
positive,blue,2,k,None,,,,,,,,,0,106,106,106,,,,,,,,,,,,,,,,,main,k,k,1,0.8963926000287756,439.4795363000594,None,None,0,,,,,,,,,,,,,,030,2022-05-26_10h39.15.702,Main,2022.1.1,61.078064488548854,
negative,blue,1,None,k,,,,,,,,,0,107,107,107,,,,,,,,,,,,,,,,,main,None,None,1,1.4988130999263376,441.3769959000638,None,None,1,,,,,,,,,,,,,,030,2022-05-26_10h39.15.702,Main,2022.1.1,61.078064488548854,
positive,yellow,2,None,k,,,,,,,,,0,108,108,108,,,,,,,,,,,,,,,,,main,None,None,1,1.4989521000534296,443.87687150004786,None,None,1,,,,,,,,,,,,,,030,2022-05-26_10h39.15.702,Main,2022.1.1,61.078064488548854,
negative,yellow,1,k,None,,,,,,,,,0,109,109,109,,,,,,,,,,,,,,,,,main,k,k,1,0.7164764000335708,446.3768737000646,None,None,0,,,,,,,,,,,,,,030,2022-05-26_10h39.15.702,Main,2022.1.1,61.078064488548854,
negative,blue,2,None,k,,,,,,,,,0,110,110,110,,,,,,,,,,,,,,,,,main,None,None,1,1.499232199974358,448.09354630007874,None,None,1,,,,,,,,,,,,,,030,2022-05-26_10h39.15.702,Main,2022.1.1,61.078064488548854,
positive,blue,2,k,None,,,,,,,,,0,111,111,111,,,,,,,,,,,,,,,,,main,k,k,1,0.6842548999702558,450.5932294999948,None,None,0,,,,,,,,,,,,,,030,2022-05-26_10h39.15.702,Main,2022.1.1,61.078064488548854,
negative,blue,1,None,k,,,,,,,,,0,112,112,112,,,,,,,,,,,,,,,,,main,None,None,1,1.4987674999283627,452.2792408000678,None,None,1,,,,,,,,,,,,,,030,2022-05-26_10h39.15.702,Main,2022.1.1,61.078064488548854,
positive,yellow,1,None,k,,,,,,,,,0,113,113,113,,,,,,,,,,,,,,,,,main,None,None,1,1.497356600011699,454.77921960002277,None,None,1,,,,,,,,,,,,,,030,2022-05-26_10h39.15.702,Main,2022.1.1,61.078064488548854,
negative,red,1,None,None,,,,,,,,,0,114,114,114,,,,,,,,,,,,,,,,,main,None,None,1,1.500628300011158,457.27642230002675,None,None,1,,,,,,,,,,,,,,030,2022-05-26_10h39.15.702,Main,2022.1.1,61.078064488548854,
positive,red,1,None,None,,,,,,,,,0,115,115,115,,,,,,,,,,,,,,,,,main,None,None,1,1.4989632000215352,459.77948900009505,None,None,1,,,,,,,,,,,,,,030,2022-05-26_10h39.15.702,Main,2022.1.1,61.078064488548854,
negative,red,2,None,None,,,,,,,,,0,116,116,116,,,,,,,,,,,,,,,,,main,None,None,1,1.4969646000536159,462.27904120006133,None,None,1,,,,,,,,,,,,,,030,2022-05-26_10h39.15.702,Main,2022.1.1,61.078064488548854,
negative,yellow,2,k,None,,,,,,,,,0,117,117,117,,,,,,,,,,,,,,,,,main,k,k,1,1.2823464999673888,464.77652890002355,None,None,0,,,,,,,,,,,,,,030,2022-05-26_10h39.15.702,Main,2022.1.1,61.078064488548854,
positive,yellow,1,None,k,,,,,,,,,0,118,118,118,,,,,,,,,,,,,,,,,main,None,None,1,1.5010571000166237,467.05951390007976,None,None,1,,,,,,,,,,,,,,030,2022-05-26_10h39.15.702,Main,2022.1.1,61.078064488548854,
positive,red,2,None,None,,,,,,,,,0,119,119,119,,,,,,,,,,,,,,,,,main,None,None,1,1.5019508000696078,469.5622617000481,None,None,1,,,,,,,,,,,,,,030,2022-05-26_10h39.15.702,Main,2022.1.1,61.078064488548854,
positive,blue,2,k,None,,,,,,,,,0,120,120,120,,,,,,,,,,,,,,,,,main,k,k,1,0.9295004000887275,472.06325670005754,None,None,0,,,,,,,,,,,,,,030,2022-05-26_10h39.15.702,Main,2022.1.1,61.078064488548854,
negative,red,1,None,None,,,,,,,,,0,121,121,121,,,,,,,,,,,,,,,,,main,None,None,1,1.4972796000074595,473.9929819999961,None,None,1,,,,,,,,,,,,,,030,2022-05-26_10h39.15.702,Main,2022.1.1,61.078064488548854,
positive,yellow,2,None,k,,,,,,,,,0,122,122,122,,,,,,,,,,,,,,,,,main,None,None,1,1.500924100051634,476.4929611000698,None,None,1,,,,,,,,,,,,,,030,2022-05-26_10h39.15.702,Main,2022.1.1,61.078064488548854,
negative,red,2,None,None,,,,,,,,,0,123,123,123,,,,,,,,,,,,,,,,,main,None,None,1,1.4963067999342456,478.9955251000356,None,None,1,,,,,,,,,,,,,,030,2022-05-26_10h39.15.702,Main,2022.1.1,61.078064488548854,
negative,yellow,2,k,None,,,,,,,,,0,124,124,124,,,,,,,,,,,,,,,,,main,k,k,1,1.0498004000401124,481.4931649999926,None,None,0,,,,,,,,,,,,,,030,2022-05-26_10h39.15.702,Main,2022.1.1,61.078064488548854,
positive,red,1,None,None,,,,,,,,,0,125,125,125,,,,,,,,,,,,,,,,,main,None,None,1,1.50160859990865,483.54275290004443,None,None,1,,,,,,,,,,,,,,030,2022-05-26_10h39.15.702,Main,2022.1.1,61.078064488548854,
negative,blue,2,None,k,,,,,,,,,0,126,126,126,,,,,,,,,,,,,,,,,main,None,None,1,1.2319651999277994,486.0452192000812,None,None,1,,,,,,,,,,,,,,030,2022-05-26_10h39.15.702,Main,2022.1.1,61.078064488548854,
negative,blue,1,None,k,,,,,,,,,0,127,127,127,,,,,,,,,,,,,,,,,main,None,None,1,1.4968103000428528,488.27614110009745,None,None,1,,,,,,,,,,,,,,030,2022-05-26_10h39.15.702,Main,2022.1.1,61.078064488548854,
negative,yellow,1,k,None,,,,,,,,,0,128,128,128,,,,,,,,,,,,,,,,,main,k,k,1,1.0344782000174746,490.77568180009257,None,None,0,,,,,,,,,,,,,,030,2022-05-26_10h39.15.702,Main,2022.1.1,61.078064488548854,
negative,yellow,1,k,None,,,,,,,,,0,129,129,129,,,,,,,,,,,,,,,,,main,k,k,1,0.7310787999304011,492.81174620008096,None,None,0,,,,,,,,,,,,,,030,2022-05-26_10h39.15.702,Main,2022.1.1,61.078064488548854,
positive,blue,1,k,None,,,,,,,,,0,130,130,130,,,,,,,,,,,,,,,,,main,k,k,1,0.9810971000697464,494.54504780005664,None,None,0,,,,,,,,,,,,,,030,2022-05-26_10h39.15.702,Main,2022.1.1,61.078064488548854,
negative,blue,1,None,k,,,,,,,,,0,131,131,131,,,,,,,,,,,,,,,,,main,None,None,1,1.5016472999705002,496.5255741000874,None,None,1,,,,,,,,,,,,,,030,2022-05-26_10h39.15.702,Main,2022.1.1,61.078064488548854,
negative,blue,2,None,k,,,,,,,,,0,132,132,132,,,,,,,,,,,,,,,,,main,None,None,1,1.4976406999630854,499.0282850000076,None,None,1,,,,,,,,,,,,,,030,2022-05-26_10h39.15.702,Main,2022.1.1,61.078064488548854,
positive,blue,2,k,None,,,,,,,,,0,133,133,133,,,,,,,,,,,,,,,,,main,k,k,1,0.7195050000445917,501.5257528000511,None,None,0,,,,,,,,,,,,,,030,2022-05-26_10h39.15.702,Main,2022.1.1,61.078064488548854,
positive,red,2,None,None,,,,,,,,,0,134,134,134,,,,,,,,,,,,,,,,,main,None,None,1,1.4954585999948904,503.2420890000649,None,None,1,,,,,,,,,,,,,,030,2022-05-26_10h39.15.702,Main,2022.1.1,61.078064488548854,
negative,yellow,2,k,None,,,,,,,,,0,135,135,135,,,,,,,,,,,,,,,,,main,k,k,1,0.8335244000190869,505.74210460006725,None,None,0,,,,,,,,,,,,,,030,2022-05-26_10h39.15.702,Main,2022.1.1,61.078064488548854,
positive,yellow,2,None,k,,,,,,,,,0,136,136,136,,,,,,,,,,,,,,,,,main,None,k,0,0.830327200004831,507.57858590001706,None,None,1,,,,,,,,,,,,,,030,2022-05-26_10h39.15.702,Main,2022.1.1,61.078064488548854,
positive,blue,1,k,None,,,,,,,,,0,137,137,137,,,,,,,,,,,,,,,,,main,k,k,1,0.9842502999817953,510.4252979999874,None,None,0,,,,,,,,,,,,,,030,2022-05-26_10h39.15.702,Main,2022.1.1,61.078064488548854,
positive,yellow,1,None,k,,,,,,,,,0,138,138,138,,,,,,,,,,,,,,,,,main,None,None,1,1.501716100028716,512.4087022000458,None,None,1,,,,,,,,,,,,,,030,2022-05-26_10h39.15.702,Main,2022.1.1,61.078064488548854,
positive,yellow,1,None,k,,,,,,,,,0,139,139,139,,,,,,,,,,,,,,,,,main,None,None,1,1.502591000054963,514.9113340000622,None,None,1,,,,,,,,,,,,,,030,2022-05-26_10h39.15.702,Main,2022.1.1,61.078064488548854,
positive,yellow,1,None,k,,,,,,,,,0,140,140,140,,,,,,,,,,,,,,,,,main,None,None,1,1.4980397999752313,517.4146927000256,None,None,1,,,,,,,,,,,,,,030,2022-05-26_10h39.15.702,Main,2022.1.1,61.078064488548854,
positive,blue,1,k,None,,,,,,,,,0,141,141,141,,,,,,,,,,,,,,,,,main,k,k,1,0.8935396999586374,519.9123155000852,None,None,0,,,,,,,,,,,,,,030,2022-05-26_10h39.15.702,Main,2022.1.1,61.078064488548854,
positive,blue,2,k,None,,,,,,,,,0,142,142,142,,,,,,,,,,,,,,,,,main,k,k,1,0.9518664000788704,521.8084650000092,None,None,0,,,,,,,,,,,,,,030,2022-05-26_10h39.15.702,Main,2022.1.1,61.078064488548854,
positive,yellow,2,None,k,,,,,,,,,0,143,143,143,,,,,,,,,,,,,,,,,main,None,None,1,1.498981500044465,523.7611370000523,None,None,1,,,,,,,,,,,,,,030,2022-05-26_10h39.15.702,Main,2022.1.1,61.078064488548854,
negative,yellow,2,k,None,,,,,,,,,0,144,144,144,,,,,,,,,,,,,,,,,main,k,k,1,0.6965607000747696,526.2610866000177,None,None,0,,,,,,,,,,,,,,030,2022-05-26_10h39.15.702,Main,2022.1.1,61.078064488548854,
negative,blue,2,None,k,,,,,,,,,0,145,145,145,,,,,,,,,,,,,,,,,main,None,None,1,1.5016188999870792,527.9582662000321,None,None,1,,,,,,,,,,,,,,030,2022-05-26_10h39.15.702,Main,2022.1.1,61.078064488548854,
negative,red,1,None,None,,,,,,,,,0,146,146,146,,,,,,,,,,,,,,,,,main,None,None,1,1.4988087000092492,530.4609888000414,None,None,1,,,,,,,,,,,,,,030,2022-05-26_10h39.15.702,Main,2022.1.1,61.078064488548854,
positive,blue,1,k,None,,,,,,,,,0,147,147,147,,,,,,,,,,,,,,,,,main,k,k,1,1.3132579999510199,532.958553000004,None,None,0,,,,,,,,,,,,,,030,2022-05-26_10h39.15.702,Main,2022.1.1,61.078064488548854,
positive,yellow,1,None,k,,,,,,,,,0,148,148,148,,,,,,,,,,,,,,,,,main,None,None,1,1.4996251000557095,535.277474100003,None,None,1,,,,,,,,,,,,,,030,2022-05-26_10h39.15.702,Main,2022.1.1,61.078064488548854,
negative,red,2,None,None,,,,,,,,,0,149,149,149,,,,,,,,,,,,,,,,,main,None,None,1,1.5005156999686733,537.7748972000554,None,None,1,,,,,,,,,,,,,,030,2022-05-26_10h39.15.702,Main,2022.1.1,61.078064488548854,
negative,blue,1,None,k,,,,,,,,,0,150,150,150,,,,,,,,,,,,,,,,,main,None,None,1,1.4996783999959007,540.2774547000881,None,None,1,,,,,,,,,,,,,,030,2022-05-26_10h39.15.702,Main,2022.1.1,61.078064488548854,
negative,yellow,2,k,None,,,,,,,,,0,151,151,151,,,,,,,,,,,,,,,,,main,k,k,1,0.7792825000360608,542.7749062000075,None,None,0,,,,,,,,,,,,,,030,2022-05-26_10h39.15.702,Main,2022.1.1,61.078064488548854,
negative,blue,2,None,k,,,,,,,,,0,152,152,152,,,,,,,,,,,,,,,,,main,None,None,1,1.4988408999051899,544.5636465999996,None,None,1,,,,,,,,,,,,,,030,2022-05-26_10h39.15.702,Main,2022.1.1,61.078064488548854,
negative,yellow,1,k,None,,,,,,,,,0,153,153,153,,,,,,,,,,,,,,,,,main,k,k,1,0.7188489999389276,547.0578963999869,None,None,0,,,,,,,,,,,,,,030,2022-05-26_10h39.15.702,Main,2022.1.1,61.078064488548854,
negative,blue,1,None,k,,,,,,,,,0,154,154,154,,,,,,,,,,,,,,,,,main,None,None,1,1.50215549999848,548.7772683000658,None,None,1,,,,,,,,,,,,,,030,2022-05-26_10h39.15.702,Main,2022.1.1,61.078064488548854,
positive,yellow,2,None,k,,,,,,,,,0,155,155,155,,,,,,,,,,,,,,,,,main,None,k,0,0.760259100003168,551.2785310000181,None,None,1,,,,,,,,,,,,,,030,2022-05-26_10h39.15.702,Main,2022.1.1,61.078064488548854,
positive,red,2,None,None,,,,,,,,,0,156,156,156,,,,,,,,,,,,,,,,,main,None,None,1,1.5011144999880344,554.0438051000237,None,None,1,,,,,,,,,,,,,,030,2022-05-26_10h39.15.702,Main,2022.1.1,61.078064488548854,
positive,red,1,None,None,,,,,,,,,0,157,157,157,,,,,,,,,,,,,,,,,main,None,None,1,1.4967905000085011,556.5437617000425,None,None,1,,,,,,,,,,,,,,030,2022-05-26_10h39.15.702,Main,2022.1.1,61.078064488548854,
positive,blue,2,k,None,,,,,,,,,0,158,158,158,,,,,,,,,,,,,,,,,main,k,k,1,0.8843456000322476,559.0409418999916,None,None,0,,,,,,,,,,,,,,030,2022-05-26_10h39.15.702,Main,2022.1.1,61.078064488548854,
negative,yellow,1,k,None,,,,,,,,,0,159,159,159,,,,,,,,,,,,,,,,,main,k,k,1,0.7158851999556646,560.9269792000996,None,None,0,,,,,,,,,,,,,,030,2022-05-26_10h39.15.702,Main,2022.1.1,61.078064488548854,
negative,red,2,None,None,,,,,,,,,0,160,160,160,,,,,,,,,,,,,,,,,main,None,None,1,1.496978500043042,562.6436537000118,None,None,1,,,,,,,,,,,,,,030,2022-05-26_10h39.15.702,Main,2022.1.1,61.078064488548854,
negative,blue,1,None,k,,,,,,,,,0,161,161,161,,,,,,,,,,,,,,,,,main,None,None,1,1.5006326000439003,565.1408401000081,None,None,1,,,,,,,,,,,,,,030,2022-05-26_10h39.15.702,Main,2022.1.1,61.078064488548854,
negative,blue,1,None,k,,,,,,,,,0,162,162,162,,,,,,,,,,,,,,,,,main,None,None,1,1.4967275999952108,567.6435519000515,None,None,1,,,,,,,,,,,,,,030,2022-05-26_10h39.15.702,Main,2022.1.1,61.078064488548854,
negative,yellow,1,k,None,,,,,,,,,0,163,163,163,,,,,,,,,,,,,,,,,main,k,k,1,1.065740399993956,570.1410022000782,None,None,0,,,,,,,,,,,,,,030,2022-05-26_10h39.15.702,Main,2022.1.1,61.078064488548854,
negative,yellow,1,k,None,,,,,,,,,0,164,164,164,,,,,,,,,,,,,,,,,main,k,k,1,0.699232800048776,572.2073256000876,None,None,0,,,,,,,,,,,,,,030,2022-05-26_10h39.15.702,Main,2022.1.1,61.078064488548854,
positive,yellow,1,None,k,,,,,,,,,0,165,165,165,,,,,,,,,,,,,,,,,main,None,None,1,1.5016636000946164,573.9073072000174,None,None,1,,,,,,,,,,,,,,030,2022-05-26_10h39.15.702,Main,2022.1.1,61.078064488548854,
negative,red,1,None,None,,,,,,,,,0,166,166,166,,,,,,,,,,,,,,,,,main,None,None,1,1.4992383000208065,576.4100441000191,None,None,1,,,,,,,,,,,,,,030,2022-05-26_10h39.15.702,Main,2022.1.1,61.078064488548854,
negative,yellow,2,k,None,,,,,,,,,0,167,167,167,,,,,,,,,,,,,,,,,main,k,k,1,1.1964734999928623,578.9099907000782,None,None,0,,,,,,,,,,,,,,030,2022-05-26_10h39.15.702,Main,2022.1.1,61.078064488548854,
positive,blue,2,k,None,,,,,,,,,0,168,168,168,,,,,,,,,,,,,,,,,main,k,k,1,0.8492707000114024,581.1071894000052,None,None,0,,,,,,,,,,,,,,030,2022-05-26_10h39.15.702,Main,2022.1.1,61.078064488548854,
positive,red,2,None,None,,,,,,,,,0,169,169,169,,,,,,,,,,,,,,,,,main,None,None,1,1.5016753999516368,582.9571822000435,None,None,1,,,,,,,,,,,,,,030,2022-05-26_10h39.15.702,Main,2022.1.1,61.078064488548854,
positive,red,1,None,None,,,,,,,,,0,170,170,170,,,,,,,,,,,,,,,,,main,None,None,1,1.4964317999547347,585.4598418000387,None,None,1,,,,,,,,,,,,,,030,2022-05-26_10h39.15.702,Main,2022.1.1,61.078064488548854,
negative,blue,2,None,k,,,,,,,,,0,171,171,171,,,,,,,,,,,,,,,,,main,None,None,1,1.4998015000019222,587.9572923000669,None,None,1,,,,,,,,,,,,,,030,2022-05-26_10h39.15.702,Main,2022.1.1,61.078064488548854,
positive,blue,2,k,None,,,,,,,,,0,172,172,172,,,,,,,,,,,,,,,,,main,k,k,1,0.7507048000115901,590.4570109000197,None,None,0,,,,,,,,,,,,,,030,2022-05-26_10h39.15.702,Main,2022.1.1,61.078064488548854,
negative,yellow,2,k,None,,,,,,,,,0,173,173,173,,,,,,,,,,,,,,,,,main,k,k,1,0.9825301000382751,592.2097124001011,None,None,0,,,,,,,,,,,,,,030,2022-05-26_10h39.15.702,Main,2022.1.1,61.078064488548854,
positive,yellow,2,None,k,,,,,,,,,0,174,174,174,,,,,,,,,,,,,,,,,main,None,None,1,1.4986333000706509,594.193008900038,None,None,1,,,,,,,,,,,,,,030,2022-05-26_10h39.15.702,Main,2022.1.1,61.078064488548854,
negative,blue,2,None,k,,,,,,,,,0,175,175,175,,,,,,,,,,,,,,,,,main,None,None,1,1.4980558000970632,596.6904568000464,None,None,1,,,,,,,,,,,,,,030,2022-05-26_10h39.15.702,Main,2022.1.1,61.078064488548854,
positive,blue,1,k,None,,,,,,,,,0,176,176,176,,,,,,,,,,,,,,,,,main,k,k,1,1.682036399957724,599.1901220000582,None,None,0,,,,,,,,,,,,,,030,2022-05-26_10h39.15.702,Main,2022.1.1,61.078064488548854,
positive,yellow,1,None,k,,,,,,,,,0,177,177,177,,,,,,,,,,,,,,,,,main,None,None,1,1.4991704999702051,602.8761629000073,None,None,1,,,,,,,,,,,,,,030,2022-05-26_10h39.15.702,Main,2022.1.1,61.078064488548854,
positive,blue,1,k,None,,,,,,,,,0,178,178,178,,,,,,,,,,,,,,,,,main,k,k,1,0.9506319999927655,605.3733178999973,None,None,0,,,,,,,,,,,,,,030,2022-05-26_10h39.15.702,Main,2022.1.1,61.078064488548854,
positive,yellow,2,None,k,,,,,,,,,0,179,179,179,,,,,,,,,,,,,,,,,main,None,None,1,1.4989470000145957,607.3260622000089,None,None,1,,,,,,,,,,,,,,030,2022-05-26_10h39.15.702,Main,2022.1.1,61.078064488548854,
positive,blue,1,k,None,,,,,,,,,0,180,180,180,,,,,,,,,,,,,,,,,main,k,k,1,0.9137128000147641,609.8259892000351,None,None,0,,,,,,,,,,,,,,030,2022-05-26_10h39.15.702,Main,2022.1.1,61.078064488548854,
negative,red,1,None,None,,,,,,,,,0,181,181,181,,,,,,,,,,,,,,,,,main,None,None,1,1.4992470999713987,611.7401298000477,None,None,1,,,,,,,,,,,,,,030,2022-05-26_10h39.15.702,Main,2022.1.1,61.078064488548854,
negative,blue,1,None,k,,,,,,,,,0,182,182,182,,,,,,,,,,,,,,,,,main,None,None,1,1.501041500014253,614.2398299000924,None,None,1,,,,,,,,,,,,,,030,2022-05-26_10h39.15.702,Main,2022.1.1,61.078064488548854,
negative,yellow,2,k,None,,,,,,,,,0,183,183,183,,,,,,,,,,,,,,,,,main,k,k,1,1.0802883000578731,616.742845300003,None,None,0,,,,,,,,,,,,,,030,2022-05-26_10h39.15.702,Main,2022.1.1,61.078064488548854,
positive,yellow,2,None,k,,,,,,,,,0,184,184,184,,,,,,,,,,,,,,,,,main,None,None,1,1.4991157000185922,618.8260765000014,None,None,1,,,,,,,,,,,,,,030,2022-05-26_10h39.15.702,Main,2022.1.1,61.078064488548854,
positive,yellow,1,None,k,,,,,,,,,0,185,185,185,,,,,,,,,,,,,,,,,main,None,None,1,1.5006950999377295,621.3231199000729,None,None,1,,,,,,,,,,,,,,030,2022-05-26_10h39.15.702,Main,2022.1.1,61.078064488548854,
positive,red,2,None,None,,,,,,,,,0,186,186,186,,,,,,,,,,,,,,,,,main,None,None,1,1.4991670000599697,623.8260157000041,None,None,1,,,,,,,,,,,,,,030,2022-05-26_10h39.15.702,Main,2022.1.1,61.078064488548854,
positive,blue,1,k,None,,,,,,,,,0,187,187,187,,,,,,,,,,,,,,,,,main,k,k,1,1.012927999952808,626.3259848000016,None,None,0,,,,,,,,,,,,,,030,2022-05-26_10h39.15.702,Main,2022.1.1,61.078064488548854,
negative,yellow,1,k,None,,,,,,,,,0,188,188,188,,,,,,,,,,,,,,,,,main,k,k,1,0.8518317000707611,628.339512100094,None,None,0,,,,,,,,,,,,,,030,2022-05-26_10h39.15.702,Main,2022.1.1,61.078064488548854,
positive,yellow,2,None,k,,,,,,,,,0,189,189,189,,,,,,,,,,,,,,,,,main,None,None,1,1.4988306000595912,630.1922415000154,None,None,1,,,,,,,,,,,,,,030,2022-05-26_10h39.15.702,Main,2022.1.1,61.078064488548854,
negative,yellow,2,k,None,,,,,,,,,0,190,190,190,,,,,,,,,,,,,,,,,main,k,k,1,0.9297782999929041,632.6922008000547,None,None,0,,,,,,,,,,,,,,030,2022-05-26_10h39.15.702,Main,2022.1.1,61.078064488548854,
negative,yellow,1,k,None,,,,,,,,,0,191,191,191,,,,,,,,,,,,,,,,,main,k,k,1,1.068708200007677,634.6227225000039,None,None,0,,,,,,,,,,,,,,030,2022-05-26_10h39.15.702,Main,2022.1.1,61.078064488548854,
positive,blue,2,k,None,,,,,,,,,0,192,192,192,,,,,,,,,,,,,,,,,main,k,k,1,0.8801956999814138,636.6920998001006,None,None,0,,,,,,,,,,,,,,030,2022-05-26_10h39.15.702,Main,2022.1.1,61.078064488548854,
positive,yellow,1,None,k,,,,,,,,,0,193,193,193,,,,,,,,,,,,,,,,,main,None,None,1,1.4992612999631092,638.5754018999869,None,None,1,,,,,,,,,,,,,,030,2022-05-26_10h39.15.702,Main,2022.1.1,61.078064488548854,
negative,red,2,None,None,,,,,,,,,0,194,194,194,,,,,,,,,,,,,,,,,main,None,None,1,1.5006560999900103,641.072636900004,None,None,1,,,,,,,,,,,,,,030,2022-05-26_10h39.15.702,Main,2022.1.1,61.078064488548854,
positive,red,1,None,None,,,,,,,,,0,195,195,195,,,,,,,,,,,,,,,,,main,None,None,1,1.4964976999908686,643.5753163000336,None,None,1,,,,,,,,,,,,,,030,2022-05-26_10h39.15.702,Main,2022.1.1,61.078064488548854,
negative,blue,1,None,k,,,,,,,,,0,196,196,196,,,,,,,,,,,,,,,,,main,None,None,1,1.5017848999705166,646.0724895000458,None,None,1,,,,,,,,,,,,,,030,2022-05-26_10h39.15.702,Main,2022.1.1,61.078064488548854,
positive,blue,2,k,None,,,,,,,,,0,197,197,197,,,,,,,,,,,,,,,,,main,k,k,1,0.7972233999753371,648.5752169000916,None,None,0,,,,,,,,,,,,,,030,2022-05-26_10h39.15.702,Main,2022.1.1,61.078064488548854,
negative,blue,2,None,k,,,,,,,,,0,198,198,198,,,,,,,,,,,,,,,,,main,None,None,1,1.4982617000350729,650.375635500066,None,None,1,,,,,,,,,,,,,,030,2022-05-26_10h39.15.702,Main,2022.1.1,61.078064488548854,
negative,blue,2,None,k,,,,,,,,,0,199,199,199,,,,,,,,,,,,,,,,,main,None,None,1,1.5015279999934137,652.8723608000437,None,None,1,,,,,,,,,,,,,,030,2022-05-26_10h39.15.702,Main,2022.1.1,61.078064488548854,
positive,blue,2,k,None,,,,,,,,,0,200,200,200,,,,,,,,,,,,,,,,,main,k,k,1,0.9132416000356898,655.3750599999912,None,None,0,,,,,,,,,,,,,,030,2022-05-26_10h39.15.702,Main,2022.1.1,61.078064488548854,
positive,blue,2,k,None,,,,,,,,,0,201,201,201,,,,,,,,,,,,,,,,,main,k,k,1,0.6824495999608189,657.2889177000616,None,None,0,,,,,,,,,,,,,,030,2022-05-26_10h39.15.702,Main,2022.1.1,61.078064488548854,
negative,yellow,2,k,None,,,,,,,,,0,202,202,202,,,,,,,,,,,,,,,,,main,k,k,1,0.8676433999789879,658.9722687000176,None,None,0,,,,,,,,,,,,,,030,2022-05-26_10h39.15.702,Main,2022.1.1,61.078064488548854,
positive,red,1,None,None,,,,,,,,,0,203,203,203,,,,,,,,,,,,,,,,,main,None,None,1,1.4951707000145689,660.8416624000529,None,None,1,,,,,,,,,,,,,,030,2022-05-26_10h39.15.702,Main,2022.1.1,61.078064488548854,
negative,blue,2,None,k,,,,,,,,,0,204,204,204,,,,,,,,,,,,,,,,,main,None,None,1,1.5011157999979332,663.3387956999941,None,None,1,,,,,,,,,,,,,,030,2022-05-26_10h39.15.702,Main,2022.1.1,61.078064488548854,
negative,red,1,None,None,,,,,,,,,0,205,205,205,,,,,,,,,,,,,,,,,main,None,None,1,1.4981541000306606,665.8414976000786,None,None,1,,,,,,,,,,,,,,030,2022-05-26_10h39.15.702,Main,2022.1.1,61.078064488548854,
negative,blue,2,None,k,,,,,,,,,0,206,206,206,,,,,,,,,,,,,,,,,main,None,None,1,1.4964194999774918,668.3414469000418,None,None,1,,,,,,,,,,,,,,030,2022-05-26_10h39.15.702,Main,2022.1.1,61.078064488548854,
negative,yellow,2,k,None,,,,,,,,,0,207,207,207,,,,,,,,,,,,,,,,,main,k,k,1,1.3476250999374315,670.8386920000194,None,None,0,,,,,,,,,,,,,,030,2022-05-26_10h39.15.702,Main,2022.1.1,61.078064488548854,
positive,yellow,2,None,k,,,,,,,,,0,208,208,208,,,,,,,,,,,,,,,,,main,None,None,1,1.4993232000852004,673.1913558000233,None,None,1,,,,,,,,,,,,,,030,2022-05-26_10h39.15.702,Main,2022.1.1,61.078064488548854,
negative,yellow,1,k,None,,,,,,,,,0,209,209,209,,,,,,,,,,,,,,,,,main,k,k,1,0.9493418999481946,675.688535900088,None,None,0,,,,,,,,,,,,,,030,2022-05-26_10h39.15.702,Main,2022.1.1,61.078064488548854,
negative,red,2,None,None,,,,,,,,,0,210,210,210,,,,,,,,,,,,,,,,,main,None,None,1,1.5003066000062972,677.6385778000113,None,None,1,,,,,,,,,,,,,,030,2022-05-26_10h39.15.702,Main,2022.1.1,61.078064488548854,
negative,blue,1,None,k,,,,,,,,,0,211,211,211,,,,,,,,,,,,,,,,,main,None,None,1,1.4968743999488652,680.1413295000093,None,None,1,,,,,,,,,,,,,,030,2022-05-26_10h39.15.702,Main,2022.1.1,61.078064488548854,
negative,yellow,1,k,None,,,,,,,,,0,212,212,212,,,,,,,,,,,,,,,,,main,k,k,1,1.2154965000227094,682.6389778000303,None,None,0,,,,,,,,,,,,,,030,2022-05-26_10h39.15.702,Main,2022.1.1,61.078064488548854,
positive,blue,1,k,None,,,,,,,,,0,213,213,213,,,,,,,,,,,,,,,,,main,k,k,1,0.7661987999454141,684.85526630003,None,None,0,,,,,,,,,,,,,,030,2022-05-26_10h39.15.702,Main,2022.1.1,61.078064488548854,
positive,blue,1,k,None,,,,,,,,,0,214,214,214,,,,,,,,,,,,,,,,,main,k,k,1,0.6490039000054821,686.6222909000935,None,None,0,,,,,,,,,,,,,,030,2022-05-26_10h39.15.702,Main,2022.1.1,61.078064488548854,
positive,yellow,1,None,k,,,,,,,,,0,215,215,215,,,,,,,,,,,,,,,,,main,None,None,1,1.4991757000098005,688.2719093000051,None,None,1,,,,,,,,,,,,,,030,2022-05-26_10h39.15.702,Main,2022.1.1,61.078064488548854,
positive,yellow,1,None,k,,,,,,,,,0,216,216,216,,,,,,,,,,,,,,,,,main,None,None,1,1.5008053000783548,690.7715527000837,None,None,1,,,,,,,,,,,,,,030,2022-05-26_10h39.15.702,Main,2022.1.1,61.078064488548854,
positive,yellow,2,None,k,,,,,,,,,0,217,217,217,,,,,,,,,,,,,,,,,main,None,None,1,1.4989275999832898,693.2742469999939,None,None,1,,,,,,,,,,,,,,030,2022-05-26_10h39.15.702,Main,2022.1.1,61.078064488548854,
negative,blue,1,None,k,,,,,,,,,0,218,218,218,,,,,,,,,,,,,,,,,main,None,None,1,1.4972997999284416,695.7742265000707,None,None,1,,,,,,,,,,,,,,030,2022-05-26_10h39.15.702,Main,2022.1.1,61.078064488548854,
positive,red,2,None,None,,,,,,,,,0,219,219,219,,,,,,,,,,,,,,,,,main,None,None,1,1.5008235001005232,698.2714429000625,None,None,1,,,,,,,,,,,,,,030,2022-05-26_10h39.15.702,Main,2022.1.1,61.078064488548854,
positive,yellow,1,None,k,,,,,,,,,0,220,220,220,,,,,,,,,,,,,,,,,main,None,None,1,1.4973442000336945,700.77417530003,None,None,1,,,,,,,,,,,,,,030,2022-05-26_10h39.15.702,Main,2022.1.1,61.078064488548854,
positive,blue,1,k,None,,,,,,,,,0,221,221,221,,,,,,,,,,,,,,,,,main,k,k,1,0.8341974999057129,703.2713260999881,None,None,0,,,,,,,,,,,,,,030,2022-05-26_10h39.15.702,Main,2022.1.1,61.078064488548854,
positive,yellow,2,None,k,,,,,,,,,0,222,222,222,,,,,,,,,,,,,,,,,main,None,None,1,1.499081600108184,705.1074392000446,None,None,1,,,,,,,,,,,,,,030,2022-05-26_10h39.15.702,Main,2022.1.1,61.078064488548854,
negative,yellow,1,k,None,,,,,,,,,0,223,223,223,,,,,,,,,,,,,,,,,main,k,k,1,0.7299944000551477,707.6073029000545,None,None,0,,,,,,,,,,,,,,030,2022-05-26_10h39.15.702,Main,2022.1.1,61.078064488548854,
positive,yellow,2,None,k,,,,,,,,,0,224,224,224,,,,,,,,,,,,,,,,,main,None,None,1,1.5007918000919744,709.337847399991,None,None,1,,,,,,,,,,,,,,030,2022-05-26_10h39.15.702,Main,2022.1.1,61.078064488548854,
negative,yellow,2,k,None,,,,,,,,,0,225,225,225,,,,,,,,,,,,,,,,,main,k,k,1,0.7973499000072479,711.8405642000725,None,None,0,,,,,,,,,,,,,,030,2022-05-26_10h39.15.702,Main,2022.1.1,61.078064488548854,
negative,blue,2,None,k,,,,,,,,,0,226,226,226,,,,,,,,,,,,,,,,,main,None,None,1,1.4976091999560595,713.6405535000376,None,None,1,,,,,,,,,,,,,,030,2022-05-26_10h39.15.702,Main,2022.1.1,61.078064488548854,
positive,red,2,None,None,,,,,,,,,0,227,227,227,,,,,,,,,,,,,,,,,main,None,None,1,1.5005553000373766,716.1377506999997,None,None,1,,,,,,,,,,,,,,030,2022-05-26_10h39.15.702,Main,2022.1.1,61.078064488548854,
positive,blue,2,k,None,,,,,,,,,0,228,228,228,,,,,,,,,,,,,,,,,main,k,k,1,0.7663235999643803,718.6404116000049,None,None,0,,,,,,,,,,,,,,030,2022-05-26_10h39.15.702,Main,2022.1.1,61.078064488548854,
negative,blue,1,None,k,,,,,,,,,0,229,229,229,,,,,,,,,,,,,,,,,main,None,None,1,1.4968439999502152,720.4070756000001,None,None,1,,,,,,,,,,,,,,030,2022-05-26_10h39.15.702,Main,2022.1.1,61.078064488548854,
positive,yellow,1,None,k,,,,,,,,,0,230,230,230,,,,,,,,,,,,,,,,,main,None,None,1,1.5008157000411302,722.9043374999892,None,None,1,,,,,,,,,,,,,,030,2022-05-26_10h39.15.702,Main,2022.1.1,61.078064488548854,
negative,blue,2,None,k,,,,,,,,,0,231,231,231,,,,,,,,,,,,,,,,,main,None,None,1,1.4971393999876454,725.4068991000531,None,None,1,,,,,,,,,,,,,,030,2022-05-26_10h39.15.702,Main,2022.1.1,61.078064488548854,
negative,red,1,None,None,,,,,,,,,0,232,232,232,,,,,,,,,,,,,,,,,main,None,None,1,1.5004045999376103,727.9044573000865,None,None,1,,,,,,,,,,,,,,030,2022-05-26_10h39.15.702,Main,2022.1.1,61.078064488548854,
positive,blue,2,k,None,,,,,,,,,0,233,233,233,,,,,,,,,,,,,,,,,main,k,k,1,1.234899100032635,730.4068789000157,None,None,0,,,,,,,,,,,,,,030,2022-05-26_10h39.15.702,Main,2022.1.1,61.078064488548854,
negative,yellow,1,k,None,,,,,,,,,0,234,234,234,,,,,,,,,,,,,,,,,main,k,k,1,0.7120611999416724,732.6446844000602,None,None,0,,,,,,,,,,,,,,030,2022-05-26_10h39.15.702,Main,2022.1.1,61.078064488548854,
negative,yellow,2,k,None,,,,,,,,,0,235,235,235,,,,,,,,,,,,,,,,,main,k,k,1,0.7146629000781104,734.3541494000237,None,None,0,,,,,,,,,,,,,,030,2022-05-26_10h39.15.702,Main,2022.1.1,61.078064488548854,
positive,red,1,None,None,,,,,,,,,0,236,236,236,,,,,,,,,,,,,,,,,main,None,None,1,1.501355400076136,736.073397200089,None,None,1,,,,,,,,,,,,,,030,2022-05-26_10h39.15.702,Main,2022.1.1,61.078064488548854,
negative,red,2,None,None,,,,,,,,,0,237,237,237,,,,,,,,,,,,,,,,,main,None,None,1,1.496885700034909,738.5765317000914,None,None,1,,,,,,,,,,,,,,030,2022-05-26_10h39.15.702,Main,2022.1.1,61.078064488548854,
negative,blue,1,None,k,,,,,,,,,0,238,238,238,,,,,,,,,,,,,,,,,main,None,None,1,1.501500599901192,741.0709404000081,None,None,1,,,,,,,,,,,,,,030,2022-05-26_10h39.15.702,Main,2022.1.1,61.078064488548854,
positive,blue,1,k,None,,,,,,,,,0,239,239,239,,,,,,,,,,,,,,,,,main,k,k,1,0.6803961999248713,743.5733370000962,None,None,0,,,,,,,,,,,,,,030,2022-05-26_10h39.15.702,Main,2022.1.1,61.078064488548854,
,,,,,,,,,,,,,,,,,,,,,,,,,,,,,,,,,,,,,,,,,,,,,,,,,,,,,745.2540650001029,None,,,,,,
