distractor,target,set,ans1,ans2,rep_loop4.thisRepN,rep_loop4.thisTrialN,rep_loop4.thisN,rep_loop4.thisIndex,st2_prac_loop.thisRepN,st2_prac_loop.thisTrialN,st2_prac_loop.thisN,st2_prac_loop.thisIndex,st2_main_loop.thisRepN,st2_main_loop.thisTrialN,st2_main_loop.thisN,st2_main_loop.thisIndex,image_4.started,image_4.stopped,sound_2.started,sound_2.stopped,key_resp_3.keys,key_resp_3.rt,image_5.started,image_5.stopped,st_prac_back.started,st_prac_back.stopped,st_prac_text.started,st_prac_text.stopped,st_fix_back.started,st_fix_back.stopped,st_fix_2.started,st_fix_2.stopped,main_prac,st_ans,st_res,st_corr,st_rt,st_back.started,st_back.stopped,st2_resp.keys,st2_resp.corr,st_main_back.started,st_main_back.stopped,st_main_text.started,st_main_text.stopped,mouse_4.x,mouse_4.y,mouse_4.leftButton,mouse_4.midButton,mouse_4.rightButton,mouse_4.started,mouse_4.stopped,text_2.started,text_2.stopped,id*,date,expName,psychopyVersion,frameRate,
negative,yellow,1,k,None,,,,,0,0,0,0,,,,,407.4769676999422,None,410.9138439600123,None,space,61.215158400009386,472.16007390001323,None,473.19338379998226,None,473.19338379998226,None,475.1959351999685,None,475.1959351999685,None,prac,None,None,1,1.4937946998979896,477.2096145999385,None,None,1,,,,,,,,,,,,,,031,2022-05-26_20h15.54.535,Main,2022.1.1,61.35274206990843,
positive,red,2,None,None,,,,,0,1,1,1,,,,,,,,,,,,,,,,,,,,,prac,None,None,1,1.4996202000183985,479.70972439995967,None,None,1,,,,,,,,,,,,,,031,2022-05-26_20h15.54.535,Main,2022.1.1,61.35274206990843,
negative,blue,2,None,k,,,,,0,2,2,2,,,,,,,,,,,,,,,,,,,,,prac,k,k,1,3.413100800011307,482.2136323999148,None,None,0,,,,,,,,,,,,,,031,2022-05-26_20h15.54.535,Main,2022.1.1,61.35274206990843,
positive,yellow,1,None,k,,,,,0,3,3,3,,,,,,,,,,,,,,,,,,,,,prac,k,k,1,1.0178976999595761,487.6262782999547,None,None,0,,,,,,,,,,,,,,031,2022-05-26_20h15.54.535,Main,2022.1.1,61.35274206990843,
negative,blue,2,None,k,,,,,0,4,4,4,,,,,,,,,,,,,,,,,,,,,prac,k,k,1,0.7520162999862805,489.6456351999659,None,None,0,,,,,,,,,,,,,,031,2022-05-26_20h15.54.535,Main,2022.1.1,61.35274206990843,
negative,blue,1,None,k,,,,,0,5,5,5,,,,,,,,,,,,,,,,,,,,,prac,k,k,1,1.1622669000644237,491.3975000999635,None,None,0,,,,,,,,,,,,,,031,2022-05-26_20h15.54.535,Main,2022.1.1,61.35274206990843,
negative,yellow,2,k,None,,,,,0,6,6,6,,,,,,,,,,,,,,,,,,,,,prac,None,None,1,1.5004473999142647,493.55971910001244,None,None,1,,,,,,,,,,,,,,031,2022-05-26_20h15.54.535,Main,2022.1.1,61.35274206990843,
negative,red,1,None,None,,,,,0,7,7,7,,,,,,,,,,,,,,,,,,,,,prac,None,k,0,0.9471154001075774,496.05938679992687,None,None,1,,,,,,,,,,,,,,031,2022-05-26_20h15.54.535,Main,2022.1.1,61.35274206990843,
positive,yellow,2,None,k,,,,,0,8,8,8,,,,,,,,,,,,,,,,,,,,,prac,k,k,1,1.1655704999575391,499.0102435000008,None,None,0,,,,,,,,,,,,,,031,2022-05-26_20h15.54.535,Main,2022.1.1,61.35274206990843,
negative,yellow,1,k,None,,,,,0,9,9,9,,,,,,,,,,,,,,,,,,,,,prac,None,k,0,0.6983611999312416,501.17870699998457,None,None,1,,,,,,,,,,,,,,031,2022-05-26_20h15.54.535,Main,2022.1.1,61.35274206990843,
positive,yellow,2,None,k,,,,,0,10,10,10,,,,,,,,,,,,,,,,,,,,,prac,k,k,1,0.8370692000025883,503.8758702999912,None,None,0,,,,,,,,,,,,,,031,2022-05-26_20h15.54.535,Main,2022.1.1,61.35274206990843,
negative,yellow,2,k,None,,,,,0,11,11,11,,,,,,,,,,,,,,,,,,,,,prac,None,None,1,1.4956323000369594,505.7286164999241,None,None,1,,,,,,,,,,,,,,031,2022-05-26_20h15.54.535,Main,2022.1.1,61.35274206990843,
negative,red,2,None,None,,,,,0,12,12,12,,,,,,,,,,,,,,,,,,,,,prac,None,None,1,1.5000178000191227,508.2091287999647,None,None,1,,,,,,,,,,,,,,031,2022-05-26_20h15.54.535,Main,2022.1.1,61.35274206990843,
positive,red,1,None,None,,,,,0,13,13,13,,,,,,,,,,,,,,,,,,,,,prac,None,None,1,1.5006089999806136,510.70919249998406,None,None,1,,,,,,,,,,,,,,031,2022-05-26_20h15.54.535,Main,2022.1.1,61.35274206990843,
positive,blue,2,k,None,,,,,0,14,14,14,,,,,,,,,,,,,,,,,,,,,prac,None,None,1,1.4967818000586703,513.2117958000163,None,None,1,,,,,,,,,,,,,,031,2022-05-26_20h15.54.535,Main,2022.1.1,61.35274206990843,
positive,blue,1,k,None,,,,,0,15,15,15,,,,,,,,,,,,,,,,,,,,,prac,None,None,1,1.500639000092633,515.7098749999423,None,None,1,,,,,,,,,,,,,,031,2022-05-26_20h15.54.535,Main,2022.1.1,61.35274206990843,
negative,blue,1,None,k,,,,,0,16,16,16,,,,,,,,,,,,,,,,,,,,,prac,k,k,1,0.9965873999753967,518.2116965999594,None,None,0,,,,,,,,,,,,,,031,2022-05-26_20h15.54.535,Main,2022.1.1,61.35274206990843,
positive,blue,2,k,None,,,,,0,17,17,17,,,,,,,,,,,,,,,,,,,,,prac,None,None,1,1.4987740999786183,520.2146882999223,None,None,1,,,,,,,,,,,,,,031,2022-05-26_20h15.54.535,Main,2022.1.1,61.35274206990843,
positive,blue,1,k,None,,,,,0,18,18,18,,,,,,,,,,,,,,,,,,,,,prac,None,None,1,1.5018317999783903,522.7088281000033,None,None,1,,,,,,,,,,,,,,031,2022-05-26_20h15.54.535,Main,2022.1.1,61.35274206990843,
positive,yellow,1,None,k,,,,,0,19,19,19,,,,,,,,,,,,,,,,,,,,,prac,k,k,1,0.846596600022167,525.2114934999263,None,None,0,,,,,,,,,,,,,,031,2022-05-26_20h15.54.535,Main,2022.1.1,61.35274206990843,
negative,yellow,1,k,None,,,,,1,0,20,0,,,,,,,,,,,,,,,,,,,,,prac,None,None,1,1.4986828999826685,527.0591634999728,None,None,1,,,,,,,,,,,,,,031,2022-05-26_20h15.54.535,Main,2022.1.1,61.35274206990843,
positive,red,2,None,None,,,,,1,1,21,1,,,,,,,,,,,,,,,,,,,,,prac,None,None,1,1.4995533999754116,529.5589778999565,None,None,1,,,,,,,,,,,,,,031,2022-05-26_20h15.54.535,Main,2022.1.1,61.35274206990843,
negative,blue,2,None,k,,,,,1,2,22,2,,,,,,,,,,,,,,,,,,,,,prac,k,k,1,0.8325779000297189,532.0586378999287,None,None,0,,,,,,,,,,,,,,031,2022-05-26_20h15.54.535,Main,2022.1.1,61.35274206990843,
positive,yellow,1,None,k,,,,,1,3,23,3,,,,,,,,,,,,,,,,,,,,,prac,k,k,1,0.8837022000225261,533.8919991999865,None,None,0,,,,,,,,,,,,,,031,2022-05-26_20h15.54.535,Main,2022.1.1,61.35274206990843,
negative,blue,2,None,k,,,,,1,4,24,4,,,,,,,,,,,,,,,,,,,,,prac,k,k,1,1.646258999942802,535.7780062999809,None,None,0,,,,,,,,,,,,,,031,2022-05-26_20h15.54.535,Main,2022.1.1,61.35274206990843,
negative,blue,1,None,k,,,,,1,5,25,5,,,,,,,,,,,,,,,,,,,,,prac,k,k,1,1.1173532999819145,539.4254276999272,None,None,0,,,,,,,,,,,,,,031,2022-05-26_20h15.54.535,Main,2022.1.1,61.35274206990843,
negative,yellow,2,k,None,,,,,1,6,26,6,,,,,,,,,,,,,,,,,,,,,prac,None,None,1,1.501595800044015,541.5420129999984,None,None,1,,,,,,,,,,,,,,031,2022-05-26_20h15.54.535,Main,2022.1.1,61.35274206990843,
negative,red,1,None,None,,,,,1,7,27,7,,,,,,,,,,,,,,,,,,,,,prac,None,None,1,1.4953296999447048,544.0444193999283,None,None,1,,,,,,,,,,,,,,031,2022-05-26_20h15.54.535,Main,2022.1.1,61.35274206990843,
positive,yellow,2,None,k,,,,,1,8,28,8,,,,,,,,,,,,,,,,,,,,,prac,k,k,1,0.8667445000028238,546.5473093999317,None,None,0,,,,,,,,,,,,,,031,2022-05-26_20h15.54.535,Main,2022.1.1,61.35274206990843,
negative,yellow,1,k,None,,,,,1,9,29,9,,,,,,,,,,,,,,,,,,,,,prac,None,None,1,1.5006141000194475,548.4083063999424,None,None,1,,,,,,,,,,,,,,031,2022-05-26_20h15.54.535,Main,2022.1.1,61.35274206990843,
positive,yellow,2,None,k,,,,,1,10,30,10,,,,,,,,,,,,,,,,,,,,,prac,k,k,1,1.01897450000979,550.9110973000061,None,None,0,,,,,,,,,,,,,,031,2022-05-26_20h15.54.535,Main,2022.1.1,61.35274206990843,
negative,yellow,2,k,None,,,,,1,11,31,11,,,,,,,,,,,,,,,,,,,,,prac,None,None,1,1.4927569000283256,552.9248467999278,None,None,1,,,,,,,,,,,,,,031,2022-05-26_20h15.54.535,Main,2022.1.1,61.35274206990843,
negative,red,2,None,None,,,,,1,12,32,12,,,,,,,,,,,,,,,,,,,,,prac,None,None,1,1.5017893000040203,555.424855099991,None,None,1,,,,,,,,,,,,,,031,2022-05-26_20h15.54.535,Main,2022.1.1,61.35274206990843,
positive,red,1,None,None,,,,,1,13,33,13,,,,,,,,,,,,,,,,,,,,,prac,None,None,1,1.4990086000179872,557.9275553999469,None,None,1,,,,,,,,,,,,,,031,2022-05-26_20h15.54.535,Main,2022.1.1,61.35274206990843,
positive,blue,2,k,None,,,,,1,14,34,14,,,,,,,,,,,,,,,,,,,,,prac,None,None,1,1.4972706000553444,560.4274667999707,None,None,1,,,,,,,,,,,,,,031,2022-05-26_20h15.54.535,Main,2022.1.1,61.35274206990843,
positive,blue,1,k,None,,,,,1,15,35,15,,,,,,,,,,,,,,,,,,,,,prac,None,None,1,1.5005778999766335,562.9247887999518,None,None,1,,,,,,,,,,,,,,031,2022-05-26_20h15.54.535,Main,2022.1.1,61.35274206990843,
negative,blue,1,None,k,,,,,1,16,36,16,,,,,,,,,,,,,,,,,,,,,prac,k,k,1,1.1801300999941304,565.4274555000011,None,None,0,,,,,,,,,,,,,,031,2022-05-26_20h15.54.535,Main,2022.1.1,61.35274206990843,
positive,blue,2,k,None,,,,,1,17,37,17,,,,,,,,,,,,,,,,,,,,,prac,None,None,1,1.4984807999571785,567.6081978000002,None,None,1,,,,,,,,,,,,,,031,2022-05-26_20h15.54.535,Main,2022.1.1,61.35274206990843,
positive,blue,1,k,None,,,,,1,18,38,18,,,,,,,,,,,,,,,,,,,,,prac,None,None,1,1.4990690998965874,570.1080883999821,None,None,1,,,,,,,,,,,,,,031,2022-05-26_20h15.54.535,Main,2022.1.1,61.35274206990843,
positive,yellow,1,None,k,,,,,1,19,39,19,,,,,,,,,,,,,,,,,,,,,prac,k,k,1,7.3988011999754235,572.6080867999699,None,None,0,,,,,,,,,,,,,,031,2022-05-26_20h15.54.535,Main,2022.1.1,61.35274206990843,
,,,,,,,,,,,,,,,,,,,,,,,,,,,,,,,,,,,,,,,,,,582.0076900999993,None,582.0076900999993,None,0.055555556,-0.062037036,0,0,0,0.016264560050331056,None,,,031,2022-05-26_20h15.54.535,Main,2022.1.1,61.35274206990843,
negative,yellow,2,k,None,,,,,,,,,0,0,0,0,,,,,,,,,,,,,583.1910565999569,None,583.1910565999569,None,main,None,None,1,1.5169145000400022,585.2323329999344,None,None,1,,,,,,,,,,,,,,031,2022-05-26_20h15.54.535,Main,2022.1.1,61.35274206990843,
positive,red,1,None,None,,,,,,,,,0,1,1,1,,,,,,,,,,,,,,,,,main,None,None,1,1.4985181000083685,587.7577821000014,None,None,1,,,,,,,,,,,,,,031,2022-05-26_20h15.54.535,Main,2022.1.1,61.35274206990843,
positive,blue,2,k,None,,,,,,,,,0,2,2,2,,,,,,,,,,,,,,,,,main,None,None,1,1.5016489999834448,590.2600076999515,None,None,1,,,,,,,,,,,,,,031,2022-05-26_20h15.54.535,Main,2022.1.1,61.35274206990843,
positive,blue,1,k,None,,,,,,,,,0,3,3,3,,,,,,,,,,,,,,,,,main,None,None,1,1.4963930000085384,592.7576922000153,None,None,1,,,,,,,,,,,,,,031,2022-05-26_20h15.54.535,Main,2022.1.1,61.35274206990843,
negative,yellow,2,k,None,,,,,,,,,0,4,4,4,,,,,,,,,,,,,,,,,main,None,None,1,1.502400299999863,595.2598883999744,None,None,1,,,,,,,,,,,,,,031,2022-05-26_20h15.54.535,Main,2022.1.1,61.35274206990843,
positive,yellow,2,None,k,,,,,,,,,0,5,5,5,,,,,,,,,,,,,,,,,main,k,k,1,0.7981938000302762,597.7575722999172,None,None,0,,,,,,,,,,,,,,031,2022-05-26_20h15.54.535,Main,2022.1.1,61.35274206990843,
negative,blue,2,None,k,,,,,,,,,0,6,6,6,,,,,,,,,,,,,,,,,main,k,k,1,0.9639948999974877,599.5575709999539,None,None,0,,,,,,,,,,,,,,031,2022-05-26_20h15.54.535,Main,2022.1.1,61.35274206990843,
positive,red,2,None,None,,,,,,,,,0,7,7,7,,,,,,,,,,,,,,,,,main,None,None,1,1.5003733000485227,601.5238751999568,None,None,1,,,,,,,,,,,,,,031,2022-05-26_20h15.54.535,Main,2022.1.1,61.35274206990843,
positive,yellow,1,None,k,,,,,,,,,0,8,8,8,,,,,,,,,,,,,,,,,main,k,k,1,1.5137426999863237,604.0265827999683,None,None,0,,,,,,,,,,,,,,031,2022-05-26_20h15.54.535,Main,2022.1.1,61.35274206990843,
negative,red,1,None,None,,,,,,,,,0,9,9,9,,,,,,,,,,,,,,,,,main,None,None,1,1.5014952999772504,607.5570854999823,None,None,1,,,,,,,,,,,,,,031,2022-05-26_20h15.54.535,Main,2022.1.1,61.35274206990843,
positive,yellow,1,None,k,,,,,,,,,0,10,10,10,,,,,,,,,,,,,,,,,main,k,k,1,0.9837437000824139,610.0570714999922,None,None,0,,,,,,,,,,,,,,031,2022-05-26_20h15.54.535,Main,2022.1.1,61.35274206990843,
negative,yellow,1,k,None,,,,,,,,,0,11,11,11,,,,,,,,,,,,,,,,,main,None,None,1,1.498786500073038,612.0431010999018,None,None,1,,,,,,,,,,,,,,031,2022-05-26_20h15.54.535,Main,2022.1.1,61.35274206990843,
negative,yellow,1,k,None,,,,,,,,,0,12,12,12,,,,,,,,,,,,,,,,,main,None,None,1,1.4973314000526443,614.5430104999105,None,None,1,,,,,,,,,,,,,,031,2022-05-26_20h15.54.535,Main,2022.1.1,61.35274206990843,
negative,red,2,None,None,,,,,,,,,0,13,13,13,,,,,,,,,,,,,,,,,main,None,None,1,1.5004421999910846,617.0402859000023,None,None,1,,,,,,,,,,,,,,031,2022-05-26_20h15.54.535,Main,2022.1.1,61.35274206990843,
positive,yellow,2,None,k,,,,,,,,,0,14,14,14,,,,,,,,,,,,,,,,,main,k,k,1,1.0660495000192896,619.5429267999716,None,None,0,,,,,,,,,,,,,,031,2022-05-26_20h15.54.535,Main,2022.1.1,61.35274206990843,
positive,blue,1,k,None,,,,,,,,,0,15,15,15,,,,,,,,,,,,,,,,,main,None,None,1,1.4960780999390408,621.6095861999784,None,None,1,,,,,,,,,,,,,,031,2022-05-26_20h15.54.535,Main,2022.1.1,61.35274206990843,
negative,blue,1,None,k,,,,,,,,,0,16,16,16,,,,,,,,,,,,,,,,,main,k,k,1,0.7697561000240967,624.1067919000052,None,None,0,,,,,,,,,,,,,,031,2022-05-26_20h15.54.535,Main,2022.1.1,61.35274206990843,
positive,blue,2,k,None,,,,,,,,,0,17,17,17,,,,,,,,,,,,,,,,,main,None,None,1,1.496960400021635,625.8762120999163,None,None,1,,,,,,,,,,,,,,031,2022-05-26_20h15.54.535,Main,2022.1.1,61.35274206990843,
negative,blue,2,None,k,,,,,,,,,0,18,18,18,,,,,,,,,,,,,,,,,main,k,k,1,1.2479139000643045,628.3733095999341,None,None,0,,,,,,,,,,,,,,031,2022-05-26_20h15.54.535,Main,2022.1.1,61.35274206990843,
negative,blue,1,None,k,,,,,,,,,0,19,19,19,,,,,,,,,,,,,,,,,main,k,k,1,0.9338982999324799,630.6233031000011,None,None,0,,,,,,,,,,,,,,031,2022-05-26_20h15.54.535,Main,2022.1.1,61.35274206990843,
negative,blue,1,None,k,,,,,,,,,0,20,20,20,,,,,,,,,,,,,,,,,main,k,k,1,0.8465059000300243,632.5592941999203,None,None,0,,,,,,,,,,,,,,031,2022-05-26_20h15.54.535,Main,2022.1.1,61.35274206990843,
negative,blue,2,None,k,,,,,,,,,0,21,21,21,,,,,,,,,,,,,,,,,main,k,k,1,0.7665885000023991,634.4065394999925,None,None,0,,,,,,,,,,,,,,031,2022-05-26_20h15.54.535,Main,2022.1.1,61.35274206990843,
negative,red,1,None,None,,,,,,,,,0,22,22,22,,,,,,,,,,,,,,,,,main,None,None,1,1.50033720000647,636.173201299971,None,None,1,,,,,,,,,,,,,,031,2022-05-26_20h15.54.535,Main,2022.1.1,61.35274206990843,
positive,red,2,None,None,,,,,,,,,0,23,23,23,,,,,,,,,,,,,,,,,main,None,None,1,1.4966021999716759,638.675855099922,None,None,1,,,,,,,,,,,,,,031,2022-05-26_20h15.54.535,Main,2022.1.1,61.35274206990843,
negative,red,2,None,None,,,,,,,,,0,24,24,24,,,,,,,,,,,,,,,,,main,None,None,1,1.4990185999777168,641.1733293000143,None,None,1,,,,,,,,,,,,,,031,2022-05-26_20h15.54.535,Main,2022.1.1,61.35274206990843,
positive,blue,2,k,None,,,,,,,,,0,25,25,25,,,,,,,,,,,,,,,,,main,None,None,1,1.5014570000348613,643.6732420999324,None,None,1,,,,,,,,,,,,,,031,2022-05-26_20h15.54.535,Main,2022.1.1,61.35274206990843,
negative,yellow,1,k,None,,,,,,,,,0,26,26,26,,,,,,,,,,,,,,,,,main,None,None,1,1.4965570999775082,646.1732372000115,None,None,1,,,,,,,,,,,,,,031,2022-05-26_20h15.54.535,Main,2022.1.1,61.35274206990843,
positive,blue,2,k,None,,,,,,,,,0,27,27,27,,,,,,,,,,,,,,,,,main,None,None,1,1.4991510000545532,648.6731703999685,None,None,1,,,,,,,,,,,,,,031,2022-05-26_20h15.54.535,Main,2022.1.1,61.35274206990843,
negative,blue,2,None,k,,,,,,,,,0,28,28,28,,,,,,,,,,,,,,,,,main,k,k,1,1.0992384999990463,651.1731111999834,None,None,0,,,,,,,,,,,,,,031,2022-05-26_20h15.54.535,Main,2022.1.1,61.35274206990843,
positive,red,1,None,None,,,,,,,,,0,29,29,29,,,,,,,,,,,,,,,,,main,None,None,1,1.4994347000028938,653.2731153999921,None,None,1,,,,,,,,,,,,,,031,2022-05-26_20h15.54.535,Main,2022.1.1,61.35274206990843,
positive,blue,1,k,None,,,,,,,,,0,30,30,30,,,,,,,,,,,,,,,,,main,None,None,1,1.500655799987726,655.7728699999861,None,None,1,,,,,,,,,,,,,,031,2022-05-26_20h15.54.535,Main,2022.1.1,61.35274206990843,
positive,yellow,1,None,k,,,,,,,,,0,31,31,31,,,,,,,,,,,,,,,,,main,k,k,1,0.8136370000429451,658.2754755999194,None,None,0,,,,,,,,,,,,,,031,2022-05-26_20h15.54.535,Main,2022.1.1,61.35274206990843,
negative,yellow,2,k,None,,,,,,,,,0,32,32,32,,,,,,,,,,,,,,,,,main,None,None,1,1.4991623000241816,660.089663199964,None,None,1,,,,,,,,,,,,,,031,2022-05-26_20h15.54.535,Main,2022.1.1,61.35274206990843,
negative,blue,1,None,k,,,,,,,,,0,33,33,33,,,,,,,,,,,,,,,,,main,k,k,1,1.384398699970916,662.5892832999816,None,None,0,,,,,,,,,,,,,,031,2022-05-26_20h15.54.535,Main,2022.1.1,61.35274206990843,
positive,blue,1,k,None,,,,,,,,,0,34,34,34,,,,,,,,,,,,,,,,,main,None,None,1,1.4988075000001118,664.9753096000059,None,None,1,,,,,,,,,,,,,,031,2022-05-26_20h15.54.535,Main,2022.1.1,61.35274206990843,
negative,yellow,1,k,None,,,,,,,,,0,35,35,35,,,,,,,,,,,,,,,,,main,None,None,1,1.4970976000186056,667.4753158999374,None,None,1,,,,,,,,,,,,,,031,2022-05-26_20h15.54.535,Main,2022.1.1,61.35274206990843,
positive,yellow,2,None,k,,,,,,,,,0,36,36,36,,,,,,,,,,,,,,,,,main,k,k,1,1.0175548000261188,669.9724589999532,None,None,0,,,,,,,,,,,,,,031,2022-05-26_20h15.54.535,Main,2022.1.1,61.35274206990843,
positive,yellow,2,None,k,,,,,,,,,0,37,37,37,,,,,,,,,,,,,,,,,main,k,k,1,0.7804353999672458,671.9918784999754,None,None,0,,,,,,,,,,,,,,031,2022-05-26_20h15.54.535,Main,2022.1.1,61.35274206990843,
negative,yellow,2,k,None,,,,,,,,,0,38,38,38,,,,,,,,,,,,,,,,,main,None,None,1,1.498892099945806,673.7752110000001,None,None,1,,,,,,,,,,,,,,031,2022-05-26_20h15.54.535,Main,2022.1.1,61.35274206990843,
positive,yellow,1,None,k,,,,,,,,,0,39,39,39,,,,,,,,,,,,,,,,,main,k,k,1,0.9851141000399366,676.272319199983,None,None,0,,,,,,,,,,,,,,031,2022-05-26_20h15.54.535,Main,2022.1.1,61.35274206990843,
negative,yellow,2,k,None,,,,,,,,,0,40,40,40,,,,,,,,,,,,,,,,,main,None,None,1,1.4963683999376372,678.2583990999265,None,None,1,,,,,,,,,,,,,,031,2022-05-26_20h15.54.535,Main,2022.1.1,61.35274206990843,
positive,blue,2,k,None,,,,,,,,,0,41,41,41,,,,,,,,,,,,,,,,,main,None,None,1,1.4998015000019222,680.755840400001,None,None,1,,,,,,,,,,,,,,031,2022-05-26_20h15.54.535,Main,2022.1.1,61.35274206990843,
positive,blue,2,k,None,,,,,,,,,0,42,42,42,,,,,,,,,,,,,,,,,main,None,None,1,1.5004102000966668,683.2555817000102,None,None,1,,,,,,,,,,,,,,031,2022-05-26_20h15.54.535,Main,2022.1.1,61.35274206990843,
negative,blue,2,None,k,,,,,,,,,0,43,43,43,,,,,,,,,,,,,,,,,main,k,k,1,0.8126000999473035,685.7582762999227,None,None,0,,,,,,,,,,,,,,031,2022-05-26_20h15.54.535,Main,2022.1.1,61.35274206990843,
negative,red,1,None,None,,,,,,,,,0,44,44,44,,,,,,,,,,,,,,,,,main,None,None,1,1.4984917000401765,687.5748745999299,None,None,1,,,,,,,,,,,,,,031,2022-05-26_20h15.54.535,Main,2022.1.1,61.35274206990843,
negative,yellow,1,k,None,,,,,,,,,0,45,45,45,,,,,,,,,,,,,,,,,main,None,None,1,1.4998037000186741,690.0723487999057,None,None,1,,,,,,,,,,,,,,031,2022-05-26_20h15.54.535,Main,2022.1.1,61.35274206990843,
negative,yellow,1,k,None,,,,,,,,,0,46,46,46,,,,,,,,,,,,,,,,,main,None,None,1,1.4979227000148967,692.5722330999561,None,None,1,,,,,,,,,,,,,,031,2022-05-26_20h15.54.535,Main,2022.1.1,61.35274206990843,
positive,red,1,None,None,,,,,,,,,0,47,47,47,,,,,,,,,,,,,,,,,main,None,None,1,1.4996258000610396,695.0722510999767,None,None,1,,,,,,,,,,,,,,031,2022-05-26_20h15.54.535,Main,2022.1.1,61.35274206990843,
positive,yellow,1,None,k,,,,,,,,,0,48,48,48,,,,,,,,,,,,,,,,,main,k,k,1,0.7677864999277517,697.5719409999438,None,None,0,,,,,,,,,,,,,,031,2022-05-26_20h15.54.535,Main,2022.1.1,61.35274206990843,
negative,blue,1,None,k,,,,,,,,,0,49,49,49,,,,,,,,,,,,,,,,,main,k,k,1,1.499002099968493,699.3412800999358,None,None,0,,,,,,,,,,,,,,031,2022-05-26_20h15.54.535,Main,2022.1.1,61.35274206990843,
positive,yellow,2,None,k,,,,,,,,,0,50,50,50,,,,,,,,,,,,,,,,,main,k,k,1,0.9963955000275746,701.8412706999807,None,None,0,,,,,,,,,,,,,,031,2022-05-26_20h15.54.535,Main,2022.1.1,61.35274206990843,
negative,blue,1,None,k,,,,,,,,,0,51,51,51,,,,,,,,,,,,,,,,,main,k,k,1,1.8517124999780208,703.8384336999152,None,None,0,,,,,,,,,,,,,,031,2022-05-26_20h15.54.535,Main,2022.1.1,61.35274206990843,
positive,red,2,None,None,,,,,,,,,0,52,52,52,,,,,,,,,,,,,,,,,main,None,None,1,1.4986484000692144,707.6911282999208,None,None,1,,,,,,,,,,,,,,031,2022-05-26_20h15.54.535,Main,2022.1.1,61.35274206990843,
positive,yellow,2,None,k,,,,,,,,,0,53,53,53,,,,,,,,,,,,,,,,,main,k,k,1,0.9318484000395983,710.1885905999225,None,None,0,,,,,,,,,,,,,,031,2022-05-26_20h15.54.535,Main,2022.1.1,61.35274206990843,
negative,red,2,None,None,,,,,,,,,0,54,54,54,,,,,,,,,,,,,,,,,main,None,None,1,1.5016670000040904,712.1216023999732,None,None,1,,,,,,,,,,,,,,031,2022-05-26_20h15.54.535,Main,2022.1.1,61.35274206990843,
positive,yellow,1,None,k,,,,,,,,,0,55,55,55,,,,,,,,,,,,,,,,,main,k,k,1,1.216078000026755,714.6243291000137,None,None,0,,,,,,,,,,,,,,031,2022-05-26_20h15.54.535,Main,2022.1.1,61.35274206990843,
negative,blue,2,None,k,,,,,,,,,0,56,56,56,,,,,,,,,,,,,,,,,main,k,k,1,1.0464623000007123,716.8385899999412,None,None,0,,,,,,,,,,,,,,031,2022-05-26_20h15.54.535,Main,2022.1.1,61.35274206990843,
positive,blue,1,k,None,,,,,,,,,0,57,57,57,,,,,,,,,,,,,,,,,main,None,None,1,1.4995814999565482,718.8884036999661,None,None,1,,,,,,,,,,,,,,031,2022-05-26_20h15.54.535,Main,2022.1.1,61.35274206990843,
positive,blue,1,k,None,,,,,,,,,0,58,58,58,,,,,,,,,,,,,,,,,main,None,None,1,1.500491000013426,721.3880561999977,None,None,1,,,,,,,,,,,,,,031,2022-05-26_20h15.54.535,Main,2022.1.1,61.35274206990843,
negative,yellow,2,k,None,,,,,,,,,0,59,59,59,,,,,,,,,,,,,,,,,main,None,k,0,0.7991981999948621,723.8907801999012,None,None,1,,,,,,,,,,,,,,031,2022-05-26_20h15.54.535,Main,2022.1.1,61.35274206990843,
positive,red,2,None,None,,,,,,,,,0,60,60,60,,,,,,,,,,,,,,,,,main,None,None,1,1.4867607000051066,726.7046272999141,None,None,1,,,,,,,,,,,,,,031,2022-05-26_20h15.54.535,Main,2022.1.1,61.35274206990843,
negative,yellow,1,k,None,,,,,,,,,0,61,61,61,,,,,,,,,,,,,,,,,main,None,None,1,1.4986444999231026,729.1906897999579,None,None,1,,,,,,,,,,,,,,031,2022-05-26_20h15.54.535,Main,2022.1.1,61.35274206990843,
negative,red,1,None,None,,,,,,,,,0,62,62,62,,,,,,,,,,,,,,,,,main,None,None,1,1.4972999000456184,731.6906009999802,None,None,1,,,,,,,,,,,,,,031,2022-05-26_20h15.54.535,Main,2022.1.1,61.35274206990843,
negative,blue,1,None,k,,,,,,,,,0,63,63,63,,,,,,,,,,,,,,,,,main,k,k,1,0.9983891999581829,734.1878001999576,None,None,0,,,,,,,,,,,,,,031,2022-05-26_20h15.54.535,Main,2022.1.1,61.35274206990843,
positive,blue,2,k,None,,,,,,,,,0,64,64,64,,,,,,,,,,,,,,,,,main,None,None,1,1.500970400054939,736.1905379999662,None,None,1,,,,,,,,,,,,,,031,2022-05-26_20h15.54.535,Main,2022.1.1,61.35274206990843,
negative,yellow,2,k,None,,,,,,,,,0,65,65,65,,,,,,,,,,,,,,,,,main,None,None,1,1.499039400019683,738.6880029999884,None,None,1,,,,,,,,,,,,,,031,2022-05-26_20h15.54.535,Main,2022.1.1,61.35274206990843,
positive,yellow,2,None,k,,,,,,,,,0,66,66,66,,,,,,,,,,,,,,,,,main,k,k,1,0.9803401000099257,741.1879503999371,None,None,0,,,,,,,,,,,,,,031,2022-05-26_20h15.54.535,Main,2022.1.1,61.35274206990843,
positive,yellow,2,None,k,,,,,,,,,0,67,67,67,,,,,,,,,,,,,,,,,main,k,k,1,0.8821436000289395,743.1712261999492,None,None,0,,,,,,,,,,,,,,031,2022-05-26_20h15.54.535,Main,2022.1.1,61.35274206990843,
positive,red,1,None,None,,,,,,,,,0,68,68,68,,,,,,,,,,,,,,,,,main,None,None,1,1.4988885000348091,745.0568912000163,None,None,1,,,,,,,,,,,,,,031,2022-05-26_20h15.54.535,Main,2022.1.1,61.35274206990843,
positive,yellow,1,None,k,,,,,,,,,0,69,69,69,,,,,,,,,,,,,,,,,main,k,k,1,0.8491891999728978,747.5544838999631,None,None,0,,,,,,,,,,,,,,031,2022-05-26_20h15.54.535,Main,2022.1.1,61.35274206990843,
negative,yellow,2,k,None,,,,,,,,,0,70,70,70,,,,,,,,,,,,,,,,,main,None,None,1,1.5041009999113157,749.4044350999175,None,None,1,,,,,,,,,,,,,,031,2022-05-26_20h15.54.535,Main,2022.1.1,61.35274206990843,
positive,yellow,1,None,k,,,,,,,,,0,71,71,71,,,,,,,,,,,,,,,,,main,k,k,1,0.876689900062047,751.9081353999209,None,None,0,,,,,,,,,,,,,,031,2022-05-26_20h15.54.535,Main,2022.1.1,61.35274206990843,
negative,blue,1,None,k,,,,,,,,,0,72,72,72,,,,,,,,,,,,,,,,,main,k,k,1,1.2186145999003202,753.7874048999511,None,None,0,,,,,,,,,,,,,,031,2022-05-26_20h15.54.535,Main,2022.1.1,61.35274206990843,
negative,red,2,None,None,,,,,,,,,0,73,73,73,,,,,,,,,,,,,,,,,main,None,None,1,1.4960363999707624,756.0067928999197,None,None,1,,,,,,,,,,,,,,031,2022-05-26_20h15.54.535,Main,2022.1.1,61.35274206990843,
positive,blue,2,k,None,,,,,,,,,0,74,74,74,,,,,,,,,,,,,,,,,main,None,None,1,1.4998585999710485,758.5098186999094,None,None,1,,,,,,,,,,,,,,031,2022-05-26_20h15.54.535,Main,2022.1.1,61.35274206990843,
negative,blue,2,None,k,,,,,,,,,0,75,75,75,,,,,,,,,,,,,,,,,main,k,k,1,0.9813853999366984,761.0039144000039,None,None,0,,,,,,,,,,,,,,031,2022-05-26_20h15.54.535,Main,2022.1.1,61.35274206990843,
negative,blue,2,None,k,,,,,,,,,0,76,76,76,,,,,,,,,,,,,,,,,main,k,k,1,0.918506299960427,762.9872639999958,None,None,0,,,,,,,,,,,,,,031,2022-05-26_20h15.54.535,Main,2022.1.1,61.35274206990843,
negative,yellow,1,k,None,,,,,,,,,0,77,77,77,,,,,,,,,,,,,,,,,main,None,None,1,1.496277300058864,764.9065755999181,None,None,1,,,,,,,,,,,,,,031,2022-05-26_20h15.54.535,Main,2022.1.1,61.35274206990843,
positive,blue,1,k,None,,,,,,,,,0,78,78,78,,,,,,,,,,,,,,,,,main,None,None,1,1.4996173001127318,767.4065177999437,None,None,1,,,,,,,,,,,,,,031,2022-05-26_20h15.54.535,Main,2022.1.1,61.35274206990843,
positive,blue,1,k,None,,,,,,,,,0,79,79,79,,,,,,,,,,,,,,,,,main,None,None,1,1.500674800015986,769.9037288000109,None,None,1,,,,,,,,,,,,,,031,2022-05-26_20h15.54.535,Main,2022.1.1,61.35274206990843,
positive,red,2,None,None,,,,,,,,,0,80,80,80,,,,,,,,,,,,,,,,,main,None,None,1,1.499160400009714,772.4064714999404,None,None,1,,,,,,,,,,,,,,031,2022-05-26_20h15.54.535,Main,2022.1.1,61.35274206990843,
positive,yellow,2,None,k,,,,,,,,,0,81,81,81,,,,,,,,,,,,,,,,,main,k,k,1,0.9297084999270737,774.9064346000087,None,None,0,,,,,,,,,,,,,,031,2022-05-26_20h15.54.535,Main,2022.1.1,61.35274206990843,
positive,blue,1,k,None,,,,,,,,,0,82,82,82,,,,,,,,,,,,,,,,,main,None,None,1,1.5006666000699624,776.8369243999477,None,None,1,,,,,,,,,,,,,,031,2022-05-26_20h15.54.535,Main,2022.1.1,61.35274206990843,
negative,yellow,2,k,None,,,,,,,,,0,83,83,83,,,,,,,,,,,,,,,,,main,None,None,1,1.4983269000658765,779.3396441999357,None,None,1,,,,,,,,,,,,,,031,2022-05-26_20h15.54.535,Main,2022.1.1,61.35274206990843,
positive,blue,2,k,None,,,,,,,,,0,84,84,84,,,,,,,,,,,,,,,,,main,None,None,1,1.4963335000211373,781.8395722999703,None,None,1,,,,,,,,,,,,,,031,2022-05-26_20h15.54.535,Main,2022.1.1,61.35274206990843,
positive,yellow,1,None,k,,,,,,,,,0,85,85,85,,,,,,,,,,,,,,,,,main,k,k,1,1.9163857999956235,784.3367804000154,None,None,0,,,,,,,,,,,,,,031,2022-05-26_20h15.54.535,Main,2022.1.1,61.35274206990843,
positive,blue,2,k,None,,,,,,,,,0,86,86,86,,,,,,,,,,,,,,,,,main,None,None,1,1.498525399947539,788.2561363999266,None,None,1,,,,,,,,,,,,,,031,2022-05-26_20h15.54.535,Main,2022.1.1,61.35274206990843,
positive,blue,1,k,None,,,,,,,,,0,87,87,87,,,,,,,,,,,,,,,,,main,None,None,1,1.4993516999529675,790.7562897999305,None,None,1,,,,,,,,,,,,,,031,2022-05-26_20h15.54.535,Main,2022.1.1,61.35274206990843,
negative,yellow,2,k,None,,,,,,,,,0,88,88,88,,,,,,,,,,,,,,,,,main,None,None,1,1.500725100049749,793.2532385999803,None,None,1,,,,,,,,,,,,,,031,2022-05-26_20h15.54.535,Main,2022.1.1,61.35274206990843,
negative,blue,2,None,k,,,,,,,,,0,89,89,89,,,,,,,,,,,,,,,,,main,k,k,1,1.1634369998937473,795.755983699928,None,None,0,,,,,,,,,,,,,,031,2022-05-26_20h15.54.535,Main,2022.1.1,61.35274206990843,
positive,yellow,2,None,k,,,,,,,,,0,90,90,90,,,,,,,,,,,,,,,,,main,k,k,1,0.9658750999951735,797.92257039994,None,None,0,,,,,,,,,,,,,,031,2022-05-26_20h15.54.535,Main,2022.1.1,61.35274206990843,
negative,yellow,1,k,None,,,,,,,,,0,91,91,91,,,,,,,,,,,,,,,,,main,None,None,1,1.4992790999822319,799.8867266000016,None,None,1,,,,,,,,,,,,,,031,2022-05-26_20h15.54.535,Main,2022.1.1,61.35274206990843,
negative,red,2,None,None,,,,,,,,,0,92,92,92,,,,,,,,,,,,,,,,,main,None,None,1,1.5005698000313714,802.3863909000065,None,None,1,,,,,,,,,,,,,,031,2022-05-26_20h15.54.535,Main,2022.1.1,61.35274206990843,
negative,blue,2,None,k,,,,,,,,,0,93,93,93,,,,,,,,,,,,,,,,,main,k,k,1,1.2157978999894112,804.8891205999535,None,None,0,,,,,,,,,,,,,,031,2022-05-26_20h15.54.535,Main,2022.1.1,61.35274206990843,
negative,blue,1,None,k,,,,,,,,,0,94,94,94,,,,,,,,,,,,,,,,,main,k,k,1,0.9630568000720814,807.105731699965,None,None,0,,,,,,,,,,,,,,031,2022-05-26_20h15.54.535,Main,2022.1.1,61.35274206990843,
negative,blue,1,None,k,,,,,,,,,0,95,95,95,,,,,,,,,,,,,,,,,main,k,k,1,1.0162637000903487,809.0695719999494,None,None,0,,,,,,,,,,,,,,031,2022-05-26_20h15.54.535,Main,2022.1.1,61.35274206990843,
negative,red,1,None,None,,,,,,,,,0,96,96,96,,,,,,,,,,,,,,,,,main,None,None,1,1.4986513999756426,811.088958999957,None,None,1,,,,,,,,,,,,,,031,2022-05-26_20h15.54.535,Main,2022.1.1,61.35274206990843,
positive,yellow,1,None,k,,,,,,,,,0,97,97,97,,,,,,,,,,,,,,,,,main,k,k,1,0.9038949999958277,813.5867322999984,None,None,0,,,,,,,,,,,,,,031,2022-05-26_20h15.54.535,Main,2022.1.1,61.35274206990843,
negative,yellow,1,k,None,,,,,,,,,0,98,98,98,,,,,,,,,,,,,,,,,main,None,None,1,1.4947918999241665,815.4936926999362,None,None,1,,,,,,,,,,,,,,031,2022-05-26_20h15.54.535,Main,2022.1.1,61.35274206990843,
positive,red,1,None,None,,,,,,,,,0,99,99,99,,,,,,,,,,,,,,,,,main,None,None,1,1.5006170999258757,817.9861623999896,None,None,1,,,,,,,,,,,,,,031,2022-05-26_20h15.54.535,Main,2022.1.1,61.35274206990843,
positive,blue,1,k,None,,,,,,,,,0,100,100,100,,,,,,,,,,,,,,,,,main,None,None,1,1.4966128999367356,820.4888113999041,None,None,1,,,,,,,,,,,,,,031,2022-05-26_20h15.54.535,Main,2022.1.1,61.35274206990843,
negative,yellow,1,k,None,,,,,,,,,0,101,101,101,,,,,,,,,,,,,,,,,main,None,None,1,1.4996360000222921,822.9862358999671,None,None,1,,,,,,,,,,,,,,031,2022-05-26_20h15.54.535,Main,2022.1.1,61.35274206990843,
negative,blue,2,None,k,,,,,,,,,0,102,102,102,,,,,,,,,,,,,,,,,main,k,k,1,1.064751400030218,825.4859156999737,None,None,0,,,,,,,,,,,,,,031,2022-05-26_20h15.54.535,Main,2022.1.1,61.35274206990843,
negative,yellow,2,k,None,,,,,,,,,0,103,103,103,,,,,,,,,,,,,,,,,main,None,None,1,1.5016375998966396,827.5526044999715,None,None,1,,,,,,,,,,,,,,031,2022-05-26_20h15.54.535,Main,2022.1.1,61.35274206990843,
positive,yellow,2,None,k,,,,,,,,,0,104,104,104,,,,,,,,,,,,,,,,,main,k,k,1,1.413156699971296,830.0552672999911,None,None,0,,,,,,,,,,,,,,031,2022-05-26_20h15.54.535,Main,2022.1.1,61.35274206990843,
positive,blue,1,k,None,,,,,,,,,0,105,105,105,,,,,,,,,,,,,,,,,main,None,None,1,1.4993985999608412,832.4694019999588,None,None,1,,,,,,,,,,,,,,031,2022-05-26_20h15.54.535,Main,2022.1.1,61.35274206990843,
positive,blue,2,k,None,,,,,,,,,0,106,106,106,,,,,,,,,,,,,,,,,main,None,None,1,1.5002952999202535,834.9690257000038,None,None,1,,,,,,,,,,,,,,031,2022-05-26_20h15.54.535,Main,2022.1.1,61.35274206990843,
negative,blue,1,None,k,,,,,,,,,0,107,107,107,,,,,,,,,,,,,,,,,main,k,k,1,0.9302473999559879,837.4717680999311,None,None,0,,,,,,,,,,,,,,031,2022-05-26_20h15.54.535,Main,2022.1.1,61.35274206990843,
positive,yellow,2,None,k,,,,,,,,,0,108,108,108,,,,,,,,,,,,,,,,,main,k,k,1,1.3989060999592766,839.4050702999812,None,None,0,,,,,,,,,,,,,,031,2022-05-26_20h15.54.535,Main,2022.1.1,61.35274206990843,
negative,yellow,1,k,None,,,,,,,,,0,109,109,109,,,,,,,,,,,,,,,,,main,None,None,1,1.4994368999032304,841.8025291999802,None,None,1,,,,,,,,,,,,,,031,2022-05-26_20h15.54.535,Main,2022.1.1,61.35274206990843,
negative,blue,2,None,k,,,,,,,,,0,110,110,110,,,,,,,,,,,,,,,,,main,k,k,1,1.2318025999702513,844.3021885999478,None,None,0,,,,,,,,,,,,,,031,2022-05-26_20h15.54.535,Main,2022.1.1,61.35274206990843,
positive,blue,2,k,None,,,,,,,,,0,111,111,111,,,,,,,,,,,,,,,,,main,None,None,1,1.4986185999587178,846.538262499962,None,None,1,,,,,,,,,,,,,,031,2022-05-26_20h15.54.535,Main,2022.1.1,61.35274206990843,
negative,blue,1,None,k,,,,,,,,,0,112,112,112,,,,,,,,,,,,,,,,,main,k,k,1,0.8991689999820665,849.0412672999082,None,None,0,,,,,,,,,,,,,,031,2022-05-26_20h15.54.535,Main,2022.1.1,61.35274206990843,
positive,yellow,1,None,k,,,,,,,,,0,113,113,113,,,,,,,,,,,,,,,,,main,k,k,1,0.9824808000121266,850.9353862999706,None,None,0,,,,,,,,,,,,,,031,2022-05-26_20h15.54.535,Main,2022.1.1,61.35274206990843,
negative,red,1,None,None,,,,,,,,,0,114,114,114,,,,,,,,,,,,,,,,,main,None,None,1,1.5015126999933273,852.9187219999731,None,None,1,,,,,,,,,,,,,,031,2022-05-26_20h15.54.535,Main,2022.1.1,61.35274206990843,
positive,red,1,None,None,,,,,,,,,0,115,115,115,,,,,,,,,,,,,,,,,main,None,None,1,1.496663000085391,855.4214197999099,None,None,1,,,,,,,,,,,,,,031,2022-05-26_20h15.54.535,Main,2022.1.1,61.35274206990843,
negative,red,2,None,None,,,,,,,,,0,116,116,116,,,,,,,,,,,,,,,,,main,None,None,1,1.499551499960944,857.9212760999799,None,None,1,,,,,,,,,,,,,,031,2022-05-26_20h15.54.535,Main,2022.1.1,61.35274206990843,
negative,yellow,2,k,None,,,,,,,,,0,117,117,117,,,,,,,,,,,,,,,,,main,None,None,1,1.5007275000680238,860.4185717999935,None,None,1,,,,,,,,,,,,,,031,2022-05-26_20h15.54.535,Main,2022.1.1,61.35274206990843,
positive,yellow,1,None,k,,,,,,,,,0,118,118,118,,,,,,,,,,,,,,,,,main,k,k,1,1.0158898000372574,862.921250000014,None,None,0,,,,,,,,,,,,,,031,2022-05-26_20h15.54.535,Main,2022.1.1,61.35274206990843,
positive,red,2,None,None,,,,,,,,,0,119,119,119,,,,,,,,,,,,,,,,,main,None,None,1,1.4970057000173256,864.9378922999604,None,None,1,,,,,,,,,,,,,,031,2022-05-26_20h15.54.535,Main,2022.1.1,61.35274206990843,
positive,blue,2,k,None,,,,,,,,,0,120,120,120,,,,,,,,,,,,,,,,,main,None,None,1,1.5005925999721512,867.4351035999134,None,None,1,,,,,,,,,,,,,,031,2022-05-26_20h15.54.535,Main,2022.1.1,61.35274206990843,
negative,red,1,None,None,,,,,,,,,0,121,121,121,,,,,,,,,,,,,,,,,main,None,None,1,1.4989060000516474,869.9377952999203,None,None,1,,,,,,,,,,,,,,031,2022-05-26_20h15.54.535,Main,2022.1.1,61.35274206990843,
positive,yellow,2,None,k,,,,,,,,,0,122,122,122,,,,,,,,,,,,,,,,,main,k,k,1,0.913293799967505,872.4376120999223,None,None,0,,,,,,,,,,,,,,031,2022-05-26_20h15.54.535,Main,2022.1.1,61.35274206990843,
negative,red,2,None,None,,,,,,,,,0,123,123,123,,,,,,,,,,,,,,,,,main,None,None,1,1.501700200024061,874.3515698999399,None,None,1,,,,,,,,,,,,,,031,2022-05-26_20h15.54.535,Main,2022.1.1,61.35274206990843,
negative,yellow,2,k,None,,,,,,,,,0,124,124,124,,,,,,,,,,,,,,,,,main,None,None,1,1.4987593999831006,876.8542800999712,None,None,1,,,,,,,,,,,,,,031,2022-05-26_20h15.54.535,Main,2022.1.1,61.35274206990843,
positive,red,1,None,None,,,,,,,,,0,125,125,125,,,,,,,,,,,,,,,,,main,None,None,1,1.4969346000580117,879.3542335999664,None,None,1,,,,,,,,,,,,,,031,2022-05-26_20h15.54.535,Main,2022.1.1,61.35274206990843,
negative,blue,2,None,k,,,,,,,,,0,126,126,126,,,,,,,,,,,,,,,,,main,k,k,1,0.9318187000462785,881.8514708000002,None,None,0,,,,,,,,,,,,,,031,2022-05-26_20h15.54.535,Main,2022.1.1,61.35274206990843,
negative,blue,1,None,k,,,,,,,,,0,127,127,127,,,,,,,,,,,,,,,,,main,k,k,1,0.9846577000571415,883.7874358999543,None,None,0,,,,,,,,,,,,,,031,2022-05-26_20h15.54.535,Main,2022.1.1,61.35274206990843,
negative,yellow,1,k,None,,,,,,,,,0,128,128,128,,,,,,,,,,,,,,,,,main,None,None,1,1.4971867999993265,885.7707810999127,None,None,1,,,,,,,,,,,,,,031,2022-05-26_20h15.54.535,Main,2022.1.1,61.35274206990843,
negative,yellow,1,k,None,,,,,,,,,0,129,129,129,,,,,,,,,,,,,,,,,main,None,None,1,1.5005573000526056,888.2680034999503,None,None,1,,,,,,,,,,,,,,031,2022-05-26_20h15.54.535,Main,2022.1.1,61.35274206990843,
positive,blue,1,k,None,,,,,,,,,0,130,130,130,,,,,,,,,,,,,,,,,main,None,None,1,1.4962960999691859,890.7706834999844,None,None,1,,,,,,,,,,,,,,031,2022-05-26_20h15.54.535,Main,2022.1.1,61.35274206990843,
negative,blue,1,None,k,,,,,,,,,0,131,131,131,,,,,,,,,,,,,,,,,main,k,k,1,1.1496642000274733,893.2678460999159,None,None,0,,,,,,,,,,,,,,031,2022-05-26_20h15.54.535,Main,2022.1.1,61.35274206990843,
negative,blue,2,None,k,,,,,,,,,0,132,132,132,,,,,,,,,,,,,,,,,main,k,k,1,0.7848635000409558,895.4205389999552,None,None,0,,,,,,,,,,,,,,031,2022-05-26_20h15.54.535,Main,2022.1.1,61.35274206990843,
positive,blue,2,k,None,,,,,,,,,0,133,133,133,,,,,,,,,,,,,,,,,main,None,None,1,1.4968115000519902,897.2038834999548,None,None,1,,,,,,,,,,,,,,031,2022-05-26_20h15.54.535,Main,2022.1.1,61.35274206990843,
positive,red,2,None,None,,,,,,,,,0,134,134,134,,,,,,,,,,,,,,,,,main,None,None,1,1.5007001000922173,899.7010088999523,None,None,1,,,,,,,,,,,,,,031,2022-05-26_20h15.54.535,Main,2022.1.1,61.35274206990843,
negative,yellow,2,k,None,,,,,,,,,0,135,135,135,,,,,,,,,,,,,,,,,main,None,None,1,1.4972796000074595,902.2037658999907,None,None,1,,,,,,,,,,,,,,031,2022-05-26_20h15.54.535,Main,2022.1.1,61.35274206990843,
positive,yellow,2,None,k,,,,,,,,,0,136,136,136,,,,,,,,,,,,,,,,,main,k,k,1,1.281279299990274,904.703588699922,None,None,0,,,,,,,,,,,,,,031,2022-05-26_20h15.54.535,Main,2022.1.1,61.35274206990843,
positive,blue,1,k,None,,,,,,,,,0,137,137,137,,,,,,,,,,,,,,,,,main,None,None,1,1.5022195000201464,906.9842231000075,None,None,1,,,,,,,,,,,,,,031,2022-05-26_20h15.54.535,Main,2022.1.1,61.35274206990843,
positive,yellow,1,None,k,,,,,,,,,0,138,138,138,,,,,,,,,,,,,,,,,main,k,k,1,0.9630984999239445,909.4869310999056,None,None,0,,,,,,,,,,,,,,031,2022-05-26_20h15.54.535,Main,2022.1.1,61.35274206990843,
positive,yellow,1,None,k,,,,,,,,,0,139,139,139,,,,,,,,,,,,,,,,,main,k,k,1,0.6988832999486476,911.4535370999947,None,None,0,,,,,,,,,,,,,,031,2022-05-26_20h15.54.535,Main,2022.1.1,61.35274206990843,
positive,yellow,1,None,k,,,,,,,,,0,140,140,140,,,,,,,,,,,,,,,,,main,k,k,1,0.7817831001011655,913.1510530000087,None,None,0,,,,,,,,,,,,,,031,2022-05-26_20h15.54.535,Main,2022.1.1,61.35274206990843,
positive,blue,1,k,None,,,,,,,,,0,141,141,141,,,,,,,,,,,,,,,,,main,None,None,1,1.4997168000554666,914.9340616000118,None,None,1,,,,,,,,,,,,,,031,2022-05-26_20h15.54.535,Main,2022.1.1,61.35274206990843,
positive,blue,2,k,None,,,,,,,,,0,142,142,142,,,,,,,,,,,,,,,,,main,None,None,1,1.5007307999767363,917.434090099996,None,None,1,,,,,,,,,,,,,,031,2022-05-26_20h15.54.535,Main,2022.1.1,61.35274206990843,
positive,yellow,2,None,k,,,,,,,,,0,143,143,143,,,,,,,,,,,,,,,,,main,k,k,1,1.146849500015378,919.9367406999227,None,None,0,,,,,,,,,,,,,,031,2022-05-26_20h15.54.535,Main,2022.1.1,61.35274206990843,
negative,yellow,2,k,None,,,,,,,,,0,144,144,144,,,,,,,,,,,,,,,,,main,None,None,1,1.4983520999085158,922.0866932999343,None,None,1,,,,,,,,,,,,,,031,2022-05-26_20h15.54.535,Main,2022.1.1,61.35274206990843,
negative,blue,2,None,k,,,,,,,,,0,145,145,145,,,,,,,,,,,,,,,,,main,k,k,1,0.9329772000201046,924.5838584000012,None,None,0,,,,,,,,,,,,,,031,2022-05-26_20h15.54.535,Main,2022.1.1,61.35274206990843,
negative,red,1,None,None,,,,,,,,,0,146,146,146,,,,,,,,,,,,,,,,,main,None,None,1,1.5020395000465214,926.5199009999633,None,None,1,,,,,,,,,,,,,,031,2022-05-26_20h15.54.535,Main,2022.1.1,61.35274206990843,
positive,blue,1,k,None,,,,,,,,,0,147,147,147,,,,,,,,,,,,,,,,,main,None,None,1,1.4954396000830457,929.0173813999863,None,None,1,,,,,,,,,,,,,,031,2022-05-26_20h15.54.535,Main,2022.1.1,61.35274206990843,
positive,yellow,1,None,k,,,,,,,,,0,148,148,148,,,,,,,,,,,,,,,,,main,k,k,1,0.9160159999737516,931.5172509999247,None,None,0,,,,,,,,,,,,,,031,2022-05-26_20h15.54.535,Main,2022.1.1,61.35274206990843,
negative,red,2,None,None,,,,,,,,,0,149,149,149,,,,,,,,,,,,,,,,,main,None,None,1,1.5008365999674425,933.4339565999107,None,None,1,,,,,,,,,,,,,,031,2022-05-26_20h15.54.535,Main,2022.1.1,61.35274206990843,
negative,blue,1,None,k,,,,,,,,,0,150,150,150,,,,,,,,,,,,,,,,,main,k,k,1,1.146873699966818,935.9339318999555,None,None,0,,,,,,,,,,,,,,031,2022-05-26_20h15.54.535,Main,2022.1.1,61.35274206990843,
negative,yellow,2,k,None,,,,,,,,,0,151,151,151,,,,,,,,,,,,,,,,,main,None,None,1,1.5012008999474347,938.0838165999157,None,None,1,,,,,,,,,,,,,,031,2022-05-26_20h15.54.535,Main,2022.1.1,61.35274206990843,
negative,blue,2,None,k,,,,,,,,,0,152,152,152,,,,,,,,,,,,,,,,,main,k,k,1,1.163664699997753,940.5838066999568,None,None,0,,,,,,,,,,,,,,031,2022-05-26_20h15.54.535,Main,2022.1.1,61.35274206990843,
negative,yellow,1,k,None,,,,,,,,,0,153,153,153,,,,,,,,,,,,,,,,,main,None,None,1,1.4994997999165207,942.7528110999847,None,None,1,,,,,,,,,,,,,,031,2022-05-26_20h15.54.535,Main,2022.1.1,61.35274206990843,
negative,blue,1,None,k,,,,,,,,,0,154,154,154,,,,,,,,,,,,,,,,,main,k,k,1,0.8508763000136241,945.2501529000001,None,None,0,,,,,,,,,,,,,,031,2022-05-26_20h15.54.535,Main,2022.1.1,61.35274206990843,
positive,yellow,2,None,k,,,,,,,,,0,155,155,155,,,,,,,,,,,,,,,,,main,k,k,1,0.9491058000130579,947.1028711999534,None,None,0,,,,,,,,,,,,,,031,2022-05-26_20h15.54.535,Main,2022.1.1,61.35274206990843,
positive,red,2,None,None,,,,,,,,,0,156,156,156,,,,,,,,,,,,,,,,,main,None,None,1,1.496965300058946,949.0528160999529,None,None,1,,,,,,,,,,,,,,031,2022-05-26_20h15.54.535,Main,2022.1.1,61.35274206990843,
positive,red,1,None,None,,,,,,,,,0,157,157,157,,,,,,,,,,,,,,,,,main,None,None,1,1.5004879001062363,951.550019599963,None,None,1,,,,,,,,,,,,,,031,2022-05-26_20h15.54.535,Main,2022.1.1,61.35274206990843,
positive,blue,2,k,None,,,,,,,,,0,158,158,158,,,,,,,,,,,,,,,,,main,None,None,1,1.4965375000610948,954.0526924999431,None,None,1,,,,,,,,,,,,,,031,2022-05-26_20h15.54.535,Main,2022.1.1,61.35274206990843,
negative,yellow,1,k,None,,,,,,,,,0,159,159,159,,,,,,,,,,,,,,,,,main,None,None,1,1.4996318999910727,956.5501357999165,None,None,1,,,,,,,,,,,,,,031,2022-05-26_20h15.54.535,Main,2022.1.1,61.35274206990843,
negative,red,2,None,None,,,,,,,,,0,160,160,160,,,,,,,,,,,,,,,,,main,None,None,1,1.4989478000206873,959.0498021999374,None,None,1,,,,,,,,,,,,,,031,2022-05-26_20h15.54.535,Main,2022.1.1,61.35274206990843,
negative,blue,1,None,k,,,,,,,,,0,161,161,161,,,,,,,,,,,,,,,,,main,k,k,1,0.9007630000123754,961.5498764999211,None,None,0,,,,,,,,,,,,,,031,2022-05-26_20h15.54.535,Main,2022.1.1,61.35274206990843,
negative,blue,1,None,k,,,,,,,,,0,162,162,162,,,,,,,,,,,,,,,,,main,k,k,1,0.7655248999362811,963.4525027999189,None,None,0,,,,,,,,,,,,,,031,2022-05-26_20h15.54.535,Main,2022.1.1,61.35274206990843,
negative,yellow,1,k,None,,,,,,,,,0,163,163,163,,,,,,,,,,,,,,,,,main,None,None,1,1.4961330000078306,965.2191223999253,None,None,1,,,,,,,,,,,,,,031,2022-05-26_20h15.54.535,Main,2022.1.1,61.35274206990843,
negative,yellow,1,k,None,,,,,,,,,0,164,164,164,,,,,,,,,,,,,,,,,main,None,None,1,1.5017317000310868,967.7163100999314,None,None,1,,,,,,,,,,,,,,031,2022-05-26_20h15.54.535,Main,2022.1.1,61.35274206990843,
positive,yellow,1,None,k,,,,,,,,,0,165,165,165,,,,,,,,,,,,,,,,,main,k,k,1,0.9994468999793753,970.2190127999056,None,None,0,,,,,,,,,,,,,,031,2022-05-26_20h15.54.535,Main,2022.1.1,61.35274206990843,
negative,red,1,None,None,,,,,,,,,0,166,166,166,,,,,,,,,,,,,,,,,main,None,None,1,1.4970671000191942,972.2189923999831,None,None,1,,,,,,,,,,,,,,031,2022-05-26_20h15.54.535,Main,2022.1.1,61.35274206990843,
negative,yellow,2,k,None,,,,,,,,,0,167,167,167,,,,,,,,,,,,,,,,,main,None,None,1,1.500437399954535,974.7161933999741,None,None,1,,,,,,,,,,,,,,031,2022-05-26_20h15.54.535,Main,2022.1.1,61.35274206990843,
positive,blue,2,k,None,,,,,,,,,0,168,168,168,,,,,,,,,,,,,,,,,main,None,None,1,1.4965973000507802,977.2188790999353,None,None,1,,,,,,,,,,,,,,031,2022-05-26_20h15.54.535,Main,2022.1.1,61.35274206990843,
positive,red,2,None,None,,,,,,,,,0,169,169,169,,,,,,,,,,,,,,,,,main,None,None,1,1.5021715000038967,979.7187006999739,None,None,1,,,,,,,,,,,,,,031,2022-05-26_20h15.54.535,Main,2022.1.1,61.35274206990843,
positive,red,1,None,None,,,,,,,,,0,170,170,170,,,,,,,,,,,,,,,,,main,None,None,1,1.495569899911061,982.216295799939,None,None,1,,,,,,,,,,,,,,031,2022-05-26_20h15.54.535,Main,2022.1.1,61.35274206990843,
negative,blue,2,None,k,,,,,,,,,0,171,171,171,,,,,,,,,,,,,,,,,main,k,k,1,0.998909700079821,984.7162291000132,None,None,0,,,,,,,,,,,,,,031,2022-05-26_20h15.54.535,Main,2022.1.1,61.35274206990843,
positive,blue,2,k,None,,,,,,,,,0,172,172,172,,,,,,,,,,,,,,,,,main,None,None,1,1.5016659001121297,986.7158863999648,None,None,1,,,,,,,,,,,,,,031,2022-05-26_20h15.54.535,Main,2022.1.1,61.35274206990843,
negative,yellow,2,k,None,,,,,,,,,0,173,173,173,,,,,,,,,,,,,,,,,main,None,None,1,1.4990431000478566,989.2186476999195,None,None,1,,,,,,,,,,,,,,031,2022-05-26_20h15.54.535,Main,2022.1.1,61.35274206990843,
positive,yellow,2,None,k,,,,,,,,,0,174,174,174,,,,,,,,,,,,,,,,,main,k,k,1,0.9298074999824166,991.718593299971,None,None,0,,,,,,,,,,,,,,031,2022-05-26_20h15.54.535,Main,2022.1.1,61.35274206990843,
negative,blue,2,None,k,,,,,,,,,0,175,175,175,,,,,,,,,,,,,,,,,main,k,k,1,1.1519284000387415,993.6490942999953,None,None,0,,,,,,,,,,,,,,031,2022-05-26_20h15.54.535,Main,2022.1.1,61.35274206990843,
positive,blue,1,k,None,,,,,,,,,0,176,176,176,,,,,,,,,,,,,,,,,main,None,None,1,1.4988852000096813,995.8018300000113,None,None,1,,,,,,,,,,,,,,031,2022-05-26_20h15.54.535,Main,2022.1.1,61.35274206990843,
positive,yellow,1,None,k,,,,,,,,,0,177,177,177,,,,,,,,,,,,,,,,,main,k,k,1,0.8461210000095889,998.3017741999356,None,None,0,,,,,,,,,,,,,,031,2022-05-26_20h15.54.535,Main,2022.1.1,61.35274206990843,
positive,blue,1,k,None,,,,,,,,,0,178,178,178,,,,,,,,,,,,,,,,,main,None,None,1,1.5017430000007153,1000.1489361999556,None,None,1,,,,,,,,,,,,,,031,2022-05-26_20h15.54.535,Main,2022.1.1,61.35274206990843,
positive,yellow,2,None,k,,,,,,,,,0,179,179,179,,,,,,,,,,,,,,,,,main,k,k,1,0.7541338999290019,1002.6516809000168,None,None,0,,,,,,,,,,,,,,031,2022-05-26_20h15.54.535,Main,2022.1.1,61.35274206990843,
positive,blue,1,k,None,,,,,,,,,0,180,180,180,,,,,,,,,,,,,,,,,main,None,None,1,1.4918529000133276,1004.4105658999179,None,None,1,,,,,,,,,,,,,,031,2022-05-26_20h15.54.535,Main,2022.1.1,61.35274206990843,
negative,red,1,None,None,,,,,,,,,0,181,181,181,,,,,,,,,,,,,,,,,main,None,None,1,1.5005685000214726,1006.8988728999393,None,None,1,,,,,,,,,,,,,,031,2022-05-26_20h15.54.535,Main,2022.1.1,61.35274206990843,
negative,blue,1,None,k,,,,,,,,,0,182,182,182,,,,,,,,,,,,,,,,,main,k,k,1,0.9465056000044569,1009.4015391999856,None,None,0,,,,,,,,,,,,,,031,2022-05-26_20h15.54.535,Main,2022.1.1,61.35274206990843,
negative,yellow,2,k,None,,,,,,,,,0,183,183,183,,,,,,,,,,,,,,,,,main,None,None,1,1.5015583999920636,1011.3487257999368,None,None,1,,,,,,,,,,,,,,031,2022-05-26_20h15.54.535,Main,2022.1.1,61.35274206990843,
positive,yellow,2,None,k,,,,,,,,,0,184,184,184,,,,,,,,,,,,,,,,,main,k,k,1,0.9302918999455869,1013.851443399908,None,None,0,,,,,,,,,,,,,,031,2022-05-26_20h15.54.535,Main,2022.1.1,61.35274206990843,
positive,yellow,1,None,k,,,,,,,,,0,185,185,185,,,,,,,,,,,,,,,,,main,k,k,1,0.9163090999936685,1015.7847110999282,None,None,0,,,,,,,,,,,,,,031,2022-05-26_20h15.54.535,Main,2022.1.1,61.35274206990843,
positive,red,2,None,None,,,,,,,,,0,186,186,186,,,,,,,,,,,,,,,,,main,None,None,1,1.500328000052832,1017.6985969999805,None,None,1,,,,,,,,,,,,,,031,2022-05-26_20h15.54.535,Main,2022.1.1,61.35274206990843,
positive,blue,1,k,None,,,,,,,,,0,187,187,187,,,,,,,,,,,,,,,,,main,None,None,1,1.496411700034514,1020.2012834999477,None,None,1,,,,,,,,,,,,,,031,2022-05-26_20h15.54.535,Main,2022.1.1,61.35274206990843,
negative,yellow,1,k,None,,,,,,,,,0,188,188,188,,,,,,,,,,,,,,,,,main,None,None,1,1.502472799969837,1022.7047164000105,None,None,1,,,,,,,,,,,,,,031,2022-05-26_20h15.54.535,Main,2022.1.1,61.35274206990843,
positive,yellow,2,None,k,,,,,,,,,0,189,189,189,,,,,,,,,,,,,,,,,main,k,k,1,0.8458058000542223,1025.1986610000022,None,None,0,,,,,,,,,,,,,,031,2022-05-26_20h15.54.535,Main,2022.1.1,61.35274206990843,
negative,yellow,2,k,None,,,,,,,,,0,190,190,190,,,,,,,,,,,,,,,,,main,None,None,1,1.501899900031276,1027.0486511999043,None,None,1,,,,,,,,,,,,,,031,2022-05-26_20h15.54.535,Main,2022.1.1,61.35274206990843,
negative,yellow,1,k,None,,,,,,,,,0,191,191,191,,,,,,,,,,,,,,,,,main,None,None,1,1.4960589999100193,1029.5486605999758,None,None,1,,,,,,,,,,,,,,031,2022-05-26_20h15.54.535,Main,2022.1.1,61.35274206990843,
positive,blue,2,k,None,,,,,,,,,0,192,192,192,,,,,,,,,,,,,,,,,main,None,None,1,1.5007261999417096,1032.0483399999794,None,None,1,,,,,,,,,,,,,,031,2022-05-26_20h15.54.535,Main,2022.1.1,61.35274206990843,
positive,yellow,1,None,k,,,,,,,,,0,193,193,193,,,,,,,,,,,,,,,,,main,k,k,1,0.7465030000312254,1034.5510003999807,None,None,0,,,,,,,,,,,,,,031,2022-05-26_20h15.54.535,Main,2022.1.1,61.35274206990843,
negative,red,2,None,None,,,,,,,,,0,194,194,194,,,,,,,,,,,,,,,,,main,None,None,1,1.4994571999413893,1036.300959999906,None,None,1,,,,,,,,,,,,,,031,2022-05-26_20h15.54.535,Main,2022.1.1,61.35274206990843,
positive,red,1,None,None,,,,,,,,,0,195,195,195,,,,,,,,,,,,,,,,,main,None,None,1,1.5011151999933645,1038.798269199906,None,None,1,,,,,,,,,,,,,,031,2022-05-26_20h15.54.535,Main,2022.1.1,61.35274206990843,
negative,blue,1,None,k,,,,,,,,,0,196,196,196,,,,,,,,,,,,,,,,,main,k,k,1,0.9298857999965549,1041.2985437999014,None,None,0,,,,,,,,,,,,,,031,2022-05-26_20h15.54.535,Main,2022.1.1,61.35274206990843,
positive,blue,2,k,None,,,,,,,,,0,197,197,197,,,,,,,,,,,,,,,,,main,None,None,1,1.5010968999704346,1043.2341525999364,None,None,1,,,,,,,,,,,,,,031,2022-05-26_20h15.54.535,Main,2022.1.1,61.35274206990843,
negative,blue,2,None,k,,,,,,,,,0,198,198,198,,,,,,,,,,,,,,,,,main,k,k,1,1.2298093000426888,1045.7316231000004,None,None,0,,,,,,,,,,,,,,031,2022-05-26_20h15.54.535,Main,2022.1.1,61.35274206990843,
negative,blue,2,None,k,,,,,,,,,0,199,199,199,,,,,,,,,,,,,,,,,main,k,k,1,0.7661704999627545,1047.9646219999995,None,None,0,,,,,,,,,,,,,,031,2022-05-26_20h15.54.535,Main,2022.1.1,61.35274206990843,
positive,blue,2,k,None,,,,,,,,,0,200,200,200,,,,,,,,,,,,,,,,,main,None,None,1,1.5011735999723896,1049.7340212999843,None,None,1,,,,,,,,,,,,,,031,2022-05-26_20h15.54.535,Main,2022.1.1,61.35274206990843,
positive,blue,2,k,None,,,,,,,,,0,201,201,201,,,,,,,,,,,,,,,,,main,None,None,1,1.4973839999875054,1052.2339504999109,None,None,1,,,,,,,,,,,,,,031,2022-05-26_20h15.54.535,Main,2022.1.1,61.35274206990843,
negative,yellow,2,k,None,,,,,,,,,0,202,202,202,,,,,,,,,,,,,,,,,main,None,None,1,1.5004493000451475,1054.7311998999212,None,None,1,,,,,,,,,,,,,,031,2022-05-26_20h15.54.535,Main,2022.1.1,61.35274206990843,
positive,red,1,None,None,,,,,,,,,0,203,203,203,,,,,,,,,,,,,,,,,main,None,None,1,1.4966047999914736,1057.233868099982,None,None,1,,,,,,,,,,,,,,031,2022-05-26_20h15.54.535,Main,2022.1.1,61.35274206990843,
negative,blue,2,None,k,,,,,,,,,0,204,204,204,,,,,,,,,,,,,,,,,main,k,k,1,0.9160900000715628,1059.7313495000126,None,None,0,,,,,,,,,,,,,,031,2022-05-26_20h15.54.535,Main,2022.1.1,61.35274206990843,
negative,red,1,None,None,,,,,,,,,0,205,205,205,,,,,,,,,,,,,,,,,main,None,None,1,1.4984818999655545,1061.647896499955,None,None,1,,,,,,,,,,,,,,031,2022-05-26_20h15.54.535,Main,2022.1.1,61.35274206990843,
negative,blue,2,None,k,,,,,,,,,0,206,206,206,,,,,,,,,,,,,,,,,main,k,k,1,1.0851245999801904,1064.1479465999873,None,None,0,,,,,,,,,,,,,,031,2022-05-26_20h15.54.535,Main,2022.1.1,61.35274206990843,
negative,yellow,2,k,None,,,,,,,,,0,207,207,207,,,,,,,,,,,,,,,,,main,None,None,1,1.496983699966222,1066.2336687999777,None,None,1,,,,,,,,,,,,,,031,2022-05-26_20h15.54.535,Main,2022.1.1,61.35274206990843,
positive,yellow,2,None,k,,,,,,,,,0,208,208,208,,,,,,,,,,,,,,,,,main,k,k,1,1.1842455000150949,1068.7309039999964,None,None,0,,,,,,,,,,,,,,031,2022-05-26_20h15.54.535,Main,2022.1.1,61.35274206990843,
negative,yellow,1,k,None,,,,,,,,,0,209,209,209,,,,,,,,,,,,,,,,,main,None,None,1,1.4987677000463009,1070.9169331999728,None,None,1,,,,,,,,,,,,,,031,2022-05-26_20h15.54.535,Main,2022.1.1,61.35274206990843,
negative,red,2,None,None,,,,,,,,,0,210,210,210,,,,,,,,,,,,,,,,,main,None,None,1,1.4965386999538168,1073.4168867999688,None,None,1,,,,,,,,,,,,,,031,2022-05-26_20h15.54.535,Main,2022.1.1,61.35274206990843,
negative,blue,1,None,k,,,,,,,,,0,211,211,211,,,,,,,,,,,,,,,,,main,k,k,1,0.8825771000701934,1075.9143356999848,None,None,0,,,,,,,,,,,,,,031,2022-05-26_20h15.54.535,Main,2022.1.1,61.35274206990843,
negative,yellow,1,k,None,,,,,,,,,0,212,212,212,,,,,,,,,,,,,,,,,main,None,None,1,1.4985406000632793,1077.7976328999503,None,None,1,,,,,,,,,,,,,,031,2022-05-26_20h15.54.535,Main,2022.1.1,61.35274206990843,
positive,blue,1,k,None,,,,,,,,,0,213,213,213,,,,,,,,,,,,,,,,,main,None,None,1,1.4996504000155255,1080.2975776999956,None,None,1,,,,,,,,,,,,,,031,2022-05-26_20h15.54.535,Main,2022.1.1,61.35274206990843,
positive,blue,1,k,None,,,,,,,,,0,214,214,214,,,,,,,,,,,,,,,,,main,None,None,1,1.5009359999094158,1082.7972307999153,None,None,1,,,,,,,,,,,,,,031,2022-05-26_20h15.54.535,Main,2022.1.1,61.35274206990843,
positive,yellow,1,None,k,,,,,,,,,0,215,215,215,,,,,,,,,,,,,,,,,main,k,k,1,1.098998999921605,1085.2999351999024,None,None,0,,,,,,,,,,,,,,031,2022-05-26_20h15.54.535,Main,2022.1.1,61.35274206990843,
positive,yellow,1,None,k,,,,,,,,,0,216,216,216,,,,,,,,,,,,,,,,,main,k,k,1,0.7466012999648228,1087.3999262999278,None,None,0,,,,,,,,,,,,,,031,2022-05-26_20h15.54.535,Main,2022.1.1,61.35274206990843,
positive,yellow,2,None,k,,,,,,,,,0,217,217,217,,,,,,,,,,,,,,,,,main,k,k,1,0.7818787000142038,1089.1473888999317,None,None,0,,,,,,,,,,,,,,031,2022-05-26_20h15.54.535,Main,2022.1.1,61.35274206990843,
negative,blue,1,None,k,,,,,,,,,0,218,218,218,,,,,,,,,,,,,,,,,main,k,k,1,0.999914399930276,1090.930404099985,None,None,0,,,,,,,,,,,,,,031,2022-05-26_20h15.54.535,Main,2022.1.1,61.35274206990843,
positive,red,2,None,None,,,,,,,,,0,219,219,219,,,,,,,,,,,,,,,,,main,None,None,1,1.501586899976246,1092.930420699995,None,None,1,,,,,,,,,,,,,,031,2022-05-26_20h15.54.535,Main,2022.1.1,61.35274206990843,
positive,yellow,1,None,k,,,,,,,,,0,220,220,220,,,,,,,,,,,,,,,,,main,k,k,1,0.8292945999419317,1095.433030199958,None,None,0,,,,,,,,,,,,,,031,2022-05-26_20h15.54.535,Main,2022.1.1,61.35274206990843,
positive,blue,1,k,None,,,,,,,,,0,221,221,221,,,,,,,,,,,,,,,,,main,None,None,1,1.4984849999891594,1097.2662681000074,None,None,1,,,,,,,,,,,,,,031,2022-05-26_20h15.54.535,Main,2022.1.1,61.35274206990843,
positive,yellow,2,None,k,,,,,,,,,0,222,222,222,,,,,,,,,,,,,,,,,main,k,k,1,0.8325678999535739,1099.7637733999873,None,None,0,,,,,,,,,,,,,,031,2022-05-26_20h15.54.535,Main,2022.1.1,61.35274206990843,
negative,yellow,1,k,None,,,,,,,,,0,223,223,223,,,,,,,,,,,,,,,,,main,None,None,1,1.5020663000177592,1101.5971124999924,None,None,1,,,,,,,,,,,,,,031,2022-05-26_20h15.54.535,Main,2022.1.1,61.35274206990843,
positive,yellow,2,None,k,,,,,,,,,0,224,224,224,,,,,,,,,,,,,,,,,main,k,k,1,0.9291255000280216,1104.0971060999436,None,None,0,,,,,,,,,,,,,,031,2022-05-26_20h15.54.535,Main,2022.1.1,61.35274206990843,
negative,yellow,2,k,None,,,,,,,,,0,225,225,225,,,,,,,,,,,,,,,,,main,None,None,1,1.5015540999593213,1106.030087799998,None,None,1,,,,,,,,,,,,,,031,2022-05-26_20h15.54.535,Main,2022.1.1,61.35274206990843,
negative,blue,2,None,k,,,,,,,,,0,226,226,226,,,,,,,,,,,,,,,,,main,k,k,1,1.046871899976395,1108.532744099968,None,None,0,,,,,,,,,,,,,,031,2022-05-26_20h15.54.535,Main,2022.1.1,61.35274206990843,
positive,red,2,None,None,,,,,,,,,0,227,227,227,,,,,,,,,,,,,,,,,main,None,None,1,1.498640300007537,1110.5827457999112,None,None,1,,,,,,,,,,,,,,031,2022-05-26_20h15.54.535,Main,2022.1.1,61.35274206990843,
positive,blue,2,k,None,,,,,,,,,0,228,228,228,,,,,,,,,,,,,,,,,main,None,None,1,1.4996617999859154,1113.0802228999091,None,None,1,,,,,,,,,,,,,,031,2022-05-26_20h15.54.535,Main,2022.1.1,61.35274206990843,
negative,blue,1,None,k,,,,,,,,,0,229,229,229,,,,,,,,,,,,,,,,,main,k,k,1,0.7508305999217555,1115.5798723999178,None,None,0,,,,,,,,,,,,,,031,2022-05-26_20h15.54.535,Main,2022.1.1,61.35274206990843,
positive,yellow,1,None,k,,,,,,,,,0,230,230,230,,,,,,,,,,,,,,,,,main,k,k,1,1.1801237999461591,1117.3326022999827,None,None,0,,,,,,,,,,,,,,031,2022-05-26_20h15.54.535,Main,2022.1.1,61.35274206990843,
negative,blue,2,None,k,,,,,,,,,0,231,231,231,,,,,,,,,,,,,,,,,main,k,k,1,0.8823763000546023,1119.5159189999104,None,None,0,,,,,,,,,,,,,,031,2022-05-26_20h15.54.535,Main,2022.1.1,61.35274206990843,
negative,red,1,None,None,,,,,,,,,0,232,232,232,,,,,,,,,,,,,,,,,main,None,None,1,1.4984970999648795,1121.396722799982,None,None,1,,,,,,,,,,,,,,031,2022-05-26_20h15.54.535,Main,2022.1.1,61.35274206990843,
positive,blue,2,k,None,,,,,,,,,0,233,233,233,,,,,,,,,,,,,,,,,main,None,None,1,1.499481700011529,1123.8963734999998,None,None,1,,,,,,,,,,,,,,031,2022-05-26_20h15.54.535,Main,2022.1.1,61.35274206990843,
negative,yellow,1,k,None,,,,,,,,,0,234,234,234,,,,,,,,,,,,,,,,,main,None,None,1,1.5005483999848366,1126.3963511999464,None,None,1,,,,,,,,,,,,,,031,2022-05-26_20h15.54.535,Main,2022.1.1,61.35274206990843,
negative,yellow,2,k,None,,,,,,,,,0,235,235,235,,,,,,,,,,,,,,,,,main,None,None,1,1.496423100004904,1128.8990248999326,None,None,1,,,,,,,,,,,,,,031,2022-05-26_20h15.54.535,Main,2022.1.1,61.35274206990843,
positive,red,1,None,None,,,,,,,,,0,236,236,236,,,,,,,,,,,,,,,,,main,None,None,1,1.499380800058134,1131.4021205999888,None,None,1,,,,,,,,,,,,,,031,2022-05-26_20h15.54.535,Main,2022.1.1,61.35274206990843,
negative,red,2,None,None,,,,,,,,,0,237,237,237,,,,,,,,,,,,,,,,,main,None,None,1,1.499572700005956,1133.9023632999742,None,None,1,,,,,,,,,,,,,,031,2022-05-26_20h15.54.535,Main,2022.1.1,61.35274206990843,
negative,blue,1,None,k,,,,,,,,,0,238,238,238,,,,,,,,,,,,,,,,,main,k,k,1,0.9173908999655396,1136.3961831999477,None,None,0,,,,,,,,,,,,,,031,2022-05-26_20h15.54.535,Main,2022.1.1,61.35274206990843,
positive,blue,1,k,None,,,,,,,,,0,239,239,239,,,,,,,,,,,,,,,,,main,None,None,1,1.4970801000017673,1138.315526499995,None,None,1,,,,,,,,,,,,,,031,2022-05-26_20h15.54.535,Main,2022.1.1,61.35274206990843,
,,,,,,,,,,,,,,,,,,,,,,,,,,,,,,,,,,,,,,,,,,,,,,,,,,,,,1140.8127290999983,None,,,,,,
