distractor,target,set,ans1,ans2,rep_loop4.thisRepN,rep_loop4.thisTrialN,rep_loop4.thisN,rep_loop4.thisIndex,st2_prac_loop.thisRepN,st2_prac_loop.thisTrialN,st2_prac_loop.thisN,st2_prac_loop.thisIndex,st2_main_loop.thisRepN,st2_main_loop.thisTrialN,st2_main_loop.thisN,st2_main_loop.thisIndex,image_4.started,image_4.stopped,sound_2.started,sound_2.stopped,key_resp_3.keys,key_resp_3.rt,image_5.started,image_5.stopped,st_prac_back.started,st_prac_back.stopped,st_prac_text.started,st_prac_text.stopped,st_fix_back.started,st_fix_back.stopped,st_fix_2.started,st_fix_2.stopped,main_prac,st_ans,st_res,st_corr,st_rt,st_back.started,st_back.stopped,st2_resp.keys,st2_resp.corr,st_main_back.started,st_main_back.stopped,st_main_text.started,st_main_text.stopped,mouse_4.x,mouse_4.y,mouse_4.leftButton,mouse_4.midButton,mouse_4.rightButton,mouse_4.started,mouse_4.stopped,text_2.started,text_2.stopped,id*,date,expName,psychopyVersion,frameRate,
negative,yellow,1,k,None,,,,,0,0,0,0,,,,,29.13935259997379,None,33.25220706996042,None,space,60.890388400061056,94.16735459992196,None,96.33425379998516,None,96.33425379998516,None,98.3482727999799,None,98.3482727999799,None,prac,k,k,1,2.4294820999493822,100.36434569989797,None,None,0,,,,,,,,,,,,,,032,2022-05-27_10h42.49.617,Main,2022.1.1,60.21738475984445,
positive,red,2,None,None,,,,,0,1,1,1,,,,,,,,,,,,,,,,,,,,,prac,None,None,1,1.4866606999421492,104.81470849993639,None,None,1,,,,,,,,,,,,,,032,2022-05-27_10h42.49.617,Main,2022.1.1,60.21738475984445,
negative,blue,2,None,k,,,,,0,2,2,2,,,,,,,,,,,,,,,,,,,,,prac,None,k,0,0.866057200008072,107.30114169989247,None,None,1,,,,,,,,,,,,,,032,2022-05-27_10h42.49.617,Main,2022.1.1,60.21738475984445,
positive,yellow,1,None,k,,,,,0,3,3,3,,,,,,,,,,,,,,,,,,,,,prac,None,None,1,1.5002963000442833,110.16741299990099,None,None,1,,,,,,,,,,,,,,032,2022-05-27_10h42.49.617,Main,2022.1.1,60.21738475984445,
negative,blue,2,None,k,,,,,0,4,4,4,,,,,,,,,,,,,,,,,,,,,prac,None,k,0,0.9160168999806046,112.66453169996385,None,None,1,,,,,,,,,,,,,,032,2022-05-27_10h42.49.617,Main,2022.1.1,60.21738475984445,
negative,blue,1,None,k,,,,,0,5,5,5,,,,,,,,,,,,,,,,,,,,,prac,None,None,1,1.4993451000191271,115.58384059998207,None,None,1,,,,,,,,,,,,,,032,2022-05-27_10h42.49.617,Main,2022.1.1,60.21738475984445,
negative,yellow,2,k,None,,,,,0,6,6,6,,,,,,,,,,,,,,,,,,,,,prac,k,k,1,1.2669208000879735,118.08127949992195,None,None,0,,,,,,,,,,,,,,032,2022-05-27_10h42.49.617,Main,2022.1.1,60.21738475984445,
negative,red,1,None,None,,,,,0,7,7,7,,,,,,,,,,,,,,,,,,,,,prac,None,None,1,1.4962708000093699,120.35044469998684,None,None,1,,,,,,,,,,,,,,032,2022-05-27_10h42.49.617,Main,2022.1.1,60.21738475984445,
positive,yellow,2,None,k,,,,,0,8,8,8,,,,,,,,,,,,,,,,,,,,,prac,None,None,1,1.5044439999619499,122.84786459989846,None,None,1,,,,,,,,,,,,,,032,2022-05-27_10h42.49.617,Main,2022.1.1,60.21738475984445,
negative,yellow,1,k,None,,,,,0,9,9,9,,,,,,,,,,,,,,,,,,,,,prac,k,k,1,7.876918800058775,125.35087549989112,None,None,0,,,,,,,,,,,,,,032,2022-05-27_10h42.49.617,Main,2022.1.1,60.21738475984445,
positive,yellow,2,None,k,,,,,0,10,10,10,,,,,,,,,,,,,,,,,,,,,prac,None,None,1,1.4866477999603376,135.23074509995058,None,None,1,,,,,,,,,,,,,,032,2022-05-27_10h42.49.617,Main,2022.1.1,60.21738475984445,
negative,yellow,2,k,None,,,,,0,11,11,11,,,,,,,,,,,,,,,,,,,,,prac,k,k,1,1.4125668000197038,137.71913699992,None,None,0,,,,,,,,,,,,,,032,2022-05-27_10h42.49.617,Main,2022.1.1,60.21738475984445,
negative,red,2,None,None,,,,,0,12,12,12,,,,,,,,,,,,,,,,,,,,,prac,None,None,1,1.4992345999926329,140.1308489999501,None,None,1,,,,,,,,,,,,,,032,2022-05-27_10h42.49.617,Main,2022.1.1,60.21738475984445,
positive,red,1,None,None,,,,,0,13,13,13,,,,,,,,,,,,,,,,,,,,,prac,None,None,1,1.4990477999672294,142.63086699997075,None,None,1,,,,,,,,,,,,,,032,2022-05-27_10h42.49.617,Main,2022.1.1,60.21738475984445,
positive,blue,2,k,None,,,,,0,14,14,14,,,,,,,,,,,,,,,,,,,,,prac,k,k,1,1.0842031000647694,145.14726409991272,None,None,0,,,,,,,,,,,,,,032,2022-05-27_10h42.49.617,Main,2022.1.1,60.21738475984445,
positive,blue,1,k,None,,,,,0,15,15,15,,,,,,,,,,,,,,,,,,,,,prac,k,k,1,3.4299464999930933,147.21653049997985,None,None,0,,,,,,,,,,,,,,032,2022-05-27_10h42.49.617,Main,2022.1.1,60.21738475984445,
negative,blue,1,None,k,,,,,0,16,16,16,,,,,,,,,,,,,,,,,,,,,prac,None,None,1,1.5011069000465795,152.6497230998939,None,None,1,,,,,,,,,,,,,,032,2022-05-27_10h42.49.617,Main,2022.1.1,60.21738475984445,
positive,blue,2,k,None,,,,,0,17,17,17,,,,,,,,,,,,,,,,,,,,,prac,k,k,1,1.6463738000020385,155.14967689989135,None,None,0,,,,,,,,,,,,,,032,2022-05-27_10h42.49.617,Main,2022.1.1,60.21738475984445,
positive,blue,1,k,None,,,,,0,18,18,18,,,,,,,,,,,,,,,,,,,,,prac,k,k,1,1.085037300013937,158.79960599995684,None,None,0,,,,,,,,,,,,,,032,2022-05-27_10h42.49.617,Main,2022.1.1,60.21738475984445,
positive,yellow,1,None,k,,,,,0,19,19,19,,,,,,,,,,,,,,,,,,,,,prac,None,None,1,1.4981424000579864,160.88289749994874,None,None,1,,,,,,,,,,,,,,032,2022-05-27_10h42.49.617,Main,2022.1.1,60.21738475984445,
negative,yellow,1,k,None,,,,,1,0,20,0,,,,,,,,,,,,,,,,,,,,,prac,k,k,1,1.1323400000110269,163.380090199993,None,None,0,,,,,,,,,,,,,,032,2022-05-27_10h42.49.617,Main,2022.1.1,60.21738475984445,
positive,red,2,None,None,,,,,1,1,21,1,,,,,,,,,,,,,,,,,,,,,prac,None,None,1,1.497566399979405,165.51612129993737,None,None,1,,,,,,,,,,,,,,032,2022-05-27_10h42.49.617,Main,2022.1.1,60.21738475984445,
negative,blue,2,None,k,,,,,1,2,22,2,,,,,,,,,,,,,,,,,,,,,prac,None,None,1,1.4997854999965057,168.0133393999422,None,None,1,,,,,,,,,,,,,,032,2022-05-27_10h42.49.617,Main,2022.1.1,60.21738475984445,
positive,yellow,1,None,k,,,,,1,3,23,3,,,,,,,,,,,,,,,,,,,,,prac,None,None,1,1.4992748000659049,170.51599129999522,None,None,1,,,,,,,,,,,,,,032,2022-05-27_10h42.49.617,Main,2022.1.1,60.21738475984445,
negative,blue,2,None,k,,,,,1,4,24,4,,,,,,,,,,,,,,,,,,,,,prac,None,None,1,1.4970196000067517,173.01599139999598,None,None,1,,,,,,,,,,,,,,032,2022-05-27_10h42.49.617,Main,2022.1.1,60.21738475984445,
negative,blue,1,None,k,,,,,1,5,25,5,,,,,,,,,,,,,,,,,,,,,prac,None,None,1,1.5007519000209868,175.51320629997645,None,None,1,,,,,,,,,,,,,,032,2022-05-27_10h42.49.617,Main,2022.1.1,60.21738475984445,
negative,yellow,2,k,None,,,,,1,6,26,6,,,,,,,,,,,,,,,,,,,,,prac,k,k,1,1.713298499933444,178.01587719994131,None,None,0,,,,,,,,,,,,,,032,2022-05-27_10h42.49.617,Main,2022.1.1,60.21738475984445,
negative,red,1,None,None,,,,,1,7,27,7,,,,,,,,,,,,,,,,,,,,,prac,None,None,1,1.4867833000607789,181.72977360000368,None,None,1,,,,,,,,,,,,,,032,2022-05-27_10h42.49.617,Main,2022.1.1,60.21738475984445,
positive,yellow,2,None,k,,,,,1,8,28,8,,,,,,,,,,,,,,,,,,,,,prac,None,None,1,1.496648000087589,184.21577889996115,None,None,1,,,,,,,,,,,,,,032,2022-05-27_10h42.49.617,Main,2022.1.1,60.21738475984445,
negative,yellow,1,k,None,,,,,1,9,29,9,,,,,,,,,,,,,,,,,,,,,prac,k,k,1,1.0993876999709755,186.71293099992909,None,None,0,,,,,,,,,,,,,,032,2022-05-27_10h42.49.617,Main,2022.1.1,60.21738475984445,
positive,yellow,2,None,k,,,,,1,10,30,10,,,,,,,,,,,,,,,,,,,,,prac,None,None,1,1.500186299905181,188.81294899992645,None,None,1,,,,,,,,,,,,,,032,2022-05-27_10h42.49.617,Main,2022.1.1,60.21738475984445,
negative,yellow,2,k,None,,,,,1,11,31,11,,,,,,,,,,,,,,,,,,,,,prac,k,k,1,1.3133448000298813,191.3156056998996,None,None,0,,,,,,,,,,,,,,032,2022-05-27_10h42.49.617,Main,2022.1.1,60.21738475984445,
negative,red,2,None,None,,,,,1,12,32,12,,,,,,,,,,,,,,,,,,,,,prac,None,None,1,1.502351500093937,193.62946209998336,None,None,1,,,,,,,,,,,,,,032,2022-05-27_10h42.49.617,Main,2022.1.1,60.21738475984445,
positive,red,1,None,None,,,,,1,13,33,13,,,,,,,,,,,,,,,,,,,,,prac,None,None,1,1.498115099966526,196.13218649988994,None,None,1,,,,,,,,,,,,,,032,2022-05-27_10h42.49.617,Main,2022.1.1,60.21738475984445,
positive,blue,2,k,None,,,,,1,14,34,14,,,,,,,,,,,,,,,,,,,,,prac,k,k,1,1.080038100015372,198.63212470000144,None,None,0,,,,,,,,,,,,,,032,2022-05-27_10h42.49.617,Main,2022.1.1,60.21738475984445,
positive,blue,1,k,None,,,,,1,15,35,15,,,,,,,,,,,,,,,,,,,,,prac,k,k,1,2.051934999995865,200.71263659989927,None,None,0,,,,,,,,,,,,,,032,2022-05-27_10h42.49.617,Main,2022.1.1,60.21738475984445,
negative,blue,1,None,k,,,,,1,16,36,16,,,,,,,,,,,,,,,,,,,,,prac,None,None,1,1.499347300035879,204.76531339995563,None,None,1,,,,,,,,,,,,,,032,2022-05-27_10h42.49.617,Main,2022.1.1,60.21738475984445,
positive,blue,2,k,None,,,,,1,17,37,17,,,,,,,,,,,,,,,,,,,,,prac,k,k,1,1.5170113000785932,207.26255089999177,None,None,0,,,,,,,,,,,,,,032,2022-05-27_10h42.49.617,Main,2022.1.1,60.21738475984445,
positive,blue,1,k,None,,,,,1,18,38,18,,,,,,,,,,,,,,,,,,,,,prac,k,k,1,1.6984120999695733,210.7818729999708,None,None,0,,,,,,,,,,,,,,032,2022-05-27_10h42.49.617,Main,2022.1.1,60.21738475984445,
positive,yellow,1,None,k,,,,,1,19,39,19,,,,,,,,,,,,,,,,,,,,,prac,None,None,1,1.501151300035417,214.48178319993895,None,None,1,,,,,,,,,,,,,,032,2022-05-27_10h42.49.617,Main,2022.1.1,60.21738475984445,
,,,,,,,,,,,,,,,,,,,,,,,,,,,,,,,,,,,,,,,,,,216.98170339991339,None,216.98170339991339,None,0.027777778,-0.13703704,0,0,0,0.013973370078019798,None,,,032,2022-05-27_10h42.49.617,Main,2022.1.1,60.21738475984445,
negative,yellow,2,k,None,,,,,,,,,0,0,0,0,,,,,,,,,,,,,219.5790480999276,None,219.5790480999276,None,main,k,k,1,1.1814223999390379,221.6228149998933,None,None,0,,,,,,,,,,,,,,032,2022-05-27_10h42.49.617,Main,2022.1.1,60.21738475984445,
positive,red,1,None,None,,,,,,,,,0,1,1,1,,,,,,,,,,,,,,,,,main,None,None,1,1.4984215999720618,223.812464299961,None,None,1,,,,,,,,,,,,,,032,2022-05-27_10h42.49.617,Main,2022.1.1,60.21738475984445,
positive,blue,2,k,None,,,,,,,,,0,2,2,2,,,,,,,,,,,,,,,,,main,k,k,1,0.7638187000993639,226.31263279996347,None,None,0,,,,,,,,,,,,,,032,2022-05-27_10h42.49.617,Main,2022.1.1,60.21738475984445,
positive,blue,1,k,None,,,,,,,,,0,3,3,3,,,,,,,,,,,,,,,,,main,k,k,1,2.2863566000014544,228.0814405999845,None,None,0,,,,,,,,,,,,,,032,2022-05-27_10h42.49.617,Main,2022.1.1,60.21738475984445,
negative,yellow,2,k,None,,,,,,,,,0,4,4,4,,,,,,,,,,,,,,,,,main,k,k,1,1.0847682000603527,232.37864819995593,None,None,0,,,,,,,,,,,,,,032,2022-05-27_10h42.49.617,Main,2022.1.1,60.21738475984445,
positive,yellow,2,None,k,,,,,,,,,0,5,5,5,,,,,,,,,,,,,,,,,main,None,None,1,1.500918100005947,234.4646827999968,None,None,1,,,,,,,,,,,,,,032,2022-05-27_10h42.49.617,Main,2022.1.1,60.21738475984445,
negative,blue,2,None,k,,,,,,,,,0,6,6,6,,,,,,,,,,,,,,,,,main,None,None,1,1.4965718000894412,236.96196319989394,None,None,1,,,,,,,,,,,,,,032,2022-05-27_10h42.49.617,Main,2022.1.1,60.21738475984445,
positive,red,2,None,None,,,,,,,,,0,7,7,7,,,,,,,,,,,,,,,,,main,None,None,1,1.5013227999443188,239.46461459994316,None,None,1,,,,,,,,,,,,,,032,2022-05-27_10h42.49.617,Main,2022.1.1,60.21738475984445,
positive,yellow,1,None,k,,,,,,,,,0,8,8,8,,,,,,,,,,,,,,,,,main,None,None,1,1.4966912000672892,241.96203689998947,None,None,1,,,,,,,,,,,,,,032,2022-05-27_10h42.49.617,Main,2022.1.1,60.21738475984445,
negative,red,1,None,None,,,,,,,,,0,9,9,9,,,,,,,,,,,,,,,,,main,None,None,1,1.499832100002095,244.46202639990952,None,None,1,,,,,,,,,,,,,,032,2022-05-27_10h42.49.617,Main,2022.1.1,60.21738475984445,
positive,yellow,1,None,k,,,,,,,,,0,10,10,10,,,,,,,,,,,,,,,,,main,None,None,1,1.500328000052832,246.96173749992158,None,None,1,,,,,,,,,,,,,,032,2022-05-27_10h42.49.617,Main,2022.1.1,60.21738475984445,
negative,yellow,1,k,None,,,,,,,,,0,11,11,11,,,,,,,,,,,,,,,,,main,k,k,1,0.9156919999513775,249.46441289992072,None,None,0,,,,,,,,,,,,,,032,2022-05-27_10h42.49.617,Main,2022.1.1,60.21738475984445,
negative,yellow,1,k,None,,,,,,,,,0,12,12,12,,,,,,,,,,,,,,,,,main,k,k,1,0.9323884999612346,251.38104439992458,None,None,0,,,,,,,,,,,,,,032,2022-05-27_10h42.49.617,Main,2022.1.1,60.21738475984445,
negative,red,2,None,None,,,,,,,,,0,13,13,13,,,,,,,,,,,,,,,,,main,None,None,1,1.4973229999886826,253.311832999927,None,None,1,,,,,,,,,,,,,,032,2022-05-27_10h42.49.617,Main,2022.1.1,60.21738475984445,
positive,yellow,2,None,k,,,,,,,,,0,14,14,14,,,,,,,,,,,,,,,,,main,None,None,1,1.5004603000124916,255.81150189996697,None,None,1,,,,,,,,,,,,,,032,2022-05-27_10h42.49.617,Main,2022.1.1,60.21738475984445,
positive,blue,1,k,None,,,,,,,,,0,15,15,15,,,,,,,,,,,,,,,,,main,k,k,1,0.8329095999943092,258.31420149991754,None,None,0,,,,,,,,,,,,,,032,2022-05-27_10h42.49.617,Main,2022.1.1,60.21738475984445,
negative,blue,1,None,k,,,,,,,,,0,16,16,16,,,,,,,,,,,,,,,,,main,None,None,1,1.4986105000134557,260.1475365998922,None,None,1,,,,,,,,,,,,,,032,2022-05-27_10h42.49.617,Main,2022.1.1,60.21738475984445,
positive,blue,2,k,None,,,,,,,,,0,17,17,17,,,,,,,,,,,,,,,,,main,k,k,1,1.4299498000182211,262.644968999899,None,None,0,,,,,,,,,,,,,,032,2022-05-27_10h42.49.617,Main,2022.1.1,60.21738475984445,
negative,blue,2,None,k,,,,,,,,,0,18,18,18,,,,,,,,,,,,,,,,,main,None,None,1,1.5016739999409765,265.07796679995954,None,None,1,,,,,,,,,,,,,,032,2022-05-27_10h42.49.617,Main,2022.1.1,60.21738475984445,
negative,blue,1,None,k,,,,,,,,,0,19,19,19,,,,,,,,,,,,,,,,,main,None,None,1,1.496748699923046,267.5807010999415,None,None,1,,,,,,,,,,,,,,032,2022-05-27_10h42.49.617,Main,2022.1.1,60.21738475984445,
negative,blue,1,None,k,,,,,,,,,0,20,20,20,,,,,,,,,,,,,,,,,main,None,None,1,1.4996122000738978,270.0805295999162,None,None,1,,,,,,,,,,,,,,032,2022-05-27_10h42.49.617,Main,2022.1.1,60.21738475984445,
negative,blue,2,None,k,,,,,,,,,0,21,21,21,,,,,,,,,,,,,,,,,main,None,None,1,1.5008065999718383,272.5777862999821,None,None,1,,,,,,,,,,,,,,032,2022-05-27_10h42.49.617,Main,2022.1.1,60.21738475984445,
negative,red,1,None,None,,,,,,,,,0,22,22,22,,,,,,,,,,,,,,,,,main,None,None,1,1.4990293000591919,275.08054159989115,None,None,1,,,,,,,,,,,,,,032,2022-05-27_10h42.49.617,Main,2022.1.1,60.21738475984445,
positive,red,2,None,None,,,,,,,,,0,23,23,23,,,,,,,,,,,,,,,,,main,None,None,1,1.4965846999548376,277.5806412999518,None,None,1,,,,,,,,,,,,,,032,2022-05-27_10h42.49.617,Main,2022.1.1,60.21738475984445,
negative,red,2,None,None,,,,,,,,,0,24,24,24,,,,,,,,,,,,,,,,,main,None,None,1,1.4994997000321746,280.07794579991605,None,None,1,,,,,,,,,,,,,,032,2022-05-27_10h42.49.617,Main,2022.1.1,60.21738475984445,
positive,blue,2,k,None,,,,,,,,,0,25,25,25,,,,,,,,,,,,,,,,,main,k,k,1,0.8158468999899924,282.5781611999264,None,None,0,,,,,,,,,,,,,,032,2022-05-27_10h42.49.617,Main,2022.1.1,60.21738475984445,
negative,yellow,1,k,None,,,,,,,,,0,26,26,26,,,,,,,,,,,,,,,,,main,k,k,1,0.7853107000701129,284.3945229999954,None,None,0,,,,,,,,,,,,,,032,2022-05-27_10h42.49.617,Main,2022.1.1,60.21738475984445,
positive,blue,2,k,None,,,,,,,,,0,27,27,27,,,,,,,,,,,,,,,,,main,k,k,1,1.162981600034982,286.1777472998947,None,None,0,,,,,,,,,,,,,,032,2022-05-27_10h42.49.617,Main,2022.1.1,60.21738475984445,
negative,blue,2,None,k,,,,,,,,,0,28,28,28,,,,,,,,,,,,,,,,,main,None,None,1,1.4992067000130191,288.3443954999093,None,None,1,,,,,,,,,,,,,,032,2022-05-27_10h42.49.617,Main,2022.1.1,60.21738475984445,
positive,red,1,None,None,,,,,,,,,0,29,29,29,,,,,,,,,,,,,,,,,main,None,None,1,1.4981864000437781,290.8447132000001,None,None,1,,,,,,,,,,,,,,032,2022-05-27_10h42.49.617,Main,2022.1.1,60.21738475984445,
positive,blue,1,k,None,,,,,,,,,0,30,30,30,,,,,,,,,,,,,,,,,main,k,k,1,0.9168095000786707,293.3440384999849,None,None,0,,,,,,,,,,,,,,032,2022-05-27_10h42.49.617,Main,2022.1.1,60.21738475984445,
positive,yellow,1,None,k,,,,,,,,,0,31,31,31,,,,,,,,,,,,,,,,,main,None,None,1,1.5011514000361785,295.26345339999534,None,None,1,,,,,,,,,,,,,,032,2022-05-27_10h42.49.617,Main,2022.1.1,60.21738475984445,
negative,yellow,2,k,None,,,,,,,,,0,32,32,32,,,,,,,,,,,,,,,,,main,k,k,1,1.0797113999724388,297.763429399929,None,None,0,,,,,,,,,,,,,,032,2022-05-27_10h42.49.617,Main,2022.1.1,60.21738475984445,
negative,blue,1,None,k,,,,,,,,,0,33,33,33,,,,,,,,,,,,,,,,,main,None,None,1,1.5018360000103712,299.84391129994765,None,None,1,,,,,,,,,,,,,,032,2022-05-27_10h42.49.617,Main,2022.1.1,60.21738475984445,
positive,blue,1,k,None,,,,,,,,,0,34,34,34,,,,,,,,,,,,,,,,,main,k,k,1,0.7335739999543875,302.3466028999537,None,None,0,,,,,,,,,,,,,,032,2022-05-27_10h42.49.617,Main,2022.1.1,60.21738475984445,
negative,yellow,1,k,None,,,,,,,,,0,35,35,35,,,,,,,,,,,,,,,,,main,k,k,1,0.8453048999654129,304.0799321999075,None,None,0,,,,,,,,,,,,,,032,2022-05-27_10h42.49.617,Main,2022.1.1,60.21738475984445,
positive,yellow,2,None,k,,,,,,,,,0,36,36,36,,,,,,,,,,,,,,,,,main,None,None,1,1.5006620000349358,305.9271177999908,None,None,1,,,,,,,,,,,,,,032,2022-05-27_10h42.49.617,Main,2022.1.1,60.21738475984445,
positive,yellow,2,None,k,,,,,,,,,0,37,37,37,,,,,,,,,,,,,,,,,main,None,None,1,1.4983935999916866,308.42980949999765,None,None,1,,,,,,,,,,,,,,032,2022-05-27_10h42.49.617,Main,2022.1.1,60.21738475984445,
negative,yellow,2,k,None,,,,,,,,,0,38,38,38,,,,,,,,,,,,,,,,,main,k,k,1,0.6466341000050306,310.9297808998963,None,None,0,,,,,,,,,,,,,,032,2022-05-27_10h42.49.617,Main,2022.1.1,60.21738475984445,
positive,yellow,1,None,k,,,,,,,,,0,39,39,39,,,,,,,,,,,,,,,,,main,None,None,1,1.5002289999974892,312.5771939998958,None,None,1,,,,,,,,,,,,,,032,2022-05-27_10h42.49.617,Main,2022.1.1,60.21738475984445,
negative,yellow,2,k,None,,,,,,,,,0,40,40,40,,,,,,,,,,,,,,,,,main,k,k,1,0.813884099945426,315.07966269995086,None,None,0,,,,,,,,,,,,,,032,2022-05-27_10h42.49.617,Main,2022.1.1,60.21738475984445,
positive,blue,2,k,None,,,,,,,,,0,41,41,41,,,,,,,,,,,,,,,,,main,k,k,1,0.7655383999226615,316.89411659992766,None,None,0,,,,,,,,,,,,,,032,2022-05-27_10h42.49.617,Main,2022.1.1,60.21738475984445,
positive,blue,2,k,None,,,,,,,,,0,42,42,42,,,,,,,,,,,,,,,,,main,k,k,1,0.6183791999937966,318.6601972999051,None,None,0,,,,,,,,,,,,,,032,2022-05-27_10h42.49.617,Main,2022.1.1,60.21738475984445,
negative,blue,2,None,k,,,,,,,,,0,43,43,43,,,,,,,,,,,,,,,,,main,None,None,1,1.4986392999999225,320.27950029994827,None,None,1,,,,,,,,,,,,,,032,2022-05-27_10h42.49.617,Main,2022.1.1,60.21738475984445,
negative,red,1,None,None,,,,,,,,,0,44,44,44,,,,,,,,,,,,,,,,,main,None,None,1,1.4974231999367476,322.7795322999591,None,None,1,,,,,,,,,,,,,,032,2022-05-27_10h42.49.617,Main,2022.1.1,60.21738475984445,
negative,yellow,1,k,None,,,,,,,,,0,45,45,45,,,,,,,,,,,,,,,,,main,k,k,1,0.8006794999819249,325.2768076999346,None,None,0,,,,,,,,,,,,,,032,2022-05-27_10h42.49.617,Main,2022.1.1,60.21738475984445,
negative,yellow,1,k,None,,,,,,,,,0,46,46,46,,,,,,,,,,,,,,,,,main,k,k,1,1.084104200010188,327.0794293999206,None,None,0,,,,,,,,,,,,,,032,2022-05-27_10h42.49.617,Main,2022.1.1,60.21738475984445,
positive,red,1,None,None,,,,,,,,,0,47,47,47,,,,,,,,,,,,,,,,,main,None,None,1,1.495227700099349,329.1671435999451,None,None,1,,,,,,,,,,,,,,032,2022-05-27_10h42.49.617,Main,2022.1.1,60.21738475984445,
positive,yellow,1,None,k,,,,,,,,,0,48,48,48,,,,,,,,,,,,,,,,,main,None,k,0,0.8010789999971166,331.65995529992506,None,None,1,,,,,,,,,,,,,,032,2022-05-27_10h42.49.617,Main,2022.1.1,60.21738475984445,
negative,blue,1,None,k,,,,,,,,,0,49,49,49,,,,,,,,,,,,,,,,,main,None,None,1,1.4994138999609277,334.46260329999495,None,None,1,,,,,,,,,,,,,,032,2022-05-27_10h42.49.617,Main,2022.1.1,60.21738475984445,
positive,yellow,2,None,k,,,,,,,,,0,50,50,50,,,,,,,,,,,,,,,,,main,None,None,1,1.4999685999937356,336.9598135999404,None,None,1,,,,,,,,,,,,,,032,2022-05-27_10h42.49.617,Main,2022.1.1,60.21738475984445,
negative,blue,1,None,k,,,,,,,,,0,51,51,51,,,,,,,,,,,,,,,,,main,None,None,1,1.496772399987094,339.462486699922,None,None,1,,,,,,,,,,,,,,032,2022-05-27_10h42.49.617,Main,2022.1.1,60.21738475984445,
positive,red,2,None,None,,,,,,,,,0,52,52,52,,,,,,,,,,,,,,,,,main,None,None,1,1.4986499999649823,341.9623394999653,None,None,1,,,,,,,,,,,,,,032,2022-05-27_10h42.49.617,Main,2022.1.1,60.21738475984445,
positive,yellow,2,None,k,,,,,,,,,0,53,53,53,,,,,,,,,,,,,,,,,main,None,None,1,1.5018381000263616,344.45966229995247,None,None,1,,,,,,,,,,,,,,032,2022-05-27_10h42.49.617,Main,2022.1.1,60.21738475984445,
negative,red,2,None,None,,,,,,,,,0,54,54,54,,,,,,,,,,,,,,,,,main,None,None,1,1.4990786999696866,346.9623728999868,None,None,1,,,,,,,,,,,,,,032,2022-05-27_10h42.49.617,Main,2022.1.1,60.21738475984445,
positive,yellow,1,None,k,,,,,,,,,0,55,55,55,,,,,,,,,,,,,,,,,main,None,None,1,1.4964416000293568,349.46234430000186,None,None,1,,,,,,,,,,,,,,032,2022-05-27_10h42.49.617,Main,2022.1.1,60.21738475984445,
negative,blue,2,None,k,,,,,,,,,0,56,56,56,,,,,,,,,,,,,,,,,main,None,None,1,1.4995718999998644,351.9623329999158,None,None,1,,,,,,,,,,,,,,032,2022-05-27_10h42.49.617,Main,2022.1.1,60.21738475984445,
positive,blue,1,k,None,,,,,,,,,0,57,57,57,,,,,,,,,,,,,,,,,main,k,k,1,0.7984534000279382,354.4620522999903,None,None,0,,,,,,,,,,,,,,032,2022-05-27_10h42.49.617,Main,2022.1.1,60.21738475984445,
positive,blue,1,k,None,,,,,,,,,0,58,58,58,,,,,,,,,,,,,,,,,main,k,k,1,1.781926800031215,356.259680399904,None,None,0,,,,,,,,,,,,,,032,2022-05-27_10h42.49.617,Main,2022.1.1,60.21738475984445,
negative,yellow,2,k,None,,,,,,,,,0,59,59,59,,,,,,,,,,,,,,,,,main,k,k,1,1.0868331999517977,360.04270829993766,None,None,0,,,,,,,,,,,,,,032,2022-05-27_10h42.49.617,Main,2022.1.1,60.21738475984445,
positive,red,2,None,None,,,,,,,,,0,60,60,60,,,,,,,,,,,,,,,,,main,None,None,1,1.4961517999181524,362.12869990000036,None,None,1,,,,,,,,,,,,,,032,2022-05-27_10h42.49.617,Main,2022.1.1,60.21738475984445,
negative,yellow,1,k,None,,,,,,,,,0,61,61,61,,,,,,,,,,,,,,,,,main,k,k,1,0.849548100028187,364.6262187999673,None,None,0,,,,,,,,,,,,,,032,2022-05-27_10h42.49.617,Main,2022.1.1,60.21738475984445,
negative,red,1,None,None,,,,,,,,,0,62,62,62,,,,,,,,,,,,,,,,,main,None,None,1,1.498482899973169,366.4761502998881,None,None,1,,,,,,,,,,,,,,032,2022-05-27_10h42.49.617,Main,2022.1.1,60.21738475984445,
negative,blue,1,None,k,,,,,,,,,0,63,63,63,,,,,,,,,,,,,,,,,main,None,None,1,1.4989832999417558,368.97610469989013,None,None,1,,,,,,,,,,,,,,032,2022-05-27_10h42.49.617,Main,2022.1.1,60.21738475984445,
positive,blue,2,k,None,,,,,,,,,0,64,64,64,,,,,,,,,,,,,,,,,main,k,k,1,0.5991160999983549,371.47604290000163,None,None,0,,,,,,,,,,,,,,032,2022-05-27_10h42.49.617,Main,2022.1.1,60.21738475984445,
negative,yellow,2,k,None,,,,,,,,,0,65,65,65,,,,,,,,,,,,,,,,,main,k,k,1,0.865998400026001,373.0757128999103,None,None,0,,,,,,,,,,,,,,032,2022-05-27_10h42.49.617,Main,2022.1.1,60.21738475984445,
positive,yellow,2,None,k,,,,,,,,,0,66,66,66,,,,,,,,,,,,,,,,,main,None,None,1,1.5012701000086963,374.9424019999569,None,None,1,,,,,,,,,,,,,,032,2022-05-27_10h42.49.617,Main,2022.1.1,60.21738475984445,
positive,yellow,2,None,k,,,,,,,,,0,67,67,67,,,,,,,,,,,,,,,,,main,None,None,1,1.49737360002473,377.445057899924,None,None,1,,,,,,,,,,,,,,032,2022-05-27_10h42.49.617,Main,2022.1.1,60.21738475984445,
positive,red,1,None,None,,,,,,,,,0,68,68,68,,,,,,,,,,,,,,,,,main,None,None,1,1.5009361000265926,379.9422246000031,None,None,1,,,,,,,,,,,,,,032,2022-05-27_10h42.49.617,Main,2022.1.1,60.21738475984445,
positive,yellow,1,None,k,,,,,,,,,0,69,69,69,,,,,,,,,,,,,,,,,main,None,None,1,1.496129999984987,382.4452317999676,None,None,1,,,,,,,,,,,,,,032,2022-05-27_10h42.49.617,Main,2022.1.1,60.21738475984445,
negative,yellow,2,k,None,,,,,,,,,0,70,70,70,,,,,,,,,,,,,,,,,main,k,k,1,0.8328346000052989,384.9423983999295,None,None,0,,,,,,,,,,,,,,032,2022-05-27_10h42.49.617,Main,2022.1.1,60.21738475984445,
positive,yellow,1,None,k,,,,,,,,,0,71,71,71,,,,,,,,,,,,,,,,,main,None,None,1,1.500206800061278,386.778275599936,None,None,1,,,,,,,,,,,,,,032,2022-05-27_10h42.49.617,Main,2022.1.1,60.21738475984445,
negative,blue,1,None,k,,,,,,,,,0,72,72,72,,,,,,,,,,,,,,,,,main,None,None,1,1.4998131999745965,389.275420299964,None,None,1,,,,,,,,,,,,,,032,2022-05-27_10h42.49.617,Main,2022.1.1,60.21738475984445,
negative,red,2,None,None,,,,,,,,,0,73,73,73,,,,,,,,,,,,,,,,,main,None,None,1,1.49911209999118,391.77809679997154,None,None,1,,,,,,,,,,,,,,032,2022-05-27_10h42.49.617,Main,2022.1.1,60.21738475984445,
positive,blue,2,k,None,,,,,,,,,0,74,74,74,,,,,,,,,,,,,,,,,main,k,k,1,1.1467333999462426,394.27554909989703,None,None,0,,,,,,,,,,,,,,032,2022-05-27_10h42.49.617,Main,2022.1.1,60.21738475984445,
negative,blue,2,None,k,,,,,,,,,0,75,75,75,,,,,,,,,,,,,,,,,main,None,None,1,1.5018315000925213,396.4252251998987,None,None,1,,,,,,,,,,,,,,032,2022-05-27_10h42.49.617,Main,2022.1.1,60.21738475984445,
negative,blue,2,None,k,,,,,,,,,0,76,76,76,,,,,,,,,,,,,,,,,main,None,None,1,1.4990506999893114,398.92829999991227,None,None,1,,,,,,,,,,,,,,032,2022-05-27_10h42.49.617,Main,2022.1.1,60.21738475984445,
negative,yellow,1,k,None,,,,,,,,,0,77,77,77,,,,,,,,,,,,,,,,,main,k,k,1,0.9135981999570504,401.4279091999633,None,None,0,,,,,,,,,,,,,,032,2022-05-27_10h42.49.617,Main,2022.1.1,60.21738475984445,
positive,blue,1,k,None,,,,,,,,,0,78,78,78,,,,,,,,,,,,,,,,,main,k,k,1,0.8160287999780849,403.3417533999309,None,None,0,,,,,,,,,,,,,,032,2022-05-27_10h42.49.617,Main,2022.1.1,60.21738475984445,
positive,blue,1,k,None,,,,,,,,,0,79,79,79,,,,,,,,,,,,,,,,,main,k,k,1,0.8823713000165299,405.161162699922,None,None,0,,,,,,,,,,,,,,032,2022-05-27_10h42.49.617,Main,2022.1.1,60.21738475984445,
positive,red,2,None,None,,,,,,,,,0,80,80,80,,,,,,,,,,,,,,,,,main,None,None,1,1.4983409999404103,407.0445556999184,None,None,1,,,,,,,,,,,,,,032,2022-05-27_10h42.49.617,Main,2022.1.1,60.21738475984445,
positive,yellow,2,None,k,,,,,,,,,0,81,81,81,,,,,,,,,,,,,,,,,main,None,None,1,1.501106800045818,409.54161669989116,None,None,1,,,,,,,,,,,,,,032,2022-05-27_10h42.49.617,Main,2022.1.1,60.21738475984445,
positive,blue,1,k,None,,,,,,,,,0,82,82,82,,,,,,,,,,,,,,,,,main,k,k,1,1.0964113000081852,412.0444359999383,None,None,0,,,,,,,,,,,,,,032,2022-05-27_10h42.49.617,Main,2022.1.1,60.21738475984445,
negative,yellow,2,k,None,,,,,,,,,0,83,83,83,,,,,,,,,,,,,,,,,main,k,k,1,0.8327019000425935,414.14152419997845,None,None,0,,,,,,,,,,,,,,032,2022-05-27_10h42.49.617,Main,2022.1.1,60.21738475984445,
positive,blue,2,k,None,,,,,,,,,0,84,84,84,,,,,,,,,,,,,,,,,main,k,k,1,0.9184840000234544,415.9748814998893,None,None,0,,,,,,,,,,,,,,032,2022-05-27_10h42.49.617,Main,2022.1.1,60.21738475984445,
positive,yellow,1,None,k,,,,,,,,,0,85,85,85,,,,,,,,,,,,,,,,,main,None,None,1,1.4986585999140516,417.89419989997987,None,None,1,,,,,,,,,,,,,,032,2022-05-27_10h42.49.617,Main,2022.1.1,60.21738475984445,
positive,blue,2,k,None,,,,,,,,,0,86,86,86,,,,,,,,,,,,,,,,,main,k,k,1,0.8641733999829739,420.3916883999482,None,None,0,,,,,,,,,,,,,,032,2022-05-27_10h42.49.617,Main,2022.1.1,60.21738475984445,
positive,blue,1,k,None,,,,,,,,,0,87,87,87,,,,,,,,,,,,,,,,,main,k,k,1,0.8314352999441326,422.25801599991973,None,None,0,,,,,,,,,,,,,,032,2022-05-27_10h42.49.617,Main,2022.1.1,60.21738475984445,
negative,yellow,2,k,None,,,,,,,,,0,88,88,88,,,,,,,,,,,,,,,,,main,k,k,1,0.8013458999339491,424.09136209997814,None,None,0,,,,,,,,,,,,,,032,2022-05-27_10h42.49.617,Main,2022.1.1,60.21738475984445,
negative,blue,2,None,k,,,,,,,,,0,89,89,89,,,,,,,,,,,,,,,,,main,None,None,1,1.502685199957341,425.8940152999712,None,None,1,,,,,,,,,,,,,,032,2022-05-27_10h42.49.617,Main,2022.1.1,60.21738475984445,
positive,yellow,2,None,k,,,,,,,,,0,90,90,90,,,,,,,,,,,,,,,,,main,None,None,1,1.4931413000449538,428.3972812999273,None,None,1,,,,,,,,,,,,,,032,2022-05-27_10h42.49.617,Main,2022.1.1,60.21738475984445,
negative,yellow,1,k,None,,,,,,,,,0,91,91,91,,,,,,,,,,,,,,,,,main,k,k,1,1.0009099000599235,430.8912233998999,None,None,0,,,,,,,,,,,,,,032,2022-05-27_10h42.49.617,Main,2022.1.1,60.21738475984445,
negative,red,2,None,None,,,,,,,,,0,92,92,92,,,,,,,,,,,,,,,,,main,None,None,1,1.4970799000002444,432.8938999999082,None,None,1,,,,,,,,,,,,,,032,2022-05-27_10h42.49.617,Main,2022.1.1,60.21738475984445,
negative,blue,2,None,k,,,,,,,,,0,93,93,93,,,,,,,,,,,,,,,,,main,None,None,1,1.5007693000370637,435.391093299957,None,None,1,,,,,,,,,,,,,,032,2022-05-27_10h42.49.617,Main,2022.1.1,60.21738475984445,
negative,blue,1,None,k,,,,,,,,,0,94,94,94,,,,,,,,,,,,,,,,,main,None,None,1,1.4992784999776632,437.89377169997897,None,None,1,,,,,,,,,,,,,,032,2022-05-27_10h42.49.617,Main,2022.1.1,60.21738475984445,
negative,blue,1,None,k,,,,,,,,,0,95,95,95,,,,,,,,,,,,,,,,,main,None,None,1,1.496315099997446,440.39375419996213,None,None,1,,,,,,,,,,,,,,032,2022-05-27_10h42.49.617,Main,2022.1.1,60.21738475984445,
negative,red,1,None,None,,,,,,,,,0,96,96,96,,,,,,,,,,,,,,,,,main,None,None,1,1.501788800000213,442.8909124999773,None,None,1,,,,,,,,,,,,,,032,2022-05-27_10h42.49.617,Main,2022.1.1,60.21738475984445,
positive,yellow,1,None,k,,,,,,,,,0,97,97,97,,,,,,,,,,,,,,,,,main,None,None,1,1.4970787999918684,445.3936119999271,None,None,1,,,,,,,,,,,,,,032,2022-05-27_10h42.49.617,Main,2022.1.1,60.21738475984445,
negative,yellow,1,k,None,,,,,,,,,0,98,98,98,,,,,,,,,,,,,,,,,main,k,k,1,1.6152199999196455,447.89111199998297,None,None,0,,,,,,,,,,,,,,032,2022-05-27_10h42.49.617,Main,2022.1.1,60.21738475984445,
positive,red,1,None,None,,,,,,,,,0,99,99,99,,,,,,,,,,,,,,,,,main,None,None,1,1.5004084999673069,451.507693399908,None,None,1,,,,,,,,,,,,,,032,2022-05-27_10h42.49.617,Main,2022.1.1,60.21738475984445,
positive,blue,1,k,None,,,,,,,,,0,100,100,100,,,,,,,,,,,,,,,,,main,k,k,1,0.7987826999742538,454.0076601000037,None,None,0,,,,,,,,,,,,,,032,2022-05-27_10h42.49.617,Main,2022.1.1,60.21738475984445,
negative,yellow,1,k,None,,,,,,,,,0,101,101,101,,,,,,,,,,,,,,,,,main,k,k,1,0.8331165999406949,455.80776389990933,None,None,0,,,,,,,,,,,,,,032,2022-05-27_10h42.49.617,Main,2022.1.1,60.21738475984445,
negative,blue,2,None,k,,,,,,,,,0,102,102,102,,,,,,,,,,,,,,,,,main,None,None,1,1.5008426000131294,457.643526299973,None,None,1,,,,,,,,,,,,,,032,2022-05-27_10h42.49.617,Main,2022.1.1,60.21738475984445,
negative,yellow,2,k,None,,,,,,,,,0,103,103,103,,,,,,,,,,,,,,,,,main,k,k,1,0.8805743000702932,460.1433242999483,None,None,0,,,,,,,,,,,,,,032,2022-05-27_10h42.49.617,Main,2022.1.1,60.21738475984445,
positive,yellow,2,None,k,,,,,,,,,0,104,104,104,,,,,,,,,,,,,,,,,main,None,None,1,1.4992528000148013,462.0241207999643,None,None,1,,,,,,,,,,,,,,032,2022-05-27_10h42.49.617,Main,2022.1.1,60.21738475984445,
positive,blue,1,k,None,,,,,,,,,0,105,105,105,,,,,,,,,,,,,,,,,main,k,k,1,0.7486389999976382,464.5238495999947,None,None,0,,,,,,,,,,,,,,032,2022-05-27_10h42.49.617,Main,2022.1.1,60.21738475984445,
positive,blue,2,k,None,,,,,,,,,0,106,106,106,,,,,,,,,,,,,,,,,main,k,k,1,0.7014399999752641,466.2738257999299,None,None,0,,,,,,,,,,,,,,032,2022-05-27_10h42.49.617,Main,2022.1.1,60.21738475984445,
negative,blue,1,None,k,,,,,,,,,0,107,107,107,,,,,,,,,,,,,,,,,main,None,None,1,1.4990065000019968,467.97648469998967,None,None,1,,,,,,,,,,,,,,032,2022-05-27_10h42.49.617,Main,2022.1.1,60.21738475984445,
positive,yellow,2,None,k,,,,,,,,,0,108,108,108,,,,,,,,,,,,,,,,,main,None,None,1,1.4973285000305623,470.4764490999514,None,None,1,,,,,,,,,,,,,,032,2022-05-27_10h42.49.617,Main,2022.1.1,60.21738475984445,
negative,yellow,1,k,None,,,,,,,,,0,109,109,109,,,,,,,,,,,,,,,,,main,k,k,1,0.6009648999897763,472.9736801999388,None,None,0,,,,,,,,,,,,,,032,2022-05-27_10h42.49.617,Main,2022.1.1,60.21738475984445,
negative,blue,2,None,k,,,,,,,,,0,110,110,110,,,,,,,,,,,,,,,,,main,None,None,1,1.498999199946411,474.5763818999985,None,None,1,,,,,,,,,,,,,,032,2022-05-27_10h42.49.617,Main,2022.1.1,60.21738475984445,
positive,blue,2,k,None,,,,,,,,,0,111,111,111,,,,,,,,,,,,,,,,,main,k,k,1,0.629847600008361,477.0739552999148,None,None,0,,,,,,,,,,,,,,032,2022-05-27_10h42.49.617,Main,2022.1.1,60.21738475984445,
negative,blue,1,None,k,,,,,,,,,0,112,112,112,,,,,,,,,,,,,,,,,main,None,None,1,1.5017336000455543,478.7068441999145,None,None,1,,,,,,,,,,,,,,032,2022-05-27_10h42.49.617,Main,2022.1.1,60.21738475984445,
positive,yellow,1,None,k,,,,,,,,,0,113,113,113,,,,,,,,,,,,,,,,,main,None,None,1,1.4990118999266997,481.2095777998911,None,None,1,,,,,,,,,,,,,,032,2022-05-27_10h42.49.617,Main,2022.1.1,60.21738475984445,
negative,red,1,None,None,,,,,,,,,0,114,114,114,,,,,,,,,,,,,,,,,main,None,None,1,1.4974730000831187,483.70704559993464,None,None,1,,,,,,,,,,,,,,032,2022-05-27_10h42.49.617,Main,2022.1.1,60.21738475984445,
positive,red,1,None,None,,,,,,,,,0,115,115,115,,,,,,,,,,,,,,,,,main,None,None,1,1.50099189998582,486.20698609994724,None,None,1,,,,,,,,,,,,,,032,2022-05-27_10h42.49.617,Main,2022.1.1,60.21738475984445,
negative,red,2,None,None,,,,,,,,,0,116,116,116,,,,,,,,,,,,,,,,,main,None,None,1,1.4962255000136793,488.70691749989055,None,None,1,,,,,,,,,,,,,,032,2022-05-27_10h42.49.617,Main,2022.1.1,60.21738475984445,
negative,yellow,2,k,None,,,,,,,,,0,117,117,117,,,,,,,,,,,,,,,,,main,k,k,1,0.7150383000262082,491.2065742999548,None,None,0,,,,,,,,,,,,,,032,2022-05-27_10h42.49.617,Main,2022.1.1,60.21738475984445,
positive,yellow,1,None,k,,,,,,,,,0,118,118,118,,,,,,,,,,,,,,,,,main,None,None,1,1.5014979999978095,492.92353379994165,None,None,1,,,,,,,,,,,,,,032,2022-05-27_10h42.49.617,Main,2022.1.1,60.21738475984445,
positive,red,2,None,None,,,,,,,,,0,119,119,119,,,,,,,,,,,,,,,,,main,None,None,1,1.499064699979499,495.4259245999856,None,None,1,,,,,,,,,,,,,,032,2022-05-27_10h42.49.617,Main,2022.1.1,60.21738475984445,
positive,blue,2,k,None,,,,,,,,,0,120,120,120,,,,,,,,,,,,,,,,,main,k,k,1,0.6967302999692038,497.92339099990204,None,None,0,,,,,,,,,,,,,,032,2022-05-27_10h42.49.617,Main,2022.1.1,60.21738475984445,
negative,red,1,None,None,,,,,,,,,0,121,121,121,,,,,,,,,,,,,,,,,main,None,None,1,1.5017512999475002,499.62307569989935,None,None,1,,,,,,,,,,,,,,032,2022-05-27_10h42.49.617,Main,2022.1.1,60.21738475984445,
positive,yellow,2,None,k,,,,,,,,,0,122,122,122,,,,,,,,,,,,,,,,,main,None,None,1,1.4990510999923572,502.1257738999557,None,None,1,,,,,,,,,,,,,,032,2022-05-27_10h42.49.617,Main,2022.1.1,60.21738475984445,
negative,red,2,None,None,,,,,,,,,0,123,123,123,,,,,,,,,,,,,,,,,main,None,None,1,1.4991598000051454,504.6257611999754,None,None,1,,,,,,,,,,,,,,032,2022-05-27_10h42.49.617,Main,2022.1.1,60.21738475984445,
negative,yellow,2,k,None,,,,,,,,,0,124,124,124,,,,,,,,,,,,,,,,,main,k,k,1,0.8131427000043914,507.12322859989945,None,None,0,,,,,,,,,,,,,,032,2022-05-27_10h42.49.617,Main,2022.1.1,60.21738475984445,
positive,red,1,None,None,,,,,,,,,0,125,125,125,,,,,,,,,,,,,,,,,main,None,None,1,1.501680999994278,508.9395330999978,None,None,1,,,,,,,,,,,,,,032,2022-05-27_10h42.49.617,Main,2022.1.1,60.21738475984445,
negative,blue,2,None,k,,,,,,,,,0,126,126,126,,,,,,,,,,,,,,,,,main,None,None,1,1.4989893999882042,511.4423937998945,None,None,1,,,,,,,,,,,,,,032,2022-05-27_10h42.49.617,Main,2022.1.1,60.21738475984445,
negative,blue,1,None,k,,,,,,,,,0,127,127,127,,,,,,,,,,,,,,,,,main,None,None,1,1.4971988999750465,513.9424083998892,None,None,1,,,,,,,,,,,,,,032,2022-05-27_10h42.49.617,Main,2022.1.1,60.21738475984445,
negative,yellow,1,k,None,,,,,,,,,0,128,128,128,,,,,,,,,,,,,,,,,main,k,k,1,0.9510191000299528,516.4395069999155,None,None,0,,,,,,,,,,,,,,032,2022-05-27_10h42.49.617,Main,2022.1.1,60.21738475984445,
negative,yellow,1,k,None,,,,,,,,,0,129,129,129,,,,,,,,,,,,,,,,,main,k,k,1,0.6655040000332519,518.3921156999422,None,None,0,,,,,,,,,,,,,,032,2022-05-27_10h42.49.617,Main,2022.1.1,60.21738475984445,
positive,blue,1,k,None,,,,,,,,,0,130,130,130,,,,,,,,,,,,,,,,,main,k,k,1,0.9670702000148594,520.0587677999865,None,None,0,,,,,,,,,,,,,,032,2022-05-27_10h42.49.617,Main,2022.1.1,60.21738475984445,
negative,blue,1,None,k,,,,,,,,,0,131,131,131,,,,,,,,,,,,,,,,,main,None,None,1,1.4957294000778347,522.0291178999469,None,None,1,,,,,,,,,,,,,,032,2022-05-27_10h42.49.617,Main,2022.1.1,60.21738475984445,
negative,blue,2,None,k,,,,,,,,,0,132,132,132,,,,,,,,,,,,,,,,,main,None,None,1,1.500713299959898,524.5226493999362,None,None,1,,,,,,,,,,,,,,032,2022-05-27_10h42.49.617,Main,2022.1.1,60.21738475984445,
positive,blue,2,k,None,,,,,,,,,0,133,133,133,,,,,,,,,,,,,,,,,main,k,k,1,0.8160296999849379,527.0252545999829,None,None,0,,,,,,,,,,,,,,032,2022-05-27_10h42.49.617,Main,2022.1.1,60.21738475984445,
positive,red,2,None,None,,,,,,,,,0,134,134,134,,,,,,,,,,,,,,,,,main,None,None,1,1.5022282000863925,528.8397701999638,None,None,1,,,,,,,,,,,,,,032,2022-05-27_10h42.49.617,Main,2022.1.1,60.21738475984445,
negative,yellow,2,k,None,,,,,,,,,0,135,135,135,,,,,,,,,,,,,,,,,main,k,k,1,0.6604903000406921,531.3431404998992,None,None,0,,,,,,,,,,,,,,032,2022-05-27_10h42.49.617,Main,2022.1.1,60.21738475984445,
positive,yellow,2,None,k,,,,,,,,,0,136,136,136,,,,,,,,,,,,,,,,,main,None,None,1,1.503271699999459,533.0059560999507,None,None,1,,,,,,,,,,,,,,032,2022-05-27_10h42.49.617,Main,2022.1.1,60.21738475984445,
positive,blue,1,k,None,,,,,,,,,0,137,137,137,,,,,,,,,,,,,,,,,main,k,k,1,1.0434666000073776,535.5082788999425,None,None,0,,,,,,,,,,,,,,032,2022-05-27_10h42.49.617,Main,2022.1.1,60.21738475984445,
positive,yellow,1,None,k,,,,,,,,,0,138,138,138,,,,,,,,,,,,,,,,,main,None,None,1,1.4999411000171676,537.5556165999733,None,None,1,,,,,,,,,,,,,,032,2022-05-27_10h42.49.617,Main,2022.1.1,60.21738475984445,
positive,yellow,1,None,k,,,,,,,,,0,139,139,139,,,,,,,,,,,,,,,,,main,None,None,1,1.5007722999434918,540.0555870999815,None,None,1,,,,,,,,,,,,,,032,2022-05-27_10h42.49.617,Main,2022.1.1,60.21738475984445,
positive,yellow,1,None,k,,,,,,,,,0,140,140,140,,,,,,,,,,,,,,,,,main,None,None,1,1.502305099973455,542.5582875999389,None,None,1,,,,,,,,,,,,,,032,2022-05-27_10h42.49.617,Main,2022.1.1,60.21738475984445,
positive,blue,1,k,None,,,,,,,,,0,141,141,141,,,,,,,,,,,,,,,,,main,k,k,1,0.9940387000096962,545.0594396999804,None,None,0,,,,,,,,,,,,,,032,2022-05-27_10h42.49.617,Main,2022.1.1,60.21738475984445,
positive,blue,2,k,None,,,,,,,,,0,142,142,142,,,,,,,,,,,,,,,,,main,k,k,1,0.966181299998425,547.0557349999435,None,None,0,,,,,,,,,,,,,,032,2022-05-27_10h42.49.617,Main,2022.1.1,60.21738475984445,
positive,yellow,2,None,k,,,,,,,,,0,143,143,143,,,,,,,,,,,,,,,,,main,None,None,1,1.5004794000415131,549.022034799913,None,None,1,,,,,,,,,,,,,,032,2022-05-27_10h42.49.617,Main,2022.1.1,60.21738475984445,
negative,yellow,2,k,None,,,,,,,,,0,144,144,144,,,,,,,,,,,,,,,,,main,k,k,1,0.6970523000927642,551.5247733999277,None,None,0,,,,,,,,,,,,,,032,2022-05-27_10h42.49.617,Main,2022.1.1,60.21738475984445,
negative,blue,2,None,k,,,,,,,,,0,145,145,145,,,,,,,,,,,,,,,,,main,None,None,1,1.500548400101252,553.2247132998891,None,None,1,,,,,,,,,,,,,,032,2022-05-27_10h42.49.617,Main,2022.1.1,60.21738475984445,
negative,red,1,None,None,,,,,,,,,0,146,146,146,,,,,,,,,,,,,,,,,main,None,None,1,1.4990308000706136,555.7219825999346,None,None,1,,,,,,,,,,,,,,032,2022-05-27_10h42.49.617,Main,2022.1.1,60.21738475984445,
positive,blue,1,k,None,,,,,,,,,0,147,147,147,,,,,,,,,,,,,,,,,main,k,k,1,0.6827517000492662,558.2246299999533,None,None,0,,,,,,,,,,,,,,032,2022-05-27_10h42.49.617,Main,2022.1.1,60.21738475984445,
positive,yellow,1,None,k,,,,,,,,,0,148,148,148,,,,,,,,,,,,,,,,,main,None,None,1,1.4967498000478372,559.9079175998922,None,None,1,,,,,,,,,,,,,,032,2022-05-27_10h42.49.617,Main,2022.1.1,60.21738475984445,
negative,red,2,None,None,,,,,,,,,0,149,149,149,,,,,,,,,,,,,,,,,main,None,None,1,1.5007187000010163,562.4050900998991,None,None,1,,,,,,,,,,,,,,032,2022-05-27_10h42.49.617,Main,2022.1.1,60.21738475984445,
negative,blue,1,None,k,,,,,,,,,0,150,150,150,,,,,,,,,,,,,,,,,main,None,None,1,1.4973175000632182,564.9078068999806,None,None,1,,,,,,,,,,,,,,032,2022-05-27_10h42.49.617,Main,2022.1.1,60.21738475984445,
negative,yellow,2,k,None,,,,,,,,,0,151,151,151,,,,,,,,,,,,,,,,,main,k,k,1,0.7981535999570042,567.4049820998916,None,None,0,,,,,,,,,,,,,,032,2022-05-27_10h42.49.617,Main,2022.1.1,60.21738475984445,
negative,blue,2,None,k,,,,,,,,,0,152,152,152,,,,,,,,,,,,,,,,,main,None,None,1,1.5015649000415578,569.205009499914,None,None,1,,,,,,,,,,,,,,032,2022-05-27_10h42.49.617,Main,2022.1.1,60.21738475984445,
negative,yellow,1,k,None,,,,,,,,,0,153,153,153,,,,,,,,,,,,,,,,,main,k,k,1,0.7134086000733078,571.707642299938,None,None,0,,,,,,,,,,,,,,032,2022-05-27_10h42.49.617,Main,2022.1.1,60.21738475984445,
negative,blue,1,None,k,,,,,,,,,0,154,154,154,,,,,,,,,,,,,,,,,main,None,None,1,1.5015439999988303,573.4215251998976,None,None,1,,,,,,,,,,,,,,032,2022-05-27_10h42.49.617,Main,2022.1.1,60.21738475984445,
positive,yellow,2,None,k,,,,,,,,,0,155,155,155,,,,,,,,,,,,,,,,,main,None,None,1,1.4990996000124142,575.9242146000033,None,None,1,,,,,,,,,,,,,,032,2022-05-27_10h42.49.617,Main,2022.1.1,60.21738475984445,
positive,red,2,None,None,,,,,,,,,0,156,156,156,,,,,,,,,,,,,,,,,main,None,None,1,1.4974794000154361,578.424148799968,None,None,1,,,,,,,,,,,,,,032,2022-05-27_10h42.49.617,Main,2022.1.1,60.21738475984445,
positive,red,1,None,None,,,,,,,,,0,157,157,157,,,,,,,,,,,,,,,,,main,None,None,1,1.5004399000899866,580.9214462999953,None,None,1,,,,,,,,,,,,,,032,2022-05-27_10h42.49.617,Main,2022.1.1,60.21738475984445,
positive,blue,2,k,None,,,,,,,,,0,158,158,158,,,,,,,,,,,,,,,,,main,k,k,1,0.6798873000079766,583.4240701999515,None,None,0,,,,,,,,,,,,,,032,2022-05-27_10h42.49.617,Main,2022.1.1,60.21738475984445,
negative,yellow,1,k,None,,,,,,,,,0,159,159,159,,,,,,,,,,,,,,,,,main,k,k,1,0.7994018999161199,585.1046190999914,None,None,0,,,,,,,,,,,,,,032,2022-05-27_10h42.49.617,Main,2022.1.1,60.21738475984445,
negative,red,2,None,None,,,,,,,,,0,160,160,160,,,,,,,,,,,,,,,,,main,None,None,1,1.5011732000857592,586.9046611998929,None,None,1,,,,,,,,,,,,,,032,2022-05-27_10h42.49.617,Main,2022.1.1,60.21738475984445,
negative,blue,1,None,k,,,,,,,,,0,161,161,161,,,,,,,,,,,,,,,,,main,None,None,1,1.499501199927181,589.4072705999715,None,None,1,,,,,,,,,,,,,,032,2022-05-27_10h42.49.617,Main,2022.1.1,60.21738475984445,
negative,blue,1,None,k,,,,,,,,,0,162,162,162,,,,,,,,,,,,,,,,,main,None,None,1,1.496424499899149,591.9047945999773,None,None,1,,,,,,,,,,,,,,032,2022-05-27_10h42.49.617,Main,2022.1.1,60.21738475984445,
negative,yellow,1,k,None,,,,,,,,,0,163,163,163,,,,,,,,,,,,,,,,,main,k,k,1,0.9658825000515208,594.4047294999473,None,None,0,,,,,,,,,,,,,,032,2022-05-27_10h42.49.617,Main,2022.1.1,60.21738475984445,
negative,yellow,1,k,None,,,,,,,,,0,164,164,164,,,,,,,,,,,,,,,,,main,k,k,1,0.6658907000673935,596.3716812999919,None,None,0,,,,,,,,,,,,,,032,2022-05-27_10h42.49.617,Main,2022.1.1,60.21738475984445,
positive,yellow,1,None,k,,,,,,,,,0,165,165,165,,,,,,,,,,,,,,,,,main,None,None,1,1.499061300070025,598.0382713999134,None,None,1,,,,,,,,,,,,,,032,2022-05-27_10h42.49.617,Main,2022.1.1,60.21738475984445,
negative,red,1,None,None,,,,,,,,,0,166,166,166,,,,,,,,,,,,,,,,,main,None,None,1,1.5005790999857709,600.5376080999849,None,None,1,,,,,,,,,,,,,,032,2022-05-27_10h42.49.617,Main,2022.1.1,60.21738475984445,
negative,yellow,2,k,None,,,,,,,,,0,167,167,167,,,,,,,,,,,,,,,,,main,k,k,1,0.7327704000053927,603.0403130999766,None,None,0,,,,,,,,,,,,,,032,2022-05-27_10h42.49.617,Main,2022.1.1,60.21738475984445,
positive,blue,2,k,None,,,,,,,,,0,168,168,168,,,,,,,,,,,,,,,,,main,k,k,1,0.7631704000523314,604.7710825999966,None,None,0,,,,,,,,,,,,,,032,2022-05-27_10h42.49.617,Main,2022.1.1,60.21738475984445,
positive,red,2,None,None,,,,,,,,,0,169,169,169,,,,,,,,,,,,,,,,,main,None,None,1,1.501570700085722,606.5377974999137,None,None,1,,,,,,,,,,,,,,032,2022-05-27_10h42.49.617,Main,2022.1.1,60.21738475984445,
positive,red,1,None,None,,,,,,,,,0,170,170,170,,,,,,,,,,,,,,,,,main,None,None,1,1.4989510000450537,609.0403251999523,None,None,1,,,,,,,,,,,,,,032,2022-05-27_10h42.49.617,Main,2022.1.1,60.21738475984445,
negative,blue,2,None,k,,,,,,,,,0,171,171,171,,,,,,,,,,,,,,,,,main,None,None,1,1.4971742000197992,611.540353099932,None,None,1,,,,,,,,,,,,,,032,2022-05-27_10h42.49.617,Main,2022.1.1,60.21738475984445,
positive,blue,2,k,None,,,,,,,,,0,172,172,172,,,,,,,,,,,,,,,,,main,k,k,1,0.8507391000166535,614.0375908999704,None,None,0,,,,,,,,,,,,,,032,2022-05-27_10h42.49.617,Main,2022.1.1,60.21738475984445,
negative,yellow,2,k,None,,,,,,,,,0,173,173,173,,,,,,,,,,,,,,,,,main,k,k,1,0.6658985000103712,615.8902671999531,None,None,0,,,,,,,,,,,,,,032,2022-05-27_10h42.49.617,Main,2022.1.1,60.21738475984445,
positive,yellow,2,None,k,,,,,,,,,0,174,174,174,,,,,,,,,,,,,,,,,main,None,None,1,1.4964084000093862,617.5567211000016,None,None,1,,,,,,,,,,,,,,032,2022-05-27_10h42.49.617,Main,2022.1.1,60.21738475984445,
negative,blue,2,None,k,,,,,,,,,0,175,175,175,,,,,,,,,,,,,,,,,main,None,None,1,1.498694800073281,620.0564843999455,None,None,1,,,,,,,,,,,,,,032,2022-05-27_10h42.49.617,Main,2022.1.1,60.21738475984445,
positive,blue,1,k,None,,,,,,,,,0,176,176,176,,,,,,,,,,,,,,,,,main,k,k,1,1.0826824000105262,622.5540835999418,None,None,0,,,,,,,,,,,,,,032,2022-05-27_10h42.49.617,Main,2022.1.1,60.21738475984445,
positive,yellow,1,None,k,,,,,,,,,0,177,177,177,,,,,,,,,,,,,,,,,main,None,None,1,1.5010606000432745,624.6373803999741,None,None,1,,,,,,,,,,,,,,032,2022-05-27_10h42.49.617,Main,2022.1.1,60.21738475984445,
positive,blue,1,k,None,,,,,,,,,0,178,178,178,,,,,,,,,,,,,,,,,main,k,k,1,0.7134361999342218,627.1398616998922,None,None,0,,,,,,,,,,,,,,032,2022-05-27_10h42.49.617,Main,2022.1.1,60.21738475984445,
positive,yellow,2,None,k,,,,,,,,,0,179,179,179,,,,,,,,,,,,,,,,,main,None,None,1,1.5011562999570742,628.8539442999754,None,None,1,,,,,,,,,,,,,,032,2022-05-27_10h42.49.617,Main,2022.1.1,60.21738475984445,
positive,blue,1,k,None,,,,,,,,,0,180,180,180,,,,,,,,,,,,,,,,,main,k,k,1,1.4964457000605762,631.3539397999411,None,None,0,,,,,,,,,,,,,,032,2022-05-27_10h42.49.617,Main,2022.1.1,60.21738475984445,
negative,red,1,None,None,,,,,,,,,0,181,181,181,,,,,,,,,,,,,,,,,main,None,None,1,1.500022199936211,633.8536012999248,None,None,1,,,,,,,,,,,,,,032,2022-05-27_10h42.49.617,Main,2022.1.1,60.21738475984445,
negative,blue,1,None,k,,,,,,,,,0,182,182,182,,,,,,,,,,,,,,,,,main,None,None,1,1.5006416999967769,636.3536116000032,None,None,1,,,,,,,,,,,,,,032,2022-05-27_10h42.49.617,Main,2022.1.1,60.21738475984445,
negative,yellow,2,k,None,,,,,,,,,0,183,183,183,,,,,,,,,,,,,,,,,main,k,k,1,0.7133349000941962,638.8562528999755,None,None,0,,,,,,,,,,,,,,032,2022-05-27_10h42.49.617,Main,2022.1.1,60.21738475984445,
positive,yellow,2,None,k,,,,,,,,,0,184,184,184,,,,,,,,,,,,,,,,,main,None,None,1,1.5007404000498354,640.5701295000035,None,None,1,,,,,,,,,,,,,,032,2022-05-27_10h42.49.617,Main,2022.1.1,60.21738475984445,
positive,yellow,1,None,k,,,,,,,,,0,185,185,185,,,,,,,,,,,,,,,,,main,None,None,1,1.498158699949272,643.0730796999997,None,None,1,,,,,,,,,,,,,,032,2022-05-27_10h42.49.617,Main,2022.1.1,60.21738475984445,
positive,red,2,None,None,,,,,,,,,0,186,186,186,,,,,,,,,,,,,,,,,main,None,None,1,1.4957799999974668,645.5728130999487,None,None,1,,,,,,,,,,,,,,032,2022-05-27_10h42.49.617,Main,2022.1.1,60.21738475984445,
positive,blue,1,k,None,,,,,,,,,0,187,187,187,,,,,,,,,,,,,,,,,main,k,k,1,0.850951400003396,648.070209599915,None,None,0,,,,,,,,,,,,,,032,2022-05-27_10h42.49.617,Main,2022.1.1,60.21738475984445,
negative,yellow,1,k,None,,,,,,,,,0,188,188,188,,,,,,,,,,,,,,,,,main,k,k,1,0.7825972000136971,649.9227466000011,None,None,0,,,,,,,,,,,,,,032,2022-05-27_10h42.49.617,Main,2022.1.1,60.21738475984445,
positive,yellow,2,None,k,,,,,,,,,0,189,189,189,,,,,,,,,,,,,,,,,main,None,None,1,1.4969962999457493,651.7060305998893,None,None,1,,,,,,,,,,,,,,032,2022-05-27_10h42.49.617,Main,2022.1.1,60.21738475984445,
negative,yellow,2,k,None,,,,,,,,,0,190,190,190,,,,,,,,,,,,,,,,,main,k,k,1,0.7482036000583321,654.2058808999136,None,None,0,,,,,,,,,,,,,,032,2022-05-27_10h42.49.617,Main,2022.1.1,60.21738475984445,
negative,yellow,1,k,None,,,,,,,,,0,191,191,191,,,,,,,,,,,,,,,,,main,k,k,1,0.9328742000507191,655.9531573998975,None,None,0,,,,,,,,,,,,,,032,2022-05-27_10h42.49.617,Main,2022.1.1,60.21738475984445,
positive,blue,2,k,None,,,,,,,,,0,192,192,192,,,,,,,,,,,,,,,,,main,k,k,1,0.8012815000256523,657.8892462999793,None,None,0,,,,,,,,,,,,,,032,2022-05-27_10h42.49.617,Main,2022.1.1,60.21738475984445,
positive,yellow,1,None,k,,,,,,,,,0,193,193,193,,,,,,,,,,,,,,,,,main,None,None,1,1.4984955999534577,659.6891798999859,None,None,1,,,,,,,,,,,,,,032,2022-05-27_10h42.49.617,Main,2022.1.1,60.21738475984445,
negative,red,2,None,None,,,,,,,,,0,194,194,194,,,,,,,,,,,,,,,,,main,None,None,1,1.49680389999412,662.1889779999619,None,None,1,,,,,,,,,,,,,,032,2022-05-27_10h42.49.617,Main,2022.1.1,60.21738475984445,
positive,red,1,None,None,,,,,,,,,0,195,195,195,,,,,,,,,,,,,,,,,main,None,None,1,1.5011916999937966,664.6865353999892,None,None,1,,,,,,,,,,,,,,032,2022-05-27_10h42.49.617,Main,2022.1.1,60.21738475984445,
negative,blue,1,None,k,,,,,,,,,0,196,196,196,,,,,,,,,,,,,,,,,main,None,None,1,1.4973337000701576,667.188871899969,None,None,1,,,,,,,,,,,,,,032,2022-05-27_10h42.49.617,Main,2022.1.1,60.21738475984445,
positive,blue,2,k,None,,,,,,,,,0,197,197,197,,,,,,,,,,,,,,,,,main,k,k,1,0.6813474000664428,669.6861997999949,None,None,0,,,,,,,,,,,,,,032,2022-05-27_10h42.49.617,Main,2022.1.1,60.21738475984445,
negative,blue,2,None,k,,,,,,,,,0,198,198,198,,,,,,,,,,,,,,,,,main,None,None,1,1.5015561999753118,671.3695384999737,None,None,1,,,,,,,,,,,,,,032,2022-05-27_10h42.49.617,Main,2022.1.1,60.21738475984445,
negative,blue,2,None,k,,,,,,,,,0,199,199,199,,,,,,,,,,,,,,,,,main,None,None,1,1.4965339999180287,673.8724153999938,None,None,1,,,,,,,,,,,,,,032,2022-05-27_10h42.49.617,Main,2022.1.1,60.21738475984445,
positive,blue,2,k,None,,,,,,,,,0,200,200,200,,,,,,,,,,,,,,,,,main,k,k,1,0.8206274000694975,676.3696460999781,None,None,0,,,,,,,,,,,,,,032,2022-05-27_10h42.49.617,Main,2022.1.1,60.21738475984445,
positive,blue,2,k,None,,,,,,,,,0,201,201,201,,,,,,,,,,,,,,,,,main,k,k,1,0.8443391999462619,678.193381399964,None,None,0,,,,,,,,,,,,,,032,2022-05-27_10h42.49.617,Main,2022.1.1,60.21738475984445,
negative,yellow,2,k,None,,,,,,,,,0,202,202,202,,,,,,,,,,,,,,,,,main,k,k,1,0.6679949999088421,680.035967499949,None,None,0,,,,,,,,,,,,,,032,2022-05-27_10h42.49.617,Main,2022.1.1,60.21738475984445,
positive,red,1,None,None,,,,,,,,,0,203,203,203,,,,,,,,,,,,,,,,,main,None,None,1,1.4953879999229684,681.705396699952,None,None,1,,,,,,,,,,,,,,032,2022-05-27_10h42.49.617,Main,2022.1.1,60.21738475984445,
negative,blue,2,None,k,,,,,,,,,0,204,204,204,,,,,,,,,,,,,,,,,main,None,None,1,1.4979077000170946,684.2053410999943,None,None,1,,,,,,,,,,,,,,032,2022-05-27_10h42.49.617,Main,2022.1.1,60.21738475984445,
negative,red,1,None,None,,,,,,,,,0,205,205,205,,,,,,,,,,,,,,,,,main,None,None,1,1.4991852000821382,686.7082706999499,None,None,1,,,,,,,,,,,,,,032,2022-05-27_10h42.49.617,Main,2022.1.1,60.21738475984445,
negative,blue,2,None,k,,,,,,,,,0,206,206,206,,,,,,,,,,,,,,,,,main,None,None,1,1.4994366000173613,689.2024976999965,None,None,1,,,,,,,,,,,,,,032,2022-05-27_10h42.49.617,Main,2022.1.1,60.21738475984445,
negative,yellow,2,k,None,,,,,,,,,0,207,207,207,,,,,,,,,,,,,,,,,main,k,k,1,0.7460612999275327,691.7051567999879,None,None,0,,,,,,,,,,,,,,032,2022-05-27_10h42.49.617,Main,2022.1.1,60.21738475984445,
positive,yellow,2,None,k,,,,,,,,,0,208,208,208,,,,,,,,,,,,,,,,,main,None,None,1,1.499382899957709,693.454998799949,None,None,1,,,,,,,,,,,,,,032,2022-05-27_10h42.49.617,Main,2022.1.1,60.21738475984445,
negative,yellow,1,k,None,,,,,,,,,0,209,209,209,,,,,,,,,,,,,,,,,main,k,k,1,0.8817246000980958,695.9523198999232,None,None,0,,,,,,,,,,,,,,032,2022-05-27_10h42.49.617,Main,2022.1.1,60.21738475984445,
negative,red,2,None,None,,,,,,,,,0,210,210,210,,,,,,,,,,,,,,,,,main,None,None,1,1.5007090999279171,697.8356819999171,None,None,1,,,,,,,,,,,,,,032,2022-05-27_10h42.49.617,Main,2022.1.1,60.21738475984445,
negative,blue,1,None,k,,,,,,,,,0,211,211,211,,,,,,,,,,,,,,,,,main,None,None,1,1.496507899952121,700.3383080998901,None,None,1,,,,,,,,,,,,,,032,2022-05-27_10h42.49.617,Main,2022.1.1,60.21738475984445,
negative,yellow,1,k,None,,,,,,,,,0,212,212,212,,,,,,,,,,,,,,,,,main,k,k,1,0.7327230999944732,702.8412928999169,None,None,0,,,,,,,,,,,,,,032,2022-05-27_10h42.49.617,Main,2022.1.1,60.21738475984445,
positive,blue,1,k,None,,,,,,,,,0,213,213,213,,,,,,,,,,,,,,,,,main,k,k,1,0.7020063000964001,704.568784999894,None,None,0,,,,,,,,,,,,,,032,2022-05-27_10h42.49.617,Main,2022.1.1,60.21738475984445,
positive,blue,1,k,None,,,,,,,,,0,214,214,214,,,,,,,,,,,,,,,,,main,k,k,1,0.6825138999847695,706.271510599996,None,None,0,,,,,,,,,,,,,,032,2022-05-27_10h42.49.617,Main,2022.1.1,60.21738475984445,
positive,yellow,1,None,k,,,,,,,,,0,215,215,215,,,,,,,,,,,,,,,,,main,None,None,1,1.4971102999988943,707.9547938999021,None,None,1,,,,,,,,,,,,,,032,2022-05-27_10h42.49.617,Main,2022.1.1,60.21738475984445,
positive,yellow,1,None,k,,,,,,,,,0,216,216,216,,,,,,,,,,,,,,,,,main,None,None,1,1.5005660000024363,710.4519991999259,None,None,1,,,,,,,,,,,,,,032,2022-05-27_10h42.49.617,Main,2022.1.1,60.21738475984445,
positive,yellow,2,None,k,,,,,,,,,0,217,217,217,,,,,,,,,,,,,,,,,main,None,None,1,1.4990352999884635,712.9546922999434,None,None,1,,,,,,,,,,,,,,032,2022-05-27_10h42.49.617,Main,2022.1.1,60.21738475984445,
negative,blue,1,None,k,,,,,,,,,0,218,218,218,,,,,,,,,,,,,,,,,main,None,None,1,1.4966167999664322,715.4521600999869,None,None,1,,,,,,,,,,,,,,032,2022-05-27_10h42.49.617,Main,2022.1.1,60.21738475984445,
positive,red,2,None,None,,,,,,,,,0,219,219,219,,,,,,,,,,,,,,,,,main,None,None,1,1.4992533000186086,717.9576604999602,None,None,1,,,,,,,,,,,,,,032,2022-05-27_10h42.49.617,Main,2022.1.1,60.21738475984445,
positive,yellow,1,None,k,,,,,,,,,0,220,220,220,,,,,,,,,,,,,,,,,main,None,None,1,1.4993404999841005,720.4520487999544,None,None,1,,,,,,,,,,,,,,032,2022-05-27_10h42.49.617,Main,2022.1.1,60.21738475984445,
positive,blue,1,k,None,,,,,,,,,0,221,221,221,,,,,,,,,,,,,,,,,main,k,k,1,1.1324011000106111,722.9544211999746,None,None,0,,,,,,,,,,,,,,032,2022-05-27_10h42.49.617,Main,2022.1.1,60.21738475984445,
positive,yellow,2,None,k,,,,,,,,,0,222,222,222,,,,,,,,,,,,,,,,,main,None,None,1,1.5012963000917807,725.0854459999828,None,None,1,,,,,,,,,,,,,,032,2022-05-27_10h42.49.617,Main,2022.1.1,60.21738475984445,
negative,yellow,1,k,None,,,,,,,,,0,223,223,223,,,,,,,,,,,,,,,,,main,k,k,1,0.7326752000954002,727.5877804999473,None,None,0,,,,,,,,,,,,,,032,2022-05-27_10h42.49.617,Main,2022.1.1,60.21738475984445,
positive,yellow,2,None,k,,,,,,,,,0,224,224,224,,,,,,,,,,,,,,,,,main,None,None,1,1.4959629999939352,729.321080799913,None,None,1,,,,,,,,,,,,,,032,2022-05-27_10h42.49.617,Main,2022.1.1,60.21738475984445,
negative,yellow,2,k,None,,,,,,,,,0,225,225,225,,,,,,,,,,,,,,,,,main,k,k,1,0.8690504000987858,731.8185455999337,None,None,0,,,,,,,,,,,,,,032,2022-05-27_10h42.49.617,Main,2022.1.1,60.21738475984445,
negative,blue,2,None,k,,,,,,,,,0,226,226,226,,,,,,,,,,,,,,,,,main,None,None,1,1.4984825999708846,733.6878469999647,None,None,1,,,,,,,,,,,,,,032,2022-05-27_10h42.49.617,Main,2022.1.1,60.21738475984445,
positive,red,2,None,None,,,,,,,,,0,227,227,227,,,,,,,,,,,,,,,,,main,None,None,1,1.4968764000805095,736.1875492999097,None,None,1,,,,,,,,,,,,,,032,2022-05-27_10h42.49.617,Main,2022.1.1,60.21738475984445,
positive,blue,2,k,None,,,,,,,,,0,228,228,228,,,,,,,,,,,,,,,,,main,k,k,1,0.7822149000130594,738.685031299945,None,None,0,,,,,,,,,,,,,,032,2022-05-27_10h42.49.617,Main,2022.1.1,60.21738475984445,
negative,blue,1,None,k,,,,,,,,,0,229,229,229,,,,,,,,,,,,,,,,,main,None,None,1,1.5012642000801861,740.4707936999621,None,None,1,,,,,,,,,,,,,,032,2022-05-27_10h42.49.617,Main,2022.1.1,60.21738475984445,
positive,yellow,1,None,k,,,,,,,,,0,230,230,230,,,,,,,,,,,,,,,,,main,None,None,1,1.4989570000907406,742.9709687998984,None,None,1,,,,,,,,,,,,,,032,2022-05-27_10h42.49.617,Main,2022.1.1,60.21738475984445,
negative,blue,2,None,k,,,,,,,,,0,231,231,231,,,,,,,,,,,,,,,,,main,None,None,1,1.4972887999610975,745.4685028999811,None,None,1,,,,,,,,,,,,,,032,2022-05-27_10h42.49.617,Main,2022.1.1,60.21738475984445,
negative,red,1,None,None,,,,,,,,,0,232,232,232,,,,,,,,,,,,,,,,,main,None,None,1,1.5005870000459254,747.9681316999486,None,None,1,,,,,,,,,,,,,,032,2022-05-27_10h42.49.617,Main,2022.1.1,60.21738475984445,
positive,blue,2,k,None,,,,,,,,,0,233,233,233,,,,,,,,,,,,,,,,,main,k,k,1,0.7825607000850141,750.4707630999619,None,None,0,,,,,,,,,,,,,,032,2022-05-27_10h42.49.617,Main,2022.1.1,60.21738475984445,
negative,yellow,1,k,None,,,,,,,,,0,234,234,234,,,,,,,,,,,,,,,,,main,k,k,1,0.7963919999310747,752.2538797999732,None,None,0,,,,,,,,,,,,,,032,2022-05-27_10h42.49.617,Main,2022.1.1,60.21738475984445,
negative,yellow,2,k,None,,,,,,,,,0,235,235,235,,,,,,,,,,,,,,,,,main,k,k,1,0.7520854999311268,754.0510955998907,None,None,0,,,,,,,,,,,,,,032,2022-05-27_10h42.49.617,Main,2022.1.1,60.21738475984445,
positive,red,1,None,None,,,,,,,,,0,236,236,236,,,,,,,,,,,,,,,,,main,None,None,1,1.4988956999732181,755.8038629998919,None,None,1,,,,,,,,,,,,,,032,2022-05-27_10h42.49.617,Main,2022.1.1,60.21738475984445,
negative,red,2,None,None,,,,,,,,,0,237,237,237,,,,,,,,,,,,,,,,,main,None,None,1,1.4961694000521675,758.3038080999395,None,None,1,,,,,,,,,,,,,,032,2022-05-27_10h42.49.617,Main,2022.1.1,60.21738475984445,
negative,blue,1,None,k,,,,,,,,,0,238,238,238,,,,,,,,,,,,,,,,,main,None,None,1,1.499934499966912,760.8066733999876,None,None,1,,,,,,,,,,,,,,032,2022-05-27_10h42.49.617,Main,2022.1.1,60.21738475984445,
positive,blue,1,k,None,,,,,,,,,0,239,239,239,,,,,,,,,,,,,,,,,main,k,k,1,0.6842677000677213,763.3009760999121,None,None,0,,,,,,,,,,,,,,032,2022-05-27_10h42.49.617,Main,2022.1.1,60.21738475984445,
,,,,,,,,,,,,,,,,,,,,,,,,,,,,,,,,,,,,,,,,,,,,,,,,,,,,,764.987200899981,None,,,,,,
