distractor,target,set,ans1,ans2,rep_loop4.thisRepN,rep_loop4.thisTrialN,rep_loop4.thisN,rep_loop4.thisIndex,st2_prac_loop.thisRepN,st2_prac_loop.thisTrialN,st2_prac_loop.thisN,st2_prac_loop.thisIndex,st2_main_loop.thisRepN,st2_main_loop.thisTrialN,st2_main_loop.thisN,st2_main_loop.thisIndex,image_4.started,image_4.stopped,sound_2.started,sound_2.stopped,key_resp_3.keys,key_resp_3.rt,image_5.started,image_5.stopped,st_prac_back.started,st_prac_back.stopped,st_prac_text.started,st_prac_text.stopped,st_fix_back.started,st_fix_back.stopped,st_fix_2.started,st_fix_2.stopped,main_prac,st_ans,st_res,st_corr,st_rt,st_back.started,st_back.stopped,st2_resp.keys,st2_resp.corr,st_main_back.started,st_main_back.stopped,st_main_text.started,st_main_text.stopped,mouse_4.x,mouse_4.y,mouse_4.leftButton,mouse_4.midButton,mouse_4.rightButton,mouse_4.started,mouse_4.stopped,text_2.started,text_2.stopped,id*,date,expName,psychopyVersion,frameRate,
negative,yellow,1,k,None,,,,,0,0,0,0,,,,,94.53830899996683,None,97.48192621995695,None,space,60.442236700095236,157.94986360007897,None,159.8639155998826,None,159.8639155998826,None,161.8670922999736,None,161.8670922999736,None,prac,None,None,1,1.5167447999119759,163.87301209988073,None,None,1,,,,,,,,,,,,,,033,2022-05-30_20h12.29.945,Main,2022.1.1,61.167391939438424,
positive,red,2,None,None,,,,,0,1,1,1,,,,,,,,,,,,,,,,,,,,,prac,None,None,1,1.4992132000625134,166.39930390007794,None,None,1,,,,,,,,,,,,,,033,2022-05-30_20h12.29.945,Main,2022.1.1,61.167391939438424,
negative,blue,2,None,k,,,,,0,2,2,2,,,,,,,,,,,,,,,,,,,,,prac,k,k,1,0.8341660001315176,168.89700070000254,None,None,0,,,,,,,,,,,,,,033,2022-05-30_20h12.29.945,Main,2022.1.1,61.167391939438424,
positive,yellow,1,None,k,,,,,0,3,3,3,,,,,,,,,,,,,,,,,,,,,prac,k,k,1,0.7989407000131905,170.73386809998192,None,None,0,,,,,,,,,,,,,,033,2022-05-30_20h12.29.945,Main,2022.1.1,61.167391939438424,
negative,blue,2,None,k,,,,,0,4,4,4,,,,,,,,,,,,,,,,,,,,,prac,k,k,1,0.7848223000764847,172.5329738999717,None,None,0,,,,,,,,,,,,,,033,2022-05-30_20h12.29.945,Main,2022.1.1,61.167391939438424,
negative,blue,1,None,k,,,,,0,5,5,5,,,,,,,,,,,,,,,,,,,,,prac,k,k,1,0.8640850000083447,174.31378540000878,None,None,0,,,,,,,,,,,,,,033,2022-05-30_20h12.29.945,Main,2022.1.1,61.167391939438424,
negative,yellow,2,k,None,,,,,0,6,6,6,,,,,,,,,,,,,,,,,,,,,prac,None,None,1,1.4953931998461485,176.18981019989587,None,None,1,,,,,,,,,,,,,,033,2022-05-30_20h12.29.945,Main,2022.1.1,61.167391939438424,
negative,red,1,None,None,,,,,0,7,7,7,,,,,,,,,,,,,,,,,,,,,prac,None,None,1,1.5005342001095414,178.6802250999026,None,None,1,,,,,,,,,,,,,,033,2022-05-30_20h12.29.945,Main,2022.1.1,61.167391939438424,
positive,yellow,2,None,k,,,,,0,8,8,8,,,,,,,,,,,,,,,,,,,,,prac,k,k,1,0.6824552998878062,181.1839814998675,None,None,0,,,,,,,,,,,,,,033,2022-05-30_20h12.29.945,Main,2022.1.1,61.167391939438424,
negative,yellow,1,k,None,,,,,0,9,9,9,,,,,,,,,,,,,,,,,,,,,prac,None,None,1,1.4971952000632882,182.86605919990689,None,None,1,,,,,,,,,,,,,,033,2022-05-30_20h12.29.945,Main,2022.1.1,61.167391939438424,
positive,yellow,2,None,k,,,,,0,10,10,10,,,,,,,,,,,,,,,,,,,,,prac,k,k,1,1.000642899889499,185.3636739999056,None,None,0,,,,,,,,,,,,,,033,2022-05-30_20h12.29.945,Main,2022.1.1,61.167391939438424,
negative,yellow,2,k,None,,,,,0,11,11,11,,,,,,,,,,,,,,,,,,,,,prac,None,None,1,1.499040100025013,187.3660053999629,None,None,1,,,,,,,,,,,,,,033,2022-05-30_20h12.29.945,Main,2022.1.1,61.167391939438424,
negative,red,2,None,None,,,,,0,12,12,12,,,,,,,,,,,,,,,,,,,,,prac,None,None,1,1.4972724998369813,189.8659486998804,None,None,1,,,,,,,,,,,,,,033,2022-05-30_20h12.29.945,Main,2022.1.1,61.167391939438424,
positive,red,1,None,None,,,,,0,13,13,13,,,,,,,,,,,,,,,,,,,,,prac,None,None,1,1.500696400180459,192.3631726000458,None,None,1,,,,,,,,,,,,,,033,2022-05-30_20h12.29.945,Main,2022.1.1,61.167391939438424,
positive,blue,2,k,None,,,,,0,14,14,14,,,,,,,,,,,,,,,,,,,,,prac,None,None,1,1.4972381999250501,194.86581610003486,None,None,1,,,,,,,,,,,,,,033,2022-05-30_20h12.29.945,Main,2022.1.1,61.167391939438424,
positive,blue,1,k,None,,,,,0,15,15,15,,,,,,,,,,,,,,,,,,,,,prac,None,None,1,1.5006134000141174,197.36301309987903,None,None,1,,,,,,,,,,,,,,033,2022-05-30_20h12.29.945,Main,2022.1.1,61.167391939438424,
negative,blue,1,None,k,,,,,0,16,16,16,,,,,,,,,,,,,,,,,,,,,prac,k,k,1,1.7826574000064284,199.86588769988157,None,None,0,,,,,,,,,,,,,,033,2022-05-30_20h12.29.945,Main,2022.1.1,61.167391939438424,
positive,blue,2,k,None,,,,,0,17,17,17,,,,,,,,,,,,,,,,,,,,,prac,None,None,1,1.4994206000119448,203.64900629990734,None,None,1,,,,,,,,,,,,,,033,2022-05-30_20h12.29.945,Main,2022.1.1,61.167391939438424,
positive,blue,1,k,None,,,,,0,18,18,18,,,,,,,,,,,,,,,,,,,,,prac,None,None,1,1.4999849998857826,206.14795759995468,None,None,1,,,,,,,,,,,,,,033,2022-05-30_20h12.29.945,Main,2022.1.1,61.167391939438424,
positive,yellow,1,None,k,,,,,0,19,19,19,,,,,,,,,,,,,,,,,,,,,prac,k,k,1,0.7967906000558287,208.64887510007247,None,None,0,,,,,,,,,,,,,,033,2022-05-30_20h12.29.945,Main,2022.1.1,61.167391939438424,
negative,yellow,1,k,None,,,,,1,0,20,0,,,,,,,,,,,,,,,,,,,,,prac,None,None,1,1.5015269999857992,210.44610639987513,None,None,1,,,,,,,,,,,,,,033,2022-05-30_20h12.29.945,Main,2022.1.1,61.167391939438424,
positive,red,2,None,None,,,,,1,1,21,1,,,,,,,,,,,,,,,,,,,,,prac,None,None,1,1.4990563997998834,212.9488083999604,None,None,1,,,,,,,,,,,,,,033,2022-05-30_20h12.29.945,Main,2022.1.1,61.167391939438424,
negative,blue,2,None,k,,,,,1,2,22,2,,,,,,,,,,,,,,,,,,,,,prac,k,k,1,0.663232299964875,215.44875079998747,None,None,0,,,,,,,,,,,,,,033,2022-05-30_20h12.29.945,Main,2022.1.1,61.167391939438424,
positive,yellow,1,None,k,,,,,1,3,23,3,,,,,,,,,,,,,,,,,,,,,prac,k,k,1,0.8851100001484156,217.11285699997097,None,None,0,,,,,,,,,,,,,,033,2022-05-30_20h12.29.945,Main,2022.1.1,61.167391939438424,
negative,blue,2,None,k,,,,,1,4,24,4,,,,,,,,,,,,,,,,,,,,,prac,k,k,1,1.0990236999932677,218.99866200005636,None,None,0,,,,,,,,,,,,,,033,2022-05-30_20h12.29.945,Main,2022.1.1,61.167391939438424,
negative,blue,1,None,k,,,,,1,5,25,5,,,,,,,,,,,,,,,,,,,,,prac,k,k,1,1.196611699881032,221.09863519994542,None,None,0,,,,,,,,,,,,,,033,2022-05-30_20h12.29.945,Main,2022.1.1,61.167391939438424,
negative,yellow,2,k,None,,,,,1,6,26,6,,,,,,,,,,,,,,,,,,,,,prac,None,None,1,1.5016191999893636,223.29582270001993,None,None,1,,,,,,,,,,,,,,033,2022-05-30_20h12.29.945,Main,2022.1.1,61.167391939438424,
negative,red,1,None,None,,,,,1,7,27,7,,,,,,,,,,,,,,,,,,,,,prac,None,None,1,1.4965532999485731,225.7985266998876,None,None,1,,,,,,,,,,,,,,033,2022-05-30_20h12.29.945,Main,2022.1.1,61.167391939438424,
positive,yellow,2,None,k,,,,,1,8,28,8,,,,,,,,,,,,,,,,,,,,,prac,k,k,1,0.9019021999556571,228.2982999999076,None,None,0,,,,,,,,,,,,,,033,2022-05-30_20h12.29.945,Main,2022.1.1,61.167391939438424,
negative,yellow,1,k,None,,,,,1,9,29,9,,,,,,,,,,,,,,,,,,,,,prac,None,None,1,1.4969967999495566,230.19600289990194,None,None,1,,,,,,,,,,,,,,033,2022-05-30_20h12.29.945,Main,2022.1.1,61.167391939438424,
positive,yellow,2,None,k,,,,,1,10,30,10,,,,,,,,,,,,,,,,,,,,,prac,k,k,1,0.8988869998138398,232.6956831999123,None,None,0,,,,,,,,,,,,,,033,2022-05-30_20h12.29.945,Main,2022.1.1,61.167391939438424,
negative,yellow,2,k,None,,,,,1,11,31,11,,,,,,,,,,,,,,,,,,,,,prac,None,None,1,1.5039605000056326,234.59838109998964,None,None,1,,,,,,,,,,,,,,033,2022-05-30_20h12.29.945,Main,2022.1.1,61.167391939438424,
negative,red,2,None,None,,,,,1,12,32,12,,,,,,,,,,,,,,,,,,,,,prac,None,None,1,1.4968712001573294,237.09960679989308,None,None,1,,,,,,,,,,,,,,033,2022-05-30_20h12.29.945,Main,2022.1.1,61.167391939438424,
positive,red,1,None,None,,,,,1,13,33,13,,,,,,,,,,,,,,,,,,,,,prac,None,None,1,1.497686899965629,239.59828300005756,None,None,1,,,,,,,,,,,,,,033,2022-05-30_20h12.29.945,Main,2022.1.1,61.167391939438424,
positive,blue,2,k,None,,,,,1,14,34,14,,,,,,,,,,,,,,,,,,,,,prac,None,None,1,1.4971990000922233,242.09821389988065,None,None,1,,,,,,,,,,,,,,033,2022-05-30_20h12.29.945,Main,2022.1.1,61.167391939438424,
positive,blue,1,k,None,,,,,1,15,35,15,,,,,,,,,,,,,,,,,,,,,prac,None,None,1,1.4982819999568164,244.59566970006563,None,None,1,,,,,,,,,,,,,,033,2022-05-30_20h12.29.945,Main,2022.1.1,61.167391939438424,
negative,blue,1,None,k,,,,,1,16,36,16,,,,,,,,,,,,,,,,,,,,,prac,k,k,1,0.6850633001886308,247.09534700005315,None,None,0,,,,,,,,,,,,,,033,2022-05-30_20h12.29.945,Main,2022.1.1,61.167391939438424,
positive,blue,2,k,None,,,,,1,17,37,17,,,,,,,,,,,,,,,,,,,,,prac,None,None,1,1.49811500008218,248.78139579994604,None,None,1,,,,,,,,,,,,,,033,2022-05-30_20h12.29.945,Main,2022.1.1,61.167391939438424,
positive,blue,1,k,None,,,,,1,18,38,18,,,,,,,,,,,,,,,,,,,,,prac,None,None,1,1.4988386000040919,251.28136039990932,None,None,1,,,,,,,,,,,,,,033,2022-05-30_20h12.29.945,Main,2022.1.1,61.167391939438424,
positive,yellow,1,None,k,,,,,1,19,39,19,,,,,,,,,,,,,,,,,,,,,prac,k,k,1,1.0110778999514878,253.77911540004425,None,None,0,,,,,,,,,,,,,,033,2022-05-30_20h12.29.945,Main,2022.1.1,61.167391939438424,
,,,,,,,,,,,,,,,,,,,,,,,,,,,,,,,,,,,,,,,,,,255.79516059998423,None,255.79516059998423,None,0.025925925,-0.24537037,0,0,0,0.01405641995370388,None,,,033,2022-05-30_20h12.29.945,Main,2022.1.1,61.167391939438424,
negative,yellow,2,k,None,,,,,,,,,0,0,0,0,,,,,,,,,,,,,256.69518220005557,None,256.69518220005557,None,main,None,None,1,1.4951665000990033,258.7272343998775,None,None,1,,,,,,,,,,,,,,033,2022-05-30_20h12.29.945,Main,2022.1.1,61.167391939438424,
positive,red,1,None,None,,,,,,,,,0,1,1,1,,,,,,,,,,,,,,,,,main,None,None,1,1.4970166001003236,261.23114229994826,None,None,1,,,,,,,,,,,,,,033,2022-05-30_20h12.29.945,Main,2022.1.1,61.167391939438424,
positive,blue,2,k,None,,,,,,,,,0,2,2,2,,,,,,,,,,,,,,,,,main,None,None,1,1.5006695999763906,263.7283504998777,None,None,1,,,,,,,,,,,,,,033,2022-05-30_20h12.29.945,Main,2022.1.1,61.167391939438424,
positive,blue,1,k,None,,,,,,,,,0,3,3,3,,,,,,,,,,,,,,,,,main,None,None,1,1.4990849001333117,266.23103959998116,None,None,1,,,,,,,,,,,,,,033,2022-05-30_20h12.29.945,Main,2022.1.1,61.167391939438424,
negative,yellow,2,k,None,,,,,,,,,0,4,4,4,,,,,,,,,,,,,,,,,main,None,None,1,1.496359100099653,268.73098480002955,None,None,1,,,,,,,,,,,,,,033,2022-05-30_20h12.29.945,Main,2022.1.1,61.167391939438424,
positive,yellow,2,None,k,,,,,,,,,0,5,5,5,,,,,,,,,,,,,,,,,main,k,k,1,2.6685281998943537,271.2282469999045,None,None,0,,,,,,,,,,,,,,033,2022-05-30_20h12.29.945,Main,2022.1.1,61.167391939438424,
negative,blue,2,None,k,,,,,,,,,0,6,6,6,,,,,,,,,,,,,,,,,main,k,k,1,0.8179715999867767,275.9116438999772,None,None,0,,,,,,,,,,,,,,033,2022-05-30_20h12.29.945,Main,2022.1.1,61.167391939438424,
positive,red,2,None,None,,,,,,,,,0,7,7,7,,,,,,,,,,,,,,,,,main,None,None,1,1.50085059995763,277.728114400059,None,None,1,,,,,,,,,,,,,,033,2022-05-30_20h12.29.945,Main,2022.1.1,61.167391939438424,
positive,yellow,1,None,k,,,,,,,,,0,8,8,8,,,,,,,,,,,,,,,,,main,k,k,1,0.7134193000383675,280.2307366998866,None,None,0,,,,,,,,,,,,,,033,2022-05-30_20h12.29.945,Main,2022.1.1,61.167391939438424,
negative,red,1,None,None,,,,,,,,,0,9,9,9,,,,,,,,,,,,,,,,,main,None,None,1,1.5014259000308812,281.94461119989865,None,None,1,,,,,,,,,,,,,,033,2022-05-30_20h12.29.945,Main,2022.1.1,61.167391939438424,
positive,yellow,1,None,k,,,,,,,,,0,10,10,10,,,,,,,,,,,,,,,,,main,k,k,1,1.2688247000332922,284.44728689990006,None,None,0,,,,,,,,,,,,,,033,2022-05-30_20h12.29.945,Main,2022.1.1,61.167391939438424,
negative,yellow,1,k,None,,,,,,,,,0,11,11,11,,,,,,,,,,,,,,,,,main,None,None,1,1.494606199907139,286.7086318999063,None,None,1,,,,,,,,,,,,,,033,2022-05-30_20h12.29.945,Main,2022.1.1,61.167391939438424,
negative,yellow,1,k,None,,,,,,,,,0,12,12,12,,,,,,,,,,,,,,,,,main,None,None,1,1.5004041998181492,289.2112044999376,None,None,1,,,,,,,,,,,,,,033,2022-05-30_20h12.29.945,Main,2022.1.1,61.167391939438424,
negative,red,2,None,None,,,,,,,,,0,13,13,13,,,,,,,,,,,,,,,,,main,None,None,1,1.4972186000086367,291.7138340000529,None,None,1,,,,,,,,,,,,,,033,2022-05-30_20h12.29.945,Main,2022.1.1,61.167391939438424,
positive,yellow,2,None,k,,,,,,,,,0,14,14,14,,,,,,,,,,,,,,,,,main,k,k,1,0.6815194000955671,294.2110454000067,None,None,0,,,,,,,,,,,,,,033,2022-05-30_20h12.29.945,Main,2022.1.1,61.167391939438424,
positive,blue,1,k,None,,,,,,,,,0,15,15,15,,,,,,,,,,,,,,,,,main,None,None,1,1.5015518998261541,295.8944057999179,None,None,1,,,,,,,,,,,,,,033,2022-05-30_20h12.29.945,Main,2022.1.1,61.167391939438424,
negative,blue,1,None,k,,,,,,,,,0,16,16,16,,,,,,,,,,,,,,,,,main,k,k,1,0.6632605998311192,298.3970377999358,None,None,0,,,,,,,,,,,,,,033,2022-05-30_20h12.29.945,Main,2022.1.1,61.167391939438424,
positive,blue,2,k,None,,,,,,,,,0,17,17,17,,,,,,,,,,,,,,,,,main,None,None,1,1.501527399988845,300.0611459000502,None,None,1,,,,,,,,,,,,,,033,2022-05-30_20h12.29.945,Main,2022.1.1,61.167391939438424,
negative,blue,2,None,k,,,,,,,,,0,18,18,18,,,,,,,,,,,,,,,,,main,k,k,1,0.8327295000199229,302.5636148999911,None,None,0,,,,,,,,,,,,,,033,2022-05-30_20h12.29.945,Main,2022.1.1,61.167391939438424,
negative,blue,1,None,k,,,,,,,,,0,19,19,19,,,,,,,,,,,,,,,,,main,k,k,1,0.9131396000739187,304.3969159000553,None,None,0,,,,,,,,,,,,,,033,2022-05-30_20h12.29.945,Main,2022.1.1,61.167391939438424,
negative,blue,1,None,k,,,,,,,,,0,20,20,20,,,,,,,,,,,,,,,,,main,k,k,1,0.7671457000542432,306.3107831000816,None,None,0,,,,,,,,,,,,,,033,2022-05-30_20h12.29.945,Main,2022.1.1,61.167391939438424,
negative,blue,2,None,k,,,,,,,,,0,21,21,21,,,,,,,,,,,,,,,,,main,k,k,1,0.6836892999708652,308.0802335999906,None,None,0,,,,,,,,,,,,,,033,2022-05-30_20h12.29.945,Main,2022.1.1,61.167391939438424,
negative,red,1,None,None,,,,,,,,,0,22,22,22,,,,,,,,,,,,,,,,,main,None,None,1,1.4970448999665678,309.76345540001057,None,None,1,,,,,,,,,,,,,,033,2022-05-30_20h12.29.945,Main,2022.1.1,61.167391939438424,
positive,red,2,None,None,,,,,,,,,0,23,23,23,,,,,,,,,,,,,,,,,main,None,None,1,1.500493099913001,312.2607237000484,None,None,1,,,,,,,,,,,,,,033,2022-05-30_20h12.29.945,Main,2022.1.1,61.167391939438424,
negative,red,2,None,None,,,,,,,,,0,24,24,24,,,,,,,,,,,,,,,,,main,None,None,1,1.4994085000362247,314.763350199908,None,None,1,,,,,,,,,,,,,,033,2022-05-30_20h12.29.945,Main,2022.1.1,61.167391939438424,
positive,blue,2,k,None,,,,,,,,,0,25,25,25,,,,,,,,,,,,,,,,,main,None,None,1,1.4972168998792768,317.2633313999977,None,None,1,,,,,,,,,,,,,,033,2022-05-30_20h12.29.945,Main,2022.1.1,61.167391939438424,
negative,yellow,1,k,None,,,,,,,,,0,26,26,26,,,,,,,,,,,,,,,,,main,None,None,1,1.5004688000772148,319.76061280001886,None,None,1,,,,,,,,,,,,,,033,2022-05-30_20h12.29.945,Main,2022.1.1,61.167391939438424,
positive,blue,2,k,None,,,,,,,,,0,27,27,27,,,,,,,,,,,,,,,,,main,None,None,1,1.497228000080213,322.2632420998998,None,None,1,,,,,,,,,,,,,,033,2022-05-30_20h12.29.945,Main,2022.1.1,61.167391939438424,
negative,blue,2,None,k,,,,,,,,,0,28,28,28,,,,,,,,,,,,,,,,,main,k,k,1,1.2174730999395251,324.7606283999048,None,None,0,,,,,,,,,,,,,,033,2022-05-30_20h12.29.945,Main,2022.1.1,61.167391939438424,
positive,red,1,None,None,,,,,,,,,0,29,29,29,,,,,,,,,,,,,,,,,main,None,None,1,1.4989751998800784,326.9798276000656,None,None,1,,,,,,,,,,,,,,033,2022-05-30_20h12.29.945,Main,2022.1.1,61.167391939438424,
positive,blue,1,k,None,,,,,,,,,0,30,30,30,,,,,,,,,,,,,,,,,main,None,None,1,1.4971825000829995,329.4797449999023,None,None,1,,,,,,,,,,,,,,033,2022-05-30_20h12.29.945,Main,2022.1.1,61.167391939438424,
positive,yellow,1,None,k,,,,,,,,,0,31,31,31,,,,,,,,,,,,,,,,,main,k,k,1,0.6483933001291007,331.9769049999304,None,None,0,,,,,,,,,,,,,,033,2022-05-30_20h12.29.945,Main,2022.1.1,61.167391939438424,
negative,yellow,2,k,None,,,,,,,,,0,32,32,32,,,,,,,,,,,,,,,,,main,None,None,1,1.501266400096938,333.62962200003676,None,None,1,,,,,,,,,,,,,,033,2022-05-30_20h12.29.945,Main,2022.1.1,61.167391939438424,
negative,blue,1,None,k,,,,,,,,,0,33,33,33,,,,,,,,,,,,,,,,,main,k,k,1,0.8141276999376714,336.12958050007,None,None,0,,,,,,,,,,,,,,033,2022-05-30_20h12.29.945,Main,2022.1.1,61.167391939438424,
positive,blue,1,k,None,,,,,,,,,0,34,34,34,,,,,,,,,,,,,,,,,main,None,None,1,1.5001818998716772,337.94347000005655,None,None,1,,,,,,,,,,,,,,033,2022-05-30_20h12.29.945,Main,2022.1.1,61.167391939438424,
negative,yellow,1,k,None,,,,,,,,,0,35,35,35,,,,,,,,,,,,,,,,,main,None,None,1,1.4967957998160273,340.4461546000093,None,None,1,,,,,,,,,,,,,,033,2022-05-30_20h12.29.945,Main,2022.1.1,61.167391939438424,
positive,yellow,2,None,k,,,,,,,,,0,36,36,36,,,,,,,,,,,,,,,,,main,k,k,1,0.6995421000756323,342.9434285000898,None,None,0,,,,,,,,,,,,,,033,2022-05-30_20h12.29.945,Main,2022.1.1,61.167391939438424,
positive,yellow,2,None,k,,,,,,,,,0,37,37,37,,,,,,,,,,,,,,,,,main,k,k,1,0.9149943999946117,344.6435958999209,None,None,0,,,,,,,,,,,,,,033,2022-05-30_20h12.29.945,Main,2022.1.1,61.167391939438424,
negative,yellow,2,k,None,,,,,,,,,0,38,38,38,,,,,,,,,,,,,,,,,main,None,None,1,1.5016555998008698,346.55994779989123,None,None,1,,,,,,,,,,,,,,033,2022-05-30_20h12.29.945,Main,2022.1.1,61.167391939438424,
positive,yellow,1,None,k,,,,,,,,,0,39,39,39,,,,,,,,,,,,,,,,,main,k,k,1,0.6326437001116574,349.06267510005273,None,None,0,,,,,,,,,,,,,,033,2022-05-30_20h12.29.945,Main,2022.1.1,61.167391939438424,
negative,yellow,2,k,None,,,,,,,,,0,40,40,40,,,,,,,,,,,,,,,,,main,None,None,1,1.4971914000343531,350.6959778999444,None,None,1,,,,,,,,,,,,,,033,2022-05-30_20h12.29.945,Main,2022.1.1,61.167391939438424,
positive,blue,2,k,None,,,,,,,,,0,41,41,41,,,,,,,,,,,,,,,,,main,None,None,1,1.5004652000498027,353.1931996999774,None,None,1,,,,,,,,,,,,,,033,2022-05-30_20h12.29.945,Main,2022.1.1,61.167391939438424,
positive,blue,2,k,None,,,,,,,,,0,42,42,42,,,,,,,,,,,,,,,,,main,None,None,1,1.4973140999209136,355.69584119995125,None,None,1,,,,,,,,,,,,,,033,2022-05-30_20h12.29.945,Main,2022.1.1,61.167391939438424,
negative,blue,2,None,k,,,,,,,,,0,43,43,43,,,,,,,,,,,,,,,,,main,k,k,1,0.6982589000836015,358.1930438000709,None,None,0,,,,,,,,,,,,,,033,2022-05-30_20h12.29.945,Main,2022.1.1,61.167391939438424,
negative,red,1,None,None,,,,,,,,,0,44,44,44,,,,,,,,,,,,,,,,,main,None,None,1,1.5012474001850933,359.8930826999713,None,None,1,,,,,,,,,,,,,,033,2022-05-30_20h12.29.945,Main,2022.1.1,61.167391939438424,
negative,yellow,1,k,None,,,,,,,,,0,45,45,45,,,,,,,,,,,,,,,,,main,None,None,1,1.4991361000575125,362.39570909994654,None,None,1,,,,,,,,,,,,,,033,2022-05-30_20h12.29.945,Main,2022.1.1,61.167391939438424,
negative,yellow,1,k,None,,,,,,,,,0,46,46,46,,,,,,,,,,,,,,,,,main,None,None,1,1.4965576999820769,364.89319289987907,None,None,1,,,,,,,,,,,,,,033,2022-05-30_20h12.29.945,Main,2022.1.1,61.167391939438424,
positive,red,1,None,None,,,,,,,,,0,47,47,47,,,,,,,,,,,,,,,,,main,None,None,1,1.5023157999385148,367.39285920001566,None,None,1,,,,,,,,,,,,,,033,2022-05-30_20h12.29.945,Main,2022.1.1,61.167391939438424,
positive,yellow,1,None,k,,,,,,,,,0,48,48,48,,,,,,,,,,,,,,,,,main,k,k,1,1.2155708000063896,369.89559060009196,None,None,0,,,,,,,,,,,,,,033,2022-05-30_20h12.29.945,Main,2022.1.1,61.167391939438424,
negative,blue,1,None,k,,,,,,,,,0,49,49,49,,,,,,,,,,,,,,,,,main,k,k,1,1.0973147999029607,372.1121912000235,None,None,0,,,,,,,,,,,,,,033,2022-05-30_20h12.29.945,Main,2022.1.1,61.167391939438424,
positive,yellow,2,None,k,,,,,,,,,0,50,50,50,,,,,,,,,,,,,,,,,main,k,k,1,1.7177814999595284,374.2096176999621,None,None,0,,,,,,,,,,,,,,033,2022-05-30_20h12.29.945,Main,2022.1.1,61.167391939438424,
negative,blue,1,None,k,,,,,,,,,0,51,51,51,,,,,,,,,,,,,,,,,main,k,k,1,0.7649307998362929,377.92874150001444,None,None,0,,,,,,,,,,,,,,033,2022-05-30_20h12.29.945,Main,2022.1.1,61.167391939438424,
positive,red,2,None,None,,,,,,,,,0,52,52,52,,,,,,,,,,,,,,,,,main,None,None,1,1.501286700135097,379.69262450002134,None,None,1,,,,,,,,,,,,,,033,2022-05-30_20h12.29.945,Main,2022.1.1,61.167391939438424,
positive,yellow,2,None,k,,,,,,,,,0,53,53,53,,,,,,,,,,,,,,,,,main,k,k,1,0.599344699876383,382.1952786000911,None,None,0,,,,,,,,,,,,,,033,2022-05-30_20h12.29.945,Main,2022.1.1,61.167391939438424,
negative,red,2,None,None,,,,,,,,,0,54,54,54,,,,,,,,,,,,,,,,,main,None,None,1,1.4972608999814838,383.79525289987214,None,None,1,,,,,,,,,,,,,,033,2022-05-30_20h12.29.945,Main,2022.1.1,61.167391939438424,
positive,yellow,1,None,k,,,,,,,,,0,55,55,55,,,,,,,,,,,,,,,,,main,k,k,1,1.3651781999506056,386.2924834000878,None,None,0,,,,,,,,,,,,,,033,2022-05-30_20h12.29.945,Main,2022.1.1,61.167391939438424,
negative,blue,2,None,k,,,,,,,,,0,56,56,56,,,,,,,,,,,,,,,,,main,k,k,1,0.6681162000168115,388.6618035000283,None,None,0,,,,,,,,,,,,,,033,2022-05-30_20h12.29.945,Main,2022.1.1,61.167391939438424,
positive,blue,1,k,None,,,,,,,,,0,57,57,57,,,,,,,,,,,,,,,,,main,None,None,1,1.4960735000204295,390.32848890009336,None,None,1,,,,,,,,,,,,,,033,2022-05-30_20h12.29.945,Main,2022.1.1,61.167391939438424,
positive,blue,1,k,None,,,,,,,,,0,58,58,58,,,,,,,,,,,,,,,,,main,None,None,1,1.4991137001197785,392.8258990999311,None,None,1,,,,,,,,,,,,,,033,2022-05-30_20h12.29.945,Main,2022.1.1,61.167391939438424,
negative,yellow,2,k,None,,,,,,,,,0,59,59,59,,,,,,,,,,,,,,,,,main,None,None,1,1.4998206000309438,395.3283736000303,None,None,1,,,,,,,,,,,,,,033,2022-05-30_20h12.29.945,Main,2022.1.1,61.167391939438424,
positive,red,2,None,None,,,,,,,,,0,60,60,60,,,,,,,,,,,,,,,,,main,None,None,1,1.4989551999606192,397.82872590003535,None,None,1,,,,,,,,,,,,,,033,2022-05-30_20h12.29.945,Main,2022.1.1,61.167391939438424,
negative,yellow,1,k,None,,,,,,,,,0,61,61,61,,,,,,,,,,,,,,,,,main,None,None,1,1.500442999880761,400.32557250000536,None,None,1,,,,,,,,,,,,,,033,2022-05-30_20h12.29.945,Main,2022.1.1,61.167391939438424,
negative,red,1,None,None,,,,,,,,,0,62,62,62,,,,,,,,,,,,,,,,,main,None,None,1,1.4991774000227451,402.8281982000917,None,None,1,,,,,,,,,,,,,,033,2022-05-30_20h12.29.945,Main,2022.1.1,61.167391939438424,
negative,blue,1,None,k,,,,,,,,,0,63,63,63,,,,,,,,,,,,,,,,,main,k,k,1,0.8464643999468535,405.3281795999501,None,None,0,,,,,,,,,,,,,,033,2022-05-30_20h12.29.945,Main,2022.1.1,61.167391939438424,
positive,blue,2,k,None,,,,,,,,,0,64,64,64,,,,,,,,,,,,,,,,,main,None,None,1,1.5016603998374194,407.1753829999361,None,None,1,,,,,,,,,,,,,,033,2022-05-30_20h12.29.945,Main,2022.1.1,61.167391939438424,
negative,yellow,2,k,None,,,,,,,,,0,65,65,65,,,,,,,,,,,,,,,,,main,None,None,1,1.4991762000136077,409.67809569998644,None,None,1,,,,,,,,,,,,,,033,2022-05-30_20h12.29.945,Main,2022.1.1,61.167391939438424,
positive,yellow,2,None,k,,,,,,,,,0,66,66,66,,,,,,,,,,,,,,,,,main,k,k,1,0.6809068999718875,412.17593850009143,None,None,0,,,,,,,,,,,,,,033,2022-05-30_20h12.29.945,Main,2022.1.1,61.167391939438424,
positive,yellow,2,None,k,,,,,,,,,0,67,67,67,,,,,,,,,,,,,,,,,main,k,k,1,0.7835723999887705,413.85855960007757,None,None,0,,,,,,,,,,,,,,033,2022-05-30_20h12.29.945,Main,2022.1.1,61.167391939438424,
positive,red,1,None,None,,,,,,,,,0,68,68,68,,,,,,,,,,,,,,,,,main,None,None,1,1.498930900124833,415.6446106999647,None,None,1,,,,,,,,,,,,,,033,2022-05-30_20h12.29.945,Main,2022.1.1,61.167391939438424,
positive,yellow,1,None,k,,,,,,,,,0,69,69,69,,,,,,,,,,,,,,,,,main,k,k,1,0.7631361000239849,418.144569600001,None,None,0,,,,,,,,,,,,,,033,2022-05-30_20h12.29.945,Main,2022.1.1,61.167391939438424,
negative,yellow,2,k,None,,,,,,,,,0,70,70,70,,,,,,,,,,,,,,,,,main,None,None,1,1.501628699945286,419.90870340005495,None,None,1,,,,,,,,,,,,,,033,2022-05-30_20h12.29.945,Main,2022.1.1,61.167391939438424,
positive,yellow,1,None,k,,,,,,,,,0,71,71,71,,,,,,,,,,,,,,,,,main,k,k,1,0.7326475000008941,422.4111351999454,None,None,0,,,,,,,,,,,,,,033,2022-05-30_20h12.29.945,Main,2022.1.1,61.167391939438424,
negative,blue,1,None,k,,,,,,,,,0,72,72,72,,,,,,,,,,,,,,,,,main,k,k,1,0.8655135000590235,424.14444010006264,None,None,0,,,,,,,,,,,,,,033,2022-05-30_20h12.29.945,Main,2022.1.1,61.167391939438424,
negative,red,2,None,None,,,,,,,,,0,73,73,73,,,,,,,,,,,,,,,,,main,None,None,1,1.498662899946794,426.0083852999378,None,None,1,,,,,,,,,,,,,,033,2022-05-30_20h12.29.945,Main,2022.1.1,61.167391939438424,
positive,blue,2,k,None,,,,,,,,,0,74,74,74,,,,,,,,,,,,,,,,,main,None,None,1,1.4972026001196355,428.51102289999835,None,None,1,,,,,,,,,,,,,,033,2022-05-30_20h12.29.945,Main,2022.1.1,61.167391939438424,
negative,blue,2,None,k,,,,,,,,,0,75,75,75,,,,,,,,,,,,,,,,,main,k,k,1,1.615292000118643,431.00861719995737,None,None,0,,,,,,,,,,,,,,033,2022-05-30_20h12.29.945,Main,2022.1.1,61.167391939438424,
negative,blue,2,None,k,,,,,,,,,0,76,76,76,,,,,,,,,,,,,,,,,main,k,k,1,0.6678065999876708,434.62754569994286,None,None,0,,,,,,,,,,,,,,033,2022-05-30_20h12.29.945,Main,2022.1.1,61.167391939438424,
negative,yellow,1,k,None,,,,,,,,,0,77,77,77,,,,,,,,,,,,,,,,,main,None,None,1,1.496666599996388,436.2941995000001,None,None,1,,,,,,,,,,,,,,033,2022-05-30_20h12.29.945,Main,2022.1.1,61.167391939438424,
positive,blue,1,k,None,,,,,,,,,0,78,78,78,,,,,,,,,,,,,,,,,main,None,None,1,1.5004649998154491,438.79144709999673,None,None,1,,,,,,,,,,,,,,033,2022-05-30_20h12.29.945,Main,2022.1.1,61.167391939438424,
positive,blue,1,k,None,,,,,,,,,0,79,79,79,,,,,,,,,,,,,,,,,main,None,None,1,1.4965280999895185,441.2940694000572,None,None,1,,,,,,,,,,,,,,033,2022-05-30_20h12.29.945,Main,2022.1.1,61.167391939438424,
positive,red,2,None,None,,,,,,,,,0,80,80,80,,,,,,,,,,,,,,,,,main,None,None,1,1.5015345998108387,443.7913027999457,None,None,1,,,,,,,,,,,,,,033,2022-05-30_20h12.29.945,Main,2022.1.1,61.167391939438424,
positive,yellow,2,None,k,,,,,,,,,0,81,81,81,,,,,,,,,,,,,,,,,main,k,k,1,1.230284599820152,446.29398850002326,None,None,0,,,,,,,,,,,,,,033,2022-05-30_20h12.29.945,Main,2022.1.1,61.167391939438424,
positive,blue,1,k,None,,,,,,,,,0,82,82,82,,,,,,,,,,,,,,,,,main,None,None,1,1.4986292000394315,448.53052909998223,None,None,1,,,,,,,,,,,,,,033,2022-05-30_20h12.29.945,Main,2022.1.1,61.167391939438424,
negative,yellow,2,k,None,,,,,,,,,0,83,83,83,,,,,,,,,,,,,,,,,main,None,None,1,1.5017033000476658,451.024527200032,None,None,1,,,,,,,,,,,,,,033,2022-05-30_20h12.29.945,Main,2022.1.1,61.167391939438424,
positive,blue,2,k,None,,,,,,,,,0,84,84,84,,,,,,,,,,,,,,,,,main,None,None,1,1.4968209001235664,453.52717359992675,None,None,1,,,,,,,,,,,,,,033,2022-05-30_20h12.29.945,Main,2022.1.1,61.167391939438424,
positive,yellow,1,None,k,,,,,,,,,0,85,85,85,,,,,,,,,,,,,,,,,main,k,k,1,0.6333464998751879,456.0250995999668,None,None,0,,,,,,,,,,,,,,033,2022-05-30_20h12.29.945,Main,2022.1.1,61.167391939438424,
positive,blue,2,k,None,,,,,,,,,0,86,86,86,,,,,,,,,,,,,,,,,main,None,None,1,1.5001839001197368,457.6576610999182,None,None,1,,,,,,,,,,,,,,033,2022-05-30_20h12.29.945,Main,2022.1.1,61.167391939438424,
positive,blue,1,k,None,,,,,,,,,0,87,87,87,,,,,,,,,,,,,,,,,main,None,None,1,1.4988343000877649,460.1603540999349,None,None,1,,,,,,,,,,,,,,033,2022-05-30_20h12.29.945,Main,2022.1.1,61.167391939438424,
negative,yellow,2,k,None,,,,,,,,,0,88,88,88,,,,,,,,,,,,,,,,,main,None,None,1,1.4975185999646783,462.66031489986926,None,None,1,,,,,,,,,,,,,,033,2022-05-30_20h12.29.945,Main,2022.1.1,61.167391939438424,
negative,blue,2,None,k,,,,,,,,,0,89,89,89,,,,,,,,,,,,,,,,,main,k,k,1,1.417446400038898,465.15755019988865,None,None,0,,,,,,,,,,,,,,033,2022-05-30_20h12.29.945,Main,2022.1.1,61.167391939438424,
positive,yellow,2,None,k,,,,,,,,,0,90,90,90,,,,,,,,,,,,,,,,,main,k,k,1,0.7134828001726419,467.5768877000082,None,None,0,,,,,,,,,,,,,,033,2022-05-30_20h12.29.945,Main,2022.1.1,61.167391939438424,
negative,yellow,1,k,None,,,,,,,,,0,91,91,91,,,,,,,,,,,,,,,,,main,None,None,1,1.4995773998089135,469.2935357000679,None,None,1,,,,,,,,,,,,,,033,2022-05-30_20h12.29.945,Main,2022.1.1,61.167391939438424,
negative,red,2,None,None,,,,,,,,,0,92,92,92,,,,,,,,,,,,,,,,,main,None,None,1,1.5002715999726206,471.79076400003396,None,None,1,,,,,,,,,,,,,,033,2022-05-30_20h12.29.945,Main,2022.1.1,61.167391939438424,
negative,blue,2,None,k,,,,,,,,,0,93,93,93,,,,,,,,,,,,,,,,,main,k,k,1,0.5190565998200327,474.29336600005627,None,None,0,,,,,,,,,,,,,,033,2022-05-30_20h12.29.945,Main,2022.1.1,61.167391939438424,
negative,blue,1,None,k,,,,,,,,,0,94,94,94,,,,,,,,,,,,,,,,,main,k,k,1,0.7772095000836998,475.81142299994826,None,None,0,,,,,,,,,,,,,,033,2022-05-30_20h12.29.945,Main,2022.1.1,61.167391939438424,
negative,blue,1,None,k,,,,,,,,,0,95,95,95,,,,,,,,,,,,,,,,,main,k,k,1,0.6319013999309391,477.5908655000385,None,None,0,,,,,,,,,,,,,,033,2022-05-30_20h12.29.945,Main,2022.1.1,61.167391939438424,
negative,red,1,None,None,,,,,,,,,0,96,96,96,,,,,,,,,,,,,,,,,main,None,None,1,1.501842699944973,479.22388900001533,None,None,1,,,,,,,,,,,,,,033,2022-05-30_20h12.29.945,Main,2022.1.1,61.167391939438424,
positive,yellow,1,None,k,,,,,,,,,0,97,97,97,,,,,,,,,,,,,,,,,main,k,k,1,0.716061299899593,481.72662599990144,None,None,0,,,,,,,,,,,,,,033,2022-05-30_20h12.29.945,Main,2022.1.1,61.167391939438424,
negative,yellow,1,k,None,,,,,,,,,0,98,98,98,,,,,,,,,,,,,,,,,main,None,None,1,1.4981158999726176,483.4432252999395,None,None,1,,,,,,,,,,,,,,033,2022-05-30_20h12.29.945,Main,2022.1.1,61.167391939438424,
positive,red,1,None,None,,,,,,,,,0,99,99,99,,,,,,,,,,,,,,,,,main,None,None,1,1.4993584000039846,485.9404114000499,None,None,1,,,,,,,,,,,,,,033,2022-05-30_20h12.29.945,Main,2022.1.1,61.167391939438424,
positive,blue,1,k,None,,,,,,,,,0,100,100,100,,,,,,,,,,,,,,,,,main,None,None,1,1.5024070001672953,488.44312429986894,None,None,1,,,,,,,,,,,,,,033,2022-05-30_20h12.29.945,Main,2022.1.1,61.167391939438424,
negative,yellow,1,k,None,,,,,,,,,0,101,101,101,,,,,,,,,,,,,,,,,main,None,None,1,1.4958234999794513,490.94429949996993,None,None,1,,,,,,,,,,,,,,033,2022-05-30_20h12.29.945,Main,2022.1.1,61.167391939438424,
negative,blue,2,None,k,,,,,,,,,0,102,102,102,,,,,,,,,,,,,,,,,main,k,k,1,0.6661741000134498,493.44298609998077,None,None,0,,,,,,,,,,,,,,033,2022-05-30_20h12.29.945,Main,2022.1.1,61.167391939438424,
negative,yellow,2,k,None,,,,,,,,,0,103,103,103,,,,,,,,,,,,,,,,,main,None,None,1,1.4963047001510859,495.1096542000305,None,None,1,,,,,,,,,,,,,,033,2022-05-30_20h12.29.945,Main,2022.1.1,61.167391939438424,
positive,yellow,2,None,k,,,,,,,,,0,104,104,104,,,,,,,,,,,,,,,,,main,k,k,1,0.7326766001060605,497.60712369997054,None,None,0,,,,,,,,,,,,,,033,2022-05-30_20h12.29.945,Main,2022.1.1,61.167391939438424,
positive,blue,1,k,None,,,,,,,,,0,105,105,105,,,,,,,,,,,,,,,,,main,None,None,1,1.499399600084871,499.34014240000397,None,None,1,,,,,,,,,,,,,,033,2022-05-30_20h12.29.945,Main,2022.1.1,61.167391939438424,
positive,blue,2,k,None,,,,,,,,,0,106,106,106,,,,,,,,,,,,,,,,,main,None,None,1,1.50128070008941,501.84019450005144,None,None,1,,,,,,,,,,,,,,033,2022-05-30_20h12.29.945,Main,2022.1.1,61.167391939438424,
negative,blue,1,None,k,,,,,,,,,0,107,107,107,,,,,,,,,,,,,,,,,main,k,k,1,0.7306741001084447,504.3427929999307,None,None,0,,,,,,,,,,,,,,033,2022-05-30_20h12.29.945,Main,2022.1.1,61.167391939438424,
positive,yellow,2,None,k,,,,,,,,,0,108,108,108,,,,,,,,,,,,,,,,,main,k,k,1,0.7983502999413759,506.073991100071,None,None,0,,,,,,,,,,,,,,033,2022-05-30_20h12.29.945,Main,2022.1.1,61.167391939438424,
negative,yellow,1,k,None,,,,,,,,,0,109,109,109,,,,,,,,,,,,,,,,,main,None,None,1,1.5018794001080096,507.87352479994297,None,None,1,,,,,,,,,,,,,,033,2022-05-30_20h12.29.945,Main,2022.1.1,61.167391939438424,
negative,blue,2,None,k,,,,,,,,,0,110,110,110,,,,,,,,,,,,,,,,,main,k,k,1,0.7491665000561625,510.3760629000608,None,None,0,,,,,,,,,,,,,,033,2022-05-30_20h12.29.945,Main,2022.1.1,61.167391939438424,
positive,blue,2,k,None,,,,,,,,,0,111,111,111,,,,,,,,,,,,,,,,,main,None,None,1,1.4959335001185536,512.1259600999765,None,None,1,,,,,,,,,,,,,,033,2022-05-30_20h12.29.945,Main,2022.1.1,61.167391939438424,
negative,blue,1,None,k,,,,,,,,,0,112,112,112,,,,,,,,,,,,,,,,,main,k,k,1,0.7671779999509454,514.623390099965,None,None,0,,,,,,,,,,,,,,033,2022-05-30_20h12.29.945,Main,2022.1.1,61.167391939438424,
positive,yellow,1,None,k,,,,,,,,,0,113,113,113,,,,,,,,,,,,,,,,,main,k,k,1,0.7841606999281794,516.3898378999438,None,None,0,,,,,,,,,,,,,,033,2022-05-30_20h12.29.945,Main,2022.1.1,61.167391939438424,
negative,red,1,None,None,,,,,,,,,0,114,114,114,,,,,,,,,,,,,,,,,main,None,None,1,1.4985609001014382,518.1758373000193,None,None,1,,,,,,,,,,,,,,033,2022-05-30_20h12.29.945,Main,2022.1.1,61.167391939438424,
positive,red,1,None,None,,,,,,,,,0,115,115,115,,,,,,,,,,,,,,,,,main,None,None,1,1.4974928998854011,520.6733224999625,None,None,1,,,,,,,,,,,,,,033,2022-05-30_20h12.29.945,Main,2022.1.1,61.167391939438424,
negative,red,2,None,None,,,,,,,,,0,116,116,116,,,,,,,,,,,,,,,,,main,None,None,1,1.5007579000666738,523.1731487000361,None,None,1,,,,,,,,,,,,,,033,2022-05-30_20h12.29.945,Main,2022.1.1,61.167391939438424,
negative,yellow,2,k,None,,,,,,,,,0,117,117,117,,,,,,,,,,,,,,,,,main,None,None,1,1.4990898999385536,525.6756738999393,None,None,1,,,,,,,,,,,,,,033,2022-05-30_20h12.29.945,Main,2022.1.1,61.167391939438424,
positive,yellow,1,None,k,,,,,,,,,0,118,118,118,,,,,,,,,,,,,,,,,main,k,k,1,0.696457999991253,528.175940999994,None,None,0,,,,,,,,,,,,,,033,2022-05-30_20h12.29.945,Main,2022.1.1,61.167391939438424,
positive,red,2,None,None,,,,,,,,,0,119,119,119,,,,,,,,,,,,,,,,,main,None,None,1,1.5018933000974357,529.8728382999543,None,None,1,,,,,,,,,,,,,,033,2022-05-30_20h12.29.945,Main,2022.1.1,61.167391939438424,
positive,blue,2,k,None,,,,,,,,,0,120,120,120,,,,,,,,,,,,,,,,,main,None,None,1,1.4990594000555575,532.3755431000609,None,None,1,,,,,,,,,,,,,,033,2022-05-30_20h12.29.945,Main,2022.1.1,61.167391939438424,
negative,red,1,None,None,,,,,,,,,0,121,121,121,,,,,,,,,,,,,,,,,main,None,None,1,1.4971501999534667,534.8734166000504,None,None,1,,,,,,,,,,,,,,033,2022-05-30_20h12.29.945,Main,2022.1.1,61.167391939438424,
positive,yellow,2,None,k,,,,,,,,,0,122,122,122,,,,,,,,,,,,,,,,,main,k,k,1,2.0508312999736518,537.372684800066,None,None,0,,,,,,,,,,,,,,033,2022-05-30_20h12.29.945,Main,2022.1.1,61.167391939438424,
negative,red,2,None,None,,,,,,,,,0,123,123,123,,,,,,,,,,,,,,,,,main,None,None,1,1.4983445999678224,541.4253545000684,None,None,1,,,,,,,,,,,,,,033,2022-05-30_20h12.29.945,Main,2022.1.1,61.167391939438424,
negative,yellow,2,k,None,,,,,,,,,0,124,124,124,,,,,,,,,,,,,,,,,main,None,None,1,1.5006399000994861,543.9225605998654,None,None,1,,,,,,,,,,,,,,033,2022-05-30_20h12.29.945,Main,2022.1.1,61.167391939438424,
positive,red,1,None,None,,,,,,,,,0,125,125,125,,,,,,,,,,,,,,,,,main,None,None,1,1.4993371998425573,546.4252168000676,None,None,1,,,,,,,,,,,,,,033,2022-05-30_20h12.29.945,Main,2022.1.1,61.167391939438424,
negative,blue,2,None,k,,,,,,,,,0,126,126,126,,,,,,,,,,,,,,,,,main,k,k,1,1.7135684001259506,548.9252056998666,None,None,0,,,,,,,,,,,,,,033,2022-05-30_20h12.29.945,Main,2022.1.1,61.167391939438424,
negative,blue,1,None,k,,,,,,,,,0,127,127,127,,,,,,,,,,,,,,,,,main,k,k,1,0.8675043000839651,552.6390307000838,None,None,0,,,,,,,,,,,,,,033,2022-05-30_20h12.29.945,Main,2022.1.1,61.167391939438424,
negative,yellow,1,k,None,,,,,,,,,0,128,128,128,,,,,,,,,,,,,,,,,main,None,None,1,1.5012102997861803,554.5057258999441,None,None,1,,,,,,,,,,,,,,033,2022-05-30_20h12.29.945,Main,2022.1.1,61.167391939438424,
negative,yellow,1,k,None,,,,,,,,,0,129,129,129,,,,,,,,,,,,,,,,,main,None,None,1,1.4972143000923097,557.0083673999179,None,None,1,,,,,,,,,,,,,,033,2022-05-30_20h12.29.945,Main,2022.1.1,61.167391939438424,
positive,blue,1,k,None,,,,,,,,,0,130,130,130,,,,,,,,,,,,,,,,,main,None,None,1,1.5006256999913603,559.5055972000118,None,None,1,,,,,,,,,,,,,,033,2022-05-30_20h12.29.945,Main,2022.1.1,61.167391939438424,
negative,blue,1,None,k,,,,,,,,,0,131,131,131,,,,,,,,,,,,,,,,,main,k,k,1,0.666074899956584,562.008242599899,None,None,0,,,,,,,,,,,,,,033,2022-05-30_20h12.29.945,Main,2022.1.1,61.167391939438424,
negative,blue,2,None,k,,,,,,,,,0,132,132,132,,,,,,,,,,,,,,,,,main,k,k,1,0.7456490001641214,563.6749167998787,None,None,0,,,,,,,,,,,,,,033,2022-05-30_20h12.29.945,Main,2022.1.1,61.167391939438424,
positive,blue,2,k,None,,,,,,,,,0,133,133,133,,,,,,,,,,,,,,,,,main,None,None,1,1.49863259983249,565.422405499965,None,None,1,,,,,,,,,,,,,,033,2022-05-30_20h12.29.945,Main,2022.1.1,61.167391939438424,
positive,red,2,None,None,,,,,,,,,0,134,134,134,,,,,,,,,,,,,,,,,main,None,None,1,1.5016375998966396,567.9224016000517,None,None,1,,,,,,,,,,,,,,033,2022-05-30_20h12.29.945,Main,2022.1.1,61.167391939438424,
negative,yellow,2,k,None,,,,,,,,,0,135,135,135,,,,,,,,,,,,,,,,,main,None,None,1,1.4993746001273394,570.4247467999812,None,None,1,,,,,,,,,,,,,,033,2022-05-30_20h12.29.945,Main,2022.1.1,61.167391939438424,
positive,yellow,2,None,k,,,,,,,,,0,136,136,136,,,,,,,,,,,,,,,,,main,k,k,1,1.696534600108862,572.9247254999354,None,None,0,,,,,,,,,,,,,,033,2022-05-30_20h12.29.945,Main,2022.1.1,61.167391939438424,
positive,blue,1,k,None,,,,,,,,,0,137,137,137,,,,,,,,,,,,,,,,,main,None,None,1,1.5013311000075191,576.6246215999126,None,None,1,,,,,,,,,,,,,,033,2022-05-30_20h12.29.945,Main,2022.1.1,61.167391939438424,
positive,yellow,1,None,k,,,,,,,,,0,138,138,138,,,,,,,,,,,,,,,,,main,k,k,1,0.9796180999837816,579.1248182000127,None,None,0,,,,,,,,,,,,,,033,2022-05-30_20h12.29.945,Main,2022.1.1,61.167391939438424,
positive,yellow,1,None,k,,,,,,,,,0,139,139,139,,,,,,,,,,,,,,,,,main,k,k,1,0.7490641998592764,581.1077459000517,None,None,0,,,,,,,,,,,,,,033,2022-05-30_20h12.29.945,Main,2022.1.1,61.167391939438424,
positive,yellow,1,None,k,,,,,,,,,0,140,140,140,,,,,,,,,,,,,,,,,main,k,k,1,0.8319754002150148,582.8556744998787,None,None,0,,,,,,,,,,,,,,033,2022-05-30_20h12.29.945,Main,2022.1.1,61.167391939438424,
positive,blue,1,k,None,,,,,,,,,0,141,141,141,,,,,,,,,,,,,,,,,main,None,None,1,1.5007229000329971,584.6886469000019,None,None,1,,,,,,,,,,,,,,033,2022-05-30_20h12.29.945,Main,2022.1.1,61.167391939438424,
positive,blue,2,k,None,,,,,,,,,0,142,142,142,,,,,,,,,,,,,,,,,main,None,None,1,1.497345699928701,587.1910309998784,None,None,1,,,,,,,,,,,,,,033,2022-05-30_20h12.29.945,Main,2022.1.1,61.167391939438424,
positive,yellow,2,None,k,,,,,,,,,0,143,143,143,,,,,,,,,,,,,,,,,main,k,k,1,0.9008830001112074,589.6882734999526,None,None,0,,,,,,,,,,,,,,033,2022-05-30_20h12.29.945,Main,2022.1.1,61.167391939438424,
negative,yellow,2,k,None,,,,,,,,,0,144,144,144,,,,,,,,,,,,,,,,,main,None,None,1,1.4992300998419523,591.5909603000619,None,None,1,,,,,,,,,,,,,,033,2022-05-30_20h12.29.945,Main,2022.1.1,61.167391939438424,
negative,blue,2,None,k,,,,,,,,,0,145,145,145,,,,,,,,,,,,,,,,,main,k,k,1,0.6798694999888539,594.090969099896,None,None,0,,,,,,,,,,,,,,033,2022-05-30_20h12.29.945,Main,2022.1.1,61.167391939438424,
negative,red,1,None,None,,,,,,,,,0,146,146,146,,,,,,,,,,,,,,,,,main,None,None,1,1.4993195999413729,595.7717541998718,None,None,1,,,,,,,,,,,,,,033,2022-05-30_20h12.29.945,Main,2022.1.1,61.167391939438424,
positive,blue,1,k,None,,,,,,,,,0,147,147,147,,,,,,,,,,,,,,,,,main,None,None,1,1.500945599982515,598.2714176999871,None,None,1,,,,,,,,,,,,,,033,2022-05-30_20h12.29.945,Main,2022.1.1,61.167391939438424,
positive,yellow,1,None,k,,,,,,,,,0,148,148,148,,,,,,,,,,,,,,,,,main,k,k,1,0.7995645001064986,600.7741399998777,None,None,0,,,,,,,,,,,,,,033,2022-05-30_20h12.29.945,Main,2022.1.1,61.167391939438424,
negative,red,2,None,None,,,,,,,,,0,149,149,149,,,,,,,,,,,,,,,,,main,None,None,1,1.496735000051558,602.5741113000549,None,None,1,,,,,,,,,,,,,,033,2022-05-30_20h12.29.945,Main,2022.1.1,61.167391939438424,
negative,blue,1,None,k,,,,,,,,,0,150,150,150,,,,,,,,,,,,,,,,,main,k,k,1,0.7676568999886513,605.0716218999587,None,None,0,,,,,,,,,,,,,,033,2022-05-30_20h12.29.945,Main,2022.1.1,61.167391939438424,
negative,yellow,2,k,None,,,,,,,,,0,151,151,151,,,,,,,,,,,,,,,,,main,None,None,1,1.4988133001606911,606.8406833000481,None,None,1,,,,,,,,,,,,,,033,2022-05-30_20h12.29.945,Main,2022.1.1,61.167391939438424,
negative,blue,2,None,k,,,,,,,,,0,152,152,152,,,,,,,,,,,,,,,,,main,k,k,1,0.7467888998799026,609.3406320000067,None,None,0,,,,,,,,,,,,,,033,2022-05-30_20h12.29.945,Main,2022.1.1,61.167391939438424,
negative,yellow,1,k,None,,,,,,,,,0,153,153,153,,,,,,,,,,,,,,,,,main,None,None,1,1.499466999899596,611.0881224998739,None,None,1,,,,,,,,,,,,,,033,2022-05-30_20h12.29.945,Main,2022.1.1,61.167391939438424,
negative,blue,1,None,k,,,,,,,,,0,154,154,154,,,,,,,,,,,,,,,,,main,k,k,1,0.9314091999549419,613.5877749999054,None,None,0,,,,,,,,,,,,,,033,2022-05-30_20h12.29.945,Main,2022.1.1,61.167391939438424,
positive,yellow,2,None,k,,,,,,,,,0,155,155,155,,,,,,,,,,,,,,,,,main,k,k,1,0.7685777000151575,615.5211306000128,None,None,0,,,,,,,,,,,,,,033,2022-05-30_20h12.29.945,Main,2022.1.1,61.167391939438424,
positive,red,2,None,None,,,,,,,,,0,156,156,156,,,,,,,,,,,,,,,,,main,None,None,1,1.4961136998608708,617.2904483999591,None,None,1,,,,,,,,,,,,,,033,2022-05-30_20h12.29.945,Main,2022.1.1,61.167391939438424,
positive,red,1,None,None,,,,,,,,,0,157,157,157,,,,,,,,,,,,,,,,,main,None,None,1,1.5000730999745429,619.7935017000418,None,None,1,,,,,,,,,,,,,,033,2022-05-30_20h12.29.945,Main,2022.1.1,61.167391939438424,
positive,blue,2,k,None,,,,,,,,,0,158,158,158,,,,,,,,,,,,,,,,,main,None,None,1,1.500335899880156,622.28766859998,None,None,1,,,,,,,,,,,,,,033,2022-05-30_20h12.29.945,Main,2022.1.1,61.167391939438424,
negative,yellow,1,k,None,,,,,,,,,0,159,159,159,,,,,,,,,,,,,,,,,main,None,None,1,1.4972429999615997,624.7903098999523,None,None,1,,,,,,,,,,,,,,033,2022-05-30_20h12.29.945,Main,2022.1.1,61.167391939438424,
negative,red,2,None,None,,,,,,,,,0,160,160,160,,,,,,,,,,,,,,,,,main,None,None,1,1.500570499803871,627.2875016999897,None,None,1,,,,,,,,,,,,,,033,2022-05-30_20h12.29.945,Main,2022.1.1,61.167391939438424,
negative,blue,1,None,k,,,,,,,,,0,161,161,161,,,,,,,,,,,,,,,,,main,k,k,1,1.796877299901098,629.7902154000476,None,None,0,,,,,,,,,,,,,,033,2022-05-30_20h12.29.945,Main,2022.1.1,61.167391939438424,
negative,blue,1,None,k,,,,,,,,,0,162,162,162,,,,,,,,,,,,,,,,,main,k,k,1,1.284643999999389,633.6041614999995,None,None,0,,,,,,,,,,,,,,033,2022-05-30_20h12.29.945,Main,2022.1.1,61.167391939438424,
negative,yellow,1,k,None,,,,,,,,,0,163,163,163,,,,,,,,,,,,,,,,,main,None,None,1,1.5002515998203307,635.8900568000972,None,None,1,,,,,,,,,,,,,,033,2022-05-30_20h12.29.945,Main,2022.1.1,61.167391939438424,
negative,yellow,1,k,None,,,,,,,,,0,164,164,164,,,,,,,,,,,,,,,,,main,None,None,1,1.4973018001765013,638.3899880999234,None,None,1,,,,,,,,,,,,,,033,2022-05-30_20h12.29.945,Main,2022.1.1,61.167391939438424,
positive,yellow,1,None,k,,,,,,,,,0,165,165,165,,,,,,,,,,,,,,,,,main,k,k,1,0.6985537000000477,640.8872227000538,None,None,0,,,,,,,,,,,,,,033,2022-05-30_20h12.29.945,Main,2022.1.1,61.167391939438424,
negative,red,1,None,None,,,,,,,,,0,166,166,166,,,,,,,,,,,,,,,,,main,None,None,1,1.498697099974379,642.5899231000803,None,None,1,,,,,,,,,,,,,,033,2022-05-30_20h12.29.945,Main,2022.1.1,61.167391939438424,
negative,yellow,2,k,None,,,,,,,,,0,167,167,167,,,,,,,,,,,,,,,,,main,None,None,1,1.5023187999613583,645.0929143999238,None,None,1,,,,,,,,,,,,,,033,2022-05-30_20h12.29.945,Main,2022.1.1,61.167391939438424,
positive,blue,2,k,None,,,,,,,,,0,168,168,168,,,,,,,,,,,,,,,,,main,None,None,1,1.4978625001385808,647.5898126000538,None,None,1,,,,,,,,,,,,,,033,2022-05-30_20h12.29.945,Main,2022.1.1,61.167391939438424,
positive,red,2,None,None,,,,,,,,,0,169,169,169,,,,,,,,,,,,,,,,,main,None,None,1,1.4990100001450628,650.0897609998938,None,None,1,,,,,,,,,,,,,,033,2022-05-30_20h12.29.945,Main,2022.1.1,61.167391939438424,
positive,red,1,None,None,,,,,,,,,0,170,170,170,,,,,,,,,,,,,,,,,main,None,None,1,1.4974843000527471,652.5872529998887,None,None,1,,,,,,,,,,,,,,033,2022-05-30_20h12.29.945,Main,2022.1.1,61.167391939438424,
negative,blue,2,None,k,,,,,,,,,0,171,171,171,,,,,,,,,,,,,,,,,main,k,k,1,0.7484425001312047,655.0869261999615,None,None,0,,,,,,,,,,,,,,033,2022-05-30_20h12.29.945,Main,2022.1.1,61.167391939438424,
positive,blue,2,k,None,,,,,,,,,0,172,172,172,,,,,,,,,,,,,,,,,main,None,None,1,1.5007707998156548,656.8396256000269,None,None,1,,,,,,,,,,,,,,033,2022-05-30_20h12.29.945,Main,2022.1.1,61.167391939438424,
negative,yellow,2,k,None,,,,,,,,,0,173,173,173,,,,,,,,,,,,,,,,,main,None,None,1,1.4973255000077188,659.3395869999658,None,None,1,,,,,,,,,,,,,,033,2022-05-30_20h12.29.945,Main,2022.1.1,61.167391939438424,
positive,yellow,2,None,k,,,,,,,,,0,174,174,174,,,,,,,,,,,,,,,,,main,k,k,1,0.7507264998275787,661.836839399999,None,None,0,,,,,,,,,,,,,,033,2022-05-30_20h12.29.945,Main,2022.1.1,61.167391939438424,
negative,blue,2,None,k,,,,,,,,,0,175,175,175,,,,,,,,,,,,,,,,,main,k,k,1,0.8661561999469995,663.5895056999288,None,None,0,,,,,,,,,,,,,,033,2022-05-30_20h12.29.945,Main,2022.1.1,61.167391939438424,
positive,blue,1,k,None,,,,,,,,,0,176,176,176,,,,,,,,,,,,,,,,,main,None,None,1,1.4953383998945355,665.4560664000455,None,None,1,,,,,,,,,,,,,,033,2022-05-30_20h12.29.945,Main,2022.1.1,61.167391939438424,
positive,yellow,1,None,k,,,,,,,,,0,177,177,177,,,,,,,,,,,,,,,,,main,k,k,1,0.8498713001608849,667.953313899925,None,None,0,,,,,,,,,,,,,,033,2022-05-30_20h12.29.945,Main,2022.1.1,61.167391939438424,
positive,blue,1,k,None,,,,,,,,,0,178,178,178,,,,,,,,,,,,,,,,,main,None,None,1,1.5004935001488775,669.8060383999255,None,None,1,,,,,,,,,,,,,,033,2022-05-30_20h12.29.945,Main,2022.1.1,61.167391939438424,
positive,yellow,2,None,k,,,,,,,,,0,179,179,179,,,,,,,,,,,,,,,,,main,k,k,1,0.7304110999684781,672.3090790000279,None,None,0,,,,,,,,,,,,,,033,2022-05-30_20h12.29.945,Main,2022.1.1,61.167391939438424,
positive,blue,1,k,None,,,,,,,,,0,180,180,180,,,,,,,,,,,,,,,,,main,None,None,1,1.5014291000552475,674.0365229998715,None,None,1,,,,,,,,,,,,,,033,2022-05-30_20h12.29.945,Main,2022.1.1,61.167391939438424,
negative,red,1,None,None,,,,,,,,,0,181,181,181,,,,,,,,,,,,,,,,,main,None,None,1,1.497359500033781,676.5392422999721,None,None,1,,,,,,,,,,,,,,033,2022-05-30_20h12.29.945,Main,2022.1.1,61.167391939438424,
negative,blue,1,None,k,,,,,,,,,0,182,182,182,,,,,,,,,,,,,,,,,main,k,k,1,0.7167328000068665,679.0364325998817,None,None,0,,,,,,,,,,,,,,033,2022-05-30_20h12.29.945,Main,2022.1.1,61.167391939438424,
negative,yellow,2,k,None,,,,,,,,,0,183,183,183,,,,,,,,,,,,,,,,,main,None,None,1,1.499042399926111,680.7531973998994,None,None,1,,,,,,,,,,,,,,033,2022-05-30_20h12.29.945,Main,2022.1.1,61.167391939438424,
positive,yellow,2,None,k,,,,,,,,,0,184,184,184,,,,,,,,,,,,,,,,,main,k,k,1,0.7491714998614043,683.2559296998661,None,None,0,,,,,,,,,,,,,,033,2022-05-30_20h12.29.945,Main,2022.1.1,61.167391939438424,
positive,yellow,1,None,k,,,,,,,,,0,185,185,185,,,,,,,,,,,,,,,,,main,k,k,1,0.8176681001204997,685.0037233999465,None,None,0,,,,,,,,,,,,,,033,2022-05-30_20h12.29.945,Main,2022.1.1,61.167391939438424,
positive,red,2,None,None,,,,,,,,,0,186,186,186,,,,,,,,,,,,,,,,,main,None,None,1,1.4952204001601785,686.8267149000894,None,None,1,,,,,,,,,,,,,,033,2022-05-30_20h12.29.945,Main,2022.1.1,61.167391939438424,
positive,blue,1,k,None,,,,,,,,,0,187,187,187,,,,,,,,,,,,,,,,,main,None,None,1,1.500737200025469,689.3196224998683,None,None,1,,,,,,,,,,,,,,033,2022-05-30_20h12.29.945,Main,2022.1.1,61.167391939438424,
negative,yellow,1,k,None,,,,,,,,,0,188,188,188,,,,,,,,,,,,,,,,,main,None,None,1,1.4967203999403864,691.8222709998954,None,None,1,,,,,,,,,,,,,,033,2022-05-30_20h12.29.945,Main,2022.1.1,61.167391939438424,
positive,yellow,2,None,k,,,,,,,,,0,189,189,189,,,,,,,,,,,,,,,,,main,k,k,1,0.6503606999758631,694.3197248999495,None,None,0,,,,,,,,,,,,,,033,2022-05-30_20h12.29.945,Main,2022.1.1,61.167391939438424,
negative,yellow,2,k,None,,,,,,,,,0,190,190,190,,,,,,,,,,,,,,,,,main,None,None,1,1.5013341999147087,695.9696591999382,None,None,1,,,,,,,,,,,,,,033,2022-05-30_20h12.29.945,Main,2022.1.1,61.167391939438424,
negative,yellow,1,k,None,,,,,,,,,0,191,191,191,,,,,,,,,,,,,,,,,main,None,None,1,1.4988375999964774,698.472119800048,None,None,1,,,,,,,,,,,,,,033,2022-05-30_20h12.29.945,Main,2022.1.1,61.167391939438424,
positive,blue,2,k,None,,,,,,,,,0,192,192,192,,,,,,,,,,,,,,,,,main,None,None,1,1.4972387999296188,700.9720805999823,None,None,1,,,,,,,,,,,,,,033,2022-05-30_20h12.29.945,Main,2022.1.1,61.167391939438424,
positive,yellow,1,None,k,,,,,,,,,0,193,193,193,,,,,,,,,,,,,,,,,main,k,k,1,0.7834365998860449,703.4692480999511,None,None,0,,,,,,,,,,,,,,033,2022-05-30_20h12.29.945,Main,2022.1.1,61.167391939438424,
negative,red,2,None,None,,,,,,,,,0,194,194,194,,,,,,,,,,,,,,,,,main,None,None,1,1.4987459999974817,705.2552996000741,None,None,1,,,,,,,,,,,,,,033,2022-05-30_20h12.29.945,Main,2022.1.1,61.167391939438424,
positive,red,1,None,None,,,,,,,,,0,195,195,195,,,,,,,,,,,,,,,,,main,None,None,1,1.4974509999155998,707.7552608000115,None,None,1,,,,,,,,,,,,,,033,2022-05-30_20h12.29.945,Main,2022.1.1,61.167391939438424,
negative,blue,1,None,k,,,,,,,,,0,196,196,196,,,,,,,,,,,,,,,,,main,k,k,1,0.8507952000945807,710.2524850999471,None,None,0,,,,,,,,,,,,,,033,2022-05-30_20h12.29.945,Main,2022.1.1,61.167391939438424,
positive,blue,2,k,None,,,,,,,,,0,197,197,197,,,,,,,,,,,,,,,,,main,None,None,1,1.4961467999964952,712.1051560000051,None,None,1,,,,,,,,,,,,,,033,2022-05-30_20h12.29.945,Main,2022.1.1,61.167391939438424,
negative,blue,2,None,k,,,,,,,,,0,198,198,198,,,,,,,,,,,,,,,,,main,k,k,1,0.7663998999632895,714.6081920999568,None,None,0,,,,,,,,,,,,,,033,2022-05-30_20h12.29.945,Main,2022.1.1,61.167391939438424,
negative,blue,2,None,k,,,,,,,,,0,199,199,199,,,,,,,,,,,,,,,,,main,k,k,1,0.748933200025931,716.3692634000909,None,None,0,,,,,,,,,,,,,,033,2022-05-30_20h12.29.945,Main,2022.1.1,61.167391939438424,
positive,blue,2,k,None,,,,,,,,,0,200,200,200,,,,,,,,,,,,,,,,,main,None,None,1,1.5016600999515504,718.1189415000845,None,None,1,,,,,,,,,,,,,,033,2022-05-30_20h12.29.945,Main,2022.1.1,61.167391939438424,
positive,blue,2,k,None,,,,,,,,,0,201,201,201,,,,,,,,,,,,,,,,,main,None,None,1,1.4991808000486344,720.6216505998746,None,None,1,,,,,,,,,,,,,,033,2022-05-30_20h12.29.945,Main,2022.1.1,61.167391939438424,
negative,yellow,2,k,None,,,,,,,,,0,202,202,202,,,,,,,,,,,,,,,,,main,None,None,1,1.4973571998998523,723.1216188999824,None,None,1,,,,,,,,,,,,,,033,2022-05-30_20h12.29.945,Main,2022.1.1,61.167391939438424,
positive,red,1,None,None,,,,,,,,,0,203,203,203,,,,,,,,,,,,,,,,,main,None,None,1,1.5006078998558223,725.6188405998982,None,None,1,,,,,,,,,,,,,,033,2022-05-30_20h12.29.945,Main,2022.1.1,61.167391939438424,
negative,blue,2,None,k,,,,,,,,,0,204,204,204,,,,,,,,,,,,,,,,,main,k,k,1,0.8464694998692721,728.1215146998875,None,None,0,,,,,,,,,,,,,,033,2022-05-30_20h12.29.945,Main,2022.1.1,61.167391939438424,
negative,red,1,None,None,,,,,,,,,0,205,205,205,,,,,,,,,,,,,,,,,main,None,None,1,1.5017850999720395,729.9690109000076,None,None,1,,,,,,,,,,,,,,033,2022-05-30_20h12.29.945,Main,2022.1.1,61.167391939438424,
negative,blue,2,None,k,,,,,,,,,0,206,206,206,,,,,,,,,,,,,,,,,main,k,k,1,0.7989185000769794,732.4713959000073,None,None,0,,,,,,,,,,,,,,033,2022-05-30_20h12.29.945,Main,2022.1.1,61.167391939438424,
negative,yellow,2,k,None,,,,,,,,,0,207,207,207,,,,,,,,,,,,,,,,,main,None,None,1,1.4992041001096368,734.2713621000294,None,None,1,,,,,,,,,,,,,,033,2022-05-30_20h12.29.945,Main,2022.1.1,61.167391939438424,
positive,yellow,2,None,k,,,,,,,,,0,208,208,208,,,,,,,,,,,,,,,,,main,k,k,1,0.8297646997962147,736.7688496999908,None,None,0,,,,,,,,,,,,,,033,2022-05-30_20h12.29.945,Main,2022.1.1,61.167391939438424,
negative,yellow,1,k,None,,,,,,,,,0,209,209,209,,,,,,,,,,,,,,,,,main,None,None,1,1.5015547000803053,738.602077400079,None,None,1,,,,,,,,,,,,,,033,2022-05-30_20h12.29.945,Main,2022.1.1,61.167391939438424,
negative,red,2,None,None,,,,,,,,,0,210,210,210,,,,,,,,,,,,,,,,,main,None,None,1,1.49930109991692,741.1045685000718,None,None,1,,,,,,,,,,,,,,033,2022-05-30_20h12.29.945,Main,2022.1.1,61.167391939438424,
negative,blue,1,None,k,,,,,,,,,0,211,211,211,,,,,,,,,,,,,,,,,main,k,k,1,0.863900100113824,743.6045196000487,None,None,0,,,,,,,,,,,,,,033,2022-05-30_20h12.29.945,Main,2022.1.1,61.167391939438424,
negative,yellow,1,k,None,,,,,,,,,0,212,212,212,,,,,,,,,,,,,,,,,main,None,None,1,1.4990073000080884,745.468663699925,None,None,1,,,,,,,,,,,,,,033,2022-05-30_20h12.29.945,Main,2022.1.1,61.167391939438424,
positive,blue,1,k,None,,,,,,,,,0,213,213,213,,,,,,,,,,,,,,,,,main,None,None,1,1.500763799995184,747.9683129000477,None,None,1,,,,,,,,,,,,,,033,2022-05-30_20h12.29.945,Main,2022.1.1,61.167391939438424,
positive,blue,1,k,None,,,,,,,,,0,214,214,214,,,,,,,,,,,,,,,,,main,None,None,1,1.4988517998717725,750.4710470000282,None,None,1,,,,,,,,,,,,,,033,2022-05-30_20h12.29.945,Main,2022.1.1,61.167391939438424,
positive,yellow,1,None,k,,,,,,,,,0,215,215,215,,,,,,,,,,,,,,,,,main,k,k,1,0.6800157001707703,752.9710063999519,None,None,0,,,,,,,,,,,,,,033,2022-05-30_20h12.29.945,Main,2022.1.1,61.167391939438424,
positive,yellow,1,None,k,,,,,,,,,0,216,216,216,,,,,,,,,,,,,,,,,main,k,k,1,0.7020239001139998,754.651532900054,None,None,0,,,,,,,,,,,,,,033,2022-05-30_20h12.29.945,Main,2022.1.1,61.167391939438424,
positive,yellow,2,None,k,,,,,,,,,0,217,217,217,,,,,,,,,,,,,,,,,main,k,k,1,1.0324258001055568,756.3542434999254,None,None,0,,,,,,,,,,,,,,033,2022-05-30_20h12.29.945,Main,2022.1.1,61.167391939438424,
negative,blue,1,None,k,,,,,,,,,0,218,218,218,,,,,,,,,,,,,,,,,main,k,k,1,0.6348439999856055,758.3875446999446,None,None,0,,,,,,,,,,,,,,033,2022-05-30_20h12.29.945,Main,2022.1.1,61.167391939438424,
positive,red,2,None,None,,,,,,,,,0,219,219,219,,,,,,,,,,,,,,,,,main,None,None,1,1.4951132000423968,760.0237483999226,None,None,1,,,,,,,,,,,,,,033,2022-05-30_20h12.29.945,Main,2022.1.1,61.167391939438424,
positive,yellow,1,None,k,,,,,,,,,0,220,220,220,,,,,,,,,,,,,,,,,main,k,k,1,0.7141613001003861,762.5180317000486,None,None,0,,,,,,,,,,,,,,033,2022-05-30_20h12.29.945,Main,2022.1.1,61.167391939438424,
positive,blue,1,k,None,,,,,,,,,0,221,221,221,,,,,,,,,,,,,,,,,main,None,None,1,1.5014656998682767,764.234722299967,None,None,1,,,,,,,,,,,,,,033,2022-05-30_20h12.29.945,Main,2022.1.1,61.167391939438424,
positive,yellow,2,None,k,,,,,,,,,0,222,222,222,,,,,,,,,,,,,,,,,main,k,k,1,0.7970797000452876,766.7373770000413,None,None,0,,,,,,,,,,,,,,033,2022-05-30_20h12.29.945,Main,2022.1.1,61.167391939438424,
negative,yellow,1,k,None,,,,,,,,,0,223,223,223,,,,,,,,,,,,,,,,,main,None,None,1,1.4980123999994248,768.5348626999184,None,None,1,,,,,,,,,,,,,,033,2022-05-30_20h12.29.945,Main,2022.1.1,61.167391939438424,
positive,yellow,2,None,k,,,,,,,,,0,224,224,224,,,,,,,,,,,,,,,,,main,k,k,1,0.8337123999372125,771.0345320000779,None,None,0,,,,,,,,,,,,,,033,2022-05-30_20h12.29.945,Main,2022.1.1,61.167391939438424,
negative,yellow,2,k,None,,,,,,,,,0,225,225,225,,,,,,,,,,,,,,,,,main,None,None,1,1.5001991000026464,772.86787369987,None,None,1,,,,,,,,,,,,,,033,2022-05-30_20h12.29.945,Main,2022.1.1,61.167391939438424,
negative,blue,2,None,k,,,,,,,,,0,226,226,226,,,,,,,,,,,,,,,,,main,k,k,1,0.8304649000056088,775.3704973000567,None,None,0,,,,,,,,,,,,,,033,2022-05-30_20h12.29.945,Main,2022.1.1,61.167391939438424,
positive,red,2,None,None,,,,,,,,,0,227,227,227,,,,,,,,,,,,,,,,,main,None,None,1,1.4989912000019103,777.2013751000632,None,None,1,,,,,,,,,,,,,,033,2022-05-30_20h12.29.945,Main,2022.1.1,61.167391939438424,
positive,blue,2,k,None,,,,,,,,,0,228,228,228,,,,,,,,,,,,,,,,,main,None,None,1,1.5005465000867844,779.7013294999488,None,None,1,,,,,,,,,,,,,,033,2022-05-30_20h12.29.945,Main,2022.1.1,61.167391939438424,
negative,blue,1,None,k,,,,,,,,,0,229,229,229,,,,,,,,,,,,,,,,,main,k,k,1,0.7661071000620723,782.2037229998969,None,None,0,,,,,,,,,,,,,,033,2022-05-30_20h12.29.945,Main,2022.1.1,61.167391939438424,
positive,yellow,1,None,k,,,,,,,,,0,230,230,230,,,,,,,,,,,,,,,,,main,k,k,1,0.7466702999081463,783.9703667999711,None,None,0,,,,,,,,,,,,,,033,2022-05-30_20h12.29.945,Main,2022.1.1,61.167391939438424,
negative,blue,2,None,k,,,,,,,,,0,231,231,231,,,,,,,,,,,,,,,,,main,k,k,1,0.7321758000180125,785.7178394000512,None,None,0,,,,,,,,,,,,,,033,2022-05-30_20h12.29.945,Main,2022.1.1,61.167391939438424,
negative,red,1,None,None,,,,,,,,,0,232,232,232,,,,,,,,,,,,,,,,,main,None,None,1,1.4986187000758946,787.4536246000789,None,None,1,,,,,,,,,,,,,,033,2022-05-30_20h12.29.945,Main,2022.1.1,61.167391939438424,
positive,blue,2,k,None,,,,,,,,,0,233,233,233,,,,,,,,,,,,,,,,,main,None,None,1,1.5017220999579877,789.9511428999249,None,None,1,,,,,,,,,,,,,,033,2022-05-30_20h12.29.945,Main,2022.1.1,61.167391939438424,
negative,yellow,1,k,None,,,,,,,,,0,234,234,234,,,,,,,,,,,,,,,,,main,None,None,1,1.4967203999403864,792.4534652000293,None,None,1,,,,,,,,,,,,,,033,2022-05-30_20h12.29.945,Main,2022.1.1,61.167391939438424,
negative,yellow,2,k,None,,,,,,,,,0,235,235,235,,,,,,,,,,,,,,,,,main,None,None,1,1.500139300012961,794.9509966999758,None,None,1,,,,,,,,,,,,,,033,2022-05-30_20h12.29.945,Main,2022.1.1,61.167391939438424,
positive,red,1,None,None,,,,,,,,,0,236,236,236,,,,,,,,,,,,,,,,,main,None,None,1,1.4999697001185268,797.4507283999119,None,None,1,,,,,,,,,,,,,,033,2022-05-30_20h12.29.945,Main,2022.1.1,61.167391939438424,
negative,red,2,None,None,,,,,,,,,0,237,237,237,,,,,,,,,,,,,,,,,main,None,None,1,1.4991993999574333,799.9533470000606,None,None,1,,,,,,,,,,,,,,033,2022-05-30_20h12.29.945,Main,2022.1.1,61.167391939438424,
negative,blue,1,None,k,,,,,,,,,0,238,238,238,,,,,,,,,,,,,,,,,main,k,k,1,0.7966064000502229,802.4532967000268,None,None,0,,,,,,,,,,,,,,033,2022-05-30_20h12.29.945,Main,2022.1.1,61.167391939438424,
positive,blue,1,k,None,,,,,,,,,0,239,239,239,,,,,,,,,,,,,,,,,main,None,None,1,1.5015277001075447,804.25076179998,None,None,1,,,,,,,,,,,,,,033,2022-05-30_20h12.29.945,Main,2022.1.1,61.167391939438424,
,,,,,,,,,,,,,,,,,,,,,,,,,,,,,,,,,,,,,,,,,,,,,,,,,,,,,806.7532007000409,None,,,,,,
