distractor,target,set,ans1,ans2,rep_loop4.thisRepN,rep_loop4.thisTrialN,rep_loop4.thisN,rep_loop4.thisIndex,st2_prac_loop.thisRepN,st2_prac_loop.thisTrialN,st2_prac_loop.thisN,st2_prac_loop.thisIndex,st2_main_loop.thisRepN,st2_main_loop.thisTrialN,st2_main_loop.thisN,st2_main_loop.thisIndex,image_4.started,image_4.stopped,sound_2.started,sound_2.stopped,key_resp_3.keys,key_resp_3.rt,image_5.started,image_5.stopped,st_prac_back.started,st_prac_back.stopped,st_prac_text.started,st_prac_text.stopped,st_fix_back.started,st_fix_back.stopped,st_fix_2.started,st_fix_2.stopped,main_prac,st_ans,st_res,st_corr,st_rt,st_back.started,st_back.stopped,st2_resp.keys,st2_resp.corr,st_main_back.started,st_main_back.stopped,st_main_text.started,st_main_text.stopped,mouse_4.x,mouse_4.y,mouse_4.leftButton,mouse_4.midButton,mouse_4.rightButton,mouse_4.started,mouse_4.stopped,text_2.started,text_2.stopped,id*,date,expName,psychopyVersion,frameRate,
negative,yellow,1,k,None,,,,,0,0,0,0,,,,,29.88784720003605,None,33.832325280015354,None,space,59.24289060011506,93.09737990004942,None,94.97847400000319,None,94.97847400000319,None,96.97850480000488,None,96.97850480000488,None,prac,k,k,1,1.6016317999456078,98.98570400010794,None,None,0,,,,,,,,,,,,,,034,2022-06-01_17h54.20.687,Main,2022.1.1,61.16626942942829,
positive,red,2,None,None,,,,,0,1,1,1,,,,,,,,,,,,,,,,,,,,,prac,None,None,1,1.4996119998395443,102.59514190000482,None,None,1,,,,,,,,,,,,,,034,2022-06-01_17h54.20.687,Main,2022.1.1,61.16626942942829,
negative,blue,2,None,k,,,,,0,2,2,2,,,,,,,,,,,,,,,,,,,,,prac,None,None,1,1.499268800020218,105.09480750001967,None,None,1,,,,,,,,,,,,,,034,2022-06-01_17h54.20.687,Main,2022.1.1,61.16626942942829,
positive,yellow,1,None,k,,,,,0,3,3,3,,,,,,,,,,,,,,,,,,,,,prac,None,None,1,1.4990547001361847,107.59755309997126,None,None,1,,,,,,,,,,,,,,034,2022-06-01_17h54.20.687,Main,2022.1.1,61.16626942942829,
negative,blue,2,None,k,,,,,0,4,4,4,,,,,,,,,,,,,,,,,,,,,prac,None,None,1,1.4998771999962628,110.09750370006077,None,None,1,,,,,,,,,,,,,,034,2022-06-01_17h54.20.687,Main,2022.1.1,61.16626942942829,
negative,blue,1,None,k,,,,,0,5,5,5,,,,,,,,,,,,,,,,,,,,,prac,None,None,1,1.4978429998736829,112.59471810003743,None,None,1,,,,,,,,,,,,,,034,2022-06-01_17h54.20.687,Main,2022.1.1,61.16626942942829,
negative,yellow,2,k,None,,,,,0,6,6,6,,,,,,,,,,,,,,,,,,,,,prac,k,k,1,1.206979899900034,115.09740810003132,None,None,0,,,,,,,,,,,,,,034,2022-06-01_17h54.20.687,Main,2022.1.1,61.16626942942829,
negative,red,1,None,None,,,,,0,7,7,7,,,,,,,,,,,,,,,,,,,,,prac,None,None,1,1.5057667000219226,117.30920140002854,None,None,1,,,,,,,,,,,,,,034,2022-06-01_17h54.20.687,Main,2022.1.1,61.16626942942829,
positive,yellow,2,None,k,,,,,0,8,8,8,,,,,,,,,,,,,,,,,,,,,prac,None,None,1,1.4979397000279278,119.81117910007015,None,None,1,,,,,,,,,,,,,,034,2022-06-01_17h54.20.687,Main,2022.1.1,61.16626942942829,
negative,yellow,1,k,None,,,,,0,9,9,9,,,,,,,,,,,,,,,,,,,,,prac,k,k,1,1.2853604999836534,122.3111920999363,None,None,0,,,,,,,,,,,,,,034,2022-06-01_17h54.20.687,Main,2022.1.1,61.16626942942829,
positive,yellow,2,None,k,,,,,0,10,10,10,,,,,,,,,,,,,,,,,,,,,prac,None,None,1,1.498617600183934,124.59745560004376,None,None,1,,,,,,,,,,,,,,034,2022-06-01_17h54.20.687,Main,2022.1.1,61.16626942942829,
negative,yellow,2,k,None,,,,,0,11,11,11,,,,,,,,,,,,,,,,,,,,,prac,k,k,1,0.9968937002122402,127.09465330000967,None,None,0,,,,,,,,,,,,,,034,2022-06-01_17h54.20.687,Main,2022.1.1,61.16626942942829,
negative,red,2,None,None,,,,,0,12,12,12,,,,,,,,,,,,,,,,,,,,,prac,None,None,1,1.5015811000484973,129.09434440010227,None,None,1,,,,,,,,,,,,,,034,2022-06-01_17h54.20.687,Main,2022.1.1,61.16626942942829,
positive,red,1,None,None,,,,,0,13,13,13,,,,,,,,,,,,,,,,,,,,,prac,None,None,1,1.4987902001012117,131.59709369996563,None,None,1,,,,,,,,,,,,,,034,2022-06-01_17h54.20.687,Main,2022.1.1,61.16626942942829,
positive,blue,2,k,None,,,,,0,14,14,14,,,,,,,,,,,,,,,,,,,,,prac,k,k,1,0.7798099000938237,134.1001561000012,None,None,0,,,,,,,,,,,,,,034,2022-06-01_17h54.20.687,Main,2022.1.1,61.16626942942829,
positive,blue,1,k,None,,,,,0,15,15,15,,,,,,,,,,,,,,,,,,,,,prac,k,k,1,0.9828703000675887,135.8775265000295,None,None,0,,,,,,,,,,,,,,034,2022-06-01_17h54.20.687,Main,2022.1.1,61.16626942942829,
negative,blue,1,None,k,,,,,0,16,16,16,,,,,,,,,,,,,,,,,,,,,prac,None,None,1,1.4992817000020295,137.8636344000697,None,None,1,,,,,,,,,,,,,,034,2022-06-01_17h54.20.687,Main,2022.1.1,61.16626942942829,
positive,blue,2,k,None,,,,,0,17,17,17,,,,,,,,,,,,,,,,,,,,,prac,k,k,1,0.800537999952212,140.36074399994686,None,None,0,,,,,,,,,,,,,,034,2022-06-01_17h54.20.687,Main,2022.1.1,61.16626942942829,
positive,blue,1,k,None,,,,,0,18,18,18,,,,,,,,,,,,,,,,,,,,,prac,k,k,1,0.7467321001458913,142.1608039001003,None,None,0,,,,,,,,,,,,,,034,2022-06-01_17h54.20.687,Main,2022.1.1,61.16626942942829,
positive,yellow,1,None,k,,,,,0,19,19,19,,,,,,,,,,,,,,,,,,,,,prac,None,None,1,1.1546323001384735,143.91349709988572,None,None,1,,,,,,,,,,,,,,034,2022-06-01_17h54.20.687,Main,2022.1.1,61.16626942942829,
negative,yellow,1,k,None,,,,,1,0,20,0,,,,,,,,,,,,,,,,,,,,,prac,k,k,1,0.8429733000230044,146.06109179998748,None,None,0,,,,,,,,,,,,,,034,2022-06-01_17h54.20.687,Main,2022.1.1,61.16626942942829,
positive,red,2,None,None,,,,,1,1,21,1,,,,,,,,,,,,,,,,,,,,,prac,None,None,1,1.501765500055626,147.91062500001863,None,None,1,,,,,,,,,,,,,,034,2022-06-01_17h54.20.687,Main,2022.1.1,61.16626942942829,
negative,blue,2,None,k,,,,,1,2,22,2,,,,,,,,,,,,,,,,,,,,,prac,None,None,1,1.4970744999591261,150.41342739993706,None,None,1,,,,,,,,,,,,,,034,2022-06-01_17h54.20.687,Main,2022.1.1,61.16626942942829,
positive,yellow,1,None,k,,,,,1,3,23,3,,,,,,,,,,,,,,,,,,,,,prac,None,None,1,1.5006175998132676,152.91057580010965,None,None,1,,,,,,,,,,,,,,034,2022-06-01_17h54.20.687,Main,2022.1.1,61.16626942942829,
negative,blue,2,None,k,,,,,1,4,24,4,,,,,,,,,,,,,,,,,,,,,prac,None,None,1,1.4991003999020904,155.41321410005912,None,None,1,,,,,,,,,,,,,,034,2022-06-01_17h54.20.687,Main,2022.1.1,61.16626942942829,
negative,blue,1,None,k,,,,,1,5,25,5,,,,,,,,,,,,,,,,,,,,,prac,None,None,1,1.4971503999549896,157.91321170004085,None,None,1,,,,,,,,,,,,,,034,2022-06-01_17h54.20.687,Main,2022.1.1,61.16626942942829,
negative,yellow,2,k,None,,,,,1,6,26,6,,,,,,,,,,,,,,,,,,,,,prac,k,k,1,0.815057200146839,160.4104498999659,None,None,0,,,,,,,,,,,,,,034,2022-06-01_17h54.20.687,Main,2022.1.1,61.16626942942829,
negative,red,1,None,None,,,,,1,7,27,7,,,,,,,,,,,,,,,,,,,,,prac,None,None,1,1.5010868001263589,162.22978319996037,None,None,1,,,,,,,,,,,,,,034,2022-06-01_17h54.20.687,Main,2022.1.1,61.16626942942829,
positive,yellow,2,None,k,,,,,1,8,28,8,,,,,,,,,,,,,,,,,,,,,prac,None,None,1,1.4965470999013633,164.72966150008142,None,None,1,,,,,,,,,,,,,,034,2022-06-01_17h54.20.687,Main,2022.1.1,61.16626942942829,
negative,yellow,1,k,None,,,,,1,9,29,9,,,,,,,,,,,,,,,,,,,,,prac,k,k,1,0.8990976000204682,167.23269079998136,None,None,0,,,,,,,,,,,,,,034,2022-06-01_17h54.20.687,Main,2022.1.1,61.16626942942829,
positive,yellow,2,None,k,,,,,1,10,30,10,,,,,,,,,,,,,,,,,,,,,prac,None,None,1,1.501525100087747,169.12692869990133,None,None,1,,,,,,,,,,,,,,034,2022-06-01_17h54.20.687,Main,2022.1.1,61.16626942942829,
negative,yellow,2,k,None,,,,,1,11,31,11,,,,,,,,,,,,,,,,,,,,,prac,k,k,1,0.8060757999774069,171.62956200004555,None,None,0,,,,,,,,,,,,,,034,2022-06-01_17h54.20.687,Main,2022.1.1,61.16626942942829,
negative,red,2,None,None,,,,,1,12,32,12,,,,,,,,,,,,,,,,,,,,,prac,None,None,1,1.490205599926412,173.44020750001073,None,None,1,,,,,,,,,,,,,,034,2022-06-01_17h54.20.687,Main,2022.1.1,61.16626942942829,
positive,red,1,None,None,,,,,1,13,33,13,,,,,,,,,,,,,,,,,,,,,prac,None,None,1,1.5005687999073416,175.92679590010084,None,None,1,,,,,,,,,,,,,,034,2022-06-01_17h54.20.687,Main,2022.1.1,61.16626942942829,
positive,blue,2,k,None,,,,,1,14,34,14,,,,,,,,,,,,,,,,,,,,,prac,k,k,1,1.1634609999600798,178.42941990005784,None,None,0,,,,,,,,,,,,,,034,2022-06-01_17h54.20.687,Main,2022.1.1,61.16626942942829,
positive,blue,1,k,None,,,,,1,15,35,15,,,,,,,,,,,,,,,,,,,,,prac,k,k,1,1.0997998001985252,180.59360789996572,None,None,0,,,,,,,,,,,,,,034,2022-06-01_17h54.20.687,Main,2022.1.1,61.16626942942829,
negative,blue,1,None,k,,,,,1,16,36,16,,,,,,,,,,,,,,,,,,,,,prac,None,None,1,1.5002371999435127,182.69324110005982,None,None,1,,,,,,,,,,,,,,034,2022-06-01_17h54.20.687,Main,2022.1.1,61.16626942942829,
positive,blue,2,k,None,,,,,1,17,37,17,,,,,,,,,,,,,,,,,,,,,prac,k,k,1,0.9327595999930054,185.1960054000374,None,None,0,,,,,,,,,,,,,,034,2022-06-01_17h54.20.687,Main,2022.1.1,61.16626942942829,
positive,blue,1,k,None,,,,,1,18,38,18,,,,,,,,,,,,,,,,,,,,,prac,k,k,1,0.8468100000172853,187.12282969988883,None,None,0,,,,,,,,,,,,,,034,2022-06-01_17h54.20.687,Main,2022.1.1,61.16626942942829,
positive,yellow,1,None,k,,,,,1,19,39,19,,,,,,,,,,,,,,,,,,,,,prac,None,None,1,1.5004275999963284,188.97648170008324,None,None,1,,,,,,,,,,,,,,034,2022-06-01_17h54.20.687,Main,2022.1.1,61.16626942942829,
,,,,,,,,,,,,,,,,,,,,,,,,,,,,,,,,,,,,,,,,,,191.4792834999971,None,191.4792834999971,None,0.06574074,0.053703703,0,0,0,0.014276579953730106,None,,,034,2022-06-01_17h54.20.687,Main,2022.1.1,61.16626942942829,
negative,yellow,2,k,None,,,,,,,,,0,0,0,0,,,,,,,,,,,,,192.46252229996026,None,192.46252229996026,None,main,k,k,1,0.9131519999355078,194.5050709999632,None,None,0,,,,,,,,,,,,,,034,2022-06-01_17h54.20.687,Main,2022.1.1,61.16626942942829,
positive,red,1,None,None,,,,,,,,,0,1,1,1,,,,,,,,,,,,,,,,,main,None,None,1,1.4985241999384016,196.4291636000853,None,None,1,,,,,,,,,,,,,,034,2022-06-01_17h54.20.687,Main,2022.1.1,61.16626942942829,
positive,blue,2,k,None,,,,,,,,,0,2,2,2,,,,,,,,,,,,,,,,,main,k,k,1,0.64666169998236,198.92906080000103,None,None,0,,,,,,,,,,,,,,034,2022-06-01_17h54.20.687,Main,2022.1.1,61.16626942942829,
positive,blue,1,k,None,,,,,,,,,0,3,3,3,,,,,,,,,,,,,,,,,main,k,k,1,0.7185651999898255,200.57624979992397,None,None,0,,,,,,,,,,,,,,034,2022-06-01_17h54.20.687,Main,2022.1.1,61.16626942942829,
negative,yellow,2,k,None,,,,,,,,,0,4,4,4,,,,,,,,,,,,,,,,,main,k,k,1,0.6821900000795722,202.2957186999265,None,None,0,,,,,,,,,,,,,,034,2022-06-01_17h54.20.687,Main,2022.1.1,61.16626942942829,
positive,yellow,2,None,k,,,,,,,,,0,5,5,5,,,,,,,,,,,,,,,,,main,None,None,1,1.4963235999457538,203.97895139991306,None,None,1,,,,,,,,,,,,,,034,2022-06-01_17h54.20.687,Main,2022.1.1,61.16626942942829,
negative,blue,2,None,k,,,,,,,,,0,6,6,6,,,,,,,,,,,,,,,,,main,None,None,1,1.4996986999176443,206.47642319998704,None,None,1,,,,,,,,,,,,,,034,2022-06-01_17h54.20.687,Main,2022.1.1,61.16626942942829,
positive,red,2,None,None,,,,,,,,,0,7,7,7,,,,,,,,,,,,,,,,,main,None,None,1,1.5006143001373857,208.97607879992574,None,None,1,,,,,,,,,,,,,,034,2022-06-01_17h54.20.687,Main,2022.1.1,61.16626942942829,
positive,yellow,1,None,k,,,,,,,,,0,8,8,8,,,,,,,,,,,,,,,,,main,None,k,0,0.7662806001026183,211.47880659997463,None,None,1,,,,,,,,,,,,,,034,2022-06-01_17h54.20.687,Main,2022.1.1,61.16626942942829,
negative,red,1,None,None,,,,,,,,,0,9,9,9,,,,,,,,,,,,,,,,,main,None,None,1,1.5035546999424696,214.2593865999952,None,None,1,,,,,,,,,,,,,,034,2022-06-01_17h54.20.687,Main,2022.1.1,61.16626942942829,
positive,yellow,1,None,k,,,,,,,,,0,10,10,10,,,,,,,,,,,,,,,,,main,None,None,1,1.4986233999952674,216.76209189998917,None,None,1,,,,,,,,,,,,,,034,2022-06-01_17h54.20.687,Main,2022.1.1,61.16626942942829,
negative,yellow,1,k,None,,,,,,,,,0,11,11,11,,,,,,,,,,,,,,,,,main,k,k,1,0.8634389999788254,219.26200119988061,None,None,0,,,,,,,,,,,,,,034,2022-06-01_17h54.20.687,Main,2022.1.1,61.16626942942829,
negative,yellow,1,k,None,,,,,,,,,0,12,12,12,,,,,,,,,,,,,,,,,main,k,k,1,0.9844839000143111,221.1284179999493,None,None,0,,,,,,,,,,,,,,034,2022-06-01_17h54.20.687,Main,2022.1.1,61.16626942942829,
negative,red,2,None,None,,,,,,,,,0,13,13,13,,,,,,,,,,,,,,,,,main,None,None,1,1.4972093000542372,223.11536739999428,None,None,1,,,,,,,,,,,,,,034,2022-06-01_17h54.20.687,Main,2022.1.1,61.16626942942829,
positive,yellow,2,None,k,,,,,,,,,0,14,14,14,,,,,,,,,,,,,,,,,main,None,None,1,1.500777400098741,225.60911950003356,None,None,1,,,,,,,,,,,,,,034,2022-06-01_17h54.20.687,Main,2022.1.1,61.16626942942829,
positive,blue,1,k,None,,,,,,,,,0,15,15,15,,,,,,,,,,,,,,,,,main,k,k,1,1.0862118999939412,228.1118576999288,None,None,0,,,,,,,,,,,,,,034,2022-06-01_17h54.20.687,Main,2022.1.1,61.16626942942829,
negative,blue,1,None,k,,,,,,,,,0,16,16,16,,,,,,,,,,,,,,,,,main,None,None,1,1.4933486999943852,230.20218509994447,None,None,1,,,,,,,,,,,,,,034,2022-06-01_17h54.20.687,Main,2022.1.1,61.16626942942829,
positive,blue,2,k,None,,,,,,,,,0,17,17,17,,,,,,,,,,,,,,,,,main,k,k,1,0.7841481000650674,232.69231220008805,None,None,0,,,,,,,,,,,,,,034,2022-06-01_17h54.20.687,Main,2022.1.1,61.16626942942829,
negative,blue,2,None,k,,,,,,,,,0,18,18,18,,,,,,,,,,,,,,,,,main,None,None,1,1.4987580000888556,234.47838360001333,None,None,1,,,,,,,,,,,,,,034,2022-06-01_17h54.20.687,Main,2022.1.1,61.16626942942829,
negative,blue,1,None,k,,,,,,,,,0,19,19,19,,,,,,,,,,,,,,,,,main,None,None,1,1.4990864000283182,236.97827579989098,None,None,1,,,,,,,,,,,,,,034,2022-06-01_17h54.20.687,Main,2022.1.1,61.16626942942829,
negative,blue,1,None,k,,,,,,,,,0,20,20,20,,,,,,,,,,,,,,,,,main,None,None,1,1.4972006001044065,239.47579449997284,None,None,1,,,,,,,,,,,,,,034,2022-06-01_17h54.20.687,Main,2022.1.1,61.16626942942829,
negative,blue,2,None,k,,,,,,,,,0,21,21,21,,,,,,,,,,,,,,,,,main,None,None,1,1.5006353999488056,241.97546219988726,None,None,1,,,,,,,,,,,,,,034,2022-06-01_17h54.20.687,Main,2022.1.1,61.16626942942829,
negative,red,1,None,None,,,,,,,,,0,22,22,22,,,,,,,,,,,,,,,,,main,None,None,1,1.4963556001894176,244.47815559990704,None,None,1,,,,,,,,,,,,,,034,2022-06-01_17h54.20.687,Main,2022.1.1,61.16626942942829,
positive,red,2,None,None,,,,,,,,,0,23,23,23,,,,,,,,,,,,,,,,,main,None,None,1,1.5016985998954624,246.97531450004317,None,None,1,,,,,,,,,,,,,,034,2022-06-01_17h54.20.687,Main,2022.1.1,61.16626942942829,
negative,red,2,None,None,,,,,,,,,0,24,24,24,,,,,,,,,,,,,,,,,main,None,None,1,1.496361600002274,249.47807210008614,None,None,1,,,,,,,,,,,,,,034,2022-06-01_17h54.20.687,Main,2022.1.1,61.16626942942829,
positive,blue,2,k,None,,,,,,,,,0,25,25,25,,,,,,,,,,,,,,,,,main,k,k,1,0.6662274999544024,251.98105680011213,None,None,0,,,,,,,,,,,,,,034,2022-06-01_17h54.20.687,Main,2022.1.1,61.16626942942829,
negative,yellow,1,k,None,,,,,,,,,0,26,26,26,,,,,,,,,,,,,,,,,main,k,k,1,1.0484514001291245,253.64220290002413,None,None,0,,,,,,,,,,,,,,034,2022-06-01_17h54.20.687,Main,2022.1.1,61.16626942942829,
positive,blue,2,k,None,,,,,,,,,0,27,27,27,,,,,,,,,,,,,,,,,main,k,k,1,0.782609400106594,255.69183219992556,None,None,0,,,,,,,,,,,,,,034,2022-06-01_17h54.20.687,Main,2022.1.1,61.16626942942829,
negative,blue,2,None,k,,,,,,,,,0,28,28,28,,,,,,,,,,,,,,,,,main,None,None,1,1.5015342999249697,257.4751907000318,None,None,1,,,,,,,,,,,,,,034,2022-06-01_17h54.20.687,Main,2022.1.1,61.16626942942829,
positive,red,1,None,None,,,,,,,,,0,29,29,29,,,,,,,,,,,,,,,,,main,None,None,1,1.4966283000539988,259.977816300001,None,None,1,,,,,,,,,,,,,,034,2022-06-01_17h54.20.687,Main,2022.1.1,61.16626942942829,
positive,blue,1,k,None,,,,,,,,,0,30,30,30,,,,,,,,,,,,,,,,,main,k,k,1,0.9321425999514759,262.475304099964,None,None,0,,,,,,,,,,,,,,034,2022-06-01_17h54.20.687,Main,2022.1.1,61.16626942942829,
positive,yellow,1,None,k,,,,,,,,,0,31,31,31,,,,,,,,,,,,,,,,,main,None,None,1,1.501680799992755,264.40832379995845,None,None,1,,,,,,,,,,,,,,034,2022-06-01_17h54.20.687,Main,2022.1.1,61.16626942942829,
negative,yellow,2,k,None,,,,,,,,,0,32,32,32,,,,,,,,,,,,,,,,,main,k,k,1,0.9992639999836683,266.9110355998855,None,None,0,,,,,,,,,,,,,,034,2022-06-01_17h54.20.687,Main,2022.1.1,61.16626942942829,
negative,blue,1,None,k,,,,,,,,,0,33,33,33,,,,,,,,,,,,,,,,,main,None,None,1,1.4968391000293195,268.91099929995835,None,None,1,,,,,,,,,,,,,,034,2022-06-01_17h54.20.687,Main,2022.1.1,61.16626942942829,
positive,blue,1,k,None,,,,,,,,,0,34,34,34,,,,,,,,,,,,,,,,,main,k,k,1,0.7675089000258595,271.4081794999074,None,None,0,,,,,,,,,,,,,,034,2022-06-01_17h54.20.687,Main,2022.1.1,61.16626942942829,
negative,yellow,1,k,None,,,,,,,,,0,35,35,35,,,,,,,,,,,,,,,,,main,k,k,1,1.1657344000414014,273.1775416000746,None,None,0,,,,,,,,,,,,,,034,2022-06-01_17h54.20.687,Main,2022.1.1,61.16626942942829,
positive,yellow,2,None,k,,,,,,,,,0,36,36,36,,,,,,,,,,,,,,,,,main,None,None,1,1.497005300130695,275.34422309999354,None,None,1,,,,,,,,,,,,,,034,2022-06-01_17h54.20.687,Main,2022.1.1,61.16626942942829,
positive,yellow,2,None,k,,,,,,,,,0,37,37,37,,,,,,,,,,,,,,,,,main,None,None,1,1.5006474000401795,277.8413813000079,None,None,1,,,,,,,,,,,,,,034,2022-06-01_17h54.20.687,Main,2022.1.1,61.16626942942829,
negative,yellow,2,k,None,,,,,,,,,0,38,38,38,,,,,,,,,,,,,,,,,main,k,k,1,0.8356140998657793,280.3441101999488,None,None,0,,,,,,,,,,,,,,034,2022-06-01_17h54.20.687,Main,2022.1.1,61.16626942942829,
positive,yellow,1,None,k,,,,,,,,,0,39,39,39,,,,,,,,,,,,,,,,,main,None,None,1,1.493942900095135,282.17893599998206,None,None,1,,,,,,,,,,,,,,034,2022-06-01_17h54.20.687,Main,2022.1.1,61.16626942942829,
negative,yellow,2,k,None,,,,,,,,,0,40,40,40,,,,,,,,,,,,,,,,,main,k,k,1,0.781720699975267,284.67463760008104,None,None,0,,,,,,,,,,,,,,034,2022-06-01_17h54.20.687,Main,2022.1.1,61.16626942942829,
positive,blue,2,k,None,,,,,,,,,0,41,41,41,,,,,,,,,,,,,,,,,main,k,k,1,1.1491632000543177,286.46061399998143,None,None,0,,,,,,,,,,,,,,034,2022-06-01_17h54.20.687,Main,2022.1.1,61.16626942942829,
positive,blue,2,k,None,,,,,,,,,0,42,42,42,,,,,,,,,,,,,,,,,main,k,k,1,0.601362599991262,288.60812989994884,None,None,0,,,,,,,,,,,,,,034,2022-06-01_17h54.20.687,Main,2022.1.1,61.16626942942829,
negative,blue,2,None,k,,,,,,,,,0,43,43,43,,,,,,,,,,,,,,,,,main,None,None,1,1.4969311999157071,290.2081295000389,None,None,1,,,,,,,,,,,,,,034,2022-06-01_17h54.20.687,Main,2022.1.1,61.16626942942829,
negative,red,1,None,None,,,,,,,,,0,44,44,44,,,,,,,,,,,,,,,,,main,None,None,1,1.5008216998539865,292.70779199991375,None,None,1,,,,,,,,,,,,,,034,2022-06-01_17h54.20.687,Main,2022.1.1,61.16626942942829,
negative,yellow,1,k,None,,,,,,,,,0,45,45,45,,,,,,,,,,,,,,,,,main,k,k,1,1.7938444998580962,295.21049620001577,None,None,0,,,,,,,,,,,,,,034,2022-06-01_17h54.20.687,Main,2022.1.1,61.16626942942829,
negative,yellow,1,k,None,,,,,,,,,0,46,46,46,,,,,,,,,,,,,,,,,main,k,k,1,0.8202047001104802,299.00762950000353,None,None,0,,,,,,,,,,,,,,034,2022-06-01_17h54.20.687,Main,2022.1.1,61.16626942942829,
positive,red,1,None,None,,,,,,,,,0,47,47,47,,,,,,,,,,,,,,,,,main,None,None,1,1.4984956001862884,300.8270161000546,None,None,1,,,,,,,,,,,,,,034,2022-06-01_17h54.20.687,Main,2022.1.1,61.16626942942829,
positive,yellow,1,None,k,,,,,,,,,0,48,48,48,,,,,,,,,,,,,,,,,main,None,None,1,1.4972031000070274,303.326990300091,None,None,1,,,,,,,,,,,,,,034,2022-06-01_17h54.20.687,Main,2022.1.1,61.16626942942829,
negative,blue,1,None,k,,,,,,,,,0,49,49,49,,,,,,,,,,,,,,,,,main,None,None,1,1.5004537999629974,305.82416950003244,None,None,1,,,,,,,,,,,,,,034,2022-06-01_17h54.20.687,Main,2022.1.1,61.16626942942829,
positive,yellow,2,None,k,,,,,,,,,0,50,50,50,,,,,,,,,,,,,,,,,main,None,None,1,1.4967221999540925,308.3268707001116,None,None,1,,,,,,,,,,,,,,034,2022-06-01_17h54.20.687,Main,2022.1.1,61.16626942942829,
negative,blue,1,None,k,,,,,,,,,0,51,51,51,,,,,,,,,,,,,,,,,main,None,None,1,1.4998641998972744,310.8243482999969,None,None,1,,,,,,,,,,,,,,034,2022-06-01_17h54.20.687,Main,2022.1.1,61.16626942942829,
positive,red,2,None,None,,,,,,,,,0,52,52,52,,,,,,,,,,,,,,,,,main,None,None,1,1.500426399987191,313.3240187000483,None,None,1,,,,,,,,,,,,,,034,2022-06-01_17h54.20.687,Main,2022.1.1,61.16626942942829,
positive,yellow,2,None,k,,,,,,,,,0,53,53,53,,,,,,,,,,,,,,,,,main,None,None,1,1.4987685999367386,315.82673120009713,None,None,1,,,,,,,,,,,,,,034,2022-06-01_17h54.20.687,Main,2022.1.1,61.16626942942829,
negative,red,2,None,None,,,,,,,,,0,54,54,54,,,,,,,,,,,,,,,,,main,None,None,1,1.4974664999172091,318.3266551999841,None,None,1,,,,,,,,,,,,,,034,2022-06-01_17h54.20.687,Main,2022.1.1,61.16626942942829,
positive,yellow,1,None,k,,,,,,,,,0,55,55,55,,,,,,,,,,,,,,,,,main,None,None,1,1.5003488999791443,320.8238661000505,None,None,1,,,,,,,,,,,,,,034,2022-06-01_17h54.20.687,Main,2022.1.1,61.16626942942829,
negative,blue,2,None,k,,,,,,,,,0,56,56,56,,,,,,,,,,,,,,,,,main,None,None,1,1.4973554001189768,323.3266215999611,None,None,1,,,,,,,,,,,,,,034,2022-06-01_17h54.20.687,Main,2022.1.1,61.16626942942829,
positive,blue,1,k,None,,,,,,,,,0,57,57,57,,,,,,,,,,,,,,,,,main,k,k,1,0.847065000096336,325.8237759000622,None,None,0,,,,,,,,,,,,,,034,2022-06-01_17h54.20.687,Main,2022.1.1,61.16626942942829,
positive,blue,1,k,None,,,,,,,,,0,58,58,58,,,,,,,,,,,,,,,,,main,k,k,1,0.6512398000340909,327.6737943000626,None,None,0,,,,,,,,,,,,,,034,2022-06-01_17h54.20.687,Main,2022.1.1,61.16626942942829,
negative,yellow,2,k,None,,,,,,,,,0,59,59,59,,,,,,,,,,,,,,,,,main,k,k,1,0.9179511999245733,329.3264826000668,None,None,0,,,,,,,,,,,,,,034,2022-06-01_17h54.20.687,Main,2022.1.1,61.16626942942829,
positive,red,2,None,None,,,,,,,,,0,60,60,60,,,,,,,,,,,,,,,,,main,None,None,1,1.4938465000595897,331.2497902000323,None,None,1,,,,,,,,,,,,,,034,2022-06-01_17h54.20.687,Main,2022.1.1,61.16626942942829,
negative,yellow,1,k,None,,,,,,,,,0,61,61,61,,,,,,,,,,,,,,,,,main,k,k,1,0.8160516999196261,333.7404936000239,None,None,0,,,,,,,,,,,,,,034,2022-06-01_17h54.20.687,Main,2022.1.1,61.16626942942829,
negative,red,1,None,None,,,,,,,,,0,62,62,62,,,,,,,,,,,,,,,,,main,None,None,1,1.4988306001760066,335.55722049996257,None,None,1,,,,,,,,,,,,,,034,2022-06-01_17h54.20.687,Main,2022.1.1,61.16626942942829,
negative,blue,1,None,k,,,,,,,,,0,63,63,63,,,,,,,,,,,,,,,,,main,None,None,1,1.4986380999907851,338.0571536999196,None,None,1,,,,,,,,,,,,,,034,2022-06-01_17h54.20.687,Main,2022.1.1,61.16626942942829,
positive,blue,2,k,None,,,,,,,,,0,64,64,64,,,,,,,,,,,,,,,,,main,k,k,1,0.8522452001925558,340.5568178000394,None,None,0,,,,,,,,,,,,,,034,2022-06-01_17h54.20.687,Main,2022.1.1,61.16626942942829,
negative,yellow,2,k,None,,,,,,,,,0,65,65,65,,,,,,,,,,,,,,,,,main,k,k,1,0.8656200000550598,342.4096438998822,None,None,0,,,,,,,,,,,,,,034,2022-06-01_17h54.20.687,Main,2022.1.1,61.16626942942829,
positive,yellow,2,None,k,,,,,,,,,0,66,66,66,,,,,,,,,,,,,,,,,main,None,None,1,1.4992569000460207,344.2761502000503,None,None,1,,,,,,,,,,,,,,034,2022-06-01_17h54.20.687,Main,2022.1.1,61.16626942942829,
positive,yellow,2,None,k,,,,,,,,,0,67,67,67,,,,,,,,,,,,,,,,,main,None,None,1,1.4952860998455435,346.7736780999694,None,None,1,,,,,,,,,,,,,,034,2022-06-01_17h54.20.687,Main,2022.1.1,61.16626942942829,
positive,red,1,None,None,,,,,,,,,0,68,68,68,,,,,,,,,,,,,,,,,main,None,None,1,1.5017973000649363,349.27330280002207,None,None,1,,,,,,,,,,,,,,034,2022-06-01_17h54.20.687,Main,2022.1.1,61.16626942942829,
positive,yellow,1,None,k,,,,,,,,,0,69,69,69,,,,,,,,,,,,,,,,,main,None,None,1,1.497088999953121,351.776036700001,None,None,1,,,,,,,,,,,,,,034,2022-06-01_17h54.20.687,Main,2022.1.1,61.16626942942829,
negative,yellow,2,k,None,,,,,,,,,0,70,70,70,,,,,,,,,,,,,,,,,main,k,k,1,0.7495323000475764,354.27345259999856,None,None,0,,,,,,,,,,,,,,034,2022-06-01_17h54.20.687,Main,2022.1.1,61.16626942942829,
positive,yellow,1,None,k,,,,,,,,,0,71,71,71,,,,,,,,,,,,,,,,,main,None,None,1,1.4985326998867095,356.0234670001082,None,None,1,,,,,,,,,,,,,,034,2022-06-01_17h54.20.687,Main,2022.1.1,61.16626942942829,
negative,blue,1,None,k,,,,,,,,,0,72,72,72,,,,,,,,,,,,,,,,,main,None,None,1,1.5005285998340696,358.52315280004404,None,None,1,,,,,,,,,,,,,,034,2022-06-01_17h54.20.687,Main,2022.1.1,61.16626942942829,
negative,red,2,None,None,,,,,,,,,0,73,73,73,,,,,,,,,,,,,,,,,main,None,None,1,1.4990795999765396,361.0258627999574,None,None,1,,,,,,,,,,,,,,034,2022-06-01_17h54.20.687,Main,2022.1.1,61.16626942942829,
positive,blue,2,k,None,,,,,,,,,0,74,74,74,,,,,,,,,,,,,,,,,main,k,k,1,0.7858913999516517,363.52331469999626,None,None,0,,,,,,,,,,,,,,034,2022-06-01_17h54.20.687,Main,2022.1.1,61.16626942942829,
negative,blue,2,None,k,,,,,,,,,0,75,75,75,,,,,,,,,,,,,,,,,main,None,None,1,1.493731499882415,365.31584489997476,None,None,1,,,,,,,,,,,,,,034,2022-06-01_17h54.20.687,Main,2022.1.1,61.16626942942829,
negative,blue,2,None,k,,,,,,,,,0,76,76,76,,,,,,,,,,,,,,,,,main,None,None,1,1.5004906000103801,367.8063368999865,None,None,1,,,,,,,,,,,,,,034,2022-06-01_17h54.20.687,Main,2022.1.1,61.16626942942829,
negative,yellow,1,k,None,,,,,,,,,0,77,77,77,,,,,,,,,,,,,,,,,main,k,k,1,0.93574079987593,370.30895649991,None,None,0,,,,,,,,,,,,,,034,2022-06-01_17h54.20.687,Main,2022.1.1,61.16626942942829,
positive,blue,1,k,None,,,,,,,,,0,78,78,78,,,,,,,,,,,,,,,,,main,k,k,1,0.8765269001014531,372.24925630004145,None,None,0,,,,,,,,,,,,,,034,2022-06-01_17h54.20.687,Main,2022.1.1,61.16626942942829,
positive,blue,1,k,None,,,,,,,,,0,79,79,79,,,,,,,,,,,,,,,,,main,k,k,1,0.5827293000184,374.1228183999192,None,None,0,,,,,,,,,,,,,,034,2022-06-01_17h54.20.687,Main,2022.1.1,61.16626942942829,
positive,red,2,None,None,,,,,,,,,0,80,80,80,,,,,,,,,,,,,,,,,main,None,None,1,1.5011771998833865,375.7088927999139,None,None,1,,,,,,,,,,,,,,034,2022-06-01_17h54.20.687,Main,2022.1.1,61.16626942942829,
positive,yellow,2,None,k,,,,,,,,,0,81,81,81,,,,,,,,,,,,,,,,,main,None,None,1,1.4967344999313354,378.20885020005517,None,None,1,,,,,,,,,,,,,,034,2022-06-01_17h54.20.687,Main,2022.1.1,61.16626942942829,
positive,blue,1,k,None,,,,,,,,,0,82,82,82,,,,,,,,,,,,,,,,,main,k,k,1,0.7492290001828223,380.706307800021,None,None,0,,,,,,,,,,,,,,034,2022-06-01_17h54.20.687,Main,2022.1.1,61.16626942942829,
negative,yellow,2,k,None,,,,,,,,,0,83,83,83,,,,,,,,,,,,,,,,,main,k,k,1,1.0345073998905718,382.45632870006375,None,None,0,,,,,,,,,,,,,,034,2022-06-01_17h54.20.687,Main,2022.1.1,61.16626942942829,
positive,blue,2,k,None,,,,,,,,,0,84,84,84,,,,,,,,,,,,,,,,,main,k,k,1,0.7659380999393761,384.48955560009927,None,None,0,,,,,,,,,,,,,,034,2022-06-01_17h54.20.687,Main,2022.1.1,61.16626942942829,
positive,yellow,1,None,k,,,,,,,,,0,85,85,85,,,,,,,,,,,,,,,,,main,None,None,1,1.4971499000675976,386.256211000029,None,None,1,,,,,,,,,,,,,,034,2022-06-01_17h54.20.687,Main,2022.1.1,61.16626942942829,
positive,blue,2,k,None,,,,,,,,,0,86,86,86,,,,,,,,,,,,,,,,,main,k,k,1,0.8341056001372635,388.7559062000364,None,None,0,,,,,,,,,,,,,,034,2022-06-01_17h54.20.687,Main,2022.1.1,61.16626942942829,
positive,blue,1,k,None,,,,,,,,,0,87,87,87,,,,,,,,,,,,,,,,,main,k,k,1,0.7481406000442803,390.5919141001068,None,None,0,,,,,,,,,,,,,,034,2022-06-01_17h54.20.687,Main,2022.1.1,61.16626942942829,
negative,yellow,2,k,None,,,,,,,,,0,88,88,88,,,,,,,,,,,,,,,,,main,k,k,1,0.6856697001494467,392.34190390002914,None,None,0,,,,,,,,,,,,,,034,2022-06-01_17h54.20.687,Main,2022.1.1,61.16626942942829,
negative,blue,2,None,k,,,,,,,,,0,89,89,89,,,,,,,,,,,,,,,,,main,None,None,1,1.4939219998195767,394.0266364000272,None,None,1,,,,,,,,,,,,,,034,2022-06-01_17h54.20.687,Main,2022.1.1,61.16626942942829,
positive,yellow,2,None,k,,,,,,,,,0,90,90,90,,,,,,,,,,,,,,,,,main,None,None,1,1.5006049000658095,396.5224297000095,None,None,1,,,,,,,,,,,,,,034,2022-06-01_17h54.20.687,Main,2022.1.1,61.16626942942829,
negative,yellow,1,k,None,,,,,,,,,0,91,91,91,,,,,,,,,,,,,,,,,main,k,k,1,0.9308794001117349,399.02510310010985,None,None,0,,,,,,,,,,,,,,034,2022-06-01_17h54.20.687,Main,2022.1.1,61.16626942942829,
negative,red,2,None,None,,,,,,,,,0,92,92,92,,,,,,,,,,,,,,,,,main,None,None,1,1.5001004000660032,400.95561540010385,None,None,1,,,,,,,,,,,,,,034,2022-06-01_17h54.20.687,Main,2022.1.1,61.16626942942829,
negative,blue,2,None,k,,,,,,,,,0,93,93,93,,,,,,,,,,,,,,,,,main,None,None,1,1.499060499947518,403.4583409000188,None,None,1,,,,,,,,,,,,,,034,2022-06-01_17h54.20.687,Main,2022.1.1,61.16626942942829,
negative,blue,1,None,k,,,,,,,,,0,94,94,94,,,,,,,,,,,,,,,,,main,None,None,1,1.497127999784425,405.9583111999091,None,None,1,,,,,,,,,,,,,,034,2022-06-01_17h54.20.687,Main,2022.1.1,61.16626942942829,
negative,blue,1,None,k,,,,,,,,,0,95,95,95,,,,,,,,,,,,,,,,,main,None,None,1,1.500603900058195,408.4555240001064,None,None,1,,,,,,,,,,,,,,034,2022-06-01_17h54.20.687,Main,2022.1.1,61.16626942942829,
negative,red,1,None,None,,,,,,,,,0,96,96,96,,,,,,,,,,,,,,,,,main,None,None,1,1.497116700047627,410.9582169998903,None,None,1,,,,,,,,,,,,,,034,2022-06-01_17h54.20.687,Main,2022.1.1,61.16626942942829,
positive,yellow,1,None,k,,,,,,,,,0,97,97,97,,,,,,,,,,,,,,,,,main,None,None,1,1.500678800046444,413.4553574998863,None,None,1,,,,,,,,,,,,,,034,2022-06-01_17h54.20.687,Main,2022.1.1,61.16626942942829,
negative,yellow,1,k,None,,,,,,,,,0,98,98,98,,,,,,,,,,,,,,,,,main,k,k,1,0.7325609000399709,415.9580540000461,None,None,0,,,,,,,,,,,,,,034,2022-06-01_17h54.20.687,Main,2022.1.1,61.16626942942829,
positive,red,1,None,None,,,,,,,,,0,99,99,99,,,,,,,,,,,,,,,,,main,None,None,1,1.4970511000137776,417.6914353999309,None,None,1,,,,,,,,,,,,,,034,2022-06-01_17h54.20.687,Main,2022.1.1,61.16626942942829,
positive,blue,1,k,None,,,,,,,,,0,100,100,100,,,,,,,,,,,,,,,,,main,k,k,1,0.7318346998654306,420.18862379994243,None,None,0,,,,,,,,,,,,,,034,2022-06-01_17h54.20.687,Main,2022.1.1,61.16626942942829,
negative,yellow,1,k,None,,,,,,,,,0,101,101,101,,,,,,,,,,,,,,,,,main,k,k,1,0.8347198001574725,421.9245897999499,None,None,0,,,,,,,,,,,,,,034,2022-06-01_17h54.20.687,Main,2022.1.1,61.16626942942829,
negative,blue,2,None,k,,,,,,,,,0,102,102,102,,,,,,,,,,,,,,,,,main,None,None,1,1.4970378000289202,423.7579596999567,None,None,1,,,,,,,,,,,,,,034,2022-06-01_17h54.20.687,Main,2022.1.1,61.16626942942829,
negative,yellow,2,k,None,,,,,,,,,0,103,103,103,,,,,,,,,,,,,,,,,main,k,k,1,0.6149891999084502,426.2552207999397,None,None,0,,,,,,,,,,,,,,034,2022-06-01_17h54.20.687,Main,2022.1.1,61.16626942942829,
positive,yellow,2,None,k,,,,,,,,,0,104,104,104,,,,,,,,,,,,,,,,,main,None,None,1,1.5042814000044018,427.87455850001425,None,None,1,,,,,,,,,,,,,,034,2022-06-01_17h54.20.687,Main,2022.1.1,61.16626942942829,
positive,blue,1,k,None,,,,,,,,,0,105,105,105,,,,,,,,,,,,,,,,,main,k,k,1,1.2437932000029832,430.37545179994777,None,None,0,,,,,,,,,,,,,,034,2022-06-01_17h54.20.687,Main,2022.1.1,61.16626942942829,
positive,blue,2,k,None,,,,,,,,,0,106,106,106,,,,,,,,,,,,,,,,,main,k,k,1,0.7156810001470149,432.62419550004415,None,None,0,,,,,,,,,,,,,,034,2022-06-01_17h54.20.687,Main,2022.1.1,61.16626942942829,
negative,blue,1,None,k,,,,,,,,,0,107,107,107,,,,,,,,,,,,,,,,,main,None,None,1,1.498848999850452,434.3385983000044,None,None,1,,,,,,,,,,,,,,034,2022-06-01_17h54.20.687,Main,2022.1.1,61.16626942942829,
positive,yellow,2,None,k,,,,,,,,,0,108,108,108,,,,,,,,,,,,,,,,,main,None,None,1,1.4994882999453694,436.838536700001,None,None,1,,,,,,,,,,,,,,034,2022-06-01_17h54.20.687,Main,2022.1.1,61.16626942942829,
negative,yellow,1,k,None,,,,,,,,,0,109,109,109,,,,,,,,,,,,,,,,,main,k,k,1,0.9487598000559956,439.33818540000357,None,None,0,,,,,,,,,,,,,,034,2022-06-01_17h54.20.687,Main,2022.1.1,61.16626942942829,
negative,blue,2,None,k,,,,,,,,,0,110,110,110,,,,,,,,,,,,,,,,,main,None,None,1,1.5008754001464695,441.2885875001084,None,None,1,,,,,,,,,,,,,,034,2022-06-01_17h54.20.687,Main,2022.1.1,61.16626942942829,
positive,blue,2,k,None,,,,,,,,,0,111,111,111,,,,,,,,,,,,,,,,,main,k,k,1,1.0314593999646604,443.7908866999205,None,None,0,,,,,,,,,,,,,,034,2022-06-01_17h54.20.687,Main,2022.1.1,61.16626942942829,
negative,blue,1,None,k,,,,,,,,,0,112,112,112,,,,,,,,,,,,,,,,,main,None,None,1,1.4999444000422955,445.82139379996806,None,None,1,,,,,,,,,,,,,,034,2022-06-01_17h54.20.687,Main,2022.1.1,61.16626942942829,
positive,yellow,1,None,k,,,,,,,,,0,113,113,113,,,,,,,,,,,,,,,,,main,None,None,1,1.497151899849996,448.3240865999833,None,None,1,,,,,,,,,,,,,,034,2022-06-01_17h54.20.687,Main,2022.1.1,61.16626942942829,
negative,red,1,None,None,,,,,,,,,0,114,114,114,,,,,,,,,,,,,,,,,main,None,None,1,1.5006293000187725,450.8212886999827,None,None,1,,,,,,,,,,,,,,034,2022-06-01_17h54.20.687,Main,2022.1.1,61.16626942942829,
positive,red,1,None,None,,,,,,,,,0,115,115,115,,,,,,,,,,,,,,,,,main,None,None,1,1.4991180000361055,453.3240910000168,None,None,1,,,,,,,,,,,,,,034,2022-06-01_17h54.20.687,Main,2022.1.1,61.16626942942829,
negative,red,2,None,None,,,,,,,,,0,116,116,116,,,,,,,,,,,,,,,,,main,None,None,1,1.4972426998429,455.8239899999462,None,None,1,,,,,,,,,,,,,,034,2022-06-01_17h54.20.687,Main,2022.1.1,61.16626942942829,
negative,yellow,2,k,None,,,,,,,,,0,117,117,117,,,,,,,,,,,,,,,,,main,k,k,1,1.7826674999669194,458.3211898000445,None,None,0,,,,,,,,,,,,,,034,2022-06-01_17h54.20.687,Main,2022.1.1,61.16626942942829,
positive,yellow,1,None,k,,,,,,,,,0,118,118,118,,,,,,,,,,,,,,,,,main,None,None,1,1.498882999876514,462.10717700002715,None,None,1,,,,,,,,,,,,,,034,2022-06-01_17h54.20.687,Main,2022.1.1,61.16626942942829,
positive,red,2,None,None,,,,,,,,,0,119,119,119,,,,,,,,,,,,,,,,,main,None,None,1,1.5002034998033196,464.6044157000724,None,None,1,,,,,,,,,,,,,,034,2022-06-01_17h54.20.687,Main,2022.1.1,61.16626942942829,
positive,blue,2,k,None,,,,,,,,,0,120,120,120,,,,,,,,,,,,,,,,,main,k,k,1,0.8968100999481976,467.1070828998927,None,None,0,,,,,,,,,,,,,,034,2022-06-01_17h54.20.687,Main,2022.1.1,61.16626942942829,
negative,red,1,None,None,,,,,,,,,0,121,121,121,,,,,,,,,,,,,,,,,main,None,None,1,1.4991397999692708,469.00686570000835,None,None,1,,,,,,,,,,,,,,034,2022-06-01_17h54.20.687,Main,2022.1.1,61.16626942942829,
positive,yellow,2,None,k,,,,,,,,,0,122,122,122,,,,,,,,,,,,,,,,,main,None,None,1,1.5007265999447554,471.5042036001105,None,None,1,,,,,,,,,,,,,,034,2022-06-01_17h54.20.687,Main,2022.1.1,61.16626942942829,
negative,red,2,None,None,,,,,,,,,0,123,123,123,,,,,,,,,,,,,,,,,main,None,None,1,1.499025900149718,474.006973200012,None,None,1,,,,,,,,,,,,,,034,2022-06-01_17h54.20.687,Main,2022.1.1,61.16626942942829,
negative,yellow,2,k,None,,,,,,,,,0,124,124,124,,,,,,,,,,,,,,,,,main,k,k,1,0.846732399892062,476.50690710009076,None,None,0,,,,,,,,,,,,,,034,2022-06-01_17h54.20.687,Main,2022.1.1,61.16626942942829,
positive,red,1,None,None,,,,,,,,,0,125,125,125,,,,,,,,,,,,,,,,,main,None,None,1,1.4983544000424445,478.3543660999276,None,None,1,,,,,,,,,,,,,,034,2022-06-01_17h54.20.687,Main,2022.1.1,61.16626942942829,
negative,blue,2,None,k,,,,,,,,,0,126,126,126,,,,,,,,,,,,,,,,,main,None,None,1,1.5000146999955177,480.85402210010216,None,None,1,,,,,,,,,,,,,,034,2022-06-01_17h54.20.687,Main,2022.1.1,61.16626942942829,
negative,blue,1,None,k,,,,,,,,,0,127,127,127,,,,,,,,,,,,,,,,,main,None,None,1,1.5009164998773485,483.3540699998848,None,None,1,,,,,,,,,,,,,,034,2022-06-01_17h54.20.687,Main,2022.1.1,61.16626942942829,
negative,yellow,1,k,None,,,,,,,,,0,128,128,128,,,,,,,,,,,,,,,,,main,k,k,1,0.7798822999466211,485.8567282001022,None,None,0,,,,,,,,,,,,,,034,2022-06-01_17h54.20.687,Main,2022.1.1,61.16626942942829,
negative,yellow,1,k,None,,,,,,,,,0,129,129,129,,,,,,,,,,,,,,,,,main,k,k,1,0.8156330999918282,487.63986469991505,None,None,0,,,,,,,,,,,,,,034,2022-06-01_17h54.20.687,Main,2022.1.1,61.16626942942829,
positive,blue,1,k,None,,,,,,,,,0,130,130,130,,,,,,,,,,,,,,,,,main,k,k,1,0.6976874999236315,489.4565655000042,None,None,0,,,,,,,,,,,,,,034,2022-06-01_17h54.20.687,Main,2022.1.1,61.16626942942829,
negative,blue,1,None,k,,,,,,,,,0,131,131,131,,,,,,,,,,,,,,,,,main,None,None,1,1.5014740000478923,491.1538249000441,None,None,1,,,,,,,,,,,,,,034,2022-06-01_17h54.20.687,Main,2022.1.1,61.16626942942829,
negative,blue,2,None,k,,,,,,,,,0,132,132,132,,,,,,,,,,,,,,,,,main,None,None,1,1.497064600000158,493.6565425998997,None,None,1,,,,,,,,,,,,,,034,2022-06-01_17h54.20.687,Main,2022.1.1,61.16626942942829,
positive,blue,2,k,None,,,,,,,,,0,133,133,133,,,,,,,,,,,,,,,,,main,k,k,1,0.6317644000519067,496.15377980004996,None,None,0,,,,,,,,,,,,,,034,2022-06-01_17h54.20.687,Main,2022.1.1,61.16626942942829,
positive,red,2,None,None,,,,,,,,,0,134,134,134,,,,,,,,,,,,,,,,,main,None,None,1,1.5011682000476867,497.78709029988386,None,None,1,,,,,,,,,,,,,,034,2022-06-01_17h54.20.687,Main,2022.1.1,61.16626942942829,
negative,yellow,2,k,None,,,,,,,,,0,135,135,135,,,,,,,,,,,,,,,,,main,k,k,1,0.7463501999154687,500.2896988999564,None,None,0,,,,,,,,,,,,,,034,2022-06-01_17h54.20.687,Main,2022.1.1,61.16626942942829,
positive,yellow,2,None,k,,,,,,,,,0,136,136,136,,,,,,,,,,,,,,,,,main,None,None,1,1.5016270000487566,502.0369506001007,None,None,1,,,,,,,,,,,,,,034,2022-06-01_17h54.20.687,Main,2022.1.1,61.16626942942829,
positive,blue,1,k,None,,,,,,,,,0,137,137,137,,,,,,,,,,,,,,,,,main,k,k,1,0.6493988002184778,504.5396652999334,None,None,0,,,,,,,,,,,,,,034,2022-06-01_17h54.20.687,Main,2022.1.1,61.16626942942829,
positive,yellow,1,None,k,,,,,,,,,0,138,138,138,,,,,,,,,,,,,,,,,main,None,None,1,1.496819700114429,506.1897191000171,None,None,1,,,,,,,,,,,,,,034,2022-06-01_17h54.20.687,Main,2022.1.1,61.16626942942829,
positive,yellow,1,None,k,,,,,,,,,0,139,139,139,,,,,,,,,,,,,,,,,main,None,None,1,1.500563999870792,508.6868084000889,None,None,1,,,,,,,,,,,,,,034,2022-06-01_17h54.20.687,Main,2022.1.1,61.16626942942829,
positive,yellow,1,None,k,,,,,,,,,0,140,140,140,,,,,,,,,,,,,,,,,main,None,None,1,1.4965206999331713,511.18951490009204,None,None,1,,,,,,,,,,,,,,034,2022-06-01_17h54.20.687,Main,2022.1.1,61.16626942942829,
positive,blue,1,k,None,,,,,,,,,0,141,141,141,,,,,,,,,,,,,,,,,main,k,k,1,0.6991081000305712,513.6925087999552,None,None,0,,,,,,,,,,,,,,034,2022-06-01_17h54.20.687,Main,2022.1.1,61.16626942942829,
positive,blue,2,k,None,,,,,,,,,0,142,142,142,,,,,,,,,,,,,,,,,main,k,k,1,0.7327985998708755,515.3866518998984,None,None,0,,,,,,,,,,,,,,034,2022-06-01_17h54.20.687,Main,2022.1.1,61.16626942942829,
positive,yellow,2,None,k,,,,,,,,,0,143,143,143,,,,,,,,,,,,,,,,,main,None,None,1,1.5010229998733848,517.1228116999846,None,None,1,,,,,,,,,,,,,,034,2022-06-01_17h54.20.687,Main,2022.1.1,61.16626942942829,
negative,yellow,2,k,None,,,,,,,,,0,144,144,144,,,,,,,,,,,,,,,,,main,k,k,1,0.7131102001294494,519.6227241000161,None,None,0,,,,,,,,,,,,,,034,2022-06-01_17h54.20.687,Main,2022.1.1,61.16626942942829,
negative,blue,2,None,k,,,,,,,,,0,145,145,145,,,,,,,,,,,,,,,,,main,None,None,1,1.5016501999925822,521.3365666999016,None,None,1,,,,,,,,,,,,,,034,2022-06-01_17h54.20.687,Main,2022.1.1,61.16626942942829,
negative,red,1,None,None,,,,,,,,,0,146,146,146,,,,,,,,,,,,,,,,,main,None,None,1,1.4988571999128908,523.8392700999975,None,None,1,,,,,,,,,,,,,,034,2022-06-01_17h54.20.687,Main,2022.1.1,61.16626942942829,
positive,blue,1,k,None,,,,,,,,,0,147,147,147,,,,,,,,,,,,,,,,,main,k,k,1,0.6134997000917792,526.3390983999707,None,None,0,,,,,,,,,,,,,,034,2022-06-01_17h54.20.687,Main,2022.1.1,61.16626942942829,
positive,yellow,1,None,k,,,,,,,,,0,148,148,148,,,,,,,,,,,,,,,,,main,None,None,1,1.499539199983701,527.9591421999503,None,None,1,,,,,,,,,,,,,,034,2022-06-01_17h54.20.687,Main,2022.1.1,61.16626942942829,
negative,red,2,None,None,,,,,,,,,0,149,149,149,,,,,,,,,,,,,,,,,main,None,None,1,1.5007621000986546,530.4531014000531,None,None,1,,,,,,,,,,,,,,034,2022-06-01_17h54.20.687,Main,2022.1.1,61.16626942942829,
negative,blue,1,None,k,,,,,,,,,0,150,150,150,,,,,,,,,,,,,,,,,main,None,k,0,0.7983339999336749,532.9557527999859,None,None,1,,,,,,,,,,,,,,034,2022-06-01_17h54.20.687,Main,2022.1.1,61.16626942942829,
negative,yellow,2,k,None,,,,,,,,,0,151,151,151,,,,,,,,,,,,,,,,,main,k,k,1,0.9867948999162763,535.7530012000352,None,None,0,,,,,,,,,,,,,,034,2022-06-01_17h54.20.687,Main,2022.1.1,61.16626942942829,
negative,blue,2,None,k,,,,,,,,,0,152,152,152,,,,,,,,,,,,,,,,,main,None,None,1,1.4985665001440793,537.7368220000062,None,None,1,,,,,,,,,,,,,,034,2022-06-01_17h54.20.687,Main,2022.1.1,61.16626942942829,
negative,yellow,1,k,None,,,,,,,,,0,153,153,153,,,,,,,,,,,,,,,,,main,k,k,1,0.8633198998868465,540.2389974000398,None,None,0,,,,,,,,,,,,,,034,2022-06-01_17h54.20.687,Main,2022.1.1,61.16626942942829,
negative,blue,1,None,k,,,,,,,,,0,154,154,154,,,,,,,,,,,,,,,,,main,None,None,1,1.5014837000053376,542.1028132999782,None,None,1,,,,,,,,,,,,,,034,2022-06-01_17h54.20.687,Main,2022.1.1,61.16626942942829,
positive,yellow,2,None,k,,,,,,,,,0,155,155,155,,,,,,,,,,,,,,,,,main,None,k,0,0.7302473001182079,544.605540300021,None,None,1,,,,,,,,,,,,,,034,2022-06-01_17h54.20.687,Main,2022.1.1,61.16626942942829,
positive,red,2,None,None,,,,,,,,,0,156,156,156,,,,,,,,,,,,,,,,,main,None,None,1,1.5033888998441398,547.3527114000171,None,None,1,,,,,,,,,,,,,,034,2022-06-01_17h54.20.687,Main,2022.1.1,61.16626942942829,
positive,red,1,None,None,,,,,,,,,0,157,157,157,,,,,,,,,,,,,,,,,main,None,None,1,1.4985473998822272,549.8554320998956,None,None,1,,,,,,,,,,,,,,034,2022-06-01_17h54.20.687,Main,2022.1.1,61.16626942942829,
positive,blue,2,k,None,,,,,,,,,0,158,158,158,,,,,,,,,,,,,,,,,main,k,k,1,0.8143857000395656,552.3553698000032,None,None,0,,,,,,,,,,,,,,034,2022-06-01_17h54.20.687,Main,2022.1.1,61.16626942942829,
negative,yellow,1,k,None,,,,,,,,,0,159,159,159,,,,,,,,,,,,,,,,,main,k,k,1,0.9316680999472737,554.169247899903,None,None,0,,,,,,,,,,,,,,034,2022-06-01_17h54.20.687,Main,2022.1.1,61.16626942942829,
negative,red,2,None,None,,,,,,,,,0,160,160,160,,,,,,,,,,,,,,,,,main,None,None,1,1.500848500058055,556.1029362000991,None,None,1,,,,,,,,,,,,,,034,2022-06-01_17h54.20.687,Main,2022.1.1,61.16626942942829,
negative,blue,1,None,k,,,,,,,,,0,161,161,161,,,,,,,,,,,,,,,,,main,None,None,1,1.4971483999397606,558.6052540000528,None,None,1,,,,,,,,,,,,,,034,2022-06-01_17h54.20.687,Main,2022.1.1,61.16626942942829,
negative,blue,1,None,k,,,,,,,,,0,162,162,162,,,,,,,,,,,,,,,,,main,None,None,1,1.5007398000452667,561.1024585999548,None,None,1,,,,,,,,,,,,,,034,2022-06-01_17h54.20.687,Main,2022.1.1,61.16626942942829,
negative,yellow,1,k,None,,,,,,,,,0,163,163,163,,,,,,,,,,,,,,,,,main,k,k,1,0.8812088000122458,563.6051690001041,None,None,0,,,,,,,,,,,,,,034,2022-06-01_17h54.20.687,Main,2022.1.1,61.16626942942829,
negative,yellow,1,k,None,,,,,,,,,0,164,164,164,,,,,,,,,,,,,,,,,main,k,k,1,0.9642652999609709,565.4856902998872,None,None,0,,,,,,,,,,,,,,034,2022-06-01_17h54.20.687,Main,2022.1.1,61.16626942942829,
positive,yellow,1,None,k,,,,,,,,,0,165,165,165,,,,,,,,,,,,,,,,,main,None,None,1,1.5015684999525547,567.4523767998908,None,None,1,,,,,,,,,,,,,,034,2022-06-01_17h54.20.687,Main,2022.1.1,61.16626942942829,
negative,red,1,None,None,,,,,,,,,0,166,166,166,,,,,,,,,,,,,,,,,main,None,None,1,1.4966183998622,569.9550401000306,None,None,1,,,,,,,,,,,,,,034,2022-06-01_17h54.20.687,Main,2022.1.1,61.16626942942829,
negative,yellow,2,k,None,,,,,,,,,0,167,167,167,,,,,,,,,,,,,,,,,main,k,k,1,0.9488929000217468,572.4548535998911,None,None,0,,,,,,,,,,,,,,034,2022-06-01_17h54.20.687,Main,2022.1.1,61.16626942942829,
positive,blue,2,k,None,,,,,,,,,0,168,168,168,,,,,,,,,,,,,,,,,main,k,k,1,0.8686300001572818,574.4021745999344,None,None,0,,,,,,,,,,,,,,034,2022-06-01_17h54.20.687,Main,2022.1.1,61.16626942942829,
positive,red,2,None,None,,,,,,,,,0,169,169,169,,,,,,,,,,,,,,,,,main,None,None,1,1.4988345000892878,576.2716306000948,None,None,1,,,,,,,,,,,,,,034,2022-06-01_17h54.20.687,Main,2022.1.1,61.16626942942829,
positive,red,1,None,None,,,,,,,,,0,170,170,170,,,,,,,,,,,,,,,,,main,None,None,1,1.497123199980706,578.7715501000639,None,None,1,,,,,,,,,,,,,,034,2022-06-01_17h54.20.687,Main,2022.1.1,61.16626942942829,
negative,blue,2,None,k,,,,,,,,,0,171,171,171,,,,,,,,,,,,,,,,,main,None,None,1,1.5005926999729127,581.268706999952,None,None,1,,,,,,,,,,,,,,034,2022-06-01_17h54.20.687,Main,2022.1.1,61.16626942942829,
positive,blue,2,k,None,,,,,,,,,0,172,172,172,,,,,,,,,,,,,,,,,main,k,k,1,0.7827987999189645,583.7714368000161,None,None,0,,,,,,,,,,,,,,034,2022-06-01_17h54.20.687,Main,2022.1.1,61.16626942942829,
negative,yellow,2,k,None,,,,,,,,,0,173,173,173,,,,,,,,,,,,,,,,,main,k,k,1,0.7795422999188304,585.5547428000718,None,None,0,,,,,,,,,,,,,,034,2022-06-01_17h54.20.687,Main,2022.1.1,61.16626942942829,
positive,yellow,2,None,k,,,,,,,,,0,174,174,174,,,,,,,,,,,,,,,,,main,None,None,1,1.5016594999469817,587.335253499914,None,None,1,,,,,,,,,,,,,,034,2022-06-01_17h54.20.687,Main,2022.1.1,61.16626942942829,
negative,blue,2,None,k,,,,,,,,,0,175,175,175,,,,,,,,,,,,,,,,,main,None,None,1,1.4963706999551505,589.8379820000846,None,None,1,,,,,,,,,,,,,,034,2022-06-01_17h54.20.687,Main,2022.1.1,61.16626942942829,
positive,blue,1,k,None,,,,,,,,,0,176,176,176,,,,,,,,,,,,,,,,,main,k,k,1,0.8158419001847506,592.3410678999498,None,None,0,,,,,,,,,,,,,,034,2022-06-01_17h54.20.687,Main,2022.1.1,61.16626942942829,
positive,yellow,1,None,k,,,,,,,,,0,177,177,177,,,,,,,,,,,,,,,,,main,None,None,1,1.501694899983704,594.1517845999915,None,None,1,,,,,,,,,,,,,,034,2022-06-01_17h54.20.687,Main,2022.1.1,61.16626942942829,
positive,blue,1,k,None,,,,,,,,,0,178,178,178,,,,,,,,,,,,,,,,,main,k,k,1,1.7640831000171602,596.6545138999354,None,None,0,,,,,,,,,,,,,,034,2022-06-01_17h54.20.687,Main,2022.1.1,61.16626942942829,
positive,yellow,2,None,k,,,,,,,,,0,179,179,179,,,,,,,,,,,,,,,,,main,None,None,1,1.4867416999768466,600.4183918000199,None,None,1,,,,,,,,,,,,,,034,2022-06-01_17h54.20.687,Main,2022.1.1,61.16626942942829,
positive,blue,1,k,None,,,,,,,,,0,180,180,180,,,,,,,,,,,,,,,,,main,k,k,1,0.6793617000803351,602.9044510000385,None,None,0,,,,,,,,,,,,,,034,2022-06-01_17h54.20.687,Main,2022.1.1,61.16626942942829,
negative,red,1,None,None,,,,,,,,,0,181,181,181,,,,,,,,,,,,,,,,,main,None,None,1,1.5016820998862386,604.5849085000809,None,None,1,,,,,,,,,,,,,,034,2022-06-01_17h54.20.687,Main,2022.1.1,61.16626942942829,
negative,blue,1,None,k,,,,,,,,,0,182,182,182,,,,,,,,,,,,,,,,,main,None,None,1,1.499115200014785,607.0876325999852,None,None,1,,,,,,,,,,,,,,034,2022-06-01_17h54.20.687,Main,2022.1.1,61.16626942942829,
negative,yellow,2,k,None,,,,,,,,,0,183,183,183,,,,,,,,,,,,,,,,,main,k,k,1,0.7797081000171602,609.5875955999363,None,None,0,,,,,,,,,,,,,,034,2022-06-01_17h54.20.687,Main,2022.1.1,61.16626942942829,
positive,yellow,2,None,k,,,,,,,,,0,184,184,184,,,,,,,,,,,,,,,,,main,None,None,1,1.501733599929139,611.3681133000646,None,None,1,,,,,,,,,,,,,,034,2022-06-01_17h54.20.687,Main,2022.1.1,61.16626942942829,
positive,yellow,1,None,k,,,,,,,,,0,185,185,185,,,,,,,,,,,,,,,,,main,None,None,1,1.4990255001466721,613.8708552999888,None,None,1,,,,,,,,,,,,,,034,2022-06-01_17h54.20.687,Main,2022.1.1,61.16626942942829,
positive,red,2,None,None,,,,,,,,,0,186,186,186,,,,,,,,,,,,,,,,,main,None,None,1,1.4972216000314802,616.370800799923,None,None,1,,,,,,,,,,,,,,034,2022-06-01_17h54.20.687,Main,2022.1.1,61.16626942942829,
positive,blue,1,k,None,,,,,,,,,0,187,187,187,,,,,,,,,,,,,,,,,main,k,k,1,0.7985998999793082,618.8680052000564,None,None,0,,,,,,,,,,,,,,034,2022-06-01_17h54.20.687,Main,2022.1.1,61.16626942942829,
negative,yellow,1,k,None,,,,,,,,,0,188,188,188,,,,,,,,,,,,,,,,,main,k,k,1,0.836810200009495,620.6706962999888,None,None,0,,,,,,,,,,,,,,034,2022-06-01_17h54.20.687,Main,2022.1.1,61.16626942942829,
positive,yellow,2,None,k,,,,,,,,,0,189,189,189,,,,,,,,,,,,,,,,,main,None,None,1,1.4948819000273943,622.5087433001027,None,None,1,,,,,,,,,,,,,,034,2022-06-01_17h54.20.687,Main,2022.1.1,61.16626942942829,
negative,yellow,2,k,None,,,,,,,,,0,190,190,190,,,,,,,,,,,,,,,,,main,k,k,1,0.6675243999343365,625.0012290999293,None,None,0,,,,,,,,,,,,,,034,2022-06-01_17h54.20.687,Main,2022.1.1,61.16626942942829,
negative,yellow,1,k,None,,,,,,,,,0,191,191,191,,,,,,,,,,,,,,,,,main,k,k,1,0.7489825000520796,626.6706081000157,None,None,0,,,,,,,,,,,,,,034,2022-06-01_17h54.20.687,Main,2022.1.1,61.16626942942829,
positive,blue,2,k,None,,,,,,,,,0,192,192,192,,,,,,,,,,,,,,,,,main,k,k,1,0.6795292999595404,628.4205813000444,None,None,0,,,,,,,,,,,,,,034,2022-06-01_17h54.20.687,Main,2022.1.1,61.16626942942829,
positive,yellow,1,None,k,,,,,,,,,0,193,193,193,,,,,,,,,,,,,,,,,main,None,None,1,1.501678999979049,630.1010682999622,None,None,1,,,,,,,,,,,,,,034,2022-06-01_17h54.20.687,Main,2022.1.1,61.16626942942829,
negative,red,2,None,None,,,,,,,,,0,194,194,194,,,,,,,,,,,,,,,,,main,None,None,1,1.4965987999457866,632.6038285999093,None,None,1,,,,,,,,,,,,,,034,2022-06-01_17h54.20.687,Main,2022.1.1,61.16626942942829,
positive,red,1,None,None,,,,,,,,,0,195,195,195,,,,,,,,,,,,,,,,,main,None,None,1,1.4995983000844717,635.1012565998826,None,None,1,,,,,,,,,,,,,,034,2022-06-01_17h54.20.687,Main,2022.1.1,61.16626942942829,
negative,blue,1,None,k,,,,,,,,,0,196,196,196,,,,,,,,,,,,,,,,,main,None,None,1,1.5006744998972863,637.6009281999432,None,None,1,,,,,,,,,,,,,,034,2022-06-01_17h54.20.687,Main,2022.1.1,61.16626942942829,
positive,blue,2,k,None,,,,,,,,,0,197,197,197,,,,,,,,,,,,,,,,,main,k,k,1,0.7468208000063896,640.103655999992,None,None,0,,,,,,,,,,,,,,034,2022-06-01_17h54.20.687,Main,2022.1.1,61.16626942942829,
negative,blue,2,None,k,,,,,,,,,0,198,198,198,,,,,,,,,,,,,,,,,main,None,None,1,1.4987124998588115,641.8536050000694,None,None,1,,,,,,,,,,,,,,034,2022-06-01_17h54.20.687,Main,2022.1.1,61.16626942942829,
negative,blue,2,None,k,,,,,,,,,0,199,199,199,,,,,,,,,,,,,,,,,main,None,None,1,1.4995035999454558,644.3510779000353,None,None,1,,,,,,,,,,,,,,034,2022-06-01_17h54.20.687,Main,2022.1.1,61.16626942942829,
positive,blue,2,k,None,,,,,,,,,0,200,200,200,,,,,,,,,,,,,,,,,main,k,k,1,0.681543700164184,646.8507399000227,None,None,0,,,,,,,,,,,,,,034,2022-06-01_17h54.20.687,Main,2022.1.1,61.16626942942829,
positive,blue,2,k,None,,,,,,,,,0,201,201,201,,,,,,,,,,,,,,,,,main,k,k,1,0.7185760999564081,648.5340988000389,None,None,0,,,,,,,,,,,,,,034,2022-06-01_17h54.20.687,Main,2022.1.1,61.16626942942829,
negative,yellow,2,k,None,,,,,,,,,0,202,202,202,,,,,,,,,,,,,,,,,main,k,k,1,0.7490284000523388,650.2534574999008,None,None,0,,,,,,,,,,,,,,034,2022-06-01_17h54.20.687,Main,2022.1.1,61.16626942942829,
positive,red,1,None,None,,,,,,,,,0,203,203,203,,,,,,,,,,,,,,,,,main,None,None,1,1.496955200098455,652.0033875999507,None,None,1,,,,,,,,,,,,,,034,2022-06-01_17h54.20.687,Main,2022.1.1,61.16626942942829,
negative,blue,2,None,k,,,,,,,,,0,204,204,204,,,,,,,,,,,,,,,,,main,None,None,1,1.5008029998280108,654.5006319000386,None,None,1,,,,,,,,,,,,,,034,2022-06-01_17h54.20.687,Main,2022.1.1,61.16626942942829,
negative,red,1,None,None,,,,,,,,,0,205,205,205,,,,,,,,,,,,,,,,,main,None,None,1,1.4961753999814391,657.0032852999866,None,None,1,,,,,,,,,,,,,,034,2022-06-01_17h54.20.687,Main,2022.1.1,61.16626942942829,
negative,blue,2,None,k,,,,,,,,,0,206,206,206,,,,,,,,,,,,,,,,,main,None,None,1,1.500003800028935,659.5007368999068,None,None,1,,,,,,,,,,,,,,034,2022-06-01_17h54.20.687,Main,2022.1.1,61.16626942942829,
negative,yellow,2,k,None,,,,,,,,,0,207,207,207,,,,,,,,,,,,,,,,,main,k,k,1,0.9650346001144499,662.0004354999401,None,None,0,,,,,,,,,,,,,,034,2022-06-01_17h54.20.687,Main,2022.1.1,61.16626942942829,
positive,yellow,2,None,k,,,,,,,,,0,208,208,208,,,,,,,,,,,,,,,,,main,None,None,1,1.5012982001062483,663.9698409000412,None,None,1,,,,,,,,,,,,,,034,2022-06-01_17h54.20.687,Main,2022.1.1,61.16626942942829,
negative,yellow,1,k,None,,,,,,,,,0,209,209,209,,,,,,,,,,,,,,,,,main,k,k,1,0.7798159001395106,666.469782399945,None,None,0,,,,,,,,,,,,,,034,2022-06-01_17h54.20.687,Main,2022.1.1,61.16626942942829,
negative,red,2,None,None,,,,,,,,,0,210,210,210,,,,,,,,,,,,,,,,,main,None,None,1,1.5015991998370737,668.2503188000992,None,None,1,,,,,,,,,,,,,,034,2022-06-01_17h54.20.687,Main,2022.1.1,61.16626942942829,
negative,blue,1,None,k,,,,,,,,,0,211,211,211,,,,,,,,,,,,,,,,,main,None,None,1,1.4989589999895543,670.7530189999379,None,None,1,,,,,,,,,,,,,,034,2022-06-01_17h54.20.687,Main,2022.1.1,61.16626942942829,
negative,yellow,1,k,None,,,,,,,,,0,212,212,212,,,,,,,,,,,,,,,,,main,k,k,1,0.7465248999651521,673.252940800041,None,None,0,,,,,,,,,,,,,,034,2022-06-01_17h54.20.687,Main,2022.1.1,61.16626942942829,
positive,blue,1,k,None,,,,,,,,,0,213,213,213,,,,,,,,,,,,,,,,,main,k,k,1,0.7863149999175221,675.0001719000284,None,None,0,,,,,,,,,,,,,,034,2022-06-01_17h54.20.687,Main,2022.1.1,61.16626942942829,
positive,blue,1,k,None,,,,,,,,,0,214,214,214,,,,,,,,,,,,,,,,,main,k,k,1,0.6144801999907941,676.7863203999586,None,None,0,,,,,,,,,,,,,,034,2022-06-01_17h54.20.687,Main,2022.1.1,61.16626942942829,
positive,yellow,1,None,k,,,,,,,,,0,215,215,215,,,,,,,,,,,,,,,,,main,None,None,1,1.4963413998484612,678.4028996999841,None,None,1,,,,,,,,,,,,,,034,2022-06-01_17h54.20.687,Main,2022.1.1,61.16626942942829,
positive,yellow,1,None,k,,,,,,,,,0,216,216,216,,,,,,,,,,,,,,,,,main,None,None,1,1.4996492001228034,680.9003498000093,None,None,1,,,,,,,,,,,,,,034,2022-06-01_17h54.20.687,Main,2022.1.1,61.16626942942829,
positive,yellow,2,None,k,,,,,,,,,0,217,217,217,,,,,,,,,,,,,,,,,main,None,None,1,1.500700999982655,683.4000587998889,None,None,1,,,,,,,,,,,,,,034,2022-06-01_17h54.20.687,Main,2022.1.1,61.16626942942829,
negative,blue,1,None,k,,,,,,,,,0,218,218,218,,,,,,,,,,,,,,,,,main,None,None,1,1.5019815999548882,685.9027593999635,None,None,1,,,,,,,,,,,,,,034,2022-06-01_17h54.20.687,Main,2022.1.1,61.16626942942829,
positive,red,2,None,None,,,,,,,,,0,219,219,219,,,,,,,,,,,,,,,,,main,None,None,1,1.4942153000738472,688.403873299947,None,None,1,,,,,,,,,,,,,,034,2022-06-01_17h54.20.687,Main,2022.1.1,61.16626942942829,
positive,yellow,1,None,k,,,,,,,,,0,220,220,220,,,,,,,,,,,,,,,,,main,None,None,1,1.5005725000519305,690.8999658999965,None,None,1,,,,,,,,,,,,,,034,2022-06-01_17h54.20.687,Main,2022.1.1,61.16626942942829,
positive,blue,1,k,None,,,,,,,,,0,221,221,221,,,,,,,,,,,,,,,,,main,k,k,1,0.8991272998973727,693.4026444000192,None,None,0,,,,,,,,,,,,,,034,2022-06-01_17h54.20.687,Main,2022.1.1,61.16626942942829,
positive,yellow,2,None,k,,,,,,,,,0,222,222,222,,,,,,,,,,,,,,,,,main,None,None,1,1.4970692000351846,695.3000477000605,None,None,1,,,,,,,,,,,,,,034,2022-06-01_17h54.20.687,Main,2022.1.1,61.16626942942829,
negative,yellow,1,k,None,,,,,,,,,0,223,223,223,,,,,,,,,,,,,,,,,main,k,k,1,0.8656287998892367,697.7997743999586,None,None,0,,,,,,,,,,,,,,034,2022-06-01_17h54.20.687,Main,2022.1.1,61.16626942942829,
positive,yellow,2,None,k,,,,,,,,,0,224,224,224,,,,,,,,,,,,,,,,,main,None,None,1,1.500555699924007,699.6663754999172,None,None,1,,,,,,,,,,,,,,034,2022-06-01_17h54.20.687,Main,2022.1.1,61.16626942942829,
negative,yellow,2,k,None,,,,,,,,,0,225,225,225,,,,,,,,,,,,,,,,,main,k,k,1,1.1465373998507857,702.1690690999385,None,None,0,,,,,,,,,,,,,,034,2022-06-01_17h54.20.687,Main,2022.1.1,61.16626942942829,
negative,blue,2,None,k,,,,,,,,,0,226,226,226,,,,,,,,,,,,,,,,,main,None,None,1,1.501579999923706,704.3162328999024,None,None,1,,,,,,,,,,,,,,034,2022-06-01_17h54.20.687,Main,2022.1.1,61.16626942942829,
positive,red,2,None,None,,,,,,,,,0,227,227,227,,,,,,,,,,,,,,,,,main,None,None,1,1.4990733999293298,706.8189582000487,None,None,1,,,,,,,,,,,,,,034,2022-06-01_17h54.20.687,Main,2022.1.1,61.16626942942829,
positive,blue,2,k,None,,,,,,,,,0,228,228,228,,,,,,,,,,,,,,,,,main,k,k,1,0.8298478000797331,709.3188302998897,None,None,0,,,,,,,,,,,,,,034,2022-06-01_17h54.20.687,Main,2022.1.1,61.16626942942829,
negative,blue,1,None,k,,,,,,,,,0,229,229,229,,,,,,,,,,,,,,,,,main,None,None,1,1.5017946001607925,711.1494573000818,None,None,1,,,,,,,,,,,,,,034,2022-06-01_17h54.20.687,Main,2022.1.1,61.16626942942829,
positive,yellow,1,None,k,,,,,,,,,0,230,230,230,,,,,,,,,,,,,,,,,main,None,None,1,1.4962334998417646,713.6521793000866,None,None,1,,,,,,,,,,,,,,034,2022-06-01_17h54.20.687,Main,2022.1.1,61.16626942942829,
negative,blue,2,None,k,,,,,,,,,0,231,231,231,,,,,,,,,,,,,,,,,main,None,None,1,1.4989932000171393,716.1551975000184,None,None,1,,,,,,,,,,,,,,034,2022-06-01_17h54.20.687,Main,2022.1.1,61.16626942942829,
negative,red,1,None,None,,,,,,,,,0,232,232,232,,,,,,,,,,,,,,,,,main,None,None,1,1.501874800072983,718.6493629999459,None,None,1,,,,,,,,,,,,,,034,2022-06-01_17h54.20.687,Main,2022.1.1,61.16626942942829,
positive,blue,2,k,None,,,,,,,,,0,233,233,233,,,,,,,,,,,,,,,,,main,k,k,1,0.6799536000471562,721.1520408000797,None,None,0,,,,,,,,,,,,,,034,2022-06-01_17h54.20.687,Main,2022.1.1,61.16626942942829,
negative,yellow,1,k,None,,,,,,,,,0,234,234,234,,,,,,,,,,,,,,,,,main,k,k,1,0.7546176000032574,722.83289900003,None,None,0,,,,,,,,,,,,,,034,2022-06-01_17h54.20.687,Main,2022.1.1,61.16626942942829,
negative,yellow,2,k,None,,,,,,,,,0,235,235,235,,,,,,,,,,,,,,,,,main,k,k,1,0.8266344999428838,724.582512400113,None,None,0,,,,,,,,,,,,,,034,2022-06-01_17h54.20.687,Main,2022.1.1,61.16626942942829,
positive,red,1,None,None,,,,,,,,,0,236,236,236,,,,,,,,,,,,,,,,,main,None,None,1,1.5017326001543552,726.4158600000665,None,None,1,,,,,,,,,,,,,,034,2022-06-01_17h54.20.687,Main,2022.1.1,61.16626942942829,
negative,red,2,None,None,,,,,,,,,0,237,237,237,,,,,,,,,,,,,,,,,main,None,None,1,1.4971939001698047,728.9185315000359,None,None,1,,,,,,,,,,,,,,034,2022-06-01_17h54.20.687,Main,2022.1.1,61.16626942942829,
negative,blue,1,None,k,,,,,,,,,0,238,238,238,,,,,,,,,,,,,,,,,main,None,None,1,1.5006957000587136,731.4157710000873,None,None,1,,,,,,,,,,,,,,034,2022-06-01_17h54.20.687,Main,2022.1.1,61.16626942942829,
positive,blue,1,k,None,,,,,,,,,0,239,239,239,,,,,,,,,,,,,,,,,main,k,k,1,0.6826548001263291,733.9184226000216,None,None,0,,,,,,,,,,,,,,034,2022-06-01_17h54.20.687,Main,2022.1.1,61.16626942942829,
,,,,,,,,,,,,,,,,,,,,,,,,,,,,,,,,,,,,,,,,,,,,,,,,,,,,,735.6017543000635,None,,,,,,
