distractor,target,set,ans1,ans2,rep_loop4.thisRepN,rep_loop4.thisTrialN,rep_loop4.thisN,rep_loop4.thisIndex,st2_prac_loop.thisRepN,st2_prac_loop.thisTrialN,st2_prac_loop.thisN,st2_prac_loop.thisIndex,st2_main_loop.thisRepN,st2_main_loop.thisTrialN,st2_main_loop.thisN,st2_main_loop.thisIndex,image_4.started,image_4.stopped,sound_2.started,sound_2.stopped,key_resp_3.keys,key_resp_3.rt,image_5.started,image_5.stopped,st_prac_back.started,st_prac_back.stopped,st_prac_text.started,st_prac_text.stopped,st_fix_back.started,st_fix_back.stopped,st_fix_2.started,st_fix_2.stopped,main_prac,st_ans,st_res,st_corr,st_rt,st_back.started,st_back.stopped,st2_resp.keys,st2_resp.corr,st_main_back.started,st_main_back.stopped,st_main_text.started,st_main_text.stopped,mouse_4.x,mouse_4.y,mouse_4.leftButton,mouse_4.midButton,mouse_4.rightButton,mouse_4.started,mouse_4.stopped,text_2.started,text_2.stopped,id*,date,expName,psychopyVersion,frameRate,
negative,yellow,1,k,None,,,,,0,0,0,0,,,,,30.593307900009677,None,34.57214976993855,None,space,62.30372370011173,96.90084559982643,None,97.93417459982447,None,97.93417459982447,None,99.936678199796,None,99.936678199796,None,prac,None,None,1,1.5037299999967217,101.95324969990179,None,None,1,,,,,,,,,,,,,,035,2022-06-02_10h27.14.858,Main,2022.1.1,59.93076797990416,
positive,red,2,None,None,,,,,0,1,1,1,,,,,,,,,,,,,,,,,,,,,prac,None,None,1,1.501362199895084,104.46740169986151,None,None,1,,,,,,,,,,,,,,035,2022-06-02_10h27.14.858,Main,2022.1.1,59.93076797990416,
negative,blue,2,None,k,,,,,0,2,2,2,,,,,,,,,,,,,,,,,,,,,prac,k,k,1,0.7302137999795377,106.96988929994404,None,None,0,,,,,,,,,,,,,,035,2022-06-02_10h27.14.858,Main,2022.1.1,59.93076797990416,
positive,yellow,1,None,k,,,,,0,3,3,3,,,,,,,,,,,,,,,,,,,,,prac,k,k,1,0.6853354000486434,108.70070859999396,None,None,0,,,,,,,,,,,,,,035,2022-06-02_10h27.14.858,Main,2022.1.1,59.93076797990416,
negative,blue,2,None,k,,,,,0,4,4,4,,,,,,,,,,,,,,,,,,,,,prac,k,k,1,0.6623338998761028,110.3900725999847,None,None,0,,,,,,,,,,,,,,035,2022-06-02_10h27.14.858,Main,2022.1.1,59.93076797990416,
negative,blue,1,None,k,,,,,0,5,5,5,,,,,,,,,,,,,,,,,,,,,prac,k,k,1,1.1017068000510335,112.05033989995718,None,None,0,,,,,,,,,,,,,,035,2022-06-02_10h27.14.858,Main,2022.1.1,59.93076797990416,
negative,yellow,2,k,None,,,,,0,6,6,6,,,,,,,,,,,,,,,,,,,,,prac,None,None,1,1.4992817998863757,114.15306669985875,None,None,1,,,,,,,,,,,,,,035,2022-06-02_10h27.14.858,Main,2022.1.1,59.93076797990416,
negative,red,1,None,None,,,,,0,7,7,7,,,,,,,,,,,,,,,,,,,,,prac,None,None,1,1.496644200058654,116.65302570001222,None,None,1,,,,,,,,,,,,,,035,2022-06-02_10h27.14.858,Main,2022.1.1,59.93076797990416,
positive,yellow,2,None,k,,,,,0,8,8,8,,,,,,,,,,,,,,,,,,,,,prac,k,k,1,0.8152081000152975,119.15024119988084,None,None,0,,,,,,,,,,,,,,035,2022-06-02_10h27.14.858,Main,2022.1.1,59.93076797990416,
negative,yellow,1,k,None,,,,,0,9,9,9,,,,,,,,,,,,,,,,,,,,,prac,None,k,0,0.618092600023374,120.96954919979908,None,None,1,,,,,,,,,,,,,,035,2022-06-02_10h27.14.858,Main,2022.1.1,59.93076797990416,
positive,yellow,2,None,k,,,,,0,10,10,10,,,,,,,,,,,,,,,,,,,,,prac,k,k,1,0.8955135000869632,123.58599059982225,None,None,0,,,,,,,,,,,,,,035,2022-06-02_10h27.14.858,Main,2022.1.1,59.93076797990416,
negative,yellow,2,k,None,,,,,0,11,11,11,,,,,,,,,,,,,,,,,,,,,prac,None,None,1,1.5011561999563128,125.48344509978779,None,None,1,,,,,,,,,,,,,,035,2022-06-02_10h27.14.858,Main,2022.1.1,59.93076797990416,
negative,red,2,None,None,,,,,0,12,12,12,,,,,,,,,,,,,,,,,,,,,prac,None,None,1,1.4966150000691414,127.98607729980722,None,None,1,,,,,,,,,,,,,,035,2022-06-02_10h27.14.858,Main,2022.1.1,59.93076797990416,
positive,red,1,None,None,,,,,0,13,13,13,,,,,,,,,,,,,,,,,,,,,prac,None,None,1,1.499623900046572,130.48356550000608,None,None,1,,,,,,,,,,,,,,035,2022-06-02_10h27.14.858,Main,2022.1.1,59.93076797990416,
positive,blue,2,k,None,,,,,0,14,14,14,,,,,,,,,,,,,,,,,,,,,prac,None,None,1,1.5006775001529604,132.98323149979115,None,None,1,,,,,,,,,,,,,,035,2022-06-02_10h27.14.858,Main,2022.1.1,59.93076797990416,
positive,blue,1,k,None,,,,,0,15,15,15,,,,,,,,,,,,,,,,,,,,,prac,None,None,1,1.499000299954787,135.485954699805,None,None,1,,,,,,,,,,,,,,035,2022-06-02_10h27.14.858,Main,2022.1.1,59.93076797990416,
negative,blue,1,None,k,,,,,0,16,16,16,,,,,,,,,,,,,,,,,,,,,prac,k,k,1,0.6465247999876738,137.9858768999111,None,None,0,,,,,,,,,,,,,,035,2022-06-02_10h27.14.858,Main,2022.1.1,59.93076797990416,
positive,blue,2,k,None,,,,,0,17,17,17,,,,,,,,,,,,,,,,,,,,,prac,None,None,1,1.5015362999401987,139.63308970001526,None,None,1,,,,,,,,,,,,,,035,2022-06-02_10h27.14.858,Main,2022.1.1,59.93076797990416,
positive,blue,1,k,None,,,,,0,18,18,18,,,,,,,,,,,,,,,,,,,,,prac,None,None,1,1.5022388000506908,142.13580789999105,None,None,1,,,,,,,,,,,,,,035,2022-06-02_10h27.14.858,Main,2022.1.1,59.93076797990416,
positive,yellow,1,None,k,,,,,0,19,19,19,,,,,,,,,,,,,,,,,,,,,prac,k,k,1,0.6441324001643807,144.63720359979197,None,None,0,,,,,,,,,,,,,,035,2022-06-02_10h27.14.858,Main,2022.1.1,59.93076797990416,
negative,yellow,1,k,None,,,,,1,0,20,0,,,,,,,,,,,,,,,,,,,,,prac,None,None,1,1.50039970013313,146.28295039990917,None,None,1,,,,,,,,,,,,,,035,2022-06-02_10h27.14.858,Main,2022.1.1,59.93076797990416,
positive,red,2,None,None,,,,,1,1,21,1,,,,,,,,,,,,,,,,,,,,,prac,None,None,1,1.496583699947223,148.7856685000006,None,None,1,,,,,,,,,,,,,,035,2022-06-02_10h27.14.858,Main,2022.1.1,59.93076797990416,
negative,blue,2,None,k,,,,,1,2,22,2,,,,,,,,,,,,,,,,,,,,,prac,k,k,1,0.6161539999302477,151.28546859999187,None,None,0,,,,,,,,,,,,,,035,2022-06-02_10h27.14.858,Main,2022.1.1,59.93076797990416,
positive,yellow,1,None,k,,,,,1,3,23,3,,,,,,,,,,,,,,,,,,,,,prac,k,k,1,0.7154921998735517,152.90203359979205,None,None,0,,,,,,,,,,,,,,035,2022-06-02_10h27.14.858,Main,2022.1.1,59.93076797990416,
negative,blue,2,None,k,,,,,1,4,24,4,,,,,,,,,,,,,,,,,,,,,prac,k,k,1,0.6664931999985129,154.61634569987655,None,None,0,,,,,,,,,,,,,,035,2022-06-02_10h27.14.858,Main,2022.1.1,59.93076797990416,
negative,blue,1,None,k,,,,,1,5,25,5,,,,,,,,,,,,,,,,,,,,,prac,k,k,1,0.8981572999618948,156.2853711999487,None,None,0,,,,,,,,,,,,,,035,2022-06-02_10h27.14.858,Main,2022.1.1,59.93076797990416,
negative,yellow,2,k,None,,,,,1,6,26,6,,,,,,,,,,,,,,,,,,,,,prac,None,None,1,1.4990246000234038,158.18542709993199,None,None,1,,,,,,,,,,,,,,035,2022-06-02_10h27.14.858,Main,2022.1.1,59.93076797990416,
negative,red,1,None,None,,,,,1,7,27,7,,,,,,,,,,,,,,,,,,,,,prac,None,None,1,1.500765800010413,160.68264039978385,None,None,1,,,,,,,,,,,,,,035,2022-06-02_10h27.14.858,Main,2022.1.1,59.93076797990416,
positive,yellow,2,None,k,,,,,1,8,28,8,,,,,,,,,,,,,,,,,,,,,prac,k,k,1,0.7159287000540644,163.1854080997873,None,None,0,,,,,,,,,,,,,,035,2022-06-02_10h27.14.858,Main,2022.1.1,59.93076797990416,
negative,yellow,1,k,None,,,,,1,9,29,9,,,,,,,,,,,,,,,,,,,,,prac,None,None,1,1.4960501999594271,164.90201919991523,None,None,1,,,,,,,,,,,,,,035,2022-06-02_10h27.14.858,Main,2022.1.1,59.93076797990416,
positive,yellow,2,None,k,,,,,1,10,30,10,,,,,,,,,,,,,,,,,,,,,prac,k,k,1,0.7518214001320302,167.39921069983393,None,None,0,,,,,,,,,,,,,,035,2022-06-02_10h27.14.858,Main,2022.1.1,59.93076797990416,
negative,yellow,2,k,None,,,,,1,11,31,11,,,,,,,,,,,,,,,,,,,,,prac,None,None,1,1.4988126000389457,169.15186879993416,None,None,1,,,,,,,,,,,,,,035,2022-06-02_10h27.14.858,Main,2022.1.1,59.93076797990416,
negative,red,2,None,None,,,,,1,12,32,12,,,,,,,,,,,,,,,,,,,,,prac,None,None,1,1.4971783000510186,171.65188789996319,None,None,1,,,,,,,,,,,,,,035,2022-06-02_10h27.14.858,Main,2022.1.1,59.93076797990416,
positive,red,1,None,None,,,,,1,13,33,13,,,,,,,,,,,,,,,,,,,,,prac,None,None,1,1.5005912999622524,174.14914359990507,None,None,1,,,,,,,,,,,,,,035,2022-06-02_10h27.14.858,Main,2022.1.1,59.93076797990416,
positive,blue,2,k,None,,,,,1,14,34,14,,,,,,,,,,,,,,,,,,,,,prac,None,None,1,1.4965538999531418,176.65176229993813,None,None,1,,,,,,,,,,,,,,035,2022-06-02_10h27.14.858,Main,2022.1.1,59.93076797990416,
positive,blue,1,k,None,,,,,1,15,35,15,,,,,,,,,,,,,,,,,,,,,prac,None,None,1,1.4986897001508623,179.15164089994505,None,None,1,,,,,,,,,,,,,,035,2022-06-02_10h27.14.858,Main,2022.1.1,59.93076797990416,
negative,blue,1,None,k,,,,,1,16,36,16,,,,,,,,,,,,,,,,,,,,,prac,k,k,1,0.6021378000732511,181.64886630000547,None,None,0,,,,,,,,,,,,,,035,2022-06-02_10h27.14.858,Main,2022.1.1,59.93076797990416,
positive,blue,2,k,None,,,,,1,17,37,17,,,,,,,,,,,,,,,,,,,,,prac,None,None,1,1.498908600071445,183.25157159985974,None,None,1,,,,,,,,,,,,,,035,2022-06-02_10h27.14.858,Main,2022.1.1,59.93076797990416,
positive,blue,1,k,None,,,,,1,18,38,18,,,,,,,,,,,,,,,,,,,,,prac,None,None,1,1.4972437000833452,185.75153049989603,None,None,1,,,,,,,,,,,,,,035,2022-06-02_10h27.14.858,Main,2022.1.1,59.93076797990416,
positive,yellow,1,None,k,,,,,1,19,39,19,,,,,,,,,,,,,,,,,,,,,prac,k,k,1,0.6338291000574827,188.2487470000051,None,None,0,,,,,,,,,,,,,,035,2022-06-02_10h27.14.858,Main,2022.1.1,59.93076797990416,
,,,,,,,,,,,,,,,,,,,,,,,,,,,,,,,,,,,,,,,,,,189.88476239982992,None,189.88476239982992,None,0.075925924,-0.062037036,0,0,0,0.014136469690129161,None,,,035,2022-06-02_10h27.14.858,Main,2022.1.1,59.93076797990416,
negative,yellow,2,k,None,,,,,,,,,0,0,0,0,,,,,,,,,,,,,191.10145989991724,None,191.10145989991724,None,main,None,None,1,1.4932896001264453,193.13709329999983,None,None,1,,,,,,,,,,,,,,035,2022-06-02_10h27.14.858,Main,2022.1.1,59.93076797990416,
positive,red,1,None,None,,,,,,,,,0,1,1,1,,,,,,,,,,,,,,,,,main,None,None,1,1.5003151998389512,195.63191100000404,None,None,1,,,,,,,,,,,,,,035,2022-06-02_10h27.14.858,Main,2022.1.1,59.93076797990416,
positive,blue,2,k,None,,,,,,,,,0,2,2,2,,,,,,,,,,,,,,,,,main,None,None,1,1.4990648999810219,198.1346479000058,None,None,1,,,,,,,,,,,,,,035,2022-06-02_10h27.14.858,Main,2022.1.1,59.93076797990416,
positive,blue,1,k,None,,,,,,,,,0,3,3,3,,,,,,,,,,,,,,,,,main,None,None,1,1.497246199985966,200.63456839998253,None,None,1,,,,,,,,,,,,,,035,2022-06-02_10h27.14.858,Main,2022.1.1,59.93076797990416,
negative,yellow,2,k,None,,,,,,,,,0,4,4,4,,,,,,,,,,,,,,,,,main,None,None,1,1.498638299992308,203.13203529990278,None,None,1,,,,,,,,,,,,,,035,2022-06-02_10h27.14.858,Main,2022.1.1,59.93076797990416,
positive,yellow,2,None,k,,,,,,,,,0,5,5,5,,,,,,,,,,,,,,,,,main,k,k,1,0.7010335000231862,205.6317019998096,None,None,0,,,,,,,,,,,,,,035,2022-06-02_10h27.14.858,Main,2022.1.1,59.93076797990416,
negative,blue,2,None,k,,,,,,,,,0,6,6,6,,,,,,,,,,,,,,,,,main,k,k,1,0.7498109000734985,207.33437079982832,None,None,0,,,,,,,,,,,,,,035,2022-06-02_10h27.14.858,Main,2022.1.1,59.93076797990416,
positive,red,2,None,None,,,,,,,,,0,7,7,7,,,,,,,,,,,,,,,,,main,None,None,1,1.495561100076884,209.07719829981215,None,None,1,,,,,,,,,,,,,,035,2022-06-02_10h27.14.858,Main,2022.1.1,59.93076797990416,
positive,yellow,1,None,k,,,,,,,,,0,8,8,8,,,,,,,,,,,,,,,,,main,k,k,1,0.7489131998736411,211.58186419983394,None,None,0,,,,,,,,,,,,,,035,2022-06-02_10h27.14.858,Main,2022.1.1,59.93076797990416,
negative,red,1,None,None,,,,,,,,,0,9,9,9,,,,,,,,,,,,,,,,,main,None,None,1,1.5016884999349713,213.331537499791,None,None,1,,,,,,,,,,,,,,035,2022-06-02_10h27.14.858,Main,2022.1.1,59.93076797990416,
positive,yellow,1,None,k,,,,,,,,,0,10,10,10,,,,,,,,,,,,,,,,,main,k,k,1,0.7826701998710632,215.83426359994337,None,None,0,,,,,,,,,,,,,,035,2022-06-02_10h27.14.858,Main,2022.1.1,59.93076797990416,
negative,yellow,1,k,None,,,,,,,,,0,11,11,11,,,,,,,,,,,,,,,,,main,None,None,1,1.4974460999947041,217.61756799998693,None,None,1,,,,,,,,,,,,,,035,2022-06-02_10h27.14.858,Main,2022.1.1,59.93076797990416,
negative,yellow,1,k,None,,,,,,,,,0,12,12,12,,,,,,,,,,,,,,,,,main,None,None,1,1.49980410002172,220.11472609988414,None,None,1,,,,,,,,,,,,,,035,2022-06-02_10h27.14.858,Main,2022.1.1,59.93076797990416,
negative,red,2,None,None,,,,,,,,,0,13,13,13,,,,,,,,,,,,,,,,,main,None,None,1,1.4990670999977738,222.61747809988447,None,None,1,,,,,,,,,,,,,,035,2022-06-02_10h27.14.858,Main,2022.1.1,59.93076797990416,
positive,yellow,2,None,k,,,,,,,,,0,14,14,14,,,,,,,,,,,,,,,,,main,k,k,1,0.7635071999393404,225.11742059979588,None,None,0,,,,,,,,,,,,,,035,2022-06-02_10h27.14.858,Main,2022.1.1,59.93076797990416,
positive,blue,1,k,None,,,,,,,,,0,15,15,15,,,,,,,,,,,,,,,,,main,None,None,1,1.4991947000380605,226.88388679991476,None,None,1,,,,,,,,,,,,,,035,2022-06-02_10h27.14.858,Main,2022.1.1,59.93076797990416,
negative,blue,1,None,k,,,,,,,,,0,16,16,16,,,,,,,,,,,,,,,,,main,k,k,1,0.6673226999118924,229.38124629994854,None,None,0,,,,,,,,,,,,,,035,2022-06-02_10h27.14.858,Main,2022.1.1,59.93076797990416,
positive,blue,2,k,None,,,,,,,,,0,17,17,17,,,,,,,,,,,,,,,,,main,None,None,1,1.4988113001454622,231.04789699986577,None,None,1,,,,,,,,,,,,,,035,2022-06-02_10h27.14.858,Main,2022.1.1,59.93076797990416,
negative,blue,2,None,k,,,,,,,,,0,18,18,18,,,,,,,,,,,,,,,,,main,k,k,1,0.7802313999272883,233.55050969985314,None,None,0,,,,,,,,,,,,,,035,2022-06-02_10h27.14.858,Main,2022.1.1,59.93076797990416,
negative,blue,1,None,k,,,,,,,,,0,19,19,19,,,,,,,,,,,,,,,,,main,k,k,1,0.6819708000402898,235.3313737998251,None,None,0,,,,,,,,,,,,,,035,2022-06-02_10h27.14.858,Main,2022.1.1,59.93076797990416,
negative,blue,1,None,k,,,,,,,,,0,20,20,20,,,,,,,,,,,,,,,,,main,k,k,1,0.6491328999400139,237.0143845998682,None,None,0,,,,,,,,,,,,,,035,2022-06-02_10h27.14.858,Main,2022.1.1,59.93076797990416,
negative,blue,2,None,k,,,,,,,,,0,21,21,21,,,,,,,,,,,,,,,,,main,k,k,1,0.7161061000078917,238.66433669999242,None,None,0,,,,,,,,,,,,,,035,2022-06-02_10h27.14.858,Main,2022.1.1,59.93076797990416,
negative,red,1,None,None,,,,,,,,,0,22,22,22,,,,,,,,,,,,,,,,,main,None,None,1,1.50123649998568,240.3837441999931,None,None,1,,,,,,,,,,,,,,035,2022-06-02_10h27.14.858,Main,2022.1.1,59.93076797990416,
positive,red,2,None,None,,,,,,,,,0,23,23,23,,,,,,,,,,,,,,,,,main,None,None,1,1.4971766998060048,242.8837114998605,None,None,1,,,,,,,,,,,,,,035,2022-06-02_10h27.14.858,Main,2022.1.1,59.93076797990416,
negative,red,2,None,None,,,,,,,,,0,24,24,24,,,,,,,,,,,,,,,,,main,None,None,1,1.500593600096181,245.38092879997566,None,None,1,,,,,,,,,,,,,,035,2022-06-02_10h27.14.858,Main,2022.1.1,59.93076797990416,
positive,blue,2,k,None,,,,,,,,,0,25,25,25,,,,,,,,,,,,,,,,,main,None,None,1,1.4990054999943823,247.8835873999633,None,None,1,,,,,,,,,,,,,,035,2022-06-02_10h27.14.858,Main,2022.1.1,59.93076797990416,
negative,yellow,1,k,None,,,,,,,,,0,26,26,26,,,,,,,,,,,,,,,,,main,None,None,1,1.4971761000342667,250.38104469981045,None,None,1,,,,,,,,,,,,,,035,2022-06-02_10h27.14.858,Main,2022.1.1,59.93076797990416,
positive,blue,2,k,None,,,,,,,,,0,27,27,27,,,,,,,,,,,,,,,,,main,None,None,1,1.4988720000255853,252.88069419981912,None,None,1,,,,,,,,,,,,,,035,2022-06-02_10h27.14.858,Main,2022.1.1,59.93076797990416,
negative,blue,2,None,k,,,,,,,,,0,28,28,28,,,,,,,,,,,,,,,,,main,k,k,1,0.7175411998759955,255.38072389992885,None,None,0,,,,,,,,,,,,,,035,2022-06-02_10h27.14.858,Main,2022.1.1,59.93076797990416,
positive,red,1,None,None,,,,,,,,,0,29,29,29,,,,,,,,,,,,,,,,,main,None,None,1,1.5018583999481052,257.10007339995354,None,None,1,,,,,,,,,,,,,,035,2022-06-02_10h27.14.858,Main,2022.1.1,59.93076797990416,
positive,blue,1,k,None,,,,,,,,,0,30,30,30,,,,,,,,,,,,,,,,,main,None,None,1,1.49369000014849,259.6013232998084,None,None,1,,,,,,,,,,,,,,035,2022-06-02_10h27.14.858,Main,2022.1.1,59.93076797990416,
positive,yellow,1,None,k,,,,,,,,,0,31,31,31,,,,,,,,,,,,,,,,,main,k,k,1,1.449554800055921,262.0974500000011,None,None,0,,,,,,,,,,,,,,035,2022-06-02_10h27.14.858,Main,2022.1.1,59.93076797990416,
negative,yellow,2,k,None,,,,,,,,,0,32,32,32,,,,,,,,,,,,,,,,,main,None,None,1,1.498640300007537,264.54753149999306,None,None,1,,,,,,,,,,,,,,035,2022-06-02_10h27.14.858,Main,2022.1.1,59.93076797990416,
negative,blue,1,None,k,,,,,,,,,0,33,33,33,,,,,,,,,,,,,,,,,main,k,k,1,0.7315342999063432,267.0474053998478,None,None,0,,,,,,,,,,,,,,035,2022-06-02_10h27.14.858,Main,2022.1.1,59.93076797990416,
positive,blue,1,k,None,,,,,,,,,0,34,34,34,,,,,,,,,,,,,,,,,main,None,None,1,1.5015545000787824,268.78037930000573,None,None,1,,,,,,,,,,,,,,035,2022-06-02_10h27.14.858,Main,2022.1.1,59.93076797990416,
negative,yellow,1,k,None,,,,,,,,,0,35,35,35,,,,,,,,,,,,,,,,,main,None,None,1,1.4964726001489908,271.28309849998914,None,None,1,,,,,,,,,,,,,,035,2022-06-02_10h27.14.858,Main,2022.1.1,59.93076797990416,
positive,yellow,2,None,k,,,,,,,,,0,36,36,36,,,,,,,,,,,,,,,,,main,k,k,1,0.7210476000327617,273.78057509986684,None,None,0,,,,,,,,,,,,,,035,2022-06-02_10h27.14.858,Main,2022.1.1,59.93076797990416,
positive,yellow,2,None,k,,,,,,,,,0,37,37,37,,,,,,,,,,,,,,,,,main,k,k,1,0.7437100999522954,275.506101799896,None,None,0,,,,,,,,,,,,,,035,2022-06-02_10h27.14.858,Main,2022.1.1,59.93076797990416,
negative,yellow,2,k,None,,,,,,,,,0,38,38,38,,,,,,,,,,,,,,,,,main,None,None,1,1.5015543000772595,277.2468649998773,None,None,1,,,,,,,,,,,,,,035,2022-06-02_10h27.14.858,Main,2022.1.1,59.93076797990416,
positive,yellow,1,None,k,,,,,,,,,0,39,39,39,,,,,,,,,,,,,,,,,main,k,k,1,0.8493131001014262,279.74955659988336,None,None,0,,,,,,,,,,,,,,035,2022-06-02_10h27.14.858,Main,2022.1.1,59.93076797990416,
negative,yellow,2,k,None,,,,,,,,,0,40,40,40,,,,,,,,,,,,,,,,,main,None,None,1,1.4969379999674857,281.5995469999034,None,None,1,,,,,,,,,,,,,,035,2022-06-02_10h27.14.858,Main,2022.1.1,59.93076797990416,
positive,blue,2,k,None,,,,,,,,,0,41,41,41,,,,,,,,,,,,,,,,,main,None,None,1,1.50062879989855,284.0967524999287,None,None,1,,,,,,,,,,,,,,035,2022-06-02_10h27.14.858,Main,2022.1.1,59.93076797990416,
positive,blue,2,k,None,,,,,,,,,0,42,42,42,,,,,,,,,,,,,,,,,main,None,None,1,1.4989889999851584,286.5994814999867,None,None,1,,,,,,,,,,,,,,035,2022-06-02_10h27.14.858,Main,2022.1.1,59.93076797990416,
negative,blue,2,None,k,,,,,,,,,0,43,43,43,,,,,,,,,,,,,,,,,main,k,k,1,0.7306135999970138,289.0994344998617,None,None,0,,,,,,,,,,,,,,035,2022-06-02_10h27.14.858,Main,2022.1.1,59.93076797990416,
negative,red,1,None,None,,,,,,,,,0,44,44,44,,,,,,,,,,,,,,,,,main,None,None,1,1.5007428000681102,290.82990149990655,None,None,1,,,,,,,,,,,,,,035,2022-06-02_10h27.14.858,Main,2022.1.1,59.93076797990416,
negative,yellow,1,k,None,,,,,,,,,0,45,45,45,,,,,,,,,,,,,,,,,main,None,None,1,1.4964372999966145,293.3325946999248,None,None,1,,,,,,,,,,,,,,035,2022-06-02_10h27.14.858,Main,2022.1.1,59.93076797990416,
negative,yellow,1,k,None,,,,,,,,,0,46,46,46,,,,,,,,,,,,,,,,,main,None,None,1,1.4990696001332253,295.83246209984645,None,None,1,,,,,,,,,,,,,,035,2022-06-02_10h27.14.858,Main,2022.1.1,59.93076797990416,
positive,red,1,None,None,,,,,,,,,0,47,47,47,,,,,,,,,,,,,,,,,main,None,None,1,1.4991105999797583,298.3299590998795,None,None,1,,,,,,,,,,,,,,035,2022-06-02_10h27.14.858,Main,2022.1.1,59.93076797990416,
positive,yellow,1,None,k,,,,,,,,,0,48,48,48,,,,,,,,,,,,,,,,,main,k,k,1,0.7505632000975311,300.8300474998541,None,None,0,,,,,,,,,,,,,,035,2022-06-02_10h27.14.858,Main,2022.1.1,59.93076797990416,
negative,blue,1,None,k,,,,,,,,,0,49,49,49,,,,,,,,,,,,,,,,,main,k,k,1,0.7646871998440474,302.5800122998189,None,None,0,,,,,,,,,,,,,,035,2022-06-02_10h27.14.858,Main,2022.1.1,59.93076797990416,
positive,yellow,2,None,k,,,,,,,,,0,50,50,50,,,,,,,,,,,,,,,,,main,k,k,1,0.7657153999898583,304.34628329984844,None,None,0,,,,,,,,,,,,,,035,2022-06-02_10h27.14.858,Main,2022.1.1,59.93076797990416,
negative,blue,1,None,k,,,,,,,,,0,51,51,51,,,,,,,,,,,,,,,,,main,k,k,1,0.6851506000384688,306.1129769999534,None,None,0,,,,,,,,,,,,,,035,2022-06-02_10h27.14.858,Main,2022.1.1,59.93076797990416,
positive,red,2,None,None,,,,,,,,,0,52,52,52,,,,,,,,,,,,,,,,,main,None,None,1,1.4990413999184966,307.79895029985346,None,None,1,,,,,,,,,,,,,,035,2022-06-02_10h27.14.858,Main,2022.1.1,59.93076797990416,
positive,yellow,2,None,k,,,,,,,,,0,53,53,53,,,,,,,,,,,,,,,,,main,k,k,1,0.729891600087285,310.2964009998832,None,None,0,,,,,,,,,,,,,,035,2022-06-02_10h27.14.858,Main,2022.1.1,59.93076797990416,
negative,red,2,None,None,,,,,,,,,0,54,54,54,,,,,,,,,,,,,,,,,main,None,None,1,1.5016071000136435,312.0294711999595,None,None,1,,,,,,,,,,,,,,035,2022-06-02_10h27.14.858,Main,2022.1.1,59.93076797990416,
positive,yellow,1,None,k,,,,,,,,,0,55,55,55,,,,,,,,,,,,,,,,,main,k,k,1,0.7968225001823157,314.5321813998744,None,None,0,,,,,,,,,,,,,,035,2022-06-02_10h27.14.858,Main,2022.1.1,59.93076797990416,
negative,blue,2,None,k,,,,,,,,,0,56,56,56,,,,,,,,,,,,,,,,,main,k,k,1,0.6987324000801891,316.33210100000724,None,None,0,,,,,,,,,,,,,,035,2022-06-02_10h27.14.858,Main,2022.1.1,59.93076797990416,
positive,blue,1,k,None,,,,,,,,,0,57,57,57,,,,,,,,,,,,,,,,,main,None,None,1,1.501831900095567,318.02932409988716,None,None,1,,,,,,,,,,,,,,035,2022-06-02_10h27.14.858,Main,2022.1.1,59.93076797990416,
positive,blue,1,k,None,,,,,,,,,0,58,58,58,,,,,,,,,,,,,,,,,main,None,None,1,1.496575100114569,320.53203269978985,None,None,1,,,,,,,,,,,,,,035,2022-06-02_10h27.14.858,Main,2022.1.1,59.93076797990416,
negative,yellow,2,k,None,,,,,,,,,0,59,59,59,,,,,,,,,,,,,,,,,main,None,None,1,1.4989514998160303,323.03506009979174,None,None,1,,,,,,,,,,,,,,035,2022-06-02_10h27.14.858,Main,2022.1.1,59.93076797990416,
positive,red,2,None,None,,,,,,,,,0,60,60,60,,,,,,,,,,,,,,,,,main,None,None,1,1.5015245999675244,325.52923509990796,None,None,1,,,,,,,,,,,,,,035,2022-06-02_10h27.14.858,Main,2022.1.1,59.93076797990416,
negative,yellow,1,k,None,,,,,,,,,0,61,61,61,,,,,,,,,,,,,,,,,main,None,None,1,1.4967261001002043,328.0318793999031,None,None,1,,,,,,,,,,,,,,035,2022-06-02_10h27.14.858,Main,2022.1.1,59.93076797990416,
negative,red,1,None,None,,,,,,,,,0,62,62,62,,,,,,,,,,,,,,,,,main,None,None,1,1.4995824999641627,330.5293650999665,None,None,1,,,,,,,,,,,,,,035,2022-06-02_10h27.14.858,Main,2022.1.1,59.93076797990416,
negative,blue,1,None,k,,,,,,,,,0,63,63,63,,,,,,,,,,,,,,,,,main,k,k,1,0.8319379999302328,333.0290704998188,None,None,0,,,,,,,,,,,,,,035,2022-06-02_10h27.14.858,Main,2022.1.1,59.93076797990416,
positive,blue,2,k,None,,,,,,,,,0,64,64,64,,,,,,,,,,,,,,,,,main,None,None,1,1.5014782000798732,334.8627209998667,None,None,1,,,,,,,,,,,,,,035,2022-06-02_10h27.14.858,Main,2022.1.1,59.93076797990416,
negative,yellow,2,k,None,,,,,,,,,0,65,65,65,,,,,,,,,,,,,,,,,main,None,None,1,1.4969562001060694,337.3650459998753,None,None,1,,,,,,,,,,,,,,035,2022-06-02_10h27.14.858,Main,2022.1.1,59.93076797990416,
positive,yellow,2,None,k,,,,,,,,,0,66,66,66,,,,,,,,,,,,,,,,,main,k,k,1,0.8319808000233024,339.8622190998867,None,None,0,,,,,,,,,,,,,,035,2022-06-02_10h27.14.858,Main,2022.1.1,59.93076797990416,
positive,yellow,2,None,k,,,,,,,,,0,67,67,67,,,,,,,,,,,,,,,,,main,k,k,1,0.8655222000088543,341.6959723997861,None,None,0,,,,,,,,,,,,,,035,2022-06-02_10h27.14.858,Main,2022.1.1,59.93076797990416,
positive,red,1,None,None,,,,,,,,,0,68,68,68,,,,,,,,,,,,,,,,,main,None,None,1,1.4983810000121593,343.56255679996684,None,None,1,,,,,,,,,,,,,,035,2022-06-02_10h27.14.858,Main,2022.1.1,59.93076797990416,
positive,yellow,1,None,k,,,,,,,,,0,69,69,69,,,,,,,,,,,,,,,,,main,k,k,1,0.9990006000734866,346.062365999911,None,None,0,,,,,,,,,,,,,,035,2022-06-02_10h27.14.858,Main,2022.1.1,59.93076797990416,
negative,yellow,2,k,None,,,,,,,,,0,70,70,70,,,,,,,,,,,,,,,,,main,None,None,1,1.500771400053054,348.0620562999975,None,None,1,,,,,,,,,,,,,,035,2022-06-02_10h27.14.858,Main,2022.1.1,59.93076797990416,
positive,yellow,1,None,k,,,,,,,,,0,71,71,71,,,,,,,,,,,,,,,,,main,k,k,1,0.8484800001606345,350.56473679980263,None,None,0,,,,,,,,,,,,,,035,2022-06-02_10h27.14.858,Main,2022.1.1,59.93076797990416,
negative,blue,1,None,k,,,,,,,,,0,72,72,72,,,,,,,,,,,,,,,,,main,k,k,1,0.7795281999278814,352.41473449999467,None,None,0,,,,,,,,,,,,,,035,2022-06-02_10h27.14.858,Main,2022.1.1,59.93076797990416,
negative,red,2,None,None,,,,,,,,,0,73,73,73,,,,,,,,,,,,,,,,,main,None,None,1,1.5016951998695731,354.1952531998977,None,None,1,,,,,,,,,,,,,,035,2022-06-02_10h27.14.858,Main,2022.1.1,59.93076797990416,
positive,blue,2,k,None,,,,,,,,,0,74,74,74,,,,,,,,,,,,,,,,,main,None,None,1,1.4989312998950481,356.69803129998036,None,None,1,,,,,,,,,,,,,,035,2022-06-02_10h27.14.858,Main,2022.1.1,59.93076797990416,
negative,blue,2,None,k,,,,,,,,,0,75,75,75,,,,,,,,,,,,,,,,,main,k,k,1,0.6965530999004841,359.19790579983965,None,None,0,,,,,,,,,,,,,,035,2022-06-02_10h27.14.858,Main,2022.1.1,59.93076797990416,
negative,blue,2,None,k,,,,,,,,,0,76,76,76,,,,,,,,,,,,,,,,,main,k,k,1,0.7518142000772059,360.8951073999051,None,None,0,,,,,,,,,,,,,,035,2022-06-02_10h27.14.858,Main,2022.1.1,59.93076797990416,
negative,yellow,1,k,None,,,,,,,,,0,77,77,77,,,,,,,,,,,,,,,,,main,None,None,1,1.4989221000578254,362.647791699972,None,None,1,,,,,,,,,,,,,,035,2022-06-02_10h27.14.858,Main,2022.1.1,59.93076797990416,
positive,blue,1,k,None,,,,,,,,,0,78,78,78,,,,,,,,,,,,,,,,,main,None,None,1,1.4971658999565989,365.1454369998537,None,None,1,,,,,,,,,,,,,,035,2022-06-02_10h27.14.858,Main,2022.1.1,59.93076797990416,
positive,blue,1,k,None,,,,,,,,,0,79,79,79,,,,,,,,,,,,,,,,,main,None,None,1,1.500557699939236,367.6449598998297,None,None,1,,,,,,,,,,,,,,035,2022-06-02_10h27.14.858,Main,2022.1.1,59.93076797990416,
positive,red,2,None,None,,,,,,,,,0,80,80,80,,,,,,,,,,,,,,,,,main,None,None,1,1.499130800133571,370.14765579998493,None,None,1,,,,,,,,,,,,,,035,2022-06-02_10h27.14.858,Main,2022.1.1,59.93076797990416,
positive,yellow,2,None,k,,,,,,,,,0,81,81,81,,,,,,,,,,,,,,,,,main,k,k,1,0.9636127999983728,372.64514289982617,None,None,0,,,,,,,,,,,,,,035,2022-06-02_10h27.14.858,Main,2022.1.1,59.93076797990416,
positive,blue,1,k,None,,,,,,,,,0,82,82,82,,,,,,,,,,,,,,,,,main,None,None,1,1.4984814000781626,374.61171219986863,None,None,1,,,,,,,,,,,,,,035,2022-06-02_10h27.14.858,Main,2022.1.1,59.93076797990416,
negative,yellow,2,k,None,,,,,,,,,0,83,83,83,,,,,,,,,,,,,,,,,main,None,None,1,1.4987235001754016,377.1117119998671,None,None,1,,,,,,,,,,,,,,035,2022-06-02_10h27.14.858,Main,2022.1.1,59.93076797990416,
positive,blue,2,k,None,,,,,,,,,0,84,84,84,,,,,,,,,,,,,,,,,main,None,None,1,1.4993017001543194,379.6171543998644,None,None,1,,,,,,,,,,,,,,035,2022-06-02_10h27.14.858,Main,2022.1.1,59.93076797990416,
positive,yellow,1,None,k,,,,,,,,,0,85,85,85,,,,,,,,,,,,,,,,,main,k,k,1,0.8826645000372082,382.1114385998808,None,None,0,,,,,,,,,,,,,,035,2022-06-02_10h27.14.858,Main,2022.1.1,59.93076797990416,
positive,blue,2,k,None,,,,,,,,,0,86,86,86,,,,,,,,,,,,,,,,,main,None,None,1,1.5008004999253899,383.99504780001007,None,None,1,,,,,,,,,,,,,,035,2022-06-02_10h27.14.858,Main,2022.1.1,59.93076797990416,
positive,blue,1,k,None,,,,,,,,,0,87,87,87,,,,,,,,,,,,,,,,,main,None,None,1,1.496658300049603,386.49719499982893,None,None,1,,,,,,,,,,,,,,035,2022-06-02_10h27.14.858,Main,2022.1.1,59.93076797990416,
negative,yellow,2,k,None,,,,,,,,,0,88,88,88,,,,,,,,,,,,,,,,,main,None,None,1,1.4990844998974353,388.99474659981206,None,None,1,,,,,,,,,,,,,,035,2022-06-02_10h27.14.858,Main,2022.1.1,59.93076797990416,
negative,blue,2,None,k,,,,,,,,,0,89,89,89,,,,,,,,,,,,,,,,,main,k,k,1,0.8490830999799073,391.49474299978465,None,None,0,,,,,,,,,,,,,,035,2022-06-02_10h27.14.858,Main,2022.1.1,59.93076797990416,
positive,yellow,2,None,k,,,,,,,,,0,90,90,90,,,,,,,,,,,,,,,,,main,k,k,1,0.8330981999170035,393.3447278998792,None,None,0,,,,,,,,,,,,,,035,2022-06-02_10h27.14.858,Main,2022.1.1,59.93076797990416,
negative,yellow,1,k,None,,,,,,,,,0,91,91,91,,,,,,,,,,,,,,,,,main,None,None,1,1.5005888999439776,395.1777182999067,None,None,1,,,,,,,,,,,,,,035,2022-06-02_10h27.14.858,Main,2022.1.1,59.93076797990416,
negative,red,2,None,None,,,,,,,,,0,92,92,92,,,,,,,,,,,,,,,,,main,None,None,1,1.4991305000148714,397.6804098999128,None,None,1,,,,,,,,,,,,,,035,2022-06-02_10h27.14.858,Main,2022.1.1,59.93076797990416,
negative,blue,2,None,k,,,,,,,,,0,93,93,93,,,,,,,,,,,,,,,,,main,k,k,1,0.8463773000985384,400.18039849982597,None,None,0,,,,,,,,,,,,,,035,2022-06-02_10h27.14.858,Main,2022.1.1,59.93076797990416,
negative,blue,1,None,k,,,,,,,,,0,94,94,94,,,,,,,,,,,,,,,,,main,k,k,1,0.7661993000656366,402.0275485999882,None,None,0,,,,,,,,,,,,,,035,2022-06-02_10h27.14.858,Main,2022.1.1,59.93076797990416,
negative,blue,1,None,k,,,,,,,,,0,95,95,95,,,,,,,,,,,,,,,,,main,k,k,1,0.7823405000381172,403.79463899997063,None,None,0,,,,,,,,,,,,,,035,2022-06-02_10h27.14.858,Main,2022.1.1,59.93076797990416,
negative,red,1,None,None,,,,,,,,,0,96,96,96,,,,,,,,,,,,,,,,,main,None,None,1,1.4989581999834627,405.5779231998604,None,None,1,,,,,,,,,,,,,,035,2022-06-02_10h27.14.858,Main,2022.1.1,59.93076797990416,
positive,yellow,1,None,k,,,,,,,,,0,97,97,97,,,,,,,,,,,,,,,,,main,k,k,1,0.8676485000178218,408.07742419978604,None,None,0,,,,,,,,,,,,,,035,2022-06-02_10h27.14.858,Main,2022.1.1,59.93076797990416,
negative,yellow,1,k,None,,,,,,,,,0,98,98,98,,,,,,,,,,,,,,,,,main,None,None,1,1.4988045000936836,409.946832699934,None,None,1,,,,,,,,,,,,,,035,2022-06-02_10h27.14.858,Main,2022.1.1,59.93076797990416,
positive,red,1,None,None,,,,,,,,,0,99,99,99,,,,,,,,,,,,,,,,,main,None,None,1,1.4972186998929828,412.44679640000686,None,None,1,,,,,,,,,,,,,,035,2022-06-02_10h27.14.858,Main,2022.1.1,59.93076797990416,
positive,blue,1,k,None,,,,,,,,,0,100,100,100,,,,,,,,,,,,,,,,,main,None,None,1,1.500641900114715,414.94407329987735,None,None,1,,,,,,,,,,,,,,035,2022-06-02_10h27.14.858,Main,2022.1.1,59.93076797990416,
negative,yellow,1,k,None,,,,,,,,,0,101,101,101,,,,,,,,,,,,,,,,,main,None,None,1,1.4996962998993695,417.4466777998023,None,None,1,,,,,,,,,,,,,,035,2022-06-02_10h27.14.858,Main,2022.1.1,59.93076797990416,
negative,blue,2,None,k,,,,,,,,,0,102,102,102,,,,,,,,,,,,,,,,,main,k,k,1,0.7963866000063717,419.94415059988387,None,None,0,,,,,,,,,,,,,,035,2022-06-02_10h27.14.858,Main,2022.1.1,59.93076797990416,
negative,yellow,2,k,None,,,,,,,,,0,103,103,103,,,,,,,,,,,,,,,,,main,None,None,1,1.500426199985668,421.74382659979165,None,None,1,,,,,,,,,,,,,,035,2022-06-02_10h27.14.858,Main,2022.1.1,59.93076797990416,
positive,yellow,2,None,k,,,,,,,,,0,104,104,104,,,,,,,,,,,,,,,,,main,k,k,1,0.8636331998277456,424.2468248999212,None,None,0,,,,,,,,,,,,,,035,2022-06-02_10h27.14.858,Main,2022.1.1,59.93076797990416,
positive,blue,1,k,None,,,,,,,,,0,105,105,105,,,,,,,,,,,,,,,,,main,None,None,1,1.500779600115493,426.1133947998751,None,None,1,,,,,,,,,,,,,,035,2022-06-02_10h27.14.858,Main,2022.1.1,59.93076797990416,
positive,blue,2,k,None,,,,,,,,,0,106,106,106,,,,,,,,,,,,,,,,,main,None,None,1,1.4973040998447686,428.610625699861,None,None,1,,,,,,,,,,,,,,035,2022-06-02_10h27.14.858,Main,2022.1.1,59.93076797990416,
negative,blue,1,None,k,,,,,,,,,0,107,107,107,,,,,,,,,,,,,,,,,main,k,k,1,0.7661892999894917,431.11028349981643,None,None,0,,,,,,,,,,,,,,035,2022-06-02_10h27.14.858,Main,2022.1.1,59.93076797990416,
positive,yellow,2,None,k,,,,,,,,,0,108,108,108,,,,,,,,,,,,,,,,,main,k,k,1,0.7314609000459313,432.8772944000084,None,None,0,,,,,,,,,,,,,,035,2022-06-02_10h27.14.858,Main,2022.1.1,59.93076797990416,
negative,yellow,1,k,None,,,,,,,,,0,109,109,109,,,,,,,,,,,,,,,,,main,None,None,1,1.499258000170812,434.6129965998698,None,None,1,,,,,,,,,,,,,,035,2022-06-02_10h27.14.858,Main,2022.1.1,59.93076797990416,
negative,blue,2,None,k,,,,,,,,,0,110,110,110,,,,,,,,,,,,,,,,,main,k,k,1,0.6318967000115663,437.1101585999131,None,None,0,,,,,,,,,,,,,,035,2022-06-02_10h27.14.858,Main,2022.1.1,59.93076797990416,
positive,blue,2,k,None,,,,,,,,,0,111,111,111,,,,,,,,,,,,,,,,,main,None,None,1,1.5014216999989003,438.7462168999482,None,None,1,,,,,,,,,,,,,,035,2022-06-02_10h27.14.858,Main,2022.1.1,59.93076797990416,
negative,blue,1,None,k,,,,,,,,,0,112,112,112,,,,,,,,,,,,,,,,,main,k,k,1,0.8297977999318391,441.24619450001046,None,None,0,,,,,,,,,,,,,,035,2022-06-02_10h27.14.858,Main,2022.1.1,59.93076797990416,
positive,yellow,1,None,k,,,,,,,,,0,113,113,113,,,,,,,,,,,,,,,,,main,k,k,1,0.7827284000813961,443.0767107999418,None,None,0,,,,,,,,,,,,,,035,2022-06-02_10h27.14.858,Main,2022.1.1,59.93076797990416,
negative,red,1,None,None,,,,,,,,,0,114,114,114,,,,,,,,,,,,,,,,,main,None,None,1,1.5010712000075728,444.86038129986264,None,None,1,,,,,,,,,,,,,,035,2022-06-02_10h27.14.858,Main,2022.1.1,59.93076797990416,
positive,red,1,None,None,,,,,,,,,0,115,115,115,,,,,,,,,,,,,,,,,main,None,None,1,1.4972711000591516,447.36274609994143,None,None,1,,,,,,,,,,,,,,035,2022-06-02_10h27.14.858,Main,2022.1.1,59.93076797990416,
negative,red,2,None,None,,,,,,,,,0,116,116,116,,,,,,,,,,,,,,,,,main,None,None,1,1.5004459999036044,449.8599503999576,None,None,1,,,,,,,,,,,,,,035,2022-06-02_10h27.14.858,Main,2022.1.1,59.93076797990416,
negative,yellow,2,k,None,,,,,,,,,0,117,117,117,,,,,,,,,,,,,,,,,main,None,None,1,1.4990291998255998,452.36254629981704,None,None,1,,,,,,,,,,,,,,035,2022-06-02_10h27.14.858,Main,2022.1.1,59.93076797990416,
positive,yellow,1,None,k,,,,,,,,,0,118,118,118,,,,,,,,,,,,,,,,,main,k,k,1,0.8634921999182552,454.86245209979825,None,None,0,,,,,,,,,,,,,,035,2022-06-02_10h27.14.858,Main,2022.1.1,59.93076797990416,
positive,red,2,None,None,,,,,,,,,0,119,119,119,,,,,,,,,,,,,,,,,main,None,None,1,1.4990026999730617,456.726645299932,None,None,1,,,,,,,,,,,,,,035,2022-06-02_10h27.14.858,Main,2022.1.1,59.93076797990416,
positive,blue,2,k,None,,,,,,,,,0,120,120,120,,,,,,,,,,,,,,,,,main,None,None,1,1.5040801998693496,459.2289820997976,None,None,1,,,,,,,,,,,,,,035,2022-06-02_10h27.14.858,Main,2022.1.1,59.93076797990416,
negative,red,1,None,None,,,,,,,,,0,121,121,121,,,,,,,,,,,,,,,,,main,None,None,1,1.4959443998523057,461.73002869985066,None,None,1,,,,,,,,,,,,,,035,2022-06-02_10h27.14.858,Main,2022.1.1,59.93076797990416,
positive,yellow,2,None,k,,,,,,,,,0,122,122,122,,,,,,,,,,,,,,,,,main,k,k,1,0.7975133000873029,464.22652089991607,None,None,0,,,,,,,,,,,,,,035,2022-06-02_10h27.14.858,Main,2022.1.1,59.93076797990416,
negative,red,2,None,None,,,,,,,,,0,123,123,123,,,,,,,,,,,,,,,,,main,None,None,1,1.4986306000500917,466.0265146999154,None,None,1,,,,,,,,,,,,,,035,2022-06-02_10h27.14.858,Main,2022.1.1,59.93076797990416,
negative,yellow,2,k,None,,,,,,,,,0,124,124,124,,,,,,,,,,,,,,,,,main,None,None,1,1.4984649000689387,468.5264435999561,None,None,1,,,,,,,,,,,,,,035,2022-06-02_10h27.14.858,Main,2022.1.1,59.93076797990416,
positive,red,1,None,None,,,,,,,,,0,125,125,125,,,,,,,,,,,,,,,,,main,None,None,1,1.5014926998410374,471.02637310000136,None,None,1,,,,,,,,,,,,,,035,2022-06-02_10h27.14.858,Main,2022.1.1,59.93076797990416,
negative,blue,2,None,k,,,,,,,,,0,126,126,126,,,,,,,,,,,,,,,,,main,k,k,1,0.863264299929142,473.5287571998779,None,None,0,,,,,,,,,,,,,,035,2022-06-02_10h27.14.858,Main,2022.1.1,59.93076797990416,
negative,blue,1,None,k,,,,,,,,,0,127,127,127,,,,,,,,,,,,,,,,,main,k,k,1,0.7328492999076843,475.3926903998945,None,None,0,,,,,,,,,,,,,,035,2022-06-02_10h27.14.858,Main,2022.1.1,59.93076797990416,
negative,yellow,1,k,None,,,,,,,,,0,128,128,128,,,,,,,,,,,,,,,,,main,None,None,1,1.5010820999741554,477.12643479998223,None,None,1,,,,,,,,,,,,,,035,2022-06-02_10h27.14.858,Main,2022.1.1,59.93076797990416,
negative,yellow,1,k,None,,,,,,,,,0,129,129,129,,,,,,,,,,,,,,,,,main,None,None,1,1.496254000114277,479.6287153000012,None,None,1,,,,,,,,,,,,,,035,2022-06-02_10h27.14.858,Main,2022.1.1,59.93076797990416,
positive,blue,1,k,None,,,,,,,,,0,130,130,130,,,,,,,,,,,,,,,,,main,None,None,1,1.5017622001469135,482.12587979994714,None,None,1,,,,,,,,,,,,,,035,2022-06-02_10h27.14.858,Main,2022.1.1,59.93076797990416,
negative,blue,1,None,k,,,,,,,,,0,131,131,131,,,,,,,,,,,,,,,,,main,k,k,1,0.8495826998259872,484.6285801997874,None,None,0,,,,,,,,,,,,,,035,2022-06-02_10h27.14.858,Main,2022.1.1,59.93076797990416,
negative,blue,2,None,k,,,,,,,,,0,132,132,132,,,,,,,,,,,,,,,,,main,k,k,1,0.8462710999883711,486.47621589992195,None,None,0,,,,,,,,,,,,,,035,2022-06-02_10h27.14.858,Main,2022.1.1,59.93076797990416,
positive,blue,2,k,None,,,,,,,,,0,133,133,133,,,,,,,,,,,,,,,,,main,None,None,1,1.501535999821499,488.3257559998892,None,None,1,,,,,,,,,,,,,,035,2022-06-02_10h27.14.858,Main,2022.1.1,59.93076797990416,
positive,red,2,None,None,,,,,,,,,0,134,134,134,,,,,,,,,,,,,,,,,main,None,None,1,1.498890500050038,490.8284503999166,None,None,1,,,,,,,,,,,,,,035,2022-06-02_10h27.14.858,Main,2022.1.1,59.93076797990416,
negative,yellow,2,k,None,,,,,,,,,0,135,135,135,,,,,,,,,,,,,,,,,main,None,None,1,1.4964515999890864,493.3259277998004,None,None,1,,,,,,,,,,,,,,035,2022-06-02_10h27.14.858,Main,2022.1.1,59.93076797990416,
positive,yellow,2,None,k,,,,,,,,,0,136,136,136,,,,,,,,,,,,,,,,,main,k,k,1,0.7169248000718653,495.8255920999218,None,None,0,,,,,,,,,,,,,,035,2022-06-02_10h27.14.858,Main,2022.1.1,59.93076797990416,
positive,blue,1,k,None,,,,,,,,,0,137,137,137,,,,,,,,,,,,,,,,,main,None,None,1,1.5002938001416624,497.5422309997957,None,None,1,,,,,,,,,,,,,,035,2022-06-02_10h27.14.858,Main,2022.1.1,59.93076797990416,
positive,yellow,1,None,k,,,,,,,,,0,138,138,138,,,,,,,,,,,,,,,,,main,k,k,1,0.830390399787575,500.04495000001043,None,None,0,,,,,,,,,,,,,,035,2022-06-02_10h27.14.858,Main,2022.1.1,59.93076797990416,
positive,yellow,1,None,k,,,,,,,,,0,139,139,139,,,,,,,,,,,,,,,,,main,k,k,1,0.7654135001357645,501.87588439998217,None,None,0,,,,,,,,,,,,,,035,2022-06-02_10h27.14.858,Main,2022.1.1,59.93076797990416,
positive,yellow,1,None,k,,,,,,,,,0,140,140,140,,,,,,,,,,,,,,,,,main,k,k,1,0.7154920999892056,503.6423692998942,None,None,0,,,,,,,,,,,,,,035,2022-06-02_10h27.14.858,Main,2022.1.1,59.93076797990416,
positive,blue,1,k,None,,,,,,,,,0,141,141,141,,,,,,,,,,,,,,,,,main,None,None,1,1.501416299957782,505.35872829984874,None,None,1,,,,,,,,,,,,,,035,2022-06-02_10h27.14.858,Main,2022.1.1,59.93076797990416,
positive,blue,2,k,None,,,,,,,,,0,142,142,142,,,,,,,,,,,,,,,,,main,None,None,1,1.4990867997985333,507.86144619993865,None,None,1,,,,,,,,,,,,,,035,2022-06-02_10h27.14.858,Main,2022.1.1,59.93076797990416,
positive,yellow,2,None,k,,,,,,,,,0,143,143,143,,,,,,,,,,,,,,,,,main,k,k,1,0.86410679994151,510.3613991998136,None,None,0,,,,,,,,,,,,,,035,2022-06-02_10h27.14.858,Main,2022.1.1,59.93076797990416,
negative,yellow,2,k,None,,,,,,,,,0,144,144,144,,,,,,,,,,,,,,,,,main,None,None,1,1.5017882001120597,512.2252470999956,None,None,1,,,,,,,,,,,,,,035,2022-06-02_10h27.14.858,Main,2022.1.1,59.93076797990416,
negative,blue,2,None,k,,,,,,,,,0,145,145,145,,,,,,,,,,,,,,,,,main,k,k,1,0.7645896000321954,514.7279252000153,None,None,0,,,,,,,,,,,,,,035,2022-06-02_10h27.14.858,Main,2022.1.1,59.93076797990416,
negative,red,1,None,None,,,,,,,,,0,146,146,146,,,,,,,,,,,,,,,,,main,None,None,1,1.4961469999980181,516.494821399916,None,None,1,,,,,,,,,,,,,,035,2022-06-02_10h27.14.858,Main,2022.1.1,59.93076797990416,
positive,blue,1,k,None,,,,,,,,,0,147,147,147,,,,,,,,,,,,,,,,,main,None,None,1,1.4990084001328796,518.9920516998973,None,None,1,,,,,,,,,,,,,,035,2022-06-02_10h27.14.858,Main,2022.1.1,59.93076797990416,
positive,yellow,1,None,k,,,,,,,,,0,148,148,148,,,,,,,,,,,,,,,,,main,k,k,1,0.7163630998693407,521.4917232999578,None,None,0,,,,,,,,,,,,,,035,2022-06-02_10h27.14.858,Main,2022.1.1,59.93076797990416,
negative,red,2,None,None,,,,,,,,,0,149,149,149,,,,,,,,,,,,,,,,,main,None,None,1,1.500917400000617,523.2087154998444,None,None,1,,,,,,,,,,,,,,035,2022-06-02_10h27.14.858,Main,2022.1.1,59.93076797990416,
negative,blue,1,None,k,,,,,,,,,0,150,150,150,,,,,,,,,,,,,,,,,main,k,k,1,0.713677000021562,525.7110929999035,None,None,0,,,,,,,,,,,,,,035,2022-06-02_10h27.14.858,Main,2022.1.1,59.93076797990416,
negative,yellow,2,k,None,,,,,,,,,0,151,151,151,,,,,,,,,,,,,,,,,main,None,None,1,1.4990166001953185,527.4252101997845,None,None,1,,,,,,,,,,,,,,035,2022-06-02_10h27.14.858,Main,2022.1.1,59.93076797990416,
negative,blue,2,None,k,,,,,,,,,0,152,152,152,,,,,,,,,,,,,,,,,main,k,k,1,0.6982927999924868,529.924876799807,None,None,0,,,,,,,,,,,,,,035,2022-06-02_10h27.14.858,Main,2022.1.1,59.93076797990416,
negative,yellow,1,k,None,,,,,,,,,0,153,153,153,,,,,,,,,,,,,,,,,main,None,None,1,1.5016443999484181,531.6248971999157,None,None,1,,,,,,,,,,,,,,035,2022-06-02_10h27.14.858,Main,2022.1.1,59.93076797990416,
negative,blue,1,None,k,,,,,,,,,0,154,154,154,,,,,,,,,,,,,,,,,main,k,k,1,0.9310345998965204,534.127573599806,None,None,0,,,,,,,,,,,,,,035,2022-06-02_10h27.14.858,Main,2022.1.1,59.93076797990416,
positive,yellow,2,None,k,,,,,,,,,0,155,155,155,,,,,,,,,,,,,,,,,main,k,k,1,0.7809425999876112,536.0583785998169,None,None,0,,,,,,,,,,,,,,035,2022-06-02_10h27.14.858,Main,2022.1.1,59.93076797990416,
positive,red,2,None,None,,,,,,,,,0,156,156,156,,,,,,,,,,,,,,,,,main,None,None,1,1.5014657999854535,537.8413772999775,None,None,1,,,,,,,,,,,,,,035,2022-06-02_10h27.14.858,Main,2022.1.1,59.93076797990416,
positive,red,1,None,None,,,,,,,,,0,157,157,157,,,,,,,,,,,,,,,,,main,None,None,1,1.4990598999429494,540.3440637998283,None,None,1,,,,,,,,,,,,,,035,2022-06-02_10h27.14.858,Main,2022.1.1,59.93076797990416,
positive,blue,2,k,None,,,,,,,,,0,158,158,158,,,,,,,,,,,,,,,,,main,None,None,1,1.4988698998931795,542.8440268000122,None,None,1,,,,,,,,,,,,,,035,2022-06-02_10h27.14.858,Main,2022.1.1,59.93076797990416,
negative,yellow,1,k,None,,,,,,,,,0,159,159,159,,,,,,,,,,,,,,,,,main,None,None,1,1.4974030999001116,545.343819799833,None,None,1,,,,,,,,,,,,,,035,2022-06-02_10h27.14.858,Main,2022.1.1,59.93076797990416,
negative,red,2,None,None,,,,,,,,,0,160,160,160,,,,,,,,,,,,,,,,,main,None,None,1,1.5005509001202881,547.8411591998301,None,None,1,,,,,,,,,,,,,,035,2022-06-02_10h27.14.858,Main,2022.1.1,59.93076797990416,
negative,blue,1,None,k,,,,,,,,,0,161,161,161,,,,,,,,,,,,,,,,,main,k,k,1,0.8804175001569092,550.3439503000118,None,None,0,,,,,,,,,,,,,,035,2022-06-02_10h27.14.858,Main,2022.1.1,59.93076797990416,
negative,blue,1,None,k,,,,,,,,,0,162,162,162,,,,,,,,,,,,,,,,,main,k,k,1,0.8318479000590742,552.2248292998411,None,None,0,,,,,,,,,,,,,,035,2022-06-02_10h27.14.858,Main,2022.1.1,59.93076797990416,
negative,yellow,1,k,None,,,,,,,,,0,163,163,163,,,,,,,,,,,,,,,,,main,None,None,1,1.5016378001309931,554.0576929999515,None,None,1,,,,,,,,,,,,,,035,2022-06-02_10h27.14.858,Main,2022.1.1,59.93076797990416,
negative,yellow,1,k,None,,,,,,,,,0,164,164,164,,,,,,,,,,,,,,,,,main,None,None,1,1.4989968999288976,556.5604296999518,None,None,1,,,,,,,,,,,,,,035,2022-06-02_10h27.14.858,Main,2022.1.1,59.93076797990416,
positive,yellow,1,None,k,,,,,,,,,0,165,165,165,,,,,,,,,,,,,,,,,main,k,k,1,0.7641248998697847,559.0603482997976,None,None,0,,,,,,,,,,,,,,035,2022-06-02_10h27.14.858,Main,2022.1.1,59.93076797990416,
negative,red,1,None,None,,,,,,,,,0,166,166,166,,,,,,,,,,,,,,,,,main,None,None,1,1.5003592998255044,560.8242168999277,None,None,1,,,,,,,,,,,,,,035,2022-06-02_10h27.14.858,Main,2022.1.1,59.93076797990416,
negative,yellow,2,k,None,,,,,,,,,0,167,167,167,,,,,,,,,,,,,,,,,main,None,None,1,1.499165300047025,563.3269340000115,None,None,1,,,,,,,,,,,,,,035,2022-06-02_10h27.14.858,Main,2022.1.1,59.93076797990416,
positive,blue,2,k,None,,,,,,,,,0,168,168,168,,,,,,,,,,,,,,,,,main,None,None,1,1.4970877999439836,565.8244176998269,None,None,1,,,,,,,,,,,,,,035,2022-06-02_10h27.14.858,Main,2022.1.1,59.93076797990416,
positive,red,2,None,None,,,,,,,,,0,169,169,169,,,,,,,,,,,,,,,,,main,None,None,1,1.500648999819532,568.3240602000151,None,None,1,,,,,,,,,,,,,,035,2022-06-02_10h27.14.858,Main,2022.1.1,59.93076797990416,
positive,red,1,None,None,,,,,,,,,0,170,170,170,,,,,,,,,,,,,,,,,main,None,None,1,1.4991105999797583,570.8268599999137,None,None,1,,,,,,,,,,,,,,035,2022-06-02_10h27.14.858,Main,2022.1.1,59.93076797990416,
negative,blue,2,None,k,,,,,,,,,0,171,171,171,,,,,,,,,,,,,,,,,main,k,k,1,0.8464476999361068,573.3267708998173,None,None,0,,,,,,,,,,,,,,035,2022-06-02_10h27.14.858,Main,2022.1.1,59.93076797990416,
positive,blue,2,k,None,,,,,,,,,0,172,172,172,,,,,,,,,,,,,,,,,main,None,None,1,1.5016575001645833,575.1739219999872,None,None,1,,,,,,,,,,,,,,035,2022-06-02_10h27.14.858,Main,2022.1.1,59.93076797990416,
negative,yellow,2,k,None,,,,,,,,,0,173,173,173,,,,,,,,,,,,,,,,,main,None,None,1,1.499011900043115,577.6766257998534,None,None,1,,,,,,,,,,,,,,035,2022-06-02_10h27.14.858,Main,2022.1.1,59.93076797990416,
positive,yellow,2,None,k,,,,,,,,,0,174,174,174,,,,,,,,,,,,,,,,,main,k,k,1,0.6964844998437911,580.1765659998637,None,None,0,,,,,,,,,,,,,,035,2022-06-02_10h27.14.858,Main,2022.1.1,59.93076797990416,
negative,blue,2,None,k,,,,,,,,,0,175,175,175,,,,,,,,,,,,,,,,,main,k,k,1,0.816090099979192,581.8737941998988,None,None,0,,,,,,,,,,,,,,035,2022-06-02_10h27.14.858,Main,2022.1.1,59.93076797990416,
positive,blue,1,k,None,,,,,,,,,0,176,176,176,,,,,,,,,,,,,,,,,main,None,None,1,1.5013927998952568,583.6908308998682,None,None,1,,,,,,,,,,,,,,035,2022-06-02_10h27.14.858,Main,2022.1.1,59.93076797990416,
positive,yellow,1,None,k,,,,,,,,,0,177,177,177,,,,,,,,,,,,,,,,,main,k,k,1,0.7130003999918699,586.1931025998201,None,None,0,,,,,,,,,,,,,,035,2022-06-02_10h27.14.858,Main,2022.1.1,59.93076797990416,
positive,blue,1,k,None,,,,,,,,,0,178,178,178,,,,,,,,,,,,,,,,,main,None,None,1,1.5016171000897884,587.906989999814,None,None,1,,,,,,,,,,,,,,035,2022-06-02_10h27.14.858,Main,2022.1.1,59.93076797990416,
positive,yellow,2,None,k,,,,,,,,,0,179,179,179,,,,,,,,,,,,,,,,,main,k,k,1,0.8676043001469225,590.4096732998732,None,None,0,,,,,,,,,,,,,,035,2022-06-02_10h27.14.858,Main,2022.1.1,59.93076797990416,
positive,blue,1,k,None,,,,,,,,,0,180,180,180,,,,,,,,,,,,,,,,,main,None,None,1,1.4947257000021636,592.2763253999874,None,None,1,,,,,,,,,,,,,,035,2022-06-02_10h27.14.858,Main,2022.1.1,59.93076797990416,
negative,red,1,None,None,,,,,,,,,0,181,181,181,,,,,,,,,,,,,,,,,main,None,None,1,1.500266700051725,594.7738250999246,None,None,1,,,,,,,,,,,,,,035,2022-06-02_10h27.14.858,Main,2022.1.1,59.93076797990416,
negative,blue,1,None,k,,,,,,,,,0,182,182,182,,,,,,,,,,,,,,,,,main,k,k,1,0.9143823999911547,597.2734520998783,None,None,0,,,,,,,,,,,,,,035,2022-06-02_10h27.14.858,Main,2022.1.1,59.93076797990416,
negative,yellow,2,k,None,,,,,,,,,0,183,183,183,,,,,,,,,,,,,,,,,main,None,None,1,1.5008472998160869,599.1904997997917,None,None,1,,,,,,,,,,,,,,035,2022-06-02_10h27.14.858,Main,2022.1.1,59.93076797990416,
positive,yellow,2,None,k,,,,,,,,,0,184,184,184,,,,,,,,,,,,,,,,,main,k,k,1,0.663208199897781,601.6928053998854,None,None,0,,,,,,,,,,,,,,035,2022-06-02_10h27.14.858,Main,2022.1.1,59.93076797990416,
positive,yellow,1,None,k,,,,,,,,,0,185,185,185,,,,,,,,,,,,,,,,,main,k,k,1,0.7185124000534415,603.356660499936,None,None,0,,,,,,,,,,,,,,035,2022-06-02_10h27.14.858,Main,2022.1.1,59.93076797990416,
positive,red,2,None,None,,,,,,,,,0,186,186,186,,,,,,,,,,,,,,,,,main,None,None,1,1.4988226999994367,605.0760478000157,None,None,1,,,,,,,,,,,,,,035,2022-06-02_10h27.14.858,Main,2022.1.1,59.93076797990416,
positive,blue,1,k,None,,,,,,,,,0,187,187,187,,,,,,,,,,,,,,,,,main,None,None,1,1.497224000049755,607.576005899813,None,None,1,,,,,,,,,,,,,,035,2022-06-02_10h27.14.858,Main,2022.1.1,59.93076797990416,
negative,yellow,1,k,None,,,,,,,,,0,188,188,188,,,,,,,,,,,,,,,,,main,None,None,1,1.5005952001083642,610.0732426999602,None,None,1,,,,,,,,,,,,,,035,2022-06-02_10h27.14.858,Main,2022.1.1,59.93076797990416,
positive,yellow,2,None,k,,,,,,,,,0,189,189,189,,,,,,,,,,,,,,,,,main,k,k,1,0.7136085999663919,612.5759016999509,None,None,0,,,,,,,,,,,,,,035,2022-06-02_10h27.14.858,Main,2022.1.1,59.93076797990416,
negative,yellow,2,k,None,,,,,,,,,0,190,190,190,,,,,,,,,,,,,,,,,main,None,None,1,1.4991383999586105,614.2900549999904,None,None,1,,,,,,,,,,,,,,035,2022-06-02_10h27.14.858,Main,2022.1.1,59.93076797990416,
negative,yellow,1,k,None,,,,,,,,,0,191,191,191,,,,,,,,,,,,,,,,,main,None,None,1,1.5007710000500083,616.7897164998576,None,None,1,,,,,,,,,,,,,,035,2022-06-02_10h27.14.858,Main,2022.1.1,59.93076797990416,
positive,blue,2,k,None,,,,,,,,,0,192,192,192,,,,,,,,,,,,,,,,,main,None,None,1,1.499060400063172,619.2924567998853,None,None,1,,,,,,,,,,,,,,035,2022-06-02_10h27.14.858,Main,2022.1.1,59.93076797990416,
positive,yellow,1,None,k,,,,,,,,,0,193,193,193,,,,,,,,,,,,,,,,,main,k,k,1,0.8132846001535654,621.792392199859,None,None,0,,,,,,,,,,,,,,035,2022-06-02_10h27.14.858,Main,2022.1.1,59.93076797990416,
negative,red,2,None,None,,,,,,,,,0,194,194,194,,,,,,,,,,,,,,,,,main,None,None,1,1.4996589999645948,623.6065082999412,None,None,1,,,,,,,,,,,,,,035,2022-06-02_10h27.14.858,Main,2022.1.1,59.93076797990416,
positive,red,1,None,None,,,,,,,,,0,195,195,195,,,,,,,,,,,,,,,,,main,None,None,1,1.5005699000321329,626.1061790999956,None,None,1,,,,,,,,,,,,,,035,2022-06-02_10h27.14.858,Main,2022.1.1,59.93076797990416,
negative,blue,1,None,k,,,,,,,,,0,196,196,196,,,,,,,,,,,,,,,,,main,k,k,1,0.6137788998894393,628.6088645998389,None,None,0,,,,,,,,,,,,,,035,2022-06-02_10h27.14.858,Main,2022.1.1,59.93076797990416,
positive,blue,2,k,None,,,,,,,,,0,197,197,197,,,,,,,,,,,,,,,,,main,None,None,1,1.499226100044325,630.2231723999139,None,None,1,,,,,,,,,,,,,,035,2022-06-02_10h27.14.858,Main,2022.1.1,59.93076797990416,
negative,blue,2,None,k,,,,,,,,,0,198,198,198,,,,,,,,,,,,,,,,,main,k,k,1,0.6818993999622762,632.7227053998504,None,None,0,,,,,,,,,,,,,,035,2022-06-02_10h27.14.858,Main,2022.1.1,59.93076797990416,
negative,blue,2,None,k,,,,,,,,,0,199,199,199,,,,,,,,,,,,,,,,,main,k,k,1,0.7513805001508445,634.4063615999185,None,None,0,,,,,,,,,,,,,,035,2022-06-02_10h27.14.858,Main,2022.1.1,59.93076797990416,
positive,blue,2,k,None,,,,,,,,,0,200,200,200,,,,,,,,,,,,,,,,,main,None,None,1,1.4969151001423597,636.1563960998319,None,None,1,,,,,,,,,,,,,,035,2022-06-02_10h27.14.858,Main,2022.1.1,59.93076797990416,
positive,blue,2,k,None,,,,,,,,,0,201,201,201,,,,,,,,,,,,,,,,,main,None,None,1,1.500583600020036,638.6559710998554,None,None,1,,,,,,,,,,,,,,035,2022-06-02_10h27.14.858,Main,2022.1.1,59.93076797990416,
negative,yellow,2,k,None,,,,,,,,,0,202,202,202,,,,,,,,,,,,,,,,,main,None,None,1,1.4966021999716759,641.1586247999221,None,None,1,,,,,,,,,,,,,,035,2022-06-02_10h27.14.858,Main,2022.1.1,59.93076797990416,
positive,red,1,None,None,,,,,,,,,0,203,203,203,,,,,,,,,,,,,,,,,main,None,None,1,1.499474700074643,643.65606259997,None,None,1,,,,,,,,,,,,,,035,2022-06-02_10h27.14.858,Main,2022.1.1,59.93076797990416,
negative,blue,2,None,k,,,,,,,,,0,204,204,204,,,,,,,,,,,,,,,,,main,k,k,1,0.7153423998970538,646.1558085998986,None,None,0,,,,,,,,,,,,,,035,2022-06-02_10h27.14.858,Main,2022.1.1,59.93076797990416,
negative,red,1,None,None,,,,,,,,,0,205,205,205,,,,,,,,,,,,,,,,,main,None,None,1,1.5003871999215335,647.8724498997908,None,None,1,,,,,,,,,,,,,,035,2022-06-02_10h27.14.858,Main,2022.1.1,59.93076797990416,
negative,blue,2,None,k,,,,,,,,,0,206,206,206,,,,,,,,,,,,,,,,,main,k,k,1,0.8136722999624908,650.3751104997937,None,None,0,,,,,,,,,,,,,,035,2022-06-02_10h27.14.858,Main,2022.1.1,59.93076797990416,
negative,yellow,2,k,None,,,,,,,,,0,207,207,207,,,,,,,,,,,,,,,,,main,None,None,1,1.4992307000793517,652.1892665999476,None,None,1,,,,,,,,,,,,,,035,2022-06-02_10h27.14.858,Main,2022.1.1,59.93076797990416,
positive,yellow,2,None,k,,,,,,,,,0,208,208,208,,,,,,,,,,,,,,,,,main,k,k,1,0.7487759999930859,654.6889570998028,None,None,0,,,,,,,,,,,,,,035,2022-06-02_10h27.14.858,Main,2022.1.1,59.93076797990416,
negative,yellow,1,k,None,,,,,,,,,0,209,209,209,,,,,,,,,,,,,,,,,main,None,None,1,1.500951300142333,656.4393064999022,None,None,1,,,,,,,,,,,,,,035,2022-06-02_10h27.14.858,Main,2022.1.1,59.93076797990416,
negative,red,2,None,None,,,,,,,,,0,210,210,210,,,,,,,,,,,,,,,,,main,None,None,1,1.4966635000891984,658.9415554997977,None,None,1,,,,,,,,,,,,,,035,2022-06-02_10h27.14.858,Main,2022.1.1,59.93076797990416,
negative,blue,1,None,k,,,,,,,,,0,211,211,211,,,,,,,,,,,,,,,,,main,k,k,1,0.6665638000704348,661.4390540998429,None,None,0,,,,,,,,,,,,,,035,2022-06-02_10h27.14.858,Main,2022.1.1,59.93076797990416,
negative,yellow,1,k,None,,,,,,,,,0,212,212,212,,,,,,,,,,,,,,,,,main,None,None,1,1.5002769001293927,663.10545669985,None,None,1,,,,,,,,,,,,,,035,2022-06-02_10h27.14.858,Main,2022.1.1,59.93076797990416,
positive,blue,1,k,None,,,,,,,,,0,213,213,213,,,,,,,,,,,,,,,,,main,None,None,1,1.4991496000438929,665.6080898998771,None,None,1,,,,,,,,,,,,,,035,2022-06-02_10h27.14.858,Main,2022.1.1,59.93076797990416,
positive,blue,1,k,None,,,,,,,,,0,214,214,214,,,,,,,,,,,,,,,,,main,None,None,1,1.49717149999924,668.1080700999591,None,None,1,,,,,,,,,,,,,,035,2022-06-02_10h27.14.858,Main,2022.1.1,59.93076797990416,
positive,yellow,1,None,k,,,,,,,,,0,215,215,215,,,,,,,,,,,,,,,,,main,k,k,1,0.7160883001051843,670.6052548999432,None,None,0,,,,,,,,,,,,,,035,2022-06-02_10h27.14.858,Main,2022.1.1,59.93076797990416,
positive,yellow,1,None,k,,,,,,,,,0,216,216,216,,,,,,,,,,,,,,,,,main,k,k,1,0.6980542000383139,672.3223031999078,None,None,0,,,,,,,,,,,,,,035,2022-06-02_10h27.14.858,Main,2022.1.1,59.93076797990416,
positive,yellow,2,None,k,,,,,,,,,0,217,217,217,,,,,,,,,,,,,,,,,main,k,k,1,0.7515299001242965,674.0245942999609,None,None,0,,,,,,,,,,,,,,035,2022-06-02_10h27.14.858,Main,2022.1.1,59.93076797990416,
negative,blue,1,None,k,,,,,,,,,0,218,218,218,,,,,,,,,,,,,,,,,main,k,k,1,0.9961363999173045,675.7745590999257,None,None,0,,,,,,,,,,,,,,035,2022-06-02_10h27.14.858,Main,2022.1.1,59.93076797990416,
positive,red,2,None,None,,,,,,,,,0,219,219,219,,,,,,,,,,,,,,,,,main,None,None,1,1.5016411999240518,677.7717482999433,None,None,1,,,,,,,,,,,,,,035,2022-06-02_10h27.14.858,Main,2022.1.1,59.93076797990416,
positive,yellow,1,None,k,,,,,,,,,0,220,220,220,,,,,,,,,,,,,,,,,main,k,k,1,0.7804322999436408,680.2744781000074,None,None,0,,,,,,,,,,,,,,035,2022-06-02_10h27.14.858,Main,2022.1.1,59.93076797990416,
positive,blue,1,k,None,,,,,,,,,0,221,221,221,,,,,,,,,,,,,,,,,main,None,None,1,1.4992637999821454,682.0577846998349,None,None,1,,,,,,,,,,,,,,035,2022-06-02_10h27.14.858,Main,2022.1.1,59.93076797990416,
positive,yellow,2,None,k,,,,,,,,,0,222,222,222,,,,,,,,,,,,,,,,,main,k,k,1,0.7007448999211192,684.555059999926,None,None,0,,,,,,,,,,,,,,035,2022-06-02_10h27.14.858,Main,2022.1.1,59.93076797990416,
negative,yellow,1,k,None,,,,,,,,,0,223,223,223,,,,,,,,,,,,,,,,,main,None,None,1,1.4987130998633802,686.2576726998668,None,None,1,,,,,,,,,,,,,,035,2022-06-02_10h27.14.858,Main,2022.1.1,59.93076797990416,
positive,yellow,2,None,k,,,,,,,,,0,224,224,224,,,,,,,,,,,,,,,,,main,k,k,1,0.9135078999679536,688.7551423998084,None,None,0,,,,,,,,,,,,,,035,2022-06-02_10h27.14.858,Main,2022.1.1,59.93076797990416,
negative,yellow,2,k,None,,,,,,,,,0,225,225,225,,,,,,,,,,,,,,,,,main,None,None,1,1.4988697997760028,690.6717473999597,None,None,1,,,,,,,,,,,,,,035,2022-06-02_10h27.14.858,Main,2022.1.1,59.93076797990416,
negative,blue,2,None,k,,,,,,,,,0,226,226,226,,,,,,,,,,,,,,,,,main,k,k,1,0.6661109998822212,693.1740414998494,None,None,0,,,,,,,,,,,,,,035,2022-06-02_10h27.14.858,Main,2022.1.1,59.93076797990416,
positive,red,2,None,None,,,,,,,,,0,227,227,227,,,,,,,,,,,,,,,,,main,None,None,1,1.500105399871245,694.838529799832,None,None,1,,,,,,,,,,,,,,035,2022-06-02_10h27.14.858,Main,2022.1.1,59.93076797990416,
positive,blue,2,k,None,,,,,,,,,0,228,228,228,,,,,,,,,,,,,,,,,main,None,None,1,1.4998967999126762,697.3380109998398,None,None,1,,,,,,,,,,,,,,035,2022-06-02_10h27.14.858,Main,2022.1.1,59.93076797990416,
negative,blue,1,None,k,,,,,,,,,0,229,229,229,,,,,,,,,,,,,,,,,main,k,k,1,0.7158419999759644,699.840770599898,None,None,0,,,,,,,,,,,,,,035,2022-06-02_10h27.14.858,Main,2022.1.1,59.93076797990416,
positive,yellow,1,None,k,,,,,,,,,0,230,230,230,,,,,,,,,,,,,,,,,main,k,k,1,0.6990973998326808,701.5573705998249,None,None,0,,,,,,,,,,,,,,035,2022-06-02_10h27.14.858,Main,2022.1.1,59.93076797990416,
negative,blue,2,None,k,,,,,,,,,0,231,231,231,,,,,,,,,,,,,,,,,main,k,k,1,0.6627705998253077,703.2573274997994,None,None,0,,,,,,,,,,,,,,035,2022-06-02_10h27.14.858,Main,2022.1.1,59.93076797990416,
negative,red,1,None,None,,,,,,,,,0,232,232,232,,,,,,,,,,,,,,,,,main,None,None,1,1.5016065000090748,704.9211846999824,None,None,1,,,,,,,,,,,,,,035,2022-06-02_10h27.14.858,Main,2022.1.1,59.93076797990416,
positive,blue,2,k,None,,,,,,,,,0,233,233,233,,,,,,,,,,,,,,,,,main,None,None,1,1.4993469000328332,707.423890999984,None,None,1,,,,,,,,,,,,,,035,2022-06-02_10h27.14.858,Main,2022.1.1,59.93076797990416,
negative,yellow,1,k,None,,,,,,,,,0,234,234,234,,,,,,,,,,,,,,,,,main,None,None,1,1.4970732000656426,709.9238350999076,None,None,1,,,,,,,,,,,,,,035,2022-06-02_10h27.14.858,Main,2022.1.1,59.93076797990416,
negative,yellow,2,k,None,,,,,,,,,0,235,235,235,,,,,,,,,,,,,,,,,main,None,k,0,0.7007569998968393,712.4210784998722,None,None,1,,,,,,,,,,,,,,035,2022-06-02_10h27.14.858,Main,2022.1.1,59.93076797990416,
positive,red,1,None,None,,,,,,,,,0,236,236,236,,,,,,,,,,,,,,,,,main,None,None,1,1.4987010001204908,715.1236643998418,None,None,1,,,,,,,,,,,,,,035,2022-06-02_10h27.14.858,Main,2022.1.1,59.93076797990416,
negative,red,2,None,None,,,,,,,,,0,237,237,237,,,,,,,,,,,,,,,,,main,None,None,1,1.4992653001099825,717.621204999974,None,None,1,,,,,,,,,,,,,,035,2022-06-02_10h27.14.858,Main,2022.1.1,59.93076797990416,
negative,blue,1,None,k,,,,,,,,,0,238,238,238,,,,,,,,,,,,,,,,,main,k,k,1,0.7985427000094205,720.1209147998597,None,None,0,,,,,,,,,,,,,,035,2022-06-02_10h27.14.858,Main,2022.1.1,59.93076797990416,
positive,blue,1,k,None,,,,,,,,,0,239,239,239,,,,,,,,,,,,,,,,,main,None,None,1,1.5012092001270503,721.9237515998539,None,None,1,,,,,,,,,,,,,,035,2022-06-02_10h27.14.858,Main,2022.1.1,59.93076797990416,
,,,,,,,,,,,,,,,,,,,,,,,,,,,,,,,,,,,,,,,,,,,,,,,,,,,,,724.4235491999425,None,,,,,,
