distractor,target,set,ans1,ans2,rep_loop4.thisRepN,rep_loop4.thisTrialN,rep_loop4.thisN,rep_loop4.thisIndex,st2_prac_loop.thisRepN,st2_prac_loop.thisTrialN,st2_prac_loop.thisN,st2_prac_loop.thisIndex,st2_main_loop.thisRepN,st2_main_loop.thisTrialN,st2_main_loop.thisN,st2_main_loop.thisIndex,image_4.started,image_4.stopped,mouse_7.x,mouse_7.y,mouse_7.leftButton,mouse_7.midButton,mouse_7.rightButton,sound_2.started,sound_2.stopped,key_resp_3.keys,mouse_5.x,mouse_5.y,mouse_5.leftButton,mouse_5.midButton,mouse_5.rightButton,mouse_5.started,mouse_5.stopped,yes_text2.started,yes_text2.stopped,no_text2.started,no_text2.stopped,mouse_3.x,mouse_3.y,mouse_3.leftButton,mouse_3.midButton,mouse_3.rightButton,mouse_3.started,mouse_3.stopped,st_prac_back.started,st_prac_back.stopped,st_prac_text.started,st_prac_text.stopped,st_fix_back.started,st_fix_back.stopped,st_fix_2.started,st_fix_2.stopped,main_prac,st_ans,st_res,st_corr,st_rt,st_back.started,st_back.stopped,st2_resp.keys,st2_resp.corr,st_main_back.started,st_main_back.stopped,st_main_text.started,st_main_text.stopped,mouse_4.x,mouse_4.y,mouse_4.leftButton,mouse_4.midButton,mouse_4.rightButton,mouse_4.started,mouse_4.stopped,text_2.started,text_2.stopped,id*,age*,gender*,date,expName,psychopyVersion,frameRate,
,,,,,,,,,,,,,,,,,179.0143844999984,None,0.08981481,-0.19351852,0,0,0,,,,,,,,,,,,,,,,,,,,,,,,,,,,,,,,,,,,,,,,,,,,,,,,,,,,101,22,Male,2022-04-27_16h03.36.483,Main,2022.1.1,60.17484402539553,
negative,yellow,1,k,None,,,,,0,0,0,0,,,,,,,,,,,,185.54069577000482,None,None,0.14814815,-0.35277778,0,0,0,1.0118955899961293,None,245.49024739999732,None,245.49024739999732,None,-0.10092592,-0.09074074,0,0,0,0.010322469999664463,None,247.34005339999567,None,247.34005339999567,None,249.35997769999085,None,249.35997769999085,None,prac,None,None,1,1.5021563000045717,251.37610100000165,None,None,1,,,,,,,,,,,,,,101,22,Male,2022-04-27_16h03.36.483,Main,2022.1.1,60.17484402539553,
positive,red,2,None,None,,,,,0,1,1,1,,,,,,,,,,,,,,,,,,,,,,,,,,,,,,,,,,,,,,,,,prac,None,None,1,1.4968771999992896,253.8674164999975,None,None,1,,,,,,,,,,,,,,101,22,Male,2022-04-27_16h03.36.483,Main,2022.1.1,60.17484402539553,
negative,blue,2,None,k,,,,,0,2,2,2,,,,,,,,,,,,,,,,,,,,,,,,,,,,,,,,,,,,,,,,,prac,k,k,1,1.4965692999976454,256.3654347999982,None,None,0,,,,,,,,,,,,,,101,22,Male,2022-04-27_16h03.36.483,Main,2022.1.1,60.17484402539553,
positive,yellow,1,None,k,,,,,0,3,3,3,,,,,,,,,,,,,,,,,,,,,,,,,,,,,,,,,,,,,,,,,prac,k,k,1,1.2302479999925708,258.8622871999978,None,None,0,,,,,,,,,,,,,,101,22,Male,2022-04-27_16h03.36.483,Main,2022.1.1,60.17484402539553,
negative,blue,2,None,k,,,,,0,4,4,4,,,,,,,,,,,,,,,,,,,,,,,,,,,,,,,,,,,,,,,,,prac,k,k,1,1.6466365000087535,261.09375899999577,None,None,0,,,,,,,,,,,,,,101,22,Male,2022-04-27_16h03.36.483,Main,2022.1.1,60.17484402539553,
negative,blue,1,None,k,,,,,0,5,5,5,,,,,,,,,,,,,,,,,,,,,,,,,,,,,,,,,,,,,,,,,prac,k,k,1,1.5997780000034254,264.75737619999563,None,None,0,,,,,,,,,,,,,,101,22,Male,2022-04-27_16h03.36.483,Main,2022.1.1,60.17484402539553,
negative,yellow,2,k,None,,,,,0,6,6,6,,,,,,,,,,,,,,,,,,,,,,,,,,,,,,,,,,,,,,,,,prac,None,None,1,1.500222799993935,268.3541833999916,None,None,1,,,,,,,,,,,,,,101,22,Male,2022-04-27_16h03.36.483,Main,2022.1.1,60.17484402539553,
negative,red,1,None,None,,,,,0,7,7,7,,,,,,,,,,,,,,,,,,,,,,,,,,,,,,,,,,,,,,,,,prac,None,None,1,1.4960391000058735,270.853701,None,None,1,,,,,,,,,,,,,,101,22,Male,2022-04-27_16h03.36.483,Main,2022.1.1,60.17484402539553,
positive,yellow,2,None,k,,,,,0,8,8,8,,,,,,,,,,,,,,,,,,,,,,,,,,,,,,,,,,,,,,,,,prac,k,k,1,0.9305548000120325,273.3516033000051,None,None,0,,,,,,,,,,,,,,101,22,Male,2022-04-27_16h03.36.483,Main,2022.1.1,60.17484402539553,
negative,yellow,1,k,None,,,,,0,9,9,9,,,,,,,,,,,,,,,,,,,,,,,,,,,,,,,,,,,,,,,,,prac,None,None,1,1.4953427000000374,275.28262440000253,None,None,1,,,,,,,,,,,,,,101,22,Male,2022-04-27_16h03.36.483,Main,2022.1.1,60.17484402539553,
positive,yellow,2,None,k,,,,,0,10,10,10,,,,,,,,,,,,,,,,,,,,,,,,,,,,,,,,,,,,,,,,,prac,k,k,1,0.9133035000122618,277.7801838000014,None,None,0,,,,,,,,,,,,,,101,22,Male,2022-04-27_16h03.36.483,Main,2022.1.1,60.17484402539553,
negative,yellow,2,k,None,,,,,0,11,11,11,,,,,,,,,,,,,,,,,,,,,,,,,,,,,,,,,,,,,,,,,prac,None,None,1,1.4965435000049183,279.6955190000008,None,None,1,,,,,,,,,,,,,,101,22,Male,2022-04-27_16h03.36.483,Main,2022.1.1,60.17484402539553,
negative,red,2,None,None,,,,,0,12,12,12,,,,,,,,,,,,,,,,,,,,,,,,,,,,,,,,,,,,,,,,,prac,None,None,1,1.4962247000075877,282.19297930000175,None,None,1,,,,,,,,,,,,,,101,22,Male,2022-04-27_16h03.36.483,Main,2022.1.1,60.17484402539553,
positive,red,1,None,None,,,,,0,13,13,13,,,,,,,,,,,,,,,,,,,,,,,,,,,,,,,,,,,,,,,,,prac,None,None,1,1.4960751000035089,284.69123549999495,None,None,1,,,,,,,,,,,,,,101,22,Male,2022-04-27_16h03.36.483,Main,2022.1.1,60.17484402539553,
positive,blue,2,k,None,,,,,0,14,14,14,,,,,,,,,,,,,,,,,,,,,,,,,,,,,,,,,,,,,,,,,prac,None,None,1,1.496425300007104,287.1890563999914,None,None,1,,,,,,,,,,,,,,101,22,Male,2022-04-27_16h03.36.483,Main,2022.1.1,60.17484402539553,
positive,blue,1,k,None,,,,,0,15,15,15,,,,,,,,,,,,,,,,,,,,,,,,,,,,,,,,,,,,,,,,,prac,None,None,1,1.4987312000012025,289.6877647999936,None,None,1,,,,,,,,,,,,,,101,22,Male,2022-04-27_16h03.36.483,Main,2022.1.1,60.17484402539553,
negative,blue,1,None,k,,,,,0,16,16,16,,,,,,,,,,,,,,,,,,,,,,,,,,,,,,,,,,,,,,,,,prac,k,k,1,0.878376799999387,292.1862933999946,None,None,0,,,,,,,,,,,,,,101,22,Male,2022-04-27_16h03.36.483,Main,2022.1.1,60.17484402539553,
positive,blue,2,k,None,,,,,0,17,17,17,,,,,,,,,,,,,,,,,,,,,,,,,,,,,,,,,,,,,,,,,prac,None,None,1,1.4970699999976205,294.0666493000026,None,None,1,,,,,,,,,,,,,,101,22,Male,2022-04-27_16h03.36.483,Main,2022.1.1,60.17484402539553,
positive,blue,1,k,None,,,,,0,18,18,18,,,,,,,,,,,,,,,,,,,,,,,,,,,,,,,,,,,,,,,,,prac,None,None,1,1.4952704999886919,296.56488089999766,None,None,1,,,,,,,,,,,,,,101,22,Male,2022-04-27_16h03.36.483,Main,2022.1.1,60.17484402539553,
positive,yellow,1,None,k,,,,,0,19,19,19,,,,,,,,,,,,,,,,,,,,,,,,,,,,,,,,,,,,,,,,,prac,k,k,1,1.1814911999972537,299.0628432999947,None,None,0,,,,,,,,,,,,,,101,22,Male,2022-04-27_16h03.36.483,Main,2022.1.1,60.17484402539553,
negative,yellow,1,k,None,,,,,1,0,20,0,,,,,,,,,,,,,,,,,,,,,,,,,,,,,,,,,,,,,,,,,prac,None,None,1,1.4954012999951374,301.24423569999635,None,None,1,,,,,,,,,,,,,,101,22,Male,2022-04-27_16h03.36.483,Main,2022.1.1,60.17484402539553,
positive,red,2,None,None,,,,,1,1,21,1,,,,,,,,,,,,,,,,,,,,,,,,,,,,,,,,,,,,,,,,,prac,None,None,1,1.4959431000024779,303.74198789999355,None,None,1,,,,,,,,,,,,,,101,22,Male,2022-04-27_16h03.36.483,Main,2022.1.1,60.17484402539553,
negative,blue,2,None,k,,,,,1,2,22,2,,,,,,,,,,,,,,,,,,,,,,,,,,,,,,,,,,,,,,,,,prac,k,k,1,0.9966923000029055,306.23997419999796,None,None,0,,,,,,,,,,,,,,101,22,Male,2022-04-27_16h03.36.483,Main,2022.1.1,60.17484402539553,
positive,yellow,1,None,k,,,,,1,3,23,3,,,,,,,,,,,,,,,,,,,,,,,,,,,,,,,,,,,,,,,,,prac,k,k,1,0.9651224999979604,308.23803359999147,None,None,0,,,,,,,,,,,,,,101,22,Male,2022-04-27_16h03.36.483,Main,2022.1.1,60.17484402539553,
negative,blue,2,None,k,,,,,1,4,24,4,,,,,,,,,,,,,,,,,,,,,,,,,,,,,,,,,,,,,,,,,prac,k,k,1,1.0140715999878012,310.2033528000029,None,None,0,,,,,,,,,,,,,,101,22,Male,2022-04-27_16h03.36.483,Main,2022.1.1,60.17484402539553,
negative,blue,1,None,k,,,,,1,5,25,5,,,,,,,,,,,,,,,,,,,,,,,,,,,,,,,,,,,,,,,,,prac,k,k,1,0.8792438999953447,312.2185360000003,None,None,0,,,,,,,,,,,,,,101,22,Male,2022-04-27_16h03.36.483,Main,2022.1.1,60.17484402539553,
negative,yellow,2,k,None,,,,,1,6,26,6,,,,,,,,,,,,,,,,,,,,,,,,,,,,,,,,,,,,,,,,,prac,None,None,1,1.4969123999908334,314.1000498999929,None,None,1,,,,,,,,,,,,,,101,22,Male,2022-04-27_16h03.36.483,Main,2022.1.1,60.17484402539553,
negative,red,1,None,None,,,,,1,7,27,7,,,,,,,,,,,,,,,,,,,,,,,,,,,,,,,,,,,,,,,,,prac,None,None,1,1.4982882999902358,316.5980334999913,None,None,1,,,,,,,,,,,,,,101,22,Male,2022-04-27_16h03.36.483,Main,2022.1.1,60.17484402539553,
positive,yellow,2,None,k,,,,,1,8,28,8,,,,,,,,,,,,,,,,,,,,,,,,,,,,,,,,,,,,,,,,,prac,k,k,1,0.7958738000015728,319.0969641999982,None,None,0,,,,,,,,,,,,,,101,22,Male,2022-04-27_16h03.36.483,Main,2022.1.1,60.17484402539553,
negative,yellow,1,k,None,,,,,1,9,29,9,,,,,,,,,,,,,,,,,,,,,,,,,,,,,,,,,,,,,,,,,prac,None,None,1,1.4954337999952259,320.89514490000147,None,None,1,,,,,,,,,,,,,,101,22,Male,2022-04-27_16h03.36.483,Main,2022.1.1,60.17484402539553,
positive,yellow,2,None,k,,,,,1,10,30,10,,,,,,,,,,,,,,,,,,,,,,,,,,,,,,,,,,,,,,,,,prac,k,k,1,0.7961667999916244,323.3929036999907,None,None,0,,,,,,,,,,,,,,101,22,Male,2022-04-27_16h03.36.483,Main,2022.1.1,60.17484402539553,
negative,yellow,2,k,None,,,,,1,11,31,11,,,,,,,,,,,,,,,,,,,,,,,,,,,,,,,,,,,,,,,,,prac,None,None,1,1.496440499991877,325.191135999994,None,None,1,,,,,,,,,,,,,,101,22,Male,2022-04-27_16h03.36.483,Main,2022.1.1,60.17484402539553,
negative,red,2,None,None,,,,,1,12,32,12,,,,,,,,,,,,,,,,,,,,,,,,,,,,,,,,,,,,,,,,,prac,None,None,1,1.4974890000012238,327.68878969999787,None,None,1,,,,,,,,,,,,,,101,22,Male,2022-04-27_16h03.36.483,Main,2022.1.1,60.17484402539553,
positive,red,1,None,None,,,,,1,13,33,13,,,,,,,,,,,,,,,,,,,,,,,,,,,,,,,,,,,,,,,,,prac,None,None,1,1.49656590000086,330.18693039999926,None,None,1,,,,,,,,,,,,,,101,22,Male,2022-04-27_16h03.36.483,Main,2022.1.1,60.17484402539553,
positive,blue,2,k,None,,,,,1,14,34,14,,,,,,,,,,,,,,,,,,,,,,,,,,,,,,,,,,,,,,,,,prac,None,None,1,1.4954499000014039,332.68468530000246,None,None,1,,,,,,,,,,,,,,101,22,Male,2022-04-27_16h03.36.483,Main,2022.1.1,60.17484402539553,
positive,blue,1,k,None,,,,,1,15,35,15,,,,,,,,,,,,,,,,,,,,,,,,,,,,,,,,,,,,,,,,,prac,None,None,1,1.4966144999925746,335.18262599999434,None,None,1,,,,,,,,,,,,,,101,22,Male,2022-04-27_16h03.36.483,Main,2022.1.1,60.17484402539553,
negative,blue,1,None,k,,,,,1,16,36,16,,,,,,,,,,,,,,,,,,,,,,,,,,,,,,,,,,,,,,,,,prac,k,k,1,0.7303322999941884,337.6806807999965,None,None,0,,,,,,,,,,,,,,101,22,Male,2022-04-27_16h03.36.483,Main,2022.1.1,60.17484402539553,
positive,blue,2,k,None,,,,,1,17,37,17,,,,,,,,,,,,,,,,,,,,,,,,,,,,,,,,,,,,,,,,,prac,None,None,1,1.497404199995799,339.41220589999284,None,None,1,,,,,,,,,,,,,,101,22,Male,2022-04-27_16h03.36.483,Main,2022.1.1,60.17484402539553,
positive,blue,1,k,None,,,,,1,18,38,18,,,,,,,,,,,,,,,,,,,,,,,,,,,,,,,,,,,,,,,,,prac,None,None,1,1.4954427000047872,341.9107290999964,None,None,1,,,,,,,,,,,,,,101,22,Male,2022-04-27_16h03.36.483,Main,2022.1.1,60.17484402539553,
positive,yellow,1,None,k,,,,,1,19,39,19,,,,,,,,,,,,,,,,,,,,,,,,,,,,,,,,,,,,,,,,,prac,k,k,1,0.9302160999941407,344.4084293000051,None,None,0,,,,,,,,,,,,,,101,22,Male,2022-04-27_16h03.36.483,Main,2022.1.1,60.17484402539553,
,,,,,,,,,,,,,,,,,,,,,,,,,,,,,,,,,,,,,,,,,,,,,,,,,,,,,,,,,,,,,,346.34400379999715,None,346.34400379999715,None,0.0009259259,-0.20833333,0,0,0,0.01285206999455113,None,,,101,22,Male,2022-04-27_16h03.36.483,Main,2022.1.1,60.17484402539553,
negative,yellow,2,k,None,,,,,,,,,0,0,0,0,,,,,,,,,,,,,,,,,,,,,,,,,,,,,,,,,362.2435142000031,None,362.2435142000031,None,main,None,None,1,1.5043372999934945,364.28005430000485,None,None,1,,,,,,,,,,,,,,101,22,Male,2022-04-27_16h03.36.483,Main,2022.1.1,60.17484402539553,
positive,red,1,None,None,,,,,,,,,0,1,1,1,,,,,,,,,,,,,,,,,,,,,,,,,,,,,,,,,,,,,main,None,None,1,1.4956271999981254,366.79032459999144,None,None,1,,,,,,,,,,,,,,101,22,Male,2022-04-27_16h03.36.483,Main,2022.1.1,60.17484402539553,
positive,blue,2,k,None,,,,,,,,,0,2,2,2,,,,,,,,,,,,,,,,,,,,,,,,,,,,,,,,,,,,,main,None,None,1,1.4967015000001993,369.28781100000197,None,None,1,,,,,,,,,,,,,,101,22,Male,2022-04-27_16h03.36.483,Main,2022.1.1,60.17484402539553,
positive,blue,1,k,None,,,,,,,,,0,3,3,3,,,,,,,,,,,,,,,,,,,,,,,,,,,,,,,,,,,,,main,None,None,1,1.4980646000039997,371.7859129999997,None,None,1,,,,,,,,,,,,,,101,22,Male,2022-04-27_16h03.36.483,Main,2022.1.1,60.17484402539553,
negative,yellow,2,k,None,,,,,,,,,0,4,4,4,,,,,,,,,,,,,,,,,,,,,,,,,,,,,,,,,,,,,main,None,None,1,1.4953971000068123,374.2837339999969,None,None,1,,,,,,,,,,,,,,101,22,Male,2022-04-27_16h03.36.483,Main,2022.1.1,60.17484402539553,
positive,yellow,2,None,k,,,,,,,,,0,5,5,5,,,,,,,,,,,,,,,,,,,,,,,,,,,,,,,,,,,,,main,k,k,1,0.813383700005943,376.781504700004,None,None,0,,,,,,,,,,,,,,101,22,Male,2022-04-27_16h03.36.483,Main,2022.1.1,60.17484402539553,
negative,blue,2,None,k,,,,,,,,,0,6,6,6,,,,,,,,,,,,,,,,,,,,,,,,,,,,,,,,,,,,,main,k,k,1,0.8968841000023531,378.59696019999683,None,None,0,,,,,,,,,,,,,,101,22,Male,2022-04-27_16h03.36.483,Main,2022.1.1,60.17484402539553,
positive,red,2,None,None,,,,,,,,,0,7,7,7,,,,,,,,,,,,,,,,,,,,,,,,,,,,,,,,,,,,,main,None,None,1,1.4981031999923289,380.4956051999907,None,None,1,,,,,,,,,,,,,,101,22,Male,2022-04-27_16h03.36.483,Main,2022.1.1,60.17484402539553,
positive,yellow,1,None,k,,,,,,,,,0,8,8,8,,,,,,,,,,,,,,,,,,,,,,,,,,,,,,,,,,,,,main,k,k,1,0.7140337000018917,382.99307179999596,None,None,0,,,,,,,,,,,,,,101,22,Male,2022-04-27_16h03.36.483,Main,2022.1.1,60.17484402539553,
negative,red,1,None,None,,,,,,,,,0,9,9,9,,,,,,,,,,,,,,,,,,,,,,,,,,,,,,,,,,,,,main,None,None,1,1.4956076000089524,384.70860430000175,None,None,1,,,,,,,,,,,,,,101,22,Male,2022-04-27_16h03.36.483,Main,2022.1.1,60.17484402539553,
positive,yellow,1,None,k,,,,,,,,,0,10,10,10,,,,,,,,,,,,,,,,,,,,,,,,,,,,,,,,,,,,,main,k,k,1,0.7640979999996489,387.2065361999994,None,None,0,,,,,,,,,,,,,,101,22,Male,2022-04-27_16h03.36.483,Main,2022.1.1,60.17484402539553,
negative,yellow,1,k,None,,,,,,,,,0,11,11,11,,,,,,,,,,,,,,,,,,,,,,,,,,,,,,,,,,,,,main,None,None,1,1.4958550999872386,388.9714684999926,None,None,1,,,,,,,,,,,,,,101,22,Male,2022-04-27_16h03.36.483,Main,2022.1.1,60.17484402539553,
negative,yellow,1,k,None,,,,,,,,,0,12,12,12,,,,,,,,,,,,,,,,,,,,,,,,,,,,,,,,,,,,,main,None,None,1,1.4969236999895656,391.47036130000197,None,None,1,,,,,,,,,,,,,,101,22,Male,2022-04-27_16h03.36.483,Main,2022.1.1,60.17484402539553,
negative,red,2,None,None,,,,,,,,,0,13,13,13,,,,,,,,,,,,,,,,,,,,,,,,,,,,,,,,,,,,,main,None,None,1,1.4960132999985944,393.96765560000495,None,None,1,,,,,,,,,,,,,,101,22,Male,2022-04-27_16h03.36.483,Main,2022.1.1,60.17484402539553,
positive,yellow,2,None,k,,,,,,,,,0,14,14,14,,,,,,,,,,,,,,,,,,,,,,,,,,,,,,,,,,,,,main,k,k,1,0.8152994999982184,396.4655505999981,None,None,0,,,,,,,,,,,,,,101,22,Male,2022-04-27_16h03.36.483,Main,2022.1.1,60.17484402539553,
positive,blue,1,k,None,,,,,,,,,0,15,15,15,,,,,,,,,,,,,,,,,,,,,,,,,,,,,,,,,,,,,main,None,None,1,1.4966467999911401,398.2806883000012,None,None,1,,,,,,,,,,,,,,101,22,Male,2022-04-27_16h03.36.483,Main,2022.1.1,60.17484402539553,
negative,blue,1,None,k,,,,,,,,,0,16,16,16,,,,,,,,,,,,,,,,,,,,,,,,,,,,,,,,,,,,,main,k,k,1,0.6787354000116466,400.77919709999696,None,None,0,,,,,,,,,,,,,,101,22,Male,2022-04-27_16h03.36.483,Main,2022.1.1,60.17484402539553,
positive,blue,2,k,None,,,,,,,,,0,17,17,17,,,,,,,,,,,,,,,,,,,,,,,,,,,,,,,,,,,,,main,None,None,1,1.496685800011619,402.46090370000456,None,None,1,,,,,,,,,,,,,,101,22,Male,2022-04-27_16h03.36.483,Main,2022.1.1,60.17484402539553,
negative,blue,2,None,k,,,,,,,,,0,18,18,18,,,,,,,,,,,,,,,,,,,,,,,,,,,,,,,,,,,,,main,k,k,1,0.7628500999999233,404.95851830000174,None,None,0,,,,,,,,,,,,,,101,22,Male,2022-04-27_16h03.36.483,Main,2022.1.1,60.17484402539553,
negative,blue,1,None,k,,,,,,,,,0,19,19,19,,,,,,,,,,,,,,,,,,,,,,,,,,,,,,,,,,,,,main,k,k,1,0.7644291000033263,406.7234243999992,None,None,0,,,,,,,,,,,,,,101,22,Male,2022-04-27_16h03.36.483,Main,2022.1.1,60.17484402539553,
negative,blue,1,None,k,,,,,,,,,0,20,20,20,,,,,,,,,,,,,,,,,,,,,,,,,,,,,,,,,,,,,main,k,k,1,0.7476186999992933,408.4887630000012,None,None,0,,,,,,,,,,,,,,101,22,Male,2022-04-27_16h03.36.483,Main,2022.1.1,60.17484402539553,
negative,blue,2,None,k,,,,,,,,,0,21,21,21,,,,,,,,,,,,,,,,,,,,,,,,,,,,,,,,,,,,,main,k,k,1,0.7156241000047885,410.2376058999944,None,None,0,,,,,,,,,,,,,,101,22,Male,2022-04-27_16h03.36.483,Main,2022.1.1,60.17484402539553,
negative,red,1,None,None,,,,,,,,,0,22,22,22,,,,,,,,,,,,,,,,,,,,,,,,,,,,,,,,,,,,,main,None,None,1,1.496314899995923,411.9526244000008,None,None,1,,,,,,,,,,,,,,101,22,Male,2022-04-27_16h03.36.483,Main,2022.1.1,60.17484402539553,
positive,red,2,None,None,,,,,,,,,0,23,23,23,,,,,,,,,,,,,,,,,,,,,,,,,,,,,,,,,,,,,main,None,None,1,1.4965029999875696,414.4508254999964,None,None,1,,,,,,,,,,,,,,101,22,Male,2022-04-27_16h03.36.483,Main,2022.1.1,60.17484402539553,
negative,red,2,None,None,,,,,,,,,0,24,24,24,,,,,,,,,,,,,,,,,,,,,,,,,,,,,,,,,,,,,main,None,None,1,1.496754299994791,416.94863669999177,None,None,1,,,,,,,,,,,,,,101,22,Male,2022-04-27_16h03.36.483,Main,2022.1.1,60.17484402539553,
positive,blue,2,k,None,,,,,,,,,0,25,25,25,,,,,,,,,,,,,,,,,,,,,,,,,,,,,,,,,,,,,main,None,None,1,1.4967686999880243,419.4471859000041,None,None,1,,,,,,,,,,,,,,101,22,Male,2022-04-27_16h03.36.483,Main,2022.1.1,60.17484402539553,
negative,yellow,1,k,None,,,,,,,,,0,26,26,26,,,,,,,,,,,,,,,,,,,,,,,,,,,,,,,,,,,,,main,None,None,1,1.4966052000090713,421.9444072000042,None,None,1,,,,,,,,,,,,,,101,22,Male,2022-04-27_16h03.36.483,Main,2022.1.1,60.17484402539553,
positive,blue,2,k,None,,,,,,,,,0,27,27,27,,,,,,,,,,,,,,,,,,,,,,,,,,,,,,,,,,,,,main,None,None,1,1.4962596999976085,424.442378599997,None,None,1,,,,,,,,,,,,,,101,22,Male,2022-04-27_16h03.36.483,Main,2022.1.1,60.17484402539553,
negative,blue,2,None,k,,,,,,,,,0,28,28,28,,,,,,,,,,,,,,,,,,,,,,,,,,,,,,,,,,,,,main,k,k,1,0.7792757999995956,426.9405212999991,None,None,0,,,,,,,,,,,,,,101,22,Male,2022-04-27_16h03.36.483,Main,2022.1.1,60.17484402539553,
positive,red,1,None,None,,,,,,,,,0,29,29,29,,,,,,,,,,,,,,,,,,,,,,,,,,,,,,,,,,,,,main,None,None,1,1.4973515000019688,428.7221412999934,None,None,1,,,,,,,,,,,,,,101,22,Male,2022-04-27_16h03.36.483,Main,2022.1.1,60.17484402539553,
positive,blue,1,k,None,,,,,,,,,0,30,30,30,,,,,,,,,,,,,,,,,,,,,,,,,,,,,,,,,,,,,main,None,None,1,1.4963074999977835,431.2203773999936,None,None,1,,,,,,,,,,,,,,101,22,Male,2022-04-27_16h03.36.483,Main,2022.1.1,60.17484402539553,
positive,yellow,1,None,k,,,,,,,,,0,31,31,31,,,,,,,,,,,,,,,,,,,,,,,,,,,,,,,,,,,,,main,k,k,1,0.8461278000031598,433.718309200005,None,None,0,,,,,,,,,,,,,,101,22,Male,2022-04-27_16h03.36.483,Main,2022.1.1,60.17484402539553,
negative,yellow,2,k,None,,,,,,,,,0,32,32,32,,,,,,,,,,,,,,,,,,,,,,,,,,,,,,,,,,,,,main,None,None,1,1.4975798999948893,435.5664955999964,None,None,1,,,,,,,,,,,,,,101,22,Male,2022-04-27_16h03.36.483,Main,2022.1.1,60.17484402539553,
negative,blue,1,None,k,,,,,,,,,0,33,33,33,,,,,,,,,,,,,,,,,,,,,,,,,,,,,,,,,,,,,main,k,k,1,0.5807104999985313,438.0649176000006,None,None,0,,,,,,,,,,,,,,101,22,Male,2022-04-27_16h03.36.483,Main,2022.1.1,60.17484402539553,
positive,blue,1,k,None,,,,,,,,,0,34,34,34,,,,,,,,,,,,,,,,,,,,,,,,,,,,,,,,,,,,,main,None,None,1,1.495803400001023,439.6466694999981,None,None,1,,,,,,,,,,,,,,101,22,Male,2022-04-27_16h03.36.483,Main,2022.1.1,60.17484402539553,
negative,yellow,1,k,None,,,,,,,,,0,35,35,35,,,,,,,,,,,,,,,,,,,,,,,,,,,,,,,,,,,,,main,None,None,1,1.4973255000077188,442.14454059999844,None,None,1,,,,,,,,,,,,,,101,22,Male,2022-04-27_16h03.36.483,Main,2022.1.1,60.17484402539553,
positive,yellow,2,None,k,,,,,,,,,0,36,36,36,,,,,,,,,,,,,,,,,,,,,,,,,,,,,,,,,,,,,main,k,k,1,0.8289460000087274,444.6424701999931,None,None,0,,,,,,,,,,,,,,101,22,Male,2022-04-27_16h03.36.483,Main,2022.1.1,60.17484402539553,
positive,yellow,2,None,k,,,,,,,,,0,37,37,37,,,,,,,,,,,,,,,,,,,,,,,,,,,,,,,,,,,,,main,k,k,1,0.6315290000056848,446.4742824999994,None,None,0,,,,,,,,,,,,,,101,22,Male,2022-04-27_16h03.36.483,Main,2022.1.1,60.17484402539553,
negative,yellow,2,k,None,,,,,,,,,0,38,38,38,,,,,,,,,,,,,,,,,,,,,,,,,,,,,,,,,,,,,main,None,None,1,1.4961372999969171,448.106128799991,None,None,1,,,,,,,,,,,,,,101,22,Male,2022-04-27_16h03.36.483,Main,2022.1.1,60.17484402539553,
positive,yellow,1,None,k,,,,,,,,,0,39,39,39,,,,,,,,,,,,,,,,,,,,,,,,,,,,,,,,,,,,,main,k,k,1,0.696563800011063,450.604513600003,None,None,0,,,,,,,,,,,,,,101,22,Male,2022-04-27_16h03.36.483,Main,2022.1.1,60.17484402539553,
negative,yellow,2,k,None,,,,,,,,,0,40,40,40,,,,,,,,,,,,,,,,,,,,,,,,,,,,,,,,,,,,,main,None,None,1,1.4968722000048729,452.3028151000035,None,None,1,,,,,,,,,,,,,,101,22,Male,2022-04-27_16h03.36.483,Main,2022.1.1,60.17484402539553,
positive,blue,2,k,None,,,,,,,,,0,41,41,41,,,,,,,,,,,,,,,,,,,,,,,,,,,,,,,,,,,,,main,None,None,1,1.4963113999983761,454.8006902000052,None,None,1,,,,,,,,,,,,,,101,22,Male,2022-04-27_16h03.36.483,Main,2022.1.1,60.17484402539553,
positive,blue,2,k,None,,,,,,,,,0,42,42,42,,,,,,,,,,,,,,,,,,,,,,,,,,,,,,,,,,,,,main,None,None,1,1.4975616000010632,457.2986152999947,None,None,1,,,,,,,,,,,,,,101,22,Male,2022-04-27_16h03.36.483,Main,2022.1.1,60.17484402539553,
negative,blue,2,None,k,,,,,,,,,0,43,43,43,,,,,,,,,,,,,,,,,,,,,,,,,,,,,,,,,,,,,main,k,k,1,0.5803036999859614,459.7965824999992,None,None,0,,,,,,,,,,,,,,101,22,Male,2022-04-27_16h03.36.483,Main,2022.1.1,60.17484402539553,
negative,red,1,None,None,,,,,,,,,0,44,44,44,,,,,,,,,,,,,,,,,,,,,,,,,,,,,,,,,,,,,main,None,None,1,1.4977451000013389,461.37851539999247,None,None,1,,,,,,,,,,,,,,101,22,Male,2022-04-27_16h03.36.483,Main,2022.1.1,60.17484402539553,
negative,yellow,1,k,None,,,,,,,,,0,45,45,45,,,,,,,,,,,,,,,,,,,,,,,,,,,,,,,,,,,,,main,None,None,1,1.495660400003544,463.87679229999776,None,None,1,,,,,,,,,,,,,,101,22,Male,2022-04-27_16h03.36.483,Main,2022.1.1,60.17484402539553,
negative,yellow,1,k,None,,,,,,,,,0,46,46,46,,,,,,,,,,,,,,,,,,,,,,,,,,,,,,,,,,,,,main,None,None,1,1.495936100007384,466.3745629000041,None,None,1,,,,,,,,,,,,,,101,22,Male,2022-04-27_16h03.36.483,Main,2022.1.1,60.17484402539553,
positive,red,1,None,None,,,,,,,,,0,47,47,47,,,,,,,,,,,,,,,,,,,,,,,,,,,,,,,,,,,,,main,None,k,0,0.6483363000006648,468.8725315999909,None,None,1,,,,,,,,,,,,,,101,22,Male,2022-04-27_16h03.36.483,Main,2022.1.1,60.17484402539553,
positive,yellow,1,None,k,,,,,,,,,0,48,48,48,,,,,,,,,,,,,,,,,,,,,,,,,,,,,,,,,,,,,main,k,k,1,0.6828757000039332,471.5369258999999,None,None,0,,,,,,,,,,,,,,101,22,Male,2022-04-27_16h03.36.483,Main,2022.1.1,60.17484402539553,
negative,blue,1,None,k,,,,,,,,,0,49,49,49,,,,,,,,,,,,,,,,,,,,,,,,,,,,,,,,,,,,,main,k,k,1,0.9962987000035355,473.21920249999675,None,None,0,,,,,,,,,,,,,,101,22,Male,2022-04-27_16h03.36.483,Main,2022.1.1,60.17484402539553,
positive,yellow,2,None,k,,,,,,,,,0,50,50,50,,,,,,,,,,,,,,,,,,,,,,,,,,,,,,,,,,,,,main,k,k,1,0.7637275000015507,475.21742950000043,None,None,0,,,,,,,,,,,,,,101,22,Male,2022-04-27_16h03.36.483,Main,2022.1.1,60.17484402539553,
negative,blue,1,None,k,,,,,,,,,0,51,51,51,,,,,,,,,,,,,,,,,,,,,,,,,,,,,,,,,,,,,main,k,k,1,0.6971256000106223,476.98230760000297,None,None,0,,,,,,,,,,,,,,101,22,Male,2022-04-27_16h03.36.483,Main,2022.1.1,60.17484402539553,
positive,red,2,None,None,,,,,,,,,0,52,52,52,,,,,,,,,,,,,,,,,,,,,,,,,,,,,,,,,,,,,main,None,None,1,1.497792299996945,478.6809537999943,None,None,1,,,,,,,,,,,,,,101,22,Male,2022-04-27_16h03.36.483,Main,2022.1.1,60.17484402539553,
positive,yellow,2,None,k,,,,,,,,,0,53,53,53,,,,,,,,,,,,,,,,,,,,,,,,,,,,,,,,,,,,,main,k,k,1,0.7460408000042662,481.17895509999653,None,None,0,,,,,,,,,,,,,,101,22,Male,2022-04-27_16h03.36.483,Main,2022.1.1,60.17484402539553,
negative,red,2,None,None,,,,,,,,,0,54,54,54,,,,,,,,,,,,,,,,,,,,,,,,,,,,,,,,,,,,,main,None,None,1,1.4969451000069967,482.9274849999929,None,None,1,,,,,,,,,,,,,,101,22,Male,2022-04-27_16h03.36.483,Main,2022.1.1,60.17484402539553,
positive,yellow,1,None,k,,,,,,,,,0,55,55,55,,,,,,,,,,,,,,,,,,,,,,,,,,,,,,,,,,,,,main,k,k,1,0.6807969000074081,485.4256844000047,None,None,0,,,,,,,,,,,,,,101,22,Male,2022-04-27_16h03.36.483,Main,2022.1.1,60.17484402539553,
negative,blue,2,None,k,,,,,,,,,0,56,56,56,,,,,,,,,,,,,,,,,,,,,,,,,,,,,,,,,,,,,main,k,k,1,0.7325058999995235,487.10755970000173,None,None,0,,,,,,,,,,,,,,101,22,Male,2022-04-27_16h03.36.483,Main,2022.1.1,60.17484402539553,
positive,blue,1,k,None,,,,,,,,,0,57,57,57,,,,,,,,,,,,,,,,,,,,,,,,,,,,,,,,,,,,,main,None,None,1,1.496503100002883,488.8398068999959,None,None,1,,,,,,,,,,,,,,101,22,Male,2022-04-27_16h03.36.483,Main,2022.1.1,60.17484402539553,
positive,blue,1,k,None,,,,,,,,,0,58,58,58,,,,,,,,,,,,,,,,,,,,,,,,,,,,,,,,,,,,,main,None,None,1,1.5012623999937205,491.33722699999635,None,None,1,,,,,,,,,,,,,,101,22,Male,2022-04-27_16h03.36.483,Main,2022.1.1,60.17484402539553,
negative,yellow,2,k,None,,,,,,,,,0,59,59,59,,,,,,,,,,,,,,,,,,,,,,,,,,,,,,,,,,,,,main,None,None,1,1.506534999993164,493.84307550000085,None,None,1,,,,,,,,,,,,,,101,22,Male,2022-04-27_16h03.36.483,Main,2022.1.1,60.17484402539553,
positive,red,2,None,None,,,,,,,,,0,60,60,60,,,,,,,,,,,,,,,,,,,,,,,,,,,,,,,,,,,,,main,None,None,1,1.4957051999954274,496.3499921000039,None,None,1,,,,,,,,,,,,,,101,22,Male,2022-04-27_16h03.36.483,Main,2022.1.1,60.17484402539553,
negative,yellow,1,k,None,,,,,,,,,0,61,61,61,,,,,,,,,,,,,,,,,,,,,,,,,,,,,,,,,,,,,main,None,None,1,1.496369100001175,498.84765640000114,None,None,1,,,,,,,,,,,,,,101,22,Male,2022-04-27_16h03.36.483,Main,2022.1.1,60.17484402539553,
negative,red,1,None,None,,,,,,,,,0,62,62,62,,,,,,,,,,,,,,,,,,,,,,,,,,,,,,,,,,,,,main,None,None,1,1.4958416000008583,501.3457711999945,None,None,1,,,,,,,,,,,,,,101,22,Male,2022-04-27_16h03.36.483,Main,2022.1.1,60.17484402539553,
negative,blue,1,None,k,,,,,,,,,0,63,63,63,,,,,,,,,,,,,,,,,,,,,,,,,,,,,,,,,,,,,main,k,k,1,0.7978563000069698,503.8436281000031,None,None,0,,,,,,,,,,,,,,101,22,Male,2022-04-27_16h03.36.483,Main,2022.1.1,60.17484402539553,
positive,blue,2,k,None,,,,,,,,,0,64,64,64,,,,,,,,,,,,,,,,,,,,,,,,,,,,,,,,,,,,,main,None,None,1,1.4966993999987608,505.6418856999953,None,None,1,,,,,,,,,,,,,,101,22,Male,2022-04-27_16h03.36.483,Main,2022.1.1,60.17484402539553,
negative,yellow,2,k,None,,,,,,,,,0,65,65,65,,,,,,,,,,,,,,,,,,,,,,,,,,,,,,,,,,,,,main,None,None,1,1.4955182999983663,508.1405584000022,None,None,1,,,,,,,,,,,,,,101,22,Male,2022-04-27_16h03.36.483,Main,2022.1.1,60.17484402539553,
positive,yellow,2,None,k,,,,,,,,,0,66,66,66,,,,,,,,,,,,,,,,,,,,,,,,,,,,,,,,,,,,,main,k,k,1,0.6975579999998445,510.6383182999998,None,None,0,,,,,,,,,,,,,,101,22,Male,2022-04-27_16h03.36.483,Main,2022.1.1,60.17484402539553,
positive,yellow,2,None,k,,,,,,,,,0,67,67,67,,,,,,,,,,,,,,,,,,,,,,,,,,,,,,,,,,,,,main,k,k,1,0.6304715000005672,512.3365467999974,None,None,0,,,,,,,,,,,,,,101,22,Male,2022-04-27_16h03.36.483,Main,2022.1.1,60.17484402539553,
positive,red,1,None,None,,,,,,,,,0,68,68,68,,,,,,,,,,,,,,,,,,,,,,,,,,,,,,,,,,,,,main,None,None,1,1.4966970999957994,513.9685000000027,None,None,1,,,,,,,,,,,,,,101,22,Male,2022-04-27_16h03.36.483,Main,2022.1.1,60.17484402539553,
positive,yellow,1,None,k,,,,,,,,,0,69,69,69,,,,,,,,,,,,,,,,,,,,,,,,,,,,,,,,,,,,,main,k,k,1,0.6641545000020415,516.466778499991,None,None,0,,,,,,,,,,,,,,101,22,Male,2022-04-27_16h03.36.483,Main,2022.1.1,60.17484402539553,
negative,yellow,2,k,None,,,,,,,,,0,70,70,70,,,,,,,,,,,,,,,,,,,,,,,,,,,,,,,,,,,,,main,None,None,1,1.4958279999991646,518.1314375999937,None,None,1,,,,,,,,,,,,,,101,22,Male,2022-04-27_16h03.36.483,Main,2022.1.1,60.17484402539553,
positive,yellow,1,None,k,,,,,,,,,0,71,71,71,,,,,,,,,,,,,,,,,,,,,,,,,,,,,,,,,,,,,main,k,k,1,0.6488414000050398,520.6299951999972,None,None,0,,,,,,,,,,,,,,101,22,Male,2022-04-27_16h03.36.483,Main,2022.1.1,60.17484402539553,
negative,blue,1,None,k,,,,,,,,,0,72,72,72,,,,,,,,,,,,,,,,,,,,,,,,,,,,,,,,,,,,,main,k,k,1,0.7632804000022588,522.2785139000043,None,None,0,,,,,,,,,,,,,,101,22,Male,2022-04-27_16h03.36.483,Main,2022.1.1,60.17484402539553,
negative,red,2,None,None,,,,,,,,,0,73,73,73,,,,,,,,,,,,,,,,,,,,,,,,,,,,,,,,,,,,,main,None,None,1,1.4976253999921028,524.0435785000009,None,None,1,,,,,,,,,,,,,,101,22,Male,2022-04-27_16h03.36.483,Main,2022.1.1,60.17484402539553,
positive,blue,2,k,None,,,,,,,,,0,74,74,74,,,,,,,,,,,,,,,,,,,,,,,,,,,,,,,,,,,,,main,None,None,1,1.495211700006621,526.5415691999951,None,None,1,,,,,,,,,,,,,,101,22,Male,2022-04-27_16h03.36.483,Main,2022.1.1,60.17484402539553,
negative,blue,2,None,k,,,,,,,,,0,75,75,75,,,,,,,,,,,,,,,,,,,,,,,,,,,,,,,,,,,,,main,k,k,1,0.6644948000030126,529.0395671000006,None,None,0,,,,,,,,,,,,,,101,22,Male,2022-04-27_16h03.36.483,Main,2022.1.1,60.17484402539553,
negative,blue,2,None,k,,,,,,,,,0,76,76,76,,,,,,,,,,,,,,,,,,,,,,,,,,,,,,,,,,,,,main,k,k,1,0.5639686000067741,530.7047439000016,None,None,0,,,,,,,,,,,,,,101,22,Male,2022-04-27_16h03.36.483,Main,2022.1.1,60.17484402539553,
negative,yellow,1,k,None,,,,,,,,,0,77,77,77,,,,,,,,,,,,,,,,,,,,,,,,,,,,,,,,,,,,,main,None,None,1,1.495990499999607,532.2703470999986,None,None,1,,,,,,,,,,,,,,101,22,Male,2022-04-27_16h03.36.483,Main,2022.1.1,60.17484402539553,
positive,blue,1,k,None,,,,,,,,,0,78,78,78,,,,,,,,,,,,,,,,,,,,,,,,,,,,,,,,,,,,,main,None,None,1,1.4975594999996247,534.7683461999986,None,None,1,,,,,,,,,,,,,,101,22,Male,2022-04-27_16h03.36.483,Main,2022.1.1,60.17484402539553,
positive,blue,1,k,None,,,,,,,,,0,79,79,79,,,,,,,,,,,,,,,,,,,,,,,,,,,,,,,,,,,,,main,None,None,1,1.4960882000013953,537.2661779000045,None,None,1,,,,,,,,,,,,,,101,22,Male,2022-04-27_16h03.36.483,Main,2022.1.1,60.17484402539553,
positive,red,2,None,None,,,,,,,,,0,80,80,80,,,,,,,,,,,,,,,,,,,,,,,,,,,,,,,,,,,,,main,None,None,1,1.496190799996839,539.7644297999941,None,None,1,,,,,,,,,,,,,,101,22,Male,2022-04-27_16h03.36.483,Main,2022.1.1,60.17484402539553,
positive,yellow,2,None,k,,,,,,,,,0,81,81,81,,,,,,,,,,,,,,,,,,,,,,,,,,,,,,,,,,,,,main,k,k,1,1.0302919999958249,542.261703600001,None,None,0,,,,,,,,,,,,,,101,22,Male,2022-04-27_16h03.36.483,Main,2022.1.1,60.17484402539553,
positive,blue,1,k,None,,,,,,,,,0,82,82,82,,,,,,,,,,,,,,,,,,,,,,,,,,,,,,,,,,,,,main,None,None,1,1.4984133999969345,544.2934813000029,None,None,1,,,,,,,,,,,,,,101,22,Male,2022-04-27_16h03.36.483,Main,2022.1.1,60.17484402539553,
negative,yellow,2,k,None,,,,,,,,,0,83,83,83,,,,,,,,,,,,,,,,,,,,,,,,,,,,,,,,,,,,,main,None,None,1,1.4945858999999473,546.7923670000018,None,None,1,,,,,,,,,,,,,,101,22,Male,2022-04-27_16h03.36.483,Main,2022.1.1,60.17484402539553,
positive,blue,2,k,None,,,,,,,,,0,84,84,84,,,,,,,,,,,,,,,,,,,,,,,,,,,,,,,,,,,,,main,None,None,1,1.4967370999947889,549.2895795999939,None,None,1,,,,,,,,,,,,,,101,22,Male,2022-04-27_16h03.36.483,Main,2022.1.1,60.17484402539553,
positive,yellow,1,None,k,,,,,,,,,0,85,85,85,,,,,,,,,,,,,,,,,,,,,,,,,,,,,,,,,,,,,main,k,k,1,0.6144614999939222,551.7888802999951,None,None,0,,,,,,,,,,,,,,101,22,Male,2022-04-27_16h03.36.483,Main,2022.1.1,60.17484402539553,
positive,blue,2,k,None,,,,,,,,,0,86,86,86,,,,,,,,,,,,,,,,,,,,,,,,,,,,,,,,,,,,,main,None,None,1,1.496309599999222,553.4029710000032,None,None,1,,,,,,,,,,,,,,101,22,Male,2022-04-27_16h03.36.483,Main,2022.1.1,60.17484402539553,
positive,blue,1,k,None,,,,,,,,,0,87,87,87,,,,,,,,,,,,,,,,,,,,,,,,,,,,,,,,,,,,,main,None,None,1,1.4960092000110308,555.9008676999947,None,None,1,,,,,,,,,,,,,,101,22,Male,2022-04-27_16h03.36.483,Main,2022.1.1,60.17484402539553,
negative,yellow,2,k,None,,,,,,,,,0,88,88,88,,,,,,,,,,,,,,,,,,,,,,,,,,,,,,,,,,,,,main,None,None,1,1.496630699999514,558.398658399994,None,None,1,,,,,,,,,,,,,,101,22,Male,2022-04-27_16h03.36.483,Main,2022.1.1,60.17484402539553,
negative,blue,2,None,k,,,,,,,,,0,89,89,89,,,,,,,,,,,,,,,,,,,,,,,,,,,,,,,,,,,,,main,k,k,1,0.7137702999898465,560.8967919999996,None,None,0,,,,,,,,,,,,,,101,22,Male,2022-04-27_16h03.36.483,Main,2022.1.1,60.17484402539553,
positive,yellow,2,None,k,,,,,,,,,0,90,90,90,,,,,,,,,,,,,,,,,,,,,,,,,,,,,,,,,,,,,main,k,k,1,0.7807841000030749,562.6117554999946,None,None,0,,,,,,,,,,,,,,101,22,Male,2022-04-27_16h03.36.483,Main,2022.1.1,60.17484402539553,
negative,yellow,1,k,None,,,,,,,,,0,91,91,91,,,,,,,,,,,,,,,,,,,,,,,,,,,,,,,,,,,,,main,None,None,1,1.4961507999978494,564.3936855999928,None,None,1,,,,,,,,,,,,,,101,22,Male,2022-04-27_16h03.36.483,Main,2022.1.1,60.17484402539553,
negative,red,2,None,None,,,,,,,,,0,92,92,92,,,,,,,,,,,,,,,,,,,,,,,,,,,,,,,,,,,,,main,None,None,1,1.4964624999993248,566.891718999992,None,None,1,,,,,,,,,,,,,,101,22,Male,2022-04-27_16h03.36.483,Main,2022.1.1,60.17484402539553,
negative,blue,2,None,k,,,,,,,,,0,93,93,93,,,,,,,,,,,,,,,,,,,,,,,,,,,,,,,,,,,,,main,k,k,1,0.6651729000004707,569.3897364000004,None,None,0,,,,,,,,,,,,,,101,22,Male,2022-04-27_16h03.36.483,Main,2022.1.1,60.17484402539553,
negative,blue,1,None,k,,,,,,,,,0,94,94,94,,,,,,,,,,,,,,,,,,,,,,,,,,,,,,,,,,,,,main,k,k,1,0.7296494000038365,571.0549964999955,None,None,0,,,,,,,,,,,,,,101,22,Male,2022-04-27_16h03.36.483,Main,2022.1.1,60.17484402539553,
negative,blue,1,None,k,,,,,,,,,0,95,95,95,,,,,,,,,,,,,,,,,,,,,,,,,,,,,,,,,,,,,main,k,k,1,0.6157105000020238,572.7866914000042,None,None,0,,,,,,,,,,,,,,101,22,Male,2022-04-27_16h03.36.483,Main,2022.1.1,60.17484402539553,
negative,red,1,None,None,,,,,,,,,0,96,96,96,,,,,,,,,,,,,,,,,,,,,,,,,,,,,,,,,,,,,main,None,None,1,1.4966592999990098,574.4020763000008,None,None,1,,,,,,,,,,,,,,101,22,Male,2022-04-27_16h03.36.483,Main,2022.1.1,60.17484402539553,
positive,yellow,1,None,k,,,,,,,,,0,97,97,97,,,,,,,,,,,,,,,,,,,,,,,,,,,,,,,,,,,,,main,k,k,1,0.5457789999927627,576.9003077999951,None,None,0,,,,,,,,,,,,,,101,22,Male,2022-04-27_16h03.36.483,Main,2022.1.1,60.17484402539553,
negative,yellow,1,k,None,,,,,,,,,0,98,98,98,,,,,,,,,,,,,,,,,,,,,,,,,,,,,,,,,,,,,main,None,None,1,1.4948915999993915,578.4489765000035,None,None,1,,,,,,,,,,,,,,101,22,Male,2022-04-27_16h03.36.483,Main,2022.1.1,60.17484402539553,
positive,red,1,None,None,,,,,,,,,0,99,99,99,,,,,,,,,,,,,,,,,,,,,,,,,,,,,,,,,,,,,main,None,None,1,1.496583100000862,580.9466353000025,None,None,1,,,,,,,,,,,,,,101,22,Male,2022-04-27_16h03.36.483,Main,2022.1.1,60.17484402539553,
positive,blue,1,k,None,,,,,,,,,0,100,100,100,,,,,,,,,,,,,,,,,,,,,,,,,,,,,,,,,,,,,main,None,None,1,1.4959666000067955,583.4449362000014,None,None,1,,,,,,,,,,,,,,101,22,Male,2022-04-27_16h03.36.483,Main,2022.1.1,60.17484402539553,
negative,yellow,1,k,None,,,,,,,,,0,101,101,101,,,,,,,,,,,,,,,,,,,,,,,,,,,,,,,,,,,,,main,None,k,0,0.5951110000023618,585.9429459999956,None,None,1,,,,,,,,,,,,,,101,22,Male,2022-04-27_16h03.36.483,Main,2022.1.1,60.17484402539553,
negative,blue,2,None,k,,,,,,,,,0,102,102,102,,,,,,,,,,,,,,,,,,,,,,,,,,,,,,,,,,,,,main,k,k,1,0.7178351000038674,588.5407244999951,None,None,0,,,,,,,,,,,,,,101,22,Male,2022-04-27_16h03.36.483,Main,2022.1.1,60.17484402539553,
negative,yellow,2,k,None,,,,,,,,,0,103,103,103,,,,,,,,,,,,,,,,,,,,,,,,,,,,,,,,,,,,,main,None,None,1,1.5011532000062289,590.2557782999938,None,None,1,,,,,,,,,,,,,,101,22,Male,2022-04-27_16h03.36.483,Main,2022.1.1,60.17484402539553,
positive,yellow,2,None,k,,,,,,,,,0,104,104,104,,,,,,,,,,,,,,,,,,,,,,,,,,,,,,,,,,,,,main,k,k,1,0.5948331999970833,592.7589480000024,None,None,0,,,,,,,,,,,,,,101,22,Male,2022-04-27_16h03.36.483,Main,2022.1.1,60.17484402539553,
positive,blue,1,k,None,,,,,,,,,0,105,105,105,,,,,,,,,,,,,,,,,,,,,,,,,,,,,,,,,,,,,main,None,None,1,1.5086176000040723,594.3560472999961,None,None,1,,,,,,,,,,,,,,101,22,Male,2022-04-27_16h03.36.483,Main,2022.1.1,60.17484402539553,
positive,blue,2,k,None,,,,,,,,,0,106,106,106,,,,,,,,,,,,,,,,,,,,,,,,,,,,,,,,,,,,,main,None,None,1,1.4953400999947917,596.8670281999948,None,None,1,,,,,,,,,,,,,,101,22,Male,2022-04-27_16h03.36.483,Main,2022.1.1,60.17484402539553,
negative,blue,1,None,k,,,,,,,,,0,107,107,107,,,,,,,,,,,,,,,,,,,,,,,,,,,,,,,,,,,,,main,k,k,1,0.6630054000124801,599.3648892999918,None,None,0,,,,,,,,,,,,,,101,22,Male,2022-04-27_16h03.36.483,Main,2022.1.1,60.17484402539553,
positive,yellow,2,None,k,,,,,,,,,0,108,108,108,,,,,,,,,,,,,,,,,,,,,,,,,,,,,,,,,,,,,main,k,k,1,0.7645673000079114,601.0303223999945,None,None,0,,,,,,,,,,,,,,101,22,Male,2022-04-27_16h03.36.483,Main,2022.1.1,60.17484402539553,
negative,yellow,1,k,None,,,,,,,,,0,109,109,109,,,,,,,,,,,,,,,,,,,,,,,,,,,,,,,,,,,,,main,None,None,1,1.5102090000000317,602.7956681999931,None,None,1,,,,,,,,,,,,,,101,22,Male,2022-04-27_16h03.36.483,Main,2022.1.1,60.17484402539553,
negative,blue,2,None,k,,,,,,,,,0,110,110,110,,,,,,,,,,,,,,,,,,,,,,,,,,,,,,,,,,,,,main,k,k,1,0.6528402999974787,605.3154788999964,None,None,0,,,,,,,,,,,,,,101,22,Male,2022-04-27_16h03.36.483,Main,2022.1.1,60.17484402539553,
positive,blue,2,k,None,,,,,,,,,0,111,111,111,,,,,,,,,,,,,,,,,,,,,,,,,,,,,,,,,,,,,main,None,None,1,1.5090654999949038,606.9642262999987,None,None,1,,,,,,,,,,,,,,101,22,Male,2022-04-27_16h03.36.483,Main,2022.1.1,60.17484402539553,
negative,blue,1,None,k,,,,,,,,,0,112,112,112,,,,,,,,,,,,,,,,,,,,,,,,,,,,,,,,,,,,,main,k,k,1,0.764743499996257,609.4771882999921,None,None,0,,,,,,,,,,,,,,101,22,Male,2022-04-27_16h03.36.483,Main,2022.1.1,60.17484402539553,
positive,yellow,1,None,k,,,,,,,,,0,113,113,113,,,,,,,,,,,,,,,,,,,,,,,,,,,,,,,,,,,,,main,k,k,1,0.6580741999932798,611.2447556999978,None,None,0,,,,,,,,,,,,,,101,22,Male,2022-04-27_16h03.36.483,Main,2022.1.1,60.17484402539553,
negative,red,1,None,None,,,,,,,,,0,114,114,114,,,,,,,,,,,,,,,,,,,,,,,,,,,,,,,,,,,,,main,None,None,1,1.496105300000636,612.9038180999923,None,None,1,,,,,,,,,,,,,,101,22,Male,2022-04-27_16h03.36.483,Main,2022.1.1,60.17484402539553,
positive,red,1,None,None,,,,,,,,,0,115,115,115,,,,,,,,,,,,,,,,,,,,,,,,,,,,,,,,,,,,,main,None,None,1,1.4979775000101654,615.4019447000028,None,None,1,,,,,,,,,,,,,,101,22,Male,2022-04-27_16h03.36.483,Main,2022.1.1,60.17484402539553,
negative,red,2,None,None,,,,,,,,,0,116,116,116,,,,,,,,,,,,,,,,,,,,,,,,,,,,,,,,,,,,,main,None,None,1,1.4944191000104183,617.9008169000008,None,None,1,,,,,,,,,,,,,,101,22,Male,2022-04-27_16h03.36.483,Main,2022.1.1,60.17484402539553,
negative,yellow,2,k,None,,,,,,,,,0,117,117,117,,,,,,,,,,,,,,,,,,,,,,,,,,,,,,,,,,,,,main,None,None,1,1.496761599992169,620.3977141999931,None,None,1,,,,,,,,,,,,,,101,22,Male,2022-04-27_16h03.36.483,Main,2022.1.1,60.17484402539553,
positive,yellow,1,None,k,,,,,,,,,0,118,118,118,,,,,,,,,,,,,,,,,,,,,,,,,,,,,,,,,,,,,main,k,k,1,1.3961005999881309,622.8957308999961,None,None,0,,,,,,,,,,,,,,101,22,Male,2022-04-27_16h03.36.483,Main,2022.1.1,60.17484402539553,
positive,red,2,None,None,,,,,,,,,0,119,119,119,,,,,,,,,,,,,,,,,,,,,,,,,,,,,,,,,,,,,main,None,None,1,1.497834800000419,625.2936364000052,None,None,1,,,,,,,,,,,,,,101,22,Male,2022-04-27_16h03.36.483,Main,2022.1.1,60.17484402539553,
positive,blue,2,k,None,,,,,,,,,0,120,120,120,,,,,,,,,,,,,,,,,,,,,,,,,,,,,,,,,,,,,main,None,None,1,1.4950629000086337,627.7924428999977,None,None,1,,,,,,,,,,,,,,101,22,Male,2022-04-27_16h03.36.483,Main,2022.1.1,60.17484402539553,
negative,red,1,None,None,,,,,,,,,0,121,121,121,,,,,,,,,,,,,,,,,,,,,,,,,,,,,,,,,,,,,main,None,None,1,1.4980172000068706,630.2895638999908,None,None,1,,,,,,,,,,,,,,101,22,Male,2022-04-27_16h03.36.483,Main,2022.1.1,60.17484402539553,
positive,yellow,2,None,k,,,,,,,,,0,122,122,122,,,,,,,,,,,,,,,,,,,,,,,,,,,,,,,,,,,,,main,k,k,1,0.7121189999888884,632.7886464000039,None,None,0,,,,,,,,,,,,,,101,22,Male,2022-04-27_16h03.36.483,Main,2022.1.1,60.17484402539553,
negative,red,2,None,None,,,,,,,,,0,123,123,123,,,,,,,,,,,,,,,,,,,,,,,,,,,,,,,,,,,,,main,None,None,1,1.4999129999923753,634.5027946999908,None,None,1,,,,,,,,,,,,,,101,22,Male,2022-04-27_16h03.36.483,Main,2022.1.1,60.17484402539553,
negative,yellow,2,k,None,,,,,,,,,0,124,124,124,,,,,,,,,,,,,,,,,,,,,,,,,,,,,,,,,,,,,main,None,None,1,1.5089263999980176,637.0038772999978,None,None,1,,,,,,,,,,,,,,101,22,Male,2022-04-27_16h03.36.483,Main,2022.1.1,60.17484402539553,
positive,red,1,None,None,,,,,,,,,0,125,125,125,,,,,,,,,,,,,,,,,,,,,,,,,,,,,,,,,,,,,main,None,None,1,1.4970570000004955,639.5153599000041,None,None,1,,,,,,,,,,,,,,101,22,Male,2022-04-27_16h03.36.483,Main,2022.1.1,60.17484402539553,
negative,blue,2,None,k,,,,,,,,,0,126,126,126,,,,,,,,,,,,,,,,,,,,,,,,,,,,,,,,,,,,,main,k,k,1,0.7798496000032173,642.0130448999989,None,None,0,,,,,,,,,,,,,,101,22,Male,2022-04-27_16h03.36.483,Main,2022.1.1,60.17484402539553,
negative,blue,1,None,k,,,,,,,,,0,127,127,127,,,,,,,,,,,,,,,,,,,,,,,,,,,,,,,,,,,,,main,k,k,1,0.5469372999941697,643.7949625000037,None,None,0,,,,,,,,,,,,,,101,22,Male,2022-04-27_16h03.36.483,Main,2022.1.1,60.17484402539553,
negative,yellow,1,k,None,,,,,,,,,0,128,128,128,,,,,,,,,,,,,,,,,,,,,,,,,,,,,,,,,,,,,main,None,None,1,1.4981035999953747,645.3437001999991,None,None,1,,,,,,,,,,,,,,101,22,Male,2022-04-27_16h03.36.483,Main,2022.1.1,60.17484402539553,
negative,yellow,1,k,None,,,,,,,,,0,129,129,129,,,,,,,,,,,,,,,,,,,,,,,,,,,,,,,,,,,,,main,None,None,1,1.494945500002359,647.8417599999957,None,None,1,,,,,,,,,,,,,,101,22,Male,2022-04-27_16h03.36.483,Main,2022.1.1,60.17484402539553,
positive,blue,1,k,None,,,,,,,,,0,130,130,130,,,,,,,,,,,,,,,,,,,,,,,,,,,,,,,,,,,,,main,None,None,1,1.4970032999990508,650.3396528000012,None,None,1,,,,,,,,,,,,,,101,22,Male,2022-04-27_16h03.36.483,Main,2022.1.1,60.17484402539553,
negative,blue,1,None,k,,,,,,,,,0,131,131,131,,,,,,,,,,,,,,,,,,,,,,,,,,,,,,,,,,,,,main,k,k,1,0.6479362999962177,652.8377391999966,None,None,0,,,,,,,,,,,,,,101,22,Male,2022-04-27_16h03.36.483,Main,2022.1.1,60.17484402539553,
negative,blue,2,None,k,,,,,,,,,0,132,132,132,,,,,,,,,,,,,,,,,,,,,,,,,,,,,,,,,,,,,main,k,k,1,0.7294879999972181,654.4860396000004,None,None,0,,,,,,,,,,,,,,101,22,Male,2022-04-27_16h03.36.483,Main,2022.1.1,60.17484402539553,
positive,blue,2,k,None,,,,,,,,,0,133,133,133,,,,,,,,,,,,,,,,,,,,,,,,,,,,,,,,,,,,,main,None,None,1,1.497310999999172,656.2180576999963,None,None,1,,,,,,,,,,,,,,101,22,Male,2022-04-27_16h03.36.483,Main,2022.1.1,60.17484402539553,
positive,red,2,None,None,,,,,,,,,0,134,134,134,,,,,,,,,,,,,,,,,,,,,,,,,,,,,,,,,,,,,main,None,None,1,1.4960763999988558,658.7160411999939,None,None,1,,,,,,,,,,,,,,101,22,Male,2022-04-27_16h03.36.483,Main,2022.1.1,60.17484402539553,
negative,yellow,2,k,None,,,,,,,,,0,135,135,135,,,,,,,,,,,,,,,,,,,,,,,,,,,,,,,,,,,,,main,None,None,1,1.4972280000074534,661.2140737000009,None,None,1,,,,,,,,,,,,,,101,22,Male,2022-04-27_16h03.36.483,Main,2022.1.1,60.17484402539553,
positive,yellow,2,None,k,,,,,,,,,0,136,136,136,,,,,,,,,,,,,,,,,,,,,,,,,,,,,,,,,,,,,main,k,k,1,0.6978682999906596,663.7117907999927,None,None,0,,,,,,,,,,,,,,101,22,Male,2022-04-27_16h03.36.483,Main,2022.1.1,60.17484402539553,
positive,blue,1,k,None,,,,,,,,,0,137,137,137,,,,,,,,,,,,,,,,,,,,,,,,,,,,,,,,,,,,,main,None,None,1,1.496296600002097,665.4106923999934,None,None,1,,,,,,,,,,,,,,101,22,Male,2022-04-27_16h03.36.483,Main,2022.1.1,60.17484402539553,
positive,yellow,1,None,k,,,,,,,,,0,138,138,138,,,,,,,,,,,,,,,,,,,,,,,,,,,,,,,,,,,,,main,k,k,1,0.6800893999898108,667.9085687000043,None,None,0,,,,,,,,,,,,,,101,22,Male,2022-04-27_16h03.36.483,Main,2022.1.1,60.17484402539553,
positive,yellow,1,None,k,,,,,,,,,0,139,139,139,,,,,,,,,,,,,,,,,,,,,,,,,,,,,,,,,,,,,main,k,k,1,0.5805301000073086,669.590498599995,None,None,0,,,,,,,,,,,,,,101,22,Male,2022-04-27_16h03.36.483,Main,2022.1.1,60.17484402539553,
positive,yellow,1,None,k,,,,,,,,,0,140,140,140,,,,,,,,,,,,,,,,,,,,,,,,,,,,,,,,,,,,,main,k,k,1,0.5635395999997854,671.1727335000032,None,None,0,,,,,,,,,,,,,,101,22,Male,2022-04-27_16h03.36.483,Main,2022.1.1,60.17484402539553,
positive,blue,1,k,None,,,,,,,,,0,141,141,141,,,,,,,,,,,,,,,,,,,,,,,,,,,,,,,,,,,,,main,None,None,1,1.4955657999962568,672.7377679999918,None,None,1,,,,,,,,,,,,,,101,22,Male,2022-04-27_16h03.36.483,Main,2022.1.1,60.17484402539553,
positive,blue,2,k,None,,,,,,,,,0,142,142,142,,,,,,,,,,,,,,,,,,,,,,,,,,,,,,,,,,,,,main,None,None,1,1.4952683000010438,675.2360092000017,None,None,1,,,,,,,,,,,,,,101,22,Male,2022-04-27_16h03.36.483,Main,2022.1.1,60.17484402539553,
positive,yellow,2,None,k,,,,,,,,,0,143,143,143,,,,,,,,,,,,,,,,,,,,,,,,,,,,,,,,,,,,,main,k,k,1,0.7623781000002054,677.7337330000009,None,None,0,,,,,,,,,,,,,,101,22,Male,2022-04-27_16h03.36.483,Main,2022.1.1,60.17484402539553,
negative,yellow,2,k,None,,,,,,,,,0,144,144,144,,,,,,,,,,,,,,,,,,,,,,,,,,,,,,,,,,,,,main,None,None,1,1.4978481999860378,679.4987855999934,None,None,1,,,,,,,,,,,,,,101,22,Male,2022-04-27_16h03.36.483,Main,2022.1.1,60.17484402539553,
negative,blue,2,None,k,,,,,,,,,0,145,145,145,,,,,,,,,,,,,,,,,,,,,,,,,,,,,,,,,,,,,main,k,k,1,0.6798836000089068,681.9971070000029,None,None,0,,,,,,,,,,,,,,101,22,Male,2022-04-27_16h03.36.483,Main,2022.1.1,60.17484402539553,
negative,red,1,None,None,,,,,,,,,0,146,146,146,,,,,,,,,,,,,,,,,,,,,,,,,,,,,,,,,,,,,main,None,None,1,1.4960384000005433,683.6787248000037,None,None,1,,,,,,,,,,,,,,101,22,Male,2022-04-27_16h03.36.483,Main,2022.1.1,60.17484402539553,
positive,blue,1,k,None,,,,,,,,,0,147,147,147,,,,,,,,,,,,,,,,,,,,,,,,,,,,,,,,,,,,,main,None,None,1,1.4968460999953095,686.1768401000008,None,None,1,,,,,,,,,,,,,,101,22,Male,2022-04-27_16h03.36.483,Main,2022.1.1,60.17484402539553,
positive,yellow,1,None,k,,,,,,,,,0,148,148,148,,,,,,,,,,,,,,,,,,,,,,,,,,,,,,,,,,,,,main,k,k,1,0.7135863000003155,688.6746598000027,None,None,0,,,,,,,,,,,,,,101,22,Male,2022-04-27_16h03.36.483,Main,2022.1.1,60.17484402539553,
negative,red,2,None,None,,,,,,,,,0,149,149,149,,,,,,,,,,,,,,,,,,,,,,,,,,,,,,,,,,,,,main,None,None,1,1.497594599990407,690.3898381000035,None,None,1,,,,,,,,,,,,,,101,22,Male,2022-04-27_16h03.36.483,Main,2022.1.1,60.17484402539553,
negative,blue,1,None,k,,,,,,,,,0,150,150,150,,,,,,,,,,,,,,,,,,,,,,,,,,,,,,,,,,,,,main,k,k,1,0.6458051999943564,692.8881118999998,None,None,0,,,,,,,,,,,,,,101,22,Male,2022-04-27_16h03.36.483,Main,2022.1.1,60.17484402539553,
negative,yellow,2,k,None,,,,,,,,,0,151,151,151,,,,,,,,,,,,,,,,,,,,,,,,,,,,,,,,,,,,,main,None,None,1,1.4956889000022784,694.5365663999983,None,None,1,,,,,,,,,,,,,,101,22,Male,2022-04-27_16h03.36.483,Main,2022.1.1,60.17484402539553,
negative,blue,2,None,k,,,,,,,,,0,152,152,152,,,,,,,,,,,,,,,,,,,,,,,,,,,,,,,,,,,,,main,k,k,1,0.6954123999894364,697.0345985000022,None,None,0,,,,,,,,,,,,,,101,22,Male,2022-04-27_16h03.36.483,Main,2022.1.1,60.17484402539553,
negative,yellow,1,k,None,,,,,,,,,0,153,153,153,,,,,,,,,,,,,,,,,,,,,,,,,,,,,,,,,,,,,main,None,None,1,1.4963253000023542,698.7332889999961,None,None,1,,,,,,,,,,,,,,101,22,Male,2022-04-27_16h03.36.483,Main,2022.1.1,60.17484402539553,
negative,blue,1,None,k,,,,,,,,,0,154,154,154,,,,,,,,,,,,,,,,,,,,,,,,,,,,,,,,,,,,,main,k,k,1,0.548052900005132,701.2311107999994,None,None,0,,,,,,,,,,,,,,101,22,Male,2022-04-27_16h03.36.483,Main,2022.1.1,60.17484402539553,
positive,yellow,2,None,k,,,,,,,,,0,155,155,155,,,,,,,,,,,,,,,,,,,,,,,,,,,,,,,,,,,,,main,k,k,1,0.731415799993556,702.7795945999969,None,None,0,,,,,,,,,,,,,,101,22,Male,2022-04-27_16h03.36.483,Main,2022.1.1,60.17484402539553,
positive,red,2,None,None,,,,,,,,,0,156,156,156,,,,,,,,,,,,,,,,,,,,,,,,,,,,,,,,,,,,,main,None,None,1,1.4958590000023833,704.5115192999947,None,None,1,,,,,,,,,,,,,,101,22,Male,2022-04-27_16h03.36.483,Main,2022.1.1,60.17484402539553,
positive,red,1,None,None,,,,,,,,,0,157,157,157,,,,,,,,,,,,,,,,,,,,,,,,,,,,,,,,,,,,,main,None,None,1,1.4972036999970442,707.0096648000035,None,None,1,,,,,,,,,,,,,,101,22,Male,2022-04-27_16h03.36.483,Main,2022.1.1,60.17484402539553,
positive,blue,2,k,None,,,,,,,,,0,158,158,158,,,,,,,,,,,,,,,,,,,,,,,,,,,,,,,,,,,,,main,None,None,1,1.4954366000019945,709.5078177999967,None,None,1,,,,,,,,,,,,,,101,22,Male,2022-04-27_16h03.36.483,Main,2022.1.1,60.17484402539553,
negative,yellow,1,k,None,,,,,,,,,0,159,159,159,,,,,,,,,,,,,,,,,,,,,,,,,,,,,,,,,,,,,main,None,None,1,1.4974762999918312,712.0054111999925,None,None,1,,,,,,,,,,,,,,101,22,Male,2022-04-27_16h03.36.483,Main,2022.1.1,60.17484402539553,
negative,red,2,None,None,,,,,,,,,0,160,160,160,,,,,,,,,,,,,,,,,,,,,,,,,,,,,,,,,,,,,main,None,None,1,1.4964850999967894,714.5034630000009,None,None,1,,,,,,,,,,,,,,101,22,Male,2022-04-27_16h03.36.483,Main,2022.1.1,60.17484402539553,
negative,blue,1,None,k,,,,,,,,,0,161,161,161,,,,,,,,,,,,,,,,,,,,,,,,,,,,,,,,,,,,,main,k,k,1,0.696613799998886,717.0015874999954,None,None,0,,,,,,,,,,,,,,101,22,Male,2022-04-27_16h03.36.483,Main,2022.1.1,60.17484402539553,
negative,blue,1,None,k,,,,,,,,,0,162,162,162,,,,,,,,,,,,,,,,,,,,,,,,,,,,,,,,,,,,,main,k,k,1,0.6969060999981593,718.6999416000035,None,None,0,,,,,,,,,,,,,,101,22,Male,2022-04-27_16h03.36.483,Main,2022.1.1,60.17484402539553,
negative,yellow,1,k,None,,,,,,,,,0,163,163,163,,,,,,,,,,,,,,,,,,,,,,,,,,,,,,,,,,,,,main,None,None,1,1.497304400007124,720.3979757999914,None,None,1,,,,,,,,,,,,,,101,22,Male,2022-04-27_16h03.36.483,Main,2022.1.1,60.17484402539553,
negative,yellow,1,k,None,,,,,,,,,0,164,164,164,,,,,,,,,,,,,,,,,,,,,,,,,,,,,,,,,,,,,main,None,None,1,1.4972745000122814,722.8965601999953,None,None,1,,,,,,,,,,,,,,101,22,Male,2022-04-27_16h03.36.483,Main,2022.1.1,60.17484402539553,
positive,yellow,1,None,k,,,,,,,,,0,165,165,165,,,,,,,,,,,,,,,,,,,,,,,,,,,,,,,,,,,,,main,k,k,1,0.7471117000095546,725.3945491999912,None,None,0,,,,,,,,,,,,,,101,22,Male,2022-04-27_16h03.36.483,Main,2022.1.1,60.17484402539553,
negative,red,1,None,None,,,,,,,,,0,166,166,166,,,,,,,,,,,,,,,,,,,,,,,,,,,,,,,,,,,,,main,None,None,1,1.497561800002586,727.1433564000035,None,None,1,,,,,,,,,,,,,,101,22,Male,2022-04-27_16h03.36.483,Main,2022.1.1,60.17484402539553,
negative,yellow,2,k,None,,,,,,,,,0,167,167,167,,,,,,,,,,,,,,,,,,,,,,,,,,,,,,,,,,,,,main,None,None,1,1.4939096000016434,729.6425923999923,None,None,1,,,,,,,,,,,,,,101,22,Male,2022-04-27_16h03.36.483,Main,2022.1.1,60.17484402539553,
positive,blue,2,k,None,,,,,,,,,0,168,168,168,,,,,,,,,,,,,,,,,,,,,,,,,,,,,,,,,,,,,main,None,None,1,1.4974695999990217,732.1389518999931,None,None,1,,,,,,,,,,,,,,101,22,Male,2022-04-27_16h03.36.483,Main,2022.1.1,60.17484402539553,
positive,red,2,None,None,,,,,,,,,0,169,169,169,,,,,,,,,,,,,,,,,,,,,,,,,,,,,,,,,,,,,main,None,None,1,1.4967360000009649,734.6370083999936,None,None,1,,,,,,,,,,,,,,101,22,Male,2022-04-27_16h03.36.483,Main,2022.1.1,60.17484402539553,
positive,red,1,None,None,,,,,,,,,0,170,170,170,,,,,,,,,,,,,,,,,,,,,,,,,,,,,,,,,,,,,main,None,None,1,1.4959221000026446,737.1349610000034,None,None,1,,,,,,,,,,,,,,101,22,Male,2022-04-27_16h03.36.483,Main,2022.1.1,60.17484402539553,
negative,blue,2,None,k,,,,,,,,,0,171,171,171,,,,,,,,,,,,,,,,,,,,,,,,,,,,,,,,,,,,,main,k,k,1,0.7303853999910643,739.6329862999992,None,None,0,,,,,,,,,,,,,,101,22,Male,2022-04-27_16h03.36.483,Main,2022.1.1,60.17484402539553,
positive,blue,2,k,None,,,,,,,,,0,172,172,172,,,,,,,,,,,,,,,,,,,,,,,,,,,,,,,,,,,,,main,None,None,1,1.4976913999998942,741.3646135000017,None,None,1,,,,,,,,,,,,,,101,22,Male,2022-04-27_16h03.36.483,Main,2022.1.1,60.17484402539553,
negative,yellow,2,k,None,,,,,,,,,0,173,173,173,,,,,,,,,,,,,,,,,,,,,,,,,,,,,,,,,,,,,main,None,None,1,1.4949381000042195,743.8629038999934,None,None,1,,,,,,,,,,,,,,101,22,Male,2022-04-27_16h03.36.483,Main,2022.1.1,60.17484402539553,
positive,yellow,2,None,k,,,,,,,,,0,174,174,174,,,,,,,,,,,,,,,,,,,,,,,,,,,,,,,,,,,,,main,k,k,1,0.8805514999985462,746.3605424999987,None,None,0,,,,,,,,,,,,,,101,22,Male,2022-04-27_16h03.36.483,Main,2022.1.1,60.17484402539553,
negative,blue,2,None,k,,,,,,,,,0,175,175,175,,,,,,,,,,,,,,,,,,,,,,,,,,,,,,,,,,,,,main,k,k,1,0.7972997000033502,748.2421748000052,None,None,0,,,,,,,,,,,,,,101,22,Male,2022-04-27_16h03.36.483,Main,2022.1.1,60.17484402539553,
positive,blue,1,k,None,,,,,,,,,0,176,176,176,,,,,,,,,,,,,,,,,,,,,,,,,,,,,,,,,,,,,main,None,None,1,1.4968202999880305,750.0408285000012,None,None,1,,,,,,,,,,,,,,101,22,Male,2022-04-27_16h03.36.483,Main,2022.1.1,60.17484402539553,
positive,yellow,1,None,k,,,,,,,,,0,177,177,177,,,,,,,,,,,,,,,,,,,,,,,,,,,,,,,,,,,,,main,k,k,1,0.7299352999980329,752.5395953999978,None,None,0,,,,,,,,,,,,,,101,22,Male,2022-04-27_16h03.36.483,Main,2022.1.1,60.17484402539553,
positive,blue,1,k,None,,,,,,,,,0,178,178,178,,,,,,,,,,,,,,,,,,,,,,,,,,,,,,,,,,,,,main,None,None,1,1.497288499987917,754.2705505000049,None,None,1,,,,,,,,,,,,,,101,22,Male,2022-04-27_16h03.36.483,Main,2022.1.1,60.17484402539553,
positive,yellow,2,None,k,,,,,,,,,0,179,179,179,,,,,,,,,,,,,,,,,,,,,,,,,,,,,,,,,,,,,main,k,k,1,0.7137402000080328,756.7687239999941,None,None,0,,,,,,,,,,,,,,101,22,Male,2022-04-27_16h03.36.483,Main,2022.1.1,60.17484402539553,
positive,blue,1,k,None,,,,,,,,,0,180,180,180,,,,,,,,,,,,,,,,,,,,,,,,,,,,,,,,,,,,,main,None,None,1,1.4957414999953471,758.4837953999959,None,None,1,,,,,,,,,,,,,,101,22,Male,2022-04-27_16h03.36.483,Main,2022.1.1,60.17484402539553,
negative,red,1,None,None,,,,,,,,,0,181,181,181,,,,,,,,,,,,,,,,,,,,,,,,,,,,,,,,,,,,,main,None,None,1,1.4968886000133352,760.9818343999941,None,None,1,,,,,,,,,,,,,,101,22,Male,2022-04-27_16h03.36.483,Main,2022.1.1,60.17484402539553,
negative,blue,1,None,k,,,,,,,,,0,182,182,182,,,,,,,,,,,,,,,,,,,,,,,,,,,,,,,,,,,,,main,k,k,1,0.5968721999961417,763.4799034000025,None,None,0,,,,,,,,,,,,,,101,22,Male,2022-04-27_16h03.36.483,Main,2022.1.1,60.17484402539553,
negative,yellow,2,k,None,,,,,,,,,0,183,183,183,,,,,,,,,,,,,,,,,,,,,,,,,,,,,,,,,,,,,main,None,None,1,1.498231699995813,765.078394199998,None,None,1,,,,,,,,,,,,,,101,22,Male,2022-04-27_16h03.36.483,Main,2022.1.1,60.17484402539553,
positive,yellow,2,None,k,,,,,,,,,0,184,184,184,,,,,,,,,,,,,,,,,,,,,,,,,,,,,,,,,,,,,main,k,k,1,0.6292644999921322,767.5772043000034,None,None,0,,,,,,,,,,,,,,101,22,Male,2022-04-27_16h03.36.483,Main,2022.1.1,60.17484402539553,
positive,yellow,1,None,k,,,,,,,,,0,185,185,185,,,,,,,,,,,,,,,,,,,,,,,,,,,,,,,,,,,,,main,k,k,1,0.5984290999913355,769.2083349000022,None,None,0,,,,,,,,,,,,,,101,22,Male,2022-04-27_16h03.36.483,Main,2022.1.1,60.17484402539553,
positive,red,2,None,None,,,,,,,,,0,186,186,186,,,,,,,,,,,,,,,,,,,,,,,,,,,,,,,,,,,,,main,None,None,1,1.4970243999996455,770.8069394999911,None,None,1,,,,,,,,,,,,,,101,22,Male,2022-04-27_16h03.36.483,Main,2022.1.1,60.17484402539553,
positive,blue,1,k,None,,,,,,,,,0,187,187,187,,,,,,,,,,,,,,,,,,,,,,,,,,,,,,,,,,,,,main,None,None,1,1.4956980999995722,773.305030699994,None,None,1,,,,,,,,,,,,,,101,22,Male,2022-04-27_16h03.36.483,Main,2022.1.1,60.17484402539553,
negative,yellow,1,k,None,,,,,,,,,0,188,188,188,,,,,,,,,,,,,,,,,,,,,,,,,,,,,,,,,,,,,main,None,None,1,1.4962315000011586,775.8030151999992,None,None,1,,,,,,,,,,,,,,101,22,Male,2022-04-27_16h03.36.483,Main,2022.1.1,60.17484402539553,
positive,yellow,2,None,k,,,,,,,,,0,189,189,189,,,,,,,,,,,,,,,,,,,,,,,,,,,,,,,,,,,,,main,k,k,1,0.8142542999994475,778.3012311999919,None,None,0,,,,,,,,,,,,,,101,22,Male,2022-04-27_16h03.36.483,Main,2022.1.1,60.17484402539553,
negative,yellow,2,k,None,,,,,,,,,0,190,190,190,,,,,,,,,,,,,,,,,,,,,,,,,,,,,,,,,,,,,main,None,None,1,1.4968525000003865,780.1159998999938,None,None,1,,,,,,,,,,,,,,101,22,Male,2022-04-27_16h03.36.483,Main,2022.1.1,60.17484402539553,
negative,yellow,1,k,None,,,,,,,,,0,191,191,191,,,,,,,,,,,,,,,,,,,,,,,,,,,,,,,,,,,,,main,None,None,1,1.495671600001515,782.6149213000026,None,None,1,,,,,,,,,,,,,,101,22,Male,2022-04-27_16h03.36.483,Main,2022.1.1,60.17484402539553,
positive,blue,2,k,None,,,,,,,,,0,192,192,192,,,,,,,,,,,,,,,,,,,,,,,,,,,,,,,,,,,,,main,None,None,1,1.4966609999974025,785.111862699996,None,None,1,,,,,,,,,,,,,,101,22,Male,2022-04-27_16h03.36.483,Main,2022.1.1,60.17484402539553,
positive,yellow,1,None,k,,,,,,,,,0,193,193,193,,,,,,,,,,,,,,,,,,,,,,,,,,,,,,,,,,,,,main,k,k,1,0.6972556000109762,787.6101488999993,None,None,0,,,,,,,,,,,,,,101,22,Male,2022-04-27_16h03.36.483,Main,2022.1.1,60.17484402539553,
negative,red,2,None,None,,,,,,,,,0,194,194,194,,,,,,,,,,,,,,,,,,,,,,,,,,,,,,,,,,,,,main,None,None,1,1.4971977000095649,789.3083778,None,None,1,,,,,,,,,,,,,,101,22,Male,2022-04-27_16h03.36.483,Main,2022.1.1,60.17484402539553,
positive,red,1,None,None,,,,,,,,,0,195,195,195,,,,,,,,,,,,,,,,,,,,,,,,,,,,,,,,,,,,,main,None,None,1,1.4965393000020413,791.8065511000023,None,None,1,,,,,,,,,,,,,,101,22,Male,2022-04-27_16h03.36.483,Main,2022.1.1,60.17484402539553,
negative,blue,1,None,k,,,,,,,,,0,196,196,196,,,,,,,,,,,,,,,,,,,,,,,,,,,,,,,,,,,,,main,k,k,1,0.7458495000028051,794.304504700005,None,None,0,,,,,,,,,,,,,,101,22,Male,2022-04-27_16h03.36.483,Main,2022.1.1,60.17484402539553,
positive,blue,2,k,None,,,,,,,,,0,197,197,197,,,,,,,,,,,,,,,,,,,,,,,,,,,,,,,,,,,,,main,None,None,1,1.4972443000006024,796.0531383999914,None,None,1,,,,,,,,,,,,,,101,22,Male,2022-04-27_16h03.36.483,Main,2022.1.1,60.17484402539553,
negative,blue,2,None,k,,,,,,,,,0,198,198,198,,,,,,,,,,,,,,,,,,,,,,,,,,,,,,,,,,,,,main,k,k,1,0.7794725999992806,798.551078199991,None,None,0,,,,,,,,,,,,,,101,22,Male,2022-04-27_16h03.36.483,Main,2022.1.1,60.17484402539553,
negative,blue,2,None,k,,,,,,,,,0,199,199,199,,,,,,,,,,,,,,,,,,,,,,,,,,,,,,,,,,,,,main,k,k,1,0.5645916000066791,800.3325748999923,None,None,0,,,,,,,,,,,,,,101,22,Male,2022-04-27_16h03.36.483,Main,2022.1.1,60.17484402539553,
positive,blue,2,k,None,,,,,,,,,0,200,200,200,,,,,,,,,,,,,,,,,,,,,,,,,,,,,,,,,,,,,main,None,None,1,1.4964525999967009,801.8976442999992,None,None,1,,,,,,,,,,,,,,101,22,Male,2022-04-27_16h03.36.483,Main,2022.1.1,60.17484402539553,
positive,blue,2,k,None,,,,,,,,,0,201,201,201,,,,,,,,,,,,,,,,,,,,,,,,,,,,,,,,,,,,,main,None,None,1,1.4961736999975983,804.3959139999934,None,None,1,,,,,,,,,,,,,,101,22,Male,2022-04-27_16h03.36.483,Main,2022.1.1,60.17484402539553,
negative,yellow,2,k,None,,,,,,,,,0,202,202,202,,,,,,,,,,,,,,,,,,,,,,,,,,,,,,,,,,,,,main,None,None,1,1.4967765000037616,806.8942564000026,None,None,1,,,,,,,,,,,,,,101,22,Male,2022-04-27_16h03.36.483,Main,2022.1.1,60.17484402539553,
positive,red,1,None,None,,,,,,,,,0,203,203,203,,,,,,,,,,,,,,,,,,,,,,,,,,,,,,,,,,,,,main,None,None,1,1.497010399994906,809.391778499994,None,None,1,,,,,,,,,,,,,,101,22,Male,2022-04-27_16h03.36.483,Main,2022.1.1,60.17484402539553,
negative,blue,2,None,k,,,,,,,,,0,204,204,204,,,,,,,,,,,,,,,,,,,,,,,,,,,,,,,,,,,,,main,k,k,1,0.6629174999980023,811.8898960999941,None,None,0,,,,,,,,,,,,,,101,22,Male,2022-04-27_16h03.36.483,Main,2022.1.1,60.17484402539553,
negative,red,1,None,None,,,,,,,,,0,205,205,205,,,,,,,,,,,,,,,,,,,,,,,,,,,,,,,,,,,,,main,None,None,1,1.4981057999975746,813.5549829999945,None,None,1,,,,,,,,,,,,,,101,22,Male,2022-04-27_16h03.36.483,Main,2022.1.1,60.17484402539553,
negative,blue,2,None,k,,,,,,,,,0,206,206,206,,,,,,,,,,,,,,,,,,,,,,,,,,,,,,,,,,,,,main,k,k,1,0.6295154999970691,816.0532723999931,None,None,0,,,,,,,,,,,,,,101,22,Male,2022-04-27_16h03.36.483,Main,2022.1.1,60.17484402539553,
negative,yellow,2,k,None,,,,,,,,,0,207,207,207,,,,,,,,,,,,,,,,,,,,,,,,,,,,,,,,,,,,,main,None,None,1,1.4968183000019053,817.6849396000034,None,None,1,,,,,,,,,,,,,,101,22,Male,2022-04-27_16h03.36.483,Main,2022.1.1,60.17484402539553,
positive,yellow,2,None,k,,,,,,,,,0,208,208,208,,,,,,,,,,,,,,,,,,,,,,,,,,,,,,,,,,,,,main,k,k,1,0.5971734000049764,820.1832126999943,None,None,0,,,,,,,,,,,,,,101,22,Male,2022-04-27_16h03.36.483,Main,2022.1.1,60.17484402539553,
negative,yellow,1,k,None,,,,,,,,,0,209,209,209,,,,,,,,,,,,,,,,,,,,,,,,,,,,,,,,,,,,,main,None,None,1,1.496237100000144,821.7818699999916,None,None,1,,,,,,,,,,,,,,101,22,Male,2022-04-27_16h03.36.483,Main,2022.1.1,60.17484402539553,
negative,red,2,None,None,,,,,,,,,0,210,210,210,,,,,,,,,,,,,,,,,,,,,,,,,,,,,,,,,,,,,main,None,None,1,1.4980010999861406,824.2797454999964,None,None,1,,,,,,,,,,,,,,101,22,Male,2022-04-27_16h03.36.483,Main,2022.1.1,60.17484402539553,
negative,blue,1,None,k,,,,,,,,,0,211,211,211,,,,,,,,,,,,,,,,,,,,,,,,,,,,,,,,,,,,,main,k,k,1,0.5457201000099303,826.7780407999962,None,None,0,,,,,,,,,,,,,,101,22,Male,2022-04-27_16h03.36.483,Main,2022.1.1,60.17484402539553,
negative,yellow,1,k,None,,,,,,,,,0,212,212,212,,,,,,,,,,,,,,,,,,,,,,,,,,,,,,,,,,,,,main,None,None,1,1.498349400004372,828.3264471000002,None,None,1,,,,,,,,,,,,,,101,22,Male,2022-04-27_16h03.36.483,Main,2022.1.1,60.17484402539553,
positive,blue,1,k,None,,,,,,,,,0,213,213,213,,,,,,,,,,,,,,,,,,,,,,,,,,,,,,,,,,,,,main,None,None,1,1.4945677999930922,830.8246719000017,None,None,1,,,,,,,,,,,,,,101,22,Male,2022-04-27_16h03.36.483,Main,2022.1.1,60.17484402539553,
positive,blue,1,k,None,,,,,,,,,0,214,214,214,,,,,,,,,,,,,,,,,,,,,,,,,,,,,,,,,,,,,main,None,None,1,1.4968786999961594,833.3221650999913,None,None,1,,,,,,,,,,,,,,101,22,Male,2022-04-27_16h03.36.483,Main,2022.1.1,60.17484402539553,
positive,yellow,1,None,k,,,,,,,,,0,215,215,215,,,,,,,,,,,,,,,,,,,,,,,,,,,,,,,,,,,,,main,k,k,1,3.5135250000021188,835.8205081000051,None,None,0,,,,,,,,,,,,,,101,22,Male,2022-04-27_16h03.36.483,Main,2022.1.1,60.17484402539553,
positive,yellow,1,None,k,,,,,,,,,0,216,216,216,,,,,,,,,,,,,,,,,,,,,,,,,,,,,,,,,,,,,main,k,k,1,0.6015477000037208,841.3487098000041,None,None,0,,,,,,,,,,,,,,101,22,Male,2022-04-27_16h03.36.483,Main,2022.1.1,60.17484402539553,
positive,yellow,2,None,k,,,,,,,,,0,217,217,217,,,,,,,,,,,,,,,,,,,,,,,,,,,,,,,,,,,,,main,k,k,1,0.7122715000004973,842.9471553000039,None,None,0,,,,,,,,,,,,,,101,22,Male,2022-04-27_16h03.36.483,Main,2022.1.1,60.17484402539553,
negative,blue,1,None,k,,,,,,,,,0,218,218,218,,,,,,,,,,,,,,,,,,,,,,,,,,,,,,,,,,,,,main,k,k,1,0.6640142999967793,844.662712099991,None,None,0,,,,,,,,,,,,,,101,22,Male,2022-04-27_16h03.36.483,Main,2022.1.1,60.17484402539553,
positive,red,2,None,None,,,,,,,,,0,219,219,219,,,,,,,,,,,,,,,,,,,,,,,,,,,,,,,,,,,,,main,None,None,1,1.4974881000089226,846.3281026000041,None,None,1,,,,,,,,,,,,,,101,22,Male,2022-04-27_16h03.36.483,Main,2022.1.1,60.17484402539553,
positive,yellow,1,None,k,,,,,,,,,0,220,220,220,,,,,,,,,,,,,,,,,,,,,,,,,,,,,,,,,,,,,main,k,k,1,0.5634274999902118,848.8260560999915,None,None,0,,,,,,,,,,,,,,101,22,Male,2022-04-27_16h03.36.483,Main,2022.1.1,60.17484402539553,
positive,blue,1,k,None,,,,,,,,,0,221,221,221,,,,,,,,,,,,,,,,,,,,,,,,,,,,,,,,,,,,,main,None,None,1,1.4978007999889087,850.3920462999959,None,None,1,,,,,,,,,,,,,,101,22,Male,2022-04-27_16h03.36.483,Main,2022.1.1,60.17484402539553,
positive,yellow,2,None,k,,,,,,,,,0,222,222,222,,,,,,,,,,,,,,,,,,,,,,,,,,,,,,,,,,,,,main,k,k,1,0.5468222000054084,852.8896311999997,None,None,0,,,,,,,,,,,,,,101,22,Male,2022-04-27_16h03.36.483,Main,2022.1.1,60.17484402539553,
negative,yellow,1,k,None,,,,,,,,,0,223,223,223,,,,,,,,,,,,,,,,,,,,,,,,,,,,,,,,,,,,,main,None,None,1,1.4965340999915497,854.4380764999951,None,None,1,,,,,,,,,,,,,,101,22,Male,2022-04-27_16h03.36.483,Main,2022.1.1,60.17484402539553,
positive,yellow,2,None,k,,,,,,,,,0,224,224,224,,,,,,,,,,,,,,,,,,,,,,,,,,,,,,,,,,,,,main,k,k,1,0.5969703999871854,856.9362990999944,None,None,0,,,,,,,,,,,,,,101,22,Male,2022-04-27_16h03.36.483,Main,2022.1.1,60.17484402539553,
negative,yellow,2,k,None,,,,,,,,,0,225,225,225,,,,,,,,,,,,,,,,,,,,,,,,,,,,,,,,,,,,,main,None,None,1,1.4976115000026766,858.534722299999,None,None,1,,,,,,,,,,,,,,101,22,Male,2022-04-27_16h03.36.483,Main,2022.1.1,60.17484402539553,
negative,blue,2,None,k,,,,,,,,,0,226,226,226,,,,,,,,,,,,,,,,,,,,,,,,,,,,,,,,,,,,,main,k,k,1,0.7463346000004094,861.033051099992,None,None,0,,,,,,,,,,,,,,101,22,Male,2022-04-27_16h03.36.483,Main,2022.1.1,60.17484402539553,
positive,red,2,None,None,,,,,,,,,0,227,227,227,,,,,,,,,,,,,,,,,,,,,,,,,,,,,,,,,,,,,main,None,None,1,1.497110900003463,862.7810633000045,None,None,1,,,,,,,,,,,,,,101,22,Male,2022-04-27_16h03.36.483,Main,2022.1.1,60.17484402539553,
positive,blue,2,k,None,,,,,,,,,0,228,228,228,,,,,,,,,,,,,,,,,,,,,,,,,,,,,,,,,,,,,main,None,None,1,1.4964367000065977,865.2793429000012,None,None,1,,,,,,,,,,,,,,101,22,Male,2022-04-27_16h03.36.483,Main,2022.1.1,60.17484402539553,
negative,blue,1,None,k,,,,,,,,,0,229,229,229,,,,,,,,,,,,,,,,,,,,,,,,,,,,,,,,,,,,,main,k,k,1,0.5639448000001721,867.7771324999921,None,None,0,,,,,,,,,,,,,,101,22,Male,2022-04-27_16h03.36.483,Main,2022.1.1,60.17484402539553,
positive,yellow,1,None,k,,,,,,,,,0,230,230,230,,,,,,,,,,,,,,,,,,,,,,,,,,,,,,,,,,,,,main,k,k,1,0.5814274999866029,869.3422518000007,None,None,0,,,,,,,,,,,,,,101,22,Male,2022-04-27_16h03.36.483,Main,2022.1.1,60.17484402539553,
negative,blue,2,None,k,,,,,,,,,0,231,231,231,,,,,,,,,,,,,,,,,,,,,,,,,,,,,,,,,,,,,main,k,k,1,0.6977996000059647,870.9244543999957,None,None,0,,,,,,,,,,,,,,101,22,Male,2022-04-27_16h03.36.483,Main,2022.1.1,60.17484402539553,
negative,red,1,None,None,,,,,,,,,0,232,232,232,,,,,,,,,,,,,,,,,,,,,,,,,,,,,,,,,,,,,main,None,None,1,1.4969209999981103,872.6232331999927,None,None,1,,,,,,,,,,,,,,101,22,Male,2022-04-27_16h03.36.483,Main,2022.1.1,60.17484402539553,
positive,blue,2,k,None,,,,,,,,,0,233,233,233,,,,,,,,,,,,,,,,,,,,,,,,,,,,,,,,,,,,,main,None,None,1,1.495143599997391,875.121094999995,None,None,1,,,,,,,,,,,,,,101,22,Male,2022-04-27_16h03.36.483,Main,2022.1.1,60.17484402539553,
negative,yellow,1,k,None,,,,,,,,,0,234,234,234,,,,,,,,,,,,,,,,,,,,,,,,,,,,,,,,,,,,,main,None,None,1,1.4970964999956777,877.6193844999943,None,None,1,,,,,,,,,,,,,,101,22,Male,2022-04-27_16h03.36.483,Main,2022.1.1,60.17484402539553,
negative,yellow,2,k,None,,,,,,,,,0,235,235,235,,,,,,,,,,,,,,,,,,,,,,,,,,,,,,,,,,,,,main,None,None,1,1.4959388999996008,880.1171887999953,None,None,1,,,,,,,,,,,,,,101,22,Male,2022-04-27_16h03.36.483,Main,2022.1.1,60.17484402539553,
positive,red,1,None,None,,,,,,,,,0,236,236,236,,,,,,,,,,,,,,,,,,,,,,,,,,,,,,,,,,,,,main,None,None,1,1.4970789000071818,882.6149114,None,None,1,,,,,,,,,,,,,,101,22,Male,2022-04-27_16h03.36.483,Main,2022.1.1,60.17484402539553,
negative,red,2,None,None,,,,,,,,,0,237,237,237,,,,,,,,,,,,,,,,,,,,,,,,,,,,,,,,,,,,,main,None,None,1,1.496314000003622,885.1129097999947,None,None,1,,,,,,,,,,,,,,101,22,Male,2022-04-27_16h03.36.483,Main,2022.1.1,60.17484402539553,
negative,blue,1,None,k,,,,,,,,,0,238,238,238,,,,,,,,,,,,,,,,,,,,,,,,,,,,,,,,,,,,,main,k,k,1,0.7638937000010628,887.6109395999956,None,None,0,,,,,,,,,,,,,,101,22,Male,2022-04-27_16h03.36.483,Main,2022.1.1,60.17484402539553,
positive,blue,1,k,None,,,,,,,,,0,239,239,239,,,,,,,,,,,,,,,,,,,,,,,,,,,,,,,,,,,,,main,None,None,1,1.4985899999883259,889.3759064000042,None,None,1,,,,,,,,,,,,,,101,22,Male,2022-04-27_16h03.36.483,Main,2022.1.1,60.17484402539553,
,,,,,,,,,,,,,,,,,,,,,,,,,,,,,,,,,,,,,,,,,,,,,,,,,,,,,,,,,,,,,,,,,,,,,,,,,891.874235700001,None,,,,,,,,
