distractor,target,set,ans1,ans2,rep_loop4.thisRepN,rep_loop4.thisTrialN,rep_loop4.thisN,rep_loop4.thisIndex,st2_prac_loop.thisRepN,st2_prac_loop.thisTrialN,st2_prac_loop.thisN,st2_prac_loop.thisIndex,st2_main_loop.thisRepN,st2_main_loop.thisTrialN,st2_main_loop.thisN,st2_main_loop.thisIndex,image_4.started,image_4.stopped,mouse_7.x,mouse_7.y,mouse_7.leftButton,mouse_7.midButton,mouse_7.rightButton,mouse_7.clicked_name,sound_2.started,sound_2.stopped,key_resp_3.keys,mouse_5.x,mouse_5.y,mouse_5.leftButton,mouse_5.midButton,mouse_5.rightButton,mouse_5.started,mouse_5.stopped,yes_text2.started,yes_text2.stopped,no_text2.started,no_text2.stopped,mouse_3.x,mouse_3.y,mouse_3.leftButton,mouse_3.midButton,mouse_3.rightButton,mouse_3.started,mouse_3.stopped,mouse_3.clicked_name,st_prac_back.started,st_prac_back.stopped,st_prac_text.started,st_prac_text.stopped,st_fix_back.started,st_fix_back.stopped,st_fix_2.started,st_fix_2.stopped,main_prac,st_ans,st_res,st_corr,st_rt,st_back.started,st_back.stopped,st2_resp.keys,st2_resp.corr,st_main_back.started,st_main_back.stopped,st_main_text.started,st_main_text.stopped,mouse_4.x,mouse_4.y,mouse_4.leftButton,mouse_4.midButton,mouse_4.rightButton,mouse_4.started,mouse_4.stopped,text_2.started,text_2.stopped,id*,age*,gender*,date,expName,psychopyVersion,frameRate,
,,,,,,,,,,,,,,,,,40.86725999999908,None,0.0046296297,-0.08888889,1,0,0,image_4,,,,,,,,,,,,,,,,,,,,,,,,,,,,,,,,,,,,,,,,,,,,,,,,,,,,,102,23,Female,2022-04-28_09h52.33.158,Main,2022.1.1,60.032153221492734,
negative,yellow,1,k,None,,,,,0,0,0,0,,,,,,,,,,,,,53.452623150000726,None,None,0.15833333,-0.36018518,0,0,0,1.0096865000014077,None,115.58683569999994,None,115.58683569999994,None,-0.10462963,-0.08240741,0,0,0,0.013869850001356099,None,no_area2,116.70142830000259,None,116.70142830000259,None,118.71794919999957,None,118.71794919999957,None,prac,k,k,1,1.7476481000048807,120.74078940000618,None,None,0,,,,,,,,,,,,,,102,23,Female,2022-04-28_09h52.33.158,Main,2022.1.1,60.032153221492734,
positive,red,2,None,None,,,,,0,1,1,1,,,,,,,,,,,,,,,,,,,,,,,,,,,,,,,,,,,,,,,,,,,prac,None,None,1,1.5021549000011873,124.49832670000615,None,None,1,,,,,,,,,,,,,,102,23,Female,2022-04-28_09h52.33.158,Main,2022.1.1,60.032153221492734,
negative,blue,2,None,k,,,,,0,2,2,2,,,,,,,,,,,,,,,,,,,,,,,,,,,,,,,,,,,,,,,,,,,prac,None,None,1,1.4977972999986378,127.00207339999906,None,None,1,,,,,,,,,,,,,,102,23,Female,2022-04-28_09h52.33.158,Main,2022.1.1,60.032153221492734,
positive,yellow,1,None,k,,,,,0,3,3,3,,,,,,,,,,,,,,,,,,,,,,,,,,,,,,,,,,,,,,,,,,,prac,None,None,1,1.498576599995431,129.4975104000041,None,None,1,,,,,,,,,,,,,,102,23,Female,2022-04-28_09h52.33.158,Main,2022.1.1,60.032153221492734,
negative,blue,2,None,k,,,,,0,4,4,4,,,,,,,,,,,,,,,,,,,,,,,,,,,,,,,,,,,,,,,,,,,prac,None,None,1,1.4988551999995252,131.9976186000058,None,None,1,,,,,,,,,,,,,,102,23,Female,2022-04-28_09h52.33.158,Main,2022.1.1,60.032153221492734,
negative,blue,1,None,k,,,,,0,5,5,5,,,,,,,,,,,,,,,,,,,,,,,,,,,,,,,,,,,,,,,,,,,prac,None,k,0,1.4369242999964627,134.49810080000316,None,None,1,,,,,,,,,,,,,,102,23,Female,2022-04-28_09h52.33.158,Main,2022.1.1,60.032153221492734,
negative,yellow,2,k,None,,,,,0,6,6,6,,,,,,,,,,,,,,,,,,,,,,,,,,,,,,,,,,,,,,,,,,,prac,k,k,1,5.155341699995915,137.9369341000056,None,None,0,,,,,,,,,,,,,,102,23,Female,2022-04-28_09h52.33.158,Main,2022.1.1,60.032153221492734,
negative,red,1,None,None,,,,,0,7,7,7,,,,,,,,,,,,,,,,,,,,,,,,,,,,,,,,,,,,,,,,,,,prac,None,None,1,1.5021286999981385,145.10403529999894,None,None,1,,,,,,,,,,,,,,102,23,Female,2022-04-28_09h52.33.158,Main,2022.1.1,60.032153221492734,
positive,yellow,2,None,k,,,,,0,8,8,8,,,,,,,,,,,,,,,,,,,,,,,,,,,,,,,,,,,,,,,,,,,prac,None,None,1,1.4979638999939198,147.60705520000192,None,None,1,,,,,,,,,,,,,,102,23,Female,2022-04-28_09h52.33.158,Main,2022.1.1,60.032153221492734,
negative,yellow,1,k,None,,,,,0,9,9,9,,,,,,,,,,,,,,,,,,,,,,,,,,,,,,,,,,,,,,,,,,,prac,k,k,1,1.4037399000008008,150.10632250000344,None,None,0,,,,,,,,,,,,,,102,23,Female,2022-04-28_09h52.33.158,Main,2022.1.1,60.032153221492734,
positive,yellow,2,None,k,,,,,0,10,10,10,,,,,,,,,,,,,,,,,,,,,,,,,,,,,,,,,,,,,,,,,,,prac,None,None,1,1.4937085000055959,152.51529270000174,None,None,1,,,,,,,,,,,,,,102,23,Female,2022-04-28_09h52.33.158,Main,2022.1.1,60.032153221492734,
negative,yellow,2,k,None,,,,,0,11,11,11,,,,,,,,,,,,,,,,,,,,,,,,,,,,,,,,,,,,,,,,,,,prac,k,k,1,1.4509632000044803,155.00741140000173,None,None,0,,,,,,,,,,,,,,102,23,Female,2022-04-28_09h52.33.158,Main,2022.1.1,60.032153221492734,
negative,red,2,None,None,,,,,0,12,12,12,,,,,,,,,,,,,,,,,,,,,,,,,,,,,,,,,,,,,,,,,,,prac,None,None,1,1.4956014999988838,157.4674540000051,None,None,1,,,,,,,,,,,,,,102,23,Female,2022-04-28_09h52.33.158,Main,2022.1.1,60.032153221492734,
positive,red,1,None,None,,,,,0,13,13,13,,,,,,,,,,,,,,,,,,,,,,,,,,,,,,,,,,,,,,,,,,,prac,None,None,1,1.4984127999996417,159.9567859000017,None,None,1,,,,,,,,,,,,,,102,23,Female,2022-04-28_09h52.33.158,Main,2022.1.1,60.032153221492734,
positive,blue,2,k,None,,,,,0,14,14,14,,,,,,,,,,,,,,,,,,,,,,,,,,,,,,,,,,,,,,,,,,,prac,k,k,1,0.7368007999975816,162.45643120000022,None,None,0,,,,,,,,,,,,,,102,23,Female,2022-04-28_09h52.33.158,Main,2022.1.1,60.032153221492734,
positive,blue,1,k,None,,,,,0,15,15,15,,,,,,,,,,,,,,,,,,,,,,,,,,,,,,,,,,,,,,,,,,,prac,k,k,1,1.0652277000044705,164.2033614000029,None,None,0,,,,,,,,,,,,,,102,23,Female,2022-04-28_09h52.33.158,Main,2022.1.1,60.032153221492734,
negative,blue,1,None,k,,,,,0,16,16,16,,,,,,,,,,,,,,,,,,,,,,,,,,,,,,,,,,,,,,,,,,,prac,None,None,1,1.4940341999972588,166.2592819000056,None,None,1,,,,,,,,,,,,,,102,23,Female,2022-04-28_09h52.33.158,Main,2022.1.1,60.032153221492734,
positive,blue,2,k,None,,,,,0,17,17,17,,,,,,,,,,,,,,,,,,,,,,,,,,,,,,,,,,,,,,,,,,,prac,k,k,1,1.0866283000068506,168.75719980000576,None,None,0,,,,,,,,,,,,,,102,23,Female,2022-04-28_09h52.33.158,Main,2022.1.1,60.032153221492734,
positive,blue,1,k,None,,,,,0,18,18,18,,,,,,,,,,,,,,,,,,,,,,,,,,,,,,,,,,,,,,,,,,,prac,k,k,1,0.8987586000002921,170.84259770000062,None,None,0,,,,,,,,,,,,,,102,23,Female,2022-04-28_09h52.33.158,Main,2022.1.1,60.032153221492734,
positive,yellow,1,None,k,,,,,0,19,19,19,,,,,,,,,,,,,,,,,,,,,,,,,,,,,,,,,,,,,,,,,,,prac,None,None,1,1.4937998000023072,172.74315249999927,None,None,1,,,,,,,,,,,,,,102,23,Female,2022-04-28_09h52.33.158,Main,2022.1.1,60.032153221492734,
negative,yellow,1,k,None,,,,,1,0,20,0,,,,,,,,,,,,,,,,,,,,,,,,,,,,,,,,,,,,,,,,,,,prac,k,k,1,1.0178585999965435,175.2402246999991,None,None,0,,,,,,,,,,,,,,102,23,Female,2022-04-28_09h52.33.158,Main,2022.1.1,60.032153221492734,
positive,red,2,None,None,,,,,1,1,21,1,,,,,,,,,,,,,,,,,,,,,,,,,,,,,,,,,,,,,,,,,,,prac,None,None,1,1.4963262000019313,177.25984630000312,None,None,1,,,,,,,,,,,,,,102,23,Female,2022-04-28_09h52.33.158,Main,2022.1.1,60.032153221492734,
negative,blue,2,None,k,,,,,1,2,22,2,,,,,,,,,,,,,,,,,,,,,,,,,,,,,,,,,,,,,,,,,,,prac,None,None,1,1.498344299994642,179.7577495000005,None,None,1,,,,,,,,,,,,,,102,23,Female,2022-04-28_09h52.33.158,Main,2022.1.1,60.032153221492734,
positive,yellow,1,None,k,,,,,1,3,23,3,,,,,,,,,,,,,,,,,,,,,,,,,,,,,,,,,,,,,,,,,,,prac,None,None,1,1.4987757000053534,182.2570951000016,None,None,1,,,,,,,,,,,,,,102,23,Female,2022-04-28_09h52.33.158,Main,2022.1.1,60.032153221492734,
negative,blue,2,None,k,,,,,1,4,24,4,,,,,,,,,,,,,,,,,,,,,,,,,,,,,,,,,,,,,,,,,,,prac,None,None,1,1.4981236000021454,184.75795530000323,None,None,1,,,,,,,,,,,,,,102,23,Female,2022-04-28_09h52.33.158,Main,2022.1.1,60.032153221492734,
negative,blue,1,None,k,,,,,1,5,25,5,,,,,,,,,,,,,,,,,,,,,,,,,,,,,,,,,,,,,,,,,,,prac,None,None,1,1.4988310000044294,187.25768719999905,None,None,1,,,,,,,,,,,,,,102,23,Female,2022-04-28_09h52.33.158,Main,2022.1.1,60.032153221492734,
negative,yellow,2,k,None,,,,,1,6,26,6,,,,,,,,,,,,,,,,,,,,,,,,,,,,,,,,,,,,,,,,,,,prac,k,k,1,1.0195822000023327,189.75759929999913,None,None,0,,,,,,,,,,,,,,102,23,Female,2022-04-28_09h52.33.158,Main,2022.1.1,60.032153221492734,
negative,red,1,None,None,,,,,1,7,27,7,,,,,,,,,,,,,,,,,,,,,,,,,,,,,,,,,,,,,,,,,,,prac,None,None,1,1.4935887000028742,191.77626400000008,None,None,1,,,,,,,,,,,,,,102,23,Female,2022-04-28_09h52.33.158,Main,2022.1.1,60.032153221492734,
positive,yellow,2,None,k,,,,,1,8,28,8,,,,,,,,,,,,,,,,,,,,,,,,,,,,,,,,,,,,,,,,,,,prac,None,None,1,1.4986659000060172,194.27327490000607,None,None,1,,,,,,,,,,,,,,102,23,Female,2022-04-28_09h52.33.158,Main,2022.1.1,60.032153221492734,
negative,yellow,1,k,None,,,,,1,9,29,9,,,,,,,,,,,,,,,,,,,,,,,,,,,,,,,,,,,,,,,,,,,prac,k,k,1,1.0034529000040493,196.77350220000517,None,None,0,,,,,,,,,,,,,,102,23,Female,2022-04-28_09h52.33.158,Main,2022.1.1,60.032153221492734,
positive,yellow,2,None,k,,,,,1,10,30,10,,,,,,,,,,,,,,,,,,,,,,,,,,,,,,,,,,,,,,,,,,,prac,None,None,1,1.495019100002537,198.77655719999893,None,None,1,,,,,,,,,,,,,,102,23,Female,2022-04-28_09h52.33.158,Main,2022.1.1,60.032153221492734,
negative,yellow,2,k,None,,,,,1,11,31,11,,,,,,,,,,,,,,,,,,,,,,,,,,,,,,,,,,,,,,,,,,,prac,k,k,1,1.2858292999953846,201.27570790000027,None,None,0,,,,,,,,,,,,,,102,23,Female,2022-04-28_09h52.33.158,Main,2022.1.1,60.032153221492734,
negative,red,2,None,None,,,,,1,12,32,12,,,,,,,,,,,,,,,,,,,,,,,,,,,,,,,,,,,,,,,,,,,prac,None,None,1,1.4937619999982417,203.56008710000606,None,None,1,,,,,,,,,,,,,,102,23,Female,2022-04-28_09h52.33.158,Main,2022.1.1,60.032153221492734,
positive,red,1,None,None,,,,,1,13,33,13,,,,,,,,,,,,,,,,,,,,,,,,,,,,,,,,,,,,,,,,,,,prac,None,None,1,1.4986814000003505,206.0575828000001,None,None,1,,,,,,,,,,,,,,102,23,Female,2022-04-28_09h52.33.158,Main,2022.1.1,60.032153221492734,
positive,blue,2,k,None,,,,,1,14,34,14,,,,,,,,,,,,,,,,,,,,,,,,,,,,,,,,,,,,,,,,,,,prac,k,k,1,0.9170901000034064,208.55797870000242,None,None,0,,,,,,,,,,,,,,102,23,Female,2022-04-28_09h52.33.158,Main,2022.1.1,60.032153221492734,
positive,blue,1,k,None,,,,,1,15,35,15,,,,,,,,,,,,,,,,,,,,,,,,,,,,,,,,,,,,,,,,,,,prac,k,k,1,0.8349075000005541,210.47626350000064,None,None,0,,,,,,,,,,,,,,102,23,Female,2022-04-28_09h52.33.158,Main,2022.1.1,60.032153221492734,
negative,blue,1,None,k,,,,,1,16,36,16,,,,,,,,,,,,,,,,,,,,,,,,,,,,,,,,,,,,,,,,,,,prac,None,None,1,1.4940992000047117,212.31010240000614,None,None,1,,,,,,,,,,,,,,102,23,Female,2022-04-28_09h52.33.158,Main,2022.1.1,60.032153221492734,
positive,blue,2,k,None,,,,,1,17,37,17,,,,,,,,,,,,,,,,,,,,,,,,,,,,,,,,,,,,,,,,,,,prac,k,k,1,1.1198159999985364,214.8083209000033,None,None,0,,,,,,,,,,,,,,102,23,Female,2022-04-28_09h52.33.158,Main,2022.1.1,60.032153221492734,
positive,blue,1,k,None,,,,,1,18,38,18,,,,,,,,,,,,,,,,,,,,,,,,,,,,,,,,,,,,,,,,,,,prac,k,k,1,0.765042099999846,216.926841600005,None,None,0,,,,,,,,,,,,,,102,23,Female,2022-04-28_09h52.33.158,Main,2022.1.1,60.032153221492734,
positive,yellow,1,None,k,,,,,1,19,39,19,,,,,,,,,,,,,,,,,,,,,,,,,,,,,,,,,,,,,,,,,,,prac,None,None,1,1.4938149999943562,218.69356089999928,None,None,1,,,,,,,,,,,,,,102,23,Female,2022-04-28_09h52.33.158,Main,2022.1.1,60.032153221492734,
,,,,,,,,,,,,,,,,,,,,,,,,,,,,,,,,,,,,,,,,,,,,,,,,,,,,,,,,,,,,,,,,221.20394410000154,None,221.20394410000154,None,0.107407406,-0.08981481,0,0,0,0.012250049992871936,None,,,102,23,Female,2022-04-28_09h52.33.158,Main,2022.1.1,60.032153221492734,
negative,yellow,2,k,None,,,,,,,,,0,0,0,0,,,,,,,,,,,,,,,,,,,,,,,,,,,,,,,,,,,232.83891140000196,None,232.83891140000196,None,main,k,k,1,0.7960611000016797,234.87977850000607,None,None,0,,,,,,,,,,,,,,102,23,Female,2022-04-28_09h52.33.158,Main,2022.1.1,60.032153221492734,
positive,red,1,None,None,,,,,,,,,0,1,1,1,,,,,,,,,,,,,,,,,,,,,,,,,,,,,,,,,,,,,,,main,None,None,1,1.4941924000013387,236.67874329999904,None,None,1,,,,,,,,,,,,,,102,23,Female,2022-04-28_09h52.33.158,Main,2022.1.1,60.032153221492734,
positive,blue,2,k,None,,,,,,,,,0,2,2,2,,,,,,,,,,,,,,,,,,,,,,,,,,,,,,,,,,,,,,,main,k,k,1,0.5953115000011167,239.174811900004,None,None,0,,,,,,,,,,,,,,102,23,Female,2022-04-28_09h52.33.158,Main,2022.1.1,60.032153221492734,
positive,blue,1,k,None,,,,,,,,,0,3,3,3,,,,,,,,,,,,,,,,,,,,,,,,,,,,,,,,,,,,,,,main,k,k,1,0.5736496999961673,240.77299119999952,None,None,0,,,,,,,,,,,,,,102,23,Female,2022-04-28_09h52.33.158,Main,2022.1.1,60.032153221492734,
negative,yellow,2,k,None,,,,,,,,,0,4,4,4,,,,,,,,,,,,,,,,,,,,,,,,,,,,,,,,,,,,,,,main,k,k,1,0.7148814999964088,242.34399230000417,None,None,0,,,,,,,,,,,,,,102,23,Female,2022-04-28_09h52.33.158,Main,2022.1.1,60.032153221492734,
positive,yellow,2,None,k,,,,,,,,,0,5,5,5,,,,,,,,,,,,,,,,,,,,,,,,,,,,,,,,,,,,,,,main,None,None,1,1.4939775000020745,244.0606573000041,None,None,1,,,,,,,,,,,,,,102,23,Female,2022-04-28_09h52.33.158,Main,2022.1.1,60.032153221492734,
negative,blue,2,None,k,,,,,,,,,0,6,6,6,,,,,,,,,,,,,,,,,,,,,,,,,,,,,,,,,,,,,,,main,None,None,1,1.4984058999980334,246.55893890000152,None,None,1,,,,,,,,,,,,,,102,23,Female,2022-04-28_09h52.33.158,Main,2022.1.1,60.032153221492734,
positive,red,2,None,None,,,,,,,,,0,7,7,7,,,,,,,,,,,,,,,,,,,,,,,,,,,,,,,,,,,,,,,main,None,None,1,1.4983098000011523,249.0586895000015,None,None,1,,,,,,,,,,,,,,102,23,Female,2022-04-28_09h52.33.158,Main,2022.1.1,60.032153221492734,
positive,yellow,1,None,k,,,,,,,,,0,8,8,8,,,,,,,,,,,,,,,,,,,,,,,,,,,,,,,,,,,,,,,main,None,None,1,1.4989245999968261,251.5582493000038,None,None,1,,,,,,,,,,,,,,102,23,Female,2022-04-28_09h52.33.158,Main,2022.1.1,60.032153221492734,
negative,red,1,None,None,,,,,,,,,0,9,9,9,,,,,,,,,,,,,,,,,,,,,,,,,,,,,,,,,,,,,,,main,None,None,1,1.4982967999967514,254.05857990000368,None,None,1,,,,,,,,,,,,,,102,23,Female,2022-04-28_09h52.33.158,Main,2022.1.1,60.032153221492734,
positive,yellow,1,None,k,,,,,,,,,0,10,10,10,,,,,,,,,,,,,,,,,,,,,,,,,,,,,,,,,,,,,,,main,None,None,1,1.499121799999557,256.5574704000028,None,None,1,,,,,,,,,,,,,,102,23,Female,2022-04-28_09h52.33.158,Main,2022.1.1,60.032153221492734,
negative,yellow,1,k,None,,,,,,,,,0,11,11,11,,,,,,,,,,,,,,,,,,,,,,,,,,,,,,,,,,,,,,,main,k,k,1,0.9699346999987029,259.05880289999914,None,None,0,,,,,,,,,,,,,,102,23,Female,2022-04-28_09h52.33.158,Main,2022.1.1,60.032153221492734,
negative,yellow,1,k,None,,,,,,,,,0,12,12,12,,,,,,,,,,,,,,,,,,,,,,,,,,,,,,,,,,,,,,,main,k,k,1,1.3481398000003537,261.0278021000049,None,None,0,,,,,,,,,,,,,,102,23,Female,2022-04-28_09h52.33.158,Main,2022.1.1,60.032153221492734,
negative,red,2,None,None,,,,,,,,,0,13,13,13,,,,,,,,,,,,,,,,,,,,,,,,,,,,,,,,,,,,,,,main,None,None,1,1.4951950999966357,263.3777623999995,None,None,1,,,,,,,,,,,,,,102,23,Female,2022-04-28_09h52.33.158,Main,2022.1.1,60.032153221492734,
positive,yellow,2,None,k,,,,,,,,,0,14,14,14,,,,,,,,,,,,,,,,,,,,,,,,,,,,,,,,,,,,,,,main,None,None,1,1.4979077999960282,265.8765371000045,None,None,1,,,,,,,,,,,,,,102,23,Female,2022-04-28_09h52.33.158,Main,2022.1.1,60.032153221492734,
positive,blue,1,k,None,,,,,,,,,0,15,15,15,,,,,,,,,,,,,,,,,,,,,,,,,,,,,,,,,,,,,,,main,k,k,1,1.0193723999982467,268.37630550000176,None,None,0,,,,,,,,,,,,,,102,23,Female,2022-04-28_09h52.33.158,Main,2022.1.1,60.032153221492734,
negative,blue,1,None,k,,,,,,,,,0,16,16,16,,,,,,,,,,,,,,,,,,,,,,,,,,,,,,,,,,,,,,,main,None,None,1,1.4940978000013274,270.39464460000454,None,None,1,,,,,,,,,,,,,,102,23,Female,2022-04-28_09h52.33.158,Main,2022.1.1,60.032153221492734,
positive,blue,2,k,None,,,,,,,,,0,17,17,17,,,,,,,,,,,,,,,,,,,,,,,,,,,,,,,,,,,,,,,main,k,k,1,0.8620516000009957,272.8918189000033,None,None,0,,,,,,,,,,,,,,102,23,Female,2022-04-28_09h52.33.158,Main,2022.1.1,60.032153221492734,
negative,blue,2,None,k,,,,,,,,,0,18,18,18,,,,,,,,,,,,,,,,,,,,,,,,,,,,,,,,,,,,,,,main,None,None,1,1.5025648999944679,274.75660600000265,None,None,1,,,,,,,,,,,,,,102,23,Female,2022-04-28_09h52.33.158,Main,2022.1.1,60.032153221492734,
negative,blue,1,None,k,,,,,,,,,0,19,19,19,,,,,,,,,,,,,,,,,,,,,,,,,,,,,,,,,,,,,,,main,None,None,1,1.4979528000039863,277.2595517000009,None,None,1,,,,,,,,,,,,,,102,23,Female,2022-04-28_09h52.33.158,Main,2022.1.1,60.032153221492734,
negative,blue,1,None,k,,,,,,,,,0,20,20,20,,,,,,,,,,,,,,,,,,,,,,,,,,,,,,,,,,,,,,,main,None,None,1,1.4985489999962738,279.75868620000256,None,None,1,,,,,,,,,,,,,,102,23,Female,2022-04-28_09h52.33.158,Main,2022.1.1,60.032153221492734,
negative,blue,2,None,k,,,,,,,,,0,21,21,21,,,,,,,,,,,,,,,,,,,,,,,,,,,,,,,,,,,,,,,main,None,None,1,1.4986178999970434,282.25829100000556,None,None,1,,,,,,,,,,,,,,102,23,Female,2022-04-28_09h52.33.158,Main,2022.1.1,60.032153221492734,
negative,red,1,None,None,,,,,,,,,0,22,22,22,,,,,,,,,,,,,,,,,,,,,,,,,,,,,,,,,,,,,,,main,None,None,1,1.4989176000017324,284.7585837000006,None,None,1,,,,,,,,,,,,,,102,23,Female,2022-04-28_09h52.33.158,Main,2022.1.1,60.032153221492734,
positive,red,2,None,None,,,,,,,,,0,23,23,23,,,,,,,,,,,,,,,,,,,,,,,,,,,,,,,,,,,,,,,main,None,None,1,1.4986028999992413,287.2592644000033,None,None,1,,,,,,,,,,,,,,102,23,Female,2022-04-28_09h52.33.158,Main,2022.1.1,60.032153221492734,
negative,red,2,None,None,,,,,,,,,0,24,24,24,,,,,,,,,,,,,,,,,,,,,,,,,,,,,,,,,,,,,,,main,None,None,1,1.4980069999946863,289.75923680000415,None,None,1,,,,,,,,,,,,,,102,23,Female,2022-04-28_09h52.33.158,Main,2022.1.1,60.032153221492734,
positive,blue,2,k,None,,,,,,,,,0,25,25,25,,,,,,,,,,,,,,,,,,,,,,,,,,,,,,,,,,,,,,,main,k,k,1,0.8459699000013643,292.25823420000233,None,None,0,,,,,,,,,,,,,,102,23,Female,2022-04-28_09h52.33.158,Main,2022.1.1,60.032153221492734,
negative,yellow,1,k,None,,,,,,,,,0,26,26,26,,,,,,,,,,,,,,,,,,,,,,,,,,,,,,,,,,,,,,,main,k,k,1,0.8565089000039734,294.1068216000058,None,None,0,,,,,,,,,,,,,,102,23,Female,2022-04-28_09h52.33.158,Main,2022.1.1,60.032153221492734,
positive,blue,2,k,None,,,,,,,,,0,27,27,27,,,,,,,,,,,,,,,,,,,,,,,,,,,,,,,,,,,,,,,main,k,k,1,0.6755827000015415,295.96190690000367,None,None,0,,,,,,,,,,,,,,102,23,Female,2022-04-28_09h52.33.158,Main,2022.1.1,60.032153221492734,
negative,blue,2,None,k,,,,,,,,,0,28,28,28,,,,,,,,,,,,,,,,,,,,,,,,,,,,,,,,,,,,,,,main,None,None,1,1.5014931999976397,297.6408880000017,None,None,1,,,,,,,,,,,,,,102,23,Female,2022-04-28_09h52.33.158,Main,2022.1.1,60.032153221492734,
positive,red,1,None,None,,,,,,,,,0,29,29,29,,,,,,,,,,,,,,,,,,,,,,,,,,,,,,,,,,,,,,,main,None,None,1,1.4986649000056786,300.14472540000133,None,None,1,,,,,,,,,,,,,,102,23,Female,2022-04-28_09h52.33.158,Main,2022.1.1,60.032153221492734,
positive,blue,1,k,None,,,,,,,,,0,30,30,30,,,,,,,,,,,,,,,,,,,,,,,,,,,,,,,,,,,,,,,main,k,k,1,0.8521485999954166,302.64436650000425,None,None,0,,,,,,,,,,,,,,102,23,Female,2022-04-28_09h52.33.158,Main,2022.1.1,60.032153221492734,
positive,yellow,1,None,k,,,,,,,,,0,31,31,31,,,,,,,,,,,,,,,,,,,,,,,,,,,,,,,,,,,,,,,main,None,None,1,1.510931700002402,304.4967925000019,None,None,1,,,,,,,,,,,,,,102,23,Female,2022-04-28_09h52.33.158,Main,2022.1.1,60.032153221492734,
negative,yellow,2,k,None,,,,,,,,,0,32,32,32,,,,,,,,,,,,,,,,,,,,,,,,,,,,,,,,,,,,,,,main,k,k,1,0.8516711000047508,307.0118647000054,None,None,0,,,,,,,,,,,,,,102,23,Female,2022-04-28_09h52.33.158,Main,2022.1.1,60.032153221492734,
negative,blue,1,None,k,,,,,,,,,0,33,33,33,,,,,,,,,,,,,,,,,,,,,,,,,,,,,,,,,,,,,,,main,None,None,1,1.5105982999957632,308.86373840000306,None,None,1,,,,,,,,,,,,,,102,23,Female,2022-04-28_09h52.33.158,Main,2022.1.1,60.032153221492734,
positive,blue,1,k,None,,,,,,,,,0,34,34,34,,,,,,,,,,,,,,,,,,,,,,,,,,,,,,,,,,,,,,,main,k,k,1,0.8109889999977895,311.3779377000028,None,None,0,,,,,,,,,,,,,,102,23,Female,2022-04-28_09h52.33.158,Main,2022.1.1,60.032153221492734,
negative,yellow,1,k,None,,,,,,,,,0,35,35,35,,,,,,,,,,,,,,,,,,,,,,,,,,,,,,,,,,,,,,,main,k,k,1,0.7059953000061796,313.1906051000042,None,None,0,,,,,,,,,,,,,,102,23,Female,2022-04-28_09h52.33.158,Main,2022.1.1,60.032153221492734,
positive,yellow,2,None,k,,,,,,,,,0,36,36,36,,,,,,,,,,,,,,,,,,,,,,,,,,,,,,,,,,,,,,,main,None,None,1,1.494357299998228,314.89550760000566,None,None,1,,,,,,,,,,,,,,102,23,Female,2022-04-28_09h52.33.158,Main,2022.1.1,60.032153221492734,
positive,yellow,2,None,k,,,,,,,,,0,37,37,37,,,,,,,,,,,,,,,,,,,,,,,,,,,,,,,,,,,,,,,main,None,k,0,0.9038667999993777,317.39335109999956,None,None,1,,,,,,,,,,,,,,102,23,Female,2022-04-28_09h52.33.158,Main,2022.1.1,60.032153221492734,
negative,yellow,2,k,None,,,,,,,,,0,38,38,38,,,,,,,,,,,,,,,,,,,,,,,,,,,,,,,,,,,,,,,main,k,k,1,0.9572352999966824,320.3073927000005,None,None,0,,,,,,,,,,,,,,102,23,Female,2022-04-28_09h52.33.158,Main,2022.1.1,60.032153221492734,
positive,yellow,1,None,k,,,,,,,,,0,39,39,39,,,,,,,,,,,,,,,,,,,,,,,,,,,,,,,,,,,,,,,main,None,None,1,1.493172800001048,322.26232600000367,None,None,1,,,,,,,,,,,,,,102,23,Female,2022-04-28_09h52.33.158,Main,2022.1.1,60.032153221492734,
negative,yellow,2,k,None,,,,,,,,,0,40,40,40,,,,,,,,,,,,,,,,,,,,,,,,,,,,,,,,,,,,,,,main,k,k,1,0.7707580999995116,324.75928540000314,None,None,0,,,,,,,,,,,,,,102,23,Female,2022-04-28_09h52.33.158,Main,2022.1.1,60.032153221492734,
positive,blue,2,k,None,,,,,,,,,0,41,41,41,,,,,,,,,,,,,,,,,,,,,,,,,,,,,,,,,,,,,,,main,k,k,1,0.965173099997628,326.52899890000117,None,None,0,,,,,,,,,,,,,,102,23,Female,2022-04-28_09h52.33.158,Main,2022.1.1,60.032153221492734,
positive,blue,2,k,None,,,,,,,,,0,42,42,42,,,,,,,,,,,,,,,,,,,,,,,,,,,,,,,,,,,,,,,main,k,k,1,0.5738633000000846,328.49707630000194,None,None,0,,,,,,,,,,,,,,102,23,Female,2022-04-28_09h52.33.158,Main,2022.1.1,60.032153221492734,
negative,blue,2,None,k,,,,,,,,,0,43,43,43,,,,,,,,,,,,,,,,,,,,,,,,,,,,,,,,,,,,,,,main,None,None,1,1.5020337000023574,330.0741149000023,None,None,1,,,,,,,,,,,,,,102,23,Female,2022-04-28_09h52.33.158,Main,2022.1.1,60.032153221492734,
negative,red,1,None,None,,,,,,,,,0,44,44,44,,,,,,,,,,,,,,,,,,,,,,,,,,,,,,,,,,,,,,,main,None,None,1,1.4984019999974407,332.5772486999995,None,None,1,,,,,,,,,,,,,,102,23,Female,2022-04-28_09h52.33.158,Main,2022.1.1,60.032153221492734,
negative,yellow,1,k,None,,,,,,,,,0,45,45,45,,,,,,,,,,,,,,,,,,,,,,,,,,,,,,,,,,,,,,,main,k,k,1,0.7032285000022966,335.0766575000016,None,None,0,,,,,,,,,,,,,,102,23,Female,2022-04-28_09h52.33.158,Main,2022.1.1,60.032153221492734,
negative,yellow,1,k,None,,,,,,,,,0,46,46,46,,,,,,,,,,,,,,,,,,,,,,,,,,,,,,,,,,,,,,,main,k,k,1,0.9157105000049341,336.77920290000475,None,None,0,,,,,,,,,,,,,,102,23,Female,2022-04-28_09h52.33.158,Main,2022.1.1,60.032153221492734,
positive,red,1,None,None,,,,,,,,,0,47,47,47,,,,,,,,,,,,,,,,,,,,,,,,,,,,,,,,,,,,,,,main,None,None,1,1.4932591000033426,338.69624560000375,None,None,1,,,,,,,,,,,,,,102,23,Female,2022-04-28_09h52.33.158,Main,2022.1.1,60.032153221492734,
positive,yellow,1,None,k,,,,,,,,,0,48,48,48,,,,,,,,,,,,,,,,,,,,,,,,,,,,,,,,,,,,,,,main,None,None,1,1.4984473000004073,341.19313800000236,None,None,1,,,,,,,,,,,,,,102,23,Female,2022-04-28_09h52.33.158,Main,2022.1.1,60.032153221492734,
negative,blue,1,None,k,,,,,,,,,0,49,49,49,,,,,,,,,,,,,,,,,,,,,,,,,,,,,,,,,,,,,,,main,None,None,1,1.4987772999957087,343.6933452000012,None,None,1,,,,,,,,,,,,,,102,23,Female,2022-04-28_09h52.33.158,Main,2022.1.1,60.032153221492734,
positive,yellow,2,None,k,,,,,,,,,0,50,50,50,,,,,,,,,,,,,,,,,,,,,,,,,,,,,,,,,,,,,,,main,None,None,1,1.4988766999958898,346.1933621000062,None,None,1,,,,,,,,,,,,,,102,23,Female,2022-04-28_09h52.33.158,Main,2022.1.1,60.032153221492734,
negative,blue,1,None,k,,,,,,,,,0,51,51,51,,,,,,,,,,,,,,,,,,,,,,,,,,,,,,,,,,,,,,,main,None,None,1,1.4984911999999895,348.69322770000144,None,None,1,,,,,,,,,,,,,,102,23,Female,2022-04-28_09h52.33.158,Main,2022.1.1,60.032153221492734,
positive,red,2,None,None,,,,,,,,,0,52,52,52,,,,,,,,,,,,,,,,,,,,,,,,,,,,,,,,,,,,,,,main,None,None,1,1.4985719000032987,351.1932786000034,None,None,1,,,,,,,,,,,,,,102,23,Female,2022-04-28_09h52.33.158,Main,2022.1.1,60.032153221492734,
positive,yellow,2,None,k,,,,,,,,,0,53,53,53,,,,,,,,,,,,,,,,,,,,,,,,,,,,,,,,,,,,,,,main,None,None,1,1.49884480000037,353.693239500004,None,None,1,,,,,,,,,,,,,,102,23,Female,2022-04-28_09h52.33.158,Main,2022.1.1,60.032153221492734,
negative,red,2,None,None,,,,,,,,,0,54,54,54,,,,,,,,,,,,,,,,,,,,,,,,,,,,,,,,,,,,,,,main,None,None,1,1.4987641999978223,356.19346439999936,None,None,1,,,,,,,,,,,,,,102,23,Female,2022-04-28_09h52.33.158,Main,2022.1.1,60.032153221492734,
positive,yellow,1,None,k,,,,,,,,,0,55,55,55,,,,,,,,,,,,,,,,,,,,,,,,,,,,,,,,,,,,,,,main,None,None,1,1.4984488999980385,358.69550960000197,None,None,1,,,,,,,,,,,,,,102,23,Female,2022-04-28_09h52.33.158,Main,2022.1.1,60.032153221492734,
negative,blue,2,None,k,,,,,,,,,0,56,56,56,,,,,,,,,,,,,,,,,,,,,,,,,,,,,,,,,,,,,,,main,None,None,1,1.4983865999965928,361.19409409999935,None,None,1,,,,,,,,,,,,,,102,23,Female,2022-04-28_09h52.33.158,Main,2022.1.1,60.032153221492734,
positive,blue,1,k,None,,,,,,,,,0,57,57,57,,,,,,,,,,,,,,,,,,,,,,,,,,,,,,,,,,,,,,,main,k,k,1,1.9538869000025443,363.6940403000044,None,None,0,,,,,,,,,,,,,,102,23,Female,2022-04-28_09h52.33.158,Main,2022.1.1,60.032153221492734,
positive,blue,1,k,None,,,,,,,,,0,58,58,58,,,,,,,,,,,,,,,,,,,,,,,,,,,,,,,,,,,,,,,main,k,k,1,0.9570366999978432,367.65860760000214,None,None,0,,,,,,,,,,,,,,102,23,Female,2022-04-28_09h52.33.158,Main,2022.1.1,60.032153221492734,
negative,yellow,2,k,None,,,,,,,,,0,59,59,59,,,,,,,,,,,,,,,,,,,,,,,,,,,,,,,,,,,,,,,main,k,k,1,0.8313381999978446,369.61381670000264,None,None,0,,,,,,,,,,,,,,102,23,Female,2022-04-28_09h52.33.158,Main,2022.1.1,60.032153221492734,
positive,red,2,None,None,,,,,,,,,0,60,60,60,,,,,,,,,,,,,,,,,,,,,,,,,,,,,,,,,,,,,,,main,None,None,1,1.493722399995022,371.44663550000405,None,None,1,,,,,,,,,,,,,,102,23,Female,2022-04-28_09h52.33.158,Main,2022.1.1,60.032153221492734,
negative,yellow,1,k,None,,,,,,,,,0,61,61,61,,,,,,,,,,,,,,,,,,,,,,,,,,,,,,,,,,,,,,,main,k,k,1,0.8368633999998565,373.9438713000054,None,None,0,,,,,,,,,,,,,,102,23,Female,2022-04-28_09h52.33.158,Main,2022.1.1,60.032153221492734,
negative,red,1,None,None,,,,,,,,,0,62,62,62,,,,,,,,,,,,,,,,,,,,,,,,,,,,,,,,,,,,,,,main,None,None,1,1.493552500003716,375.7807873999991,None,None,1,,,,,,,,,,,,,,102,23,Female,2022-04-28_09h52.33.158,Main,2022.1.1,60.032153221492734,
negative,blue,1,None,k,,,,,,,,,0,63,63,63,,,,,,,,,,,,,,,,,,,,,,,,,,,,,,,,,,,,,,,main,None,None,1,1.4987025000009453,378.27726149999944,None,None,1,,,,,,,,,,,,,,102,23,Female,2022-04-28_09h52.33.158,Main,2022.1.1,60.032153221492734,
positive,blue,2,k,None,,,,,,,,,0,64,64,64,,,,,,,,,,,,,,,,,,,,,,,,,,,,,,,,,,,,,,,main,k,k,1,0.98564809999516,380.7779517000017,None,None,0,,,,,,,,,,,,,,102,23,Female,2022-04-28_09h52.33.158,Main,2022.1.1,60.032153221492734,
negative,yellow,2,k,None,,,,,,,,,0,65,65,65,,,,,,,,,,,,,,,,,,,,,,,,,,,,,,,,,,,,,,,main,k,k,1,0.8994766000032541,382.76351660000364,None,None,0,,,,,,,,,,,,,,102,23,Female,2022-04-28_09h52.33.158,Main,2022.1.1,60.032153221492734,
positive,yellow,2,None,k,,,,,,,,,0,66,66,66,,,,,,,,,,,,,,,,,,,,,,,,,,,,,,,,,,,,,,,main,None,None,1,1.509323600002972,384.66490630000044,None,None,1,,,,,,,,,,,,,,102,23,Female,2022-04-28_09h52.33.158,Main,2022.1.1,60.032153221492734,
positive,yellow,2,None,k,,,,,,,,,0,67,67,67,,,,,,,,,,,,,,,,,,,,,,,,,,,,,,,,,,,,,,,main,None,None,1,1.4987448000028962,387.17670580000413,None,None,1,,,,,,,,,,,,,,102,23,Female,2022-04-28_09h52.33.158,Main,2022.1.1,60.032153221492734,
positive,red,1,None,None,,,,,,,,,0,68,68,68,,,,,,,,,,,,,,,,,,,,,,,,,,,,,,,,,,,,,,,main,None,None,1,1.4987046999958693,389.67723890000343,None,None,1,,,,,,,,,,,,,,102,23,Female,2022-04-28_09h52.33.158,Main,2022.1.1,60.032153221492734,
positive,yellow,1,None,k,,,,,,,,,0,69,69,69,,,,,,,,,,,,,,,,,,,,,,,,,,,,,,,,,,,,,,,main,None,None,1,1.4984690999990562,392.177700500004,None,None,1,,,,,,,,,,,,,,102,23,Female,2022-04-28_09h52.33.158,Main,2022.1.1,60.032153221492734,
negative,yellow,2,k,None,,,,,,,,,0,70,70,70,,,,,,,,,,,,,,,,,,,,,,,,,,,,,,,,,,,,,,,main,k,k,1,0.7375329999995301,394.67737130000023,None,None,0,,,,,,,,,,,,,,102,23,Female,2022-04-28_09h52.33.158,Main,2022.1.1,60.032153221492734,
positive,yellow,1,None,k,,,,,,,,,0,71,71,71,,,,,,,,,,,,,,,,,,,,,,,,,,,,,,,,,,,,,,,main,None,None,1,1.493509099993389,396.41364940000494,None,None,1,,,,,,,,,,,,,,102,23,Female,2022-04-28_09h52.33.158,Main,2022.1.1,60.032153221492734,
negative,blue,1,None,k,,,,,,,,,0,72,72,72,,,,,,,,,,,,,,,,,,,,,,,,,,,,,,,,,,,,,,,main,None,None,1,1.498360199999297,398.91158890000224,None,None,1,,,,,,,,,,,,,,102,23,Female,2022-04-28_09h52.33.158,Main,2022.1.1,60.032153221492734,
negative,red,2,None,None,,,,,,,,,0,73,73,73,,,,,,,,,,,,,,,,,,,,,,,,,,,,,,,,,,,,,,,main,None,None,1,1.4990430000034394,401.41044200000033,None,None,1,,,,,,,,,,,,,,102,23,Female,2022-04-28_09h52.33.158,Main,2022.1.1,60.032153221492734,
positive,blue,2,k,None,,,,,,,,,0,74,74,74,,,,,,,,,,,,,,,,,,,,,,,,,,,,,,,,,,,,,,,main,k,k,1,0.9037031999978353,403.91126000000077,None,None,0,,,,,,,,,,,,,,102,23,Female,2022-04-28_09h52.33.158,Main,2022.1.1,60.032153221492734,
negative,blue,2,None,k,,,,,,,,,0,75,75,75,,,,,,,,,,,,,,,,,,,,,,,,,,,,,,,,,,,,,,,main,None,None,1,1.4936100999984774,405.8146756999995,None,None,1,,,,,,,,,,,,,,102,23,Female,2022-04-28_09h52.33.158,Main,2022.1.1,60.032153221492734,
negative,blue,2,None,k,,,,,,,,,0,76,76,76,,,,,,,,,,,,,,,,,,,,,,,,,,,,,,,,,,,,,,,main,None,None,1,1.4988317000024836,408.31183410000085,None,None,1,,,,,,,,,,,,,,102,23,Female,2022-04-28_09h52.33.158,Main,2022.1.1,60.032153221492734,
negative,yellow,1,k,None,,,,,,,,,0,77,77,77,,,,,,,,,,,,,,,,,,,,,,,,,,,,,,,,,,,,,,,main,k,k,1,0.9532665999940946,410.8120351000034,None,None,0,,,,,,,,,,,,,,102,23,Female,2022-04-28_09h52.33.158,Main,2022.1.1,60.032153221492734,
positive,blue,1,k,None,,,,,,,,,0,78,78,78,,,,,,,,,,,,,,,,,,,,,,,,,,,,,,,,,,,,,,,main,k,k,1,0.8984160999971209,412.76419460000034,None,None,0,,,,,,,,,,,,,,102,23,Female,2022-04-28_09h52.33.158,Main,2022.1.1,60.032153221492734,
positive,blue,1,k,None,,,,,,,,,0,79,79,79,,,,,,,,,,,,,,,,,,,,,,,,,,,,,,,,,,,,,,,main,k,k,1,0.6465903999996954,414.66421300000366,None,None,0,,,,,,,,,,,,,,102,23,Female,2022-04-28_09h52.33.158,Main,2022.1.1,60.032153221492734,
positive,red,2,None,None,,,,,,,,,0,80,80,80,,,,,,,,,,,,,,,,,,,,,,,,,,,,,,,,,,,,,,,main,None,None,1,1.4959969999981695,416.314203599999,None,None,1,,,,,,,,,,,,,,102,23,Female,2022-04-28_09h52.33.158,Main,2022.1.1,60.032153221492734,
positive,yellow,2,None,k,,,,,,,,,0,81,81,81,,,,,,,,,,,,,,,,,,,,,,,,,,,,,,,,,,,,,,,main,None,None,1,1.498671999994258,418.81145480000123,None,None,1,,,,,,,,,,,,,,102,23,Female,2022-04-28_09h52.33.158,Main,2022.1.1,60.032153221492734,
positive,blue,1,k,None,,,,,,,,,0,82,82,82,,,,,,,,,,,,,,,,,,,,,,,,,,,,,,,,,,,,,,,main,k,k,1,0.9534687999985181,421.31139390000317,None,None,0,,,,,,,,,,,,,,102,23,Female,2022-04-28_09h52.33.158,Main,2022.1.1,60.032153221492734,
negative,yellow,2,k,None,,,,,,,,,0,83,83,83,,,,,,,,,,,,,,,,,,,,,,,,,,,,,,,,,,,,,,,main,k,k,1,0.8985162000026321,423.2643032000051,None,None,0,,,,,,,,,,,,,,102,23,Female,2022-04-28_09h52.33.158,Main,2022.1.1,60.032153221492734,
positive,blue,2,k,None,,,,,,,,,0,84,84,84,,,,,,,,,,,,,,,,,,,,,,,,,,,,,,,,,,,,,,,main,k,k,1,1.1305960999961826,425.1641187999994,None,None,0,,,,,,,,,,,,,,102,23,Female,2022-04-28_09h52.33.158,Main,2022.1.1,60.032153221492734,
positive,yellow,1,None,k,,,,,,,,,0,85,85,85,,,,,,,,,,,,,,,,,,,,,,,,,,,,,,,,,,,,,,,main,None,None,1,1.4949401000048965,427.30668349999905,None,None,1,,,,,,,,,,,,,,102,23,Female,2022-04-28_09h52.33.158,Main,2022.1.1,60.032153221492734,
positive,blue,2,k,None,,,,,,,,,0,86,86,86,,,,,,,,,,,,,,,,,,,,,,,,,,,,,,,,,,,,,,,main,k,k,1,0.770626399993489,429.79521509999904,None,None,0,,,,,,,,,,,,,,102,23,Female,2022-04-28_09h52.33.158,Main,2022.1.1,60.032153221492734,
positive,blue,1,k,None,,,,,,,,,0,87,87,87,,,,,,,,,,,,,,,,,,,,,,,,,,,,,,,,,,,,,,,main,k,k,1,0.7484721000000718,431.56488480000553,None,None,0,,,,,,,,,,,,,,102,23,Female,2022-04-28_09h52.33.158,Main,2022.1.1,60.032153221492734,
negative,yellow,2,k,None,,,,,,,,,0,88,88,88,,,,,,,,,,,,,,,,,,,,,,,,,,,,,,,,,,,,,,,main,k,k,1,0.6317564999990282,433.31449710000015,None,None,0,,,,,,,,,,,,,,102,23,Female,2022-04-28_09h52.33.158,Main,2022.1.1,60.032153221492734,
negative,blue,2,None,k,,,,,,,,,0,89,89,89,,,,,,,,,,,,,,,,,,,,,,,,,,,,,,,,,,,,,,,main,None,None,1,1.510101299994858,434.94960820000415,None,None,1,,,,,,,,,,,,,,102,23,Female,2022-04-28_09h52.33.158,Main,2022.1.1,60.032153221492734,
positive,yellow,2,None,k,,,,,,,,,0,90,90,90,,,,,,,,,,,,,,,,,,,,,,,,,,,,,,,,,,,,,,,main,None,None,1,1.498638299999584,437.46394280000095,None,None,1,,,,,,,,,,,,,,102,23,Female,2022-04-28_09h52.33.158,Main,2022.1.1,60.032153221492734,
negative,yellow,1,k,None,,,,,,,,,0,91,91,91,,,,,,,,,,,,,,,,,,,,,,,,,,,,,,,,,,,,,,,main,k,k,1,1.3692162999941502,439.96382090000407,None,None,0,,,,,,,,,,,,,,102,23,Female,2022-04-28_09h52.33.158,Main,2022.1.1,60.032153221492734,
negative,red,2,None,None,,,,,,,,,0,92,92,92,,,,,,,,,,,,,,,,,,,,,,,,,,,,,,,,,,,,,,,main,None,None,1,1.4936772000000929,442.3315150000053,None,None,1,,,,,,,,,,,,,,102,23,Female,2022-04-28_09h52.33.158,Main,2022.1.1,60.032153221492734,
negative,blue,2,None,k,,,,,,,,,0,93,93,93,,,,,,,,,,,,,,,,,,,,,,,,,,,,,,,,,,,,,,,main,None,None,1,1.4983966999934637,444.828319500004,None,None,1,,,,,,,,,,,,,,102,23,Female,2022-04-28_09h52.33.158,Main,2022.1.1,60.032153221492734,
negative,blue,1,None,k,,,,,,,,,0,94,94,94,,,,,,,,,,,,,,,,,,,,,,,,,,,,,,,,,,,,,,,main,None,None,1,1.4989720999947167,447.3282975000038,None,None,1,,,,,,,,,,,,,,102,23,Female,2022-04-28_09h52.33.158,Main,2022.1.1,60.032153221492734,
negative,blue,1,None,k,,,,,,,,,0,95,95,95,,,,,,,,,,,,,,,,,,,,,,,,,,,,,,,,,,,,,,,main,None,None,1,1.4988037000002805,449.8289739000029,None,None,1,,,,,,,,,,,,,,102,23,Female,2022-04-28_09h52.33.158,Main,2022.1.1,60.032153221492734,
negative,red,1,None,None,,,,,,,,,0,96,96,96,,,,,,,,,,,,,,,,,,,,,,,,,,,,,,,,,,,,,,,main,None,None,1,1.4983271999954013,452.32887330000085,None,None,1,,,,,,,,,,,,,,102,23,Female,2022-04-28_09h52.33.158,Main,2022.1.1,60.032153221492734,
positive,yellow,1,None,k,,,,,,,,,0,97,97,97,,,,,,,,,,,,,,,,,,,,,,,,,,,,,,,,,,,,,,,main,None,None,1,1.4990261999992072,454.828943600005,None,None,1,,,,,,,,,,,,,,102,23,Female,2022-04-28_09h52.33.158,Main,2022.1.1,60.032153221492734,
negative,yellow,1,k,None,,,,,,,,,0,98,98,98,,,,,,,,,,,,,,,,,,,,,,,,,,,,,,,,,,,,,,,main,k,k,1,0.7867351999957464,457.32932500000607,None,None,0,,,,,,,,,,,,,,102,23,Female,2022-04-28_09h52.33.158,Main,2022.1.1,60.032153221492734,
positive,red,1,None,None,,,,,,,,,0,99,99,99,,,,,,,,,,,,,,,,,,,,,,,,,,,,,,,,,,,,,,,main,None,None,1,1.4929917000044952,459.1150467000043,None,None,1,,,,,,,,,,,,,,102,23,Female,2022-04-28_09h52.33.158,Main,2022.1.1,60.032153221492734,
positive,blue,1,k,None,,,,,,,,,0,100,100,100,,,,,,,,,,,,,,,,,,,,,,,,,,,,,,,,,,,,,,,main,k,k,1,0.8028449999983422,461.61196960000234,None,None,0,,,,,,,,,,,,,,102,23,Female,2022-04-28_09h52.33.158,Main,2022.1.1,60.032153221492734,
negative,yellow,1,k,None,,,,,,,,,0,101,101,101,,,,,,,,,,,,,,,,,,,,,,,,,,,,,,,,,,,,,,,main,k,k,1,0.7326777999987826,463.415453900001,None,None,0,,,,,,,,,,,,,,102,23,Female,2022-04-28_09h52.33.158,Main,2022.1.1,60.032153221492734,
negative,blue,2,None,k,,,,,,,,,0,102,102,102,,,,,,,,,,,,,,,,,,,,,,,,,,,,,,,,,,,,,,,main,None,None,1,1.4937810999981593,465.14852950000204,None,None,1,,,,,,,,,,,,,,102,23,Female,2022-04-28_09h52.33.158,Main,2022.1.1,60.032153221492734,
negative,yellow,2,k,None,,,,,,,,,0,103,103,103,,,,,,,,,,,,,,,,,,,,,,,,,,,,,,,,,,,,,,,main,k,k,1,0.7539486000023317,467.6461737999998,None,None,0,,,,,,,,,,,,,,102,23,Female,2022-04-28_09h52.33.158,Main,2022.1.1,60.032153221492734,
positive,yellow,2,None,k,,,,,,,,,0,104,104,104,,,,,,,,,,,,,,,,,,,,,,,,,,,,,,,,,,,,,,,main,None,None,1,1.5100238000013633,469.3988468000025,None,None,1,,,,,,,,,,,,,,102,23,Female,2022-04-28_09h52.33.158,Main,2022.1.1,60.032153221492734,
positive,blue,1,k,None,,,,,,,,,0,105,105,105,,,,,,,,,,,,,,,,,,,,,,,,,,,,,,,,,,,,,,,main,k,k,1,0.8532267000045977,471.91284520000045,None,None,0,,,,,,,,,,,,,,102,23,Female,2022-04-28_09h52.33.158,Main,2022.1.1,60.032153221492734,
positive,blue,2,k,None,,,,,,,,,0,106,106,106,,,,,,,,,,,,,,,,,,,,,,,,,,,,,,,,,,,,,,,main,k,k,1,0.6738200000036159,473.76528580000013,None,None,0,,,,,,,,,,,,,,102,23,Female,2022-04-28_09h52.33.158,Main,2022.1.1,60.032153221492734,
negative,blue,1,None,k,,,,,,,,,0,107,107,107,,,,,,,,,,,,,,,,,,,,,,,,,,,,,,,,,,,,,,,main,None,None,1,1.5018696999977692,475.4442221999998,None,None,1,,,,,,,,,,,,,,102,23,Female,2022-04-28_09h52.33.158,Main,2022.1.1,60.032153221492734,
positive,yellow,2,None,k,,,,,,,,,0,108,108,108,,,,,,,,,,,,,,,,,,,,,,,,,,,,,,,,,,,,,,,main,None,None,1,1.498833999998169,477.9461033000043,None,None,1,,,,,,,,,,,,,,102,23,Female,2022-04-28_09h52.33.158,Main,2022.1.1,60.032153221492734,
negative,yellow,1,k,None,,,,,,,,,0,109,109,109,,,,,,,,,,,,,,,,,,,,,,,,,,,,,,,,,,,,,,,main,k,k,1,0.7456739999979618,480.44603330000245,None,None,0,,,,,,,,,,,,,,102,23,Female,2022-04-28_09h52.33.158,Main,2022.1.1,60.032153221492734,
negative,blue,2,None,k,,,,,,,,,0,110,110,110,,,,,,,,,,,,,,,,,,,,,,,,,,,,,,,,,,,,,,,main,None,None,1,1.5015808000025572,482.19376190000185,None,None,1,,,,,,,,,,,,,,102,23,Female,2022-04-28_09h52.33.158,Main,2022.1.1,60.032153221492734,
positive,blue,2,k,None,,,,,,,,,0,111,111,111,,,,,,,,,,,,,,,,,,,,,,,,,,,,,,,,,,,,,,,main,k,k,1,0.7353972999990219,484.6961059000023,None,None,0,,,,,,,,,,,,,,102,23,Female,2022-04-28_09h52.33.158,Main,2022.1.1,60.032153221492734,
negative,blue,1,None,k,,,,,,,,,0,112,112,112,,,,,,,,,,,,,,,,,,,,,,,,,,,,,,,,,,,,,,,main,None,None,1,1.4953766999969957,486.440912500002,None,None,1,,,,,,,,,,,,,,102,23,Female,2022-04-28_09h52.33.158,Main,2022.1.1,60.032153221492734,
positive,yellow,1,None,k,,,,,,,,,0,113,113,113,,,,,,,,,,,,,,,,,,,,,,,,,,,,,,,,,,,,,,,main,None,None,1,1.4983448999992106,488.93062199999986,None,None,1,,,,,,,,,,,,,,102,23,Female,2022-04-28_09h52.33.158,Main,2022.1.1,60.032153221492734,
negative,red,1,None,None,,,,,,,,,0,114,114,114,,,,,,,,,,,,,,,,,,,,,,,,,,,,,,,,,,,,,,,main,None,None,1,1.4985276000006706,491.4302639000016,None,None,1,,,,,,,,,,,,,,102,23,Female,2022-04-28_09h52.33.158,Main,2022.1.1,60.032153221492734,
positive,red,1,None,None,,,,,,,,,0,115,115,115,,,,,,,,,,,,,,,,,,,,,,,,,,,,,,,,,,,,,,,main,None,None,1,1.4987248000034015,493.9295373999994,None,None,1,,,,,,,,,,,,,,102,23,Female,2022-04-28_09h52.33.158,Main,2022.1.1,60.032153221492734,
negative,red,2,None,None,,,,,,,,,0,116,116,116,,,,,,,,,,,,,,,,,,,,,,,,,,,,,,,,,,,,,,,main,None,None,1,1.4982661999965785,496.4305545000025,None,None,1,,,,,,,,,,,,,,102,23,Female,2022-04-28_09h52.33.158,Main,2022.1.1,60.032153221492734,
negative,yellow,2,k,None,,,,,,,,,0,117,117,117,,,,,,,,,,,,,,,,,,,,,,,,,,,,,,,,,,,,,,,main,k,k,1,0.8035569999992731,498.9298452000003,None,None,0,,,,,,,,,,,,,,102,23,Female,2022-04-28_09h52.33.158,Main,2022.1.1,60.032153221492734,
positive,yellow,1,None,k,,,,,,,,,0,118,118,118,,,,,,,,,,,,,,,,,,,,,,,,,,,,,,,,,,,,,,,main,None,None,1,1.493550099999993,500.73303200000373,None,None,1,,,,,,,,,,,,,,102,23,Female,2022-04-28_09h52.33.158,Main,2022.1.1,60.032153221492734,
positive,red,2,None,None,,,,,,,,,0,119,119,119,,,,,,,,,,,,,,,,,,,,,,,,,,,,,,,,,,,,,,,main,None,None,1,1.498923699997249,503.230252500005,None,None,1,,,,,,,,,,,,,,102,23,Female,2022-04-28_09h52.33.158,Main,2022.1.1,60.032153221492734,
positive,blue,2,k,None,,,,,,,,,0,120,120,120,,,,,,,,,,,,,,,,,,,,,,,,,,,,,,,,,,,,,,,main,k,k,1,1.0451740999997128,505.73008980000304,None,None,0,,,,,,,,,,,,,,102,23,Female,2022-04-28_09h52.33.158,Main,2022.1.1,60.032153221492734,
negative,red,1,None,None,,,,,,,,,0,121,121,121,,,,,,,,,,,,,,,,,,,,,,,,,,,,,,,,,,,,,,,main,None,None,1,1.5020231000016793,507.7773612000019,None,None,1,,,,,,,,,,,,,,102,23,Female,2022-04-28_09h52.33.158,Main,2022.1.1,60.032153221492734,
positive,yellow,2,None,k,,,,,,,,,0,122,122,122,,,,,,,,,,,,,,,,,,,,,,,,,,,,,,,,,,,,,,,main,None,None,1,1.498468400001002,510.28006430000096,None,None,1,,,,,,,,,,,,,,102,23,Female,2022-04-28_09h52.33.158,Main,2022.1.1,60.032153221492734,
negative,red,2,None,None,,,,,,,,,0,123,123,123,,,,,,,,,,,,,,,,,,,,,,,,,,,,,,,,,,,,,,,main,None,None,1,1.498511800004053,512.7802267000006,None,None,1,,,,,,,,,,,,,,102,23,Female,2022-04-28_09h52.33.158,Main,2022.1.1,60.032153221492734,
negative,yellow,2,k,None,,,,,,,,,0,124,124,124,,,,,,,,,,,,,,,,,,,,,,,,,,,,,,,,,,,,,,,main,k,k,1,1.2788129999971716,515.2801894000004,None,None,0,,,,,,,,,,,,,,102,23,Female,2022-04-28_09h52.33.158,Main,2022.1.1,60.032153221492734,
positive,red,1,None,None,,,,,,,,,0,125,125,125,,,,,,,,,,,,,,,,,,,,,,,,,,,,,,,,,,,,,,,main,None,None,1,1.501868999999715,517.5615074000016,None,None,1,,,,,,,,,,,,,,102,23,Female,2022-04-28_09h52.33.158,Main,2022.1.1,60.032153221492734,
negative,blue,2,None,k,,,,,,,,,0,126,126,126,,,,,,,,,,,,,,,,,,,,,,,,,,,,,,,,,,,,,,,main,None,None,1,1.4984327999991365,520.0636891000031,None,None,1,,,,,,,,,,,,,,102,23,Female,2022-04-28_09h52.33.158,Main,2022.1.1,60.032153221492734,
negative,blue,1,None,k,,,,,,,,,0,127,127,127,,,,,,,,,,,,,,,,,,,,,,,,,,,,,,,,,,,,,,,main,None,None,1,1.4985299999971176,522.563301000002,None,None,1,,,,,,,,,,,,,,102,23,Female,2022-04-28_09h52.33.158,Main,2022.1.1,60.032153221492734,
negative,yellow,1,k,None,,,,,,,,,0,128,128,128,,,,,,,,,,,,,,,,,,,,,,,,,,,,,,,,,,,,,,,main,k,k,1,0.7691642999998294,525.0633627000061,None,None,0,,,,,,,,,,,,,,102,23,Female,2022-04-28_09h52.33.158,Main,2022.1.1,60.032153221492734,
negative,yellow,1,k,None,,,,,,,,,0,129,129,129,,,,,,,,,,,,,,,,,,,,,,,,,,,,,,,,,,,,,,,main,k,k,1,0.7156800000011572,526.833117000002,None,None,0,,,,,,,,,,,,,,102,23,Female,2022-04-28_09h52.33.158,Main,2022.1.1,60.032153221492734,
positive,blue,1,k,None,,,,,,,,,0,130,130,130,,,,,,,,,,,,,,,,,,,,,,,,,,,,,,,,,,,,,,,main,k,k,1,0.9991430000009132,528.5497771000009,None,None,0,,,,,,,,,,,,,,102,23,Female,2022-04-28_09h52.33.158,Main,2022.1.1,60.032153221492734,
negative,blue,1,None,k,,,,,,,,,0,131,131,131,,,,,,,,,,,,,,,,,,,,,,,,,,,,,,,,,,,,,,,main,None,None,1,1.4935809000016889,530.5498963999999,None,None,1,,,,,,,,,,,,,,102,23,Female,2022-04-28_09h52.33.158,Main,2022.1.1,60.032153221492734,
negative,blue,2,None,k,,,,,,,,,0,132,132,132,,,,,,,,,,,,,,,,,,,,,,,,,,,,,,,,,,,,,,,main,None,None,1,1.4986214000018663,533.0467688999997,None,None,1,,,,,,,,,,,,,,102,23,Female,2022-04-28_09h52.33.158,Main,2022.1.1,60.032153221492734,
positive,blue,2,k,None,,,,,,,,,0,133,133,133,,,,,,,,,,,,,,,,,,,,,,,,,,,,,,,,,,,,,,,main,k,k,1,0.7536793999970541,535.5469595000031,None,None,0,,,,,,,,,,,,,,102,23,Female,2022-04-28_09h52.33.158,Main,2022.1.1,60.032153221492734,
positive,red,2,None,None,,,,,,,,,0,134,134,134,,,,,,,,,,,,,,,,,,,,,,,,,,,,,,,,,,,,,,,main,None,None,1,1.493147000001045,537.3001894000045,None,None,1,,,,,,,,,,,,,,102,23,Female,2022-04-28_09h52.33.158,Main,2022.1.1,60.032153221492734,
negative,yellow,2,k,None,,,,,,,,,0,135,135,135,,,,,,,,,,,,,,,,,,,,,,,,,,,,,,,,,,,,,,,main,k,k,1,0.7203465999991749,539.7962149000014,None,None,0,,,,,,,,,,,,,,102,23,Female,2022-04-28_09h52.33.158,Main,2022.1.1,60.032153221492734,
positive,yellow,2,None,k,,,,,,,,,0,136,136,136,,,,,,,,,,,,,,,,,,,,,,,,,,,,,,,,,,,,,,,main,None,None,1,1.4943283999964478,541.5168542000029,None,None,1,,,,,,,,,,,,,,102,23,Female,2022-04-28_09h52.33.158,Main,2022.1.1,60.032153221492734,
positive,blue,1,k,None,,,,,,,,,0,137,137,137,,,,,,,,,,,,,,,,,,,,,,,,,,,,,,,,,,,,,,,main,k,k,1,0.9865012999944156,544.0137481000056,None,None,0,,,,,,,,,,,,,,102,23,Female,2022-04-28_09h52.33.158,Main,2022.1.1,60.032153221492734,
positive,yellow,1,None,k,,,,,,,,,0,138,138,138,,,,,,,,,,,,,,,,,,,,,,,,,,,,,,,,,,,,,,,main,None,None,1,1.4933151000004727,545.9997900000017,None,None,1,,,,,,,,,,,,,,102,23,Female,2022-04-28_09h52.33.158,Main,2022.1.1,60.032153221492734,
positive,yellow,1,None,k,,,,,,,,,0,139,139,139,,,,,,,,,,,,,,,,,,,,,,,,,,,,,,,,,,,,,,,main,None,None,1,1.4992544000051566,548.4963442000007,None,None,1,,,,,,,,,,,,,,102,23,Female,2022-04-28_09h52.33.158,Main,2022.1.1,60.032153221492734,
positive,yellow,1,None,k,,,,,,,,,0,140,140,140,,,,,,,,,,,,,,,,,,,,,,,,,,,,,,,,,,,,,,,main,None,None,1,1.4988128999975743,550.9972698000056,None,None,1,,,,,,,,,,,,,,102,23,Female,2022-04-28_09h52.33.158,Main,2022.1.1,60.032153221492734,
positive,blue,1,k,None,,,,,,,,,0,141,141,141,,,,,,,,,,,,,,,,,,,,,,,,,,,,,,,,,,,,,,,main,k,k,1,1.0849538000038592,553.4978081000008,None,None,0,,,,,,,,,,,,,,102,23,Female,2022-04-28_09h52.33.158,Main,2022.1.1,60.032153221492734,
positive,blue,2,k,None,,,,,,,,,0,142,142,142,,,,,,,,,,,,,,,,,,,,,,,,,,,,,,,,,,,,,,,main,k,k,1,0.6670059999960358,555.5836952000027,None,None,0,,,,,,,,,,,,,,102,23,Female,2022-04-28_09h52.33.158,Main,2022.1.1,60.032153221492734,
positive,yellow,2,None,k,,,,,,,,,0,143,143,143,,,,,,,,,,,,,,,,,,,,,,,,,,,,,,,,,,,,,,,main,None,None,1,1.4937850999995135,557.2502915000005,None,None,1,,,,,,,,,,,,,,102,23,Female,2022-04-28_09h52.33.158,Main,2022.1.1,60.032153221492734,
negative,yellow,2,k,None,,,,,,,,,0,144,144,144,,,,,,,,,,,,,,,,,,,,,,,,,,,,,,,,,,,,,,,main,k,k,1,0.8031286999976146,559.7481087000051,None,None,0,,,,,,,,,,,,,,102,23,Female,2022-04-28_09h52.33.158,Main,2022.1.1,60.032153221492734,
negative,blue,2,None,k,,,,,,,,,0,145,145,145,,,,,,,,,,,,,,,,,,,,,,,,,,,,,,,,,,,,,,,main,None,None,1,1.4933554000017466,561.5502665000022,None,None,1,,,,,,,,,,,,,,102,23,Female,2022-04-28_09h52.33.158,Main,2022.1.1,60.032153221492734,
negative,red,1,None,None,,,,,,,,,0,146,146,146,,,,,,,,,,,,,,,,,,,,,,,,,,,,,,,,,,,,,,,main,None,None,1,1.499075499996252,564.0470032000012,None,None,1,,,,,,,,,,,,,,102,23,Female,2022-04-28_09h52.33.158,Main,2022.1.1,60.032153221492734,
positive,blue,1,k,None,,,,,,,,,0,147,147,147,,,,,,,,,,,,,,,,,,,,,,,,,,,,,,,,,,,,,,,main,k,k,1,0.6708013999959803,566.5476526999992,None,None,0,,,,,,,,,,,,,,102,23,Female,2022-04-28_09h52.33.158,Main,2022.1.1,60.032153221492734,
positive,yellow,1,None,k,,,,,,,,,0,148,148,148,,,,,,,,,,,,,,,,,,,,,,,,,,,,,,,,,,,,,,,main,None,None,1,1.4930712999994284,568.2176538999993,None,None,1,,,,,,,,,,,,,,102,23,Female,2022-04-28_09h52.33.158,Main,2022.1.1,60.032153221492734,
negative,red,2,None,None,,,,,,,,,0,149,149,149,,,,,,,,,,,,,,,,,,,,,,,,,,,,,,,,,,,,,,,main,None,None,1,1.4986945999989985,570.7140789000041,None,None,1,,,,,,,,,,,,,,102,23,Female,2022-04-28_09h52.33.158,Main,2022.1.1,60.032153221492734,
negative,blue,1,None,k,,,,,,,,,0,150,150,150,,,,,,,,,,,,,,,,,,,,,,,,,,,,,,,,,,,,,,,main,None,None,1,1.4985965000014403,573.214879900006,None,None,1,,,,,,,,,,,,,,102,23,Female,2022-04-28_09h52.33.158,Main,2022.1.1,60.032153221492734,
negative,yellow,2,k,None,,,,,,,,,0,151,151,151,,,,,,,,,,,,,,,,,,,,,,,,,,,,,,,,,,,,,,,main,k,k,1,0.8038937000019359,575.7148699000027,None,None,0,,,,,,,,,,,,,,102,23,Female,2022-04-28_09h52.33.158,Main,2022.1.1,60.032153221492734,
negative,blue,2,None,k,,,,,,,,,0,152,152,152,,,,,,,,,,,,,,,,,,,,,,,,,,,,,,,,,,,,,,,main,None,None,1,1.493235599999025,577.5172927000021,None,None,1,,,,,,,,,,,,,,102,23,Female,2022-04-28_09h52.33.158,Main,2022.1.1,60.032153221492734,
negative,yellow,1,k,None,,,,,,,,,0,153,153,153,,,,,,,,,,,,,,,,,,,,,,,,,,,,,,,,,,,,,,,main,k,k,1,0.8704302000041935,580.014293500004,None,None,0,,,,,,,,,,,,,,102,23,Female,2022-04-28_09h52.33.158,Main,2022.1.1,60.032153221492734,
negative,blue,1,None,k,,,,,,,,,0,154,154,154,,,,,,,,,,,,,,,,,,,,,,,,,,,,,,,,,,,,,,,main,None,None,1,1.494455799998832,581.8841055000012,None,None,1,,,,,,,,,,,,,,102,23,Female,2022-04-28_09h52.33.158,Main,2022.1.1,60.032153221492734,
positive,yellow,2,None,k,,,,,,,,,0,155,155,155,,,,,,,,,,,,,,,,,,,,,,,,,,,,,,,,,,,,,,,main,None,None,1,1.4978253000008408,584.3819816000032,None,None,1,,,,,,,,,,,,,,102,23,Female,2022-04-28_09h52.33.158,Main,2022.1.1,60.032153221492734,
positive,red,2,None,None,,,,,,,,,0,156,156,156,,,,,,,,,,,,,,,,,,,,,,,,,,,,,,,,,,,,,,,main,None,None,1,1.4987561000016285,586.8810133000006,None,None,1,,,,,,,,,,,,,,102,23,Female,2022-04-28_09h52.33.158,Main,2022.1.1,60.032153221492734,
positive,red,1,None,None,,,,,,,,,0,157,157,157,,,,,,,,,,,,,,,,,,,,,,,,,,,,,,,,,,,,,,,main,None,None,1,1.498486899996351,589.3811816000016,None,None,1,,,,,,,,,,,,,,102,23,Female,2022-04-28_09h52.33.158,Main,2022.1.1,60.032153221492734,
positive,blue,2,k,None,,,,,,,,,0,158,158,158,,,,,,,,,,,,,,,,,,,,,,,,,,,,,,,,,,,,,,,main,k,k,1,1.1855041999951936,591.8815212000045,None,None,0,,,,,,,,,,,,,,102,23,Female,2022-04-28_09h52.33.158,Main,2022.1.1,60.032153221492734,
negative,yellow,1,k,None,,,,,,,,,0,159,159,159,,,,,,,,,,,,,,,,,,,,,,,,,,,,,,,,,,,,,,,main,k,k,1,0.9984451999989687,594.0784006000031,None,None,0,,,,,,,,,,,,,,102,23,Female,2022-04-28_09h52.33.158,Main,2022.1.1,60.032153221492734,
negative,red,2,None,None,,,,,,,,,0,160,160,160,,,,,,,,,,,,,,,,,,,,,,,,,,,,,,,,,,,,,,,main,None,None,1,1.4952773999975761,596.067876699999,None,None,1,,,,,,,,,,,,,,102,23,Female,2022-04-28_09h52.33.158,Main,2022.1.1,60.032153221492734,
negative,blue,1,None,k,,,,,,,,,0,161,161,161,,,,,,,,,,,,,,,,,,,,,,,,,,,,,,,,,,,,,,,main,None,None,1,1.4984135000049719,598.5650720000049,None,None,1,,,,,,,,,,,,,,102,23,Female,2022-04-28_09h52.33.158,Main,2022.1.1,60.032153221492734,
negative,blue,1,None,k,,,,,,,,,0,162,162,162,,,,,,,,,,,,,,,,,,,,,,,,,,,,,,,,,,,,,,,main,None,None,1,1.499028599995654,601.0652960000007,None,None,1,,,,,,,,,,,,,,102,23,Female,2022-04-28_09h52.33.158,Main,2022.1.1,60.032153221492734,
negative,yellow,1,k,None,,,,,,,,,0,163,163,163,,,,,,,,,,,,,,,,,,,,,,,,,,,,,,,,,,,,,,,main,k,k,1,1.0202252000017324,603.5650884000061,None,None,0,,,,,,,,,,,,,,102,23,Female,2022-04-28_09h52.33.158,Main,2022.1.1,60.032153221492734,
negative,yellow,1,k,None,,,,,,,,,0,164,164,164,,,,,,,,,,,,,,,,,,,,,,,,,,,,,,,,,,,,,,,main,k,k,1,1.1651802999986103,605.5846846000059,None,None,0,,,,,,,,,,,,,,102,23,Female,2022-04-28_09h52.33.158,Main,2022.1.1,60.032153221492734,
positive,yellow,1,None,k,,,,,,,,,0,165,165,165,,,,,,,,,,,,,,,,,,,,,,,,,,,,,,,,,,,,,,,main,None,None,1,1.49365210000542,607.7512633000006,None,None,1,,,,,,,,,,,,,,102,23,Female,2022-04-28_09h52.33.158,Main,2022.1.1,60.032153221492734,
negative,red,1,None,None,,,,,,,,,0,166,166,166,,,,,,,,,,,,,,,,,,,,,,,,,,,,,,,,,,,,,,,main,None,None,1,1.499103499998455,610.2483195000023,None,None,1,,,,,,,,,,,,,,102,23,Female,2022-04-28_09h52.33.158,Main,2022.1.1,60.032153221492734,
negative,yellow,2,k,None,,,,,,,,,0,167,167,167,,,,,,,,,,,,,,,,,,,,,,,,,,,,,,,,,,,,,,,main,k,k,1,1.8449105999970925,612.7493679000036,None,None,0,,,,,,,,,,,,,,102,23,Female,2022-04-28_09h52.33.158,Main,2022.1.1,60.032153221492734,
positive,blue,2,k,None,,,,,,,,,0,168,168,168,,,,,,,,,,,,,,,,,,,,,,,,,,,,,,,,,,,,,,,main,k,k,1,0.7067336000036448,616.5968866000039,None,None,0,,,,,,,,,,,,,,102,23,Female,2022-04-28_09h52.33.158,Main,2022.1.1,60.032153221492734,
positive,red,2,None,None,,,,,,,,,0,169,169,169,,,,,,,,,,,,,,,,,,,,,,,,,,,,,,,,,,,,,,,main,None,None,1,1.4939576999968267,618.3015108000036,None,None,1,,,,,,,,,,,,,,102,23,Female,2022-04-28_09h52.33.158,Main,2022.1.1,60.032153221492734,
positive,red,1,None,None,,,,,,,,,0,170,170,170,,,,,,,,,,,,,,,,,,,,,,,,,,,,,,,,,,,,,,,main,None,None,1,1.4982923999996274,620.7995923000053,None,None,1,,,,,,,,,,,,,,102,23,Female,2022-04-28_09h52.33.158,Main,2022.1.1,60.032153221492734,
negative,blue,2,None,k,,,,,,,,,0,171,171,171,,,,,,,,,,,,,,,,,,,,,,,,,,,,,,,,,,,,,,,main,None,None,1,1.498685900005512,623.2989225000056,None,None,1,,,,,,,,,,,,,,102,23,Female,2022-04-28_09h52.33.158,Main,2022.1.1,60.032153221492734,
positive,blue,2,k,None,,,,,,,,,0,172,172,172,,,,,,,,,,,,,,,,,,,,,,,,,,,,,,,,,,,,,,,main,k,k,1,0.5537167000002228,625.798432800002,None,None,0,,,,,,,,,,,,,,102,23,Female,2022-04-28_09h52.33.158,Main,2022.1.1,60.032153221492734,
negative,yellow,2,k,None,,,,,,,,,0,173,173,173,,,,,,,,,,,,,,,,,,,,,,,,,,,,,,,,,,,,,,,main,k,k,1,0.6982213999945088,627.3520216000034,None,None,0,,,,,,,,,,,,,,102,23,Female,2022-04-28_09h52.33.158,Main,2022.1.1,60.032153221492734,
positive,yellow,2,None,k,,,,,,,,,0,174,174,174,,,,,,,,,,,,,,,,,,,,,,,,,,,,,,,,,,,,,,,main,None,None,1,1.4938946999973268,629.0518678000008,None,None,1,,,,,,,,,,,,,,102,23,Female,2022-04-28_09h52.33.158,Main,2022.1.1,60.032153221492734,
negative,blue,2,None,k,,,,,,,,,0,175,175,175,,,,,,,,,,,,,,,,,,,,,,,,,,,,,,,,,,,,,,,main,None,None,1,1.4985662000035518,631.5494627000007,None,None,1,,,,,,,,,,,,,,102,23,Female,2022-04-28_09h52.33.158,Main,2022.1.1,60.032153221492734,
positive,blue,1,k,None,,,,,,,,,0,176,176,176,,,,,,,,,,,,,,,,,,,,,,,,,,,,,,,,,,,,,,,main,k,k,1,0.7700089999998454,634.0490480000008,None,None,0,,,,,,,,,,,,,,102,23,Female,2022-04-28_09h52.33.158,Main,2022.1.1,60.032153221492734,
positive,yellow,1,None,k,,,,,,,,,0,177,177,177,,,,,,,,,,,,,,,,,,,,,,,,,,,,,,,,,,,,,,,main,None,None,1,1.4942553999935626,635.8185863000035,None,None,1,,,,,,,,,,,,,,102,23,Female,2022-04-28_09h52.33.158,Main,2022.1.1,60.032153221492734,
positive,blue,1,k,None,,,,,,,,,0,178,178,178,,,,,,,,,,,,,,,,,,,,,,,,,,,,,,,,,,,,,,,main,k,k,1,0.886748599994462,638.3163650999995,None,None,0,,,,,,,,,,,,,,102,23,Female,2022-04-28_09h52.33.158,Main,2022.1.1,60.032153221492734,
positive,yellow,2,None,k,,,,,,,,,0,179,179,179,,,,,,,,,,,,,,,,,,,,,,,,,,,,,,,,,,,,,,,main,None,None,1,1.493684499997471,640.2024268000023,None,None,1,,,,,,,,,,,,,,102,23,Female,2022-04-28_09h52.33.158,Main,2022.1.1,60.032153221492734,
positive,blue,1,k,None,,,,,,,,,0,180,180,180,,,,,,,,,,,,,,,,,,,,,,,,,,,,,,,,,,,,,,,main,k,k,1,0.8531695999990916,642.699448899999,None,None,0,,,,,,,,,,,,,,102,23,Female,2022-04-28_09h52.33.158,Main,2022.1.1,60.032153221492734,
negative,red,1,None,None,,,,,,,,,0,181,181,181,,,,,,,,,,,,,,,,,,,,,,,,,,,,,,,,,,,,,,,main,None,None,1,1.4938526999976602,644.5522239999991,None,None,1,,,,,,,,,,,,,,102,23,Female,2022-04-28_09h52.33.158,Main,2022.1.1,60.032153221492734,
negative,blue,1,None,k,,,,,,,,,0,182,182,182,,,,,,,,,,,,,,,,,,,,,,,,,,,,,,,,,,,,,,,main,None,None,1,1.498733299995365,647.0497324000025,None,None,1,,,,,,,,,,,,,,102,23,Female,2022-04-28_09h52.33.158,Main,2022.1.1,60.032153221492734,
negative,yellow,2,k,None,,,,,,,,,0,183,183,183,,,,,,,,,,,,,,,,,,,,,,,,,,,,,,,,,,,,,,,main,k,k,1,0.6865480999986175,649.5497648000019,None,None,0,,,,,,,,,,,,,,102,23,Female,2022-04-28_09h52.33.158,Main,2022.1.1,60.032153221492734,
positive,yellow,2,None,k,,,,,,,,,0,184,184,184,,,,,,,,,,,,,,,,,,,,,,,,,,,,,,,,,,,,,,,main,None,None,1,1.5110853999940446,651.2371285000045,None,None,1,,,,,,,,,,,,,,102,23,Female,2022-04-28_09h52.33.158,Main,2022.1.1,60.032153221492734,
positive,yellow,1,None,k,,,,,,,,,0,185,185,185,,,,,,,,,,,,,,,,,,,,,,,,,,,,,,,,,,,,,,,main,None,None,1,1.4981107999992673,653.7521276000043,None,None,1,,,,,,,,,,,,,,102,23,Female,2022-04-28_09h52.33.158,Main,2022.1.1,60.032153221492734,
positive,red,2,None,None,,,,,,,,,0,186,186,186,,,,,,,,,,,,,,,,,,,,,,,,,,,,,,,,,,,,,,,main,None,None,1,1.498800499997742,656.2513691999993,None,None,1,,,,,,,,,,,,,,102,23,Female,2022-04-28_09h52.33.158,Main,2022.1.1,60.032153221492734,
positive,blue,1,k,None,,,,,,,,,0,187,187,187,,,,,,,,,,,,,,,,,,,,,,,,,,,,,,,,,,,,,,,main,k,k,1,0.6354587000023457,658.7515618000034,None,None,0,,,,,,,,,,,,,,102,23,Female,2022-04-28_09h52.33.158,Main,2022.1.1,60.032153221492734,
negative,yellow,1,k,None,,,,,,,,,0,188,188,188,,,,,,,,,,,,,,,,,,,,,,,,,,,,,,,,,,,,,,,main,k,k,1,0.6571289999992587,660.3945441000033,None,None,0,,,,,,,,,,,,,,102,23,Female,2022-04-28_09h52.33.158,Main,2022.1.1,60.032153221492734,
positive,yellow,2,None,k,,,,,,,,,0,189,189,189,,,,,,,,,,,,,,,,,,,,,,,,,,,,,,,,,,,,,,,main,None,None,1,1.5021096999989823,662.0475645000042,None,None,1,,,,,,,,,,,,,,102,23,Female,2022-04-28_09h52.33.158,Main,2022.1.1,60.032153221492734,
negative,yellow,2,k,None,,,,,,,,,0,190,190,190,,,,,,,,,,,,,,,,,,,,,,,,,,,,,,,,,,,,,,,main,k,k,1,0.918858299999556,664.5505029000051,None,None,0,,,,,,,,,,,,,,102,23,Female,2022-04-28_09h52.33.158,Main,2022.1.1,60.032153221492734,
negative,yellow,1,k,None,,,,,,,,,0,191,191,191,,,,,,,,,,,,,,,,,,,,,,,,,,,,,,,,,,,,,,,main,k,k,1,0.7995960000043851,666.4691605000044,None,None,0,,,,,,,,,,,,,,102,23,Female,2022-04-28_09h52.33.158,Main,2022.1.1,60.032153221492734,
positive,blue,2,k,None,,,,,,,,,0,192,192,192,,,,,,,,,,,,,,,,,,,,,,,,,,,,,,,,,,,,,,,main,k,k,1,0.7484104000031948,668.269025200003,None,None,0,,,,,,,,,,,,,,102,23,Female,2022-04-28_09h52.33.158,Main,2022.1.1,60.032153221492734,
positive,yellow,1,None,k,,,,,,,,,0,193,193,193,,,,,,,,,,,,,,,,,,,,,,,,,,,,,,,,,,,,,,,main,None,None,1,1.4942835999972885,670.0192501000056,None,None,1,,,,,,,,,,,,,,102,23,Female,2022-04-28_09h52.33.158,Main,2022.1.1,60.032153221492734,
negative,red,2,None,None,,,,,,,,,0,194,194,194,,,,,,,,,,,,,,,,,,,,,,,,,,,,,,,,,,,,,,,main,None,None,1,1.4981733999957214,672.5171365999995,None,None,1,,,,,,,,,,,,,,102,23,Female,2022-04-28_09h52.33.158,Main,2022.1.1,60.032153221492734,
positive,red,1,None,None,,,,,,,,,0,195,195,195,,,,,,,,,,,,,,,,,,,,,,,,,,,,,,,,,,,,,,,main,None,None,1,1.498710599997139,675.0167564000003,None,None,1,,,,,,,,,,,,,,102,23,Female,2022-04-28_09h52.33.158,Main,2022.1.1,60.032153221492734,
negative,blue,1,None,k,,,,,,,,,0,196,196,196,,,,,,,,,,,,,,,,,,,,,,,,,,,,,,,,,,,,,,,main,None,None,1,1.4986630999992485,677.5168156,None,None,1,,,,,,,,,,,,,,102,23,Female,2022-04-28_09h52.33.158,Main,2022.1.1,60.032153221492734,
positive,blue,2,k,None,,,,,,,,,0,197,197,197,,,,,,,,,,,,,,,,,,,,,,,,,,,,,,,,,,,,,,,main,k,k,1,0.8202261999977054,680.0169756000032,None,None,0,,,,,,,,,,,,,,102,23,Female,2022-04-28_09h52.33.158,Main,2022.1.1,60.032153221492734,
negative,blue,2,None,k,,,,,,,,,0,198,198,198,,,,,,,,,,,,,,,,,,,,,,,,,,,,,,,,,,,,,,,main,None,None,1,1.494486900002812,681.8447596000042,None,None,1,,,,,,,,,,,,,,102,23,Female,2022-04-28_09h52.33.158,Main,2022.1.1,60.032153221492734,
negative,blue,2,None,k,,,,,,,,,0,199,199,199,,,,,,,,,,,,,,,,,,,,,,,,,,,,,,,,,,,,,,,main,None,None,1,1.4987110000001849,684.3351287000041,None,None,1,,,,,,,,,,,,,,102,23,Female,2022-04-28_09h52.33.158,Main,2022.1.1,60.032153221492734,
positive,blue,2,k,None,,,,,,,,,0,200,200,200,,,,,,,,,,,,,,,,,,,,,,,,,,,,,,,,,,,,,,,main,k,k,1,0.7858915999968303,686.8349832000022,None,None,0,,,,,,,,,,,,,,102,23,Female,2022-04-28_09h52.33.158,Main,2022.1.1,60.032153221492734,
positive,blue,2,k,None,,,,,,,,,0,201,201,201,,,,,,,,,,,,,,,,,,,,,,,,,,,,,,,,,,,,,,,main,k,k,1,0.7489331999968272,688.6196711000011,None,None,0,,,,,,,,,,,,,,102,23,Female,2022-04-28_09h52.33.158,Main,2022.1.1,60.032153221492734,
negative,yellow,2,k,None,,,,,,,,,0,202,202,202,,,,,,,,,,,,,,,,,,,,,,,,,,,,,,,,,,,,,,,main,k,k,1,0.581505100002687,690.3700966000033,None,None,0,,,,,,,,,,,,,,102,23,Female,2022-04-28_09h52.33.158,Main,2022.1.1,60.032153221492734,
positive,red,1,None,None,,,,,,,,,0,203,203,203,,,,,,,,,,,,,,,,,,,,,,,,,,,,,,,,,,,,,,,main,None,None,1,1.4939228000002913,691.9527954000005,None,None,1,,,,,,,,,,,,,,102,23,Female,2022-04-28_09h52.33.158,Main,2022.1.1,60.032153221492734,
negative,blue,2,None,k,,,,,,,,,0,204,204,204,,,,,,,,,,,,,,,,,,,,,,,,,,,,,,,,,,,,,,,main,None,None,1,1.4982309000042733,694.4503153000041,None,None,1,,,,,,,,,,,,,,102,23,Female,2022-04-28_09h52.33.158,Main,2022.1.1,60.032153221492734,
negative,red,1,None,None,,,,,,,,,0,205,205,205,,,,,,,,,,,,,,,,,,,,,,,,,,,,,,,,,,,,,,,main,None,None,1,1.498808199998166,696.9504813000021,None,None,1,,,,,,,,,,,,,,102,23,Female,2022-04-28_09h52.33.158,Main,2022.1.1,60.032153221492734,
negative,blue,2,None,k,,,,,,,,,0,206,206,206,,,,,,,,,,,,,,,,,,,,,,,,,,,,,,,,,,,,,,,main,None,None,1,1.498948600004951,699.449996000003,None,None,1,,,,,,,,,,,,,,102,23,Female,2022-04-28_09h52.33.158,Main,2022.1.1,60.032153221492734,
negative,yellow,2,k,None,,,,,,,,,0,207,207,207,,,,,,,,,,,,,,,,,,,,,,,,,,,,,,,,,,,,,,,main,k,k,1,0.954308200001833,701.9509134000036,None,None,0,,,,,,,,,,,,,,102,23,Female,2022-04-28_09h52.33.158,Main,2022.1.1,60.032153221492734,
positive,yellow,2,None,k,,,,,,,,,0,208,208,208,,,,,,,,,,,,,,,,,,,,,,,,,,,,,,,,,,,,,,,main,None,None,1,1.509163599999738,703.9047836000027,None,None,1,,,,,,,,,,,,,,102,23,Female,2022-04-28_09h52.33.158,Main,2022.1.1,60.032153221492734,
negative,yellow,1,k,None,,,,,,,,,0,209,209,209,,,,,,,,,,,,,,,,,,,,,,,,,,,,,,,,,,,,,,,main,k,k,1,0.9367627999963588,706.4173515000002,None,None,0,,,,,,,,,,,,,,102,23,Female,2022-04-28_09h52.33.158,Main,2022.1.1,60.032153221492734,
negative,red,2,None,None,,,,,,,,,0,210,210,210,,,,,,,,,,,,,,,,,,,,,,,,,,,,,,,,,,,,,,,main,None,None,1,1.4935704000017722,708.3531125000009,None,None,1,,,,,,,,,,,,,,102,23,Female,2022-04-28_09h52.33.158,Main,2022.1.1,60.032153221492734,
negative,blue,1,None,k,,,,,,,,,0,211,211,211,,,,,,,,,,,,,,,,,,,,,,,,,,,,,,,,,,,,,,,main,None,None,1,1.498774300001969,710.8502069000024,None,None,1,,,,,,,,,,,,,,102,23,Female,2022-04-28_09h52.33.158,Main,2022.1.1,60.032153221492734,
negative,yellow,1,k,None,,,,,,,,,0,212,212,212,,,,,,,,,,,,,,,,,,,,,,,,,,,,,,,,,,,,,,,main,k,k,1,0.6034547999952338,713.3504041000051,None,None,0,,,,,,,,,,,,,,102,23,Female,2022-04-28_09h52.33.158,Main,2022.1.1,60.032153221492734,
positive,blue,1,k,None,,,,,,,,,0,213,213,213,,,,,,,,,,,,,,,,,,,,,,,,,,,,,,,,,,,,,,,main,k,k,1,1.0655053000009502,714.9535433000055,None,None,0,,,,,,,,,,,,,,102,23,Female,2022-04-28_09h52.33.158,Main,2022.1.1,60.032153221492734,
positive,blue,1,k,None,,,,,,,,,0,214,214,214,,,,,,,,,,,,,,,,,,,,,,,,,,,,,,,,,,,,,,,main,k,k,1,0.715420799999265,717.0203557000059,None,None,0,,,,,,,,,,,,,,102,23,Female,2022-04-28_09h52.33.158,Main,2022.1.1,60.032153221492734,
positive,yellow,1,None,k,,,,,,,,,0,215,215,215,,,,,,,,,,,,,,,,,,,,,,,,,,,,,,,,,,,,,,,main,None,None,1,0.7843226999975741,718.7370962000059,None,None,1,,,,,,,,,,,,,,102,23,Female,2022-04-28_09h52.33.158,Main,2022.1.1,60.032153221492734,
positive,yellow,1,None,k,,,,,,,,,0,216,216,216,,,,,,,,,,,,,,,,,,,,,,,,,,,,,,,,,,,,,,,main,None,k,0,1.508074099998339,720.5229607000001,None,None,1,,,,,,,,,,,,,,102,23,Female,2022-04-28_09h52.33.158,Main,2022.1.1,60.032153221492734,
positive,yellow,2,None,k,,,,,,,,,0,217,217,217,,,,,,,,,,,,,,,,,,,,,,,,,,,,,,,,,,,,,,,main,None,None,1,1.5022892999986652,724.0488010000045,None,None,1,,,,,,,,,,,,,,102,23,Female,2022-04-28_09h52.33.158,Main,2022.1.1,60.032153221492734,
negative,blue,1,None,k,,,,,,,,,0,218,218,218,,,,,,,,,,,,,,,,,,,,,,,,,,,,,,,,,,,,,,,main,None,None,1,1.4982657000000472,726.551406000006,None,None,1,,,,,,,,,,,,,,102,23,Female,2022-04-28_09h52.33.158,Main,2022.1.1,60.032153221492734,
positive,red,2,None,None,,,,,,,,,0,219,219,219,,,,,,,,,,,,,,,,,,,,,,,,,,,,,,,,,,,,,,,main,None,None,1,1.4985087000022759,729.0507488000003,None,None,1,,,,,,,,,,,,,,102,23,Female,2022-04-28_09h52.33.158,Main,2022.1.1,60.032153221492734,
positive,yellow,1,None,k,,,,,,,,,0,220,220,220,,,,,,,,,,,,,,,,,,,,,,,,,,,,,,,,,,,,,,,main,None,None,1,1.4988968999969075,731.5510926000061,None,None,1,,,,,,,,,,,,,,102,23,Female,2022-04-28_09h52.33.158,Main,2022.1.1,60.032153221492734,
positive,blue,1,k,None,,,,,,,,,0,221,221,221,,,,,,,,,,,,,,,,,,,,,,,,,,,,,,,,,,,,,,,main,k,k,1,1.1022231000024476,734.0514050999991,None,None,0,,,,,,,,,,,,,,102,23,Female,2022-04-28_09h52.33.158,Main,2022.1.1,60.032153221492734,
positive,yellow,2,None,k,,,,,,,,,0,222,222,222,,,,,,,,,,,,,,,,,,,,,,,,,,,,,,,,,,,,,,,main,None,None,1,1.4949687999978778,736.1539294000031,None,None,1,,,,,,,,,,,,,,102,23,Female,2022-04-28_09h52.33.158,Main,2022.1.1,60.032153221492734,
negative,yellow,1,k,None,,,,,,,,,0,223,223,223,,,,,,,,,,,,,,,,,,,,,,,,,,,,,,,,,,,,,,,main,k,k,1,0.8532148000012967,738.6515597000034,None,None,0,,,,,,,,,,,,,,102,23,Female,2022-04-28_09h52.33.158,Main,2022.1.1,60.032153221492734,
positive,yellow,2,None,k,,,,,,,,,0,224,224,224,,,,,,,,,,,,,,,,,,,,,,,,,,,,,,,,,,,,,,,main,None,None,1,1.4940921000015805,740.5038615000012,None,None,1,,,,,,,,,,,,,,102,23,Female,2022-04-28_09h52.33.158,Main,2022.1.1,60.032153221492734,
negative,yellow,2,k,None,,,,,,,,,0,225,225,225,,,,,,,,,,,,,,,,,,,,,,,,,,,,,,,,,,,,,,,main,k,k,1,1.0199769000028027,743.0018115000057,None,None,0,,,,,,,,,,,,,,102,23,Female,2022-04-28_09h52.33.158,Main,2022.1.1,60.032153221492734,
negative,blue,2,None,k,,,,,,,,,0,226,226,226,,,,,,,,,,,,,,,,,,,,,,,,,,,,,,,,,,,,,,,main,None,None,1,1.493565500000841,745.0210617000048,None,None,1,,,,,,,,,,,,,,102,23,Female,2022-04-28_09h52.33.158,Main,2022.1.1,60.032153221492734,
positive,red,2,None,None,,,,,,,,,0,227,227,227,,,,,,,,,,,,,,,,,,,,,,,,,,,,,,,,,,,,,,,main,None,None,1,1.4988282000049367,747.5178682000042,None,None,1,,,,,,,,,,,,,,102,23,Female,2022-04-28_09h52.33.158,Main,2022.1.1,60.032153221492734,
positive,blue,2,k,None,,,,,,,,,0,228,228,228,,,,,,,,,,,,,,,,,,,,,,,,,,,,,,,,,,,,,,,main,k,k,1,0.9202416999978595,750.0183412000042,None,None,0,,,,,,,,,,,,,,102,23,Female,2022-04-28_09h52.33.158,Main,2022.1.1,60.032153221492734,
negative,blue,1,None,k,,,,,,,,,0,229,229,229,,,,,,,,,,,,,,,,,,,,,,,,,,,,,,,,,,,,,,,main,None,None,1,1.493394700002682,751.9378966000004,None,None,1,,,,,,,,,,,,,,102,23,Female,2022-04-28_09h52.33.158,Main,2022.1.1,60.032153221492734,
positive,yellow,1,None,k,,,,,,,,,0,230,230,230,,,,,,,,,,,,,,,,,,,,,,,,,,,,,,,,,,,,,,,main,None,None,1,1.4992605000006733,754.4346284000057,None,None,1,,,,,,,,,,,,,,102,23,Female,2022-04-28_09h52.33.158,Main,2022.1.1,60.032153221492734,
negative,blue,2,None,k,,,,,,,,,0,231,231,231,,,,,,,,,,,,,,,,,,,,,,,,,,,,,,,,,,,,,,,main,None,None,1,1.4982549999986077,756.9354807000054,None,None,1,,,,,,,,,,,,,,102,23,Female,2022-04-28_09h52.33.158,Main,2022.1.1,60.032153221492734,
negative,red,1,None,None,,,,,,,,,0,232,232,232,,,,,,,,,,,,,,,,,,,,,,,,,,,,,,,,,,,,,,,main,None,None,1,1.4987206000005244,759.4349769000037,None,None,1,,,,,,,,,,,,,,102,23,Female,2022-04-28_09h52.33.158,Main,2022.1.1,60.032153221492734,
positive,blue,2,k,None,,,,,,,,,0,233,233,233,,,,,,,,,,,,,,,,,,,,,,,,,,,,,,,,,,,,,,,main,k,k,1,0.8176719999974011,761.9358307000002,None,None,0,,,,,,,,,,,,,,102,23,Female,2022-04-28_09h52.33.158,Main,2022.1.1,60.032153221492734,
negative,yellow,1,k,None,,,,,,,,,0,234,234,234,,,,,,,,,,,,,,,,,,,,,,,,,,,,,,,,,,,,,,,main,k,k,1,1.0179473999960464,763.7542227000013,None,None,0,,,,,,,,,,,,,,102,23,Female,2022-04-28_09h52.33.158,Main,2022.1.1,60.032153221492734,
negative,yellow,2,k,None,,,,,,,,,0,235,235,235,,,,,,,,,,,,,,,,,,,,,,,,,,,,,,,,,,,,,,,main,k,k,1,0.9966510000012931,765.7710231000019,None,None,0,,,,,,,,,,,,,,102,23,Female,2022-04-28_09h52.33.158,Main,2022.1.1,60.032153221492734,
positive,red,1,None,None,,,,,,,,,0,236,236,236,,,,,,,,,,,,,,,,,,,,,,,,,,,,,,,,,,,,,,,main,None,None,1,1.4954078999944613,767.7799128000042,None,None,1,,,,,,,,,,,,,,102,23,Female,2022-04-28_09h52.33.158,Main,2022.1.1,60.032153221492734,
negative,red,2,None,None,,,,,,,,,0,237,237,237,,,,,,,,,,,,,,,,,,,,,,,,,,,,,,,,,,,,,,,main,None,None,1,1.498733499996888,770.2682631000062,None,None,1,,,,,,,,,,,,,,102,23,Female,2022-04-28_09h52.33.158,Main,2022.1.1,60.032153221492734,
negative,blue,1,None,k,,,,,,,,,0,238,238,238,,,,,,,,,,,,,,,,,,,,,,,,,,,,,,,,,,,,,,,main,None,None,1,1.4983945999993011,772.7687871000016,None,None,1,,,,,,,,,,,,,,102,23,Female,2022-04-28_09h52.33.158,Main,2022.1.1,60.032153221492734,
positive,blue,1,k,None,,,,,,,,,0,239,239,239,,,,,,,,,,,,,,,,,,,,,,,,,,,,,,,,,,,,,,,main,k,k,1,0.6958540999985416,775.2687093999994,None,None,0,,,,,,,,,,,,,,102,23,Female,2022-04-28_09h52.33.158,Main,2022.1.1,60.032153221492734,
,,,,,,,,,,,,,,,,,,,,,,,,,,,,,,,,,,,,,,,,,,,,,,,,,,,,,,,,,,,,,,,,,,,,,,,,,,,776.9669874000028,None,,,,,,,,
