distractor,target,set,ans1,ans2,rep_loop4.thisRepN,rep_loop4.thisTrialN,rep_loop4.thisN,rep_loop4.thisIndex,st2_prac_loop.thisRepN,st2_prac_loop.thisTrialN,st2_prac_loop.thisN,st2_prac_loop.thisIndex,st2_main_loop.thisRepN,st2_main_loop.thisTrialN,st2_main_loop.thisN,st2_main_loop.thisIndex,image_4.started,image_4.stopped,mouse_7.x,mouse_7.y,mouse_7.leftButton,mouse_7.midButton,mouse_7.rightButton,sound_2.started,sound_2.stopped,key_resp_3.keys,mouse_5.x,mouse_5.y,mouse_5.leftButton,mouse_5.midButton,mouse_5.rightButton,mouse_5.started,mouse_5.stopped,yes_text2.started,yes_text2.stopped,no_text2.started,no_text2.stopped,mouse_3.x,mouse_3.y,mouse_3.leftButton,mouse_3.midButton,mouse_3.rightButton,mouse_3.started,mouse_3.stopped,st_prac_back.started,st_prac_back.stopped,st_prac_text.started,st_prac_text.stopped,st_fix_back.started,st_fix_back.stopped,st_fix_2.started,st_fix_2.stopped,main_prac,st_ans,st_res,st_corr,st_rt,st_back.started,st_back.stopped,st2_resp.keys,st2_resp.corr,st_main_back.started,st_main_back.stopped,st_main_text.started,st_main_text.stopped,mouse_4.x,mouse_4.y,mouse_4.leftButton,mouse_4.midButton,mouse_4.rightButton,mouse_4.started,mouse_4.stopped,text_2.started,text_2.stopped,id*,age*,gender*,date,expName,psychopyVersion,frameRate,
,,,,,,,,,,,,,,,,,34.43947830000252,None,0.3351852,-0.23425926,0,0,0,,,,,,,,,,,,,,,,,,,,,,,,,,,,,,,,,,,,,,,,,,,,,,,,,,,,103,22,Female,2022-04-28_15h50.44.750,Parachute,2022.1.1,60.0592304148206,
negative,yellow,1,k,None,,,,,0,0,0,0,,,,,,,,,,,,38.76697123999329,None,None,0.52592593,-0.31574073,0,0,0,1.011232499993639,None,112.87044959999912,None,112.87044959999912,None,-0.085185185,-0.09166667,0,0,0,0.013273339995066635,None,114.30418200000713,None,114.30418200000713,None,116.3168924000056,None,116.3168924000056,None,prac,None,None,1,1.512208100000862,118.3344356000016,None,None,1,,,,,,,,,,,,,,103,22,Female,2022-04-28_15h50.44.750,Parachute,2022.1.1,60.0592304148206,
positive,red,2,None,None,,,,,0,1,1,1,,,,,,,,,,,,,,,,,,,,,,,,,,,,,,,,,,,,,,,,,prac,None,None,1,1.4979163000098197,120.82194179999351,None,None,1,,,,,,,,,,,,,,103,22,Female,2022-04-28_15h50.44.750,Parachute,2022.1.1,60.0592304148206,
negative,blue,2,None,k,,,,,0,2,2,2,,,,,,,,,,,,,,,,,,,,,,,,,,,,,,,,,,,,,,,,,prac,k,k,1,1.2539550000074087,123.32100140000694,None,None,0,,,,,,,,,,,,,,103,22,Female,2022-04-28_15h50.44.750,Parachute,2022.1.1,60.0592304148206,
positive,yellow,1,None,k,,,,,0,3,3,3,,,,,,,,,,,,,,,,,,,,,,,,,,,,,,,,,,,,,,,,,prac,k,k,1,1.2401562000013655,125.57404849999875,None,None,0,,,,,,,,,,,,,,103,22,Female,2022-04-28_15h50.44.750,Parachute,2022.1.1,60.0592304148206,
negative,blue,2,None,k,,,,,0,4,4,4,,,,,,,,,,,,,,,,,,,,,,,,,,,,,,,,,,,,,,,,,prac,k,k,1,1.07316479999281,127.81840550000197,None,None,0,,,,,,,,,,,,,,103,22,Female,2022-04-28_15h50.44.750,Parachute,2022.1.1,60.0592304148206,
negative,blue,1,None,k,,,,,0,5,5,5,,,,,,,,,,,,,,,,,,,,,,,,,,,,,,,,,,,,,,,,,prac,k,k,1,1.2485101999918697,129.89135570000508,None,None,0,,,,,,,,,,,,,,103,22,Female,2022-04-28_15h50.44.750,Parachute,2022.1.1,60.0592304148206,
negative,yellow,2,k,None,,,,,0,6,6,6,,,,,,,,,,,,,,,,,,,,,,,,,,,,,,,,,,,,,,,,,prac,None,None,1,1.4936398999998346,132.141558000003,None,None,1,,,,,,,,,,,,,,103,22,Female,2022-04-28_15h50.44.750,Parachute,2022.1.1,60.0592304148206,
negative,red,1,None,None,,,,,0,7,7,7,,,,,,,,,,,,,,,,,,,,,,,,,,,,,,,,,,,,,,,,,prac,None,None,1,1.4998464999953285,134.63672500000393,None,None,1,,,,,,,,,,,,,,103,22,Female,2022-04-28_15h50.44.750,Parachute,2022.1.1,60.0592304148206,
positive,yellow,2,None,k,,,,,0,8,8,8,,,,,,,,,,,,,,,,,,,,,,,,,,,,,,,,,,,,,,,,,prac,k,k,1,1.1365033999900334,137.13802600000054,None,None,0,,,,,,,,,,,,,,103,22,Female,2022-04-28_15h50.44.750,Parachute,2022.1.1,60.0592304148206,
negative,yellow,1,k,None,,,,,0,9,9,9,,,,,,,,,,,,,,,,,,,,,,,,,,,,,,,,,,,,,,,,,prac,None,None,1,1.4940127000008943,139.27390660000674,None,None,1,,,,,,,,,,,,,,103,22,Female,2022-04-28_15h50.44.750,Parachute,2022.1.1,60.0592304148206,
positive,yellow,2,None,k,,,,,0,10,10,10,,,,,,,,,,,,,,,,,,,,,,,,,,,,,,,,,,,,,,,,,prac,k,k,1,1.0777647999930196,141.77208389999578,None,None,0,,,,,,,,,,,,,,103,22,Female,2022-04-28_15h50.44.750,Parachute,2022.1.1,60.0592304148206,
negative,yellow,2,k,None,,,,,0,11,11,11,,,,,,,,,,,,,,,,,,,,,,,,,,,,,,,,,,,,,,,,,prac,None,None,1,1.5021702999947593,143.8520417999971,None,None,1,,,,,,,,,,,,,,103,22,Female,2022-04-28_15h50.44.750,Parachute,2022.1.1,60.0592304148206,
negative,red,2,None,None,,,,,0,12,12,12,,,,,,,,,,,,,,,,,,,,,,,,,,,,,,,,,,,,,,,,,prac,None,None,1,1.498723800003063,146.3541256000026,None,None,1,,,,,,,,,,,,,,103,22,Female,2022-04-28_15h50.44.750,Parachute,2022.1.1,60.0592304148206,
positive,red,1,None,None,,,,,0,13,13,13,,,,,,,,,,,,,,,,,,,,,,,,,,,,,,,,,,,,,,,,,prac,None,None,1,1.498884000000544,148.86000689999491,None,None,1,,,,,,,,,,,,,,103,22,Female,2022-04-28_15h50.44.750,Parachute,2022.1.1,60.0592304148206,
positive,blue,2,k,None,,,,,0,14,14,14,,,,,,,,,,,,,,,,,,,,,,,,,,,,,,,,,,,,,,,,,prac,None,None,1,1.4984308999992209,151.35453199999756,None,None,1,,,,,,,,,,,,,,103,22,Female,2022-04-28_15h50.44.750,Parachute,2022.1.1,60.0592304148206,
positive,blue,1,k,None,,,,,0,15,15,15,,,,,,,,,,,,,,,,,,,,,,,,,,,,,,,,,,,,,,,,,prac,None,None,1,1.4985415999981342,153.85433040000498,None,None,1,,,,,,,,,,,,,,103,22,Female,2022-04-28_15h50.44.750,Parachute,2022.1.1,60.0592304148206,
negative,blue,1,None,k,,,,,0,16,16,16,,,,,,,,,,,,,,,,,,,,,,,,,,,,,,,,,,,,,,,,,prac,k,k,1,0.9712327000015648,156.35366249999788,None,None,0,,,,,,,,,,,,,,103,22,Female,2022-04-28_15h50.44.750,Parachute,2022.1.1,60.0592304148206,
positive,blue,2,k,None,,,,,0,17,17,17,,,,,,,,,,,,,,,,,,,,,,,,,,,,,,,,,,,,,,,,,prac,None,None,1,1.4935278999910224,158.32454430000507,None,None,1,,,,,,,,,,,,,,103,22,Female,2022-04-28_15h50.44.750,Parachute,2022.1.1,60.0592304148206,
positive,blue,1,k,None,,,,,0,18,18,18,,,,,,,,,,,,,,,,,,,,,,,,,,,,,,,,,,,,,,,,,prac,None,None,1,1.4981594000128098,160.82183250000526,None,None,1,,,,,,,,,,,,,,103,22,Female,2022-04-28_15h50.44.750,Parachute,2022.1.1,60.0592304148206,
positive,yellow,1,None,k,,,,,0,19,19,19,,,,,,,,,,,,,,,,,,,,,,,,,,,,,,,,,,,,,,,,,prac,k,k,1,0.8968698999960907,163.32123489999503,None,None,0,,,,,,,,,,,,,,103,22,Female,2022-04-28_15h50.44.750,Parachute,2022.1.1,60.0592304148206,
negative,yellow,1,k,None,,,,,1,0,20,0,,,,,,,,,,,,,,,,,,,,,,,,,,,,,,,,,,,,,,,,,prac,None,None,1,1.500559299995075,165.21878480000305,None,None,1,,,,,,,,,,,,,,103,22,Female,2022-04-28_15h50.44.750,Parachute,2022.1.1,60.0592304148206,
positive,red,2,None,None,,,,,1,1,21,1,,,,,,,,,,,,,,,,,,,,,,,,,,,,,,,,,,,,,,,,,prac,None,None,1,1.498223100003088,167.72144389999448,None,None,1,,,,,,,,,,,,,,103,22,Female,2022-04-28_15h50.44.750,Parachute,2022.1.1,60.0592304148206,
negative,blue,2,None,k,,,,,1,2,22,2,,,,,,,,,,,,,,,,,,,,,,,,,,,,,,,,,,,,,,,,,prac,k,k,1,0.9876269000087632,170.2209290000028,None,None,0,,,,,,,,,,,,,,103,22,Female,2022-04-28_15h50.44.750,Parachute,2022.1.1,60.0592304148206,
positive,yellow,1,None,k,,,,,1,3,23,3,,,,,,,,,,,,,,,,,,,,,,,,,,,,,,,,,,,,,,,,,prac,k,k,1,1.3324507000070298,172.20815600000788,None,None,0,,,,,,,,,,,,,,103,22,Female,2022-04-28_15h50.44.750,Parachute,2022.1.1,60.0592304148206,
negative,blue,2,None,k,,,,,1,4,24,4,,,,,,,,,,,,,,,,,,,,,,,,,,,,,,,,,,,,,,,,,prac,k,k,1,1.2156369000003906,174.5417490999971,None,None,0,,,,,,,,,,,,,,103,22,Female,2022-04-28_15h50.44.750,Parachute,2022.1.1,60.0592304148206,
negative,blue,1,None,k,,,,,1,5,25,5,,,,,,,,,,,,,,,,,,,,,,,,,,,,,,,,,,,,,,,,,prac,k,k,1,1.5146688999957405,176.75916830000642,None,None,0,,,,,,,,,,,,,,103,22,Female,2022-04-28_15h50.44.750,Parachute,2022.1.1,60.0592304148206,
negative,yellow,2,k,None,,,,,1,6,26,6,,,,,,,,,,,,,,,,,,,,,,,,,,,,,,,,,,,,,,,,,prac,None,None,1,1.502334399992833,180.31923480000114,None,None,1,,,,,,,,,,,,,,103,22,Female,2022-04-28_15h50.44.750,Parachute,2022.1.1,60.0592304148206,
negative,red,1,None,None,,,,,1,7,27,7,,,,,,,,,,,,,,,,,,,,,,,,,,,,,,,,,,,,,,,,,prac,None,None,1,1.4978624999930616,182.82298280000396,None,None,1,,,,,,,,,,,,,,103,22,Female,2022-04-28_15h50.44.750,Parachute,2022.1.1,60.0592304148206,
positive,yellow,2,None,k,,,,,1,8,28,8,,,,,,,,,,,,,,,,,,,,,,,,,,,,,,,,,,,,,,,,,prac,k,k,1,0.8871454000036465,185.32148650000454,None,None,0,,,,,,,,,,,,,,103,22,Female,2022-04-28_15h50.44.750,Parachute,2022.1.1,60.0592304148206,
negative,yellow,1,k,None,,,,,1,9,29,9,,,,,,,,,,,,,,,,,,,,,,,,,,,,,,,,,,,,,,,,,prac,None,None,1,1.4929239000048256,187.20841039999505,None,None,1,,,,,,,,,,,,,,103,22,Female,2022-04-28_15h50.44.750,Parachute,2022.1.1,60.0592304148206,
positive,yellow,2,None,k,,,,,1,10,30,10,,,,,,,,,,,,,,,,,,,,,,,,,,,,,,,,,,,,,,,,,prac,k,k,1,0.787537500000326,189.70452749999822,None,None,0,,,,,,,,,,,,,,103,22,Female,2022-04-28_15h50.44.750,Parachute,2022.1.1,60.0592304148206,
negative,yellow,2,k,None,,,,,1,11,31,11,,,,,,,,,,,,,,,,,,,,,,,,,,,,,,,,,,,,,,,,,prac,None,None,1,1.493139099999098,191.49263269999938,None,None,1,,,,,,,,,,,,,,103,22,Female,2022-04-28_15h50.44.750,Parachute,2022.1.1,60.0592304148206,
negative,red,2,None,None,,,,,1,12,32,12,,,,,,,,,,,,,,,,,,,,,,,,,,,,,,,,,,,,,,,,,prac,None,None,1,1.4989394000003813,193.9887141999934,None,None,1,,,,,,,,,,,,,,103,22,Female,2022-04-28_15h50.44.750,Parachute,2022.1.1,60.0592304148206,
positive,red,1,None,None,,,,,1,13,33,13,,,,,,,,,,,,,,,,,,,,,,,,,,,,,,,,,,,,,,,,,prac,None,None,1,1.498969300009776,196.48946460000298,None,None,1,,,,,,,,,,,,,,103,22,Female,2022-04-28_15h50.44.750,Parachute,2022.1.1,60.0592304148206,
positive,blue,2,k,None,,,,,1,14,34,14,,,,,,,,,,,,,,,,,,,,,,,,,,,,,,,,,,,,,,,,,prac,None,None,1,1.4985427000065101,198.98973270000715,None,None,1,,,,,,,,,,,,,,103,22,Female,2022-04-28_15h50.44.750,Parachute,2022.1.1,60.0592304148206,
positive,blue,1,k,None,,,,,1,15,35,15,,,,,,,,,,,,,,,,,,,,,,,,,,,,,,,,,,,,,,,,,prac,None,None,1,1.4986342000047443,201.48992000000726,None,None,1,,,,,,,,,,,,,,103,22,Female,2022-04-28_15h50.44.750,Parachute,2022.1.1,60.0592304148206,
negative,blue,1,None,k,,,,,1,16,36,16,,,,,,,,,,,,,,,,,,,,,,,,,,,,,,,,,,,,,,,,,prac,k,k,1,1.0375532000034582,203.98943149999832,None,None,0,,,,,,,,,,,,,,103,22,Female,2022-04-28_15h50.44.750,Parachute,2022.1.1,60.0592304148206,
positive,blue,2,k,None,,,,,1,17,37,17,,,,,,,,,,,,,,,,,,,,,,,,,,,,,,,,,,,,,,,,,prac,None,None,1,1.4940693999960786,206.0250789999991,None,None,1,,,,,,,,,,,,,,103,22,Female,2022-04-28_15h50.44.750,Parachute,2022.1.1,60.0592304148206,
positive,blue,1,k,None,,,,,1,18,38,18,,,,,,,,,,,,,,,,,,,,,,,,,,,,,,,,,,,,,,,,,prac,None,None,1,1.4976391999953194,208.52297550000367,None,None,1,,,,,,,,,,,,,,103,22,Female,2022-04-28_15h50.44.750,Parachute,2022.1.1,60.0592304148206,
positive,yellow,1,None,k,,,,,1,19,39,19,,,,,,,,,,,,,,,,,,,,,,,,,,,,,,,,,,,,,,,,,prac,k,k,1,0.9708566000044812,211.0221234000055,None,None,0,,,,,,,,,,,,,,103,22,Female,2022-04-28_15h50.44.750,Parachute,2022.1.1,60.0592304148206,
,,,,,,,,,,,,,,,,,,,,,,,,,,,,,,,,,,,,,,,,,,,,,,,,,,,,,,,,,,,,,,213.01243400000385,None,213.01243400000385,None,0.17037037,-0.06759259,0,0,0,0.012347740004770458,None,,,103,22,Female,2022-04-28_15h50.44.750,Parachute,2022.1.1,60.0592304148206,
negative,yellow,2,k,None,,,,,,,,,0,0,0,0,,,,,,,,,,,,,,,,,,,,,,,,,,,,,,,,,221.2211513999937,None,221.2211513999937,None,main,None,None,1,1.509497699997155,223.25863379999646,None,None,1,,,,,,,,,,,,,,103,22,Female,2022-04-28_15h50.44.750,Parachute,2022.1.1,60.0592304148206,
positive,red,1,None,None,,,,,,,,,0,1,1,1,,,,,,,,,,,,,,,,,,,,,,,,,,,,,,,,,,,,,main,None,None,1,1.4986236999975517,225.7728339000023,None,None,1,,,,,,,,,,,,,,103,22,Female,2022-04-28_15h50.44.750,Parachute,2022.1.1,60.0592304148206,
positive,blue,2,k,None,,,,,,,,,0,2,2,2,,,,,,,,,,,,,,,,,,,,,,,,,,,,,,,,,,,,,main,None,None,1,1.4982015999994474,228.27375979999488,None,None,1,,,,,,,,,,,,,,103,22,Female,2022-04-28_15h50.44.750,Parachute,2022.1.1,60.0592304148206,
positive,blue,1,k,None,,,,,,,,,0,3,3,3,,,,,,,,,,,,,,,,,,,,,,,,,,,,,,,,,,,,,main,None,None,1,1.4989341000036802,230.77272249999805,None,None,1,,,,,,,,,,,,,,103,22,Female,2022-04-28_15h50.44.750,Parachute,2022.1.1,60.0592304148206,
negative,yellow,2,k,None,,,,,,,,,0,4,4,4,,,,,,,,,,,,,,,,,,,,,,,,,,,,,,,,,,,,,main,None,None,1,1.4982020000024932,233.27304650000588,None,None,1,,,,,,,,,,,,,,103,22,Female,2022-04-28_15h50.44.750,Parachute,2022.1.1,60.0592304148206,
positive,yellow,2,None,k,,,,,,,,,0,5,5,5,,,,,,,,,,,,,,,,,,,,,,,,,,,,,,,,,,,,,main,k,k,1,1.1178825999959372,235.77258920000168,None,None,0,,,,,,,,,,,,,,103,22,Female,2022-04-28_15h50.44.750,Parachute,2022.1.1,60.0592304148206,
negative,blue,2,None,k,,,,,,,,,0,6,6,6,,,,,,,,,,,,,,,,,,,,,,,,,,,,,,,,,,,,,main,k,k,1,1.0347162000107346,237.8920466999989,None,None,0,,,,,,,,,,,,,,103,22,Female,2022-04-28_15h50.44.750,Parachute,2022.1.1,60.0592304148206,
positive,red,2,None,None,,,,,,,,,0,7,7,7,,,,,,,,,,,,,,,,,,,,,,,,,,,,,,,,,,,,,main,None,None,1,1.4932629999966593,239.92558629999985,None,None,1,,,,,,,,,,,,,,103,22,Female,2022-04-28_15h50.44.750,Parachute,2022.1.1,60.0592304148206,
positive,yellow,1,None,k,,,,,,,,,0,8,8,8,,,,,,,,,,,,,,,,,,,,,,,,,,,,,,,,,,,,,main,k,k,1,0.771119600001839,242.42251289999695,None,None,0,,,,,,,,,,,,,,103,22,Female,2022-04-28_15h50.44.750,Parachute,2022.1.1,60.0592304148206,
negative,red,1,None,None,,,,,,,,,0,9,9,9,,,,,,,,,,,,,,,,,,,,,,,,,,,,,,,,,,,,,main,None,None,1,1.5099300000001676,244.193781199996,None,None,1,,,,,,,,,,,,,,103,22,Female,2022-04-28_15h50.44.750,Parachute,2022.1.1,60.0592304148206,
positive,yellow,1,None,k,,,,,,,,,0,10,10,10,,,,,,,,,,,,,,,,,,,,,,,,,,,,,,,,,,,,,main,k,k,1,0.860749899991788,246.70816330000525,None,None,0,,,,,,,,,,,,,,103,22,Female,2022-04-28_15h50.44.750,Parachute,2022.1.1,60.0592304148206,
negative,yellow,1,k,None,,,,,,,,,0,11,11,11,,,,,,,,,,,,,,,,,,,,,,,,,,,,,,,,,,,,,main,None,None,1,1.5006168999971123,248.57061019999674,None,None,1,,,,,,,,,,,,,,103,22,Female,2022-04-28_15h50.44.750,Parachute,2022.1.1,60.0592304148206,
negative,yellow,1,k,None,,,,,,,,,0,12,12,12,,,,,,,,,,,,,,,,,,,,,,,,,,,,,,,,,,,,,main,None,None,1,1.4974650000076508,251.07475230000273,None,None,1,,,,,,,,,,,,,,103,22,Female,2022-04-28_15h50.44.750,Parachute,2022.1.1,60.0592304148206,
negative,red,2,None,None,,,,,,,,,0,13,13,13,,,,,,,,,,,,,,,,,,,,,,,,,,,,,,,,,,,,,main,None,None,1,1.497766500004218,253.5742198999942,None,None,1,,,,,,,,,,,,,,103,22,Female,2022-04-28_15h50.44.750,Parachute,2022.1.1,60.0592304148206,
positive,yellow,2,None,k,,,,,,,,,0,14,14,14,,,,,,,,,,,,,,,,,,,,,,,,,,,,,,,,,,,,,main,k,k,1,1.1695016000012401,256.07435700000497,None,None,0,,,,,,,,,,,,,,103,22,Female,2022-04-28_15h50.44.750,Parachute,2022.1.1,60.0592304148206,
positive,blue,1,k,None,,,,,,,,,0,15,15,15,,,,,,,,,,,,,,,,,,,,,,,,,,,,,,,,,,,,,main,None,None,1,1.493544800003292,258.2426550999953,None,None,1,,,,,,,,,,,,,,103,22,Female,2022-04-28_15h50.44.750,Parachute,2022.1.1,60.0592304148206,
negative,blue,1,None,k,,,,,,,,,0,16,16,16,,,,,,,,,,,,,,,,,,,,,,,,,,,,,,,,,,,,,main,k,k,1,0.9369843000022229,260.7398849000019,None,None,0,,,,,,,,,,,,,,103,22,Female,2022-04-28_15h50.44.750,Parachute,2022.1.1,60.0592304148206,
positive,blue,2,k,None,,,,,,,,,0,17,17,17,,,,,,,,,,,,,,,,,,,,,,,,,,,,,,,,,,,,,main,None,None,1,1.4931065999990096,262.6764381999965,None,None,1,,,,,,,,,,,,,,103,22,Female,2022-04-28_15h50.44.750,Parachute,2022.1.1,60.0592304148206,
negative,blue,2,None,k,,,,,,,,,0,18,18,18,,,,,,,,,,,,,,,,,,,,,,,,,,,,,,,,,,,,,main,k,k,1,1.4290811000100803,265.1728387000039,None,None,0,,,,,,,,,,,,,,103,22,Female,2022-04-28_15h50.44.750,Parachute,2022.1.1,60.0592304148206,
negative,blue,1,None,k,,,,,,,,,0,19,19,19,,,,,,,,,,,,,,,,,,,,,,,,,,,,,,,,,,,,,main,k,k,1,0.9745929000055185,267.60412469999574,None,None,0,,,,,,,,,,,,,,103,22,Female,2022-04-28_15h50.44.750,Parachute,2022.1.1,60.0592304148206,
negative,blue,1,None,k,,,,,,,,,0,20,20,20,,,,,,,,,,,,,,,,,,,,,,,,,,,,,,,,,,,,,main,k,k,1,0.7325046000041766,269.5773373999982,None,None,0,,,,,,,,,,,,,,103,22,Female,2022-04-28_15h50.44.750,Parachute,2022.1.1,60.0592304148206,
negative,blue,2,None,k,,,,,,,,,0,21,21,21,,,,,,,,,,,,,,,,,,,,,,,,,,,,,,,,,,,,,main,k,k,1,0.7809813000058057,271.31113390000246,None,None,0,,,,,,,,,,,,,,103,22,Female,2022-04-28_15h50.44.750,Parachute,2022.1.1,60.0592304148206,
negative,red,1,None,None,,,,,,,,,0,22,22,22,,,,,,,,,,,,,,,,,,,,,,,,,,,,,,,,,,,,,main,None,None,1,1.4932223999931011,273.0943361999962,None,None,1,,,,,,,,,,,,,,103,22,Female,2022-04-28_15h50.44.750,Parachute,2022.1.1,60.0592304148206,
positive,red,2,None,None,,,,,,,,,0,23,23,23,,,,,,,,,,,,,,,,,,,,,,,,,,,,,,,,,,,,,main,None,None,1,1.4985518000030424,275.59052040000097,None,None,1,,,,,,,,,,,,,,103,22,Female,2022-04-28_15h50.44.750,Parachute,2022.1.1,60.0592304148206,
negative,red,2,None,None,,,,,,,,,0,24,24,24,,,,,,,,,,,,,,,,,,,,,,,,,,,,,,,,,,,,,main,None,None,1,1.4987512000079732,278.09000399999786,None,None,1,,,,,,,,,,,,,,103,22,Female,2022-04-28_15h50.44.750,Parachute,2022.1.1,60.0592304148206,
positive,blue,2,k,None,,,,,,,,,0,25,25,25,,,,,,,,,,,,,,,,,,,,,,,,,,,,,,,,,,,,,main,None,None,1,1.4989884999959031,280.5904101000051,None,None,1,,,,,,,,,,,,,,103,22,Female,2022-04-28_15h50.44.750,Parachute,2022.1.1,60.0592304148206,
negative,yellow,1,k,None,,,,,,,,,0,26,26,26,,,,,,,,,,,,,,,,,,,,,,,,,,,,,,,,,,,,,main,None,None,1,1.498254200007068,283.090403299997,None,None,1,,,,,,,,,,,,,,103,22,Female,2022-04-28_15h50.44.750,Parachute,2022.1.1,60.0592304148206,
positive,blue,2,k,None,,,,,,,,,0,27,27,27,,,,,,,,,,,,,,,,,,,,,,,,,,,,,,,,,,,,,main,None,None,1,1.498578600003384,285.5900160000019,None,None,1,,,,,,,,,,,,,,103,22,Female,2022-04-28_15h50.44.750,Parachute,2022.1.1,60.0592304148206,
negative,blue,2,None,k,,,,,,,,,0,28,28,28,,,,,,,,,,,,,,,,,,,,,,,,,,,,,,,,,,,,,main,k,k,1,0.9542875000042841,288.0902689000068,None,None,0,,,,,,,,,,,,,,103,22,Female,2022-04-28_15h50.44.750,Parachute,2022.1.1,60.0592304148206,
positive,red,1,None,None,,,,,,,,,0,29,29,29,,,,,,,,,,,,,,,,,,,,,,,,,,,,,,,,,,,,,main,None,None,1,1.4933332000073278,290.0431749999989,None,None,1,,,,,,,,,,,,,,103,22,Female,2022-04-28_15h50.44.750,Parachute,2022.1.1,60.0592304148206,
positive,blue,1,k,None,,,,,,,,,0,30,30,30,,,,,,,,,,,,,,,,,,,,,,,,,,,,,,,,,,,,,main,None,None,1,1.4989390000118874,292.5404576000001,None,None,1,,,,,,,,,,,,,,103,22,Female,2022-04-28_15h50.44.750,Parachute,2022.1.1,60.0592304148206,
positive,yellow,1,None,k,,,,,,,,,0,31,31,31,,,,,,,,,,,,,,,,,,,,,,,,,,,,,,,,,,,,,main,k,k,1,0.7040598000021419,295.04093440000725,None,None,0,,,,,,,,,,,,,,103,22,Female,2022-04-28_15h50.44.750,Parachute,2022.1.1,60.0592304148206,
negative,yellow,2,k,None,,,,,,,,,0,32,32,32,,,,,,,,,,,,,,,,,,,,,,,,,,,,,,,,,,,,,main,None,None,1,1.4932430000044405,296.74388870000257,None,None,1,,,,,,,,,,,,,,103,22,Female,2022-04-28_15h50.44.750,Parachute,2022.1.1,60.0592304148206,
negative,blue,1,None,k,,,,,,,,,0,33,33,33,,,,,,,,,,,,,,,,,,,,,,,,,,,,,,,,,,,,,main,k,k,1,0.9043778000050224,299.24057720000565,None,None,0,,,,,,,,,,,,,,103,22,Female,2022-04-28_15h50.44.750,Parachute,2022.1.1,60.0592304148206,
positive,blue,1,k,None,,,,,,,,,0,34,34,34,,,,,,,,,,,,,,,,,,,,,,,,,,,,,,,,,,,,,main,None,None,1,1.4930248000018764,301.1434057000006,None,None,1,,,,,,,,,,,,,,103,22,Female,2022-04-28_15h50.44.750,Parachute,2022.1.1,60.0592304148206,
negative,yellow,1,k,None,,,,,,,,,0,35,35,35,,,,,,,,,,,,,,,,,,,,,,,,,,,,,,,,,,,,,main,None,None,1,1.4986432000005152,303.64052329999686,None,None,1,,,,,,,,,,,,,,103,22,Female,2022-04-28_15h50.44.750,Parachute,2022.1.1,60.0592304148206,
positive,yellow,2,None,k,,,,,,,,,0,36,36,36,,,,,,,,,,,,,,,,,,,,,,,,,,,,,,,,,,,,,main,k,k,1,0.770834199996898,306.14083720000053,None,None,0,,,,,,,,,,,,,,103,22,Female,2022-04-28_15h50.44.750,Parachute,2022.1.1,60.0592304148206,
positive,yellow,2,None,k,,,,,,,,,0,37,37,37,,,,,,,,,,,,,,,,,,,,,,,,,,,,,,,,,,,,,main,k,k,1,0.863410500009195,307.9120206999942,None,None,0,,,,,,,,,,,,,,103,22,Female,2022-04-28_15h50.44.750,Parachute,2022.1.1,60.0592304148206,
negative,yellow,2,k,None,,,,,,,,,0,38,38,38,,,,,,,,,,,,,,,,,,,,,,,,,,,,,,,,,,,,,main,None,None,1,1.4935381999966921,309.7780972000037,None,None,1,,,,,,,,,,,,,,103,22,Female,2022-04-28_15h50.44.750,Parachute,2022.1.1,60.0592304148206,
positive,yellow,1,None,k,,,,,,,,,0,39,39,39,,,,,,,,,,,,,,,,,,,,,,,,,,,,,,,,,,,,,main,k,k,1,0.7844853999995394,312.2757222000073,None,None,0,,,,,,,,,,,,,,103,22,Female,2022-04-28_15h50.44.750,Parachute,2022.1.1,60.0592304148206,
negative,yellow,2,k,None,,,,,,,,,0,40,40,40,,,,,,,,,,,,,,,,,,,,,,,,,,,,,,,,,,,,,main,None,None,1,1.4950165000045672,314.06082400000014,None,None,1,,,,,,,,,,,,,,103,22,Female,2022-04-28_15h50.44.750,Parachute,2022.1.1,60.0592304148206,
positive,blue,2,k,None,,,,,,,,,0,41,41,41,,,,,,,,,,,,,,,,,,,,,,,,,,,,,,,,,,,,,main,None,None,1,1.4982396999985212,316.55749710000237,None,None,1,,,,,,,,,,,,,,103,22,Female,2022-04-28_15h50.44.750,Parachute,2022.1.1,60.0592304148206,
positive,blue,2,k,None,,,,,,,,,0,42,42,42,,,,,,,,,,,,,,,,,,,,,,,,,,,,,,,,,,,,,main,None,None,1,1.4995779000018956,319.05682169999636,None,None,1,,,,,,,,,,,,,,103,22,Female,2022-04-28_15h50.44.750,Parachute,2022.1.1,60.0592304148206,
negative,blue,2,None,k,,,,,,,,,0,43,43,43,,,,,,,,,,,,,,,,,,,,,,,,,,,,,,,,,,,,,main,k,k,1,0.7371175000007497,321.55775130000256,None,None,0,,,,,,,,,,,,,,103,22,Female,2022-04-28_15h50.44.750,Parachute,2022.1.1,60.0592304148206,
negative,red,1,None,None,,,,,,,,,0,44,44,44,,,,,,,,,,,,,,,,,,,,,,,,,,,,,,,,,,,,,main,None,None,1,1.493831700005103,323.2939519000065,None,None,1,,,,,,,,,,,,,,103,22,Female,2022-04-28_15h50.44.750,Parachute,2022.1.1,60.0592304148206,
negative,yellow,1,k,None,,,,,,,,,0,45,45,45,,,,,,,,,,,,,,,,,,,,,,,,,,,,,,,,,,,,,main,None,None,1,1.4982673000049544,325.7916639000032,None,None,1,,,,,,,,,,,,,,103,22,Female,2022-04-28_15h50.44.750,Parachute,2022.1.1,60.0592304148206,
negative,yellow,1,k,None,,,,,,,,,0,46,46,46,,,,,,,,,,,,,,,,,,,,,,,,,,,,,,,,,,,,,main,None,None,1,1.499567399994703,328.29100680000556,None,None,1,,,,,,,,,,,,,,103,22,Female,2022-04-28_15h50.44.750,Parachute,2022.1.1,60.0592304148206,
positive,red,1,None,None,,,,,,,,,0,47,47,47,,,,,,,,,,,,,,,,,,,,,,,,,,,,,,,,,,,,,main,None,None,1,1.4982100000052014,330.79175920000125,None,None,1,,,,,,,,,,,,,,103,22,Female,2022-04-28_15h50.44.750,Parachute,2022.1.1,60.0592304148206,
positive,yellow,1,None,k,,,,,,,,,0,48,48,48,,,,,,,,,,,,,,,,,,,,,,,,,,,,,,,,,,,,,main,k,k,1,0.8537026999983937,333.291744999995,None,None,0,,,,,,,,,,,,,,103,22,Female,2022-04-28_15h50.44.750,Parachute,2022.1.1,60.0592304148206,
negative,blue,1,None,k,,,,,,,,,0,49,49,49,,,,,,,,,,,,,,,,,,,,,,,,,,,,,,,,,,,,,main,k,k,1,1.0152926000009757,335.1443897999998,None,None,0,,,,,,,,,,,,,,103,22,Female,2022-04-28_15h50.44.750,Parachute,2022.1.1,60.0592304148206,
positive,yellow,2,None,k,,,,,,,,,0,50,50,50,,,,,,,,,,,,,,,,,,,,,,,,,,,,,,,,,,,,,main,k,k,1,0.9501760000130162,337.160773399999,None,None,0,,,,,,,,,,,,,,103,22,Female,2022-04-28_15h50.44.750,Parachute,2022.1.1,60.0592304148206,
negative,blue,1,None,k,,,,,,,,,0,51,51,51,,,,,,,,,,,,,,,,,,,,,,,,,,,,,,,,,,,,,main,k,k,1,0.9808767000067746,339.11255200000596,None,None,0,,,,,,,,,,,,,,103,22,Female,2022-04-28_15h50.44.750,Parachute,2022.1.1,60.0592304148206,
positive,red,2,None,None,,,,,,,,,0,52,52,52,,,,,,,,,,,,,,,,,,,,,,,,,,,,,,,,,,,,,main,None,None,1,1.4941118999995524,341.0944440000021,None,None,1,,,,,,,,,,,,,,103,22,Female,2022-04-28_15h50.44.750,Parachute,2022.1.1,60.0592304148206,
positive,yellow,2,None,k,,,,,,,,,0,53,53,53,,,,,,,,,,,,,,,,,,,,,,,,,,,,,,,,,,,,,main,k,k,1,0.7031382999994094,343.59287320000294,None,None,0,,,,,,,,,,,,,,103,22,Female,2022-04-28_15h50.44.750,Parachute,2022.1.1,60.0592304148206,
negative,red,2,None,None,,,,,,,,,0,54,54,54,,,,,,,,,,,,,,,,,,,,,,,,,,,,,,,,,,,,,main,None,None,1,1.493522300006589,345.2941348000022,None,None,1,,,,,,,,,,,,,,103,22,Female,2022-04-28_15h50.44.750,Parachute,2022.1.1,60.0592304148206,
positive,yellow,1,None,k,,,,,,,,,0,55,55,55,,,,,,,,,,,,,,,,,,,,,,,,,,,,,,,,,,,,,main,k,k,1,0.9709502000041539,347.79291649999504,None,None,0,,,,,,,,,,,,,,103,22,Female,2022-04-28_15h50.44.750,Parachute,2022.1.1,60.0592304148206,
negative,blue,2,None,k,,,,,,,,,0,56,56,56,,,,,,,,,,,,,,,,,,,,,,,,,,,,,,,,,,,,,main,k,k,1,0.9150131999922451,349.7613941000018,None,None,0,,,,,,,,,,,,,,103,22,Female,2022-04-28_15h50.44.750,Parachute,2022.1.1,60.0592304148206,
positive,blue,1,k,None,,,,,,,,,0,57,57,57,,,,,,,,,,,,,,,,,,,,,,,,,,,,,,,,,,,,,main,None,None,1,1.4930598000064492,351.6781372999976,None,None,1,,,,,,,,,,,,,,103,22,Female,2022-04-28_15h50.44.750,Parachute,2022.1.1,60.0592304148206,
positive,blue,1,k,None,,,,,,,,,0,58,58,58,,,,,,,,,,,,,,,,,,,,,,,,,,,,,,,,,,,,,main,None,None,1,1.4988732000056189,354.1752334000048,None,None,1,,,,,,,,,,,,,,103,22,Female,2022-04-28_15h50.44.750,Parachute,2022.1.1,60.0592304148206,
negative,yellow,2,k,None,,,,,,,,,0,59,59,59,,,,,,,,,,,,,,,,,,,,,,,,,,,,,,,,,,,,,main,None,None,1,1.4987696000025608,356.6750803000032,None,None,1,,,,,,,,,,,,,,103,22,Female,2022-04-28_15h50.44.750,Parachute,2022.1.1,60.0592304148206,
positive,red,2,None,None,,,,,,,,,0,60,60,60,,,,,,,,,,,,,,,,,,,,,,,,,,,,,,,,,,,,,main,None,None,1,1.4984261999925366,359.1747381000023,None,None,1,,,,,,,,,,,,,,103,22,Female,2022-04-28_15h50.44.750,Parachute,2022.1.1,60.0592304148206,
negative,yellow,1,k,None,,,,,,,,,0,61,61,61,,,,,,,,,,,,,,,,,,,,,,,,,,,,,,,,,,,,,main,None,None,1,1.4989121999969939,361.67524050000065,None,None,1,,,,,,,,,,,,,,103,22,Female,2022-04-28_15h50.44.750,Parachute,2022.1.1,60.0592304148206,
negative,red,1,None,None,,,,,,,,,0,62,62,62,,,,,,,,,,,,,,,,,,,,,,,,,,,,,,,,,,,,,main,None,None,1,1.4992606000014348,364.1752264999959,None,None,1,,,,,,,,,,,,,,103,22,Female,2022-04-28_15h50.44.750,Parachute,2022.1.1,60.0592304148206,
negative,blue,1,None,k,,,,,,,,,0,63,63,63,,,,,,,,,,,,,,,,,,,,,,,,,,,,,,,,,,,,,main,k,k,1,1.1869685999990907,366.67612639999425,None,None,0,,,,,,,,,,,,,,103,22,Female,2022-04-28_15h50.44.750,Parachute,2022.1.1,60.0592304148206,
positive,blue,2,k,None,,,,,,,,,0,64,64,64,,,,,,,,,,,,,,,,,,,,,,,,,,,,,,,,,,,,,main,None,None,1,1.4937941999960458,368.8617374000023,None,None,1,,,,,,,,,,,,,,103,22,Female,2022-04-28_15h50.44.750,Parachute,2022.1.1,60.0592304148206,
negative,yellow,2,k,None,,,,,,,,,0,65,65,65,,,,,,,,,,,,,,,,,,,,,,,,,,,,,,,,,,,,,main,None,None,1,1.497959100001026,371.35923339999863,None,None,1,,,,,,,,,,,,,,103,22,Female,2022-04-28_15h50.44.750,Parachute,2022.1.1,60.0592304148206,
positive,yellow,2,None,k,,,,,,,,,0,66,66,66,,,,,,,,,,,,,,,,,,,,,,,,,,,,,,,,,,,,,main,k,k,1,1.4371143000025768,373.85857569999644,None,None,0,,,,,,,,,,,,,,103,22,Female,2022-04-28_15h50.44.750,Parachute,2022.1.1,60.0592304148206,
positive,yellow,2,None,k,,,,,,,,,0,67,67,67,,,,,,,,,,,,,,,,,,,,,,,,,,,,,,,,,,,,,main,k,k,1,0.965485799999442,376.2946473000047,None,None,0,,,,,,,,,,,,,,103,22,Female,2022-04-28_15h50.44.750,Parachute,2022.1.1,60.0592304148206,
positive,red,1,None,None,,,,,,,,,0,68,68,68,,,,,,,,,,,,,,,,,,,,,,,,,,,,,,,,,,,,,main,None,None,1,1.4932504999887897,378.26164860000426,None,None,1,,,,,,,,,,,,,,103,22,Female,2022-04-28_15h50.44.750,Parachute,2022.1.1,60.0592304148206,
positive,yellow,1,None,k,,,,,,,,,0,69,69,69,,,,,,,,,,,,,,,,,,,,,,,,,,,,,,,,,,,,,main,k,k,1,0.8874824999948032,380.758379699997,None,None,0,,,,,,,,,,,,,,103,22,Female,2022-04-28_15h50.44.750,Parachute,2022.1.1,60.0592304148206,
negative,yellow,2,k,None,,,,,,,,,0,70,70,70,,,,,,,,,,,,,,,,,,,,,,,,,,,,,,,,,,,,,main,None,None,1,1.4935996999993222,382.6452714000043,None,None,1,,,,,,,,,,,,,,103,22,Female,2022-04-28_15h50.44.750,Parachute,2022.1.1,60.0592304148206,
positive,yellow,1,None,k,,,,,,,,,0,71,71,71,,,,,,,,,,,,,,,,,,,,,,,,,,,,,,,,,,,,,main,k,k,1,0.8035100999986753,385.1426205000025,None,None,0,,,,,,,,,,,,,,103,22,Female,2022-04-28_15h50.44.750,Parachute,2022.1.1,60.0592304148206,
negative,blue,1,None,k,,,,,,,,,0,72,72,72,,,,,,,,,,,,,,,,,,,,,,,,,,,,,,,,,,,,,main,k,k,1,1.049890599999344,386.94519680000667,None,None,0,,,,,,,,,,,,,,103,22,Female,2022-04-28_15h50.44.750,Parachute,2022.1.1,60.0592304148206,
negative,red,2,None,None,,,,,,,,,0,73,73,73,,,,,,,,,,,,,,,,,,,,,,,,,,,,,,,,,,,,,main,None,None,1,1.491872999991756,388.9978861999989,None,None,1,,,,,,,,,,,,,,103,22,Female,2022-04-28_15h50.44.750,Parachute,2022.1.1,60.0592304148206,
positive,blue,2,k,None,,,,,,,,,0,74,74,74,,,,,,,,,,,,,,,,,,,,,,,,,,,,,,,,,,,,,main,None,None,1,1.4990859999961685,391.49308879999444,None,None,1,,,,,,,,,,,,,,103,22,Female,2022-04-28_15h50.44.750,Parachute,2022.1.1,60.0592304148206,
negative,blue,2,None,k,,,,,,,,,0,75,75,75,,,,,,,,,,,,,,,,,,,,,,,,,,,,,,,,,,,,,main,k,k,1,0.9213578000053531,393.99329120000766,None,None,0,,,,,,,,,,,,,,103,22,Female,2022-04-28_15h50.44.750,Parachute,2022.1.1,60.0592304148206,
negative,blue,2,None,k,,,,,,,,,0,76,76,76,,,,,,,,,,,,,,,,,,,,,,,,,,,,,,,,,,,,,main,k,k,1,0.8809674999938579,395.91274899999553,None,None,0,,,,,,,,,,,,,,103,22,Female,2022-04-28_15h50.44.750,Parachute,2022.1.1,60.0592304148206,
negative,yellow,1,k,None,,,,,,,,,0,77,77,77,,,,,,,,,,,,,,,,,,,,,,,,,,,,,,,,,,,,,main,None,None,1,1.4939577000041027,397.7953883000009,None,None,1,,,,,,,,,,,,,,103,22,Female,2022-04-28_15h50.44.750,Parachute,2022.1.1,60.0592304148206,
positive,blue,1,k,None,,,,,,,,,0,78,78,78,,,,,,,,,,,,,,,,,,,,,,,,,,,,,,,,,,,,,main,None,None,1,1.498536700004479,400.29278210000484,None,None,1,,,,,,,,,,,,,,103,22,Female,2022-04-28_15h50.44.750,Parachute,2022.1.1,60.0592304148206,
positive,blue,1,k,None,,,,,,,,,0,79,79,79,,,,,,,,,,,,,,,,,,,,,,,,,,,,,,,,,,,,,main,None,None,1,1.4982863999903202,402.79254179999407,None,None,1,,,,,,,,,,,,,,103,22,Female,2022-04-28_15h50.44.750,Parachute,2022.1.1,60.0592304148206,
positive,red,2,None,None,,,,,,,,,0,80,80,80,,,,,,,,,,,,,,,,,,,,,,,,,,,,,,,,,,,,,main,None,None,1,1.4987302999943495,405.2922355000046,None,None,1,,,,,,,,,,,,,,103,22,Female,2022-04-28_15h50.44.750,Parachute,2022.1.1,60.0592304148206,
positive,yellow,2,None,k,,,,,,,,,0,81,81,81,,,,,,,,,,,,,,,,,,,,,,,,,,,,,,,,,,,,,main,k,k,1,0.8041139999986626,407.7922899999976,None,None,0,,,,,,,,,,,,,,103,22,Female,2022-04-28_15h50.44.750,Parachute,2022.1.1,60.0592304148206,
positive,blue,1,k,None,,,,,,,,,0,82,82,82,,,,,,,,,,,,,,,,,,,,,,,,,,,,,,,,,,,,,main,None,None,1,1.493274599997676,409.5958030000038,None,None,1,,,,,,,,,,,,,,103,22,Female,2022-04-28_15h50.44.750,Parachute,2022.1.1,60.0592304148206,
negative,yellow,2,k,None,,,,,,,,,0,83,83,83,,,,,,,,,,,,,,,,,,,,,,,,,,,,,,,,,,,,,main,None,None,1,1.4980350000114413,412.09264319999784,None,None,1,,,,,,,,,,,,,,103,22,Female,2022-04-28_15h50.44.750,Parachute,2022.1.1,60.0592304148206,
positive,blue,2,k,None,,,,,,,,,0,84,84,84,,,,,,,,,,,,,,,,,,,,,,,,,,,,,,,,,,,,,main,None,None,1,1.4992919999931473,414.5926640999969,None,None,1,,,,,,,,,,,,,,103,22,Female,2022-04-28_15h50.44.750,Parachute,2022.1.1,60.0592304148206,
positive,yellow,1,None,k,,,,,,,,,0,85,85,85,,,,,,,,,,,,,,,,,,,,,,,,,,,,,,,,,,,,,main,k,k,1,1.3036444999888772,417.0946529000066,None,None,0,,,,,,,,,,,,,,103,22,Female,2022-04-28_15h50.44.750,Parachute,2022.1.1,60.0592304148206,
positive,blue,2,k,None,,,,,,,,,0,86,86,86,,,,,,,,,,,,,,,,,,,,,,,,,,,,,,,,,,,,,main,None,None,1,1.4940919999935431,419.3963565000013,None,None,1,,,,,,,,,,,,,,103,22,Female,2022-04-28_15h50.44.750,Parachute,2022.1.1,60.0592304148206,
positive,blue,1,k,None,,,,,,,,,0,87,87,87,,,,,,,,,,,,,,,,,,,,,,,,,,,,,,,,,,,,,main,None,None,1,1.498915299991495,421.8934661999956,None,None,1,,,,,,,,,,,,,,103,22,Female,2022-04-28_15h50.44.750,Parachute,2022.1.1,60.0592304148206,
negative,yellow,2,k,None,,,,,,,,,0,88,88,88,,,,,,,,,,,,,,,,,,,,,,,,,,,,,,,,,,,,,main,None,None,1,1.4979636999923969,424.3937875999982,None,None,1,,,,,,,,,,,,,,103,22,Female,2022-04-28_15h50.44.750,Parachute,2022.1.1,60.0592304148206,
negative,blue,2,None,k,,,,,,,,,0,89,89,89,,,,,,,,,,,,,,,,,,,,,,,,,,,,,,,,,,,,,main,k,k,1,0.9373044000094524,426.89339630000177,None,None,0,,,,,,,,,,,,,,103,22,Female,2022-04-28_15h50.44.750,Parachute,2022.1.1,60.0592304148206,
positive,yellow,2,None,k,,,,,,,,,0,90,90,90,,,,,,,,,,,,,,,,,,,,,,,,,,,,,,,,,,,,,main,k,k,1,0.9319509999913862,428.8300256000075,None,None,0,,,,,,,,,,,,,,103,22,Female,2022-04-28_15h50.44.750,Parachute,2022.1.1,60.0592304148206,
negative,yellow,1,k,None,,,,,,,,,0,91,91,91,,,,,,,,,,,,,,,,,,,,,,,,,,,,,,,,,,,,,main,None,None,1,1.4930004000052577,430.7627288999938,None,None,1,,,,,,,,,,,,,,103,22,Female,2022-04-28_15h50.44.750,Parachute,2022.1.1,60.0592304148206,
negative,red,2,None,None,,,,,,,,,0,92,92,92,,,,,,,,,,,,,,,,,,,,,,,,,,,,,,,,,,,,,main,None,None,1,1.4989484999969136,433.25985260000743,None,None,1,,,,,,,,,,,,,,103,22,Female,2022-04-28_15h50.44.750,Parachute,2022.1.1,60.0592304148206,
negative,blue,2,None,k,,,,,,,,,0,93,93,93,,,,,,,,,,,,,,,,,,,,,,,,,,,,,,,,,,,,,main,k,k,1,0.8538275000028079,435.76032859999395,None,None,0,,,,,,,,,,,,,,103,22,Female,2022-04-28_15h50.44.750,Parachute,2022.1.1,60.0592304148206,
negative,blue,1,None,k,,,,,,,,,0,94,94,94,,,,,,,,,,,,,,,,,,,,,,,,,,,,,,,,,,,,,main,k,k,1,0.882070499996189,437.6128811999952,None,None,0,,,,,,,,,,,,,,103,22,Female,2022-04-28_15h50.44.750,Parachute,2022.1.1,60.0592304148206,
negative,blue,1,None,k,,,,,,,,,0,95,95,95,,,,,,,,,,,,,,,,,,,,,,,,,,,,,,,,,,,,,main,k,k,1,0.7323477000027196,439.49583970000094,None,None,0,,,,,,,,,,,,,,103,22,Female,2022-04-28_15h50.44.750,Parachute,2022.1.1,60.0592304148206,
negative,red,1,None,None,,,,,,,,,0,96,96,96,,,,,,,,,,,,,,,,,,,,,,,,,,,,,,,,,,,,,main,None,None,1,1.4931232999952044,441.2300824999984,None,None,1,,,,,,,,,,,,,,103,22,Female,2022-04-28_15h50.44.750,Parachute,2022.1.1,60.0592304148206,
positive,yellow,1,None,k,,,,,,,,,0,97,97,97,,,,,,,,,,,,,,,,,,,,,,,,,,,,,,,,,,,,,main,k,k,1,0.9209355000057258,443.7269634999975,None,None,0,,,,,,,,,,,,,,103,22,Female,2022-04-28_15h50.44.750,Parachute,2022.1.1,60.0592304148206,
negative,yellow,1,k,None,,,,,,,,,0,98,98,98,,,,,,,,,,,,,,,,,,,,,,,,,,,,,,,,,,,,,main,None,None,1,1.4928350999980466,445.6473473000078,None,None,1,,,,,,,,,,,,,,103,22,Female,2022-04-28_15h50.44.750,Parachute,2022.1.1,60.0592304148206,
positive,red,1,None,None,,,,,,,,,0,99,99,99,,,,,,,,,,,,,,,,,,,,,,,,,,,,,,,,,,,,,main,None,None,1,1.4989218999980949,448.1429332999978,None,None,1,,,,,,,,,,,,,,103,22,Female,2022-04-28_15h50.44.750,Parachute,2022.1.1,60.0592304148206,
positive,blue,1,k,None,,,,,,,,,0,100,100,100,,,,,,,,,,,,,,,,,,,,,,,,,,,,,,,,,,,,,main,None,None,1,1.4988237000070512,450.6432611000055,None,None,1,,,,,,,,,,,,,,103,22,Female,2022-04-28_15h50.44.750,Parachute,2022.1.1,60.0592304148206,
negative,yellow,1,k,None,,,,,,,,,0,101,101,101,,,,,,,,,,,,,,,,,,,,,,,,,,,,,,,,,,,,,main,None,None,1,1.498428499995498,453.1439936999959,None,None,1,,,,,,,,,,,,,,103,22,Female,2022-04-28_15h50.44.750,Parachute,2022.1.1,60.0592304148206,
negative,blue,2,None,k,,,,,,,,,0,102,102,102,,,,,,,,,,,,,,,,,,,,,,,,,,,,,,,,,,,,,main,k,k,1,0.8708341000019573,455.6430063000007,None,None,0,,,,,,,,,,,,,,103,22,Female,2022-04-28_15h50.44.750,Parachute,2022.1.1,60.0592304148206,
negative,yellow,2,k,None,,,,,,,,,0,103,103,103,,,,,,,,,,,,,,,,,,,,,,,,,,,,,,,,,,,,,main,None,None,1,1.4931712999969022,457.5135070999968,None,None,1,,,,,,,,,,,,,,103,22,Female,2022-04-28_15h50.44.750,Parachute,2022.1.1,60.0592304148206,
positive,yellow,2,None,k,,,,,,,,,0,104,104,104,,,,,,,,,,,,,,,,,,,,,,,,,,,,,,,,,,,,,main,k,k,1,0.7547909999993863,460.01071269999375,None,None,0,,,,,,,,,,,,,,103,22,Female,2022-04-28_15h50.44.750,Parachute,2022.1.1,60.0592304148206,
positive,blue,1,k,None,,,,,,,,,0,105,105,105,,,,,,,,,,,,,,,,,,,,,,,,,,,,,,,,,,,,,main,None,None,1,1.4930708000028972,461.7645477000042,None,None,1,,,,,,,,,,,,,,103,22,Female,2022-04-28_15h50.44.750,Parachute,2022.1.1,60.0592304148206,
positive,blue,2,k,None,,,,,,,,,0,106,106,106,,,,,,,,,,,,,,,,,,,,,,,,,,,,,,,,,,,,,main,None,None,1,1.498473900006502,464.26051429999643,None,None,1,,,,,,,,,,,,,,103,22,Female,2022-04-28_15h50.44.750,Parachute,2022.1.1,60.0592304148206,
negative,blue,1,None,k,,,,,,,,,0,107,107,107,,,,,,,,,,,,,,,,,,,,,,,,,,,,,,,,,,,,,main,k,k,1,0.7541078999929596,466.76034609999624,None,None,0,,,,,,,,,,,,,,103,22,Female,2022-04-28_15h50.44.750,Parachute,2022.1.1,60.0592304148206,
positive,yellow,2,None,k,,,,,,,,,0,108,108,108,,,,,,,,,,,,,,,,,,,,,,,,,,,,,,,,,,,,,main,k,k,1,0.9653610999957891,468.5135758999968,None,None,0,,,,,,,,,,,,,,103,22,Female,2022-04-28_15h50.44.750,Parachute,2022.1.1,60.0592304148206,
negative,yellow,1,k,None,,,,,,,,,0,109,109,109,,,,,,,,,,,,,,,,,,,,,,,,,,,,,,,,,,,,,main,None,None,1,1.4931158000108553,470.48036180000054,None,None,1,,,,,,,,,,,,,,103,22,Female,2022-04-28_15h50.44.750,Parachute,2022.1.1,60.0592304148206,
negative,blue,2,None,k,,,,,,,,,0,110,110,110,,,,,,,,,,,,,,,,,,,,,,,,,,,,,,,,,,,,,main,k,k,1,0.7875959999946645,472.9773642999935,None,None,0,,,,,,,,,,,,,,103,22,Female,2022-04-28_15h50.44.750,Parachute,2022.1.1,60.0592304148206,
positive,blue,2,k,None,,,,,,,,,0,111,111,111,,,,,,,,,,,,,,,,,,,,,,,,,,,,,,,,,,,,,main,None,None,1,1.4936403000028804,474.7635680999956,None,None,1,,,,,,,,,,,,,,103,22,Female,2022-04-28_15h50.44.750,Parachute,2022.1.1,60.0592304148206,
negative,blue,1,None,k,,,,,,,,,0,112,112,112,,,,,,,,,,,,,,,,,,,,,,,,,,,,,,,,,,,,,main,k,k,1,1.271963199993479,477.2611668000027,None,None,0,,,,,,,,,,,,,,103,22,Female,2022-04-28_15h50.44.750,Parachute,2022.1.1,60.0592304148206,
positive,yellow,1,None,k,,,,,,,,,0,113,113,113,,,,,,,,,,,,,,,,,,,,,,,,,,,,,,,,,,,,,main,k,k,1,0.9304561000026297,479.5322443000041,None,None,0,,,,,,,,,,,,,,103,22,Female,2022-04-28_15h50.44.750,Parachute,2022.1.1,60.0592304148206,
negative,red,1,None,None,,,,,,,,,0,114,114,114,,,,,,,,,,,,,,,,,,,,,,,,,,,,,,,,,,,,,main,None,None,1,1.4934567000018433,481.4638466000033,None,None,1,,,,,,,,,,,,,,103,22,Female,2022-04-28_15h50.44.750,Parachute,2022.1.1,60.0592304148206,
positive,red,1,None,None,,,,,,,,,0,115,115,115,,,,,,,,,,,,,,,,,,,,,,,,,,,,,,,,,,,,,main,None,None,1,1.4984870000043884,483.9610609999945,None,None,1,,,,,,,,,,,,,,103,22,Female,2022-04-28_15h50.44.750,Parachute,2022.1.1,60.0592304148206,
negative,red,2,None,None,,,,,,,,,0,116,116,116,,,,,,,,,,,,,,,,,,,,,,,,,,,,,,,,,,,,,main,None,None,1,1.499015800000052,486.46068730000115,None,None,1,,,,,,,,,,,,,,103,22,Female,2022-04-28_15h50.44.750,Parachute,2022.1.1,60.0592304148206,
negative,yellow,2,k,None,,,,,,,,,0,117,117,117,,,,,,,,,,,,,,,,,,,,,,,,,,,,,,,,,,,,,main,None,None,1,1.4985313000070164,488.9613818000071,None,None,1,,,,,,,,,,,,,,103,22,Female,2022-04-28_15h50.44.750,Parachute,2022.1.1,60.0592304148206,
positive,yellow,1,None,k,,,,,,,,,0,118,118,118,,,,,,,,,,,,,,,,,,,,,,,,,,,,,,,,,,,,,main,k,k,1,1.4711962000001222,491.46081249999406,None,None,0,,,,,,,,,,,,,,103,22,Female,2022-04-28_15h50.44.750,Parachute,2022.1.1,60.0592304148206,
positive,red,2,None,None,,,,,,,,,0,119,119,119,,,,,,,,,,,,,,,,,,,,,,,,,,,,,,,,,,,,,main,None,None,1,1.4928025999979582,493.9310192999983,None,None,1,,,,,,,,,,,,,,103,22,Female,2022-04-28_15h50.44.750,Parachute,2022.1.1,60.0592304148206,
positive,blue,2,k,None,,,,,,,,,0,120,120,120,,,,,,,,,,,,,,,,,,,,,,,,,,,,,,,,,,,,,main,None,None,1,1.4988096000015503,496.42809020000277,None,None,1,,,,,,,,,,,,,,103,22,Female,2022-04-28_15h50.44.750,Parachute,2022.1.1,60.0592304148206,
negative,red,1,None,None,,,,,,,,,0,121,121,121,,,,,,,,,,,,,,,,,,,,,,,,,,,,,,,,,,,,,main,None,None,1,1.4987470000050962,498.9281744000036,None,None,1,,,,,,,,,,,,,,103,22,Female,2022-04-28_15h50.44.750,Parachute,2022.1.1,60.0592304148206,
positive,yellow,2,None,k,,,,,,,,,0,122,122,122,,,,,,,,,,,,,,,,,,,,,,,,,,,,,,,,,,,,,main,k,k,1,1.2709450999973342,501.4276241000043,None,None,0,,,,,,,,,,,,,,103,22,Female,2022-04-28_15h50.44.750,Parachute,2022.1.1,60.0592304148206,
negative,red,2,None,None,,,,,,,,,0,123,123,123,,,,,,,,,,,,,,,,,,,,,,,,,,,,,,,,,,,,,main,None,None,1,1.4930899000028148,503.69807250000304,None,None,1,,,,,,,,,,,,,,103,22,Female,2022-04-28_15h50.44.750,Parachute,2022.1.1,60.0592304148206,
negative,yellow,2,k,None,,,,,,,,,0,124,124,124,,,,,,,,,,,,,,,,,,,,,,,,,,,,,,,,,,,,,main,None,None,1,1.4988229000009596,506.19462320000457,None,None,1,,,,,,,,,,,,,,103,22,Female,2022-04-28_15h50.44.750,Parachute,2022.1.1,60.0592304148206,
positive,red,1,None,None,,,,,,,,,0,125,125,125,,,,,,,,,,,,,,,,,,,,,,,,,,,,,,,,,,,,,main,None,None,1,1.499212599999737,508.69481000000087,None,None,1,,,,,,,,,,,,,,103,22,Female,2022-04-28_15h50.44.750,Parachute,2022.1.1,60.0592304148206,
negative,blue,2,None,k,,,,,,,,,0,126,126,126,,,,,,,,,,,,,,,,,,,,,,,,,,,,,,,,,,,,,main,k,k,1,0.8034085999970557,511.1950330999971,None,None,0,,,,,,,,,,,,,,103,22,Female,2022-04-28_15h50.44.750,Parachute,2022.1.1,60.0592304148206,
negative,blue,1,None,k,,,,,,,,,0,127,127,127,,,,,,,,,,,,,,,,,,,,,,,,,,,,,,,,,,,,,main,k,k,1,0.6659431000007316,512.9974636999978,None,None,0,,,,,,,,,,,,,,103,22,Female,2022-04-28_15h50.44.750,Parachute,2022.1.1,60.0592304148206,
negative,yellow,1,k,None,,,,,,,,,0,128,128,128,,,,,,,,,,,,,,,,,,,,,,,,,,,,,,,,,,,,,main,None,None,1,1.4929377000080422,514.6647683000047,None,None,1,,,,,,,,,,,,,,103,22,Female,2022-04-28_15h50.44.750,Parachute,2022.1.1,60.0592304148206,
negative,yellow,1,k,None,,,,,,,,,0,129,129,129,,,,,,,,,,,,,,,,,,,,,,,,,,,,,,,,,,,,,main,None,None,1,1.4992858000041451,517.1613463999965,None,None,1,,,,,,,,,,,,,,103,22,Female,2022-04-28_15h50.44.750,Parachute,2022.1.1,60.0592304148206,
positive,blue,1,k,None,,,,,,,,,0,130,130,130,,,,,,,,,,,,,,,,,,,,,,,,,,,,,,,,,,,,,main,None,None,1,1.4985697000083746,519.6622409999982,None,None,1,,,,,,,,,,,,,,103,22,Female,2022-04-28_15h50.44.750,Parachute,2022.1.1,60.0592304148206,
negative,blue,1,None,k,,,,,,,,,0,131,131,131,,,,,,,,,,,,,,,,,,,,,,,,,,,,,,,,,,,,,main,k,k,1,0.7286416999995708,522.1619530000025,None,None,0,,,,,,,,,,,,,,103,22,Female,2022-04-28_15h50.44.750,Parachute,2022.1.1,60.0592304148206,
negative,blue,2,None,k,,,,,,,,,0,132,132,132,,,,,,,,,,,,,,,,,,,,,,,,,,,,,,,,,,,,,main,k,k,1,0.7734535000054166,523.8929233999952,None,None,0,,,,,,,,,,,,,,103,22,Female,2022-04-28_15h50.44.750,Parachute,2022.1.1,60.0592304148206,
positive,blue,2,k,None,,,,,,,,,0,133,133,133,,,,,,,,,,,,,,,,,,,,,,,,,,,,,,,,,,,,,main,None,None,1,1.493242900003679,525.6649412999977,None,None,1,,,,,,,,,,,,,,103,22,Female,2022-04-28_15h50.44.750,Parachute,2022.1.1,60.0592304148206,
positive,red,2,None,None,,,,,,,,,0,134,134,134,,,,,,,,,,,,,,,,,,,,,,,,,,,,,,,,,,,,,main,None,None,1,1.498993999994127,528.161941600003,None,None,1,,,,,,,,,,,,,,103,22,Female,2022-04-28_15h50.44.750,Parachute,2022.1.1,60.0592304148206,
negative,yellow,2,k,None,,,,,,,,,0,135,135,135,,,,,,,,,,,,,,,,,,,,,,,,,,,,,,,,,,,,,main,None,None,1,1.4987419999961276,530.6618340999994,None,None,1,,,,,,,,,,,,,,103,22,Female,2022-04-28_15h50.44.750,Parachute,2022.1.1,60.0592304148206,
positive,yellow,2,None,k,,,,,,,,,0,136,136,136,,,,,,,,,,,,,,,,,,,,,,,,,,,,,,,,,,,,,main,k,k,1,0.8032978999981424,533.1623793000035,None,None,0,,,,,,,,,,,,,,103,22,Female,2022-04-28_15h50.44.750,Parachute,2022.1.1,60.0592304148206,
positive,blue,1,k,None,,,,,,,,,0,137,137,137,,,,,,,,,,,,,,,,,,,,,,,,,,,,,,,,,,,,,main,None,None,1,1.4935438000102295,534.964687700005,None,None,1,,,,,,,,,,,,,,103,22,Female,2022-04-28_15h50.44.750,Parachute,2022.1.1,60.0592304148206,
positive,yellow,1,None,k,,,,,,,,,0,138,138,138,,,,,,,,,,,,,,,,,,,,,,,,,,,,,,,,,,,,,main,k,k,1,1.0542693000024883,537.462062000006,None,None,0,,,,,,,,,,,,,,103,22,Female,2022-04-28_15h50.44.750,Parachute,2022.1.1,60.0592304148206,
positive,yellow,1,None,k,,,,,,,,,0,139,139,139,,,,,,,,,,,,,,,,,,,,,,,,,,,,,,,,,,,,,main,k,k,1,1.431387699994957,539.5156139000028,None,None,0,,,,,,,,,,,,,,103,22,Female,2022-04-28_15h50.44.750,Parachute,2022.1.1,60.0592304148206,
positive,yellow,1,None,k,,,,,,,,,0,140,140,140,,,,,,,,,,,,,,,,,,,,,,,,,,,,,,,,,,,,,main,k,k,1,0.8143872999935411,541.9497001999989,None,None,0,,,,,,,,,,,,,,103,22,Female,2022-04-28_15h50.44.750,Parachute,2022.1.1,60.0592304148206,
positive,blue,1,k,None,,,,,,,,,0,141,141,141,,,,,,,,,,,,,,,,,,,,,,,,,,,,,,,,,,,,,main,None,None,1,1.4933987999975216,543.7652877999935,None,None,1,,,,,,,,,,,,,,103,22,Female,2022-04-28_15h50.44.750,Parachute,2022.1.1,60.0592304148206,
positive,blue,2,k,None,,,,,,,,,0,142,142,142,,,,,,,,,,,,,,,,,,,,,,,,,,,,,,,,,,,,,main,None,None,1,1.498477000001003,546.2622448000038,None,None,1,,,,,,,,,,,,,,103,22,Female,2022-04-28_15h50.44.750,Parachute,2022.1.1,60.0592304148206,
positive,yellow,2,None,k,,,,,,,,,0,143,143,143,,,,,,,,,,,,,,,,,,,,,,,,,,,,,,,,,,,,,main,k,k,1,1.1710490000114078,548.7617705000011,None,None,0,,,,,,,,,,,,,,103,22,Female,2022-04-28_15h50.44.750,Parachute,2022.1.1,60.0592304148206,
negative,yellow,2,k,None,,,,,,,,,0,144,144,144,,,,,,,,,,,,,,,,,,,,,,,,,,,,,,,,,,,,,main,None,None,1,1.4932571000099415,550.9323040000017,None,None,1,,,,,,,,,,,,,,103,22,Female,2022-04-28_15h50.44.750,Parachute,2022.1.1,60.0592304148206,
negative,blue,2,None,k,,,,,,,,,0,145,145,145,,,,,,,,,,,,,,,,,,,,,,,,,,,,,,,,,,,,,main,k,k,1,0.7705739000084577,553.429160700005,None,None,0,,,,,,,,,,,,,,103,22,Female,2022-04-28_15h50.44.750,Parachute,2022.1.1,60.0592304148206,
negative,red,1,None,None,,,,,,,,,0,146,146,146,,,,,,,,,,,,,,,,,,,,,,,,,,,,,,,,,,,,,main,None,None,1,1.4936546999961138,555.198862300007,None,None,1,,,,,,,,,,,,,,103,22,Female,2022-04-28_15h50.44.750,Parachute,2022.1.1,60.0592304148206,
positive,blue,1,k,None,,,,,,,,,0,147,147,147,,,,,,,,,,,,,,,,,,,,,,,,,,,,,,,,,,,,,main,None,None,1,1.4982992000004742,557.695638300007,None,None,1,,,,,,,,,,,,,,103,22,Female,2022-04-28_15h50.44.750,Parachute,2022.1.1,60.0592304148206,
positive,yellow,1,None,k,,,,,,,,,0,148,148,148,,,,,,,,,,,,,,,,,,,,,,,,,,,,,,,,,,,,,main,k,k,1,0.7219726000039373,560.1954295000032,None,None,0,,,,,,,,,,,,,,103,22,Female,2022-04-28_15h50.44.750,Parachute,2022.1.1,60.0592304148206,
negative,red,2,None,None,,,,,,,,,0,149,149,149,,,,,,,,,,,,,,,,,,,,,,,,,,,,,,,,,,,,,main,None,None,1,1.50854550000804,561.917311199999,None,None,1,,,,,,,,,,,,,,103,22,Female,2022-04-28_15h50.44.750,Parachute,2022.1.1,60.0592304148206,
negative,blue,1,None,k,,,,,,,,,0,150,150,150,,,,,,,,,,,,,,,,,,,,,,,,,,,,,,,,,,,,,main,k,k,1,0.8212118999945233,564.429426200004,None,None,0,,,,,,,,,,,,,,103,22,Female,2022-04-28_15h50.44.750,Parachute,2022.1.1,60.0592304148206,
negative,yellow,2,k,None,,,,,,,,,0,151,151,151,,,,,,,,,,,,,,,,,,,,,,,,,,,,,,,,,,,,,main,None,None,1,1.4924885999935213,566.251267700005,None,None,1,,,,,,,,,,,,,,103,22,Female,2022-04-28_15h50.44.750,Parachute,2022.1.1,60.0592304148206,
negative,blue,2,None,k,,,,,,,,,0,152,152,152,,,,,,,,,,,,,,,,,,,,,,,,,,,,,,,,,,,,,main,k,k,1,0.8880663000018103,568.7465075999935,None,None,0,,,,,,,,,,,,,,103,22,Female,2022-04-28_15h50.44.750,Parachute,2022.1.1,60.0592304148206,
negative,yellow,1,k,None,,,,,,,,,0,153,153,153,,,,,,,,,,,,,,,,,,,,,,,,,,,,,,,,,,,,,main,None,None,1,1.5091067000030307,570.6340863000078,None,None,1,,,,,,,,,,,,,,103,22,Female,2022-04-28_15h50.44.750,Parachute,2022.1.1,60.0592304148206,
negative,blue,1,None,k,,,,,,,,,0,154,154,154,,,,,,,,,,,,,,,,,,,,,,,,,,,,,,,,,,,,,main,k,k,1,1.3198523000028217,573.1470904000016,None,None,0,,,,,,,,,,,,,,103,22,Female,2022-04-28_15h50.44.750,Parachute,2022.1.1,60.0592304148206,
positive,yellow,2,None,k,,,,,,,,,0,155,155,155,,,,,,,,,,,,,,,,,,,,,,,,,,,,,,,,,,,,,main,k,k,1,0.9485553999984404,575.4655964999984,None,None,0,,,,,,,,,,,,,,103,22,Female,2022-04-28_15h50.44.750,Parachute,2022.1.1,60.0592304148206,
positive,red,2,None,None,,,,,,,,,0,156,156,156,,,,,,,,,,,,,,,,,,,,,,,,,,,,,,,,,,,,,main,None,None,1,1.493436599994311,577.4158840000018,None,None,1,,,,,,,,,,,,,,103,22,Female,2022-04-28_15h50.44.750,Parachute,2022.1.1,60.0592304148206,
positive,red,1,None,None,,,,,,,,,0,157,157,157,,,,,,,,,,,,,,,,,,,,,,,,,,,,,,,,,,,,,main,None,None,1,1.4985643000109121,579.9124512999988,None,None,1,,,,,,,,,,,,,,103,22,Female,2022-04-28_15h50.44.750,Parachute,2022.1.1,60.0592304148206,
positive,blue,2,k,None,,,,,,,,,0,158,158,158,,,,,,,,,,,,,,,,,,,,,,,,,,,,,,,,,,,,,main,None,None,1,1.4984607999940636,582.4130310000037,None,None,1,,,,,,,,,,,,,,103,22,Female,2022-04-28_15h50.44.750,Parachute,2022.1.1,60.0592304148206,
negative,yellow,1,k,None,,,,,,,,,0,159,159,159,,,,,,,,,,,,,,,,,,,,,,,,,,,,,,,,,,,,,main,None,None,1,1.4984805999993114,584.9129966000037,None,None,1,,,,,,,,,,,,,,103,22,Female,2022-04-28_15h50.44.750,Parachute,2022.1.1,60.0592304148206,
negative,red,2,None,None,,,,,,,,,0,160,160,160,,,,,,,,,,,,,,,,,,,,,,,,,,,,,,,,,,,,,main,None,None,1,1.498700900003314,587.4135232999979,None,None,1,,,,,,,,,,,,,,103,22,Female,2022-04-28_15h50.44.750,Parachute,2022.1.1,60.0592304148206,
negative,blue,1,None,k,,,,,,,,,0,161,161,161,,,,,,,,,,,,,,,,,,,,,,,,,,,,,,,,,,,,,main,k,k,1,0.9035848999919835,589.9127040000021,None,None,0,,,,,,,,,,,,,,103,22,Female,2022-04-28_15h50.44.750,Parachute,2022.1.1,60.0592304148206,
negative,blue,1,None,k,,,,,,,,,0,162,162,162,,,,,,,,,,,,,,,,,,,,,,,,,,,,,,,,,,,,,main,k,k,1,0.8571393999882275,591.8161829000019,None,None,0,,,,,,,,,,,,,,103,22,Female,2022-04-28_15h50.44.750,Parachute,2022.1.1,60.0592304148206,
negative,yellow,1,k,None,,,,,,,,,0,163,163,163,,,,,,,,,,,,,,,,,,,,,,,,,,,,,,,,,,,,,main,None,None,1,1.5026119999965886,593.6775411999988,None,None,1,,,,,,,,,,,,,,103,22,Female,2022-04-28_15h50.44.750,Parachute,2022.1.1,60.0592304148206,
negative,yellow,1,k,None,,,,,,,,,0,164,164,164,,,,,,,,,,,,,,,,,,,,,,,,,,,,,,,,,,,,,main,None,None,1,1.4983406999963336,596.1801781999966,None,None,1,,,,,,,,,,,,,,103,22,Female,2022-04-28_15h50.44.750,Parachute,2022.1.1,60.0592304148206,
positive,yellow,1,None,k,,,,,,,,,0,165,165,165,,,,,,,,,,,,,,,,,,,,,,,,,,,,,,,,,,,,,main,k,k,1,0.8619657000090228,598.6803720000025,None,None,0,,,,,,,,,,,,,,103,22,Female,2022-04-28_15h50.44.750,Parachute,2022.1.1,60.0592304148206,
negative,red,1,None,None,,,,,,,,,0,166,166,166,,,,,,,,,,,,,,,,,,,,,,,,,,,,,,,,,,,,,main,None,None,1,1.5022642000112683,600.5440365999966,None,None,1,,,,,,,,,,,,,,103,22,Female,2022-04-28_15h50.44.750,Parachute,2022.1.1,60.0592304148206,
negative,yellow,2,k,None,,,,,,,,,0,167,167,167,,,,,,,,,,,,,,,,,,,,,,,,,,,,,,,,,,,,,main,None,None,1,1.4987026000017067,603.0464328999951,None,None,1,,,,,,,,,,,,,,103,22,Female,2022-04-28_15h50.44.750,Parachute,2022.1.1,60.0592304148206,
positive,blue,2,k,None,,,,,,,,,0,168,168,168,,,,,,,,,,,,,,,,,,,,,,,,,,,,,,,,,,,,,main,None,None,1,1.4988161999935983,605.5466038000013,None,None,1,,,,,,,,,,,,,,103,22,Female,2022-04-28_15h50.44.750,Parachute,2022.1.1,60.0592304148206,
positive,red,2,None,None,,,,,,,,,0,169,169,169,,,,,,,,,,,,,,,,,,,,,,,,,,,,,,,,,,,,,main,None,None,1,1.498208799996064,608.046502600002,None,None,1,,,,,,,,,,,,,,103,22,Female,2022-04-28_15h50.44.750,Parachute,2022.1.1,60.0592304148206,
positive,red,1,None,None,,,,,,,,,0,170,170,170,,,,,,,,,,,,,,,,,,,,,,,,,,,,,,,,,,,,,main,None,None,1,1.4990741000074195,610.5458578999969,None,None,1,,,,,,,,,,,,,,103,22,Female,2022-04-28_15h50.44.750,Parachute,2022.1.1,60.0592304148206,
negative,blue,2,None,k,,,,,,,,,0,171,171,171,,,,,,,,,,,,,,,,,,,,,,,,,,,,,,,,,,,,,main,k,k,1,0.9222182000085013,613.0465219000034,None,None,0,,,,,,,,,,,,,,103,22,Female,2022-04-28_15h50.44.750,Parachute,2022.1.1,60.0592304148206,
positive,blue,2,k,None,,,,,,,,,0,172,172,172,,,,,,,,,,,,,,,,,,,,,,,,,,,,,,,,,,,,,main,None,None,1,1.5088077999971574,614.9687430000049,None,None,1,,,,,,,,,,,,,,103,22,Female,2022-04-28_15h50.44.750,Parachute,2022.1.1,60.0592304148206,
negative,yellow,2,k,None,,,,,,,,,0,173,173,173,,,,,,,,,,,,,,,,,,,,,,,,,,,,,,,,,,,,,main,None,None,1,1.4983674999966752,617.4803534999955,None,None,1,,,,,,,,,,,,,,103,22,Female,2022-04-28_15h50.44.750,Parachute,2022.1.1,60.0592304148206,
positive,yellow,2,None,k,,,,,,,,,0,174,174,174,,,,,,,,,,,,,,,,,,,,,,,,,,,,,,,,,,,,,main,k,k,1,0.9041324999998324,619.9800392000034,None,None,0,,,,,,,,,,,,,,103,22,Female,2022-04-28_15h50.44.750,Parachute,2022.1.1,60.0592304148206,
negative,blue,2,None,k,,,,,,,,,0,175,175,175,,,,,,,,,,,,,,,,,,,,,,,,,,,,,,,,,,,,,main,k,k,1,1.032071099994937,621.8843255999964,None,None,0,,,,,,,,,,,,,,103,22,Female,2022-04-28_15h50.44.750,Parachute,2022.1.1,60.0592304148206,
positive,blue,1,k,None,,,,,,,,,0,176,176,176,,,,,,,,,,,,,,,,,,,,,,,,,,,,,,,,,,,,,main,None,None,1,1.4935733000020264,623.9168478000065,None,None,1,,,,,,,,,,,,,,103,22,Female,2022-04-28_15h50.44.750,Parachute,2022.1.1,60.0592304148206,
positive,yellow,1,None,k,,,,,,,,,0,177,177,177,,,,,,,,,,,,,,,,,,,,,,,,,,,,,,,,,,,,,main,k,k,1,0.7865765000024112,626.413727399995,None,None,0,,,,,,,,,,,,,,103,22,Female,2022-04-28_15h50.44.750,Parachute,2022.1.1,60.0592304148206,
positive,blue,1,k,None,,,,,,,,,0,178,178,178,,,,,,,,,,,,,,,,,,,,,,,,,,,,,,,,,,,,,main,None,None,1,1.4937814000004437,628.2002102999977,None,None,1,,,,,,,,,,,,,,103,22,Female,2022-04-28_15h50.44.750,Parachute,2022.1.1,60.0592304148206,
positive,yellow,2,None,k,,,,,,,,,0,179,179,179,,,,,,,,,,,,,,,,,,,,,,,,,,,,,,,,,,,,,main,k,k,1,1.1870850999985123,630.6968319000007,None,None,0,,,,,,,,,,,,,,103,22,Female,2022-04-28_15h50.44.750,Parachute,2022.1.1,60.0592304148206,
positive,blue,1,k,None,,,,,,,,,0,180,180,180,,,,,,,,,,,,,,,,,,,,,,,,,,,,,,,,,,,,,main,None,None,1,1.4941714000015054,632.8831243000022,None,None,1,,,,,,,,,,,,,,103,22,Female,2022-04-28_15h50.44.750,Parachute,2022.1.1,60.0592304148206,
negative,red,1,None,None,,,,,,,,,0,181,181,181,,,,,,,,,,,,,,,,,,,,,,,,,,,,,,,,,,,,,main,None,None,1,1.4986548000015318,635.3812561999948,None,None,1,,,,,,,,,,,,,,103,22,Female,2022-04-28_15h50.44.750,Parachute,2022.1.1,60.0592304148206,
negative,blue,1,None,k,,,,,,,,,0,182,182,182,,,,,,,,,,,,,,,,,,,,,,,,,,,,,,,,,,,,,main,k,k,1,0.8869904000021052,637.8813431000017,None,None,0,,,,,,,,,,,,,,103,22,Female,2022-04-28_15h50.44.750,Parachute,2022.1.1,60.0592304148206,
negative,yellow,2,k,None,,,,,,,,,0,183,183,183,,,,,,,,,,,,,,,,,,,,,,,,,,,,,,,,,,,,,main,None,None,1,1.4934560999972746,639.7671450000053,None,None,1,,,,,,,,,,,,,,103,22,Female,2022-04-28_15h50.44.750,Parachute,2022.1.1,60.0592304148206,
positive,yellow,2,None,k,,,,,,,,,0,184,184,184,,,,,,,,,,,,,,,,,,,,,,,,,,,,,,,,,,,,,main,k,k,1,0.7376928000012413,642.2635328000033,None,None,0,,,,,,,,,,,,,,103,22,Female,2022-04-28_15h50.44.750,Parachute,2022.1.1,60.0592304148206,
positive,yellow,1,None,k,,,,,,,,,0,185,185,185,,,,,,,,,,,,,,,,,,,,,,,,,,,,,,,,,,,,,main,k,k,1,0.730463999992935,644.0007124999975,None,None,0,,,,,,,,,,,,,,103,22,Female,2022-04-28_15h50.44.750,Parachute,2022.1.1,60.0592304148206,
positive,red,2,None,None,,,,,,,,,0,186,186,186,,,,,,,,,,,,,,,,,,,,,,,,,,,,,,,,,,,,,main,None,None,1,1.4953733000002103,645.7422831000003,None,None,1,,,,,,,,,,,,,,103,22,Female,2022-04-28_15h50.44.750,Parachute,2022.1.1,60.0592304148206,
positive,blue,1,k,None,,,,,,,,,0,187,187,187,,,,,,,,,,,,,,,,,,,,,,,,,,,,,,,,,,,,,main,None,None,1,1.4981873000069754,648.2316851000069,None,None,1,,,,,,,,,,,,,,103,22,Female,2022-04-28_15h50.44.750,Parachute,2022.1.1,60.0592304148206,
negative,yellow,1,k,None,,,,,,,,,0,188,188,188,,,,,,,,,,,,,,,,,,,,,,,,,,,,,,,,,,,,,main,None,None,1,1.498240100001567,650.7319057999994,None,None,1,,,,,,,,,,,,,,103,22,Female,2022-04-28_15h50.44.750,Parachute,2022.1.1,60.0592304148206,
positive,yellow,2,None,k,,,,,,,,,0,189,189,189,,,,,,,,,,,,,,,,,,,,,,,,,,,,,,,,,,,,,main,k,k,1,0.8040326000045752,653.2306382999959,None,None,0,,,,,,,,,,,,,,103,22,Female,2022-04-28_15h50.44.750,Parachute,2022.1.1,60.0592304148206,
negative,yellow,2,k,None,,,,,,,,,0,190,190,190,,,,,,,,,,,,,,,,,,,,,,,,,,,,,,,,,,,,,main,None,None,1,1.4938648999959696,655.0339060999977,None,None,1,,,,,,,,,,,,,,103,22,Female,2022-04-28_15h50.44.750,Parachute,2022.1.1,60.0592304148206,
negative,yellow,1,k,None,,,,,,,,,0,191,191,191,,,,,,,,,,,,,,,,,,,,,,,,,,,,,,,,,,,,,main,None,None,1,1.4985262999980478,657.5313600999943,None,None,1,,,,,,,,,,,,,,103,22,Female,2022-04-28_15h50.44.750,Parachute,2022.1.1,60.0592304148206,
positive,blue,2,k,None,,,,,,,,,0,192,192,192,,,,,,,,,,,,,,,,,,,,,,,,,,,,,,,,,,,,,main,None,None,1,1.4990067000035197,660.0312776000064,None,None,1,,,,,,,,,,,,,,103,22,Female,2022-04-28_15h50.44.750,Parachute,2022.1.1,60.0592304148206,
positive,yellow,1,None,k,,,,,,,,,0,193,193,193,,,,,,,,,,,,,,,,,,,,,,,,,,,,,,,,,,,,,main,k,k,1,1.0714034999982687,662.5314152000064,None,None,0,,,,,,,,,,,,,,103,22,Female,2022-04-28_15h50.44.750,Parachute,2022.1.1,60.0592304148206,
negative,red,2,None,None,,,,,,,,,0,194,194,194,,,,,,,,,,,,,,,,,,,,,,,,,,,,,,,,,,,,,main,None,None,1,1.4925256999995327,664.6021401000035,None,None,1,,,,,,,,,,,,,,103,22,Female,2022-04-28_15h50.44.750,Parachute,2022.1.1,60.0592304148206,
positive,red,1,None,None,,,,,,,,,0,195,195,195,,,,,,,,,,,,,,,,,,,,,,,,,,,,,,,,,,,,,main,None,None,1,1.4982601000083378,667.098576000004,None,None,1,,,,,,,,,,,,,,103,22,Female,2022-04-28_15h50.44.750,Parachute,2022.1.1,60.0592304148206,
negative,blue,1,None,k,,,,,,,,,0,196,196,196,,,,,,,,,,,,,,,,,,,,,,,,,,,,,,,,,,,,,main,k,k,1,1.0364195000001928,669.5975760000001,None,None,0,,,,,,,,,,,,,,103,22,Female,2022-04-28_15h50.44.750,Parachute,2022.1.1,60.0592304148206,
positive,blue,2,k,None,,,,,,,,,0,197,197,197,,,,,,,,,,,,,,,,,,,,,,,,,,,,,,,,,,,,,main,None,None,1,1.4944256000017049,671.6424821999972,None,None,1,,,,,,,,,,,,,,103,22,Female,2022-04-28_15h50.44.750,Parachute,2022.1.1,60.0592304148206,
negative,blue,2,None,k,,,,,,,,,0,198,198,198,,,,,,,,,,,,,,,,,,,,,,,,,,,,,,,,,,,,,main,k,k,1,1.0544736000010744,674.1314012999937,None,None,0,,,,,,,,,,,,,,103,22,Female,2022-04-28_15h50.44.750,Parachute,2022.1.1,60.0592304148206,
negative,blue,2,None,k,,,,,,,,,0,199,199,199,,,,,,,,,,,,,,,,,,,,,,,,,,,,,,,,,,,,,main,k,k,1,1.2153633999987505,676.185031999994,None,None,0,,,,,,,,,,,,,,103,22,Female,2022-04-28_15h50.44.750,Parachute,2022.1.1,60.0592304148206,
positive,blue,2,k,None,,,,,,,,,0,200,200,200,,,,,,,,,,,,,,,,,,,,,,,,,,,,,,,,,,,,,main,None,None,1,1.493422500003362,678.4014443000051,None,None,1,,,,,,,,,,,,,,103,22,Female,2022-04-28_15h50.44.750,Parachute,2022.1.1,60.0592304148206,
positive,blue,2,k,None,,,,,,,,,0,201,201,201,,,,,,,,,,,,,,,,,,,,,,,,,,,,,,,,,,,,,main,None,None,1,1.4987793000036618,680.8985066000023,None,None,1,,,,,,,,,,,,,,103,22,Female,2022-04-28_15h50.44.750,Parachute,2022.1.1,60.0592304148206,
negative,yellow,2,k,None,,,,,,,,,0,202,202,202,,,,,,,,,,,,,,,,,,,,,,,,,,,,,,,,,,,,,main,None,None,1,1.498847199996817,683.3985494999943,None,None,1,,,,,,,,,,,,,,103,22,Female,2022-04-28_15h50.44.750,Parachute,2022.1.1,60.0592304148206,
positive,red,1,None,None,,,,,,,,,0,203,203,203,,,,,,,,,,,,,,,,,,,,,,,,,,,,,,,,,,,,,main,None,None,1,1.4986465999973007,685.8987940999941,None,None,1,,,,,,,,,,,,,,103,22,Female,2022-04-28_15h50.44.750,Parachute,2022.1.1,60.0592304148206,
negative,blue,2,None,k,,,,,,,,,0,204,204,204,,,,,,,,,,,,,,,,,,,,,,,,,,,,,,,,,,,,,main,k,k,1,0.9700355000095442,688.3989073999983,None,None,0,,,,,,,,,,,,,,103,22,Female,2022-04-28_15h50.44.750,Parachute,2022.1.1,60.0592304148206,
negative,red,1,None,None,,,,,,,,,0,205,205,205,,,,,,,,,,,,,,,,,,,,,,,,,,,,,,,,,,,,,main,None,None,1,1.4937772000121186,690.3676508000062,None,None,1,,,,,,,,,,,,,,103,22,Female,2022-04-28_15h50.44.750,Parachute,2022.1.1,60.0592304148206,
negative,blue,2,None,k,,,,,,,,,0,206,206,206,,,,,,,,,,,,,,,,,,,,,,,,,,,,,,,,,,,,,main,k,k,1,0.7544696999975713,692.864820200004,None,None,0,,,,,,,,,,,,,,103,22,Female,2022-04-28_15h50.44.750,Parachute,2022.1.1,60.0592304148206,
negative,yellow,2,k,None,,,,,,,,,0,207,207,207,,,,,,,,,,,,,,,,,,,,,,,,,,,,,,,,,,,,,main,None,None,1,1.4932925000030082,694.6181879000069,None,None,1,,,,,,,,,,,,,,103,22,Female,2022-04-28_15h50.44.750,Parachute,2022.1.1,60.0592304148206,
positive,yellow,2,None,k,,,,,,,,,0,208,208,208,,,,,,,,,,,,,,,,,,,,,,,,,,,,,,,,,,,,,main,k,k,1,0.803981200006092,697.1152539000032,None,None,0,,,,,,,,,,,,,,103,22,Female,2022-04-28_15h50.44.750,Parachute,2022.1.1,60.0592304148206,
negative,yellow,1,k,None,,,,,,,,,0,209,209,209,,,,,,,,,,,,,,,,,,,,,,,,,,,,,,,,,,,,,main,None,None,1,1.4930072000133805,698.9188413999946,None,None,1,,,,,,,,,,,,,,103,22,Female,2022-04-28_15h50.44.750,Parachute,2022.1.1,60.0592304148206,
negative,red,2,None,None,,,,,,,,,0,210,210,210,,,,,,,,,,,,,,,,,,,,,,,,,,,,,,,,,,,,,main,None,None,1,1.4988355999958003,701.415396700002,None,None,1,,,,,,,,,,,,,,103,22,Female,2022-04-28_15h50.44.750,Parachute,2022.1.1,60.0592304148206,
negative,blue,1,None,k,,,,,,,,,0,211,211,211,,,,,,,,,,,,,,,,,,,,,,,,,,,,,,,,,,,,,main,k,k,1,0.9871840999985579,703.9147851000016,None,None,0,,,,,,,,,,,,,,103,22,Female,2022-04-28_15h50.44.750,Parachute,2022.1.1,60.0592304148206,
negative,yellow,1,k,None,,,,,,,,,0,212,212,212,,,,,,,,,,,,,,,,,,,,,,,,,,,,,,,,,,,,,main,None,None,1,1.4934303000045475,705.9014759999991,None,None,1,,,,,,,,,,,,,,103,22,Female,2022-04-28_15h50.44.750,Parachute,2022.1.1,60.0592304148206,
positive,blue,1,k,None,,,,,,,,,0,213,213,213,,,,,,,,,,,,,,,,,,,,,,,,,,,,,,,,,,,,,main,None,None,1,1.498629699999583,708.3986070999963,None,None,1,,,,,,,,,,,,,,103,22,Female,2022-04-28_15h50.44.750,Parachute,2022.1.1,60.0592304148206,
positive,blue,1,k,None,,,,,,,,,0,214,214,214,,,,,,,,,,,,,,,,,,,,,,,,,,,,,,,,,,,,,main,None,None,1,1.4989656999969156,710.8982576999988,None,None,1,,,,,,,,,,,,,,103,22,Female,2022-04-28_15h50.44.750,Parachute,2022.1.1,60.0592304148206,
positive,yellow,1,None,k,,,,,,,,,0,215,215,215,,,,,,,,,,,,,,,,,,,,,,,,,,,,,,,,,,,,,main,k,k,1,1.004400899997563,713.3981050000002,None,None,0,,,,,,,,,,,,,,103,22,Female,2022-04-28_15h50.44.750,Parachute,2022.1.1,60.0592304148206,
positive,yellow,1,None,k,,,,,,,,,0,216,216,216,,,,,,,,,,,,,,,,,,,,,,,,,,,,,,,,,,,,,main,k,k,1,1.0142524000111734,715.4019135999988,None,None,0,,,,,,,,,,,,,,103,22,Female,2022-04-28_15h50.44.750,Parachute,2022.1.1,60.0592304148206,
positive,yellow,2,None,k,,,,,,,,,0,217,217,217,,,,,,,,,,,,,,,,,,,,,,,,,,,,,,,,,,,,,main,k,k,1,0.9493129000038607,717.4183602999983,None,None,0,,,,,,,,,,,,,,103,22,Female,2022-04-28_15h50.44.750,Parachute,2022.1.1,60.0592304148206,
negative,blue,1,None,k,,,,,,,,,0,218,218,218,,,,,,,,,,,,,,,,,,,,,,,,,,,,,,,,,,,,,main,k,k,1,0.8986861000012141,719.368450199996,None,None,0,,,,,,,,,,,,,,103,22,Female,2022-04-28_15h50.44.750,Parachute,2022.1.1,60.0592304148206,
positive,red,2,None,None,,,,,,,,,0,219,219,219,,,,,,,,,,,,,,,,,,,,,,,,,,,,,,,,,,,,,main,None,None,1,1.4933477999875322,721.2681341999996,None,None,1,,,,,,,,,,,,,,103,22,Female,2022-04-28_15h50.44.750,Parachute,2022.1.1,60.0592304148206,
positive,yellow,1,None,k,,,,,,,,,0,220,220,220,,,,,,,,,,,,,,,,,,,,,,,,,,,,,,,,,,,,,main,k,k,1,0.862757299997611,723.7659356000077,None,None,0,,,,,,,,,,,,,,103,22,Female,2022-04-28_15h50.44.750,Parachute,2022.1.1,60.0592304148206,
positive,blue,1,k,None,,,,,,,,,0,221,221,221,,,,,,,,,,,,,,,,,,,,,,,,,,,,,,,,,,,,,main,None,None,1,1.5014695000136271,725.6300238999975,None,None,1,,,,,,,,,,,,,,103,22,Female,2022-04-28_15h50.44.750,Parachute,2022.1.1,60.0592304148206,
positive,yellow,2,None,k,,,,,,,,,0,222,222,222,,,,,,,,,,,,,,,,,,,,,,,,,,,,,,,,,,,,,main,k,k,1,0.9539700999885099,728.1319112000056,None,None,0,,,,,,,,,,,,,,103,22,Female,2022-04-28_15h50.44.750,Parachute,2022.1.1,60.0592304148206,
negative,yellow,1,k,None,,,,,,,,,0,223,223,223,,,,,,,,,,,,,,,,,,,,,,,,,,,,,,,,,,,,,main,None,None,1,1.493610899997293,730.0856604,None,None,1,,,,,,,,,,,,,,103,22,Female,2022-04-28_15h50.44.750,Parachute,2022.1.1,60.0592304148206,
positive,yellow,2,None,k,,,,,,,,,0,224,224,224,,,,,,,,,,,,,,,,,,,,,,,,,,,,,,,,,,,,,main,k,k,1,0.9711880000104429,732.5828979000071,None,None,0,,,,,,,,,,,,,,103,22,Female,2022-04-28_15h50.44.750,Parachute,2022.1.1,60.0592304148206,
negative,yellow,2,k,None,,,,,,,,,0,225,225,225,,,,,,,,,,,,,,,,,,,,,,,,,,,,,,,,,,,,,main,None,None,1,1.4924671000044327,734.5530736999935,None,None,1,,,,,,,,,,,,,,103,22,Female,2022-04-28_15h50.44.750,Parachute,2022.1.1,60.0592304148206,
negative,blue,2,None,k,,,,,,,,,0,226,226,226,,,,,,,,,,,,,,,,,,,,,,,,,,,,,,,,,,,,,main,k,k,1,0.7873363999970024,737.048752600007,None,None,0,,,,,,,,,,,,,,103,22,Female,2022-04-28_15h50.44.750,Parachute,2022.1.1,60.0592304148206,
positive,red,2,None,None,,,,,,,,,0,227,227,227,,,,,,,,,,,,,,,,,,,,,,,,,,,,,,,,,,,,,main,None,None,1,1.4933250000030966,738.8356092000031,None,None,1,,,,,,,,,,,,,,103,22,Female,2022-04-28_15h50.44.750,Parachute,2022.1.1,60.0592304148206,
positive,blue,2,k,None,,,,,,,,,0,228,228,228,,,,,,,,,,,,,,,,,,,,,,,,,,,,,,,,,,,,,main,None,None,1,1.4987480999989202,741.3327091999963,None,None,1,,,,,,,,,,,,,,103,22,Female,2022-04-28_15h50.44.750,Parachute,2022.1.1,60.0592304148206,
negative,blue,1,None,k,,,,,,,,,0,229,229,229,,,,,,,,,,,,,,,,,,,,,,,,,,,,,,,,,,,,,main,k,k,1,0.8039258999924641,743.832585199998,None,None,0,,,,,,,,,,,,,,103,22,Female,2022-04-28_15h50.44.750,Parachute,2022.1.1,60.0592304148206,
positive,yellow,1,None,k,,,,,,,,,0,230,230,230,,,,,,,,,,,,,,,,,,,,,,,,,,,,,,,,,,,,,main,k,k,1,0.9659111999935703,745.6359561999998,None,None,0,,,,,,,,,,,,,,103,22,Female,2022-04-28_15h50.44.750,Parachute,2022.1.1,60.0592304148206,
negative,blue,2,None,k,,,,,,,,,0,231,231,231,,,,,,,,,,,,,,,,,,,,,,,,,,,,,,,,,,,,,main,k,k,1,0.9646816000022227,747.6029243999947,None,None,0,,,,,,,,,,,,,,103,22,Female,2022-04-28_15h50.44.750,Parachute,2022.1.1,60.0592304148206,
negative,red,1,None,None,,,,,,,,,0,232,232,232,,,,,,,,,,,,,,,,,,,,,,,,,,,,,,,,,,,,,main,None,None,1,1.4933335999958217,749.5686745999992,None,None,1,,,,,,,,,,,,,,103,22,Female,2022-04-28_15h50.44.750,Parachute,2022.1.1,60.0592304148206,
positive,blue,2,k,None,,,,,,,,,0,233,233,233,,,,,,,,,,,,,,,,,,,,,,,,,,,,,,,,,,,,,main,None,None,1,1.4987513999949442,752.0661556999985,None,None,1,,,,,,,,,,,,,,103,22,Female,2022-04-28_15h50.44.750,Parachute,2022.1.1,60.0592304148206,
negative,yellow,1,k,None,,,,,,,,,0,234,234,234,,,,,,,,,,,,,,,,,,,,,,,,,,,,,,,,,,,,,main,None,None,1,1.4986140999972122,754.5658382999973,None,None,1,,,,,,,,,,,,,,103,22,Female,2022-04-28_15h50.44.750,Parachute,2022.1.1,60.0592304148206,
negative,yellow,2,k,None,,,,,,,,,0,235,235,235,,,,,,,,,,,,,,,,,,,,,,,,,,,,,,,,,,,,,main,None,None,1,1.4990908999898238,757.0655396999937,None,None,1,,,,,,,,,,,,,,103,22,Female,2022-04-28_15h50.44.750,Parachute,2022.1.1,60.0592304148206,
positive,red,1,None,None,,,,,,,,,0,236,236,236,,,,,,,,,,,,,,,,,,,,,,,,,,,,,,,,,,,,,main,None,None,1,1.498848299990641,759.5660258999997,None,None,1,,,,,,,,,,,,,,103,22,Female,2022-04-28_15h50.44.750,Parachute,2022.1.1,60.0592304148206,
negative,red,2,None,None,,,,,,,,,0,237,237,237,,,,,,,,,,,,,,,,,,,,,,,,,,,,,,,,,,,,,main,None,None,1,1.4983325999928638,762.0664128000062,None,None,1,,,,,,,,,,,,,,103,22,Female,2022-04-28_15h50.44.750,Parachute,2022.1.1,60.0592304148206,
negative,blue,1,None,k,,,,,,,,,0,238,238,238,,,,,,,,,,,,,,,,,,,,,,,,,,,,,,,,,,,,,main,k,k,1,1.5381774999987101,764.5656536000024,None,None,0,,,,,,,,,,,,,,103,22,Female,2022-04-28_15h50.44.750,Parachute,2022.1.1,60.0592304148206,
positive,blue,1,k,None,,,,,,,,,0,239,239,239,,,,,,,,,,,,,,,,,,,,,,,,,,,,,,,,,,,,,main,None,None,1,1.5018803999992087,768.114004300005,None,None,1,,,,,,,,,,,,,,103,22,Female,2022-04-28_15h50.44.750,Parachute,2022.1.1,60.0592304148206,
,,,,,,,,,,,,,,,,,,,,,,,,,,,,,,,,,,,,,,,,,,,,,,,,,,,,,,,,,,,,,,,,,,,,,,,,,770.6146177000046,None,,,,,,,,
