distractor,target,set,ans1,ans2,rep_loop4.thisRepN,rep_loop4.thisTrialN,rep_loop4.thisN,rep_loop4.thisIndex,st2_prac_loop.thisRepN,st2_prac_loop.thisTrialN,st2_prac_loop.thisN,st2_prac_loop.thisIndex,st2_main_loop.thisRepN,st2_main_loop.thisTrialN,st2_main_loop.thisN,st2_main_loop.thisIndex,image_4.started,image_4.stopped,mouse_7.x,mouse_7.y,mouse_7.leftButton,mouse_7.midButton,mouse_7.rightButton,sound_2.started,sound_2.stopped,key_resp_3.keys,mouse_5.x,mouse_5.y,mouse_5.leftButton,mouse_5.midButton,mouse_5.rightButton,mouse_5.started,mouse_5.stopped,yes_text2.started,yes_text2.stopped,no_text2.started,no_text2.stopped,mouse_3.x,mouse_3.y,mouse_3.leftButton,mouse_3.midButton,mouse_3.rightButton,mouse_3.started,mouse_3.stopped,st_prac_back.started,st_prac_back.stopped,st_prac_text.started,st_prac_text.stopped,st_fix_back.started,st_fix_back.stopped,st_fix_2.started,st_fix_2.stopped,main_prac,st_ans,st_res,st_corr,st_rt,st_back.started,st_back.stopped,st2_resp.keys,st2_resp.corr,st_main_back.started,st_main_back.stopped,st_main_text.started,st_main_text.stopped,mouse_4.x,mouse_4.y,mouse_4.leftButton,mouse_4.midButton,mouse_4.rightButton,mouse_4.started,mouse_4.stopped,text_2.started,text_2.stopped,id*,age*,gender*,date,expName,psychopyVersion,frameRate,
,,,,,,,,,,,,,,,,,31.231624100008048,None,0.6537037,-0.3175926,0,0,0,,,,,,,,,,,,,,,,,,,,,,,,,,,,,,,,,,,,,,,,,,,,,,,,,,,,104,22,Male,2022-04-29_14h16.55.558,Parachute,2022.1.1,60.06969286035843,
negative,yellow,1,k,None,,,,,0,0,0,0,,,,,,,,,,,,37.57128869002336,None,None,0.68703705,0.062037036,0,0,0,1.0052371399651747,None,109.60705920000328,None,109.60705920000328,None,-0.09537037,-0.07037037,0,0,0,0.013286790024721995,None,113.14173180001671,None,113.14173180001671,None,115.15246050001588,None,115.15246050001588,None,prac,k,k,1,1.4823601999960374,117.1837521000125,None,None,0,,,,,,,,,,,,,,104,22,Male,2022-04-29_14h16.55.558,Parachute,2022.1.1,60.06969286035843,
positive,red,2,None,None,,,,,0,1,1,1,,,,,,,,,,,,,,,,,,,,,,,,,,,,,,,,,,,,,,,,,prac,None,None,1,1.4931204000022262,119.63521100001526,None,None,1,,,,,,,,,,,,,,104,22,Male,2022-04-29_14h16.55.558,Parachute,2022.1.1,60.06969286035843,
negative,blue,2,None,k,,,,,0,2,2,2,,,,,,,,,,,,,,,,,,,,,,,,,,,,,,,,,,,,,,,,,prac,None,None,1,1.4987831999897026,122.13101160002407,None,None,1,,,,,,,,,,,,,,104,22,Male,2022-04-29_14h16.55.558,Parachute,2022.1.1,60.06969286035843,
positive,yellow,1,None,k,,,,,0,3,3,3,,,,,,,,,,,,,,,,,,,,,,,,,,,,,,,,,,,,,,,,,prac,None,None,1,1.502610800002003,124.63098600000376,None,None,1,,,,,,,,,,,,,,104,22,Male,2022-04-29_14h16.55.558,Parachute,2022.1.1,60.06969286035843,
negative,blue,2,None,k,,,,,0,4,4,4,,,,,,,,,,,,,,,,,,,,,,,,,,,,,,,,,,,,,,,,,prac,None,None,1,1.4942759000114165,127.12793160000001,None,None,1,,,,,,,,,,,,,,104,22,Male,2022-04-29_14h16.55.558,Parachute,2022.1.1,60.06969286035843,
negative,blue,1,None,k,,,,,0,5,5,5,,,,,,,,,,,,,,,,,,,,,,,,,,,,,,,,,,,,,,,,,prac,None,None,1,1.498732399981236,129.62489140001708,None,None,1,,,,,,,,,,,,,,104,22,Male,2022-04-29_14h16.55.558,Parachute,2022.1.1,60.06969286035843,
negative,yellow,2,k,None,,,,,0,6,6,6,,,,,,,,,,,,,,,,,,,,,,,,,,,,,,,,,,,,,,,,,prac,k,k,1,1.1032904000021517,132.124995900027,None,None,0,,,,,,,,,,,,,,104,22,Male,2022-04-29_14h16.55.558,Parachute,2022.1.1,60.06969286035843,
negative,red,1,None,None,,,,,0,7,7,7,,,,,,,,,,,,,,,,,,,,,,,,,,,,,,,,,,,,,,,,,prac,None,None,1,1.494293399999151,134.22742490001838,None,None,1,,,,,,,,,,,,,,104,22,Male,2022-04-29_14h16.55.558,Parachute,2022.1.1,60.06969286035843,
positive,yellow,2,None,k,,,,,0,8,8,8,,,,,,,,,,,,,,,,,,,,,,,,,,,,,,,,,,,,,,,,,prac,None,None,1,1.498286999994889,136.72501800002647,None,None,1,,,,,,,,,,,,,,104,22,Male,2022-04-29_14h16.55.558,Parachute,2022.1.1,60.06969286035843,
negative,yellow,1,k,None,,,,,0,9,9,9,,,,,,,,,,,,,,,,,,,,,,,,,,,,,,,,,,,,,,,,,prac,k,k,1,1.2209588999976404,139.22493010002654,None,None,0,,,,,,,,,,,,,,104,22,Male,2022-04-29_14h16.55.558,Parachute,2022.1.1,60.06969286035843,
positive,yellow,2,None,k,,,,,0,10,10,10,,,,,,,,,,,,,,,,,,,,,,,,,,,,,,,,,,,,,,,,,prac,None,None,1,1.4935908000043128,141.4542272000108,None,None,1,,,,,,,,,,,,,,104,22,Male,2022-04-29_14h16.55.558,Parachute,2022.1.1,60.06969286035843,
negative,yellow,2,k,None,,,,,0,11,11,11,,,,,,,,,,,,,,,,,,,,,,,,,,,,,,,,,,,,,,,,,prac,k,k,1,0.969679100002395,143.9415871000092,None,None,0,,,,,,,,,,,,,,104,22,Male,2022-04-29_14h16.55.558,Parachute,2022.1.1,60.06969286035843,
negative,red,2,None,None,,,,,0,12,12,12,,,,,,,,,,,,,,,,,,,,,,,,,,,,,,,,,,,,,,,,,prac,None,None,1,1.4944516000105068,145.9116496000206,None,None,1,,,,,,,,,,,,,,104,22,Male,2022-04-29_14h16.55.558,Parachute,2022.1.1,60.06969286035843,
positive,red,1,None,None,,,,,0,13,13,13,,,,,,,,,,,,,,,,,,,,,,,,,,,,,,,,,,,,,,,,,prac,None,None,1,1.4981601999897975,148.4152234000212,None,None,1,,,,,,,,,,,,,,104,22,Male,2022-04-29_14h16.55.558,Parachute,2022.1.1,60.06969286035843,
positive,blue,2,k,None,,,,,0,14,14,14,,,,,,,,,,,,,,,,,,,,,,,,,,,,,,,,,,,,,,,,,prac,k,k,1,0.8701325999863911,150.90774610001245,None,None,0,,,,,,,,,,,,,,104,22,Male,2022-04-29_14h16.55.558,Parachute,2022.1.1,60.06969286035843,
positive,blue,1,k,None,,,,,0,15,15,15,,,,,,,,,,,,,,,,,,,,,,,,,,,,,,,,,,,,,,,,,prac,k,k,1,0.7988736999977846,152.77758660001564,None,None,0,,,,,,,,,,,,,,104,22,Male,2022-04-29_14h16.55.558,Parachute,2022.1.1,60.06969286035843,
negative,blue,1,None,k,,,,,0,16,16,16,,,,,,,,,,,,,,,,,,,,,,,,,,,,,,,,,,,,,,,,,prac,None,None,1,1.4936721000121906,154.58538560001762,None,None,1,,,,,,,,,,,,,,104,22,Male,2022-04-29_14h16.55.558,Parachute,2022.1.1,60.06969286035843,
positive,blue,2,k,None,,,,,0,17,17,17,,,,,,,,,,,,,,,,,,,,,,,,,,,,,,,,,,,,,,,,,prac,k,k,1,0.8370972000120673,157.0750242000213,None,None,0,,,,,,,,,,,,,,104,22,Male,2022-04-29_14h16.55.558,Parachute,2022.1.1,60.06969286035843,
positive,blue,1,k,None,,,,,0,18,18,18,,,,,,,,,,,,,,,,,,,,,,,,,,,,,,,,,,,,,,,,,prac,k,k,1,0.7654178999946453,158.91202260000864,None,None,0,,,,,,,,,,,,,,104,22,Male,2022-04-29_14h16.55.558,Parachute,2022.1.1,60.06969286035843,
positive,yellow,1,None,k,,,,,0,19,19,19,,,,,,,,,,,,,,,,,,,,,,,,,,,,,,,,,,,,,,,,,prac,None,None,1,1.4932522999879438,160.67827090001083,None,None,1,,,,,,,,,,,,,,104,22,Male,2022-04-29_14h16.55.558,Parachute,2022.1.1,60.06969286035843,
negative,yellow,1,k,None,,,,,1,0,20,0,,,,,,,,,,,,,,,,,,,,,,,,,,,,,,,,,,,,,,,,,prac,k,k,1,0.8706417999928817,163.1757016000047,None,None,0,,,,,,,,,,,,,,104,22,Male,2022-04-29_14h16.55.558,Parachute,2022.1.1,60.06969286035843,
positive,red,2,None,None,,,,,1,1,21,1,,,,,,,,,,,,,,,,,,,,,,,,,,,,,,,,,,,,,,,,,prac,None,None,1,1.4927850000094622,165.04571160001797,None,None,1,,,,,,,,,,,,,,104,22,Male,2022-04-29_14h16.55.558,Parachute,2022.1.1,60.06969286035843,
negative,blue,2,None,k,,,,,1,2,22,2,,,,,,,,,,,,,,,,,,,,,,,,,,,,,,,,,,,,,,,,,prac,None,None,1,1.4987639999890234,167.54143490002025,None,None,1,,,,,,,,,,,,,,104,22,Male,2022-04-29_14h16.55.558,Parachute,2022.1.1,60.06969286035843,
positive,yellow,1,None,k,,,,,1,3,23,3,,,,,,,,,,,,,,,,,,,,,,,,,,,,,,,,,,,,,,,,,prac,None,None,1,1.4986262999882456,170.04161450001993,None,None,1,,,,,,,,,,,,,,104,22,Male,2022-04-29_14h16.55.558,Parachute,2022.1.1,60.06969286035843,
negative,blue,2,None,k,,,,,1,4,24,4,,,,,,,,,,,,,,,,,,,,,,,,,,,,,,,,,,,,,,,,,prac,None,None,1,1.498905000014929,172.54161080002086,None,None,1,,,,,,,,,,,,,,104,22,Male,2022-04-29_14h16.55.558,Parachute,2022.1.1,60.06969286035843,
negative,blue,1,None,k,,,,,1,5,25,5,,,,,,,,,,,,,,,,,,,,,,,,,,,,,,,,,,,,,,,,,prac,None,None,1,1.49863680000999,175.041884700011,None,None,1,,,,,,,,,,,,,,104,22,Male,2022-04-29_14h16.55.558,Parachute,2022.1.1,60.06969286035843,
negative,yellow,2,k,None,,,,,1,6,26,6,,,,,,,,,,,,,,,,,,,,,,,,,,,,,,,,,,,,,,,,,prac,k,k,1,1.4708909000037238,177.54165560001275,None,None,0,,,,,,,,,,,,,,104,22,Male,2022-04-29_14h16.55.558,Parachute,2022.1.1,60.06969286035843,
negative,red,1,None,None,,,,,1,7,27,7,,,,,,,,,,,,,,,,,,,,,,,,,,,,,,,,,,,,,,,,,prac,None,None,1,1.4927166999841575,180.01208630000474,None,None,1,,,,,,,,,,,,,,104,22,Male,2022-04-29_14h16.55.558,Parachute,2022.1.1,60.06969286035843,
positive,yellow,2,None,k,,,,,1,8,28,8,,,,,,,,,,,,,,,,,,,,,,,,,,,,,,,,,,,,,,,,,prac,None,None,1,1.4992866000102367,182.50815010000952,None,None,1,,,,,,,,,,,,,,104,22,Male,2022-04-29_14h16.55.558,Parachute,2022.1.1,60.06969286035843,
negative,yellow,1,k,None,,,,,1,9,29,9,,,,,,,,,,,,,,,,,,,,,,,,,,,,,,,,,,,,,,,,,prac,k,k,1,0.8353804999787826,185.00940430001356,None,None,0,,,,,,,,,,,,,,104,22,Male,2022-04-29_14h16.55.558,Parachute,2022.1.1,60.06969286035843,
positive,yellow,2,None,k,,,,,1,10,30,10,,,,,,,,,,,,,,,,,,,,,,,,,,,,,,,,,,,,,,,,,prac,None,None,1,1.494945899990853,186.85340710001765,None,None,1,,,,,,,,,,,,,,104,22,Male,2022-04-29_14h16.55.558,Parachute,2022.1.1,60.06969286035843,
negative,yellow,2,k,None,,,,,1,11,31,11,,,,,,,,,,,,,,,,,,,,,,,,,,,,,,,,,,,,,,,,,prac,k,k,1,0.8714384000049904,189.3423837000155,None,None,0,,,,,,,,,,,,,,104,22,Male,2022-04-29_14h16.55.558,Parachute,2022.1.1,60.06969286035843,
negative,red,2,None,None,,,,,1,12,32,12,,,,,,,,,,,,,,,,,,,,,,,,,,,,,,,,,,,,,,,,,prac,None,None,1,1.4930150000145659,191.21408460001112,None,None,1,,,,,,,,,,,,,,104,22,Male,2022-04-29_14h16.55.558,Parachute,2022.1.1,60.06969286035843,
positive,red,1,None,None,,,,,1,13,33,13,,,,,,,,,,,,,,,,,,,,,,,,,,,,,,,,,,,,,,,,,prac,None,None,1,1.497773999988567,193.70960750000086,None,None,1,,,,,,,,,,,,,,104,22,Male,2022-04-29_14h16.55.558,Parachute,2022.1.1,60.06969286035843,
positive,blue,2,k,None,,,,,1,14,34,14,,,,,,,,,,,,,,,,,,,,,,,,,,,,,,,,,,,,,,,,,prac,k,k,1,0.8378515999938827,196.20877810000093,None,None,0,,,,,,,,,,,,,,104,22,Male,2022-04-29_14h16.55.558,Parachute,2022.1.1,60.06969286035843,
positive,blue,1,k,None,,,,,1,15,35,15,,,,,,,,,,,,,,,,,,,,,,,,,,,,,,,,,,,,,,,,,prac,k,k,1,0.7148849000222981,198.04687350001768,None,None,0,,,,,,,,,,,,,,104,22,Male,2022-04-29_14h16.55.558,Parachute,2022.1.1,60.06969286035843,
negative,blue,1,None,k,,,,,1,16,36,16,,,,,,,,,,,,,,,,,,,,,,,,,,,,,,,,,,,,,,,,,prac,None,None,1,1.494237200007774,199.76194890000625,None,None,1,,,,,,,,,,,,,,104,22,Male,2022-04-29_14h16.55.558,Parachute,2022.1.1,60.06969286035843,
positive,blue,2,k,None,,,,,1,17,37,17,,,,,,,,,,,,,,,,,,,,,,,,,,,,,,,,,,,,,,,,,prac,k,k,1,0.8118949000199791,202.2601126000227,None,None,0,,,,,,,,,,,,,,104,22,Male,2022-04-29_14h16.55.558,Parachute,2022.1.1,60.06969286035843,
positive,blue,1,k,None,,,,,1,18,38,18,,,,,,,,,,,,,,,,,,,,,,,,,,,,,,,,,,,,,,,,,prac,k,k,1,0.7897339999908581,204.07408080002642,None,None,0,,,,,,,,,,,,,,104,22,Male,2022-04-29_14h16.55.558,Parachute,2022.1.1,60.06969286035843,
positive,yellow,1,None,k,,,,,1,19,39,19,,,,,,,,,,,,,,,,,,,,,,,,,,,,,,,,,,,,,,,,,prac,None,None,1,1.49352540000109,205.8635876000044,None,None,1,,,,,,,,,,,,,,104,22,Male,2022-04-29_14h16.55.558,Parachute,2022.1.1,60.06969286035843,
,,,,,,,,,,,,,,,,,,,,,,,,,,,,,,,,,,,,,,,,,,,,,,,,,,,,,,,,,,,,,,208.37883400000283,None,208.37883400000283,None,0.5037037,-0.073148146,0,0,0,0.012799789983546361,None,,,104,22,Male,2022-04-29_14h16.55.558,Parachute,2022.1.1,60.06969286035843,
negative,yellow,2,k,None,,,,,,,,,0,0,0,0,,,,,,,,,,,,,,,,,,,,,,,,,,,,,,,,,299.34344789999886,None,299.34344789999886,None,main,k,k,1,0.9138816999911796,301.3831744000199,None,None,0,,,,,,,,,,,,,,104,22,Male,2022-04-29_14h16.55.558,Parachute,2022.1.1,60.06969286035843,
positive,red,1,None,None,,,,,,,,,0,1,1,1,,,,,,,,,,,,,,,,,,,,,,,,,,,,,,,,,,,,,main,None,k,0,1.4928430000145454,303.30055210000137,None,None,1,,,,,,,,,,,,,,104,22,Male,2022-04-29_14h16.55.558,Parachute,2022.1.1,60.06969286035843,
positive,blue,2,k,None,,,,,,,,,0,2,2,2,,,,,,,,,,,,,,,,,,,,,,,,,,,,,,,,,,,,,main,k,k,1,0.7742202000226825,306.82586540002376,None,None,0,,,,,,,,,,,,,,104,22,Male,2022-04-29_14h16.55.558,Parachute,2022.1.1,60.06969286035843,
positive,blue,1,k,None,,,,,,,,,0,3,3,3,,,,,,,,,,,,,,,,,,,,,,,,,,,,,,,,,,,,,main,k,k,1,0.9142060999874957,308.59837150000385,None,None,0,,,,,,,,,,,,,,104,22,Male,2022-04-29_14h16.55.558,Parachute,2022.1.1,60.06969286035843,
negative,yellow,2,k,None,,,,,,,,,0,4,4,4,,,,,,,,,,,,,,,,,,,,,,,,,,,,,,,,,,,,,main,k,k,1,0.8823071999941021,310.51419539999915,None,None,0,,,,,,,,,,,,,,104,22,Male,2022-04-29_14h16.55.558,Parachute,2022.1.1,60.06969286035843,
positive,yellow,2,None,k,,,,,,,,,0,5,5,5,,,,,,,,,,,,,,,,,,,,,,,,,,,,,,,,,,,,,main,None,None,1,1.4936565000098199,312.4063476000156,None,None,1,,,,,,,,,,,,,,104,22,Male,2022-04-29_14h16.55.558,Parachute,2022.1.1,60.06969286035843,
negative,blue,2,None,k,,,,,,,,,0,6,6,6,,,,,,,,,,,,,,,,,,,,,,,,,,,,,,,,,,,,,main,None,None,1,1.4986891000007745,314.8947207000165,None,None,1,,,,,,,,,,,,,,104,22,Male,2022-04-29_14h16.55.558,Parachute,2022.1.1,60.06969286035843,
positive,red,2,None,None,,,,,,,,,0,7,7,7,,,,,,,,,,,,,,,,,,,,,,,,,,,,,,,,,,,,,main,None,None,1,1.4988601000222843,317.3944717000122,None,None,1,,,,,,,,,,,,,,104,22,Male,2022-04-29_14h16.55.558,Parachute,2022.1.1,60.06969286035843,
positive,yellow,1,None,k,,,,,,,,,0,8,8,8,,,,,,,,,,,,,,,,,,,,,,,,,,,,,,,,,,,,,main,None,None,1,1.498867500020424,319.89511120002135,None,None,1,,,,,,,,,,,,,,104,22,Male,2022-04-29_14h16.55.558,Parachute,2022.1.1,60.06969286035843,
negative,red,1,None,None,,,,,,,,,0,9,9,9,,,,,,,,,,,,,,,,,,,,,,,,,,,,,,,,,,,,,main,None,None,1,1.499032099993201,322.3951197999995,None,None,1,,,,,,,,,,,,,,104,22,Male,2022-04-29_14h16.55.558,Parachute,2022.1.1,60.06969286035843,
positive,yellow,1,None,k,,,,,,,,,0,10,10,10,,,,,,,,,,,,,,,,,,,,,,,,,,,,,,,,,,,,,main,None,None,1,1.4989876999752596,324.89533960001427,None,None,1,,,,,,,,,,,,,,104,22,Male,2022-04-29_14h16.55.558,Parachute,2022.1.1,60.06969286035843,
negative,yellow,1,k,None,,,,,,,,,0,11,11,11,,,,,,,,,,,,,,,,,,,,,,,,,,,,,,,,,,,,,main,k,k,1,0.8030532000120729,327.3959895000153,None,None,0,,,,,,,,,,,,,,104,22,Male,2022-04-29_14h16.55.558,Parachute,2022.1.1,60.06969286035843,
negative,yellow,1,k,None,,,,,,,,,0,12,12,12,,,,,,,,,,,,,,,,,,,,,,,,,,,,,,,,,,,,,main,k,k,1,0.71580800000811,329.19821320002666,None,None,0,,,,,,,,,,,,,,104,22,Male,2022-04-29_14h16.55.558,Parachute,2022.1.1,60.06969286035843,
negative,red,2,None,None,,,,,,,,,0,13,13,13,,,,,,,,,,,,,,,,,,,,,,,,,,,,,,,,,,,,,main,None,None,1,1.4931209000060335,330.9148643000226,None,None,1,,,,,,,,,,,,,,104,22,Male,2022-04-29_14h16.55.558,Parachute,2022.1.1,60.06969286035843,
positive,yellow,2,None,k,,,,,,,,,0,14,14,14,,,,,,,,,,,,,,,,,,,,,,,,,,,,,,,,,,,,,main,None,None,1,1.4984112000092864,333.4116054000042,None,None,1,,,,,,,,,,,,,,104,22,Male,2022-04-29_14h16.55.558,Parachute,2022.1.1,60.06969286035843,
positive,blue,1,k,None,,,,,,,,,0,15,15,15,,,,,,,,,,,,,,,,,,,,,,,,,,,,,,,,,,,,,main,k,k,1,0.9460570999945048,335.9116951000178,None,None,0,,,,,,,,,,,,,,104,22,Male,2022-04-29_14h16.55.558,Parachute,2022.1.1,60.06969286035843,
negative,blue,1,None,k,,,,,,,,,0,16,16,16,,,,,,,,,,,,,,,,,,,,,,,,,,,,,,,,,,,,,main,None,None,1,1.5015934999973979,337.85953480002354,None,None,1,,,,,,,,,,,,,,104,22,Male,2022-04-29_14h16.55.558,Parachute,2022.1.1,60.06969286035843,
positive,blue,2,k,None,,,,,,,,,0,17,17,17,,,,,,,,,,,,,,,,,,,,,,,,,,,,,,,,,,,,,main,k,k,1,0.8039703000104055,340.3619791000092,None,None,0,,,,,,,,,,,,,,104,22,Male,2022-04-29_14h16.55.558,Parachute,2022.1.1,60.06969286035843,
negative,blue,2,None,k,,,,,,,,,0,18,18,18,,,,,,,,,,,,,,,,,,,,,,,,,,,,,,,,,,,,,main,None,None,1,1.4934176999959163,342.16529520001495,None,None,1,,,,,,,,,,,,,,104,22,Male,2022-04-29_14h16.55.558,Parachute,2022.1.1,60.06969286035843,
negative,blue,1,None,k,,,,,,,,,0,19,19,19,,,,,,,,,,,,,,,,,,,,,,,,,,,,,,,,,,,,,main,None,None,1,1.4992455000174232,344.66193740000017,None,None,1,,,,,,,,,,,,,,104,22,Male,2022-04-29_14h16.55.558,Parachute,2022.1.1,60.06969286035843,
negative,blue,1,None,k,,,,,,,,,0,20,20,20,,,,,,,,,,,,,,,,,,,,,,,,,,,,,,,,,,,,,main,None,None,1,1.4983098999946378,347.16157160000876,None,None,1,,,,,,,,,,,,,,104,22,Male,2022-04-29_14h16.55.558,Parachute,2022.1.1,60.06969286035843,
negative,blue,2,None,k,,,,,,,,,0,21,21,21,,,,,,,,,,,,,,,,,,,,,,,,,,,,,,,,,,,,,main,None,None,1,1.498872800002573,349.6616918000218,None,None,1,,,,,,,,,,,,,,104,22,Male,2022-04-29_14h16.55.558,Parachute,2022.1.1,60.06969286035843,
negative,red,1,None,None,,,,,,,,,0,22,22,22,,,,,,,,,,,,,,,,,,,,,,,,,,,,,,,,,,,,,main,None,None,1,1.498991800006479,352.1622323000047,None,None,1,,,,,,,,,,,,,,104,22,Male,2022-04-29_14h16.55.558,Parachute,2022.1.1,60.06969286035843,
positive,red,2,None,None,,,,,,,,,0,23,23,23,,,,,,,,,,,,,,,,,,,,,,,,,,,,,,,,,,,,,main,None,None,1,1.498753099993337,354.6622938000073,None,None,1,,,,,,,,,,,,,,104,22,Male,2022-04-29_14h16.55.558,Parachute,2022.1.1,60.06969286035843,
negative,red,2,None,None,,,,,,,,,0,24,24,24,,,,,,,,,,,,,,,,,,,,,,,,,,,,,,,,,,,,,main,None,None,1,1.498784000024898,357.1620936000254,None,None,1,,,,,,,,,,,,,,104,22,Male,2022-04-29_14h16.55.558,Parachute,2022.1.1,60.06969286035843,
positive,blue,2,k,None,,,,,,,,,0,25,25,25,,,,,,,,,,,,,,,,,,,,,,,,,,,,,,,,,,,,,main,k,k,1,0.8706583000021055,359.6624749000184,None,None,0,,,,,,,,,,,,,,104,22,Male,2022-04-29_14h16.55.558,Parachute,2022.1.1,60.06969286035843,
negative,yellow,1,k,None,,,,,,,,,0,26,26,26,,,,,,,,,,,,,,,,,,,,,,,,,,,,,,,,,,,,,main,k,k,1,0.9653007999877445,361.5325310000044,None,None,0,,,,,,,,,,,,,,104,22,Male,2022-04-29_14h16.55.558,Parachute,2022.1.1,60.06969286035843,
positive,blue,2,k,None,,,,,,,,,0,27,27,27,,,,,,,,,,,,,,,,,,,,,,,,,,,,,,,,,,,,,main,k,k,1,0.8993868000106886,363.4992204000009,None,None,0,,,,,,,,,,,,,,104,22,Male,2022-04-29_14h16.55.558,Parachute,2022.1.1,60.06969286035843,
negative,blue,2,None,k,,,,,,,,,0,28,28,28,,,,,,,,,,,,,,,,,,,,,,,,,,,,,,,,,,,,,main,None,None,1,1.492775699996855,365.4094936000183,None,None,1,,,,,,,,,,,,,,104,22,Male,2022-04-29_14h16.55.558,Parachute,2022.1.1,60.06969286035843,
positive,red,1,None,None,,,,,,,,,0,29,29,29,,,,,,,,,,,,,,,,,,,,,,,,,,,,,,,,,,,,,main,None,None,1,1.4984234000148717,367.89553710000473,None,None,1,,,,,,,,,,,,,,104,22,Male,2022-04-29_14h16.55.558,Parachute,2022.1.1,60.06969286035843,
positive,blue,1,k,None,,,,,,,,,0,30,30,30,,,,,,,,,,,,,,,,,,,,,,,,,,,,,,,,,,,,,main,k,k,1,0.820493000006536,370.3959082000074,None,None,0,,,,,,,,,,,,,,104,22,Male,2022-04-29_14h16.55.558,Parachute,2022.1.1,60.06969286035843,
positive,yellow,1,None,k,,,,,,,,,0,31,31,31,,,,,,,,,,,,,,,,,,,,,,,,,,,,,,,,,,,,,main,None,None,1,1.4939172999875154,372.2159673999995,None,None,1,,,,,,,,,,,,,,104,22,Male,2022-04-29_14h16.55.558,Parachute,2022.1.1,60.06969286035843,
negative,yellow,2,k,None,,,,,,,,,0,32,32,32,,,,,,,,,,,,,,,,,,,,,,,,,,,,,,,,,,,,,main,k,k,1,0.7541672000079416,374.71265220001806,None,None,0,,,,,,,,,,,,,,104,22,Male,2022-04-29_14h16.55.558,Parachute,2022.1.1,60.06969286035843,
negative,blue,1,None,k,,,,,,,,,0,33,33,33,,,,,,,,,,,,,,,,,,,,,,,,,,,,,,,,,,,,,main,None,None,1,1.4936908000090625,376.4660794000083,None,None,1,,,,,,,,,,,,,,104,22,Male,2022-04-29_14h16.55.558,Parachute,2022.1.1,60.06969286035843,
positive,blue,1,k,None,,,,,,,,,0,34,34,34,,,,,,,,,,,,,,,,,,,,,,,,,,,,,,,,,,,,,main,k,k,1,1.0034528000105638,378.96267860001535,None,None,0,,,,,,,,,,,,,,104,22,Male,2022-04-29_14h16.55.558,Parachute,2022.1.1,60.06969286035843,
negative,yellow,1,k,None,,,,,,,,,0,35,35,35,,,,,,,,,,,,,,,,,,,,,,,,,,,,,,,,,,,,,main,k,k,1,0.8663986000174191,380.9658023000229,None,None,0,,,,,,,,,,,,,,104,22,Male,2022-04-29_14h16.55.558,Parachute,2022.1.1,60.06969286035843,
positive,yellow,2,None,k,,,,,,,,,0,36,36,36,,,,,,,,,,,,,,,,,,,,,,,,,,,,,,,,,,,,,main,None,None,1,1.4927551999862771,382.8334380000015,None,None,1,,,,,,,,,,,,,,104,22,Male,2022-04-29_14h16.55.558,Parachute,2022.1.1,60.06969286035843,
positive,yellow,2,None,k,,,,,,,,,0,37,37,37,,,,,,,,,,,,,,,,,,,,,,,,,,,,,,,,,,,,,main,None,None,1,1.4988439000153448,385.33014480001293,None,None,1,,,,,,,,,,,,,,104,22,Male,2022-04-29_14h16.55.558,Parachute,2022.1.1,60.06969286035843,
negative,yellow,2,k,None,,,,,,,,,0,38,38,38,,,,,,,,,,,,,,,,,,,,,,,,,,,,,,,,,,,,,main,k,k,1,0.769845400005579,387.82945010002004,None,None,0,,,,,,,,,,,,,,104,22,Male,2022-04-29_14h16.55.558,Parachute,2022.1.1,60.06969286035843,
positive,yellow,1,None,k,,,,,,,,,0,39,39,39,,,,,,,,,,,,,,,,,,,,,,,,,,,,,,,,,,,,,main,None,None,1,1.4939474999846425,389.59909230002086,None,None,1,,,,,,,,,,,,,,104,22,Male,2022-04-29_14h16.55.558,Parachute,2022.1.1,60.06969286035843,
negative,yellow,2,k,None,,,,,,,,,0,40,40,40,,,,,,,,,,,,,,,,,,,,,,,,,,,,,,,,,,,,,main,k,k,1,0.7055707999970764,392.0963544000115,None,None,0,,,,,,,,,,,,,,104,22,Male,2022-04-29_14h16.55.558,Parachute,2022.1.1,60.06969286035843,
positive,blue,2,k,None,,,,,,,,,0,41,41,41,,,,,,,,,,,,,,,,,,,,,,,,,,,,,,,,,,,,,main,k,k,1,0.8486561000172514,393.8015828000207,None,None,0,,,,,,,,,,,,,,104,22,Male,2022-04-29_14h16.55.558,Parachute,2022.1.1,60.06969286035843,
positive,blue,2,k,None,,,,,,,,,0,42,42,42,,,,,,,,,,,,,,,,,,,,,,,,,,,,,,,,,,,,,main,k,k,1,0.7137641999870539,395.6510952000099,None,None,0,,,,,,,,,,,,,,104,22,Male,2022-04-29_14h16.55.558,Parachute,2022.1.1,60.06969286035843,
negative,blue,2,None,k,,,,,,,,,0,43,43,43,,,,,,,,,,,,,,,,,,,,,,,,,,,,,,,,,,,,,main,None,None,1,1.4939557000179775,397.3659115000046,None,None,1,,,,,,,,,,,,,,104,22,Male,2022-04-29_14h16.55.558,Parachute,2022.1.1,60.06969286035843,
negative,red,1,None,None,,,,,,,,,0,44,44,44,,,,,,,,,,,,,,,,,,,,,,,,,,,,,,,,,,,,,main,None,None,1,1.4987610000243876,399.86323480002466,None,None,1,,,,,,,,,,,,,,104,22,Male,2022-04-29_14h16.55.558,Parachute,2022.1.1,60.06969286035843,
negative,yellow,1,k,None,,,,,,,,,0,45,45,45,,,,,,,,,,,,,,,,,,,,,,,,,,,,,,,,,,,,,main,k,k,1,1.153478799998993,402.36494550001225,None,None,0,,,,,,,,,,,,,,104,22,Male,2022-04-29_14h16.55.558,Parachute,2022.1.1,60.06969286035843,
negative,yellow,1,k,None,,,,,,,,,0,46,46,46,,,,,,,,,,,,,,,,,,,,,,,,,,,,,,,,,,,,,main,k,k,1,0.865417900000466,404.51650009999867,None,None,0,,,,,,,,,,,,,,104,22,Male,2022-04-29_14h16.55.558,Parachute,2022.1.1,60.06969286035843,
positive,red,1,None,None,,,,,,,,,0,47,47,47,,,,,,,,,,,,,,,,,,,,,,,,,,,,,,,,,,,,,main,None,None,1,1.4939978000184055,406.38363799999934,None,None,1,,,,,,,,,,,,,,104,22,Male,2022-04-29_14h16.55.558,Parachute,2022.1.1,60.06969286035843,
positive,yellow,1,None,k,,,,,,,,,0,48,48,48,,,,,,,,,,,,,,,,,,,,,,,,,,,,,,,,,,,,,main,None,None,1,1.4990006999869365,408.8798340000212,None,None,1,,,,,,,,,,,,,,104,22,Male,2022-04-29_14h16.55.558,Parachute,2022.1.1,60.06969286035843,
negative,blue,1,None,k,,,,,,,,,0,49,49,49,,,,,,,,,,,,,,,,,,,,,,,,,,,,,,,,,,,,,main,None,None,1,1.498324300016975,411.3808954000124,None,None,1,,,,,,,,,,,,,,104,22,Male,2022-04-29_14h16.55.558,Parachute,2022.1.1,60.06969286035843,
positive,yellow,2,None,k,,,,,,,,,0,50,50,50,,,,,,,,,,,,,,,,,,,,,,,,,,,,,,,,,,,,,main,None,None,1,1.4986402000067756,413.8805406000174,None,None,1,,,,,,,,,,,,,,104,22,Male,2022-04-29_14h16.55.558,Parachute,2022.1.1,60.06969286035843,
negative,blue,1,None,k,,,,,,,,,0,51,51,51,,,,,,,,,,,,,,,,,,,,,,,,,,,,,,,,,,,,,main,None,None,1,1.4988808000052813,416.3804723000212,None,None,1,,,,,,,,,,,,,,104,22,Male,2022-04-29_14h16.55.558,Parachute,2022.1.1,60.06969286035843,
positive,red,2,None,None,,,,,,,,,0,52,52,52,,,,,,,,,,,,,,,,,,,,,,,,,,,,,,,,,,,,,main,None,None,1,1.4987475000089034,418.88035079999827,None,None,1,,,,,,,,,,,,,,104,22,Male,2022-04-29_14h16.55.558,Parachute,2022.1.1,60.06969286035843,
positive,yellow,2,None,k,,,,,,,,,0,53,53,53,,,,,,,,,,,,,,,,,,,,,,,,,,,,,,,,,,,,,main,None,None,1,1.4986885999969672,421.38078520001727,None,None,1,,,,,,,,,,,,,,104,22,Male,2022-04-29_14h16.55.558,Parachute,2022.1.1,60.06969286035843,
negative,red,2,None,None,,,,,,,,,0,54,54,54,,,,,,,,,,,,,,,,,,,,,,,,,,,,,,,,,,,,,main,None,None,1,1.4987374000193086,423.8799517000152,None,None,1,,,,,,,,,,,,,,104,22,Male,2022-04-29_14h16.55.558,Parachute,2022.1.1,60.06969286035843,
positive,yellow,1,None,k,,,,,,,,,0,55,55,55,,,,,,,,,,,,,,,,,,,,,,,,,,,,,,,,,,,,,main,None,None,1,1.4990948000049684,426.3801815000188,None,None,1,,,,,,,,,,,,,,104,22,Male,2022-04-29_14h16.55.558,Parachute,2022.1.1,60.06969286035843,
negative,blue,2,None,k,,,,,,,,,0,56,56,56,,,,,,,,,,,,,,,,,,,,,,,,,,,,,,,,,,,,,main,None,None,1,1.4984193999844138,428.8804933000065,None,None,1,,,,,,,,,,,,,,104,22,Male,2022-04-29_14h16.55.558,Parachute,2022.1.1,60.06969286035843,
positive,blue,1,k,None,,,,,,,,,0,57,57,57,,,,,,,,,,,,,,,,,,,,,,,,,,,,,,,,,,,,,main,k,k,1,0.8375536999956239,431.381125600019,None,None,0,,,,,,,,,,,,,,104,22,Male,2022-04-29_14h16.55.558,Parachute,2022.1.1,60.06969286035843,
positive,blue,1,k,None,,,,,,,,,0,58,58,58,,,,,,,,,,,,,,,,,,,,,,,,,,,,,,,,,,,,,main,k,k,1,0.7498422999924514,433.2170760000008,None,None,0,,,,,,,,,,,,,,104,22,Male,2022-04-29_14h16.55.558,Parachute,2022.1.1,60.06969286035843,
negative,yellow,2,k,None,,,,,,,,,0,59,59,59,,,,,,,,,,,,,,,,,,,,,,,,,,,,,,,,,,,,,main,k,k,1,0.8134698999929242,434.96872480001184,None,None,0,,,,,,,,,,,,,,104,22,Male,2022-04-29_14h16.55.558,Parachute,2022.1.1,60.06969286035843,
positive,red,2,None,None,,,,,,,,,0,60,60,60,,,,,,,,,,,,,,,,,,,,,,,,,,,,,,,,,,,,,main,None,None,1,1.49337199999718,436.7834262000106,None,None,1,,,,,,,,,,,,,,104,22,Male,2022-04-29_14h16.55.558,Parachute,2022.1.1,60.06969286035843,
negative,yellow,1,k,None,,,,,,,,,0,61,61,61,,,,,,,,,,,,,,,,,,,,,,,,,,,,,,,,,,,,,main,k,k,1,0.8706127000041306,439.2810859000019,None,None,0,,,,,,,,,,,,,,104,22,Male,2022-04-29_14h16.55.558,Parachute,2022.1.1,60.06969286035843,
negative,red,1,None,None,,,,,,,,,0,62,62,62,,,,,,,,,,,,,,,,,,,,,,,,,,,,,,,,,,,,,main,None,None,1,1.4934657999838237,441.1516287000268,None,None,1,,,,,,,,,,,,,,104,22,Male,2022-04-29_14h16.55.558,Parachute,2022.1.1,60.06969286035843,
negative,blue,1,None,k,,,,,,,,,0,63,63,63,,,,,,,,,,,,,,,,,,,,,,,,,,,,,,,,,,,,,main,None,None,1,1.499704699992435,443.6482629000093,None,None,1,,,,,,,,,,,,,,104,22,Male,2022-04-29_14h16.55.558,Parachute,2022.1.1,60.06969286035843,
positive,blue,2,k,None,,,,,,,,,0,64,64,64,,,,,,,,,,,,,,,,,,,,,,,,,,,,,,,,,,,,,main,k,k,1,0.7876934000232723,446.15004460001364,None,None,0,,,,,,,,,,,,,,104,22,Male,2022-04-29_14h16.55.558,Parachute,2022.1.1,60.06969286035843,
negative,yellow,2,k,None,,,,,,,,,0,65,65,65,,,,,,,,,,,,,,,,,,,,,,,,,,,,,,,,,,,,,main,k,k,1,0.7965275000024121,447.9361474000034,None,None,0,,,,,,,,,,,,,,104,22,Male,2022-04-29_14h16.55.558,Parachute,2022.1.1,60.06969286035843,
positive,yellow,2,None,k,,,,,,,,,0,66,66,66,,,,,,,,,,,,,,,,,,,,,,,,,,,,,,,,,,,,,main,None,None,1,1.4936967999965418,449.73358190001454,None,None,1,,,,,,,,,,,,,,104,22,Male,2022-04-29_14h16.55.558,Parachute,2022.1.1,60.06969286035843,
positive,yellow,2,None,k,,,,,,,,,0,67,67,67,,,,,,,,,,,,,,,,,,,,,,,,,,,,,,,,,,,,,main,None,None,1,1.4990765999828,452.230721800006,None,None,1,,,,,,,,,,,,,,104,22,Male,2022-04-29_14h16.55.558,Parachute,2022.1.1,60.06969286035843,
positive,red,1,None,None,,,,,,,,,0,68,68,68,,,,,,,,,,,,,,,,,,,,,,,,,,,,,,,,,,,,,main,None,None,1,1.498316999990493,454.73071990002063,None,None,1,,,,,,,,,,,,,,104,22,Male,2022-04-29_14h16.55.558,Parachute,2022.1.1,60.06969286035843,
positive,yellow,1,None,k,,,,,,,,,0,69,69,69,,,,,,,,,,,,,,,,,,,,,,,,,,,,,,,,,,,,,main,None,None,1,1.4985539999906905,457.23110980002093,None,None,1,,,,,,,,,,,,,,104,22,Male,2022-04-29_14h16.55.558,Parachute,2022.1.1,60.06969286035843,
negative,yellow,2,k,None,,,,,,,,,0,70,70,70,,,,,,,,,,,,,,,,,,,,,,,,,,,,,,,,,,,,,main,k,k,1,0.8373723999829963,459.7304506000073,None,None,0,,,,,,,,,,,,,,104,22,Male,2022-04-29_14h16.55.558,Parachute,2022.1.1,60.06969286035843,
positive,yellow,1,None,k,,,,,,,,,0,71,71,71,,,,,,,,,,,,,,,,,,,,,,,,,,,,,,,,,,,,,main,None,None,1,1.492937200004235,461.5675444000226,None,None,1,,,,,,,,,,,,,,104,22,Male,2022-04-29_14h16.55.558,Parachute,2022.1.1,60.06969286035843,
negative,blue,1,None,k,,,,,,,,,0,72,72,72,,,,,,,,,,,,,,,,,,,,,,,,,,,,,,,,,,,,,main,None,None,1,1.4991686999856029,464.0635970000003,None,None,1,,,,,,,,,,,,,,104,22,Male,2022-04-29_14h16.55.558,Parachute,2022.1.1,60.06969286035843,
negative,red,2,None,None,,,,,,,,,0,73,73,73,,,,,,,,,,,,,,,,,,,,,,,,,,,,,,,,,,,,,main,None,None,1,1.5001591999898665,466.56432290002704,None,None,1,,,,,,,,,,,,,,104,22,Male,2022-04-29_14h16.55.558,Parachute,2022.1.1,60.06969286035843,
positive,blue,2,k,None,,,,,,,,,0,74,74,74,,,,,,,,,,,,,,,,,,,,,,,,,,,,,,,,,,,,,main,k,k,1,0.8027675000193994,469.06619400001364,None,None,0,,,,,,,,,,,,,,104,22,Male,2022-04-29_14h16.55.558,Parachute,2022.1.1,60.06969286035843,
negative,blue,2,None,k,,,,,,,,,0,75,75,75,,,,,,,,,,,,,,,,,,,,,,,,,,,,,,,,,,,,,main,None,None,1,1.4939114000007976,470.86750380002195,None,None,1,,,,,,,,,,,,,,104,22,Male,2022-04-29_14h16.55.558,Parachute,2022.1.1,60.06969286035843,
negative,blue,2,None,k,,,,,,,,,0,76,76,76,,,,,,,,,,,,,,,,,,,,,,,,,,,,,,,,,,,,,main,None,None,1,1.4985476000001654,473.36458980001044,None,None,1,,,,,,,,,,,,,,104,22,Male,2022-04-29_14h16.55.558,Parachute,2022.1.1,60.06969286035843,
negative,yellow,1,k,None,,,,,,,,,0,77,77,77,,,,,,,,,,,,,,,,,,,,,,,,,,,,,,,,,,,,,main,k,k,1,0.8310028999985661,475.86482370001613,None,None,0,,,,,,,,,,,,,,104,22,Male,2022-04-29_14h16.55.558,Parachute,2022.1.1,60.06969286035843,
positive,blue,1,k,None,,,,,,,,,0,78,78,78,,,,,,,,,,,,,,,,,,,,,,,,,,,,,,,,,,,,,main,k,k,1,0.8543030000000726,477.69737810001243,None,None,0,,,,,,,,,,,,,,104,22,Male,2022-04-29_14h16.55.558,Parachute,2022.1.1,60.06969286035843,
positive,blue,1,k,None,,,,,,,,,0,79,79,79,,,,,,,,,,,,,,,,,,,,,,,,,,,,,,,,,,,,,main,k,k,1,0.6490002000064123,479.551242800022,None,None,0,,,,,,,,,,,,,,104,22,Male,2022-04-29_14h16.55.558,Parachute,2022.1.1,60.06969286035843,
positive,red,2,None,None,,,,,,,,,0,80,80,80,,,,,,,,,,,,,,,,,,,,,,,,,,,,,,,,,,,,,main,None,None,1,1.494136699999217,481.20112420001533,None,None,1,,,,,,,,,,,,,,104,22,Male,2022-04-29_14h16.55.558,Parachute,2022.1.1,60.06969286035843,
positive,yellow,2,None,k,,,,,,,,,0,81,81,81,,,,,,,,,,,,,,,,,,,,,,,,,,,,,,,,,,,,,main,None,None,1,1.4987859000102617,483.6988741000241,None,None,1,,,,,,,,,,,,,,104,22,Male,2022-04-29_14h16.55.558,Parachute,2022.1.1,60.06969286035843,
positive,blue,1,k,None,,,,,,,,,0,82,82,82,,,,,,,,,,,,,,,,,,,,,,,,,,,,,,,,,,,,,main,k,k,1,0.7690712999901734,486.1985789000173,None,None,0,,,,,,,,,,,,,,104,22,Male,2022-04-29_14h16.55.558,Parachute,2022.1.1,60.06969286035843,
negative,yellow,2,k,None,,,,,,,,,0,83,83,83,,,,,,,,,,,,,,,,,,,,,,,,,,,,,,,,,,,,,main,k,k,1,0.6814718999958131,487.968292000005,None,None,0,,,,,,,,,,,,,,104,22,Male,2022-04-29_14h16.55.558,Parachute,2022.1.1,60.06969286035843,
positive,blue,2,k,None,,,,,,,,,0,84,84,84,,,,,,,,,,,,,,,,,,,,,,,,,,,,,,,,,,,,,main,k,k,1,0.7476026999938767,489.6515733000124,None,None,0,,,,,,,,,,,,,,104,22,Male,2022-04-29_14h16.55.558,Parachute,2022.1.1,60.06969286035843,
positive,yellow,1,None,k,,,,,,,,,0,85,85,85,,,,,,,,,,,,,,,,,,,,,,,,,,,,,,,,,,,,,main,None,None,1,1.4950071000203025,491.4014274000074,None,None,1,,,,,,,,,,,,,,104,22,Male,2022-04-29_14h16.55.558,Parachute,2022.1.1,60.06969286035843,
positive,blue,2,k,None,,,,,,,,,0,86,86,86,,,,,,,,,,,,,,,,,,,,,,,,,,,,,,,,,,,,,main,k,k,1,0.7873940999852493,493.89857240000856,None,None,0,,,,,,,,,,,,,,104,22,Male,2022-04-29_14h16.55.558,Parachute,2022.1.1,60.06969286035843,
positive,blue,1,k,None,,,,,,,,,0,87,87,87,,,,,,,,,,,,,,,,,,,,,,,,,,,,,,,,,,,,,main,k,k,1,0.7318216999992728,495.6846667000209,None,None,0,,,,,,,,,,,,,,104,22,Male,2022-04-29_14h16.55.558,Parachute,2022.1.1,60.06969286035843,
negative,yellow,2,k,None,,,,,,,,,0,88,88,88,,,,,,,,,,,,,,,,,,,,,,,,,,,,,,,,,,,,,main,k,k,1,0.9158532999863382,497.41830190000474,None,None,0,,,,,,,,,,,,,,104,22,Male,2022-04-29_14h16.55.558,Parachute,2022.1.1,60.06969286035843,
negative,blue,2,None,k,,,,,,,,,0,89,89,89,,,,,,,,,,,,,,,,,,,,,,,,,,,,,,,,,,,,,main,None,None,1,1.4927331999933813,499.33547170000384,None,None,1,,,,,,,,,,,,,,104,22,Male,2022-04-29_14h16.55.558,Parachute,2022.1.1,60.06969286035843,
positive,yellow,2,None,k,,,,,,,,,0,90,90,90,,,,,,,,,,,,,,,,,,,,,,,,,,,,,,,,,,,,,main,None,None,1,1.498454699991271,501.8314686000231,None,None,1,,,,,,,,,,,,,,104,22,Male,2022-04-29_14h16.55.558,Parachute,2022.1.1,60.06969286035843,
negative,yellow,1,k,None,,,,,,,,,0,91,91,91,,,,,,,,,,,,,,,,,,,,,,,,,,,,,,,,,,,,,main,k,k,1,0.7721843000035733,504.33161900000414,None,None,0,,,,,,,,,,,,,,104,22,Male,2022-04-29_14h16.55.558,Parachute,2022.1.1,60.06969286035843,
negative,red,2,None,None,,,,,,,,,0,92,92,92,,,,,,,,,,,,,,,,,,,,,,,,,,,,,,,,,,,,,main,None,None,1,1.492641500022728,506.1034021000087,None,None,1,,,,,,,,,,,,,,104,22,Male,2022-04-29_14h16.55.558,Parachute,2022.1.1,60.06969286035843,
negative,blue,2,None,k,,,,,,,,,0,93,93,93,,,,,,,,,,,,,,,,,,,,,,,,,,,,,,,,,,,,,main,None,None,1,1.498608099995181,508.5984301000135,None,None,1,,,,,,,,,,,,,,104,22,Male,2022-04-29_14h16.55.558,Parachute,2022.1.1,60.06969286035843,
negative,blue,1,None,k,,,,,,,,,0,94,94,94,,,,,,,,,,,,,,,,,,,,,,,,,,,,,,,,,,,,,main,None,None,1,1.498489299992798,511.09908120002365,None,None,1,,,,,,,,,,,,,,104,22,Male,2022-04-29_14h16.55.558,Parachute,2022.1.1,60.06969286035843,
negative,blue,1,None,k,,,,,,,,,0,95,95,95,,,,,,,,,,,,,,,,,,,,,,,,,,,,,,,,,,,,,main,None,None,1,1.4993811000022106,513.5985548000026,None,None,1,,,,,,,,,,,,,,104,22,Male,2022-04-29_14h16.55.558,Parachute,2022.1.1,60.06969286035843,
negative,red,1,None,None,,,,,,,,,0,96,96,96,,,,,,,,,,,,,,,,,,,,,,,,,,,,,,,,,,,,,main,None,None,1,1.4985763000149745,516.0989919000131,None,None,1,,,,,,,,,,,,,,104,22,Male,2022-04-29_14h16.55.558,Parachute,2022.1.1,60.06969286035843,
positive,yellow,1,None,k,,,,,,,,,0,97,97,97,,,,,,,,,,,,,,,,,,,,,,,,,,,,,,,,,,,,,main,None,None,1,1.4984581999888178,518.5993033000268,None,None,1,,,,,,,,,,,,,,104,22,Male,2022-04-29_14h16.55.558,Parachute,2022.1.1,60.06969286035843,
negative,yellow,1,k,None,,,,,,,,,0,98,98,98,,,,,,,,,,,,,,,,,,,,,,,,,,,,,,,,,,,,,main,k,k,1,0.745185500010848,521.098911100009,None,None,0,,,,,,,,,,,,,,104,22,Male,2022-04-29_14h16.55.558,Parachute,2022.1.1,60.06969286035843,
positive,red,1,None,None,,,,,,,,,0,99,99,99,,,,,,,,,,,,,,,,,,,,,,,,,,,,,,,,,,,,,main,None,None,1,1.50274170000921,522.84723330001,None,None,1,,,,,,,,,,,,,,104,22,Male,2022-04-29_14h16.55.558,Parachute,2022.1.1,60.06969286035843,
positive,blue,1,k,None,,,,,,,,,0,100,100,100,,,,,,,,,,,,,,,,,,,,,,,,,,,,,,,,,,,,,main,k,k,1,0.8364476000133436,525.3494173000217,None,None,0,,,,,,,,,,,,,,104,22,Male,2022-04-29_14h16.55.558,Parachute,2022.1.1,60.06969286035843,
negative,yellow,1,k,None,,,,,,,,,0,101,101,101,,,,,,,,,,,,,,,,,,,,,,,,,,,,,,,,,,,,,main,k,k,1,0.7654066999966744,527.1858651000075,None,None,0,,,,,,,,,,,,,,104,22,Male,2022-04-29_14h16.55.558,Parachute,2022.1.1,60.06969286035843,
negative,blue,2,None,k,,,,,,,,,0,102,102,102,,,,,,,,,,,,,,,,,,,,,,,,,,,,,,,,,,,,,main,None,None,1,1.4941043000144418,528.9521116000251,None,None,1,,,,,,,,,,,,,,104,22,Male,2022-04-29_14h16.55.558,Parachute,2022.1.1,60.06969286035843,
negative,yellow,2,k,None,,,,,,,,,0,103,103,103,,,,,,,,,,,,,,,,,,,,,,,,,,,,,,,,,,,,,main,k,k,1,0.9031951999932062,531.4498937000171,None,None,0,,,,,,,,,,,,,,104,22,Male,2022-04-29_14h16.55.558,Parachute,2022.1.1,60.06969286035843,
positive,yellow,2,None,k,,,,,,,,,0,104,104,104,,,,,,,,,,,,,,,,,,,,,,,,,,,,,,,,,,,,,main,None,None,1,1.4941697000176646,533.3521286000032,None,None,1,,,,,,,,,,,,,,104,22,Male,2022-04-29_14h16.55.558,Parachute,2022.1.1,60.06969286035843,
positive,blue,1,k,None,,,,,,,,,0,105,105,105,,,,,,,,,,,,,,,,,,,,,,,,,,,,,,,,,,,,,main,k,k,1,0.7712652000191156,535.8491624000017,None,None,0,,,,,,,,,,,,,,104,22,Male,2022-04-29_14h16.55.558,Parachute,2022.1.1,60.06969286035843,
positive,blue,2,k,None,,,,,,,,,0,106,106,106,,,,,,,,,,,,,,,,,,,,,,,,,,,,,,,,,,,,,main,k,k,1,0.7813501000055112,537.6196242000151,None,None,0,,,,,,,,,,,,,,104,22,Male,2022-04-29_14h16.55.558,Parachute,2022.1.1,60.06969286035843,
negative,blue,1,None,k,,,,,,,,,0,107,107,107,,,,,,,,,,,,,,,,,,,,,,,,,,,,,,,,,,,,,main,None,None,1,1.4934533999767154,539.4022308000131,None,None,1,,,,,,,,,,,,,,104,22,Male,2022-04-29_14h16.55.558,Parachute,2022.1.1,60.06969286035843,
positive,yellow,2,None,k,,,,,,,,,0,108,108,108,,,,,,,,,,,,,,,,,,,,,,,,,,,,,,,,,,,,,main,None,None,1,1.4989319999876898,541.8994085000013,None,None,1,,,,,,,,,,,,,,104,22,Male,2022-04-29_14h16.55.558,Parachute,2022.1.1,60.06969286035843,
negative,yellow,1,k,None,,,,,,,,,0,109,109,109,,,,,,,,,,,,,,,,,,,,,,,,,,,,,,,,,,,,,main,k,k,1,0.7207762000034563,544.3995743000123,None,None,0,,,,,,,,,,,,,,104,22,Male,2022-04-29_14h16.55.558,Parachute,2022.1.1,60.06969286035843,
negative,blue,2,None,k,,,,,,,,,0,110,110,110,,,,,,,,,,,,,,,,,,,,,,,,,,,,,,,,,,,,,main,None,None,1,1.4937692999956198,546.1195181000221,None,None,1,,,,,,,,,,,,,,104,22,Male,2022-04-29_14h16.55.558,Parachute,2022.1.1,60.06969286035843,
positive,blue,2,k,None,,,,,,,,,0,111,111,111,,,,,,,,,,,,,,,,,,,,,,,,,,,,,,,,,,,,,main,k,k,1,1.102596499986248,548.6179395000217,None,None,0,,,,,,,,,,,,,,104,22,Male,2022-04-29_14h16.55.558,Parachute,2022.1.1,60.06969286035843,
negative,blue,1,None,k,,,,,,,,,0,112,112,112,,,,,,,,,,,,,,,,,,,,,,,,,,,,,,,,,,,,,main,None,None,1,1.4939583000086714,550.7191587999987,None,None,1,,,,,,,,,,,,,,104,22,Male,2022-04-29_14h16.55.558,Parachute,2022.1.1,60.06969286035843,
positive,yellow,1,None,k,,,,,,,,,0,113,113,113,,,,,,,,,,,,,,,,,,,,,,,,,,,,,,,,,,,,,main,None,None,1,1.4987185000209138,553.2166488000075,None,None,1,,,,,,,,,,,,,,104,22,Male,2022-04-29_14h16.55.558,Parachute,2022.1.1,60.06969286035843,
negative,red,1,None,None,,,,,,,,,0,114,114,114,,,,,,,,,,,,,,,,,,,,,,,,,,,,,,,,,,,,,main,None,None,1,1.4979908000095747,555.7167355999991,None,None,1,,,,,,,,,,,,,,104,22,Male,2022-04-29_14h16.55.558,Parachute,2022.1.1,60.06969286035843,
positive,red,1,None,None,,,,,,,,,0,115,115,115,,,,,,,,,,,,,,,,,,,,,,,,,,,,,,,,,,,,,main,None,None,1,1.498822299996391,558.2164974000189,None,None,1,,,,,,,,,,,,,,104,22,Male,2022-04-29_14h16.55.558,Parachute,2022.1.1,60.06969286035843,
negative,red,2,None,None,,,,,,,,,0,116,116,116,,,,,,,,,,,,,,,,,,,,,,,,,,,,,,,,,,,,,main,None,None,1,1.4986993000202347,560.7166458000138,None,None,1,,,,,,,,,,,,,,104,22,Male,2022-04-29_14h16.55.558,Parachute,2022.1.1,60.06969286035843,
negative,yellow,2,k,None,,,,,,,,,0,117,117,117,,,,,,,,,,,,,,,,,,,,,,,,,,,,,,,,,,,,,main,k,k,1,0.9034081000136212,563.2164520000224,None,None,0,,,,,,,,,,,,,,104,22,Male,2022-04-29_14h16.55.558,Parachute,2022.1.1,60.06969286035843,
positive,yellow,1,None,k,,,,,,,,,0,118,118,118,,,,,,,,,,,,,,,,,,,,,,,,,,,,,,,,,,,,,main,None,None,1,1.4937099000089802,565.1193306000205,None,None,1,,,,,,,,,,,,,,104,22,Male,2022-04-29_14h16.55.558,Parachute,2022.1.1,60.06969286035843,
positive,red,2,None,None,,,,,,,,,0,119,119,119,,,,,,,,,,,,,,,,,,,,,,,,,,,,,,,,,,,,,main,None,None,1,1.498951199988369,567.6158254000184,None,None,1,,,,,,,,,,,,,,104,22,Male,2022-04-29_14h16.55.558,Parachute,2022.1.1,60.06969286035843,
positive,blue,2,k,None,,,,,,,,,0,120,120,120,,,,,,,,,,,,,,,,,,,,,,,,,,,,,,,,,,,,,main,k,k,1,0.9025977000128478,570.1170248000126,None,None,0,,,,,,,,,,,,,,104,22,Male,2022-04-29_14h16.55.558,Parachute,2022.1.1,60.06969286035843,
negative,red,1,None,None,,,,,,,,,0,121,121,121,,,,,,,,,,,,,,,,,,,,,,,,,,,,,,,,,,,,,main,None,None,1,1.4942932999983896,572.0281259000185,None,None,1,,,,,,,,,,,,,,104,22,Male,2022-04-29_14h16.55.558,Parachute,2022.1.1,60.06969286035843,
positive,yellow,2,None,k,,,,,,,,,0,122,122,122,,,,,,,,,,,,,,,,,,,,,,,,,,,,,,,,,,,,,main,None,None,1,1.4987202000047546,574.516832000023,None,None,1,,,,,,,,,,,,,,104,22,Male,2022-04-29_14h16.55.558,Parachute,2022.1.1,60.06969286035843,
negative,red,2,None,None,,,,,,,,,0,123,123,123,,,,,,,,,,,,,,,,,,,,,,,,,,,,,,,,,,,,,main,None,None,1,1.4986420000204816,577.0161358000187,None,None,1,,,,,,,,,,,,,,104,22,Male,2022-04-29_14h16.55.558,Parachute,2022.1.1,60.06969286035843,
negative,yellow,2,k,None,,,,,,,,,0,124,124,124,,,,,,,,,,,,,,,,,,,,,,,,,,,,,,,,,,,,,main,k,k,1,0.8206005000101868,579.5162669999991,None,None,0,,,,,,,,,,,,,,104,22,Male,2022-04-29_14h16.55.558,Parachute,2022.1.1,60.06969286035843,
positive,red,1,None,None,,,,,,,,,0,125,125,125,,,,,,,,,,,,,,,,,,,,,,,,,,,,,,,,,,,,,main,None,None,1,1.4941378000075929,581.3360736000177,None,None,1,,,,,,,,,,,,,,104,22,Male,2022-04-29_14h16.55.558,Parachute,2022.1.1,60.06969286035843,
negative,blue,2,None,k,,,,,,,,,0,126,126,126,,,,,,,,,,,,,,,,,,,,,,,,,,,,,,,,,,,,,main,None,None,1,1.4985393999959342,583.8342076000117,None,None,1,,,,,,,,,,,,,,104,22,Male,2022-04-29_14h16.55.558,Parachute,2022.1.1,60.06969286035843,
negative,blue,1,None,k,,,,,,,,,0,127,127,127,,,,,,,,,,,,,,,,,,,,,,,,,,,,,,,,,,,,,main,None,None,1,1.4985488000093028,586.3340171000164,None,None,1,,,,,,,,,,,,,,104,22,Male,2022-04-29_14h16.55.558,Parachute,2022.1.1,60.06969286035843,
negative,yellow,1,k,None,,,,,,,,,0,128,128,128,,,,,,,,,,,,,,,,,,,,,,,,,,,,,,,,,,,,,main,k,k,1,0.7625555999984499,588.8341330000258,None,None,0,,,,,,,,,,,,,,104,22,Male,2022-04-29_14h16.55.558,Parachute,2022.1.1,60.06969286035843,
negative,yellow,1,k,None,,,,,,,,,0,129,129,129,,,,,,,,,,,,,,,,,,,,,,,,,,,,,,,,,,,,,main,k,k,1,1.0562576999946032,590.5980609000253,None,None,0,,,,,,,,,,,,,,104,22,Male,2022-04-29_14h16.55.558,Parachute,2022.1.1,60.06969286035843,
positive,blue,1,k,None,,,,,,,,,0,130,130,130,,,,,,,,,,,,,,,,,,,,,,,,,,,,,,,,,,,,,main,k,k,1,0.9322472999920137,592.6533672000223,None,None,0,,,,,,,,,,,,,,104,22,Male,2022-04-29_14h16.55.558,Parachute,2022.1.1,60.06969286035843,
negative,blue,1,None,k,,,,,,,,,0,131,131,131,,,,,,,,,,,,,,,,,,,,,,,,,,,,,,,,,,,,,main,None,None,1,1.4938408000161871,594.5865136000211,None,None,1,,,,,,,,,,,,,,104,22,Male,2022-04-29_14h16.55.558,Parachute,2022.1.1,60.06969286035843,
negative,blue,2,None,k,,,,,,,,,0,132,132,132,,,,,,,,,,,,,,,,,,,,,,,,,,,,,,,,,,,,,main,None,None,1,1.4982722999993712,597.0835026999994,None,None,1,,,,,,,,,,,,,,104,22,Male,2022-04-29_14h16.55.558,Parachute,2022.1.1,60.06969286035843,
positive,blue,2,k,None,,,,,,,,,0,133,133,133,,,,,,,,,,,,,,,,,,,,,,,,,,,,,,,,,,,,,main,k,k,1,0.7875100999954157,599.5831177000073,None,None,0,,,,,,,,,,,,,,104,22,Male,2022-04-29_14h16.55.558,Parachute,2022.1.1,60.06969286035843,
positive,red,2,None,None,,,,,,,,,0,134,134,134,,,,,,,,,,,,,,,,,,,,,,,,,,,,,,,,,,,,,main,None,None,1,1.494180299981963,601.3704811000207,None,None,1,,,,,,,,,,,,,,104,22,Male,2022-04-29_14h16.55.558,Parachute,2022.1.1,60.06969286035843,
negative,yellow,2,k,None,,,,,,,,,0,135,135,135,,,,,,,,,,,,,,,,,,,,,,,,,,,,,,,,,,,,,main,k,k,1,0.6870201000128873,603.8671583000105,None,None,0,,,,,,,,,,,,,,104,22,Male,2022-04-29_14h16.55.558,Parachute,2022.1.1,60.06969286035843,
positive,yellow,2,None,k,,,,,,,,,0,136,136,136,,,,,,,,,,,,,,,,,,,,,,,,,,,,,,,,,,,,,main,None,None,1,1.4934072999749333,605.5538182000164,None,None,1,,,,,,,,,,,,,,104,22,Male,2022-04-29_14h16.55.558,Parachute,2022.1.1,60.06969286035843,
positive,blue,1,k,None,,,,,,,,,0,137,137,137,,,,,,,,,,,,,,,,,,,,,,,,,,,,,,,,,,,,,main,k,k,1,0.7537136000173632,608.0506656000216,None,None,0,,,,,,,,,,,,,,104,22,Male,2022-04-29_14h16.55.558,Parachute,2022.1.1,60.06969286035843,
positive,yellow,1,None,k,,,,,,,,,0,138,138,138,,,,,,,,,,,,,,,,,,,,,,,,,,,,,,,,,,,,,main,None,None,1,1.4932490999926813,609.8034501000075,None,None,1,,,,,,,,,,,,,,104,22,Male,2022-04-29_14h16.55.558,Parachute,2022.1.1,60.06969286035843,
positive,yellow,1,None,k,,,,,,,,,0,139,139,139,,,,,,,,,,,,,,,,,,,,,,,,,,,,,,,,,,,,,main,None,None,1,1.4991577999899164,612.300293200009,None,None,1,,,,,,,,,,,,,,104,22,Male,2022-04-29_14h16.55.558,Parachute,2022.1.1,60.06969286035843,
positive,yellow,1,None,k,,,,,,,,,0,140,140,140,,,,,,,,,,,,,,,,,,,,,,,,,,,,,,,,,,,,,main,None,None,1,1.4988538000034168,614.8009776000108,None,None,1,,,,,,,,,,,,,,104,22,Male,2022-04-29_14h16.55.558,Parachute,2022.1.1,60.06969286035843,
positive,blue,1,k,None,,,,,,,,,0,141,141,141,,,,,,,,,,,,,,,,,,,,,,,,,,,,,,,,,,,,,main,k,k,1,0.8373591999989003,617.3007336000155,None,None,0,,,,,,,,,,,,,,104,22,Male,2022-04-29_14h16.55.558,Parachute,2022.1.1,60.06969286035843,
positive,blue,2,k,None,,,,,,,,,0,142,142,142,,,,,,,,,,,,,,,,,,,,,,,,,,,,,,,,,,,,,main,k,k,1,0.7133795999980066,619.1377247000055,None,None,0,,,,,,,,,,,,,,104,22,Male,2022-04-29_14h16.55.558,Parachute,2022.1.1,60.06969286035843,
positive,yellow,2,None,k,,,,,,,,,0,143,143,143,,,,,,,,,,,,,,,,,,,,,,,,,,,,,,,,,,,,,main,None,None,1,1.4954344000143465,620.8540068000148,None,None,1,,,,,,,,,,,,,,104,22,Male,2022-04-29_14h16.55.558,Parachute,2022.1.1,60.06969286035843,
negative,yellow,2,k,None,,,,,,,,,0,144,144,144,,,,,,,,,,,,,,,,,,,,,,,,,,,,,,,,,,,,,main,k,k,1,0.6874962000001688,623.3519068000023,None,None,0,,,,,,,,,,,,,,104,22,Male,2022-04-29_14h16.55.558,Parachute,2022.1.1,60.06969286035843,
negative,blue,2,None,k,,,,,,,,,0,145,145,145,,,,,,,,,,,,,,,,,,,,,,,,,,,,,,,,,,,,,main,None,None,1,1.4931666000047699,625.0373451000196,None,None,1,,,,,,,,,,,,,,104,22,Male,2022-04-29_14h16.55.558,Parachute,2022.1.1,60.06969286035843,
negative,red,1,None,None,,,,,,,,,0,146,146,146,,,,,,,,,,,,,,,,,,,,,,,,,,,,,,,,,,,,,main,None,None,1,1.4985862000030465,627.5345726000087,None,None,1,,,,,,,,,,,,,,104,22,Male,2022-04-29_14h16.55.558,Parachute,2022.1.1,60.06969286035843,
positive,blue,1,k,None,,,,,,,,,0,147,147,147,,,,,,,,,,,,,,,,,,,,,,,,,,,,,,,,,,,,,main,k,k,1,0.770603500015568,630.0346047000203,None,None,0,,,,,,,,,,,,,,104,22,Male,2022-04-29_14h16.55.558,Parachute,2022.1.1,60.06969286035843,
positive,yellow,1,None,k,,,,,,,,,0,148,148,148,,,,,,,,,,,,,,,,,,,,,,,,,,,,,,,,,,,,,main,None,None,1,1.4934330999967642,631.804113900027,None,None,1,,,,,,,,,,,,,,104,22,Male,2022-04-29_14h16.55.558,Parachute,2022.1.1,60.06969286035843,
negative,red,2,None,None,,,,,,,,,0,149,149,149,,,,,,,,,,,,,,,,,,,,,,,,,,,,,,,,,,,,,main,None,None,1,1.4985023999761324,634.301372100017,None,None,1,,,,,,,,,,,,,,104,22,Male,2022-04-29_14h16.55.558,Parachute,2022.1.1,60.06969286035843,
negative,blue,1,None,k,,,,,,,,,0,150,150,150,,,,,,,,,,,,,,,,,,,,,,,,,,,,,,,,,,,,,main,None,None,1,1.4985037999867927,636.8016606000019,None,None,1,,,,,,,,,,,,,,104,22,Male,2022-04-29_14h16.55.558,Parachute,2022.1.1,60.06969286035843,
negative,yellow,2,k,None,,,,,,,,,0,151,151,151,,,,,,,,,,,,,,,,,,,,,,,,,,,,,,,,,,,,,main,k,k,1,0.8205736000090837,639.3010993000062,None,None,0,,,,,,,,,,,,,,104,22,Male,2022-04-29_14h16.55.558,Parachute,2022.1.1,60.06969286035843,
negative,blue,2,None,k,,,,,,,,,0,152,152,152,,,,,,,,,,,,,,,,,,,,,,,,,,,,,,,,,,,,,main,None,None,1,1.4939676000212785,641.1295393000182,None,None,1,,,,,,,,,,,,,,104,22,Male,2022-04-29_14h16.55.558,Parachute,2022.1.1,60.06969286035843,
negative,yellow,1,k,None,,,,,,,,,0,153,153,153,,,,,,,,,,,,,,,,,,,,,,,,,,,,,,,,,,,,,main,k,k,1,0.7376980000117328,643.6182078999991,None,None,0,,,,,,,,,,,,,,104,22,Male,2022-04-29_14h16.55.558,Parachute,2022.1.1,60.06969286035843,
negative,blue,1,None,k,,,,,,,,,0,154,154,154,,,,,,,,,,,,,,,,,,,,,,,,,,,,,,,,,,,,,main,None,None,1,1.4927975999889895,645.3555553000188,None,None,1,,,,,,,,,,,,,,104,22,Male,2022-04-29_14h16.55.558,Parachute,2022.1.1,60.06969286035843,
positive,yellow,2,None,k,,,,,,,,,0,155,155,155,,,,,,,,,,,,,,,,,,,,,,,,,,,,,,,,,,,,,main,None,None,1,1.498638100019889,647.8512281000149,None,None,1,,,,,,,,,,,,,,104,22,Male,2022-04-29_14h16.55.558,Parachute,2022.1.1,60.06969286035843,
positive,red,2,None,None,,,,,,,,,0,156,156,156,,,,,,,,,,,,,,,,,,,,,,,,,,,,,,,,,,,,,main,None,None,1,1.4990523000014946,650.3513979999989,None,None,1,,,,,,,,,,,,,,104,22,Male,2022-04-29_14h16.55.558,Parachute,2022.1.1,60.06969286035843,
positive,red,1,None,None,,,,,,,,,0,157,157,157,,,,,,,,,,,,,,,,,,,,,,,,,,,,,,,,,,,,,main,None,None,1,1.4981727999984287,652.851558400027,None,None,1,,,,,,,,,,,,,,104,22,Male,2022-04-29_14h16.55.558,Parachute,2022.1.1,60.06969286035843,
positive,blue,2,k,None,,,,,,,,,0,158,158,158,,,,,,,,,,,,,,,,,,,,,,,,,,,,,,,,,,,,,main,k,k,1,0.7880826999899,655.3508238000213,None,None,0,,,,,,,,,,,,,,104,22,Male,2022-04-29_14h16.55.558,Parachute,2022.1.1,60.06969286035843,
negative,yellow,1,k,None,,,,,,,,,0,159,159,159,,,,,,,,,,,,,,,,,,,,,,,,,,,,,,,,,,,,,main,k,k,1,0.8273642999993172,657.1382851000235,None,None,0,,,,,,,,,,,,,,104,22,Male,2022-04-29_14h16.55.558,Parachute,2022.1.1,60.06969286035843,
negative,red,2,None,None,,,,,,,,,0,160,160,160,,,,,,,,,,,,,,,,,,,,,,,,,,,,,,,,,,,,,main,None,None,1,1.499284700024873,658.9688932000136,None,None,1,,,,,,,,,,,,,,104,22,Male,2022-04-29_14h16.55.558,Parachute,2022.1.1,60.06969286035843,
negative,blue,1,None,k,,,,,,,,,0,161,161,161,,,,,,,,,,,,,,,,,,,,,,,,,,,,,,,,,,,,,main,None,None,1,1.4989524999982677,661.4700034999987,None,None,1,,,,,,,,,,,,,,104,22,Male,2022-04-29_14h16.55.558,Parachute,2022.1.1,60.06969286035843,
negative,blue,1,None,k,,,,,,,,,0,162,162,162,,,,,,,,,,,,,,,,,,,,,,,,,,,,,,,,,,,,,main,None,None,1,1.49899419999565,663.9704895000032,None,None,1,,,,,,,,,,,,,,104,22,Male,2022-04-29_14h16.55.558,Parachute,2022.1.1,60.06969286035843,
negative,yellow,1,k,None,,,,,,,,,0,163,163,163,,,,,,,,,,,,,,,,,,,,,,,,,,,,,,,,,,,,,main,k,k,1,0.8024519000027794,666.4701393000141,None,None,0,,,,,,,,,,,,,,104,22,Male,2022-04-29_14h16.55.558,Parachute,2022.1.1,60.06969286035843,
negative,yellow,1,k,None,,,,,,,,,0,164,164,164,,,,,,,,,,,,,,,,,,,,,,,,,,,,,,,,,,,,,main,k,k,1,0.73154649999924,668.2716546000156,None,None,0,,,,,,,,,,,,,,104,22,Male,2022-04-29_14h16.55.558,Parachute,2022.1.1,60.06969286035843,
positive,yellow,1,None,k,,,,,,,,,0,165,165,165,,,,,,,,,,,,,,,,,,,,,,,,,,,,,,,,,,,,,main,None,None,1,1.493671300006099,670.0050001000054,None,None,1,,,,,,,,,,,,,,104,22,Male,2022-04-29_14h16.55.558,Parachute,2022.1.1,60.06969286035843,
negative,red,1,None,None,,,,,,,,,0,166,166,166,,,,,,,,,,,,,,,,,,,,,,,,,,,,,,,,,,,,,main,None,None,1,1.4988693000050262,672.5017357000033,None,None,1,,,,,,,,,,,,,,104,22,Male,2022-04-29_14h16.55.558,Parachute,2022.1.1,60.06969286035843,
negative,yellow,2,k,None,,,,,,,,,0,167,167,167,,,,,,,,,,,,,,,,,,,,,,,,,,,,,,,,,,,,,main,k,k,1,0.8198665000090841,675.0019411000249,None,None,0,,,,,,,,,,,,,,104,22,Male,2022-04-29_14h16.55.558,Parachute,2022.1.1,60.06969286035843,
positive,blue,2,k,None,,,,,,,,,0,168,168,168,,,,,,,,,,,,,,,,,,,,,,,,,,,,,,,,,,,,,main,k,k,1,0.7823145000147633,676.8217837999982,None,None,0,,,,,,,,,,,,,,104,22,Male,2022-04-29_14h16.55.558,Parachute,2022.1.1,60.06969286035843,
positive,red,2,None,None,,,,,,,,,0,169,169,169,,,,,,,,,,,,,,,,,,,,,,,,,,,,,,,,,,,,,main,None,None,1,1.4935565000050701,678.604900300008,None,None,1,,,,,,,,,,,,,,104,22,Male,2022-04-29_14h16.55.558,Parachute,2022.1.1,60.06969286035843,
positive,red,1,None,None,,,,,,,,,0,170,170,170,,,,,,,,,,,,,,,,,,,,,,,,,,,,,,,,,,,,,main,None,None,1,1.498956299998099,681.1022764000227,None,None,1,,,,,,,,,,,,,,104,22,Male,2022-04-29_14h16.55.558,Parachute,2022.1.1,60.06969286035843,
negative,blue,2,None,k,,,,,,,,,0,171,171,171,,,,,,,,,,,,,,,,,,,,,,,,,,,,,,,,,,,,,main,None,None,1,1.4986779000028037,683.6020478999999,None,None,1,,,,,,,,,,,,,,104,22,Male,2022-04-29_14h16.55.558,Parachute,2022.1.1,60.06969286035843,
positive,blue,2,k,None,,,,,,,,,0,172,172,172,,,,,,,,,,,,,,,,,,,,,,,,,,,,,,,,,,,,,main,k,k,1,0.6710611999733374,686.1017792000202,None,None,0,,,,,,,,,,,,,,104,22,Male,2022-04-29_14h16.55.558,Parachute,2022.1.1,60.06969286035843,
negative,yellow,2,k,None,,,,,,,,,0,173,173,173,,,,,,,,,,,,,,,,,,,,,,,,,,,,,,,,,,,,,main,k,k,1,0.8813874000043143,687.772012100002,None,None,0,,,,,,,,,,,,,,104,22,Male,2022-04-29_14h16.55.558,Parachute,2022.1.1,60.06969286035843,
positive,yellow,2,None,k,,,,,,,,,0,174,174,174,,,,,,,,,,,,,,,,,,,,,,,,,,,,,,,,,,,,,main,None,None,1,1.493731199996546,689.6551908000256,None,None,1,,,,,,,,,,,,,,104,22,Male,2022-04-29_14h16.55.558,Parachute,2022.1.1,60.06969286035843,
negative,blue,2,None,k,,,,,,,,,0,175,175,175,,,,,,,,,,,,,,,,,,,,,,,,,,,,,,,,,,,,,main,None,None,1,1.4987956000259146,692.1520315000089,None,None,1,,,,,,,,,,,,,,104,22,Male,2022-04-29_14h16.55.558,Parachute,2022.1.1,60.06969286035843,
positive,blue,1,k,None,,,,,,,,,0,176,176,176,,,,,,,,,,,,,,,,,,,,,,,,,,,,,,,,,,,,,main,k,k,1,0.8203860000066925,694.6522590000241,None,None,0,,,,,,,,,,,,,,104,22,Male,2022-04-29_14h16.55.558,Parachute,2022.1.1,60.06969286035843,
positive,yellow,1,None,k,,,,,,,,,0,177,177,177,,,,,,,,,,,,,,,,,,,,,,,,,,,,,,,,,,,,,main,None,None,1,1.4937901000084821,696.472018600005,None,None,1,,,,,,,,,,,,,,104,22,Male,2022-04-29_14h16.55.558,Parachute,2022.1.1,60.06969286035843,
positive,blue,1,k,None,,,,,,,,,0,178,178,178,,,,,,,,,,,,,,,,,,,,,,,,,,,,,,,,,,,,,main,k,k,1,0.8527096000034362,698.9690689000126,None,None,0,,,,,,,,,,,,,,104,22,Male,2022-04-29_14h16.55.558,Parachute,2022.1.1,60.06969286035843,
positive,yellow,2,None,k,,,,,,,,,0,179,179,179,,,,,,,,,,,,,,,,,,,,,,,,,,,,,,,,,,,,,main,None,None,1,1.4946583999844734,700.822052500007,None,None,1,,,,,,,,,,,,,,104,22,Male,2022-04-29_14h16.55.558,Parachute,2022.1.1,60.06969286035843,
positive,blue,1,k,None,,,,,,,,,0,180,180,180,,,,,,,,,,,,,,,,,,,,,,,,,,,,,,,,,,,,,main,k,k,1,0.7363060000061523,703.3193291000207,None,None,0,,,,,,,,,,,,,,104,22,Male,2022-04-29_14h16.55.558,Parachute,2022.1.1,60.06969286035843,
negative,red,1,None,None,,,,,,,,,0,181,181,181,,,,,,,,,,,,,,,,,,,,,,,,,,,,,,,,,,,,,main,None,None,1,1.4946519000222906,705.055388000008,None,None,1,,,,,,,,,,,,,,104,22,Male,2022-04-29_14h16.55.558,Parachute,2022.1.1,60.06969286035843,
negative,blue,1,None,k,,,,,,,,,0,182,182,182,,,,,,,,,,,,,,,,,,,,,,,,,,,,,,,,,,,,,main,None,None,1,1.498346300009871,707.5525258000125,None,None,1,,,,,,,,,,,,,,104,22,Male,2022-04-29_14h16.55.558,Parachute,2022.1.1,60.06969286035843,
negative,yellow,2,k,None,,,,,,,,,0,183,183,183,,,,,,,,,,,,,,,,,,,,,,,,,,,,,,,,,,,,,main,k,k,1,0.7036758000031114,710.0528197000094,None,None,0,,,,,,,,,,,,,,104,22,Male,2022-04-29_14h16.55.558,Parachute,2022.1.1,60.06969286035843,
positive,yellow,2,None,k,,,,,,,,,0,184,184,184,,,,,,,,,,,,,,,,,,,,,,,,,,,,,,,,,,,,,main,None,None,1,1.4935475999955088,711.7559317999985,None,None,1,,,,,,,,,,,,,,104,22,Male,2022-04-29_14h16.55.558,Parachute,2022.1.1,60.06969286035843,
positive,yellow,1,None,k,,,,,,,,,0,185,185,185,,,,,,,,,,,,,,,,,,,,,,,,,,,,,,,,,,,,,main,None,None,1,1.4993031999911182,714.2519966000109,None,None,1,,,,,,,,,,,,,,104,22,Male,2022-04-29_14h16.55.558,Parachute,2022.1.1,60.06969286035843,
positive,red,2,None,None,,,,,,,,,0,186,186,186,,,,,,,,,,,,,,,,,,,,,,,,,,,,,,,,,,,,,main,None,None,1,1.4983674999966752,716.7532372999995,None,None,1,,,,,,,,,,,,,,104,22,Male,2022-04-29_14h16.55.558,Parachute,2022.1.1,60.06969286035843,
positive,blue,1,k,None,,,,,,,,,0,187,187,187,,,,,,,,,,,,,,,,,,,,,,,,,,,,,,,,,,,,,main,k,k,1,0.754928700014716,719.2527206000232,None,None,0,,,,,,,,,,,,,,104,22,Male,2022-04-29_14h16.55.558,Parachute,2022.1.1,60.06969286035843,
negative,yellow,1,k,None,,,,,,,,,0,188,188,188,,,,,,,,,,,,,,,,,,,,,,,,,,,,,,,,,,,,,main,k,k,1,0.76447090000147,721.0168126000208,None,None,0,,,,,,,,,,,,,,104,22,Male,2022-04-29_14h16.55.558,Parachute,2022.1.1,60.06969286035843,
positive,yellow,2,None,k,,,,,,,,,0,189,189,189,,,,,,,,,,,,,,,,,,,,,,,,,,,,,,,,,,,,,main,None,None,1,1.4931967000011355,722.7731364000065,None,None,1,,,,,,,,,,,,,,104,22,Male,2022-04-29_14h16.55.558,Parachute,2022.1.1,60.06969286035843,
negative,yellow,2,k,None,,,,,,,,,0,190,190,190,,,,,,,,,,,,,,,,,,,,,,,,,,,,,,,,,,,,,main,k,k,1,0.7215052999963518,725.2692939000262,None,None,0,,,,,,,,,,,,,,104,22,Male,2022-04-29_14h16.55.558,Parachute,2022.1.1,60.06969286035843,
negative,yellow,1,k,None,,,,,,,,,0,191,191,191,,,,,,,,,,,,,,,,,,,,,,,,,,,,,,,,,,,,,main,k,k,1,0.8755276000010781,726.9902090000105,None,None,0,,,,,,,,,,,,,,104,22,Male,2022-04-29_14h16.55.558,Parachute,2022.1.1,60.06969286035843,
positive,blue,2,k,None,,,,,,,,,0,192,192,192,,,,,,,,,,,,,,,,,,,,,,,,,,,,,,,,,,,,,main,k,k,1,0.7383149999950547,728.8688776000054,None,None,0,,,,,,,,,,,,,,104,22,Male,2022-04-29_14h16.55.558,Parachute,2022.1.1,60.06969286035843,
positive,yellow,1,None,k,,,,,,,,,0,193,193,193,,,,,,,,,,,,,,,,,,,,,,,,,,,,,,,,,,,,,main,None,None,1,1.4933008999796584,730.6057996000163,None,None,1,,,,,,,,,,,,,,104,22,Male,2022-04-29_14h16.55.558,Parachute,2022.1.1,60.06969286035843,
negative,red,2,None,None,,,,,,,,,0,194,194,194,,,,,,,,,,,,,,,,,,,,,,,,,,,,,,,,,,,,,main,None,None,1,1.4985319999977946,733.103316600027,None,None,1,,,,,,,,,,,,,,104,22,Male,2022-04-29_14h16.55.558,Parachute,2022.1.1,60.06969286035843,
positive,red,1,None,None,,,,,,,,,0,195,195,195,,,,,,,,,,,,,,,,,,,,,,,,,,,,,,,,,,,,,main,None,None,1,1.499043999996502,735.603105200018,None,None,1,,,,,,,,,,,,,,104,22,Male,2022-04-29_14h16.55.558,Parachute,2022.1.1,60.06969286035843,
negative,blue,1,None,k,,,,,,,,,0,196,196,196,,,,,,,,,,,,,,,,,,,,,,,,,,,,,,,,,,,,,main,None,None,1,1.4983184000011533,738.1033317000256,None,None,1,,,,,,,,,,,,,,104,22,Male,2022-04-29_14h16.55.558,Parachute,2022.1.1,60.06969286035843,
positive,blue,2,k,None,,,,,,,,,0,197,197,197,,,,,,,,,,,,,,,,,,,,,,,,,,,,,,,,,,,,,main,k,k,1,0.7548326999822166,740.6032957000134,None,None,0,,,,,,,,,,,,,,104,22,Male,2022-04-29_14h16.55.558,Parachute,2022.1.1,60.06969286035843,
negative,blue,2,None,k,,,,,,,,,0,198,198,198,,,,,,,,,,,,,,,,,,,,,,,,,,,,,,,,,,,,,main,None,None,1,1.492950900021242,742.3645053000073,None,None,1,,,,,,,,,,,,,,104,22,Male,2022-04-29_14h16.55.558,Parachute,2022.1.1,60.06969286035843,
negative,blue,2,None,k,,,,,,,,,0,199,199,199,,,,,,,,,,,,,,,,,,,,,,,,,,,,,,,,,,,,,main,None,None,1,1.4987398000084795,744.8531080000103,None,None,1,,,,,,,,,,,,,,104,22,Male,2022-04-29_14h16.55.558,Parachute,2022.1.1,60.06969286035843,
positive,blue,2,k,None,,,,,,,,,0,200,200,200,,,,,,,,,,,,,,,,,,,,,,,,,,,,,,,,,,,,,main,k,k,1,0.703956899989862,747.3540846000251,None,None,0,,,,,,,,,,,,,,104,22,Male,2022-04-29_14h16.55.558,Parachute,2022.1.1,60.06969286035843,
positive,blue,2,k,None,,,,,,,,,0,201,201,201,,,,,,,,,,,,,,,,,,,,,,,,,,,,,,,,,,,,,main,k,k,1,0.774204200017266,749.0565124000132,None,None,0,,,,,,,,,,,,,,104,22,Male,2022-04-29_14h16.55.558,Parachute,2022.1.1,60.06969286035843,
negative,yellow,2,k,None,,,,,,,,,0,202,202,202,,,,,,,,,,,,,,,,,,,,,,,,,,,,,,,,,,,,,main,k,k,1,0.6724972999945749,750.8347713000257,None,None,0,,,,,,,,,,,,,,104,22,Male,2022-04-29_14h16.55.558,Parachute,2022.1.1,60.06969286035843,
positive,red,1,None,None,,,,,,,,,0,203,203,203,,,,,,,,,,,,,,,,,,,,,,,,,,,,,,,,,,,,,main,None,None,1,1.4943870000133757,752.5070083000173,None,None,1,,,,,,,,,,,,,,104,22,Male,2022-04-29_14h16.55.558,Parachute,2022.1.1,60.06969286035843,
negative,blue,2,None,k,,,,,,,,,0,204,204,204,,,,,,,,,,,,,,,,,,,,,,,,,,,,,,,,,,,,,main,None,None,1,1.498446600016905,755.0051766000106,None,None,1,,,,,,,,,,,,,,104,22,Male,2022-04-29_14h16.55.558,Parachute,2022.1.1,60.06969286035843,
negative,red,1,None,None,,,,,,,,,0,205,205,205,,,,,,,,,,,,,,,,,,,,,,,,,,,,,,,,,,,,,main,None,None,1,1.4999772000010125,757.504198700015,None,None,1,,,,,,,,,,,,,,104,22,Male,2022-04-29_14h16.55.558,Parachute,2022.1.1,60.06969286035843,
negative,blue,2,None,k,,,,,,,,,0,206,206,206,,,,,,,,,,,,,,,,,,,,,,,,,,,,,,,,,,,,,main,None,None,1,1.497807899984764,760.0071866000071,None,None,1,,,,,,,,,,,,,,104,22,Male,2022-04-29_14h16.55.558,Parachute,2022.1.1,60.06969286035843,
negative,yellow,2,k,None,,,,,,,,,0,207,207,207,,,,,,,,,,,,,,,,,,,,,,,,,,,,,,,,,,,,,main,k,k,1,0.7703581000096165,762.505007300002,None,None,0,,,,,,,,,,,,,,104,22,Male,2022-04-29_14h16.55.558,Parachute,2022.1.1,60.06969286035843,
positive,yellow,2,None,k,,,,,,,,,0,208,208,208,,,,,,,,,,,,,,,,,,,,,,,,,,,,,,,,,,,,,main,None,None,1,1.4935703000228386,764.2735202000185,None,None,1,,,,,,,,,,,,,,104,22,Male,2022-04-29_14h16.55.558,Parachute,2022.1.1,60.06969286035843,
negative,yellow,1,k,None,,,,,,,,,0,209,209,209,,,,,,,,,,,,,,,,,,,,,,,,,,,,,,,,,,,,,main,k,k,1,0.7207851000130177,766.769781400013,None,None,0,,,,,,,,,,,,,,104,22,Male,2022-04-29_14h16.55.558,Parachute,2022.1.1,60.06969286035843,
negative,red,2,None,None,,,,,,,,,0,210,210,210,,,,,,,,,,,,,,,,,,,,,,,,,,,,,,,,,,,,,main,None,None,1,1.4931612999935169,768.4907117000257,None,None,1,,,,,,,,,,,,,,104,22,Male,2022-04-29_14h16.55.558,Parachute,2022.1.1,60.06969286035843,
negative,blue,1,None,k,,,,,,,,,0,211,211,211,,,,,,,,,,,,,,,,,,,,,,,,,,,,,,,,,,,,,main,None,None,1,1.4993303999945056,770.9864944000146,None,None,1,,,,,,,,,,,,,,104,22,Male,2022-04-29_14h16.55.558,Parachute,2022.1.1,60.06969286035843,
negative,yellow,1,k,None,,,,,,,,,0,212,212,212,,,,,,,,,,,,,,,,,,,,,,,,,,,,,,,,,,,,,main,k,k,1,0.729135600005975,773.4866718000267,None,None,0,,,,,,,,,,,,,,104,22,Male,2022-04-29_14h16.55.558,Parachute,2022.1.1,60.06969286035843,
positive,blue,1,k,None,,,,,,,,,0,213,213,213,,,,,,,,,,,,,,,,,,,,,,,,,,,,,,,,,,,,,main,k,k,1,1.0066637999843806,775.2184079000144,None,None,0,,,,,,,,,,,,,,104,22,Male,2022-04-29_14h16.55.558,Parachute,2022.1.1,60.06969286035843,
positive,blue,1,k,None,,,,,,,,,0,214,214,214,,,,,,,,,,,,,,,,,,,,,,,,,,,,,,,,,,,,,main,k,k,1,0.7148692000191659,777.2236681000213,None,None,0,,,,,,,,,,,,,,104,22,Male,2022-04-29_14h16.55.558,Parachute,2022.1.1,60.06969286035843,
positive,yellow,1,None,k,,,,,,,,,0,215,215,215,,,,,,,,,,,,,,,,,,,,,,,,,,,,,,,,,,,,,main,None,None,1,1.4939264999993611,778.9406801000005,None,None,1,,,,,,,,,,,,,,104,22,Male,2022-04-29_14h16.55.558,Parachute,2022.1.1,60.06969286035843,
positive,yellow,1,None,k,,,,,,,,,0,216,216,216,,,,,,,,,,,,,,,,,,,,,,,,,,,,,,,,,,,,,main,None,None,1,1.498917299992172,781.4372158000187,None,None,1,,,,,,,,,,,,,,104,22,Male,2022-04-29_14h16.55.558,Parachute,2022.1.1,60.06969286035843,
positive,yellow,2,None,k,,,,,,,,,0,217,217,217,,,,,,,,,,,,,,,,,,,,,,,,,,,,,,,,,,,,,main,None,None,1,1.4982440000167117,783.938178500015,None,None,1,,,,,,,,,,,,,,104,22,Male,2022-04-29_14h16.55.558,Parachute,2022.1.1,60.06969286035843,
negative,blue,1,None,k,,,,,,,,,0,218,218,218,,,,,,,,,,,,,,,,,,,,,,,,,,,,,,,,,,,,,main,None,None,1,1.498944599996321,786.4371124000172,None,None,1,,,,,,,,,,,,,,104,22,Male,2022-04-29_14h16.55.558,Parachute,2022.1.1,60.06969286035843,
positive,red,2,None,None,,,,,,,,,0,219,219,219,,,,,,,,,,,,,,,,,,,,,,,,,,,,,,,,,,,,,main,None,None,1,1.4984077000117395,788.9376027000253,None,None,1,,,,,,,,,,,,,,104,22,Male,2022-04-29_14h16.55.558,Parachute,2022.1.1,60.06969286035843,
positive,yellow,1,None,k,,,,,,,,,0,220,220,220,,,,,,,,,,,,,,,,,,,,,,,,,,,,,,,,,,,,,main,None,None,1,1.4990562000020873,791.4375559000182,None,None,1,,,,,,,,,,,,,,104,22,Male,2022-04-29_14h16.55.558,Parachute,2022.1.1,60.06969286035843,
positive,blue,1,k,None,,,,,,,,,0,221,221,221,,,,,,,,,,,,,,,,,,,,,,,,,,,,,,,,,,,,,main,k,k,1,0.7705256000044756,793.9376474000164,None,None,0,,,,,,,,,,,,,,104,22,Male,2022-04-29_14h16.55.558,Parachute,2022.1.1,60.06969286035843,
positive,yellow,2,None,k,,,,,,,,,0,222,222,222,,,,,,,,,,,,,,,,,,,,,,,,,,,,,,,,,,,,,main,None,None,1,1.4936920999898575,795.7074867000047,None,None,1,,,,,,,,,,,,,,104,22,Male,2022-04-29_14h16.55.558,Parachute,2022.1.1,60.06969286035843,
negative,yellow,1,k,None,,,,,,,,,0,223,223,223,,,,,,,,,,,,,,,,,,,,,,,,,,,,,,,,,,,,,main,k,k,1,1.2202152000099886,798.2051178000111,None,None,0,,,,,,,,,,,,,,104,22,Male,2022-04-29_14h16.55.558,Parachute,2022.1.1,60.06969286035843,
positive,yellow,2,None,k,,,,,,,,,0,224,224,224,,,,,,,,,,,,,,,,,,,,,,,,,,,,,,,,,,,,,main,None,None,1,1.4932977000134997,800.4241553000174,None,None,1,,,,,,,,,,,,,,104,22,Male,2022-04-29_14h16.55.558,Parachute,2022.1.1,60.06969286035843,
negative,yellow,2,k,None,,,,,,,,,0,225,225,225,,,,,,,,,,,,,,,,,,,,,,,,,,,,,,,,,,,,,main,k,k,1,0.7535215000098106,802.9205226000049,None,None,0,,,,,,,,,,,,,,104,22,Male,2022-04-29_14h16.55.558,Parachute,2022.1.1,60.06969286035843,
negative,blue,2,None,k,,,,,,,,,0,226,226,226,,,,,,,,,,,,,,,,,,,,,,,,,,,,,,,,,,,,,main,None,None,1,1.4938358000072185,804.6741515000176,None,None,1,,,,,,,,,,,,,,104,22,Male,2022-04-29_14h16.55.558,Parachute,2022.1.1,60.06969286035843,
positive,red,2,None,None,,,,,,,,,0,227,227,227,,,,,,,,,,,,,,,,,,,,,,,,,,,,,,,,,,,,,main,None,None,1,1.499132400000235,807.1711175000237,None,None,1,,,,,,,,,,,,,,104,22,Male,2022-04-29_14h16.55.558,Parachute,2022.1.1,60.06969286035843,
positive,blue,2,k,None,,,,,,,,,0,228,228,228,,,,,,,,,,,,,,,,,,,,,,,,,,,,,,,,,,,,,main,k,k,1,0.7192150999908336,809.671490800014,None,None,0,,,,,,,,,,,,,,104,22,Male,2022-04-29_14h16.55.558,Parachute,2022.1.1,60.06969286035843,
negative,blue,1,None,k,,,,,,,,,0,229,229,229,,,,,,,,,,,,,,,,,,,,,,,,,,,,,,,,,,,,,main,None,None,1,1.4946303000033367,811.3905479000241,None,None,1,,,,,,,,,,,,,,104,22,Male,2022-04-29_14h16.55.558,Parachute,2022.1.1,60.06969286035843,
positive,yellow,1,None,k,,,,,,,,,0,230,230,230,,,,,,,,,,,,,,,,,,,,,,,,,,,,,,,,,,,,,main,None,None,1,1.498853400000371,813.8877747000079,None,None,1,,,,,,,,,,,,,,104,22,Male,2022-04-29_14h16.55.558,Parachute,2022.1.1,60.06969286035843,
negative,blue,2,None,k,,,,,,,,,0,231,231,231,,,,,,,,,,,,,,,,,,,,,,,,,,,,,,,,,,,,,main,None,None,1,1.4990144000039436,816.3878130000085,None,None,1,,,,,,,,,,,,,,104,22,Male,2022-04-29_14h16.55.558,Parachute,2022.1.1,60.06969286035843,
negative,red,1,None,None,,,,,,,,,0,232,232,232,,,,,,,,,,,,,,,,,,,,,,,,,,,,,,,,,,,,,main,None,None,1,1.498530100012431,818.8883873000159,None,None,1,,,,,,,,,,,,,,104,22,Male,2022-04-29_14h16.55.558,Parachute,2022.1.1,60.06969286035843,
positive,blue,2,k,None,,,,,,,,,0,233,233,233,,,,,,,,,,,,,,,,,,,,,,,,,,,,,,,,,,,,,main,k,k,1,0.6889313000137918,821.3884521000145,None,None,0,,,,,,,,,,,,,,104,22,Male,2022-04-29_14h16.55.558,Parachute,2022.1.1,60.06969286035843,
negative,yellow,1,k,None,,,,,,,,,0,234,234,234,,,,,,,,,,,,,,,,,,,,,,,,,,,,,,,,,,,,,main,k,k,1,0.8809812999970745,823.0764353999984,None,None,0,,,,,,,,,,,,,,104,22,Male,2022-04-29_14h16.55.558,Parachute,2022.1.1,60.06969286035843,
negative,yellow,2,k,None,,,,,,,,,0,235,235,235,,,,,,,,,,,,,,,,,,,,,,,,,,,,,,,,,,,,,main,k,k,1,0.8648626999929547,824.9587733000226,None,None,0,,,,,,,,,,,,,,104,22,Male,2022-04-29_14h16.55.558,Parachute,2022.1.1,60.06969286035843,
positive,red,1,None,None,,,,,,,,,0,236,236,236,,,,,,,,,,,,,,,,,,,,,,,,,,,,,,,,,,,,,main,None,None,1,1.49325410000165,826.8244160000177,None,None,1,,,,,,,,,,,,,,104,22,Male,2022-04-29_14h16.55.558,Parachute,2022.1.1,60.06969286035843,
negative,red,2,None,None,,,,,,,,,0,237,237,237,,,,,,,,,,,,,,,,,,,,,,,,,,,,,,,,,,,,,main,None,None,1,1.4987259000190534,829.3216523000156,None,None,1,,,,,,,,,,,,,,104,22,Male,2022-04-29_14h16.55.558,Parachute,2022.1.1,60.06969286035843,
negative,blue,1,None,k,,,,,,,,,0,238,238,238,,,,,,,,,,,,,,,,,,,,,,,,,,,,,,,,,,,,,main,None,None,1,1.4986783000058495,831.821507900022,None,None,1,,,,,,,,,,,,,,104,22,Male,2022-04-29_14h16.55.558,Parachute,2022.1.1,60.06969286035843,
positive,blue,1,k,None,,,,,,,,,0,239,239,239,,,,,,,,,,,,,,,,,,,,,,,,,,,,,,,,,,,,,main,k,k,1,0.7038681999838445,834.3214643000101,None,None,0,,,,,,,,,,,,,,104,22,Male,2022-04-29_14h16.55.558,Parachute,2022.1.1,60.06969286035843,
,,,,,,,,,,,,,,,,,,,,,,,,,,,,,,,,,,,,,,,,,,,,,,,,,,,,,,,,,,,,,,,,,,,,,,,,,836.0213959000248,None,,,,,,,,
