distractor,target,set,ans1,ans2,rep_loop4.thisRepN,rep_loop4.thisTrialN,rep_loop4.thisN,rep_loop4.thisIndex,st2_prac_loop.thisRepN,st2_prac_loop.thisTrialN,st2_prac_loop.thisN,st2_prac_loop.thisIndex,st2_main_loop.thisRepN,st2_main_loop.thisTrialN,st2_main_loop.thisN,st2_main_loop.thisIndex,image_4.started,image_4.stopped,mouse_7.x,mouse_7.y,mouse_7.leftButton,mouse_7.midButton,mouse_7.rightButton,sound_2.started,sound_2.stopped,key_resp_3.keys,mouse_5.x,mouse_5.y,mouse_5.leftButton,mouse_5.midButton,mouse_5.rightButton,mouse_5.started,mouse_5.stopped,yes_text2.started,yes_text2.stopped,no_text2.started,no_text2.stopped,mouse_3.x,mouse_3.y,mouse_3.leftButton,mouse_3.midButton,mouse_3.rightButton,mouse_3.started,mouse_3.stopped,st_prac_back.started,st_prac_back.stopped,st_prac_text.started,st_prac_text.stopped,st_fix_back.started,st_fix_back.stopped,st_fix_2.started,st_fix_2.stopped,main_prac,st_ans,st_res,st_corr,st_rt,st_back.started,st_back.stopped,st2_resp.keys,st2_resp.corr,st_main_back.started,st_main_back.stopped,st_main_text.started,st_main_text.stopped,mouse_4.x,mouse_4.y,mouse_4.leftButton,mouse_4.midButton,mouse_4.rightButton,mouse_4.started,mouse_4.stopped,text_2.started,text_2.stopped,id*,age*,gender*,date,expName,psychopyVersion,frameRate,
,,,,,,,,,,,,,,,,,35.406660399981774,None,-0.3314815,-0.13981481,0,0,0,,,,,,,,,,,,,,,,,,,,,,,,,,,,,,,,,,,,,,,,,,,,,,,,,,,,105,19,Female,2022-04-29_17h17.50.605,Parachute,2022.1.1,59.941976161388965,
negative,yellow,1,k,None,,,,,0,0,0,0,,,,,,,,,,,,41.83947221000271,None,None,-0.16111112,-0.4074074,0,0,0,1.0045697500172537,None,122.0742621999816,None,122.0742621999816,None,-0.08796296,-0.08611111,0,0,0,0.013492910045897588,None,123.1237293999875,None,123.1237293999875,None,125.14935920000426,None,125.14935920000426,None,prac,None,None,1,1.5096206000016537,127.15456850000191,None,None,1,,,,,,,,,,,,,,105,19,Female,2022-04-29_17h17.50.605,Parachute,2022.1.1,59.941976161388965,
positive,red,2,None,None,,,,,0,1,1,1,,,,,,,,,,,,,,,,,,,,,,,,,,,,,,,,,,,,,,,,,prac,None,None,1,1.4983247999916784,129.64358010000433,None,None,1,,,,,,,,,,,,,,105,19,Female,2022-04-29_17h17.50.605,Parachute,2022.1.1,59.941976161388965,
negative,blue,2,None,k,,,,,0,2,2,2,,,,,,,,,,,,,,,,,,,,,,,,,,,,,,,,,,,,,,,,,prac,k,k,1,1.3623370999994222,132.14294749998953,None,None,0,,,,,,,,,,,,,,105,19,Female,2022-04-29_17h17.50.605,Parachute,2022.1.1,59.941976161388965,
positive,yellow,1,None,k,,,,,0,3,3,3,,,,,,,,,,,,,,,,,,,,,,,,,,,,,,,,,,,,,,,,,prac,k,k,1,1.3893380999797955,134.50720829999773,None,None,0,,,,,,,,,,,,,,105,19,Female,2022-04-29_17h17.50.605,Parachute,2022.1.1,59.941976161388965,
negative,blue,2,None,k,,,,,0,4,4,4,,,,,,,,,,,,,,,,,,,,,,,,,,,,,,,,,,,,,,,,,prac,k,k,1,1.0660406999813858,136.89574499998707,None,None,0,,,,,,,,,,,,,,105,19,Female,2022-04-29_17h17.50.605,Parachute,2022.1.1,59.941976161388965,
negative,blue,1,None,k,,,,,0,5,5,5,,,,,,,,,,,,,,,,,,,,,,,,,,,,,,,,,,,,,,,,,prac,k,k,1,2.099217500013765,138.96289299998898,None,None,0,,,,,,,,,,,,,,105,19,Female,2022-04-29_17h17.50.605,Parachute,2022.1.1,59.941976161388965,
negative,yellow,2,k,None,,,,,0,6,6,6,,,,,,,,,,,,,,,,,,,,,,,,,,,,,,,,,,,,,,,,,prac,None,None,1,1.5019595999910962,143.10759719999623,None,None,1,,,,,,,,,,,,,,105,19,Female,2022-04-29_17h17.50.605,Parachute,2022.1.1,59.941976161388965,
negative,red,1,None,None,,,,,0,7,7,7,,,,,,,,,,,,,,,,,,,,,,,,,,,,,,,,,,,,,,,,,prac,None,None,1,1.4983168999897316,145.6102781999798,None,None,1,,,,,,,,,,,,,,105,19,Female,2022-04-29_17h17.50.605,Parachute,2022.1.1,59.941976161388965,
positive,yellow,2,None,k,,,,,0,8,8,8,,,,,,,,,,,,,,,,,,,,,,,,,,,,,,,,,,,,,,,,,prac,k,k,1,0.8533842999895569,148.11054019999574,None,None,0,,,,,,,,,,,,,,105,19,Female,2022-04-29_17h17.50.605,Parachute,2022.1.1,59.941976161388965,
negative,yellow,1,k,None,,,,,0,9,9,9,,,,,,,,,,,,,,,,,,,,,,,,,,,,,,,,,,,,,,,,,prac,None,None,1,1.4940987000009045,149.96293700000388,None,None,1,,,,,,,,,,,,,,105,19,Female,2022-04-29_17h17.50.605,Parachute,2022.1.1,59.941976161388965,
positive,yellow,2,None,k,,,,,0,10,10,10,,,,,,,,,,,,,,,,,,,,,,,,,,,,,,,,,,,,,,,,,prac,k,k,1,1.1374728000082541,152.46014389998163,None,None,0,,,,,,,,,,,,,,105,19,Female,2022-04-29_17h17.50.605,Parachute,2022.1.1,59.941976161388965,
negative,yellow,2,k,None,,,,,0,11,11,11,,,,,,,,,,,,,,,,,,,,,,,,,,,,,,,,,,,,,,,,,prac,None,None,1,1.4926247999828774,154.59711839997908,None,None,1,,,,,,,,,,,,,,105,19,Female,2022-04-29_17h17.50.605,Parachute,2022.1.1,59.941976161388965,
negative,red,2,None,None,,,,,0,12,12,12,,,,,,,,,,,,,,,,,,,,,,,,,,,,,,,,,,,,,,,,,prac,None,None,1,1.4991918999876361,157.09317939999164,None,None,1,,,,,,,,,,,,,,105,19,Female,2022-04-29_17h17.50.605,Parachute,2022.1.1,59.941976161388965,
positive,red,1,None,None,,,,,0,13,13,13,,,,,,,,,,,,,,,,,,,,,,,,,,,,,,,,,,,,,,,,,prac,None,None,1,1.4983865000249352,159.59448699999484,None,None,1,,,,,,,,,,,,,,105,19,Female,2022-04-29_17h17.50.605,Parachute,2022.1.1,59.941976161388965,
positive,blue,2,k,None,,,,,0,14,14,14,,,,,,,,,,,,,,,,,,,,,,,,,,,,,,,,,,,,,,,,,prac,None,None,1,1.4986531999893486,162.09392899999511,None,None,1,,,,,,,,,,,,,,105,19,Female,2022-04-29_17h17.50.605,Parachute,2022.1.1,59.941976161388965,
positive,blue,1,k,None,,,,,0,15,15,15,,,,,,,,,,,,,,,,,,,,,,,,,,,,,,,,,,,,,,,,,prac,None,None,1,1.498783100018045,164.59360029999516,None,None,1,,,,,,,,,,,,,,105,19,Female,2022-04-29_17h17.50.605,Parachute,2022.1.1,59.941976161388965,
negative,blue,1,None,k,,,,,0,16,16,16,,,,,,,,,,,,,,,,,,,,,,,,,,,,,,,,,,,,,,,,,prac,k,k,1,1.6870032000006177,167.09406159998616,None,None,0,,,,,,,,,,,,,,105,19,Female,2022-04-29_17h17.50.605,Parachute,2022.1.1,59.941976161388965,
positive,blue,2,k,None,,,,,0,17,17,17,,,,,,,,,,,,,,,,,,,,,,,,,,,,,,,,,,,,,,,,,prac,None,None,1,1.5023174000089057,170.79189699998824,None,None,1,,,,,,,,,,,,,,105,19,Female,2022-04-29_17h17.50.605,Parachute,2022.1.1,59.941976161388965,
positive,blue,1,k,None,,,,,0,18,18,18,,,,,,,,,,,,,,,,,,,,,,,,,,,,,,,,,,,,,,,,,prac,None,None,1,1.4981781000096817,173.29446489998372,None,None,1,,,,,,,,,,,,,,105,19,Female,2022-04-29_17h17.50.605,Parachute,2022.1.1,59.941976161388965,
positive,yellow,1,None,k,,,,,0,19,19,19,,,,,,,,,,,,,,,,,,,,,,,,,,,,,,,,,,,,,,,,,prac,k,k,1,0.8548731000046246,175.79431319999276,None,None,0,,,,,,,,,,,,,,105,19,Female,2022-04-29_17h17.50.605,Parachute,2022.1.1,59.941976161388965,
negative,yellow,1,k,None,,,,,1,0,20,0,,,,,,,,,,,,,,,,,,,,,,,,,,,,,,,,,,,,,,,,,prac,None,None,1,1.5091056000092067,177.6482035999943,None,None,1,,,,,,,,,,,,,,105,19,Female,2022-04-29_17h17.50.605,Parachute,2022.1.1,59.941976161388965,
positive,red,2,None,None,,,,,1,1,21,1,,,,,,,,,,,,,,,,,,,,,,,,,,,,,,,,,,,,,,,,,prac,None,None,1,1.498797200008994,180.16121319998638,None,None,1,,,,,,,,,,,,,,105,19,Female,2022-04-29_17h17.50.605,Parachute,2022.1.1,59.941976161388965,
negative,blue,2,None,k,,,,,1,2,22,2,,,,,,,,,,,,,,,,,,,,,,,,,,,,,,,,,,,,,,,,,prac,k,k,1,1.253824400017038,182.66050509997876,None,None,0,,,,,,,,,,,,,,105,19,Female,2022-04-29_17h17.50.605,Parachute,2022.1.1,59.941976161388965,
positive,yellow,1,None,k,,,,,1,3,23,3,,,,,,,,,,,,,,,,,,,,,,,,,,,,,,,,,,,,,,,,,prac,k,k,1,0.9151016999967396,184.91402480000397,None,None,0,,,,,,,,,,,,,,105,19,Female,2022-04-29_17h17.50.605,Parachute,2022.1.1,59.941976161388965,
negative,blue,2,None,k,,,,,1,4,24,4,,,,,,,,,,,,,,,,,,,,,,,,,,,,,,,,,,,,,,,,,prac,k,k,1,1.014745699998457,186.8411683999875,None,None,0,,,,,,,,,,,,,,105,19,Female,2022-04-29_17h17.50.605,Parachute,2022.1.1,59.941976161388965,
negative,blue,1,None,k,,,,,1,5,25,5,,,,,,,,,,,,,,,,,,,,,,,,,,,,,,,,,,,,,,,,,prac,k,k,1,1.0327755000034813,188.84692680000444,None,None,0,,,,,,,,,,,,,,105,19,Female,2022-04-29_17h17.50.605,Parachute,2022.1.1,59.941976161388965,
negative,yellow,2,k,None,,,,,1,6,26,6,,,,,,,,,,,,,,,,,,,,,,,,,,,,,,,,,,,,,,,,,prac,None,None,1,1.493545900011668,190.88096939999377,None,None,1,,,,,,,,,,,,,,105,19,Female,2022-04-29_17h17.50.605,Parachute,2022.1.1,59.941976161388965,
negative,red,1,None,None,,,,,1,7,27,7,,,,,,,,,,,,,,,,,,,,,,,,,,,,,,,,,,,,,,,,,prac,None,None,1,1.4988194000034127,193.37763889998314,None,None,1,,,,,,,,,,,,,,105,19,Female,2022-04-29_17h17.50.605,Parachute,2022.1.1,59.941976161388965,
positive,yellow,2,None,k,,,,,1,8,28,8,,,,,,,,,,,,,,,,,,,,,,,,,,,,,,,,,,,,,,,,,prac,k,k,1,0.9682330999930855,195.87795860000188,None,None,0,,,,,,,,,,,,,,105,19,Female,2022-04-29_17h17.50.605,Parachute,2022.1.1,59.941976161388965,
negative,yellow,1,k,None,,,,,1,9,29,9,,,,,,,,,,,,,,,,,,,,,,,,,,,,,,,,,,,,,,,,,prac,None,None,1,1.4952679999987595,197.84727470000507,None,None,1,,,,,,,,,,,,,,105,19,Female,2022-04-29_17h17.50.605,Parachute,2022.1.1,59.941976161388965,
positive,yellow,2,None,k,,,,,1,10,30,10,,,,,,,,,,,,,,,,,,,,,,,,,,,,,,,,,,,,,,,,,prac,k,k,1,0.8034408999956213,200.3443258999905,None,None,0,,,,,,,,,,,,,,105,19,Female,2022-04-29_17h17.50.605,Parachute,2022.1.1,59.941976161388965,
negative,yellow,2,k,None,,,,,1,11,31,11,,,,,,,,,,,,,,,,,,,,,,,,,,,,,,,,,,,,,,,,,prac,None,None,1,1.4936370000068564,202.14685960000497,None,None,1,,,,,,,,,,,,,,105,19,Female,2022-04-29_17h17.50.605,Parachute,2022.1.1,59.941976161388965,
negative,red,2,None,None,,,,,1,12,32,12,,,,,,,,,,,,,,,,,,,,,,,,,,,,,,,,,,,,,,,,,prac,None,None,1,1.498628400004236,204.64454969999497,None,None,1,,,,,,,,,,,,,,105,19,Female,2022-04-29_17h17.50.605,Parachute,2022.1.1,59.941976161388965,
positive,red,1,None,None,,,,,1,13,33,13,,,,,,,,,,,,,,,,,,,,,,,,,,,,,,,,,,,,,,,,,prac,None,None,1,1.4980813000001945,207.14534920000006,None,None,1,,,,,,,,,,,,,,105,19,Female,2022-04-29_17h17.50.605,Parachute,2022.1.1,59.941976161388965,
positive,blue,2,k,None,,,,,1,14,34,14,,,,,,,,,,,,,,,,,,,,,,,,,,,,,,,,,,,,,,,,,prac,None,None,1,1.4989480999938678,209.6448667999939,None,None,1,,,,,,,,,,,,,,105,19,Female,2022-04-29_17h17.50.605,Parachute,2022.1.1,59.941976161388965,
positive,blue,1,k,None,,,,,1,15,35,15,,,,,,,,,,,,,,,,,,,,,,,,,,,,,,,,,,,,,,,,,prac,None,k,0,1.503682899987325,212.14486209998722,None,None,1,,,,,,,,,,,,,,105,19,Female,2022-04-29_17h17.50.605,Parachute,2022.1.1,59.941976161388965,
negative,blue,1,None,k,,,,,1,16,36,16,,,,,,,,,,,,,,,,,,,,,,,,,,,,,,,,,,,,,,,,,prac,k,k,1,1.074206499994034,215.65887279997696,None,None,0,,,,,,,,,,,,,,105,19,Female,2022-04-29_17h17.50.605,Parachute,2022.1.1,59.941976161388965,
positive,blue,2,k,None,,,,,1,17,37,17,,,,,,,,,,,,,,,,,,,,,,,,,,,,,,,,,,,,,,,,,prac,None,None,1,1.4929076000116765,217.73198369998136,None,None,1,,,,,,,,,,,,,,105,19,Female,2022-04-29_17h17.50.605,Parachute,2022.1.1,59.941976161388965,
positive,blue,1,k,None,,,,,1,18,38,18,,,,,,,,,,,,,,,,,,,,,,,,,,,,,,,,,,,,,,,,,prac,None,None,1,1.4989675999968313,220.22799959999975,None,None,1,,,,,,,,,,,,,,105,19,Female,2022-04-29_17h17.50.605,Parachute,2022.1.1,59.941976161388965,
positive,yellow,1,None,k,,,,,1,19,39,19,,,,,,,,,,,,,,,,,,,,,,,,,,,,,,,,,,,,,,,,,prac,k,k,1,0.8520327000005636,222.72839279999607,None,None,0,,,,,,,,,,,,,,105,19,Female,2022-04-29_17h17.50.605,Parachute,2022.1.1,59.941976161388965,
,,,,,,,,,,,,,,,,,,,,,,,,,,,,,,,,,,,,,,,,,,,,,,,,,,,,,,,,,,,,,,224.6011673999892,None,224.6011673999892,None,0.06574074,-0.08148148,0,0,0,0.012404210021486506,None,,,105,19,Female,2022-04-29_17h17.50.605,Parachute,2022.1.1,59.941976161388965,
negative,yellow,2,k,None,,,,,,,,,0,0,0,0,,,,,,,,,,,,,,,,,,,,,,,,,,,,,,,,,237.4766372999875,None,237.4766372999875,None,main,None,None,1,1.499058099987451,239.5100739999907,None,None,1,,,,,,,,,,,,,,105,19,Female,2022-04-29_17h17.50.605,Parachute,2022.1.1,59.941976161388965,
positive,red,1,None,None,,,,,,,,,0,1,1,1,,,,,,,,,,,,,,,,,,,,,,,,,,,,,,,,,,,,,main,None,None,1,1.4982645000272896,242.01357549999375,None,None,1,,,,,,,,,,,,,,105,19,Female,2022-04-29_17h17.50.605,Parachute,2022.1.1,59.941976161388965,
positive,blue,2,k,None,,,,,,,,,0,2,2,2,,,,,,,,,,,,,,,,,,,,,,,,,,,,,,,,,,,,,main,None,None,1,1.4988708999881055,244.51181659998838,None,None,1,,,,,,,,,,,,,,105,19,Female,2022-04-29_17h17.50.605,Parachute,2022.1.1,59.941976161388965,
positive,blue,1,k,None,,,,,,,,,0,3,3,3,,,,,,,,,,,,,,,,,,,,,,,,,,,,,,,,,,,,,main,None,None,1,1.4983928000146989,247.0123779999849,None,None,1,,,,,,,,,,,,,,105,19,Female,2022-04-29_17h17.50.605,Parachute,2022.1.1,59.941976161388965,
negative,yellow,2,k,None,,,,,,,,,0,4,4,4,,,,,,,,,,,,,,,,,,,,,,,,,,,,,,,,,,,,,main,None,None,1,1.4985852999961935,249.5116810000036,None,None,1,,,,,,,,,,,,,,105,19,Female,2022-04-29_17h17.50.605,Parachute,2022.1.1,59.941976161388965,
positive,yellow,2,None,k,,,,,,,,,0,5,5,5,,,,,,,,,,,,,,,,,,,,,,,,,,,,,,,,,,,,,main,k,k,1,1.1376986000104807,252.01127869999618,None,None,0,,,,,,,,,,,,,,105,19,Female,2022-04-29_17h17.50.605,Parachute,2022.1.1,59.941976161388965,
negative,blue,2,None,k,,,,,,,,,0,6,6,6,,,,,,,,,,,,,,,,,,,,,,,,,,,,,,,,,,,,,main,k,k,1,0.8983577000035439,254.14834879999398,None,None,0,,,,,,,,,,,,,,105,19,Female,2022-04-29_17h17.50.605,Parachute,2022.1.1,59.941976161388965,
positive,red,2,None,None,,,,,,,,,0,7,7,7,,,,,,,,,,,,,,,,,,,,,,,,,,,,,,,,,,,,,main,None,None,1,1.4934141999983694,256.0482248000044,None,None,1,,,,,,,,,,,,,,105,19,Female,2022-04-29_17h17.50.605,Parachute,2022.1.1,59.941976161388965,
positive,yellow,1,None,k,,,,,,,,,0,8,8,8,,,,,,,,,,,,,,,,,,,,,,,,,,,,,,,,,,,,,main,k,k,1,0.8203946000139695,258.5471179999877,None,None,0,,,,,,,,,,,,,,105,19,Female,2022-04-29_17h17.50.605,Parachute,2022.1.1,59.941976161388965,
negative,red,1,None,None,,,,,,,,,0,9,9,9,,,,,,,,,,,,,,,,,,,,,,,,,,,,,,,,,,,,,main,None,None,1,1.4934801000053994,260.36508439999307,None,None,1,,,,,,,,,,,,,,105,19,Female,2022-04-29_17h17.50.605,Parachute,2022.1.1,59.941976161388965,
positive,yellow,1,None,k,,,,,,,,,0,10,10,10,,,,,,,,,,,,,,,,,,,,,,,,,,,,,,,,,,,,,main,k,k,1,0.8044752000132576,262.8622056999884,None,None,0,,,,,,,,,,,,,,105,19,Female,2022-04-29_17h17.50.605,Parachute,2022.1.1,59.941976161388965,
negative,yellow,1,k,None,,,,,,,,,0,11,11,11,,,,,,,,,,,,,,,,,,,,,,,,,,,,,,,,,,,,,main,None,None,1,1.492904600017937,264.6654039999994,None,None,1,,,,,,,,,,,,,,105,19,Female,2022-04-29_17h17.50.605,Parachute,2022.1.1,59.941976161388965,
negative,yellow,1,k,None,,,,,,,,,0,12,12,12,,,,,,,,,,,,,,,,,,,,,,,,,,,,,,,,,,,,,main,None,None,1,1.4991439000004902,267.1618154000025,None,None,1,,,,,,,,,,,,,,105,19,Female,2022-04-29_17h17.50.605,Parachute,2022.1.1,59.941976161388965,
negative,red,2,None,None,,,,,,,,,0,13,13,13,,,,,,,,,,,,,,,,,,,,,,,,,,,,,,,,,,,,,main,None,None,1,1.4983659999852534,269.6627903000044,None,None,1,,,,,,,,,,,,,,105,19,Female,2022-04-29_17h17.50.605,Parachute,2022.1.1,59.941976161388965,
positive,yellow,2,None,k,,,,,,,,,0,14,14,14,,,,,,,,,,,,,,,,,,,,,,,,,,,,,,,,,,,,,main,k,k,1,0.9706035999988671,272.16168489999836,None,None,0,,,,,,,,,,,,,,105,19,Female,2022-04-29_17h17.50.605,Parachute,2022.1.1,59.941976161388965,
positive,blue,1,k,None,,,,,,,,,0,15,15,15,,,,,,,,,,,,,,,,,,,,,,,,,,,,,,,,,,,,,main,None,None,1,1.4948750000039581,274.13267829999677,None,None,1,,,,,,,,,,,,,,105,19,Female,2022-04-29_17h17.50.605,Parachute,2022.1.1,59.941976161388965,
negative,blue,1,None,k,,,,,,,,,0,16,16,16,,,,,,,,,,,,,,,,,,,,,,,,,,,,,,,,,,,,,main,k,k,1,0.6522918000118807,276.6313043999835,None,None,0,,,,,,,,,,,,,,105,19,Female,2022-04-29_17h17.50.605,Parachute,2022.1.1,59.941976161388965,
positive,blue,2,k,None,,,,,,,,,0,17,17,17,,,,,,,,,,,,,,,,,,,,,,,,,,,,,,,,,,,,,main,None,None,1,1.4941605999774765,278.2821599000017,None,None,1,,,,,,,,,,,,,,105,19,Female,2022-04-29_17h17.50.605,Parachute,2022.1.1,59.941976161388965,
negative,blue,2,None,k,,,,,,,,,0,18,18,18,,,,,,,,,,,,,,,,,,,,,,,,,,,,,,,,,,,,,main,k,k,1,1.1544065999914892,280.77953549998347,None,None,0,,,,,,,,,,,,,,105,19,Female,2022-04-29_17h17.50.605,Parachute,2022.1.1,59.941976161388965,
negative,blue,1,None,k,,,,,,,,,0,19,19,19,,,,,,,,,,,,,,,,,,,,,,,,,,,,,,,,,,,,,main,k,k,1,0.9643600000126753,282.9337574999954,None,None,0,,,,,,,,,,,,,,105,19,Female,2022-04-29_17h17.50.605,Parachute,2022.1.1,59.941976161388965,
negative,blue,1,None,k,,,,,,,,,0,20,20,20,,,,,,,,,,,,,,,,,,,,,,,,,,,,,,,,,,,,,main,k,k,1,0.8319868999824394,284.89910879998934,None,None,0,,,,,,,,,,,,,,105,19,Female,2022-04-29_17h17.50.605,Parachute,2022.1.1,59.941976161388965,
negative,blue,2,None,k,,,,,,,,,0,21,21,21,,,,,,,,,,,,,,,,,,,,,,,,,,,,,,,,,,,,,main,k,k,1,1.4489077999896836,286.73228149997885,None,None,0,,,,,,,,,,,,,,105,19,Female,2022-04-29_17h17.50.605,Parachute,2022.1.1,59.941976161388965,
negative,red,1,None,None,,,,,,,,,0,22,22,22,,,,,,,,,,,,,,,,,,,,,,,,,,,,,,,,,,,,,main,None,None,1,1.4935905000020284,289.18292069999734,None,None,1,,,,,,,,,,,,,,105,19,Female,2022-04-29_17h17.50.605,Parachute,2022.1.1,59.941976161388965,
positive,red,2,None,None,,,,,,,,,0,23,23,23,,,,,,,,,,,,,,,,,,,,,,,,,,,,,,,,,,,,,main,None,None,1,1.4988582000078168,291.6792471999943,None,None,1,,,,,,,,,,,,,,105,19,Female,2022-04-29_17h17.50.605,Parachute,2022.1.1,59.941976161388965,
negative,red,2,None,None,,,,,,,,,0,24,24,24,,,,,,,,,,,,,,,,,,,,,,,,,,,,,,,,,,,,,main,None,None,1,1.4982875999994576,294.1798482000013,None,None,1,,,,,,,,,,,,,,105,19,Female,2022-04-29_17h17.50.605,Parachute,2022.1.1,59.941976161388965,
positive,blue,2,k,None,,,,,,,,,0,25,25,25,,,,,,,,,,,,,,,,,,,,,,,,,,,,,,,,,,,,,main,None,None,1,1.4987983999890275,296.67933650000487,None,None,1,,,,,,,,,,,,,,105,19,Female,2022-04-29_17h17.50.605,Parachute,2022.1.1,59.941976161388965,
negative,yellow,1,k,None,,,,,,,,,0,26,26,26,,,,,,,,,,,,,,,,,,,,,,,,,,,,,,,,,,,,,main,None,None,1,1.4989452000008896,299.1792942000029,None,None,1,,,,,,,,,,,,,,105,19,Female,2022-04-29_17h17.50.605,Parachute,2022.1.1,59.941976161388965,
positive,blue,2,k,None,,,,,,,,,0,27,27,27,,,,,,,,,,,,,,,,,,,,,,,,,,,,,,,,,,,,,main,None,None,1,1.4984346999845002,301.6806116999942,None,None,1,,,,,,,,,,,,,,105,19,Female,2022-04-29_17h17.50.605,Parachute,2022.1.1,59.941976161388965,
negative,blue,2,None,k,,,,,,,,,0,28,28,28,,,,,,,,,,,,,,,,,,,,,,,,,,,,,,,,,,,,,main,k,k,1,0.9526484999805689,304.17946819998906,None,None,0,,,,,,,,,,,,,,105,19,Female,2022-04-29_17h17.50.605,Parachute,2022.1.1,59.941976161388965,
positive,red,1,None,None,,,,,,,,,0,29,29,29,,,,,,,,,,,,,,,,,,,,,,,,,,,,,,,,,,,,,main,None,None,1,1.4948629999998957,306.1328453999886,None,None,1,,,,,,,,,,,,,,105,19,Female,2022-04-29_17h17.50.605,Parachute,2022.1.1,59.941976161388965,
positive,blue,1,k,None,,,,,,,,,0,30,30,30,,,,,,,,,,,,,,,,,,,,,,,,,,,,,,,,,,,,,main,None,None,1,1.4989232999796513,308.62950399998226,None,None,1,,,,,,,,,,,,,,105,19,Female,2022-04-29_17h17.50.605,Parachute,2022.1.1,59.941976161388965,
positive,yellow,1,None,k,,,,,,,,,0,31,31,31,,,,,,,,,,,,,,,,,,,,,,,,,,,,,,,,,,,,,main,k,k,1,0.7212564999936149,311.1307120999845,None,None,0,,,,,,,,,,,,,,105,19,Female,2022-04-29_17h17.50.605,Parachute,2022.1.1,59.941976161388965,
negative,yellow,2,k,None,,,,,,,,,0,32,32,32,,,,,,,,,,,,,,,,,,,,,,,,,,,,,,,,,,,,,main,None,None,1,1.508942999993451,312.8511259999941,None,None,1,,,,,,,,,,,,,,105,19,Female,2022-04-29_17h17.50.605,Parachute,2022.1.1,59.941976161388965,
negative,blue,1,None,k,,,,,,,,,0,33,33,33,,,,,,,,,,,,,,,,,,,,,,,,,,,,,,,,,,,,,main,k,k,1,0.9872801000019535,315.3633270999999,None,None,0,,,,,,,,,,,,,,105,19,Female,2022-04-29_17h17.50.605,Parachute,2022.1.1,59.941976161388965,
positive,blue,1,k,None,,,,,,,,,0,34,34,34,,,,,,,,,,,,,,,,,,,,,,,,,,,,,,,,,,,,,main,None,None,1,1.4939965999801643,317.3496445999772,None,None,1,,,,,,,,,,,,,,105,19,Female,2022-04-29_17h17.50.605,Parachute,2022.1.1,59.941976161388965,
negative,yellow,1,k,None,,,,,,,,,0,35,35,35,,,,,,,,,,,,,,,,,,,,,,,,,,,,,,,,,,,,,main,None,None,1,1.498388200008776,319.8473244999768,None,None,1,,,,,,,,,,,,,,105,19,Female,2022-04-29_17h17.50.605,Parachute,2022.1.1,59.941976161388965,
positive,yellow,2,None,k,,,,,,,,,0,36,36,36,,,,,,,,,,,,,,,,,,,,,,,,,,,,,,,,,,,,,main,k,k,1,1.0977273000171408,322.34666829998605,None,None,0,,,,,,,,,,,,,,105,19,Female,2022-04-29_17h17.50.605,Parachute,2022.1.1,59.941976161388965,
positive,yellow,2,None,k,,,,,,,,,0,37,37,37,,,,,,,,,,,,,,,,,,,,,,,,,,,,,,,,,,,,,main,k,k,1,0.9549451000057161,324.4454614999995,None,None,0,,,,,,,,,,,,,,105,19,Female,2022-04-29_17h17.50.605,Parachute,2022.1.1,59.941976161388965,
negative,yellow,2,k,None,,,,,,,,,0,38,38,38,,,,,,,,,,,,,,,,,,,,,,,,,,,,,,,,,,,,,main,None,None,1,1.4928566000016872,326.40047019999474,None,None,1,,,,,,,,,,,,,,105,19,Female,2022-04-29_17h17.50.605,Parachute,2022.1.1,59.941976161388965,
positive,yellow,1,None,k,,,,,,,,,0,39,39,39,,,,,,,,,,,,,,,,,,,,,,,,,,,,,,,,,,,,,main,k,k,1,1.3541297999909148,328.8960756000015,None,None,0,,,,,,,,,,,,,,105,19,Female,2022-04-29_17h17.50.605,Parachute,2022.1.1,59.941976161388965,
negative,yellow,2,k,None,,,,,,,,,0,40,40,40,,,,,,,,,,,,,,,,,,,,,,,,,,,,,,,,,,,,,main,None,None,1,1.4935373999760486,331.24974529998144,None,None,1,,,,,,,,,,,,,,105,19,Female,2022-04-29_17h17.50.605,Parachute,2022.1.1,59.941976161388965,
positive,blue,2,k,None,,,,,,,,,0,41,41,41,,,,,,,,,,,,,,,,,,,,,,,,,,,,,,,,,,,,,main,None,None,1,1.4991766000166535,333.7470186999999,None,None,1,,,,,,,,,,,,,,105,19,Female,2022-04-29_17h17.50.605,Parachute,2022.1.1,59.941976161388965,
positive,blue,2,k,None,,,,,,,,,0,42,42,42,,,,,,,,,,,,,,,,,,,,,,,,,,,,,,,,,,,,,main,None,None,1,1.4986450000142213,336.24745840000105,None,None,1,,,,,,,,,,,,,,105,19,Female,2022-04-29_17h17.50.605,Parachute,2022.1.1,59.941976161388965,
negative,blue,2,None,k,,,,,,,,,0,43,43,43,,,,,,,,,,,,,,,,,,,,,,,,,,,,,,,,,,,,,main,k,k,1,0.92065499999444,338.74748890000046,None,None,0,,,,,,,,,,,,,,105,19,Female,2022-04-29_17h17.50.605,Parachute,2022.1.1,59.941976161388965,
negative,red,1,None,None,,,,,,,,,0,44,44,44,,,,,,,,,,,,,,,,,,,,,,,,,,,,,,,,,,,,,main,None,None,1,1.4930575000180397,340.6674911000009,None,None,1,,,,,,,,,,,,,,105,19,Female,2022-04-29_17h17.50.605,Parachute,2022.1.1,59.941976161388965,
negative,yellow,1,k,None,,,,,,,,,0,45,45,45,,,,,,,,,,,,,,,,,,,,,,,,,,,,,,,,,,,,,main,None,None,1,1.4982343000010587,343.16415810000035,None,None,1,,,,,,,,,,,,,,105,19,Female,2022-04-29_17h17.50.605,Parachute,2022.1.1,59.941976161388965,
negative,yellow,1,k,None,,,,,,,,,0,46,46,46,,,,,,,,,,,,,,,,,,,,,,,,,,,,,,,,,,,,,main,None,None,1,1.4990455000079237,345.6640593999764,None,None,1,,,,,,,,,,,,,,105,19,Female,2022-04-29_17h17.50.605,Parachute,2022.1.1,59.941976161388965,
positive,red,1,None,None,,,,,,,,,0,47,47,47,,,,,,,,,,,,,,,,,,,,,,,,,,,,,,,,,,,,,main,None,None,1,1.4988246000139043,348.16386030000285,None,None,1,,,,,,,,,,,,,,105,19,Female,2022-04-29_17h17.50.605,Parachute,2022.1.1,59.941976161388965,
positive,yellow,1,None,k,,,,,,,,,0,48,48,48,,,,,,,,,,,,,,,,,,,,,,,,,,,,,,,,,,,,,main,k,k,1,0.9524876999785192,350.66435730000376,None,None,0,,,,,,,,,,,,,,105,19,Female,2022-04-29_17h17.50.605,Parachute,2022.1.1,59.941976161388965,
negative,blue,1,None,k,,,,,,,,,0,49,49,49,,,,,,,,,,,,,,,,,,,,,,,,,,,,,,,,,,,,,main,k,k,1,0.8834065000119153,352.6277155999851,None,None,0,,,,,,,,,,,,,,105,19,Female,2022-04-29_17h17.50.605,Parachute,2022.1.1,59.941976161388965,
positive,yellow,2,None,k,,,,,,,,,0,50,50,50,,,,,,,,,,,,,,,,,,,,,,,,,,,,,,,,,,,,,main,k,k,1,1.4981102999881841,354.5006469999789,None,None,0,,,,,,,,,,,,,,105,19,Female,2022-04-29_17h17.50.605,Parachute,2022.1.1,59.941976161388965,
negative,blue,1,None,k,,,,,,,,,0,51,51,51,,,,,,,,,,,,,,,,,,,,,,,,,,,,,,,,,,,,,main,k,k,1,0.6781710000068415,357.00008629998774,None,None,0,,,,,,,,,,,,,,105,19,Female,2022-04-29_17h17.50.605,Parachute,2022.1.1,59.941976161388965,
positive,red,2,None,None,,,,,,,,,0,52,52,52,,,,,,,,,,,,,,,,,,,,,,,,,,,,,,,,,,,,,main,None,None,1,1.4972260000067763,358.68199359998107,None,None,1,,,,,,,,,,,,,,105,19,Female,2022-04-29_17h17.50.605,Parachute,2022.1.1,59.941976161388965,
positive,yellow,2,None,k,,,,,,,,,0,53,53,53,,,,,,,,,,,,,,,,,,,,,,,,,,,,,,,,,,,,,main,k,k,1,0.8205013000115287,361.18047979997937,None,None,0,,,,,,,,,,,,,,105,19,Female,2022-04-29_17h17.50.605,Parachute,2022.1.1,59.941976161388965,
negative,red,2,None,None,,,,,,,,,0,54,54,54,,,,,,,,,,,,,,,,,,,,,,,,,,,,,,,,,,,,,main,None,None,1,1.493527200014796,363.00055529997917,None,None,1,,,,,,,,,,,,,,105,19,Female,2022-04-29_17h17.50.605,Parachute,2022.1.1,59.941976161388965,
positive,yellow,1,None,k,,,,,,,,,0,55,55,55,,,,,,,,,,,,,,,,,,,,,,,,,,,,,,,,,,,,,main,k,k,1,0.8692267000151332,365.4970975999895,None,None,0,,,,,,,,,,,,,,105,19,Female,2022-04-29_17h17.50.605,Parachute,2022.1.1,59.941976161388965,
negative,blue,2,None,k,,,,,,,,,0,56,56,56,,,,,,,,,,,,,,,,,,,,,,,,,,,,,,,,,,,,,main,k,k,1,0.6680443000223022,367.3668929999985,None,None,0,,,,,,,,,,,,,,105,19,Female,2022-04-29_17h17.50.605,Parachute,2022.1.1,59.941976161388965,
positive,blue,1,k,None,,,,,,,,,0,57,57,57,,,,,,,,,,,,,,,,,,,,,,,,,,,,,,,,,,,,,main,None,None,1,1.5088643999770284,369.035066499986,None,None,1,,,,,,,,,,,,,,105,19,Female,2022-04-29_17h17.50.605,Parachute,2022.1.1,59.941976161388965,
positive,blue,1,k,None,,,,,,,,,0,58,58,58,,,,,,,,,,,,,,,,,,,,,,,,,,,,,,,,,,,,,main,None,None,1,1.4989298000000417,371.547966299986,None,None,1,,,,,,,,,,,,,,105,19,Female,2022-04-29_17h17.50.605,Parachute,2022.1.1,59.941976161388965,
negative,yellow,2,k,None,,,,,,,,,0,59,59,59,,,,,,,,,,,,,,,,,,,,,,,,,,,,,,,,,,,,,main,None,None,1,1.498701100004837,374.04762669999036,None,None,1,,,,,,,,,,,,,,105,19,Female,2022-04-29_17h17.50.605,Parachute,2022.1.1,59.941976161388965,
positive,red,2,None,None,,,,,,,,,0,60,60,60,,,,,,,,,,,,,,,,,,,,,,,,,,,,,,,,,,,,,main,None,None,1,1.499079700006405,376.54823190000025,None,None,1,,,,,,,,,,,,,,105,19,Female,2022-04-29_17h17.50.605,Parachute,2022.1.1,59.941976161388965,
negative,yellow,1,k,None,,,,,,,,,0,61,61,61,,,,,,,,,,,,,,,,,,,,,,,,,,,,,,,,,,,,,main,None,None,1,1.4984181000036187,379.04825409999467,None,None,1,,,,,,,,,,,,,,105,19,Female,2022-04-29_17h17.50.605,Parachute,2022.1.1,59.941976161388965,
negative,red,1,None,None,,,,,,,,,0,62,62,62,,,,,,,,,,,,,,,,,,,,,,,,,,,,,,,,,,,,,main,None,None,1,1.4986988000164274,381.54844039998716,None,None,1,,,,,,,,,,,,,,105,19,Female,2022-04-29_17h17.50.605,Parachute,2022.1.1,59.941976161388965,
negative,blue,1,None,k,,,,,,,,,0,63,63,63,,,,,,,,,,,,,,,,,,,,,,,,,,,,,,,,,,,,,main,k,k,1,1.3368486999825109,384.047863099986,None,None,0,,,,,,,,,,,,,,105,19,Female,2022-04-29_17h17.50.605,Parachute,2022.1.1,59.941976161388965,
positive,blue,2,k,None,,,,,,,,,0,64,64,64,,,,,,,,,,,,,,,,,,,,,,,,,,,,,,,,,,,,,main,None,None,1,1.4935844999854453,386.38395049999235,None,None,1,,,,,,,,,,,,,,105,19,Female,2022-04-29_17h17.50.605,Parachute,2022.1.1,59.941976161388965,
negative,yellow,2,k,None,,,,,,,,,0,65,65,65,,,,,,,,,,,,,,,,,,,,,,,,,,,,,,,,,,,,,main,None,None,1,1.4987361000094097,388.88089800000307,None,None,1,,,,,,,,,,,,,,105,19,Female,2022-04-29_17h17.50.605,Parachute,2022.1.1,59.941976161388965,
positive,yellow,2,None,k,,,,,,,,,0,66,66,66,,,,,,,,,,,,,,,,,,,,,,,,,,,,,,,,,,,,,main,k,k,1,0.8712553000077605,391.38127549999626,None,None,0,,,,,,,,,,,,,,105,19,Female,2022-04-29_17h17.50.605,Parachute,2022.1.1,59.941976161388965,
positive,yellow,2,None,k,,,,,,,,,0,67,67,67,,,,,,,,,,,,,,,,,,,,,,,,,,,,,,,,,,,,,main,k,k,1,0.9312890000001062,393.2593772999826,None,None,0,,,,,,,,,,,,,,105,19,Female,2022-04-29_17h17.50.605,Parachute,2022.1.1,59.941976161388965,
positive,red,1,None,None,,,,,,,,,0,68,68,68,,,,,,,,,,,,,,,,,,,,,,,,,,,,,,,,,,,,,main,None,None,1,1.4934836000029463,395.18420580000384,None,None,1,,,,,,,,,,,,,,105,19,Female,2022-04-29_17h17.50.605,Parachute,2022.1.1,59.941976161388965,
positive,yellow,1,None,k,,,,,,,,,0,69,69,69,,,,,,,,,,,,,,,,,,,,,,,,,,,,,,,,,,,,,main,k,k,1,0.9206764999835286,397.68114349999814,None,None,0,,,,,,,,,,,,,,105,19,Female,2022-04-29_17h17.50.605,Parachute,2022.1.1,59.941976161388965,
negative,yellow,2,k,None,,,,,,,,,0,70,70,70,,,,,,,,,,,,,,,,,,,,,,,,,,,,,,,,,,,,,main,None,None,1,1.2674709999992047,399.60122989999945,None,None,1,,,,,,,,,,,,,,105,19,Female,2022-04-29_17h17.50.605,Parachute,2022.1.1,59.941976161388965,
positive,yellow,1,None,k,,,,,,,,,0,71,71,71,,,,,,,,,,,,,,,,,,,,,,,,,,,,,,,,,,,,,main,k,k,1,0.8292776999878697,401.87081369999214,None,None,0,,,,,,,,,,,,,,105,19,Female,2022-04-29_17h17.50.605,Parachute,2022.1.1,59.941976161388965,
negative,blue,1,None,k,,,,,,,,,0,72,72,72,,,,,,,,,,,,,,,,,,,,,,,,,,,,,,,,,,,,,main,k,k,1,1.1152151999995112,403.70097069998155,None,None,0,,,,,,,,,,,,,,105,19,Female,2022-04-29_17h17.50.605,Parachute,2022.1.1,59.941976161388965,
negative,red,2,None,None,,,,,,,,,0,73,73,73,,,,,,,,,,,,,,,,,,,,,,,,,,,,,,,,,,,,,main,None,None,1,1.494317399978172,405.8181723000016,None,None,1,,,,,,,,,,,,,,105,19,Female,2022-04-29_17h17.50.605,Parachute,2022.1.1,59.941976161388965,
positive,blue,2,k,None,,,,,,,,,0,74,74,74,,,,,,,,,,,,,,,,,,,,,,,,,,,,,,,,,,,,,main,None,None,1,1.49849220001488,408.31549569999333,None,None,1,,,,,,,,,,,,,,105,19,Female,2022-04-29_17h17.50.605,Parachute,2022.1.1,59.941976161388965,
negative,blue,2,None,k,,,,,,,,,0,75,75,75,,,,,,,,,,,,,,,,,,,,,,,,,,,,,,,,,,,,,main,k,k,1,0.9203707000124268,410.8153350999928,None,None,0,,,,,,,,,,,,,,105,19,Female,2022-04-29_17h17.50.605,Parachute,2022.1.1,59.941976161388965,
negative,blue,2,None,k,,,,,,,,,0,76,76,76,,,,,,,,,,,,,,,,,,,,,,,,,,,,,,,,,,,,,main,k,k,1,1.2805561000132002,412.7348810999829,None,None,0,,,,,,,,,,,,,,105,19,Female,2022-04-29_17h17.50.605,Parachute,2022.1.1,59.941976161388965,
negative,yellow,1,k,None,,,,,,,,,0,77,77,77,,,,,,,,,,,,,,,,,,,,,,,,,,,,,,,,,,,,,main,None,None,1,1.4946659000124782,415.02662619997864,None,None,1,,,,,,,,,,,,,,105,19,Female,2022-04-29_17h17.50.605,Parachute,2022.1.1,59.941976161388965,
positive,blue,1,k,None,,,,,,,,,0,78,78,78,,,,,,,,,,,,,,,,,,,,,,,,,,,,,,,,,,,,,main,None,None,1,1.4976959000050556,417.51664220000384,None,None,1,,,,,,,,,,,,,,105,19,Female,2022-04-29_17h17.50.605,Parachute,2022.1.1,59.941976161388965,
positive,blue,1,k,None,,,,,,,,,0,79,79,79,,,,,,,,,,,,,,,,,,,,,,,,,,,,,,,,,,,,,main,None,None,1,1.4984862999990582,420.0155703999917,None,None,1,,,,,,,,,,,,,,105,19,Female,2022-04-29_17h17.50.605,Parachute,2022.1.1,59.941976161388965,
positive,red,2,None,None,,,,,,,,,0,80,80,80,,,,,,,,,,,,,,,,,,,,,,,,,,,,,,,,,,,,,main,None,None,1,1.4987443999852985,422.5154754999967,None,None,1,,,,,,,,,,,,,,105,19,Female,2022-04-29_17h17.50.605,Parachute,2022.1.1,59.941976161388965,
positive,yellow,2,None,k,,,,,,,,,0,81,81,81,,,,,,,,,,,,,,,,,,,,,,,,,,,,,,,,,,,,,main,k,k,1,0.9710336999851279,425.0156769999885,None,None,0,,,,,,,,,,,,,,105,19,Female,2022-04-29_17h17.50.605,Parachute,2022.1.1,59.941976161388965,
positive,blue,1,k,None,,,,,,,,,0,82,82,82,,,,,,,,,,,,,,,,,,,,,,,,,,,,,,,,,,,,,main,None,None,1,1.4947670999972615,426.98539399998845,None,None,1,,,,,,,,,,,,,,105,19,Female,2022-04-29_17h17.50.605,Parachute,2022.1.1,59.941976161388965,
negative,yellow,2,k,None,,,,,,,,,0,83,83,83,,,,,,,,,,,,,,,,,,,,,,,,,,,,,,,,,,,,,main,None,None,1,1.4968885999987833,429.48437950000516,None,None,1,,,,,,,,,,,,,,105,19,Female,2022-04-29_17h17.50.605,Parachute,2022.1.1,59.941976161388965,
positive,blue,2,k,None,,,,,,,,,0,84,84,84,,,,,,,,,,,,,,,,,,,,,,,,,,,,,,,,,,,,,main,None,None,1,1.4989931999880355,431.9821851000015,None,None,1,,,,,,,,,,,,,,105,19,Female,2022-04-29_17h17.50.605,Parachute,2022.1.1,59.941976161388965,
positive,yellow,1,None,k,,,,,,,,,0,85,85,85,,,,,,,,,,,,,,,,,,,,,,,,,,,,,,,,,,,,,main,k,k,1,1.1707250000035856,434.4825933999964,None,None,0,,,,,,,,,,,,,,105,19,Female,2022-04-29_17h17.50.605,Parachute,2022.1.1,59.941976161388965,
positive,blue,2,k,None,,,,,,,,,0,86,86,86,,,,,,,,,,,,,,,,,,,,,,,,,,,,,,,,,,,,,main,None,None,1,1.4932441000128165,436.65239919998567,None,None,1,,,,,,,,,,,,,,105,19,Female,2022-04-29_17h17.50.605,Parachute,2022.1.1,59.941976161388965,
positive,blue,1,k,None,,,,,,,,,0,87,87,87,,,,,,,,,,,,,,,,,,,,,,,,,,,,,,,,,,,,,main,None,None,1,1.4986551999754738,439.14940890000435,None,None,1,,,,,,,,,,,,,,105,19,Female,2022-04-29_17h17.50.605,Parachute,2022.1.1,59.941976161388965,
negative,yellow,2,k,None,,,,,,,,,0,88,88,88,,,,,,,,,,,,,,,,,,,,,,,,,,,,,,,,,,,,,main,None,None,1,1.4988857000134885,441.64883890000056,None,None,1,,,,,,,,,,,,,,105,19,Female,2022-04-29_17h17.50.605,Parachute,2022.1.1,59.941976161388965,
negative,blue,2,None,k,,,,,,,,,0,89,89,89,,,,,,,,,,,,,,,,,,,,,,,,,,,,,,,,,,,,,main,k,k,1,1.2206104999931995,444.14936569999554,None,None,0,,,,,,,,,,,,,,105,19,Female,2022-04-29_17h17.50.605,Parachute,2022.1.1,59.941976161388965,
positive,yellow,2,None,k,,,,,,,,,0,90,90,90,,,,,,,,,,,,,,,,,,,,,,,,,,,,,,,,,,,,,main,k,k,1,0.8487048000097275,446.3689322999853,None,None,0,,,,,,,,,,,,,,105,19,Female,2022-04-29_17h17.50.605,Parachute,2022.1.1,59.941976161388965,
negative,yellow,1,k,None,,,,,,,,,0,91,91,91,,,,,,,,,,,,,,,,,,,,,,,,,,,,,,,,,,,,,main,None,None,1,1.4932100000150967,448.2189911000023,None,None,1,,,,,,,,,,,,,,105,19,Female,2022-04-29_17h17.50.605,Parachute,2022.1.1,59.941976161388965,
negative,red,2,None,None,,,,,,,,,0,92,92,92,,,,,,,,,,,,,,,,,,,,,,,,,,,,,,,,,,,,,main,None,k,0,-0.31592819999787025,450.71632529998897,None,None,1,,,,,,,,,,,,,,105,19,Female,2022-04-29_17h17.50.605,Parachute,2022.1.1,59.941976161388965,
negative,blue,2,None,k,,,,,,,,,0,93,93,93,,,,,,,,,,,,,,,,,,,,,,,,,,,,,,,,,,,,,main,k,k,1,1.0571601999981795,454.4136432999803,None,None,0,,,,,,,,,,,,,,105,19,Female,2022-04-29_17h17.50.605,Parachute,2022.1.1,59.941976161388965,
negative,blue,1,None,k,,,,,,,,,0,94,94,94,,,,,,,,,,,,,,,,,,,,,,,,,,,,,,,,,,,,,main,k,k,1,0.881407400011085,456.4692123999994,None,None,0,,,,,,,,,,,,,,105,19,Female,2022-04-29_17h17.50.605,Parachute,2022.1.1,59.941976161388965,
negative,blue,1,None,k,,,,,,,,,0,95,95,95,,,,,,,,,,,,,,,,,,,,,,,,,,,,,,,,,,,,,main,k,k,1,0.6824114999908488,458.35233850000077,None,None,0,,,,,,,,,,,,,,105,19,Female,2022-04-29_17h17.50.605,Parachute,2022.1.1,59.941976161388965,
negative,red,1,None,None,,,,,,,,,0,96,96,96,,,,,,,,,,,,,,,,,,,,,,,,,,,,,,,,,,,,,main,None,None,1,1.493433700001333,460.0359302999859,None,None,1,,,,,,,,,,,,,,105,19,Female,2022-04-29_17h17.50.605,Parachute,2022.1.1,59.941976161388965,
positive,yellow,1,None,k,,,,,,,,,0,97,97,97,,,,,,,,,,,,,,,,,,,,,,,,,,,,,,,,,,,,,main,k,k,1,1.0043683999974746,462.53305319999345,None,None,0,,,,,,,,,,,,,,105,19,Female,2022-04-29_17h17.50.605,Parachute,2022.1.1,59.941976161388965,
negative,yellow,1,k,None,,,,,,,,,0,98,98,98,,,,,,,,,,,,,,,,,,,,,,,,,,,,,,,,,,,,,main,None,None,1,1.492890699999407,464.5358678000048,None,None,1,,,,,,,,,,,,,,105,19,Female,2022-04-29_17h17.50.605,Parachute,2022.1.1,59.941976161388965,
positive,red,1,None,None,,,,,,,,,0,99,99,99,,,,,,,,,,,,,,,,,,,,,,,,,,,,,,,,,,,,,main,None,None,1,1.499190999980783,467.0333280999912,None,None,1,,,,,,,,,,,,,,105,19,Female,2022-04-29_17h17.50.605,Parachute,2022.1.1,59.941976161388965,
positive,blue,1,k,None,,,,,,,,,0,100,100,100,,,,,,,,,,,,,,,,,,,,,,,,,,,,,,,,,,,,,main,None,None,1,1.4991437000280712,469.5330473999784,None,None,1,,,,,,,,,,,,,,105,19,Female,2022-04-29_17h17.50.605,Parachute,2022.1.1,59.941976161388965,
negative,yellow,1,k,None,,,,,,,,,0,101,101,101,,,,,,,,,,,,,,,,,,,,,,,,,,,,,,,,,,,,,main,None,None,1,1.498014200013131,472.03388339999947,None,None,1,,,,,,,,,,,,,,105,19,Female,2022-04-29_17h17.50.605,Parachute,2022.1.1,59.941976161388965,
negative,blue,2,None,k,,,,,,,,,0,102,102,102,,,,,,,,,,,,,,,,,,,,,,,,,,,,,,,,,,,,,main,k,k,1,1.05535609999788,474.53304779998143,None,None,0,,,,,,,,,,,,,,105,19,Female,2022-04-29_17h17.50.605,Parachute,2022.1.1,59.941976161388965,
negative,yellow,2,k,None,,,,,,,,,0,103,103,103,,,,,,,,,,,,,,,,,,,,,,,,,,,,,,,,,,,,,main,None,None,1,1.4923186999803875,476.5876823999861,None,None,1,,,,,,,,,,,,,,105,19,Female,2022-04-29_17h17.50.605,Parachute,2022.1.1,59.941976161388965,
positive,yellow,2,None,k,,,,,,,,,0,104,104,104,,,,,,,,,,,,,,,,,,,,,,,,,,,,,,,,,,,,,main,k,k,1,0.8708989000006113,479.0839268999989,None,None,0,,,,,,,,,,,,,,105,19,Female,2022-04-29_17h17.50.605,Parachute,2022.1.1,59.941976161388965,
positive,blue,1,k,None,,,,,,,,,0,105,105,105,,,,,,,,,,,,,,,,,,,,,,,,,,,,,,,,,,,,,main,None,None,1,1.4933829000219703,480.95355539998855,None,None,1,,,,,,,,,,,,,,105,19,Female,2022-04-29_17h17.50.605,Parachute,2022.1.1,59.941976161388965,
positive,blue,2,k,None,,,,,,,,,0,106,106,106,,,,,,,,,,,,,,,,,,,,,,,,,,,,,,,,,,,,,main,None,None,1,1.498045699991053,483.4500438999967,None,None,1,,,,,,,,,,,,,,105,19,Female,2022-04-29_17h17.50.605,Parachute,2022.1.1,59.941976161388965,
negative,blue,1,None,k,,,,,,,,,0,107,107,107,,,,,,,,,,,,,,,,,,,,,,,,,,,,,,,,,,,,,main,k,k,1,1.1377035999903455,485.9490264999913,None,None,0,,,,,,,,,,,,,,105,19,Female,2022-04-29_17h17.50.605,Parachute,2022.1.1,59.941976161388965,
positive,yellow,2,None,k,,,,,,,,,0,108,108,108,,,,,,,,,,,,,,,,,,,,,,,,,,,,,,,,,,,,,main,k,k,1,1.2484420000109822,488.08621710000443,None,None,0,,,,,,,,,,,,,,105,19,Female,2022-04-29_17h17.50.605,Parachute,2022.1.1,59.941976161388965,
negative,yellow,1,k,None,,,,,,,,,0,109,109,109,,,,,,,,,,,,,,,,,,,,,,,,,,,,,,,,,,,,,main,None,None,1,1.4937053000030573,490.3366517999966,None,None,1,,,,,,,,,,,,,,105,19,Female,2022-04-29_17h17.50.605,Parachute,2022.1.1,59.941976161388965,
negative,blue,2,None,k,,,,,,,,,0,110,110,110,,,,,,,,,,,,,,,,,,,,,,,,,,,,,,,,,,,,,main,k,k,1,1.0870240000076592,492.8338591999782,None,None,0,,,,,,,,,,,,,,105,19,Female,2022-04-29_17h17.50.605,Parachute,2022.1.1,59.941976161388965,
positive,blue,2,k,None,,,,,,,,,0,111,111,111,,,,,,,,,,,,,,,,,,,,,,,,,,,,,,,,,,,,,main,None,None,1,1.494029399997089,494.9199111999769,None,None,1,,,,,,,,,,,,,,105,19,Female,2022-04-29_17h17.50.605,Parachute,2022.1.1,59.941976161388965,
negative,blue,1,None,k,,,,,,,,,0,112,112,112,,,,,,,,,,,,,,,,,,,,,,,,,,,,,,,,,,,,,main,k,k,1,1.0031635999912396,497.4176297999802,None,None,0,,,,,,,,,,,,,,105,19,Female,2022-04-29_17h17.50.605,Parachute,2022.1.1,59.941976161388965,
positive,yellow,1,None,k,,,,,,,,,0,113,113,113,,,,,,,,,,,,,,,,,,,,,,,,,,,,,,,,,,,,,main,k,k,1,0.7659648999979254,499.420243200002,None,None,0,,,,,,,,,,,,,,105,19,Female,2022-04-29_17h17.50.605,Parachute,2022.1.1,59.941976161388965,
negative,red,1,None,None,,,,,,,,,0,114,114,114,,,,,,,,,,,,,,,,,,,,,,,,,,,,,,,,,,,,,main,None,None,1,1.4936820000002626,501.1864457000047,None,None,1,,,,,,,,,,,,,,105,19,Female,2022-04-29_17h17.50.605,Parachute,2022.1.1,59.941976161388965,
positive,red,1,None,None,,,,,,,,,0,115,115,115,,,,,,,,,,,,,,,,,,,,,,,,,,,,,,,,,,,,,main,None,None,1,1.4982239000091795,503.68559819998336,None,None,1,,,,,,,,,,,,,,105,19,Female,2022-04-29_17h17.50.605,Parachute,2022.1.1,59.941976161388965,
negative,red,2,None,None,,,,,,,,,0,116,116,116,,,,,,,,,,,,,,,,,,,,,,,,,,,,,,,,,,,,,main,None,None,1,1.4986675000109244,506.1840983000002,None,None,1,,,,,,,,,,,,,,105,19,Female,2022-04-29_17h17.50.605,Parachute,2022.1.1,59.941976161388965,
negative,yellow,2,k,None,,,,,,,,,0,117,117,117,,,,,,,,,,,,,,,,,,,,,,,,,,,,,,,,,,,,,main,None,None,1,1.4990616999857593,508.68397549999645,None,None,1,,,,,,,,,,,,,,105,19,Female,2022-04-29_17h17.50.605,Parachute,2022.1.1,59.941976161388965,
positive,yellow,1,None,k,,,,,,,,,0,118,118,118,,,,,,,,,,,,,,,,,,,,,,,,,,,,,,,,,,,,,main,k,k,1,0.9203829000180122,511.1839357999852,None,None,0,,,,,,,,,,,,,,105,19,Female,2022-04-29_17h17.50.605,Parachute,2022.1.1,59.941976161388965,
positive,red,2,None,None,,,,,,,,,0,119,119,119,,,,,,,,,,,,,,,,,,,,,,,,,,,,,,,,,,,,,main,None,None,1,1.4929954999824986,513.1044345999835,None,None,1,,,,,,,,,,,,,,105,19,Female,2022-04-29_17h17.50.605,Parachute,2022.1.1,59.941976161388965,
positive,blue,2,k,None,,,,,,,,,0,120,120,120,,,,,,,,,,,,,,,,,,,,,,,,,,,,,,,,,,,,,main,None,None,1,1.4989847999822814,515.6009559999802,None,None,1,,,,,,,,,,,,,,105,19,Female,2022-04-29_17h17.50.605,Parachute,2022.1.1,59.941976161388965,
negative,red,1,None,None,,,,,,,,,0,121,121,121,,,,,,,,,,,,,,,,,,,,,,,,,,,,,,,,,,,,,main,None,None,1,1.4987077999976464,518.1004258999892,None,None,1,,,,,,,,,,,,,,105,19,Female,2022-04-29_17h17.50.605,Parachute,2022.1.1,59.941976161388965,
positive,yellow,2,None,k,,,,,,,,,0,122,122,122,,,,,,,,,,,,,,,,,,,,,,,,,,,,,,,,,,,,,main,k,k,1,1.020893699984299,520.6007144000032,None,None,0,,,,,,,,,,,,,,105,19,Female,2022-04-29_17h17.50.605,Parachute,2022.1.1,59.941976161388965,
negative,red,2,None,None,,,,,,,,,0,123,123,123,,,,,,,,,,,,,,,,,,,,,,,,,,,,,,,,,,,,,main,None,None,1,1.4927123000088613,522.620588699996,None,None,1,,,,,,,,,,,,,,105,19,Female,2022-04-29_17h17.50.605,Parachute,2022.1.1,59.941976161388965,
negative,yellow,2,k,None,,,,,,,,,0,124,124,124,,,,,,,,,,,,,,,,,,,,,,,,,,,,,,,,,,,,,main,None,None,1,1.498323400010122,525.1167131999973,None,None,1,,,,,,,,,,,,,,105,19,Female,2022-04-29_17h17.50.605,Parachute,2022.1.1,59.941976161388965,
positive,red,1,None,None,,,,,,,,,0,125,125,125,,,,,,,,,,,,,,,,,,,,,,,,,,,,,,,,,,,,,main,None,None,1,1.4992922999954317,527.6168435,None,None,1,,,,,,,,,,,,,,105,19,Female,2022-04-29_17h17.50.605,Parachute,2022.1.1,59.941976161388965,
negative,blue,2,None,k,,,,,,,,,0,126,126,126,,,,,,,,,,,,,,,,,,,,,,,,,,,,,,,,,,,,,main,k,k,1,1.0542424999875948,530.1173000999843,None,None,0,,,,,,,,,,,,,,105,19,Female,2022-04-29_17h17.50.605,Parachute,2022.1.1,59.941976161388965,
negative,blue,1,None,k,,,,,,,,,0,127,127,127,,,,,,,,,,,,,,,,,,,,,,,,,,,,,,,,,,,,,main,k,k,1,0.7979864000226371,532.1710747999896,None,None,0,,,,,,,,,,,,,,105,19,Female,2022-04-29_17h17.50.605,Parachute,2022.1.1,59.941976161388965,
negative,yellow,1,k,None,,,,,,,,,0,128,128,128,,,,,,,,,,,,,,,,,,,,,,,,,,,,,,,,,,,,,main,None,None,1,1.4935652000131086,533.9717663000047,None,None,1,,,,,,,,,,,,,,105,19,Female,2022-04-29_17h17.50.605,Parachute,2022.1.1,59.941976161388965,
negative,yellow,1,k,None,,,,,,,,,0,129,129,129,,,,,,,,,,,,,,,,,,,,,,,,,,,,,,,,,,,,,main,None,None,1,1.499002600001404,536.4684459999844,None,None,1,,,,,,,,,,,,,,105,19,Female,2022-04-29_17h17.50.605,Parachute,2022.1.1,59.941976161388965,
positive,blue,1,k,None,,,,,,,,,0,130,130,130,,,,,,,,,,,,,,,,,,,,,,,,,,,,,,,,,,,,,main,None,None,1,1.4987873999925796,538.9686261999886,None,None,1,,,,,,,,,,,,,,105,19,Female,2022-04-29_17h17.50.605,Parachute,2022.1.1,59.941976161388965,
negative,blue,1,None,k,,,,,,,,,0,131,131,131,,,,,,,,,,,,,,,,,,,,,,,,,,,,,,,,,,,,,main,k,k,1,1.020329099992523,541.4696930999926,None,None,0,,,,,,,,,,,,,,105,19,Female,2022-04-29_17h17.50.605,Parachute,2022.1.1,59.941976161388965,
negative,blue,2,None,k,,,,,,,,,0,132,132,132,,,,,,,,,,,,,,,,,,,,,,,,,,,,,,,,,,,,,main,k,k,1,0.7818510000070091,543.4876370999846,None,None,0,,,,,,,,,,,,,,105,19,Female,2022-04-29_17h17.50.605,Parachute,2022.1.1,59.941976161388965,
positive,blue,2,k,None,,,,,,,,,0,133,133,133,,,,,,,,,,,,,,,,,,,,,,,,,,,,,,,,,,,,,main,None,None,1,1.4939822999876924,545.2703973999887,None,None,1,,,,,,,,,,,,,,105,19,Female,2022-04-29_17h17.50.605,Parachute,2022.1.1,59.941976161388965,
positive,red,2,None,None,,,,,,,,,0,134,134,134,,,,,,,,,,,,,,,,,,,,,,,,,,,,,,,,,,,,,main,None,None,1,1.4984047999896575,547.7686323999951,None,None,1,,,,,,,,,,,,,,105,19,Female,2022-04-29_17h17.50.605,Parachute,2022.1.1,59.941976161388965,
negative,yellow,2,k,None,,,,,,,,,0,135,135,135,,,,,,,,,,,,,,,,,,,,,,,,,,,,,,,,,,,,,main,None,None,1,1.498898799996823,550.2687107999809,None,None,1,,,,,,,,,,,,,,105,19,Female,2022-04-29_17h17.50.605,Parachute,2022.1.1,59.941976161388965,
positive,yellow,2,None,k,,,,,,,,,0,136,136,136,,,,,,,,,,,,,,,,,,,,,,,,,,,,,,,,,,,,,main,k,k,1,1.7036171999934595,552.7683825999848,None,None,0,,,,,,,,,,,,,,105,19,Female,2022-04-29_17h17.50.605,Parachute,2022.1.1,59.941976161388965,
positive,blue,1,k,None,,,,,,,,,0,137,137,137,,,,,,,,,,,,,,,,,,,,,,,,,,,,,,,,,,,,,main,None,None,1,1.5013190000026952,556.4825213000004,None,None,1,,,,,,,,,,,,,,105,19,Female,2022-04-29_17h17.50.605,Parachute,2022.1.1,59.941976161388965,
positive,yellow,1,None,k,,,,,,,,,0,138,138,138,,,,,,,,,,,,,,,,,,,,,,,,,,,,,,,,,,,,,main,k,k,1,0.7532759000023361,558.9851791999827,None,None,0,,,,,,,,,,,,,,105,19,Female,2022-04-29_17h17.50.605,Parachute,2022.1.1,59.941976161388965,
positive,yellow,1,None,k,,,,,,,,,0,139,139,139,,,,,,,,,,,,,,,,,,,,,,,,,,,,,,,,,,,,,main,k,k,1,0.7154971999989357,560.7376271999965,None,None,0,,,,,,,,,,,,,,105,19,Female,2022-04-29_17h17.50.605,Parachute,2022.1.1,59.941976161388965,
positive,yellow,1,None,k,,,,,,,,,0,140,140,140,,,,,,,,,,,,,,,,,,,,,,,,,,,,,,,,,,,,,main,k,k,1,0.559599000000162,562.4542488000006,None,None,0,,,,,,,,,,,,,,105,19,Female,2022-04-29_17h17.50.605,Parachute,2022.1.1,59.941976161388965,
positive,blue,1,k,None,,,,,,,,,0,141,141,141,,,,,,,,,,,,,,,,,,,,,,,,,,,,,,,,,,,,,main,None,None,1,1.499328699981561,564.0176212999795,None,None,1,,,,,,,,,,,,,,105,19,Female,2022-04-29_17h17.50.605,Parachute,2022.1.1,59.941976161388965,
positive,blue,2,k,None,,,,,,,,,0,142,142,142,,,,,,,,,,,,,,,,,,,,,,,,,,,,,,,,,,,,,main,None,k,0,1.170669800019823,566.5179177999962,None,None,1,,,,,,,,,,,,,,105,19,Female,2022-04-29_17h17.50.605,Parachute,2022.1.1,59.941976161388965,
positive,yellow,2,None,k,,,,,,,,,0,143,143,143,,,,,,,,,,,,,,,,,,,,,,,,,,,,,,,,,,,,,main,k,k,1,0.7408825000165962,569.6998373999959,None,None,0,,,,,,,,,,,,,,105,19,Female,2022-04-29_17h17.50.605,Parachute,2022.1.1,59.941976161388965,
negative,yellow,2,k,None,,,,,,,,,0,144,144,144,,,,,,,,,,,,,,,,,,,,,,,,,,,,,,,,,,,,,main,None,None,1,1.4926132000109646,571.4389074999781,None,None,1,,,,,,,,,,,,,,105,19,Female,2022-04-29_17h17.50.605,Parachute,2022.1.1,59.941976161388965,
negative,blue,2,None,k,,,,,,,,,0,145,145,145,,,,,,,,,,,,,,,,,,,,,,,,,,,,,,,,,,,,,main,k,k,1,0.8038961999991443,573.9347100000014,None,None,0,,,,,,,,,,,,,,105,19,Female,2022-04-29_17h17.50.605,Parachute,2022.1.1,59.941976161388965,
negative,red,1,None,None,,,,,,,,,0,146,146,146,,,,,,,,,,,,,,,,,,,,,,,,,,,,,,,,,,,,,main,None,None,1,1.4933931000123266,575.7384381000011,None,None,1,,,,,,,,,,,,,,105,19,Female,2022-04-29_17h17.50.605,Parachute,2022.1.1,59.941976161388965,
positive,blue,1,k,None,,,,,,,,,0,147,147,147,,,,,,,,,,,,,,,,,,,,,,,,,,,,,,,,,,,,,main,None,None,1,1.4993052000063471,578.2348632999929,None,None,1,,,,,,,,,,,,,,105,19,Female,2022-04-29_17h17.50.605,Parachute,2022.1.1,59.941976161388965,
positive,yellow,1,None,k,,,,,,,,,0,148,148,148,,,,,,,,,,,,,,,,,,,,,,,,,,,,,,,,,,,,,main,k,k,1,0.6697585000074469,580.7362701999955,None,None,0,,,,,,,,,,,,,,105,19,Female,2022-04-29_17h17.50.605,Parachute,2022.1.1,59.941976161388965,
negative,red,2,None,None,,,,,,,,,0,149,149,149,,,,,,,,,,,,,,,,,,,,,,,,,,,,,,,,,,,,,main,None,None,1,1.4935196000151336,582.405402000004,None,None,1,,,,,,,,,,,,,,105,19,Female,2022-04-29_17h17.50.605,Parachute,2022.1.1,59.941976161388965,
negative,blue,1,None,k,,,,,,,,,0,150,150,150,,,,,,,,,,,,,,,,,,,,,,,,,,,,,,,,,,,,,main,k,k,1,1.1046166000014637,584.901756599982,None,None,0,,,,,,,,,,,,,,105,19,Female,2022-04-29_17h17.50.605,Parachute,2022.1.1,59.941976161388965,
negative,yellow,2,k,None,,,,,,,,,0,151,151,151,,,,,,,,,,,,,,,,,,,,,,,,,,,,,,,,,,,,,main,None,None,1,1.493174100003671,587.0049536000006,None,None,1,,,,,,,,,,,,,,105,19,Female,2022-04-29_17h17.50.605,Parachute,2022.1.1,59.941976161388965,
negative,blue,2,None,k,,,,,,,,,0,152,152,152,,,,,,,,,,,,,,,,,,,,,,,,,,,,,,,,,,,,,main,k,k,1,1.2370354999729898,589.5026583999861,None,None,0,,,,,,,,,,,,,,105,19,Female,2022-04-29_17h17.50.605,Parachute,2022.1.1,59.941976161388965,
negative,yellow,1,k,None,,,,,,,,,0,153,153,153,,,,,,,,,,,,,,,,,,,,,,,,,,,,,,,,,,,,,main,None,None,1,1.4934970999893267,591.7380732999882,None,None,1,,,,,,,,,,,,,,105,19,Female,2022-04-29_17h17.50.605,Parachute,2022.1.1,59.941976161388965,
negative,blue,1,None,k,,,,,,,,,0,154,154,154,,,,,,,,,,,,,,,,,,,,,,,,,,,,,,,,,,,,,main,k,k,1,0.9209683999943081,594.2354966999847,None,None,0,,,,,,,,,,,,,,105,19,Female,2022-04-29_17h17.50.605,Parachute,2022.1.1,59.941976161388965,
positive,yellow,2,None,k,,,,,,,,,0,155,155,155,,,,,,,,,,,,,,,,,,,,,,,,,,,,,,,,,,,,,main,k,k,1,1.0147486999921966,596.1555474999768,None,None,0,,,,,,,,,,,,,,105,19,Female,2022-04-29_17h17.50.605,Parachute,2022.1.1,59.941976161388965,
positive,red,2,None,None,,,,,,,,,0,156,156,156,,,,,,,,,,,,,,,,,,,,,,,,,,,,,,,,,,,,,main,None,None,1,1.4933161000080872,598.1715631999832,None,None,1,,,,,,,,,,,,,,105,19,Female,2022-04-29_17h17.50.605,Parachute,2022.1.1,59.941976161388965,
positive,red,1,None,None,,,,,,,,,0,157,157,157,,,,,,,,,,,,,,,,,,,,,,,,,,,,,,,,,,,,,main,None,None,1,1.4988034999987576,600.6688163999934,None,None,1,,,,,,,,,,,,,,105,19,Female,2022-04-29_17h17.50.605,Parachute,2022.1.1,59.941976161388965,
positive,blue,2,k,None,,,,,,,,,0,158,158,158,,,,,,,,,,,,,,,,,,,,,,,,,,,,,,,,,,,,,main,None,None,1,1.4989044000103604,603.1691147999954,None,None,1,,,,,,,,,,,,,,105,19,Female,2022-04-29_17h17.50.605,Parachute,2022.1.1,59.941976161388965,
negative,yellow,1,k,None,,,,,,,,,0,159,159,159,,,,,,,,,,,,,,,,,,,,,,,,,,,,,,,,,,,,,main,None,None,1,1.4987179999880027,605.6691772999766,None,None,1,,,,,,,,,,,,,,105,19,Female,2022-04-29_17h17.50.605,Parachute,2022.1.1,59.941976161388965,
negative,red,2,None,None,,,,,,,,,0,160,160,160,,,,,,,,,,,,,,,,,,,,,,,,,,,,,,,,,,,,,main,None,None,1,1.498804700007895,608.1690880999959,None,None,1,,,,,,,,,,,,,,105,19,Female,2022-04-29_17h17.50.605,Parachute,2022.1.1,59.941976161388965,
negative,blue,1,None,k,,,,,,,,,0,161,161,161,,,,,,,,,,,,,,,,,,,,,,,,,,,,,,,,,,,,,main,k,k,1,0.8370694000041112,610.6699353999866,None,None,0,,,,,,,,,,,,,,105,19,Female,2022-04-29_17h17.50.605,Parachute,2022.1.1,59.941976161388965,
negative,blue,1,None,k,,,,,,,,,0,162,162,162,,,,,,,,,,,,,,,,,,,,,,,,,,,,,,,,,,,,,main,k,k,1,0.9498402000172064,612.5069635999971,None,None,0,,,,,,,,,,,,,,105,19,Female,2022-04-29_17h17.50.605,Parachute,2022.1.1,59.941976161388965,
negative,yellow,1,k,None,,,,,,,,,0,163,163,163,,,,,,,,,,,,,,,,,,,,,,,,,,,,,,,,,,,,,main,None,None,1,1.5073605999932624,614.4586726999842,None,None,1,,,,,,,,,,,,,,105,19,Female,2022-04-29_17h17.50.605,Parachute,2022.1.1,59.941976161388965,
negative,yellow,1,k,None,,,,,,,,,0,164,164,164,,,,,,,,,,,,,,,,,,,,,,,,,,,,,,,,,,,,,main,None,None,1,1.498414799978491,616.9688434999844,None,None,1,,,,,,,,,,,,,,105,19,Female,2022-04-29_17h17.50.605,Parachute,2022.1.1,59.941976161388965,
positive,yellow,1,None,k,,,,,,,,,0,165,165,165,,,,,,,,,,,,,,,,,,,,,,,,,,,,,,,,,,,,,main,k,k,1,1.071142900007544,619.4686530999898,None,None,0,,,,,,,,,,,,,,105,19,Female,2022-04-29_17h17.50.605,Parachute,2022.1.1,59.941976161388965,
negative,red,1,None,None,,,,,,,,,0,166,166,166,,,,,,,,,,,,,,,,,,,,,,,,,,,,,,,,,,,,,main,None,None,1,1.4933173999888822,621.53925229999,None,None,1,,,,,,,,,,,,,,105,19,Female,2022-04-29_17h17.50.605,Parachute,2022.1.1,59.941976161388965,
negative,yellow,2,k,None,,,,,,,,,0,167,167,167,,,,,,,,,,,,,,,,,,,,,,,,,,,,,,,,,,,,,main,None,None,1,1.498746500001289,624.035730100004,None,None,1,,,,,,,,,,,,,,105,19,Female,2022-04-29_17h17.50.605,Parachute,2022.1.1,59.941976161388965,
positive,blue,2,k,None,,,,,,,,,0,168,168,168,,,,,,,,,,,,,,,,,,,,,,,,,,,,,,,,,,,,,main,None,k,0,0.9034007000154816,626.5361166999792,None,None,1,,,,,,,,,,,,,,105,19,Female,2022-04-29_17h17.50.605,Parachute,2022.1.1,59.941976161388965,
positive,red,2,None,None,,,,,,,,,0,169,169,169,,,,,,,,,,,,,,,,,,,,,,,,,,,,,,,,,,,,,main,None,None,1,1.5018350999744143,629.4505666999903,None,None,1,,,,,,,,,,,,,,105,19,Female,2022-04-29_17h17.50.605,Parachute,2022.1.1,59.941976161388965,
positive,red,1,None,None,,,,,,,,,0,170,170,170,,,,,,,,,,,,,,,,,,,,,,,,,,,,,,,,,,,,,main,None,None,1,1.4986828000110108,631.9531693999888,None,None,1,,,,,,,,,,,,,,105,19,Female,2022-04-29_17h17.50.605,Parachute,2022.1.1,59.941976161388965,
negative,blue,2,None,k,,,,,,,,,0,171,171,171,,,,,,,,,,,,,,,,,,,,,,,,,,,,,,,,,,,,,main,k,k,1,0.9867532000062056,634.4535999999789,None,None,0,,,,,,,,,,,,,,105,19,Female,2022-04-29_17h17.50.605,Parachute,2022.1.1,59.941976161388965,
positive,blue,2,k,None,,,,,,,,,0,172,172,172,,,,,,,,,,,,,,,,,,,,,,,,,,,,,,,,,,,,,main,None,None,1,1.4936961999919731,636.4394766000041,None,None,1,,,,,,,,,,,,,,105,19,Female,2022-04-29_17h17.50.605,Parachute,2022.1.1,59.941976161388965,
negative,yellow,2,k,None,,,,,,,,,0,173,173,173,,,,,,,,,,,,,,,,,,,,,,,,,,,,,,,,,,,,,main,None,None,1,1.4986954999912996,638.9361800999905,None,None,1,,,,,,,,,,,,,,105,19,Female,2022-04-29_17h17.50.605,Parachute,2022.1.1,59.941976161388965,
positive,yellow,2,None,k,,,,,,,,,0,174,174,174,,,,,,,,,,,,,,,,,,,,,,,,,,,,,,,,,,,,,main,k,k,1,1.0875058000092395,641.4364543999836,None,None,0,,,,,,,,,,,,,,105,19,Female,2022-04-29_17h17.50.605,Parachute,2022.1.1,59.941976161388965,
negative,blue,2,None,k,,,,,,,,,0,175,175,175,,,,,,,,,,,,,,,,,,,,,,,,,,,,,,,,,,,,,main,k,k,1,1.1316102000128012,643.5229830000026,None,None,0,,,,,,,,,,,,,,105,19,Female,2022-04-29_17h17.50.605,Parachute,2022.1.1,59.941976161388965,
positive,blue,1,k,None,,,,,,,,,0,176,176,176,,,,,,,,,,,,,,,,,,,,,,,,,,,,,,,,,,,,,main,None,None,1,1.4933013999834657,645.6557176999922,None,None,1,,,,,,,,,,,,,,105,19,Female,2022-04-29_17h17.50.605,Parachute,2022.1.1,59.941976161388965,
positive,yellow,1,None,k,,,,,,,,,0,177,177,177,,,,,,,,,,,,,,,,,,,,,,,,,,,,,,,,,,,,,main,k,k,1,1.0197561000240967,648.1527669999923,None,None,0,,,,,,,,,,,,,,105,19,Female,2022-04-29_17h17.50.605,Parachute,2022.1.1,59.941976161388965,
positive,blue,1,k,None,,,,,,,,,0,178,178,178,,,,,,,,,,,,,,,,,,,,,,,,,,,,,,,,,,,,,main,None,None,1,1.4939692999760155,650.1728510999819,None,None,1,,,,,,,,,,,,,,105,19,Female,2022-04-29_17h17.50.605,Parachute,2022.1.1,59.941976161388965,
positive,yellow,2,None,k,,,,,,,,,0,179,179,179,,,,,,,,,,,,,,,,,,,,,,,,,,,,,,,,,,,,,main,k,k,1,0.9866603999980725,652.6690846999991,None,None,0,,,,,,,,,,,,,,105,19,Female,2022-04-29_17h17.50.605,Parachute,2022.1.1,59.941976161388965,
positive,blue,1,k,None,,,,,,,,,0,180,180,180,,,,,,,,,,,,,,,,,,,,,,,,,,,,,,,,,,,,,main,None,None,1,1.4946134999918286,654.6558086999867,None,None,1,,,,,,,,,,,,,,105,19,Female,2022-04-29_17h17.50.605,Parachute,2022.1.1,59.941976161388965,
negative,red,1,None,None,,,,,,,,,0,181,181,181,,,,,,,,,,,,,,,,,,,,,,,,,,,,,,,,,,,,,main,None,None,1,1.4985006999922916,657.1549783999799,None,None,1,,,,,,,,,,,,,,105,19,Female,2022-04-29_17h17.50.605,Parachute,2022.1.1,59.941976161388965,
negative,blue,1,None,k,,,,,,,,,0,182,182,182,,,,,,,,,,,,,,,,,,,,,,,,,,,,,,,,,,,,,main,k,k,1,0.9541445999930147,659.6546997999831,None,None,0,,,,,,,,,,,,,,105,19,Female,2022-04-29_17h17.50.605,Parachute,2022.1.1,59.941976161388965,
negative,yellow,2,k,None,,,,,,,,,0,183,183,183,,,,,,,,,,,,,,,,,,,,,,,,,,,,,,,,,,,,,main,None,None,1,1.4934686999768019,661.606375000003,None,None,1,,,,,,,,,,,,,,105,19,Female,2022-04-29_17h17.50.605,Parachute,2022.1.1,59.941976161388965,
positive,yellow,2,None,k,,,,,,,,,0,184,184,184,,,,,,,,,,,,,,,,,,,,,,,,,,,,,,,,,,,,,main,k,k,1,0.7452094999898691,664.1033893999993,None,None,0,,,,,,,,,,,,,,105,19,Female,2022-04-29_17h17.50.605,Parachute,2022.1.1,59.941976161388965,
positive,yellow,1,None,k,,,,,,,,,0,185,185,185,,,,,,,,,,,,,,,,,,,,,,,,,,,,,,,,,,,,,main,k,k,1,0.7238381000061054,665.8518296999973,None,None,0,,,,,,,,,,,,,,105,19,Female,2022-04-29_17h17.50.605,Parachute,2022.1.1,59.941976161388965,
positive,red,2,None,None,,,,,,,,,0,186,186,186,,,,,,,,,,,,,,,,,,,,,,,,,,,,,,,,,,,,,main,None,None,1,1.4935238000180107,667.5730652999773,None,None,1,,,,,,,,,,,,,,105,19,Female,2022-04-29_17h17.50.605,Parachute,2022.1.1,59.941976161388965,
positive,blue,1,k,None,,,,,,,,,0,187,187,187,,,,,,,,,,,,,,,,,,,,,,,,,,,,,,,,,,,,,main,None,None,1,1.4989635999954771,670.070078299992,None,None,1,,,,,,,,,,,,,,105,19,Female,2022-04-29_17h17.50.605,Parachute,2022.1.1,59.941976161388965,
negative,yellow,1,k,None,,,,,,,,,0,188,188,188,,,,,,,,,,,,,,,,,,,,,,,,,,,,,,,,,,,,,main,None,None,1,1.4985133000009228,672.5705499000032,None,None,1,,,,,,,,,,,,,,105,19,Female,2022-04-29_17h17.50.605,Parachute,2022.1.1,59.941976161388965,
positive,yellow,2,None,k,,,,,,,,,0,189,189,189,,,,,,,,,,,,,,,,,,,,,,,,,,,,,,,,,,,,,main,k,k,1,1.2542417000222486,675.070126799983,None,None,0,,,,,,,,,,,,,,105,19,Female,2022-04-29_17h17.50.605,Parachute,2022.1.1,59.941976161388965,
negative,yellow,2,k,None,,,,,,,,,0,190,190,190,,,,,,,,,,,,,,,,,,,,,,,,,,,,,,,,,,,,,main,None,None,1,1.4927571000007447,677.3237695999851,None,None,1,,,,,,,,,,,,,,105,19,Female,2022-04-29_17h17.50.605,Parachute,2022.1.1,59.941976161388965,
negative,yellow,1,k,None,,,,,,,,,0,191,191,191,,,,,,,,,,,,,,,,,,,,,,,,,,,,,,,,,,,,,main,None,None,1,1.4993512999790255,679.820055499993,None,None,1,,,,,,,,,,,,,,105,19,Female,2022-04-29_17h17.50.605,Parachute,2022.1.1,59.941976161388965,
positive,blue,2,k,None,,,,,,,,,0,192,192,192,,,,,,,,,,,,,,,,,,,,,,,,,,,,,,,,,,,,,main,None,None,1,1.499020000017481,682.3208109999832,None,None,1,,,,,,,,,,,,,,105,19,Female,2022-04-29_17h17.50.605,Parachute,2022.1.1,59.941976161388965,
positive,yellow,1,None,k,,,,,,,,,0,193,193,193,,,,,,,,,,,,,,,,,,,,,,,,,,,,,,,,,,,,,main,k,k,1,2.0017520999826957,684.8211871999956,None,None,0,,,,,,,,,,,,,,105,19,Female,2022-04-29_17h17.50.605,Parachute,2022.1.1,59.941976161388965,
negative,red,2,None,None,,,,,,,,,0,194,194,194,,,,,,,,,,,,,,,,,,,,,,,,,,,,,,,,,,,,,main,None,None,1,1.5012745000130963,688.8351187999942,None,None,1,,,,,,,,,,,,,,105,19,Female,2022-04-29_17h17.50.605,Parachute,2022.1.1,59.941976161388965,
positive,red,1,None,None,,,,,,,,,0,195,195,195,,,,,,,,,,,,,,,,,,,,,,,,,,,,,,,,,,,,,main,None,None,1,1.4990641000040341,691.3363856999786,None,None,1,,,,,,,,,,,,,,105,19,Female,2022-04-29_17h17.50.605,Parachute,2022.1.1,59.941976161388965,
negative,blue,1,None,k,,,,,,,,,0,196,196,196,,,,,,,,,,,,,,,,,,,,,,,,,,,,,,,,,,,,,main,k,k,1,1.6119371999811847,693.837598699989,None,None,0,,,,,,,,,,,,,,105,19,Female,2022-04-29_17h17.50.605,Parachute,2022.1.1,59.941976161388965,
positive,blue,2,k,None,,,,,,,,,0,197,197,197,,,,,,,,,,,,,,,,,,,,,,,,,,,,,,,,,,,,,main,None,None,1,1.5026669999933802,697.4522614000016,None,None,1,,,,,,,,,,,,,,105,19,Female,2022-04-29_17h17.50.605,Parachute,2022.1.1,59.941976161388965,
negative,blue,2,None,k,,,,,,,,,0,198,198,198,,,,,,,,,,,,,,,,,,,,,,,,,,,,,,,,,,,,,main,k,k,1,1.08634759997949,699.9550613999891,None,None,0,,,,,,,,,,,,,,105,19,Female,2022-04-29_17h17.50.605,Parachute,2022.1.1,59.941976161388965,
negative,blue,2,None,k,,,,,,,,,0,199,199,199,,,,,,,,,,,,,,,,,,,,,,,,,,,,,,,,,,,,,main,k,k,1,0.6736057999951299,702.040981099999,None,None,0,,,,,,,,,,,,,,105,19,Female,2022-04-29_17h17.50.605,Parachute,2022.1.1,59.941976161388965,
positive,blue,2,k,None,,,,,,,,,0,200,200,200,,,,,,,,,,,,,,,,,,,,,,,,,,,,,,,,,,,,,main,None,None,1,1.5019613000040408,703.7186033999897,None,None,1,,,,,,,,,,,,,,105,19,Female,2022-04-29_17h17.50.605,Parachute,2022.1.1,59.941976161388965,
positive,blue,2,k,None,,,,,,,,,0,201,201,201,,,,,,,,,,,,,,,,,,,,,,,,,,,,,,,,,,,,,main,None,None,1,1.49868809999316,706.2204827999813,None,None,1,,,,,,,,,,,,,,105,19,Female,2022-04-29_17h17.50.605,Parachute,2022.1.1,59.941976161388965,
negative,yellow,2,k,None,,,,,,,,,0,202,202,202,,,,,,,,,,,,,,,,,,,,,,,,,,,,,,,,,,,,,main,None,None,1,1.4990724000090268,708.7211186999921,None,None,1,,,,,,,,,,,,,,105,19,Female,2022-04-29_17h17.50.605,Parachute,2022.1.1,59.941976161388965,
positive,red,1,None,None,,,,,,,,,0,203,203,203,,,,,,,,,,,,,,,,,,,,,,,,,,,,,,,,,,,,,main,None,None,1,1.4987082000006922,711.2217943999858,None,None,1,,,,,,,,,,,,,,105,19,Female,2022-04-29_17h17.50.605,Parachute,2022.1.1,59.941976161388965,
negative,blue,2,None,k,,,,,,,,,0,204,204,204,,,,,,,,,,,,,,,,,,,,,,,,,,,,,,,,,,,,,main,k,k,1,0.9370053000166081,713.7217807999987,None,None,0,,,,,,,,,,,,,,105,19,Female,2022-04-29_17h17.50.605,Parachute,2022.1.1,59.941976161388965,
negative,red,1,None,None,,,,,,,,,0,205,205,205,,,,,,,,,,,,,,,,,,,,,,,,,,,,,,,,,,,,,main,None,None,1,1.4935228000103962,715.6575034999987,None,None,1,,,,,,,,,,,,,,105,19,Female,2022-04-29_17h17.50.605,Parachute,2022.1.1,59.941976161388965,
negative,blue,2,None,k,,,,,,,,,0,206,206,206,,,,,,,,,,,,,,,,,,,,,,,,,,,,,,,,,,,,,main,k,k,1,0.9040347999834921,718.1548711999785,None,None,0,,,,,,,,,,,,,,105,19,Female,2022-04-29_17h17.50.605,Parachute,2022.1.1,59.941976161388965,
negative,yellow,2,k,None,,,,,,,,,0,207,207,207,,,,,,,,,,,,,,,,,,,,,,,,,,,,,,,,,,,,,main,None,None,1,1.4926520999870263,720.0682355999888,None,None,1,,,,,,,,,,,,,,105,19,Female,2022-04-29_17h17.50.605,Parachute,2022.1.1,59.941976161388965,
positive,yellow,2,None,k,,,,,,,,,0,208,208,208,,,,,,,,,,,,,,,,,,,,,,,,,,,,,,,,,,,,,main,k,k,1,0.9871515999839175,722.554604999983,None,None,0,,,,,,,,,,,,,,105,19,Female,2022-04-29_17h17.50.605,Parachute,2022.1.1,59.941976161388965,
negative,yellow,1,k,None,,,,,,,,,0,209,209,209,,,,,,,,,,,,,,,,,,,,,,,,,,,,,,,,,,,,,main,None,None,1,1.4938774000038393,724.5511467999895,None,None,1,,,,,,,,,,,,,,105,19,Female,2022-04-29_17h17.50.605,Parachute,2022.1.1,59.941976161388965,
negative,red,2,None,None,,,,,,,,,0,210,210,210,,,,,,,,,,,,,,,,,,,,,,,,,,,,,,,,,,,,,main,None,None,1,1.4990192000113893,727.0381608000025,None,None,1,,,,,,,,,,,,,,105,19,Female,2022-04-29_17h17.50.605,Parachute,2022.1.1,59.941976161388965,
negative,blue,1,None,k,,,,,,,,,0,211,211,211,,,,,,,,,,,,,,,,,,,,,,,,,,,,,,,,,,,,,main,k,k,1,0.9203727999993134,729.538523700001,None,None,0,,,,,,,,,,,,,,105,19,Female,2022-04-29_17h17.50.605,Parachute,2022.1.1,59.941976161388965,
negative,yellow,1,k,None,,,,,,,,,0,212,212,212,,,,,,,,,,,,,,,,,,,,,,,,,,,,,,,,,,,,,main,None,None,1,1.492912099987734,731.4583574999997,None,None,1,,,,,,,,,,,,,,105,19,Female,2022-04-29_17h17.50.605,Parachute,2022.1.1,59.941976161388965,
positive,blue,1,k,None,,,,,,,,,0,213,213,213,,,,,,,,,,,,,,,,,,,,,,,,,,,,,,,,,,,,,main,None,None,1,1.4988591999863274,733.9539058999799,None,None,1,,,,,,,,,,,,,,105,19,Female,2022-04-29_17h17.50.605,Parachute,2022.1.1,59.941976161388965,
positive,blue,1,k,None,,,,,,,,,0,214,214,214,,,,,,,,,,,,,,,,,,,,,,,,,,,,,,,,,,,,,main,None,None,1,1.4986701000016183,736.4547418000002,None,None,1,,,,,,,,,,,,,,105,19,Female,2022-04-29_17h17.50.605,Parachute,2022.1.1,59.941976161388965,
positive,yellow,1,None,k,,,,,,,,,0,215,215,215,,,,,,,,,,,,,,,,,,,,,,,,,,,,,,,,,,,,,main,k,k,1,1.1373514000151772,738.9545949999883,None,None,0,,,,,,,,,,,,,,105,19,Female,2022-04-29_17h17.50.605,Parachute,2022.1.1,59.941976161388965,
positive,yellow,1,None,k,,,,,,,,,0,216,216,216,,,,,,,,,,,,,,,,,,,,,,,,,,,,,,,,,,,,,main,k,k,1,2.2333388999977615,741.0914062999946,None,None,0,,,,,,,,,,,,,,105,19,Female,2022-04-29_17h17.50.605,Parachute,2022.1.1,59.941976161388965,
positive,yellow,2,None,k,,,,,,,,,0,217,217,217,,,,,,,,,,,,,,,,,,,,,,,,,,,,,,,,,,,,,main,k,k,1,0.840340800001286,745.3358989999979,None,None,0,,,,,,,,,,,,,,105,19,Female,2022-04-29_17h17.50.605,Parachute,2022.1.1,59.941976161388965,
negative,blue,1,None,k,,,,,,,,,0,218,218,218,,,,,,,,,,,,,,,,,,,,,,,,,,,,,,,,,,,,,main,k,k,1,0.881412700022338,747.175245099992,None,None,0,,,,,,,,,,,,,,105,19,Female,2022-04-29_17h17.50.605,Parachute,2022.1.1,59.941976161388965,
positive,red,2,None,None,,,,,,,,,0,219,219,219,,,,,,,,,,,,,,,,,,,,,,,,,,,,,,,,,,,,,main,None,None,1,1.4930365000036545,749.0583932999871,None,None,1,,,,,,,,,,,,,,105,19,Female,2022-04-29_17h17.50.605,Parachute,2022.1.1,59.941976161388965,
positive,yellow,1,None,k,,,,,,,,,0,220,220,220,,,,,,,,,,,,,,,,,,,,,,,,,,,,,,,,,,,,,main,k,k,1,0.8375572999939322,751.5544456999924,None,None,0,,,,,,,,,,,,,,105,19,Female,2022-04-29_17h17.50.605,Parachute,2022.1.1,59.941976161388965,
positive,blue,1,k,None,,,,,,,,,0,221,221,221,,,,,,,,,,,,,,,,,,,,,,,,,,,,,,,,,,,,,main,None,None,1,1.4941762000089511,753.3913262999849,None,None,1,,,,,,,,,,,,,,105,19,Female,2022-04-29_17h17.50.605,Parachute,2022.1.1,59.941976161388965,
positive,yellow,2,None,k,,,,,,,,,0,222,222,222,,,,,,,,,,,,,,,,,,,,,,,,,,,,,,,,,,,,,main,k,k,1,0.8370942000183277,755.8887661999906,None,None,0,,,,,,,,,,,,,,105,19,Female,2022-04-29_17h17.50.605,Parachute,2022.1.1,59.941976161388965,
negative,yellow,1,k,None,,,,,,,,,0,223,223,223,,,,,,,,,,,,,,,,,,,,,,,,,,,,,,,,,,,,,main,None,None,1,1.4931913000182249,757.7253940999799,None,None,1,,,,,,,,,,,,,,105,19,Female,2022-04-29_17h17.50.605,Parachute,2022.1.1,59.941976161388965,
positive,yellow,2,None,k,,,,,,,,,0,224,224,224,,,,,,,,,,,,,,,,,,,,,,,,,,,,,,,,,,,,,main,k,k,1,1.1042830000224058,760.2221657999908,None,None,0,,,,,,,,,,,,,,105,19,Female,2022-04-29_17h17.50.605,Parachute,2022.1.1,59.941976161388965,
negative,yellow,2,k,None,,,,,,,,,0,225,225,225,,,,,,,,,,,,,,,,,,,,,,,,,,,,,,,,,,,,,main,None,None,1,1.4937486999842804,762.3251219999802,None,None,1,,,,,,,,,,,,,,105,19,Female,2022-04-29_17h17.50.605,Parachute,2022.1.1,59.941976161388965,
negative,blue,2,None,k,,,,,,,,,0,226,226,226,,,,,,,,,,,,,,,,,,,,,,,,,,,,,,,,,,,,,main,k,None,0,0.9360024000052363,764.8229126999795,None,None,0,,,,,,,,,,,,,,105,19,Female,2022-04-29_17h17.50.605,Parachute,2022.1.1,59.941976161388965,
positive,red,2,None,None,,,,,,,,,0,227,227,227,,,,,,,,,,,,,,,,,,,,,,,,,,,,,,,,,,,,,main,None,None,1,1.5026020999939647,767.7703366999922,None,None,1,,,,,,,,,,,,,,105,19,Female,2022-04-29_17h17.50.605,Parachute,2022.1.1,59.941976161388965,
positive,blue,2,k,None,,,,,,,,,0,228,228,228,,,,,,,,,,,,,,,,,,,,,,,,,,,,,,,,,,,,,main,None,None,1,1.497890600003302,770.2732611999963,None,None,1,,,,,,,,,,,,,,105,19,Female,2022-04-29_17h17.50.605,Parachute,2022.1.1,59.941976161388965,
negative,blue,1,None,k,,,,,,,,,0,229,229,229,,,,,,,,,,,,,,,,,,,,,,,,,,,,,,,,,,,,,main,k,k,1,0.871622100006789,772.7723464999872,None,None,0,,,,,,,,,,,,,,105,19,Female,2022-04-29_17h17.50.605,Parachute,2022.1.1,59.941976161388965,
positive,yellow,1,None,k,,,,,,,,,0,230,230,230,,,,,,,,,,,,,,,,,,,,,,,,,,,,,,,,,,,,,main,k,k,1,0.7633179999829736,774.6431171000004,None,None,0,,,,,,,,,,,,,,105,19,Female,2022-04-29_17h17.50.605,Parachute,2022.1.1,59.941976161388965,
negative,blue,2,None,k,,,,,,,,,0,231,231,231,,,,,,,,,,,,,,,,,,,,,,,,,,,,,,,,,,,,,main,k,k,1,1.3664053000102285,776.4084567999816,None,None,0,,,,,,,,,,,,,,105,19,Female,2022-04-29_17h17.50.605,Parachute,2022.1.1,59.941976161388965,
negative,red,1,None,None,,,,,,,,,0,232,232,232,,,,,,,,,,,,,,,,,,,,,,,,,,,,,,,,,,,,,main,None,None,1,1.4931730999960564,778.7757789999887,None,None,1,,,,,,,,,,,,,,105,19,Female,2022-04-29_17h17.50.605,Parachute,2022.1.1,59.941976161388965,
positive,blue,2,k,None,,,,,,,,,0,233,233,233,,,,,,,,,,,,,,,,,,,,,,,,,,,,,,,,,,,,,main,None,None,1,1.4992230999923777,781.2723286999972,None,None,1,,,,,,,,,,,,,,105,19,Female,2022-04-29_17h17.50.605,Parachute,2022.1.1,59.941976161388965,
negative,yellow,1,k,None,,,,,,,,,0,234,234,234,,,,,,,,,,,,,,,,,,,,,,,,,,,,,,,,,,,,,main,None,None,1,1.4988712999911513,783.772804999986,None,None,1,,,,,,,,,,,,,,105,19,Female,2022-04-29_17h17.50.605,Parachute,2022.1.1,59.941976161388965,
negative,yellow,2,k,None,,,,,,,,,0,235,235,235,,,,,,,,,,,,,,,,,,,,,,,,,,,,,,,,,,,,,main,None,None,1,1.4982878000009805,786.273174699978,None,None,1,,,,,,,,,,,,,,105,19,Female,2022-04-29_17h17.50.605,Parachute,2022.1.1,59.941976161388965,
positive,red,1,None,None,,,,,,,,,0,236,236,236,,,,,,,,,,,,,,,,,,,,,,,,,,,,,,,,,,,,,main,None,None,1,1.4982524999941234,788.7732100999856,None,None,1,,,,,,,,,,,,,,105,19,Female,2022-04-29_17h17.50.605,Parachute,2022.1.1,59.941976161388965,
negative,red,2,None,None,,,,,,,,,0,237,237,237,,,,,,,,,,,,,,,,,,,,,,,,,,,,,,,,,,,,,main,None,None,1,1.4990025000006426,791.2716387999826,None,None,1,,,,,,,,,,,,,,105,19,Female,2022-04-29_17h17.50.605,Parachute,2022.1.1,59.941976161388965,
negative,blue,1,None,k,,,,,,,,,0,238,238,238,,,,,,,,,,,,,,,,,,,,,,,,,,,,,,,,,,,,,main,k,k,1,1.735924000007799,793.7737347999937,None,None,0,,,,,,,,,,,,,,105,19,Female,2022-04-29_17h17.50.605,Parachute,2022.1.1,59.941976161388965,
positive,blue,1,k,None,,,,,,,,,0,239,239,239,,,,,,,,,,,,,,,,,,,,,,,,,,,,,,,,,,,,,main,None,None,1,1.5029310999962036,797.5203890999837,None,None,1,,,,,,,,,,,,,,105,19,Female,2022-04-29_17h17.50.605,Parachute,2022.1.1,59.941976161388965,
,,,,,,,,,,,,,,,,,,,,,,,,,,,,,,,,,,,,,,,,,,,,,,,,,,,,,,,,,,,,,,,,,,,,,,,,,800.0212440000032,None,,,,,,,,
