distractor,target,set,ans1,ans2,rep_loop4.thisRepN,rep_loop4.thisTrialN,rep_loop4.thisN,rep_loop4.thisIndex,st2_prac_loop.thisRepN,st2_prac_loop.thisTrialN,st2_prac_loop.thisN,st2_prac_loop.thisIndex,st2_main_loop.thisRepN,st2_main_loop.thisTrialN,st2_main_loop.thisN,st2_main_loop.thisIndex,image_4.started,image_4.stopped,mouse_7.x,mouse_7.y,mouse_7.leftButton,mouse_7.midButton,mouse_7.rightButton,sound_2.started,sound_2.stopped,key_resp_3.keys,mouse_5.x,mouse_5.y,mouse_5.leftButton,mouse_5.midButton,mouse_5.rightButton,mouse_5.started,mouse_5.stopped,yes_text2.started,yes_text2.stopped,no_text2.started,no_text2.stopped,mouse_3.x,mouse_3.y,mouse_3.leftButton,mouse_3.midButton,mouse_3.rightButton,mouse_3.started,mouse_3.stopped,mouse_3.clicked_name,st_prac_back.started,st_prac_back.stopped,st_prac_text.started,st_prac_text.stopped,st_fix_back.started,st_fix_back.stopped,st_fix_2.started,st_fix_2.stopped,main_prac,st_ans,st_res,st_corr,st_rt,st_back.started,st_back.stopped,st2_resp.keys,st2_resp.corr,st_main_back.started,st_main_back.stopped,st_main_text.started,st_main_text.stopped,mouse_4.x,mouse_4.y,mouse_4.leftButton,mouse_4.midButton,mouse_4.rightButton,mouse_4.started,mouse_4.stopped,text_2.started,text_2.stopped,id*,age*,gender*,date,expName,psychopyVersion,frameRate,
,,,,,,,,,,,,,,,,,43.2835047999979,None,-0.11018518,0.1037037,0,0,0,,,,,,,,,,,,,,,,,,,,,,,,,,,,,,,,,,,,,,,,,,,,,,,,,,,,,106,29,Female,2022-04-29_19h03.46.910,Parachute,2022.1.1,59.88300058791508,
negative,yellow,1,k,None,,,,,0,0,0,0,,,,,,,,,,,,50.26539368998201,None,None,0.017592592,-0.40648147,0,0,0,1.0104914499970619,None,124.31734789998154,None,124.31734789998154,None,-0.08425926,-0.10555556,0,0,0,0.013885690015740693,None,no_area2,126.21904869997525,None,126.21904869997525,None,128.23681159998523,None,128.23681159998523,None,prac,k,k,1,2.2825501000043005,130.2460145999794,None,None,0,,,,,,,,,,,,,,106,29,Female,2022-04-29_19h03.46.910,Parachute,2022.1.1,59.88300058791508,
positive,red,2,None,None,,,,,0,1,1,1,,,,,,,,,,,,,,,,,,,,,,,,,,,,,,,,,,,,,,,,,,prac,None,None,1,1.50151659999392,134.55020829997375,None,None,1,,,,,,,,,,,,,,106,29,Female,2022-04-29_19h03.46.910,Parachute,2022.1.1,59.88300058791508,
negative,blue,2,None,k,,,,,0,2,2,2,,,,,,,,,,,,,,,,,,,,,,,,,,,,,,,,,,,,,,,,,,prac,None,None,1,1.498221400019247,137.05321399998502,None,None,1,,,,,,,,,,,,,,106,29,Female,2022-04-29_19h03.46.910,Parachute,2022.1.1,59.88300058791508,
positive,yellow,1,None,k,,,,,0,3,3,3,,,,,,,,,,,,,,,,,,,,,,,,,,,,,,,,,,,,,,,,,,prac,None,None,1,1.498785499978112,139.5527519999887,None,None,1,,,,,,,,,,,,,,106,29,Female,2022-04-29_19h03.46.910,Parachute,2022.1.1,59.88300058791508,
negative,blue,2,None,k,,,,,0,4,4,4,,,,,,,,,,,,,,,,,,,,,,,,,,,,,,,,,,,,,,,,,,prac,None,None,1,1.497571899992181,142.05397099998663,None,None,1,,,,,,,,,,,,,,106,29,Female,2022-04-29_19h03.46.910,Parachute,2022.1.1,59.88300058791508,
negative,blue,1,None,k,,,,,0,5,5,5,,,,,,,,,,,,,,,,,,,,,,,,,,,,,,,,,,,,,,,,,,prac,None,None,1,1.4987899000116158,144.55233779997798,None,None,1,,,,,,,,,,,,,,106,29,Female,2022-04-29_19h03.46.910,Parachute,2022.1.1,59.88300058791508,
negative,yellow,2,k,None,,,,,0,6,6,6,,,,,,,,,,,,,,,,,,,,,,,,,,,,,,,,,,,,,,,,,,prac,k,k,1,1.1869601999933366,147.05317229998764,None,None,0,,,,,,,,,,,,,,106,29,Female,2022-04-29_19h03.46.910,Parachute,2022.1.1,59.88300058791508,
negative,red,1,None,None,,,,,0,7,7,7,,,,,,,,,,,,,,,,,,,,,,,,,,,,,,,,,,,,,,,,,,prac,None,None,1,1.4935708999983035,149.23899749998236,None,None,1,,,,,,,,,,,,,,106,29,Female,2022-04-29_19h03.46.910,Parachute,2022.1.1,59.88300058791508,
positive,yellow,2,None,k,,,,,0,8,8,8,,,,,,,,,,,,,,,,,,,,,,,,,,,,,,,,,,,,,,,,,,prac,None,None,1,1.4993483000143897,151.7362729999877,None,None,1,,,,,,,,,,,,,,106,29,Female,2022-04-29_19h03.46.910,Parachute,2022.1.1,59.88300058791508,
negative,yellow,1,k,None,,,,,0,9,9,9,,,,,,,,,,,,,,,,,,,,,,,,,,,,,,,,,,,,,,,,,,prac,k,k,1,1.0862481000076514,154.2376338999893,None,None,0,,,,,,,,,,,,,,106,29,Female,2022-04-29_19h03.46.910,Parachute,2022.1.1,59.88300058791508,
positive,yellow,2,None,k,,,,,0,10,10,10,,,,,,,,,,,,,,,,,,,,,,,,,,,,,,,,,,,,,,,,,,prac,None,None,1,1.4937126000004355,156.32250589999603,None,None,1,,,,,,,,,,,,,,106,29,Female,2022-04-29_19h03.46.910,Parachute,2022.1.1,59.88300058791508,
negative,yellow,2,k,None,,,,,0,11,11,11,,,,,,,,,,,,,,,,,,,,,,,,,,,,,,,,,,,,,,,,,,prac,k,k,1,1.219368799997028,158.8206599999976,None,None,0,,,,,,,,,,,,,,106,29,Female,2022-04-29_19h03.46.910,Parachute,2022.1.1,59.88300058791508,
negative,red,2,None,None,,,,,0,12,12,12,,,,,,,,,,,,,,,,,,,,,,,,,,,,,,,,,,,,,,,,,,prac,None,None,1,1.494066000013845,161.03931389999343,None,None,1,,,,,,,,,,,,,,106,29,Female,2022-04-29_19h03.46.910,Parachute,2022.1.1,59.88300058791508,
positive,red,1,None,None,,,,,0,13,13,13,,,,,,,,,,,,,,,,,,,,,,,,,,,,,,,,,,,,,,,,,,prac,None,None,1,1.4987350000010338,163.5361533999967,None,None,1,,,,,,,,,,,,,,106,29,Female,2022-04-29_19h03.46.910,Parachute,2022.1.1,59.88300058791508,
positive,blue,2,k,None,,,,,0,14,14,14,,,,,,,,,,,,,,,,,,,,,,,,,,,,,,,,,,,,,,,,,,prac,k,k,1,0.704254000011133,166.03638189999037,None,None,0,,,,,,,,,,,,,,106,29,Female,2022-04-29_19h03.46.910,Parachute,2022.1.1,59.88300058791508,
positive,blue,1,k,None,,,,,0,15,15,15,,,,,,,,,,,,,,,,,,,,,,,,,,,,,,,,,,,,,,,,,,prac,k,k,1,1.012562899995828,167.74017629999435,None,None,0,,,,,,,,,,,,,,106,29,Female,2022-04-29_19h03.46.910,Parachute,2022.1.1,59.88300058791508,
negative,blue,1,None,k,,,,,0,16,16,16,,,,,,,,,,,,,,,,,,,,,,,,,,,,,,,,,,,,,,,,,,prac,None,None,1,1.496100899996236,169.7558254999749,None,None,1,,,,,,,,,,,,,,106,29,Female,2022-04-29_19h03.46.910,Parachute,2022.1.1,59.88300058791508,
positive,blue,2,k,None,,,,,0,17,17,17,,,,,,,,,,,,,,,,,,,,,,,,,,,,,,,,,,,,,,,,,,prac,k,k,1,0.8694566000194754,172.2535817999742,None,None,0,,,,,,,,,,,,,,106,29,Female,2022-04-29_19h03.46.910,Parachute,2022.1.1,59.88300058791508,
positive,blue,1,k,None,,,,,0,18,18,18,,,,,,,,,,,,,,,,,,,,,,,,,,,,,,,,,,,,,,,,,,prac,k,k,1,1.16438949998701,174.12252289999742,None,None,0,,,,,,,,,,,,,,106,29,Female,2022-04-29_19h03.46.910,Parachute,2022.1.1,59.88300058791508,
positive,yellow,1,None,k,,,,,0,19,19,19,,,,,,,,,,,,,,,,,,,,,,,,,,,,,,,,,,,,,,,,,,prac,None,None,1,1.4954927999933716,176.28966719997698,None,None,1,,,,,,,,,,,,,,106,29,Female,2022-04-29_19h03.46.910,Parachute,2022.1.1,59.88300058791508,
negative,yellow,1,k,None,,,,,1,0,20,0,,,,,,,,,,,,,,,,,,,,,,,,,,,,,,,,,,,,,,,,,,prac,k,k,1,0.7369082999939565,178.78657810000004,None,None,0,,,,,,,,,,,,,,106,29,Female,2022-04-29_19h03.46.910,Parachute,2022.1.1,59.88300058791508,
positive,red,2,None,None,,,,,1,1,21,1,,,,,,,,,,,,,,,,,,,,,,,,,,,,,,,,,,,,,,,,,,prac,None,None,1,1.493517700000666,180.52323679998517,None,None,1,,,,,,,,,,,,,,106,29,Female,2022-04-29_19h03.46.910,Parachute,2022.1.1,59.88300058791508,
negative,blue,2,None,k,,,,,1,2,22,2,,,,,,,,,,,,,,,,,,,,,,,,,,,,,,,,,,,,,,,,,,prac,None,None,1,1.4990184000052977,183.01956479999353,None,None,1,,,,,,,,,,,,,,106,29,Female,2022-04-29_19h03.46.910,Parachute,2022.1.1,59.88300058791508,
positive,yellow,1,None,k,,,,,1,3,23,3,,,,,,,,,,,,,,,,,,,,,,,,,,,,,,,,,,,,,,,,,,prac,None,None,1,1.498766800010344,185.5206768999924,None,None,1,,,,,,,,,,,,,,106,29,Female,2022-04-29_19h03.46.910,Parachute,2022.1.1,59.88300058791508,
negative,blue,2,None,k,,,,,1,4,24,4,,,,,,,,,,,,,,,,,,,,,,,,,,,,,,,,,,,,,,,,,,prac,None,None,1,1.498241000022972,188.02079339997726,None,None,1,,,,,,,,,,,,,,106,29,Female,2022-04-29_19h03.46.910,Parachute,2022.1.1,59.88300058791508,
negative,blue,1,None,k,,,,,1,5,25,5,,,,,,,,,,,,,,,,,,,,,,,,,,,,,,,,,,,,,,,,,,prac,None,None,1,1.4992327999789268,190.51967009998043,None,None,1,,,,,,,,,,,,,,106,29,Female,2022-04-29_19h03.46.910,Parachute,2022.1.1,59.88300058791508,
negative,yellow,2,k,None,,,,,1,6,26,6,,,,,,,,,,,,,,,,,,,,,,,,,,,,,,,,,,,,,,,,,,prac,k,k,1,0.8454337999864947,193.02076029998716,None,None,0,,,,,,,,,,,,,,106,29,Female,2022-04-29_19h03.46.910,Parachute,2022.1.1,59.88300058791508,
negative,red,1,None,None,,,,,1,7,27,7,,,,,,,,,,,,,,,,,,,,,,,,,,,,,,,,,,,,,,,,,,prac,None,None,1,1.501856399991084,194.8680050999974,None,None,1,,,,,,,,,,,,,,106,29,Female,2022-04-29_19h03.46.910,Parachute,2022.1.1,59.88300058791508,
positive,yellow,2,None,k,,,,,1,8,28,8,,,,,,,,,,,,,,,,,,,,,,,,,,,,,,,,,,,,,,,,,,prac,None,None,1,1.4990063000004739,197.3708912000002,None,None,1,,,,,,,,,,,,,,106,29,Female,2022-04-29_19h03.46.910,Parachute,2022.1.1,59.88300058791508,
negative,yellow,1,k,None,,,,,1,9,29,9,,,,,,,,,,,,,,,,,,,,,,,,,,,,,,,,,,,,,,,,,,prac,k,k,1,0.9698236999975052,199.8715609999781,None,None,0,,,,,,,,,,,,,,106,29,Female,2022-04-29_19h03.46.910,Parachute,2022.1.1,59.88300058791508,
positive,yellow,2,None,k,,,,,1,10,30,10,,,,,,,,,,,,,,,,,,,,,,,,,,,,,,,,,,,,,,,,,,prac,None,None,1,1.5102161999966484,201.84026169998106,None,None,1,,,,,,,,,,,,,,106,29,Female,2022-04-29_19h03.46.910,Parachute,2022.1.1,59.88300058791508,
negative,yellow,2,k,None,,,,,1,11,31,11,,,,,,,,,,,,,,,,,,,,,,,,,,,,,,,,,,,,,,,,,,prac,k,k,1,1.3509101000090595,204.35357999999542,None,None,0,,,,,,,,,,,,,,106,29,Female,2022-04-29_19h03.46.910,Parachute,2022.1.1,59.88300058791508,
negative,red,2,None,None,,,,,1,12,32,12,,,,,,,,,,,,,,,,,,,,,,,,,,,,,,,,,,,,,,,,,,prac,None,None,1,1.496458999987226,206.70649689997663,None,None,1,,,,,,,,,,,,,,106,29,Female,2022-04-29_19h03.46.910,Parachute,2022.1.1,59.88300058791508,
positive,red,1,None,None,,,,,1,13,33,13,,,,,,,,,,,,,,,,,,,,,,,,,,,,,,,,,,,,,,,,,,prac,None,None,1,1.4986465999973007,209.2043836999801,None,None,1,,,,,,,,,,,,,,106,29,Female,2022-04-29_19h03.46.910,Parachute,2022.1.1,59.88300058791508,
positive,blue,2,k,None,,,,,1,14,34,14,,,,,,,,,,,,,,,,,,,,,,,,,,,,,,,,,,,,,,,,,,prac,k,k,1,2.818866400019033,211.70421909997822,None,None,0,,,,,,,,,,,,,,106,29,Female,2022-04-29_19h03.46.910,Parachute,2022.1.1,59.88300058791508,
positive,blue,1,k,None,,,,,1,15,35,15,,,,,,,,,,,,,,,,,,,,,,,,,,,,,,,,,,,,,,,,,,prac,k,k,1,1.2572292999830097,216.53555589998723,None,None,0,,,,,,,,,,,,,,106,29,Female,2022-04-29_19h03.46.910,Parachute,2022.1.1,59.88300058791508,
negative,blue,1,None,k,,,,,1,16,36,16,,,,,,,,,,,,,,,,,,,,,,,,,,,,,,,,,,,,,,,,,,prac,None,None,1,1.4933158000058029,218.79077819999657,None,None,1,,,,,,,,,,,,,,106,29,Female,2022-04-29_19h03.46.910,Parachute,2022.1.1,59.88300058791508,
positive,blue,2,k,None,,,,,1,17,37,17,,,,,,,,,,,,,,,,,,,,,,,,,,,,,,,,,,,,,,,,,,prac,k,k,1,0.8872583999764174,221.28763679999975,None,None,0,,,,,,,,,,,,,,106,29,Female,2022-04-29_19h03.46.910,Parachute,2022.1.1,59.88300058791508,
positive,blue,1,k,None,,,,,1,18,38,18,,,,,,,,,,,,,,,,,,,,,,,,,,,,,,,,,,,,,,,,,,prac,k,k,1,0.8149445000162814,223.17420649999985,None,None,0,,,,,,,,,,,,,,106,29,Female,2022-04-29_19h03.46.910,Parachute,2022.1.1,59.88300058791508,
positive,yellow,1,None,k,,,,,1,19,39,19,,,,,,,,,,,,,,,,,,,,,,,,,,,,,,,,,,,,,,,,,,prac,None,None,1,1.493964799999958,224.9904288999969,None,None,1,,,,,,,,,,,,,,106,29,Female,2022-04-29_19h03.46.910,Parachute,2022.1.1,59.88300058791508,
,,,,,,,,,,,,,,,,,,,,,,,,,,,,,,,,,,,,,,,,,,,,,,,,,,,,,,,,,,,,,,,227.5031346999749,None,227.5031346999749,None,0.012037037,-0.06388889,0,0,0,0.012379589985357597,None,,,106,29,Female,2022-04-29_19h03.46.910,Parachute,2022.1.1,59.88300058791508,
negative,yellow,2,k,None,,,,,,,,,0,0,0,0,,,,,,,,,,,,,,,,,,,,,,,,,,,,,,,,,,235.05317349999677,None,235.05317349999677,None,main,k,k,1,0.8843046000110917,237.08856799997739,None,None,0,,,,,,,,,,,,,,106,29,Female,2022-04-29_19h03.46.910,Parachute,2022.1.1,59.88300058791508,
positive,red,1,None,None,,,,,,,,,0,1,1,1,,,,,,,,,,,,,,,,,,,,,,,,,,,,,,,,,,,,,,main,None,None,1,1.509353600005852,238.97597249998944,None,None,1,,,,,,,,,,,,,,106,29,Female,2022-04-29_19h03.46.910,Parachute,2022.1.1,59.88300058791508,
positive,blue,2,k,None,,,,,,,,,0,2,2,2,,,,,,,,,,,,,,,,,,,,,,,,,,,,,,,,,,,,,,main,k,k,1,1.1529100999759976,241.488369699975,None,None,0,,,,,,,,,,,,,,106,29,Female,2022-04-29_19h03.46.910,Parachute,2022.1.1,59.88300058791508,
positive,blue,1,k,None,,,,,,,,,0,3,3,3,,,,,,,,,,,,,,,,,,,,,,,,,,,,,,,,,,,,,,main,k,k,1,1.0982966000156011,243.64226199997938,None,None,0,,,,,,,,,,,,,,106,29,Female,2022-04-29_19h03.46.910,Parachute,2022.1.1,59.88300058791508,
negative,yellow,2,k,None,,,,,,,,,0,4,4,4,,,,,,,,,,,,,,,,,,,,,,,,,,,,,,,,,,,,,,main,k,k,1,1.0980449999915436,245.74126079998678,None,None,0,,,,,,,,,,,,,,106,29,Female,2022-04-29_19h03.46.910,Parachute,2022.1.1,59.88300058791508,
positive,yellow,2,None,k,,,,,,,,,0,5,5,5,,,,,,,,,,,,,,,,,,,,,,,,,,,,,,,,,,,,,,main,None,None,1,1.4940983999986202,247.84113019998767,None,None,1,,,,,,,,,,,,,,106,29,Female,2022-04-29_19h03.46.910,Parachute,2022.1.1,59.88300058791508,
negative,blue,2,None,k,,,,,,,,,0,6,6,6,,,,,,,,,,,,,,,,,,,,,,,,,,,,,,,,,,,,,,main,None,None,1,1.4989467000123113,250.33855929999845,None,None,1,,,,,,,,,,,,,,106,29,Female,2022-04-29_19h03.46.910,Parachute,2022.1.1,59.88300058791508,
positive,red,2,None,None,,,,,,,,,0,7,7,7,,,,,,,,,,,,,,,,,,,,,,,,,,,,,,,,,,,,,,main,None,None,1,1.498532099998556,252.83859469997697,None,None,1,,,,,,,,,,,,,,106,29,Female,2022-04-29_19h03.46.910,Parachute,2022.1.1,59.88300058791508,
positive,yellow,1,None,k,,,,,,,,,0,8,8,8,,,,,,,,,,,,,,,,,,,,,,,,,,,,,,,,,,,,,,main,None,None,1,1.4987230000260752,255.33859209998627,None,None,1,,,,,,,,,,,,,,106,29,Female,2022-04-29_19h03.46.910,Parachute,2022.1.1,59.88300058791508,
negative,red,1,None,None,,,,,,,,,0,9,9,9,,,,,,,,,,,,,,,,,,,,,,,,,,,,,,,,,,,,,,main,None,None,1,1.4989361000189092,257.8389308999758,None,None,1,,,,,,,,,,,,,,106,29,Female,2022-04-29_19h03.46.910,Parachute,2022.1.1,59.88300058791508,
positive,yellow,1,None,k,,,,,,,,,0,10,10,10,,,,,,,,,,,,,,,,,,,,,,,,,,,,,,,,,,,,,,main,None,None,1,1.4982865000201855,260.3388872999931,None,None,1,,,,,,,,,,,,,,106,29,Female,2022-04-29_19h03.46.910,Parachute,2022.1.1,59.88300058791508,
negative,yellow,1,k,None,,,,,,,,,0,11,11,11,,,,,,,,,,,,,,,,,,,,,,,,,,,,,,,,,,,,,,main,k,k,1,0.9035474999982398,262.8391890999919,None,None,0,,,,,,,,,,,,,,106,29,Female,2022-04-29_19h03.46.910,Parachute,2022.1.1,59.88300058791508,
negative,yellow,1,k,None,,,,,,,,,0,12,12,12,,,,,,,,,,,,,,,,,,,,,,,,,,,,,,,,,,,,,,main,k,k,1,0.9073913000174798,264.74131649997435,None,None,0,,,,,,,,,,,,,,106,29,Female,2022-04-29_19h03.46.910,Parachute,2022.1.1,59.88300058791508,
negative,red,2,None,None,,,,,,,,,0,13,13,13,,,,,,,,,,,,,,,,,,,,,,,,,,,,,,,,,,,,,,main,None,None,1,1.5015296000055969,266.65316689998144,None,None,1,,,,,,,,,,,,,,106,29,Female,2022-04-29_19h03.46.910,Parachute,2022.1.1,59.88300058791508,
positive,yellow,2,None,k,,,,,,,,,0,14,14,14,,,,,,,,,,,,,,,,,,,,,,,,,,,,,,,,,,,,,,main,None,None,1,1.498591999989003,269.155944499973,None,None,1,,,,,,,,,,,,,,106,29,Female,2022-04-29_19h03.46.910,Parachute,2022.1.1,59.88300058791508,
positive,blue,1,k,None,,,,,,,,,0,15,15,15,,,,,,,,,,,,,,,,,,,,,,,,,,,,,,,,,,,,,,main,k,k,1,0.868635799997719,271.6555726999941,None,None,0,,,,,,,,,,,,,,106,29,Female,2022-04-29_19h03.46.910,Parachute,2022.1.1,59.88300058791508,
negative,blue,1,None,k,,,,,,,,,0,16,16,16,,,,,,,,,,,,,,,,,,,,,,,,,,,,,,,,,,,,,,main,None,None,1,1.4952004999795463,273.53553149997606,None,None,1,,,,,,,,,,,,,,106,29,Female,2022-04-29_19h03.46.910,Parachute,2022.1.1,59.88300058791508,
positive,blue,2,k,None,,,,,,,,,0,17,17,17,,,,,,,,,,,,,,,,,,,,,,,,,,,,,,,,,,,,,,main,k,k,1,1.054570699983742,276.0218428999942,None,None,0,,,,,,,,,,,,,,106,29,Female,2022-04-29_19h03.46.910,Parachute,2022.1.1,59.88300058791508,
negative,blue,2,None,k,,,,,,,,,0,18,18,18,,,,,,,,,,,,,,,,,,,,,,,,,,,,,,,,,,,,,,main,None,None,1,1.4930176000052597,278.07560669997474,None,None,1,,,,,,,,,,,,,,106,29,Female,2022-04-29_19h03.46.910,Parachute,2022.1.1,59.88300058791508,
negative,blue,1,None,k,,,,,,,,,0,19,19,19,,,,,,,,,,,,,,,,,,,,,,,,,,,,,,,,,,,,,,main,None,None,1,1.4984621000185143,280.571939299989,None,None,1,,,,,,,,,,,,,,106,29,Female,2022-04-29_19h03.46.910,Parachute,2022.1.1,59.88300058791508,
negative,blue,1,None,k,,,,,,,,,0,20,20,20,,,,,,,,,,,,,,,,,,,,,,,,,,,,,,,,,,,,,,main,None,None,1,1.4987213999847881,283.07187509999494,None,None,1,,,,,,,,,,,,,,106,29,Female,2022-04-29_19h03.46.910,Parachute,2022.1.1,59.88300058791508,
negative,blue,2,None,k,,,,,,,,,0,21,21,21,,,,,,,,,,,,,,,,,,,,,,,,,,,,,,,,,,,,,,main,None,None,1,1.4989723000035156,285.57206009997753,None,None,1,,,,,,,,,,,,,,106,29,Female,2022-04-29_19h03.46.910,Parachute,2022.1.1,59.88300058791508,
negative,red,1,None,None,,,,,,,,,0,22,22,22,,,,,,,,,,,,,,,,,,,,,,,,,,,,,,,,,,,,,,main,None,None,1,1.4982600000221282,288.0723664999823,None,None,1,,,,,,,,,,,,,,106,29,Female,2022-04-29_19h03.46.910,Parachute,2022.1.1,59.88300058791508,
positive,red,2,None,None,,,,,,,,,0,23,23,23,,,,,,,,,,,,,,,,,,,,,,,,,,,,,,,,,,,,,,main,None,None,1,1.4996102000004612,290.57189969997853,None,None,1,,,,,,,,,,,,,,106,29,Female,2022-04-29_19h03.46.910,Parachute,2022.1.1,59.88300058791508,
negative,red,2,None,None,,,,,,,,,0,24,24,24,,,,,,,,,,,,,,,,,,,,,,,,,,,,,,,,,,,,,,main,None,None,1,1.4990122999879532,293.0733437999734,None,None,1,,,,,,,,,,,,,,106,29,Female,2022-04-29_19h03.46.910,Parachute,2022.1.1,59.88300058791508,
positive,blue,2,k,None,,,,,,,,,0,25,25,25,,,,,,,,,,,,,,,,,,,,,,,,,,,,,,,,,,,,,,main,k,k,1,1.0697019999788608,295.5736587999854,None,None,0,,,,,,,,,,,,,,106,29,Female,2022-04-29_19h03.46.910,Parachute,2022.1.1,59.88300058791508,
negative,yellow,1,k,None,,,,,,,,,0,26,26,26,,,,,,,,,,,,,,,,,,,,,,,,,,,,,,,,,,,,,,main,k,k,1,0.8986575999879278,297.641707999981,None,None,0,,,,,,,,,,,,,,106,29,Female,2022-04-29_19h03.46.910,Parachute,2022.1.1,59.88300058791508,
positive,blue,2,k,None,,,,,,,,,0,27,27,27,,,,,,,,,,,,,,,,,,,,,,,,,,,,,,,,,,,,,,main,k,k,1,0.9818337000033353,299.54199789999984,None,None,0,,,,,,,,,,,,,,106,29,Female,2022-04-29_19h03.46.910,Parachute,2022.1.1,59.88300058791508,
negative,blue,2,None,k,,,,,,,,,0,28,28,28,,,,,,,,,,,,,,,,,,,,,,,,,,,,,,,,,,,,,,main,None,None,1,1.4931186999892816,301.5251794999931,None,None,1,,,,,,,,,,,,,,106,29,Female,2022-04-29_19h03.46.910,Parachute,2022.1.1,59.88300058791508,
positive,red,1,None,None,,,,,,,,,0,29,29,29,,,,,,,,,,,,,,,,,,,,,,,,,,,,,,,,,,,,,,main,None,None,1,1.4988885000057053,304.02198979997775,None,None,1,,,,,,,,,,,,,,106,29,Female,2022-04-29_19h03.46.910,Parachute,2022.1.1,59.88300058791508,
positive,blue,1,k,None,,,,,,,,,0,30,30,30,,,,,,,,,,,,,,,,,,,,,,,,,,,,,,,,,,,,,,main,k,k,1,1.2039801999926567,306.52189069997985,None,None,0,,,,,,,,,,,,,,106,29,Female,2022-04-29_19h03.46.910,Parachute,2022.1.1,59.88300058791508,
positive,yellow,1,None,k,,,,,,,,,0,31,31,31,,,,,,,,,,,,,,,,,,,,,,,,,,,,,,,,,,,,,,main,None,None,1,1.493818699993426,308.72546349998447,None,None,1,,,,,,,,,,,,,,106,29,Female,2022-04-29_19h03.46.910,Parachute,2022.1.1,59.88300058791508,
negative,yellow,2,k,None,,,,,,,,,0,32,32,32,,,,,,,,,,,,,,,,,,,,,,,,,,,,,,,,,,,,,,main,k,k,1,0.7037287000275683,311.22288689998095,None,None,0,,,,,,,,,,,,,,106,29,Female,2022-04-29_19h03.46.910,Parachute,2022.1.1,59.88300058791508,
negative,blue,1,None,k,,,,,,,,,0,33,33,33,,,,,,,,,,,,,,,,,,,,,,,,,,,,,,,,,,,,,,main,None,None,1,1.4932231999991927,312.92539969997597,None,None,1,,,,,,,,,,,,,,106,29,Female,2022-04-29_19h03.46.910,Parachute,2022.1.1,59.88300058791508,
positive,blue,1,k,None,,,,,,,,,0,34,34,34,,,,,,,,,,,,,,,,,,,,,,,,,,,,,,,,,,,,,,main,k,k,1,1.1034055999771226,315.42249659998924,None,None,0,,,,,,,,,,,,,,106,29,Female,2022-04-29_19h03.46.910,Parachute,2022.1.1,59.88300058791508,
negative,yellow,1,k,None,,,,,,,,,0,35,35,35,,,,,,,,,,,,,,,,,,,,,,,,,,,,,,,,,,,,,,main,k,k,1,0.8657515000086278,317.52585929998895,None,None,0,,,,,,,,,,,,,,106,29,Female,2022-04-29_19h03.46.910,Parachute,2022.1.1,59.88300058791508,
positive,yellow,2,None,k,,,,,,,,,0,36,36,36,,,,,,,,,,,,,,,,,,,,,,,,,,,,,,,,,,,,,,main,None,None,1,1.4936488999810535,319.3925550999993,None,None,1,,,,,,,,,,,,,,106,29,Female,2022-04-29_19h03.46.910,Parachute,2022.1.1,59.88300058791508,
positive,yellow,2,None,k,,,,,,,,,0,37,37,37,,,,,,,,,,,,,,,,,,,,,,,,,,,,,,,,,,,,,,main,None,k,0,0.8206384000077378,321.8891204999818,None,None,1,,,,,,,,,,,,,,106,29,Female,2022-04-29_19h03.46.910,Parachute,2022.1.1,59.88300058791508,
negative,yellow,2,k,None,,,,,,,,,0,38,38,38,,,,,,,,,,,,,,,,,,,,,,,,,,,,,,,,,,,,,,main,k,k,1,1.8573713000223506,324.7208013999916,None,None,0,,,,,,,,,,,,,,106,29,Female,2022-04-29_19h03.46.910,Parachute,2022.1.1,59.88300058791508,
positive,yellow,1,None,k,,,,,,,,,0,39,39,39,,,,,,,,,,,,,,,,,,,,,,,,,,,,,,,,,,,,,,main,None,None,1,1.5036249000113457,328.587683699996,None,None,1,,,,,,,,,,,,,,106,29,Female,2022-04-29_19h03.46.910,Parachute,2022.1.1,59.88300058791508,
negative,yellow,2,k,None,,,,,,,,,0,40,40,40,,,,,,,,,,,,,,,,,,,,,,,,,,,,,,,,,,,,,,main,k,k,1,1.1857621000090148,331.091944099986,None,None,0,,,,,,,,,,,,,,106,29,Female,2022-04-29_19h03.46.910,Parachute,2022.1.1,59.88300058791508,
positive,blue,2,k,None,,,,,,,,,0,41,41,41,,,,,,,,,,,,,,,,,,,,,,,,,,,,,,,,,,,,,,main,k,k,1,0.9487517999950796,333.2765556999948,None,None,0,,,,,,,,,,,,,,106,29,Female,2022-04-29_19h03.46.910,Parachute,2022.1.1,59.88300058791508,
positive,blue,2,k,None,,,,,,,,,0,42,42,42,,,,,,,,,,,,,,,,,,,,,,,,,,,,,,,,,,,,,,main,k,k,1,0.981478400004562,335.22624209997593,None,None,0,,,,,,,,,,,,,,106,29,Female,2022-04-29_19h03.46.910,Parachute,2022.1.1,59.88300058791508,
negative,blue,2,None,k,,,,,,,,,0,43,43,43,,,,,,,,,,,,,,,,,,,,,,,,,,,,,,,,,,,,,,main,None,None,1,1.4934855999890715,337.20943829999305,None,None,1,,,,,,,,,,,,,,106,29,Female,2022-04-29_19h03.46.910,Parachute,2022.1.1,59.88300058791508,
negative,red,1,None,None,,,,,,,,,0,44,44,44,,,,,,,,,,,,,,,,,,,,,,,,,,,,,,,,,,,,,,main,None,None,1,1.4986994999926537,339.7059127999819,None,None,1,,,,,,,,,,,,,,106,29,Female,2022-04-29_19h03.46.910,Parachute,2022.1.1,59.88300058791508,
negative,yellow,1,k,None,,,,,,,,,0,45,45,45,,,,,,,,,,,,,,,,,,,,,,,,,,,,,,,,,,,,,,main,k,k,1,0.7872287000063807,342.20659959997283,None,None,0,,,,,,,,,,,,,,106,29,Female,2022-04-29_19h03.46.910,Parachute,2022.1.1,59.88300058791508,
negative,yellow,1,k,None,,,,,,,,,0,46,46,46,,,,,,,,,,,,,,,,,,,,,,,,,,,,,,,,,,,,,,main,k,k,1,1.2489267000055406,343.99273099997663,None,None,0,,,,,,,,,,,,,,106,29,Female,2022-04-29_19h03.46.910,Parachute,2022.1.1,59.88300058791508,
positive,red,1,None,None,,,,,,,,,0,47,47,47,,,,,,,,,,,,,,,,,,,,,,,,,,,,,,,,,,,,,,main,None,None,1,1.4932006000017282,346.2433025999926,None,None,1,,,,,,,,,,,,,,106,29,Female,2022-04-29_19h03.46.910,Parachute,2022.1.1,59.88300058791508,
positive,yellow,1,None,k,,,,,,,,,0,48,48,48,,,,,,,,,,,,,,,,,,,,,,,,,,,,,,,,,,,,,,main,None,None,1,1.4988932000123896,348.73977989997366,None,None,1,,,,,,,,,,,,,,106,29,Female,2022-04-29_19h03.46.910,Parachute,2022.1.1,59.88300058791508,
negative,blue,1,None,k,,,,,,,,,0,49,49,49,,,,,,,,,,,,,,,,,,,,,,,,,,,,,,,,,,,,,,main,None,None,1,1.4985510999977123,351.24034629997914,None,None,1,,,,,,,,,,,,,,106,29,Female,2022-04-29_19h03.46.910,Parachute,2022.1.1,59.88300058791508,
positive,yellow,2,None,k,,,,,,,,,0,50,50,50,,,,,,,,,,,,,,,,,,,,,,,,,,,,,,,,,,,,,,main,None,None,1,1.4988021000172012,353.739989099995,None,None,1,,,,,,,,,,,,,,106,29,Female,2022-04-29_19h03.46.910,Parachute,2022.1.1,59.88300058791508,
negative,blue,1,None,k,,,,,,,,,0,51,51,51,,,,,,,,,,,,,,,,,,,,,,,,,,,,,,,,,,,,,,main,None,None,1,1.4984028000035323,356.2398245999939,None,None,1,,,,,,,,,,,,,,106,29,Female,2022-04-29_19h03.46.910,Parachute,2022.1.1,59.88300058791508,
positive,red,2,None,None,,,,,,,,,0,52,52,52,,,,,,,,,,,,,,,,,,,,,,,,,,,,,,,,,,,,,,main,None,None,1,1.499399699998321,358.739914899983,None,None,1,,,,,,,,,,,,,,106,29,Female,2022-04-29_19h03.46.910,Parachute,2022.1.1,59.88300058791508,
positive,yellow,2,None,k,,,,,,,,,0,53,53,53,,,,,,,,,,,,,,,,,,,,,,,,,,,,,,,,,,,,,,main,None,None,1,1.4983782999916002,361.24041769999894,None,None,1,,,,,,,,,,,,,,106,29,Female,2022-04-29_19h03.46.910,Parachute,2022.1.1,59.88300058791508,
negative,red,2,None,None,,,,,,,,,0,54,54,54,,,,,,,,,,,,,,,,,,,,,,,,,,,,,,,,,,,,,,main,None,None,1,1.4984566000057384,363.74062699999195,None,None,1,,,,,,,,,,,,,,106,29,Female,2022-04-29_19h03.46.910,Parachute,2022.1.1,59.88300058791508,
positive,yellow,1,None,k,,,,,,,,,0,55,55,55,,,,,,,,,,,,,,,,,,,,,,,,,,,,,,,,,,,,,,main,None,None,1,1.4991259999806061,366.23984099997324,None,None,1,,,,,,,,,,,,,,106,29,Female,2022-04-29_19h03.46.910,Parachute,2022.1.1,59.88300058791508,
negative,blue,2,None,k,,,,,,,,,0,56,56,56,,,,,,,,,,,,,,,,,,,,,,,,,,,,,,,,,,,,,,main,None,None,1,1.4982115999737289,368.7409673999937,None,None,1,,,,,,,,,,,,,,106,29,Female,2022-04-29_19h03.46.910,Parachute,2022.1.1,59.88300058791508,
positive,blue,1,k,None,,,,,,,,,0,57,57,57,,,,,,,,,,,,,,,,,,,,,,,,,,,,,,,,,,,,,,main,k,k,1,1.2955786999955308,371.2401104999881,None,None,0,,,,,,,,,,,,,,106,29,Female,2022-04-29_19h03.46.910,Parachute,2022.1.1,59.88300058791508,
positive,blue,1,k,None,,,,,,,,,0,58,58,58,,,,,,,,,,,,,,,,,,,,,,,,,,,,,,,,,,,,,,main,k,k,1,0.8230045000091195,373.5386868999922,None,None,0,,,,,,,,,,,,,,106,29,Female,2022-04-29_19h03.46.910,Parachute,2022.1.1,59.88300058791508,
negative,yellow,2,k,None,,,,,,,,,0,59,59,59,,,,,,,,,,,,,,,,,,,,,,,,,,,,,,,,,,,,,,main,k,k,1,0.9508590999757871,375.3684461999801,None,None,0,,,,,,,,,,,,,,106,29,Female,2022-04-29_19h03.46.910,Parachute,2022.1.1,59.88300058791508,
positive,red,2,None,None,,,,,,,,,0,60,60,60,,,,,,,,,,,,,,,,,,,,,,,,,,,,,,,,,,,,,,main,None,None,1,1.5090953999897465,377.31182589998934,None,None,1,,,,,,,,,,,,,,106,29,Female,2022-04-29_19h03.46.910,Parachute,2022.1.1,59.88300058791508,
negative,yellow,1,k,None,,,,,,,,,0,61,61,61,,,,,,,,,,,,,,,,,,,,,,,,,,,,,,,,,,,,,,main,k,k,1,1.1031526000006124,379.824536399974,None,None,0,,,,,,,,,,,,,,106,29,Female,2022-04-29_19h03.46.910,Parachute,2022.1.1,59.88300058791508,
negative,red,1,None,None,,,,,,,,,0,62,62,62,,,,,,,,,,,,,,,,,,,,,,,,,,,,,,,,,,,,,,main,None,None,1,1.493558199988911,381.9273030999757,None,None,1,,,,,,,,,,,,,,106,29,Female,2022-04-29_19h03.46.910,Parachute,2022.1.1,59.88300058791508,
negative,blue,1,None,k,,,,,,,,,0,63,63,63,,,,,,,,,,,,,,,,,,,,,,,,,,,,,,,,,,,,,,main,None,None,1,1.4986819000041578,384.4245907999866,None,None,1,,,,,,,,,,,,,,106,29,Female,2022-04-29_19h03.46.910,Parachute,2022.1.1,59.88300058791508,
positive,blue,2,k,None,,,,,,,,,0,64,64,64,,,,,,,,,,,,,,,,,,,,,,,,,,,,,,,,,,,,,,main,k,k,1,1.070262900000671,386.9246854999801,None,None,0,,,,,,,,,,,,,,106,29,Female,2022-04-29_19h03.46.910,Parachute,2022.1.1,59.88300058791508,
negative,yellow,2,k,None,,,,,,,,,0,65,65,65,,,,,,,,,,,,,,,,,,,,,,,,,,,,,,,,,,,,,,main,k,k,1,0.7806161000044085,388.9936019000015,None,None,0,,,,,,,,,,,,,,106,29,Female,2022-04-29_19h03.46.910,Parachute,2022.1.1,59.88300058791508,
positive,yellow,2,None,k,,,,,,,,,0,66,66,66,,,,,,,,,,,,,,,,,,,,,,,,,,,,,,,,,,,,,,main,None,None,1,1.4949123999977019,390.77713279999443,None,None,1,,,,,,,,,,,,,,106,29,Female,2022-04-29_19h03.46.910,Parachute,2022.1.1,59.88300058791508,
positive,yellow,2,None,k,,,,,,,,,0,67,67,67,,,,,,,,,,,,,,,,,,,,,,,,,,,,,,,,,,,,,,main,None,None,1,1.4986166000016965,393.27431239999714,None,None,1,,,,,,,,,,,,,,106,29,Female,2022-04-29_19h03.46.910,Parachute,2022.1.1,59.88300058791508,
positive,red,1,None,None,,,,,,,,,0,68,68,68,,,,,,,,,,,,,,,,,,,,,,,,,,,,,,,,,,,,,,main,None,None,1,1.4991799000126775,395.7744578999991,None,None,1,,,,,,,,,,,,,,106,29,Female,2022-04-29_19h03.46.910,Parachute,2022.1.1,59.88300058791508,
positive,yellow,1,None,k,,,,,,,,,0,69,69,69,,,,,,,,,,,,,,,,,,,,,,,,,,,,,,,,,,,,,,main,None,None,1,1.4982249999884516,398.2751618999755,None,None,1,,,,,,,,,,,,,,106,29,Female,2022-04-29_19h03.46.910,Parachute,2022.1.1,59.88300058791508,
negative,yellow,2,k,None,,,,,,,,,0,70,70,70,,,,,,,,,,,,,,,,,,,,,,,,,,,,,,,,,,,,,,main,k,k,1,0.853861900017364,400.77477829999407,None,None,0,,,,,,,,,,,,,,106,29,Female,2022-04-29_19h03.46.910,Parachute,2022.1.1,59.88300058791508,
positive,yellow,1,None,k,,,,,,,,,0,71,71,71,,,,,,,,,,,,,,,,,,,,,,,,,,,,,,,,,,,,,,main,None,None,1,1.4936928999959491,402.6271760999807,None,None,1,,,,,,,,,,,,,,106,29,Female,2022-04-29_19h03.46.910,Parachute,2022.1.1,59.88300058791508,
negative,blue,1,None,k,,,,,,,,,0,72,72,72,,,,,,,,,,,,,,,,,,,,,,,,,,,,,,,,,,,,,,main,None,None,1,1.4988474999845494,405.1249960999994,None,None,1,,,,,,,,,,,,,,106,29,Female,2022-04-29_19h03.46.910,Parachute,2022.1.1,59.88300058791508,
negative,red,2,None,None,,,,,,,,,0,73,73,73,,,,,,,,,,,,,,,,,,,,,,,,,,,,,,,,,,,,,,main,None,None,1,1.498274500016123,407.6252754999732,None,None,1,,,,,,,,,,,,,,106,29,Female,2022-04-29_19h03.46.910,Parachute,2022.1.1,59.88300058791508,
positive,blue,2,k,None,,,,,,,,,0,74,74,74,,,,,,,,,,,,,,,,,,,,,,,,,,,,,,,,,,,,,,main,k,k,1,1.0504699999873992,410.12487309999415,None,None,0,,,,,,,,,,,,,,106,29,Female,2022-04-29_19h03.46.910,Parachute,2022.1.1,59.88300058791508,
negative,blue,2,None,k,,,,,,,,,0,75,75,75,,,,,,,,,,,,,,,,,,,,,,,,,,,,,,,,,,,,,,main,None,None,1,1.4969391000049654,412.1765045999782,None,None,1,,,,,,,,,,,,,,106,29,Female,2022-04-29_19h03.46.910,Parachute,2022.1.1,59.88300058791508,
negative,blue,2,None,k,,,,,,,,,0,76,76,76,,,,,,,,,,,,,,,,,,,,,,,,,,,,,,,,,,,,,,main,None,None,1,1.498411800013855,414.67521289997967,None,None,1,,,,,,,,,,,,,,106,29,Female,2022-04-29_19h03.46.910,Parachute,2022.1.1,59.88300058791508,
negative,yellow,1,k,None,,,,,,,,,0,77,77,77,,,,,,,,,,,,,,,,,,,,,,,,,,,,,,,,,,,,,,main,k,k,1,2.4207738999975845,417.1743323999981,None,None,0,,,,,,,,,,,,,,106,29,Female,2022-04-29_19h03.46.910,Parachute,2022.1.1,59.88300058791508,
positive,blue,1,k,None,,,,,,,,,0,78,78,78,,,,,,,,,,,,,,,,,,,,,,,,,,,,,,,,,,,,,,main,k,k,1,0.7723570000089239,421.60630279997713,None,None,0,,,,,,,,,,,,,,106,29,Female,2022-04-29_19h03.46.910,Parachute,2022.1.1,59.88300058791508,
positive,blue,1,k,None,,,,,,,,,0,79,79,79,,,,,,,,,,,,,,,,,,,,,,,,,,,,,,,,,,,,,,main,k,k,1,0.8829229999973904,423.37781869998435,None,None,0,,,,,,,,,,,,,,106,29,Female,2022-04-29_19h03.46.910,Parachute,2022.1.1,59.88300058791508,
positive,red,2,None,None,,,,,,,,,0,80,80,80,,,,,,,,,,,,,,,,,,,,,,,,,,,,,,,,,,,,,,main,None,None,1,1.493992400006391,425.26112119999016,None,None,1,,,,,,,,,,,,,,106,29,Female,2022-04-29_19h03.46.910,Parachute,2022.1.1,59.88300058791508,
positive,yellow,2,None,k,,,,,,,,,0,81,81,81,,,,,,,,,,,,,,,,,,,,,,,,,,,,,,,,,,,,,,main,None,None,1,1.498118199990131,427.7590977999789,None,None,1,,,,,,,,,,,,,,106,29,Female,2022-04-29_19h03.46.910,Parachute,2022.1.1,59.88300058791508,
positive,blue,1,k,None,,,,,,,,,0,82,82,82,,,,,,,,,,,,,,,,,,,,,,,,,,,,,,,,,,,,,,main,k,k,1,0.8532010999915656,430.2586044999771,None,None,0,,,,,,,,,,,,,,106,29,Female,2022-04-29_19h03.46.910,Parachute,2022.1.1,59.88300058791508,
negative,yellow,2,k,None,,,,,,,,,0,83,83,83,,,,,,,,,,,,,,,,,,,,,,,,,,,,,,,,,,,,,,main,k,k,1,1.4499975999933667,432.1114633999823,None,None,0,,,,,,,,,,,,,,106,29,Female,2022-04-29_19h03.46.910,Parachute,2022.1.1,59.88300058791508,
positive,blue,2,k,None,,,,,,,,,0,84,84,84,,,,,,,,,,,,,,,,,,,,,,,,,,,,,,,,,,,,,,main,k,k,1,0.8646848000062164,434.5620360999892,None,None,0,,,,,,,,,,,,,,106,29,Female,2022-04-29_19h03.46.910,Parachute,2022.1.1,59.88300058791508,
positive,yellow,1,None,k,,,,,,,,,0,85,85,85,,,,,,,,,,,,,,,,,,,,,,,,,,,,,,,,,,,,,,main,None,None,1,1.4942993000149727,436.4286219999776,None,None,1,,,,,,,,,,,,,,106,29,Female,2022-04-29_19h03.46.910,Parachute,2022.1.1,59.88300058791508,
positive,blue,2,k,None,,,,,,,,,0,86,86,86,,,,,,,,,,,,,,,,,,,,,,,,,,,,,,,,,,,,,,main,k,k,1,1.0204578000120819,438.92612569997436,None,None,0,,,,,,,,,,,,,,106,29,Female,2022-04-29_19h03.46.910,Parachute,2022.1.1,59.88300058791508,
positive,blue,1,k,None,,,,,,,,,0,87,87,87,,,,,,,,,,,,,,,,,,,,,,,,,,,,,,,,,,,,,,main,k,k,1,0.7644489000085741,440.945495699998,None,None,0,,,,,,,,,,,,,,106,29,Female,2022-04-29_19h03.46.910,Parachute,2022.1.1,59.88300058791508,
negative,yellow,2,k,None,,,,,,,,,0,88,88,88,,,,,,,,,,,,,,,,,,,,,,,,,,,,,,,,,,,,,,main,k,k,1,0.7807800000009593,442.7113671999832,None,None,0,,,,,,,,,,,,,,106,29,Female,2022-04-29_19h03.46.910,Parachute,2022.1.1,59.88300058791508,
negative,blue,2,None,k,,,,,,,,,0,89,89,89,,,,,,,,,,,,,,,,,,,,,,,,,,,,,,,,,,,,,,main,None,None,1,1.4948010999942198,444.50555269999313,None,None,1,,,,,,,,,,,,,,106,29,Female,2022-04-29_19h03.46.910,Parachute,2022.1.1,59.88300058791508,
positive,yellow,2,None,k,,,,,,,,,0,90,90,90,,,,,,,,,,,,,,,,,,,,,,,,,,,,,,,,,,,,,,main,None,None,1,1.4988445999915712,446.9918443999777,None,None,1,,,,,,,,,,,,,,106,29,Female,2022-04-29_19h03.46.910,Parachute,2022.1.1,59.88300058791508,
negative,yellow,1,k,None,,,,,,,,,0,91,91,91,,,,,,,,,,,,,,,,,,,,,,,,,,,,,,,,,,,,,,main,k,k,1,1.970450200024061,449.49190850000014,None,None,0,,,,,,,,,,,,,,106,29,Female,2022-04-29_19h03.46.910,Parachute,2022.1.1,59.88300058791508,
negative,red,2,None,None,,,,,,,,,0,92,92,92,,,,,,,,,,,,,,,,,,,,,,,,,,,,,,,,,,,,,,main,None,None,1,1.5028727000171784,453.4748576999991,None,None,1,,,,,,,,,,,,,,106,29,Female,2022-04-29_19h03.46.910,Parachute,2022.1.1,59.88300058791508,
negative,blue,2,None,k,,,,,,,,,0,93,93,93,,,,,,,,,,,,,,,,,,,,,,,,,,,,,,,,,,,,,,main,None,None,1,1.4986635000095703,455.9776648999832,None,None,1,,,,,,,,,,,,,,106,29,Female,2022-04-29_19h03.46.910,Parachute,2022.1.1,59.88300058791508,
negative,blue,1,None,k,,,,,,,,,0,94,94,94,,,,,,,,,,,,,,,,,,,,,,,,,,,,,,,,,,,,,,main,None,None,1,1.4980417000188027,458.477868499991,None,None,1,,,,,,,,,,,,,,106,29,Female,2022-04-29_19h03.46.910,Parachute,2022.1.1,59.88300058791508,
negative,blue,1,None,k,,,,,,,,,0,95,95,95,,,,,,,,,,,,,,,,,,,,,,,,,,,,,,,,,,,,,,main,None,None,1,1.4986411999852862,460.9775062999979,None,None,1,,,,,,,,,,,,,,106,29,Female,2022-04-29_19h03.46.910,Parachute,2022.1.1,59.88300058791508,
negative,red,1,None,None,,,,,,,,,0,96,96,96,,,,,,,,,,,,,,,,,,,,,,,,,,,,,,,,,,,,,,main,None,None,1,1.4986764999921434,463.477570499992,None,None,1,,,,,,,,,,,,,,106,29,Female,2022-04-29_19h03.46.910,Parachute,2022.1.1,59.88300058791508,
positive,yellow,1,None,k,,,,,,,,,0,97,97,97,,,,,,,,,,,,,,,,,,,,,,,,,,,,,,,,,,,,,,main,None,None,1,1.498934700008249,465.97756909998134,None,None,1,,,,,,,,,,,,,,106,29,Female,2022-04-29_19h03.46.910,Parachute,2022.1.1,59.88300058791508,
negative,yellow,1,k,None,,,,,,,,,0,98,98,98,,,,,,,,,,,,,,,,,,,,,,,,,,,,,,,,,,,,,,main,k,k,1,1.2026469000265934,468.4776035999821,None,None,0,,,,,,,,,,,,,,106,29,Female,2022-04-29_19h03.46.910,Parachute,2022.1.1,59.88300058791508,
positive,red,1,None,None,,,,,,,,,0,99,99,99,,,,,,,,,,,,,,,,,,,,,,,,,,,,,,,,,,,,,,main,None,None,1,1.4947703999932855,470.679307399987,None,None,1,,,,,,,,,,,,,,106,29,Female,2022-04-29_19h03.46.910,Parachute,2022.1.1,59.88300058791508,
positive,blue,1,k,None,,,,,,,,,0,100,100,100,,,,,,,,,,,,,,,,,,,,,,,,,,,,,,,,,,,,,,main,k,k,1,0.9515743000083603,473.1773584999901,None,None,0,,,,,,,,,,,,,,106,29,Female,2022-04-29_19h03.46.910,Parachute,2022.1.1,59.88300058791508,
negative,yellow,1,k,None,,,,,,,,,0,101,101,101,,,,,,,,,,,,,,,,,,,,,,,,,,,,,,,,,,,,,,main,k,k,1,0.9974478000076488,475.1289302999794,None,None,0,,,,,,,,,,,,,,106,29,Female,2022-04-29_19h03.46.910,Parachute,2022.1.1,59.88300058791508,
negative,blue,2,None,k,,,,,,,,,0,102,102,102,,,,,,,,,,,,,,,,,,,,,,,,,,,,,,,,,,,,,,main,None,None,1,1.4951129999826662,477.12878559998353,None,None,1,,,,,,,,,,,,,,106,29,Female,2022-04-29_19h03.46.910,Parachute,2022.1.1,59.88300058791508,
negative,yellow,2,k,None,,,,,,,,,0,103,103,103,,,,,,,,,,,,,,,,,,,,,,,,,,,,,,,,,,,,,,main,k,k,1,0.7962329000001773,479.6262315999775,None,None,0,,,,,,,,,,,,,,106,29,Female,2022-04-29_19h03.46.910,Parachute,2022.1.1,59.88300058791508,
positive,yellow,2,None,k,,,,,,,,,0,104,104,104,,,,,,,,,,,,,,,,,,,,,,,,,,,,,,,,,,,,,,main,None,None,1,1.501277699979255,481.42416869997396,None,None,1,,,,,,,,,,,,,,106,29,Female,2022-04-29_19h03.46.910,Parachute,2022.1.1,59.88300058791508,
positive,blue,1,k,None,,,,,,,,,0,105,105,105,,,,,,,,,,,,,,,,,,,,,,,,,,,,,,,,,,,,,,main,k,k,1,0.9708922999852803,483.9257672999811,None,None,0,,,,,,,,,,,,,,106,29,Female,2022-04-29_19h03.46.910,Parachute,2022.1.1,59.88300058791508,
positive,blue,2,k,None,,,,,,,,,0,106,106,106,,,,,,,,,,,,,,,,,,,,,,,,,,,,,,,,,,,,,,main,k,k,1,0.8153221999818925,485.8961334999767,None,None,0,,,,,,,,,,,,,,106,29,Female,2022-04-29_19h03.46.910,Parachute,2022.1.1,59.88300058791508,
negative,blue,1,None,k,,,,,,,,,0,107,107,107,,,,,,,,,,,,,,,,,,,,,,,,,,,,,,,,,,,,,,main,None,None,1,1.493363399989903,487.71250109997345,None,None,1,,,,,,,,,,,,,,106,29,Female,2022-04-29_19h03.46.910,Parachute,2022.1.1,59.88300058791508,
positive,yellow,2,None,k,,,,,,,,,0,108,108,108,,,,,,,,,,,,,,,,,,,,,,,,,,,,,,,,,,,,,,main,None,None,1,1.4987493000226095,490.2095108999929,None,None,1,,,,,,,,,,,,,,106,29,Female,2022-04-29_19h03.46.910,Parachute,2022.1.1,59.88300058791508,
negative,yellow,1,k,None,,,,,,,,,0,109,109,109,,,,,,,,,,,,,,,,,,,,,,,,,,,,,,,,,,,,,,main,k,k,1,1.3618716000055429,492.70964629997616,None,None,0,,,,,,,,,,,,,,106,29,Female,2022-04-29_19h03.46.910,Parachute,2022.1.1,59.88300058791508,
negative,blue,2,None,k,,,,,,,,,0,110,110,110,,,,,,,,,,,,,,,,,,,,,,,,,,,,,,,,,,,,,,main,None,None,1,1.5020784999942407,495.0745126999973,None,None,1,,,,,,,,,,,,,,106,29,Female,2022-04-29_19h03.46.910,Parachute,2022.1.1,59.88300058791508,
positive,blue,2,k,None,,,,,,,,,0,111,111,111,,,,,,,,,,,,,,,,,,,,,,,,,,,,,,,,,,,,,,main,k,k,1,1.0538566999894101,497.57663070000126,None,None,0,,,,,,,,,,,,,,106,29,Female,2022-04-29_19h03.46.910,Parachute,2022.1.1,59.88300058791508,
negative,blue,1,None,k,,,,,,,,,0,112,112,112,,,,,,,,,,,,,,,,,,,,,,,,,,,,,,,,,,,,,,main,None,None,1,1.4934704000188503,499.62923130000127,None,None,1,,,,,,,,,,,,,,106,29,Female,2022-04-29_19h03.46.910,Parachute,2022.1.1,59.88300058791508,
positive,yellow,1,None,k,,,,,,,,,0,113,113,113,,,,,,,,,,,,,,,,,,,,,,,,,,,,,,,,,,,,,,main,None,None,1,1.498167400015518,502.12673719998566,None,None,1,,,,,,,,,,,,,,106,29,Female,2022-04-29_19h03.46.910,Parachute,2022.1.1,59.88300058791508,
negative,red,1,None,None,,,,,,,,,0,114,114,114,,,,,,,,,,,,,,,,,,,,,,,,,,,,,,,,,,,,,,main,None,None,1,1.4989300000015646,504.62605059999623,None,None,1,,,,,,,,,,,,,,106,29,Female,2022-04-29_19h03.46.910,Parachute,2022.1.1,59.88300058791508,
positive,red,1,None,None,,,,,,,,,0,115,115,115,,,,,,,,,,,,,,,,,,,,,,,,,,,,,,,,,,,,,,main,None,None,1,1.4982616999768652,507.12752349997754,None,None,1,,,,,,,,,,,,,,106,29,Female,2022-04-29_19h03.46.910,Parachute,2022.1.1,59.88300058791508,
negative,red,2,None,None,,,,,,,,,0,116,116,116,,,,,,,,,,,,,,,,,,,,,,,,,,,,,,,,,,,,,,main,None,None,1,1.4982016000139993,509.62585749998107,None,None,1,,,,,,,,,,,,,,106,29,Female,2022-04-29_19h03.46.910,Parachute,2022.1.1,59.88300058791508,
negative,yellow,2,k,None,,,,,,,,,0,117,117,117,,,,,,,,,,,,,,,,,,,,,,,,,,,,,,,,,,,,,,main,k,k,1,0.9378998999891337,512.1263440999901,None,None,0,,,,,,,,,,,,,,106,29,Female,2022-04-29_19h03.46.910,Parachute,2022.1.1,59.88300058791508,
positive,yellow,1,None,k,,,,,,,,,0,118,118,118,,,,,,,,,,,,,,,,,,,,,,,,,,,,,,,,,,,,,,main,None,None,1,1.4933222999970894,514.0632620999822,None,None,1,,,,,,,,,,,,,,106,29,Female,2022-04-29_19h03.46.910,Parachute,2022.1.1,59.88300058791508,
positive,red,2,None,None,,,,,,,,,0,119,119,119,,,,,,,,,,,,,,,,,,,,,,,,,,,,,,,,,,,,,,main,None,None,1,1.4986933000036515,516.5598274999938,None,None,1,,,,,,,,,,,,,,106,29,Female,2022-04-29_19h03.46.910,Parachute,2022.1.1,59.88300058791508,
positive,blue,2,k,None,,,,,,,,,0,120,120,120,,,,,,,,,,,,,,,,,,,,,,,,,,,,,,,,,,,,,,main,k,k,1,1.0537914999877103,519.0602077999793,None,None,0,,,,,,,,,,,,,,106,29,Female,2022-04-29_19h03.46.910,Parachute,2022.1.1,59.88300058791508,
negative,red,1,None,None,,,,,,,,,0,121,121,121,,,,,,,,,,,,,,,,,,,,,,,,,,,,,,,,,,,,,,main,None,None,1,1.4933131999860052,521.114330499986,None,None,1,,,,,,,,,,,,,,106,29,Female,2022-04-29_19h03.46.910,Parachute,2022.1.1,59.88300058791508,
positive,yellow,2,None,k,,,,,,,,,0,122,122,122,,,,,,,,,,,,,,,,,,,,,,,,,,,,,,,,,,,,,,main,None,None,1,1.4986656999972183,523.609687499993,None,None,1,,,,,,,,,,,,,,106,29,Female,2022-04-29_19h03.46.910,Parachute,2022.1.1,59.88300058791508,
negative,red,2,None,None,,,,,,,,,0,123,123,123,,,,,,,,,,,,,,,,,,,,,,,,,,,,,,,,,,,,,,main,None,None,1,1.498538899992127,526.1103935999854,None,None,1,,,,,,,,,,,,,,106,29,Female,2022-04-29_19h03.46.910,Parachute,2022.1.1,59.88300058791508,
negative,yellow,2,k,None,,,,,,,,,0,124,124,124,,,,,,,,,,,,,,,,,,,,,,,,,,,,,,,,,,,,,,main,k,k,1,0.8704391999926884,528.6095805999939,None,None,0,,,,,,,,,,,,,,106,29,Female,2022-04-29_19h03.46.910,Parachute,2022.1.1,59.88300058791508,
positive,red,1,None,None,,,,,,,,,0,125,125,125,,,,,,,,,,,,,,,,,,,,,,,,,,,,,,,,,,,,,,main,None,None,1,1.4939486000221223,530.4806384999829,None,None,1,,,,,,,,,,,,,,106,29,Female,2022-04-29_19h03.46.910,Parachute,2022.1.1,59.88300058791508,
negative,blue,2,None,k,,,,,,,,,0,126,126,126,,,,,,,,,,,,,,,,,,,,,,,,,,,,,,,,,,,,,,main,None,None,1,1.4985888999945018,532.9771272999933,None,None,1,,,,,,,,,,,,,,106,29,Female,2022-04-29_19h03.46.910,Parachute,2022.1.1,59.88300058791508,
negative,blue,1,None,k,,,,,,,,,0,127,127,127,,,,,,,,,,,,,,,,,,,,,,,,,,,,,,,,,,,,,,main,None,None,1,1.4994018000143114,535.4766336999892,None,None,1,,,,,,,,,,,,,,106,29,Female,2022-04-29_19h03.46.910,Parachute,2022.1.1,59.88300058791508,
negative,yellow,1,k,None,,,,,,,,,0,128,128,128,,,,,,,,,,,,,,,,,,,,,,,,,,,,,,,,,,,,,,main,k,k,1,1.0362048000097275,537.9777151999879,None,None,0,,,,,,,,,,,,,,106,29,Female,2022-04-29_19h03.46.910,Parachute,2022.1.1,59.88300058791508,
negative,yellow,1,k,None,,,,,,,,,0,129,129,129,,,,,,,,,,,,,,,,,,,,,,,,,,,,,,,,,,,,,,main,k,k,1,0.8654053999925964,540.0135549999832,None,None,0,,,,,,,,,,,,,,106,29,Female,2022-04-29_19h03.46.910,Parachute,2022.1.1,59.88300058791508,
positive,blue,1,k,None,,,,,,,,,0,130,130,130,,,,,,,,,,,,,,,,,,,,,,,,,,,,,,,,,,,,,,main,k,k,1,1.0992960000003222,541.8805762999982,None,None,0,,,,,,,,,,,,,,106,29,Female,2022-04-29_19h03.46.910,Parachute,2022.1.1,59.88300058791508,
negative,blue,1,None,k,,,,,,,,,0,131,131,131,,,,,,,,,,,,,,,,,,,,,,,,,,,,,,,,,,,,,,main,None,None,1,1.4938980999868363,543.9808992999897,None,None,1,,,,,,,,,,,,,,106,29,Female,2022-04-29_19h03.46.910,Parachute,2022.1.1,59.88300058791508,
negative,blue,2,None,k,,,,,,,,,0,132,132,132,,,,,,,,,,,,,,,,,,,,,,,,,,,,,,,,,,,,,,main,None,None,1,1.4981397000083234,546.4779212999856,None,None,1,,,,,,,,,,,,,,106,29,Female,2022-04-29_19h03.46.910,Parachute,2022.1.1,59.88300058791508,
positive,blue,2,k,None,,,,,,,,,0,133,133,133,,,,,,,,,,,,,,,,,,,,,,,,,,,,,,,,,,,,,,main,k,k,1,0.8372269000101369,548.9775098999962,None,None,0,,,,,,,,,,,,,,106,29,Female,2022-04-29_19h03.46.910,Parachute,2022.1.1,59.88300058791508,
positive,red,2,None,None,,,,,,,,,0,134,134,134,,,,,,,,,,,,,,,,,,,,,,,,,,,,,,,,,,,,,,main,None,None,1,1.494124799995916,550.8139814999886,None,None,1,,,,,,,,,,,,,,106,29,Female,2022-04-29_19h03.46.910,Parachute,2022.1.1,59.88300058791508,
negative,yellow,2,k,None,,,,,,,,,0,135,135,135,,,,,,,,,,,,,,,,,,,,,,,,,,,,,,,,,,,,,,main,k,k,1,0.8189004000159912,553.3127033999772,None,None,0,,,,,,,,,,,,,,106,29,Female,2022-04-29_19h03.46.910,Parachute,2022.1.1,59.88300058791508,
positive,yellow,2,None,k,,,,,,,,,0,136,136,136,,,,,,,,,,,,,,,,,,,,,,,,,,,,,,,,,,,,,,main,None,k,0,0.7151514000142924,555.131510199979,None,None,1,,,,,,,,,,,,,,106,29,Female,2022-04-29_19h03.46.910,Parachute,2022.1.1,59.88300058791508,
positive,blue,1,k,None,,,,,,,,,0,137,137,137,,,,,,,,,,,,,,,,,,,,,,,,,,,,,,,,,,,,,,main,k,k,1,0.9576182000164408,557.8586708999937,None,None,0,,,,,,,,,,,,,,106,29,Female,2022-04-29_19h03.46.910,Parachute,2022.1.1,59.88300058791508,
positive,yellow,1,None,k,,,,,,,,,0,138,138,138,,,,,,,,,,,,,,,,,,,,,,,,,,,,,,,,,,,,,,main,None,None,1,1.508956700010458,559.8185945999867,None,None,1,,,,,,,,,,,,,,106,29,Female,2022-04-29_19h03.46.910,Parachute,2022.1.1,59.88300058791508,
positive,yellow,1,None,k,,,,,,,,,0,139,139,139,,,,,,,,,,,,,,,,,,,,,,,,,,,,,,,,,,,,,,main,None,None,1,1.4984035000088625,562.3294808999926,None,None,1,,,,,,,,,,,,,,106,29,Female,2022-04-29_19h03.46.910,Parachute,2022.1.1,59.88300058791508,
positive,yellow,1,None,k,,,,,,,,,0,140,140,140,,,,,,,,,,,,,,,,,,,,,,,,,,,,,,,,,,,,,,main,None,None,1,1.498510899982648,564.8291588999855,None,None,1,,,,,,,,,,,,,,106,29,Female,2022-04-29_19h03.46.910,Parachute,2022.1.1,59.88300058791508,
positive,blue,1,k,None,,,,,,,,,0,141,141,141,,,,,,,,,,,,,,,,,,,,,,,,,,,,,,,,,,,,,,main,k,k,1,1.1863863000180572,567.3291218999948,None,None,0,,,,,,,,,,,,,,106,29,Female,2022-04-29_19h03.46.910,Parachute,2022.1.1,59.88300058791508,
positive,blue,2,k,None,,,,,,,,,0,142,142,142,,,,,,,,,,,,,,,,,,,,,,,,,,,,,,,,,,,,,,main,k,k,1,2.264144099986879,569.5142357999866,None,None,0,,,,,,,,,,,,,,106,29,Female,2022-04-29_19h03.46.910,Parachute,2022.1.1,59.88300058791508,
positive,yellow,2,None,k,,,,,,,,,0,143,143,143,,,,,,,,,,,,,,,,,,,,,,,,,,,,,,,,,,,,,,main,None,None,1,1.5021925999899395,573.7924526999996,None,None,1,,,,,,,,,,,,,,106,29,Female,2022-04-29_19h03.46.910,Parachute,2022.1.1,59.88300058791508,
negative,yellow,2,k,None,,,,,,,,,0,144,144,144,,,,,,,,,,,,,,,,,,,,,,,,,,,,,,,,,,,,,,main,k,k,1,0.7705873000086285,576.294882599992,None,None,0,,,,,,,,,,,,,,106,29,Female,2022-04-29_19h03.46.910,Parachute,2022.1.1,59.88300058791508,
negative,blue,2,None,k,,,,,,,,,0,145,145,145,,,,,,,,,,,,,,,,,,,,,,,,,,,,,,,,,,,,,,main,None,None,1,1.4931520000100136,578.0645715999999,None,None,1,,,,,,,,,,,,,,106,29,Female,2022-04-29_19h03.46.910,Parachute,2022.1.1,59.88300058791508,
negative,red,1,None,None,,,,,,,,,0,146,146,146,,,,,,,,,,,,,,,,,,,,,,,,,,,,,,,,,,,,,,main,None,None,1,1.4987134000111837,580.5615202999907,None,None,1,,,,,,,,,,,,,,106,29,Female,2022-04-29_19h03.46.910,Parachute,2022.1.1,59.88300058791508,
positive,blue,1,k,None,,,,,,,,,0,147,147,147,,,,,,,,,,,,,,,,,,,,,,,,,,,,,,,,,,,,,,main,k,k,1,0.8701239000074565,583.061232099979,None,None,0,,,,,,,,,,,,,,106,29,Female,2022-04-29_19h03.46.910,Parachute,2022.1.1,59.88300058791508,
positive,yellow,1,None,k,,,,,,,,,0,148,148,148,,,,,,,,,,,,,,,,,,,,,,,,,,,,,,,,,,,,,,main,None,None,1,1.494305100000929,584.9309573999781,None,None,1,,,,,,,,,,,,,,106,29,Female,2022-04-29_19h03.46.910,Parachute,2022.1.1,59.88300058791508,
negative,red,2,None,None,,,,,,,,,0,149,149,149,,,,,,,,,,,,,,,,,,,,,,,,,,,,,,,,,,,,,,main,None,None,1,1.498251299984986,587.4293365999765,None,None,1,,,,,,,,,,,,,,106,29,Female,2022-04-29_19h03.46.910,Parachute,2022.1.1,59.88300058791508,
negative,blue,1,None,k,,,,,,,,,0,150,150,150,,,,,,,,,,,,,,,,,,,,,,,,,,,,,,,,,,,,,,main,None,None,1,1.4989741999888793,589.928310599993,None,None,1,,,,,,,,,,,,,,106,29,Female,2022-04-29_19h03.46.910,Parachute,2022.1.1,59.88300058791508,
negative,yellow,2,k,None,,,,,,,,,0,151,151,151,,,,,,,,,,,,,,,,,,,,,,,,,,,,,,,,,,,,,,main,k,k,1,0.9041266000131145,592.428943899984,None,None,0,,,,,,,,,,,,,,106,29,Female,2022-04-29_19h03.46.910,Parachute,2022.1.1,59.88300058791508,
negative,blue,2,None,k,,,,,,,,,0,152,152,152,,,,,,,,,,,,,,,,,,,,,,,,,,,,,,,,,,,,,,main,None,None,1,1.493062000023201,594.3321330999897,None,None,1,,,,,,,,,,,,,,106,29,Female,2022-04-29_19h03.46.910,Parachute,2022.1.1,59.88300058791508,
negative,yellow,1,k,None,,,,,,,,,0,153,153,153,,,,,,,,,,,,,,,,,,,,,,,,,,,,,,,,,,,,,,main,k,k,1,0.8532818000239786,596.828853199986,None,None,0,,,,,,,,,,,,,,106,29,Female,2022-04-29_19h03.46.910,Parachute,2022.1.1,59.88300058791508,
negative,blue,1,None,k,,,,,,,,,0,154,154,154,,,,,,,,,,,,,,,,,,,,,,,,,,,,,,,,,,,,,,main,None,None,1,1.4940840999770444,598.6807590999815,None,None,1,,,,,,,,,,,,,,106,29,Female,2022-04-29_19h03.46.910,Parachute,2022.1.1,59.88300058791508,
positive,yellow,2,None,k,,,,,,,,,0,155,155,155,,,,,,,,,,,,,,,,,,,,,,,,,,,,,,,,,,,,,,main,None,None,1,1.4983048999856692,601.1791329999978,None,None,1,,,,,,,,,,,,,,106,29,Female,2022-04-29_19h03.46.910,Parachute,2022.1.1,59.88300058791508,
positive,red,2,None,None,,,,,,,,,0,156,156,156,,,,,,,,,,,,,,,,,,,,,,,,,,,,,,,,,,,,,,main,None,None,1,1.4986916999914683,603.6788048999733,None,None,1,,,,,,,,,,,,,,106,29,Female,2022-04-29_19h03.46.910,Parachute,2022.1.1,59.88300058791508,
positive,red,1,None,None,,,,,,,,,0,157,157,157,,,,,,,,,,,,,,,,,,,,,,,,,,,,,,,,,,,,,,main,None,None,1,1.4985176000045612,606.1788018999796,None,None,1,,,,,,,,,,,,,,106,29,Female,2022-04-29_19h03.46.910,Parachute,2022.1.1,59.88300058791508,
positive,blue,2,k,None,,,,,,,,,0,158,158,158,,,,,,,,,,,,,,,,,,,,,,,,,,,,,,,,,,,,,,main,k,k,1,0.9519199999922421,608.6788705999788,None,None,0,,,,,,,,,,,,,,106,29,Female,2022-04-29_19h03.46.910,Parachute,2022.1.1,59.88300058791508,
negative,yellow,1,k,None,,,,,,,,,0,159,159,159,,,,,,,,,,,,,,,,,,,,,,,,,,,,,,,,,,,,,,main,k,k,1,0.8669045999995433,610.6313648999785,None,None,0,,,,,,,,,,,,,,106,29,Female,2022-04-29_19h03.46.910,Parachute,2022.1.1,59.88300058791508,
negative,red,2,None,None,,,,,,,,,0,160,160,160,,,,,,,,,,,,,,,,,,,,,,,,,,,,,,,,,,,,,,main,None,None,1,1.4936210000014398,612.4979972000001,None,None,1,,,,,,,,,,,,,,106,29,Female,2022-04-29_19h03.46.910,Parachute,2022.1.1,59.88300058791508,
negative,blue,1,None,k,,,,,,,,,0,161,161,161,,,,,,,,,,,,,,,,,,,,,,,,,,,,,,,,,,,,,,main,None,None,1,1.4983872000011615,614.9954618999909,None,None,1,,,,,,,,,,,,,,106,29,Female,2022-04-29_19h03.46.910,Parachute,2022.1.1,59.88300058791508,
negative,blue,1,None,k,,,,,,,,,0,162,162,162,,,,,,,,,,,,,,,,,,,,,,,,,,,,,,,,,,,,,,main,None,None,1,1.4987145999912173,617.4948671999737,None,None,1,,,,,,,,,,,,,,106,29,Female,2022-04-29_19h03.46.910,Parachute,2022.1.1,59.88300058791508,
negative,yellow,1,k,None,,,,,,,,,0,163,163,163,,,,,,,,,,,,,,,,,,,,,,,,,,,,,,,,,,,,,,main,k,k,1,0.8711716999823693,619.9952956999769,None,None,0,,,,,,,,,,,,,,106,29,Female,2022-04-29_19h03.46.910,Parachute,2022.1.1,59.88300058791508,
negative,yellow,1,k,None,,,,,,,,,0,164,164,164,,,,,,,,,,,,,,,,,,,,,,,,,,,,,,,,,,,,,,main,k,k,1,0.915371499984758,621.8651939999836,None,None,0,,,,,,,,,,,,,,106,29,Female,2022-04-29_19h03.46.910,Parachute,2022.1.1,59.88300058791508,
positive,yellow,1,None,k,,,,,,,,,0,165,165,165,,,,,,,,,,,,,,,,,,,,,,,,,,,,,,,,,,,,,,main,None,None,1,1.493411000003107,623.7817745999782,None,None,1,,,,,,,,,,,,,,106,29,Female,2022-04-29_19h03.46.910,Parachute,2022.1.1,59.88300058791508,
negative,red,1,None,None,,,,,,,,,0,166,166,166,,,,,,,,,,,,,,,,,,,,,,,,,,,,,,,,,,,,,,main,None,None,1,1.4980320000031497,626.2797570999828,None,None,1,,,,,,,,,,,,,,106,29,Female,2022-04-29_19h03.46.910,Parachute,2022.1.1,59.88300058791508,
negative,yellow,2,k,None,,,,,,,,,0,167,167,167,,,,,,,,,,,,,,,,,,,,,,,,,,,,,,,,,,,,,,main,k,k,1,0.9699165000056382,628.7789645999728,None,None,0,,,,,,,,,,,,,,106,29,Female,2022-04-29_19h03.46.910,Parachute,2022.1.1,59.88300058791508,
positive,blue,2,k,None,,,,,,,,,0,168,168,168,,,,,,,,,,,,,,,,,,,,,,,,,,,,,,,,,,,,,,main,k,k,1,0.8823066000186373,630.7483957999793,None,None,0,,,,,,,,,,,,,,106,29,Female,2022-04-29_19h03.46.910,Parachute,2022.1.1,59.88300058791508,
positive,red,2,None,None,,,,,,,,,0,169,169,169,,,,,,,,,,,,,,,,,,,,,,,,,,,,,,,,,,,,,,main,None,None,1,1.494177699991269,632.631748099986,None,None,1,,,,,,,,,,,,,,106,29,Female,2022-04-29_19h03.46.910,Parachute,2022.1.1,59.88300058791508,
positive,red,1,None,None,,,,,,,,,0,170,170,170,,,,,,,,,,,,,,,,,,,,,,,,,,,,,,,,,,,,,,main,None,None,1,1.4986580999975558,635.1298301999923,None,None,1,,,,,,,,,,,,,,106,29,Female,2022-04-29_19h03.46.910,Parachute,2022.1.1,59.88300058791508,
negative,blue,2,None,k,,,,,,,,,0,171,171,171,,,,,,,,,,,,,,,,,,,,,,,,,,,,,,,,,,,,,,main,None,None,1,1.4983964999846648,637.6292247999809,None,None,1,,,,,,,,,,,,,,106,29,Female,2022-04-29_19h03.46.910,Parachute,2022.1.1,59.88300058791508,
positive,blue,2,k,None,,,,,,,,,0,172,172,172,,,,,,,,,,,,,,,,,,,,,,,,,,,,,,,,,,,,,,main,k,k,1,0.8539149000134785,640.1295245999936,None,None,0,,,,,,,,,,,,,,106,29,Female,2022-04-29_19h03.46.910,Parachute,2022.1.1,59.88300058791508,
negative,yellow,2,k,None,,,,,,,,,0,173,173,173,,,,,,,,,,,,,,,,,,,,,,,,,,,,,,,,,,,,,,main,k,k,1,0.8153454000130296,641.9822958000004,None,None,0,,,,,,,,,,,,,,106,29,Female,2022-04-29_19h03.46.910,Parachute,2022.1.1,59.88300058791508,
positive,yellow,2,None,k,,,,,,,,,0,174,174,174,,,,,,,,,,,,,,,,,,,,,,,,,,,,,,,,,,,,,,main,None,None,1,1.4931543999991845,643.7990239999781,None,None,1,,,,,,,,,,,,,,106,29,Female,2022-04-29_19h03.46.910,Parachute,2022.1.1,59.88300058791508,
negative,blue,2,None,k,,,,,,,,,0,175,175,175,,,,,,,,,,,,,,,,,,,,,,,,,,,,,,,,,,,,,,main,None,None,1,1.4988183999957982,646.2959479999845,None,None,1,,,,,,,,,,,,,,106,29,Female,2022-04-29_19h03.46.910,Parachute,2022.1.1,59.88300058791508,
positive,blue,1,k,None,,,,,,,,,0,176,176,176,,,,,,,,,,,,,,,,,,,,,,,,,,,,,,,,,,,,,,main,k,k,1,0.8850498000101652,648.796019899979,None,None,0,,,,,,,,,,,,,,106,29,Female,2022-04-29_19h03.46.910,Parachute,2022.1.1,59.88300058791508,
positive,yellow,1,None,k,,,,,,,,,0,177,177,177,,,,,,,,,,,,,,,,,,,,,,,,,,,,,,,,,,,,,,main,None,None,1,1.4959204999904614,650.6820455999987,None,None,1,,,,,,,,,,,,,,106,29,Female,2022-04-29_19h03.46.910,Parachute,2022.1.1,59.88300058791508,
positive,blue,1,k,None,,,,,,,,,0,178,178,178,,,,,,,,,,,,,,,,,,,,,,,,,,,,,,,,,,,,,,main,k,k,1,0.9533760999911465,653.1795074999973,None,None,0,,,,,,,,,,,,,,106,29,Female,2022-04-29_19h03.46.910,Parachute,2022.1.1,59.88300058791508,
positive,yellow,2,None,k,,,,,,,,,0,179,179,179,,,,,,,,,,,,,,,,,,,,,,,,,,,,,,,,,,,,,,main,None,None,1,1.4939575000025798,655.1321730999916,None,None,1,,,,,,,,,,,,,,106,29,Female,2022-04-29_19h03.46.910,Parachute,2022.1.1,59.88300058791508,
positive,blue,1,k,None,,,,,,,,,0,180,180,180,,,,,,,,,,,,,,,,,,,,,,,,,,,,,,,,,,,,,,main,k,k,1,0.9701059999933932,657.6304523999861,None,None,0,,,,,,,,,,,,,,106,29,Female,2022-04-29_19h03.46.910,Parachute,2022.1.1,59.88300058791508,
negative,red,1,None,None,,,,,,,,,0,181,181,181,,,,,,,,,,,,,,,,,,,,,,,,,,,,,,,,,,,,,,main,None,None,1,1.493777499999851,659.599361999979,None,None,1,,,,,,,,,,,,,,106,29,Female,2022-04-29_19h03.46.910,Parachute,2022.1.1,59.88300058791508,
negative,blue,1,None,k,,,,,,,,,0,182,182,182,,,,,,,,,,,,,,,,,,,,,,,,,,,,,,,,,,,,,,main,None,None,1,1.4991700000246055,662.0960600999824,None,None,1,,,,,,,,,,,,,,106,29,Female,2022-04-29_19h03.46.910,Parachute,2022.1.1,59.88300058791508,
negative,yellow,2,k,None,,,,,,,,,0,183,183,183,,,,,,,,,,,,,,,,,,,,,,,,,,,,,,,,,,,,,,main,k,k,1,0.9033815000148024,664.5970665999921,None,None,0,,,,,,,,,,,,,,106,29,Female,2022-04-29_19h03.46.910,Parachute,2022.1.1,59.88300058791508,
positive,yellow,2,None,k,,,,,,,,,0,184,184,184,,,,,,,,,,,,,,,,,,,,,,,,,,,,,,,,,,,,,,main,None,None,1,1.4936848999932408,666.4993405999849,None,None,1,,,,,,,,,,,,,,106,29,Female,2022-04-29_19h03.46.910,Parachute,2022.1.1,59.88300058791508,
positive,yellow,1,None,k,,,,,,,,,0,185,185,185,,,,,,,,,,,,,,,,,,,,,,,,,,,,,,,,,,,,,,main,None,None,1,1.4987389000016265,668.9965488000016,None,None,1,,,,,,,,,,,,,,106,29,Female,2022-04-29_19h03.46.910,Parachute,2022.1.1,59.88300058791508,
positive,red,2,None,None,,,,,,,,,0,186,186,186,,,,,,,,,,,,,,,,,,,,,,,,,,,,,,,,,,,,,,main,None,None,1,1.4985137000039686,671.4969358999806,None,None,1,,,,,,,,,,,,,,106,29,Female,2022-04-29_19h03.46.910,Parachute,2022.1.1,59.88300058791508,
positive,blue,1,k,None,,,,,,,,,0,187,187,187,,,,,,,,,,,,,,,,,,,,,,,,,,,,,,,,,,,,,,main,k,k,1,0.8035299000039231,673.996722699987,None,None,0,,,,,,,,,,,,,,106,29,Female,2022-04-29_19h03.46.910,Parachute,2022.1.1,59.88300058791508,
negative,yellow,1,k,None,,,,,,,,,0,188,188,188,,,,,,,,,,,,,,,,,,,,,,,,,,,,,,,,,,,,,,main,k,k,1,0.8141589000006206,675.7991858999885,None,None,0,,,,,,,,,,,,,,106,29,Female,2022-04-29_19h03.46.910,Parachute,2022.1.1,59.88300058791508,
positive,yellow,2,None,k,,,,,,,,,0,189,189,189,,,,,,,,,,,,,,,,,,,,,,,,,,,,,,,,,,,,,,main,None,None,1,1.494809299998451,677.6246043999854,None,None,1,,,,,,,,,,,,,,106,29,Female,2022-04-29_19h03.46.910,Parachute,2022.1.1,59.88300058791508,
negative,yellow,2,k,None,,,,,,,,,0,190,190,190,,,,,,,,,,,,,,,,,,,,,,,,,,,,,,,,,,,,,,main,k,k,1,0.8041149000055157,680.1134827999922,None,None,0,,,,,,,,,,,,,,106,29,Female,2022-04-29_19h03.46.910,Parachute,2022.1.1,59.88300058791508,
negative,yellow,1,k,None,,,,,,,,,0,191,191,191,,,,,,,,,,,,,,,,,,,,,,,,,,,,,,,,,,,,,,main,k,k,1,0.8151370999985375,681.9164543999941,None,None,0,,,,,,,,,,,,,,106,29,Female,2022-04-29_19h03.46.910,Parachute,2022.1.1,59.88300058791508,
positive,blue,2,k,None,,,,,,,,,0,192,192,192,,,,,,,,,,,,,,,,,,,,,,,,,,,,,,,,,,,,,,main,k,k,1,0.8333982000185642,683.733045299974,None,None,0,,,,,,,,,,,,,,106,29,Female,2022-04-29_19h03.46.910,Parachute,2022.1.1,59.88300058791508,
positive,yellow,1,None,k,,,,,,,,,0,193,193,193,,,,,,,,,,,,,,,,,,,,,,,,,,,,,,,,,,,,,,main,None,None,1,1.5089582999935374,685.5677494999836,None,None,1,,,,,,,,,,,,,,106,29,Female,2022-04-29_19h03.46.910,Parachute,2022.1.1,59.88300058791508,
negative,red,2,None,None,,,,,,,,,0,194,194,194,,,,,,,,,,,,,,,,,,,,,,,,,,,,,,,,,,,,,,main,None,None,1,1.49877489998471,688.080338699976,None,None,1,,,,,,,,,,,,,,106,29,Female,2022-04-29_19h03.46.910,Parachute,2022.1.1,59.88300058791508,
positive,red,1,None,None,,,,,,,,,0,195,195,195,,,,,,,,,,,,,,,,,,,,,,,,,,,,,,,,,,,,,,main,None,None,1,1.4987262999929953,690.5801329999813,None,None,1,,,,,,,,,,,,,,106,29,Female,2022-04-29_19h03.46.910,Parachute,2022.1.1,59.88300058791508,
negative,blue,1,None,k,,,,,,,,,0,196,196,196,,,,,,,,,,,,,,,,,,,,,,,,,,,,,,,,,,,,,,main,None,None,1,1.4987328999850433,693.080635899998,None,None,1,,,,,,,,,,,,,,106,29,Female,2022-04-29_19h03.46.910,Parachute,2022.1.1,59.88300058791508,
positive,blue,2,k,None,,,,,,,,,0,197,197,197,,,,,,,,,,,,,,,,,,,,,,,,,,,,,,,,,,,,,,main,k,k,1,1.8204515000106767,695.5804887999839,None,None,0,,,,,,,,,,,,,,106,29,Female,2022-04-29_19h03.46.910,Parachute,2022.1.1,59.88300058791508,
negative,blue,2,None,k,,,,,,,,,0,198,198,198,,,,,,,,,,,,,,,,,,,,,,,,,,,,,,,,,,,,,,main,None,None,1,1.5021836000087205,699.4112994999741,None,None,1,,,,,,,,,,,,,,106,29,Female,2022-04-29_19h03.46.910,Parachute,2022.1.1,59.88300058791508,
negative,blue,2,None,k,,,,,,,,,0,199,199,199,,,,,,,,,,,,,,,,,,,,,,,,,,,,,,,,,,,,,,main,None,None,1,1.4976436999859288,701.9149896999879,None,None,1,,,,,,,,,,,,,,106,29,Female,2022-04-29_19h03.46.910,Parachute,2022.1.1,59.88300058791508,
positive,blue,2,k,None,,,,,,,,,0,200,200,200,,,,,,,,,,,,,,,,,,,,,,,,,,,,,,,,,,,,,,main,k,k,1,0.7204686000186484,704.4140321000014,None,None,0,,,,,,,,,,,,,,106,29,Female,2022-04-29_19h03.46.910,Parachute,2022.1.1,59.88300058791508,
positive,blue,2,k,None,,,,,,,,,0,201,201,201,,,,,,,,,,,,,,,,,,,,,,,,,,,,,,,,,,,,,,main,k,k,1,3.1666442999849096,706.1333403999743,None,None,0,,,,,,,,,,,,,,106,29,Female,2022-04-29_19h03.46.910,Parachute,2022.1.1,59.88300058791508,
negative,yellow,2,k,None,,,,,,,,,0,202,202,202,,,,,,,,,,,,,,,,,,,,,,,,,,,,,,,,,,,,,,main,k,k,1,0.8737756999908015,711.3117149999889,None,None,0,,,,,,,,,,,,,,106,29,Female,2022-04-29_19h03.46.910,Parachute,2022.1.1,59.88300058791508,
positive,red,1,None,None,,,,,,,,,0,203,203,203,,,,,,,,,,,,,,,,,,,,,,,,,,,,,,,,,,,,,,main,None,None,1,1.492781200009631,713.1846615999821,None,None,1,,,,,,,,,,,,,,106,29,Female,2022-04-29_19h03.46.910,Parachute,2022.1.1,59.88300058791508,
negative,blue,2,None,k,,,,,,,,,0,204,204,204,,,,,,,,,,,,,,,,,,,,,,,,,,,,,,,,,,,,,,main,None,None,1,1.498375600000145,715.6806323999772,None,None,1,,,,,,,,,,,,,,106,29,Female,2022-04-29_19h03.46.910,Parachute,2022.1.1,59.88300058791508,
negative,red,1,None,None,,,,,,,,,0,205,205,205,,,,,,,,,,,,,,,,,,,,,,,,,,,,,,,,,,,,,,main,None,None,1,1.4987304999958724,718.1804179999745,None,None,1,,,,,,,,,,,,,,106,29,Female,2022-04-29_19h03.46.910,Parachute,2022.1.1,59.88300058791508,
negative,blue,2,None,k,,,,,,,,,0,206,206,206,,,,,,,,,,,,,,,,,,,,,,,,,,,,,,,,,,,,,,main,None,None,1,1.4989331999968272,720.6804541999882,None,None,1,,,,,,,,,,,,,,106,29,Female,2022-04-29_19h03.46.910,Parachute,2022.1.1,59.88300058791508,
negative,yellow,2,k,None,,,,,,,,,0,207,207,207,,,,,,,,,,,,,,,,,,,,,,,,,,,,,,,,,,,,,,main,k,k,1,1.3687961999967229,723.180598499981,None,None,0,,,,,,,,,,,,,,106,29,Female,2022-04-29_19h03.46.910,Parachute,2022.1.1,59.88300058791508,
positive,yellow,2,None,k,,,,,,,,,0,208,208,208,,,,,,,,,,,,,,,,,,,,,,,,,,,,,,,,,,,,,,main,None,None,1,1.495716800010996,725.5506468999956,None,None,1,,,,,,,,,,,,,,106,29,Female,2022-04-29_19h03.46.910,Parachute,2022.1.1,59.88300058791508,
negative,yellow,1,k,None,,,,,,,,,0,209,209,209,,,,,,,,,,,,,,,,,,,,,,,,,,,,,,,,,,,,,,main,k,k,1,1.0189580000005662,728.0477246999799,None,None,0,,,,,,,,,,,,,,106,29,Female,2022-04-29_19h03.46.910,Parachute,2022.1.1,59.88300058791508,
negative,red,2,None,None,,,,,,,,,0,210,210,210,,,,,,,,,,,,,,,,,,,,,,,,,,,,,,,,,,,,,,main,None,None,1,1.4947687000094447,730.0753604999918,None,None,1,,,,,,,,,,,,,,106,29,Female,2022-04-29_19h03.46.910,Parachute,2022.1.1,59.88300058791508,
negative,blue,1,None,k,,,,,,,,,0,211,211,211,,,,,,,,,,,,,,,,,,,,,,,,,,,,,,,,,,,,,,main,None,None,1,1.498649999994086,732.5644010999822,None,None,1,,,,,,,,,,,,,,106,29,Female,2022-04-29_19h03.46.910,Parachute,2022.1.1,59.88300058791508,
negative,yellow,1,k,None,,,,,,,,,0,212,212,212,,,,,,,,,,,,,,,,,,,,,,,,,,,,,,,,,,,,,,main,k,k,1,0.7704636999987997,735.0644855999853,None,None,0,,,,,,,,,,,,,,106,29,Female,2022-04-29_19h03.46.910,Parachute,2022.1.1,59.88300058791508,
positive,blue,1,k,None,,,,,,,,,0,213,213,213,,,,,,,,,,,,,,,,,,,,,,,,,,,,,,,,,,,,,,main,k,k,1,0.7818942000158131,736.8337322000007,None,None,0,,,,,,,,,,,,,,106,29,Female,2022-04-29_19h03.46.910,Parachute,2022.1.1,59.88300058791508,
positive,blue,1,k,None,,,,,,,,,0,214,214,214,,,,,,,,,,,,,,,,,,,,,,,,,,,,,,,,,,,,,,main,k,k,1,0.847045500006061,738.617456899985,None,None,0,,,,,,,,,,,,,,106,29,Female,2022-04-29_19h03.46.910,Parachute,2022.1.1,59.88300058791508,
positive,yellow,1,None,k,,,,,,,,,0,215,215,215,,,,,,,,,,,,,,,,,,,,,,,,,,,,,,,,,,,,,,main,None,None,1,1.4956561000144575,740.4758440000005,None,None,1,,,,,,,,,,,,,,106,29,Female,2022-04-29_19h03.46.910,Parachute,2022.1.1,59.88300058791508,
positive,yellow,1,None,k,,,,,,,,,0,216,216,216,,,,,,,,,,,,,,,,,,,,,,,,,,,,,,,,,,,,,,main,None,None,1,1.497342100017704,742.966128399974,None,None,1,,,,,,,,,,,,,,106,29,Female,2022-04-29_19h03.46.910,Parachute,2022.1.1,59.88300058791508,
positive,yellow,2,None,k,,,,,,,,,0,217,217,217,,,,,,,,,,,,,,,,,,,,,,,,,,,,,,,,,,,,,,main,None,None,1,1.4994651000015438,745.4645434999838,None,None,1,,,,,,,,,,,,,,106,29,Female,2022-04-29_19h03.46.910,Parachute,2022.1.1,59.88300058791508,
negative,blue,1,None,k,,,,,,,,,0,218,218,218,,,,,,,,,,,,,,,,,,,,,,,,,,,,,,,,,,,,,,main,None,None,1,1.4983609999762848,747.9657389999775,None,None,1,,,,,,,,,,,,,,106,29,Female,2022-04-29_19h03.46.910,Parachute,2022.1.1,59.88300058791508,
positive,red,2,None,None,,,,,,,,,0,219,219,219,,,,,,,,,,,,,,,,,,,,,,,,,,,,,,,,,,,,,,main,None,None,1,1.497855099994922,750.4648726999876,None,None,1,,,,,,,,,,,,,,106,29,Female,2022-04-29_19h03.46.910,Parachute,2022.1.1,59.88300058791508,
positive,yellow,1,None,k,,,,,,,,,0,220,220,220,,,,,,,,,,,,,,,,,,,,,,,,,,,,,,,,,,,,,,main,None,None,1,1.499316400004318,752.9648119999911,None,None,1,,,,,,,,,,,,,,106,29,Female,2022-04-29_19h03.46.910,Parachute,2022.1.1,59.88300058791508,
positive,blue,1,k,None,,,,,,,,,0,221,221,221,,,,,,,,,,,,,,,,,,,,,,,,,,,,,,,,,,,,,,main,k,k,1,0.9034235999861266,755.4656537999981,None,None,0,,,,,,,,,,,,,,106,29,Female,2022-04-29_19h03.46.910,Parachute,2022.1.1,59.88300058791508,
positive,yellow,2,None,k,,,,,,,,,0,222,222,222,,,,,,,,,,,,,,,,,,,,,,,,,,,,,,,,,,,,,,main,None,None,1,1.4933487999951467,757.3680388999928,None,None,1,,,,,,,,,,,,,,106,29,Female,2022-04-29_19h03.46.910,Parachute,2022.1.1,59.88300058791508,
negative,yellow,1,k,None,,,,,,,,,0,223,223,223,,,,,,,,,,,,,,,,,,,,,,,,,,,,,,,,,,,,,,main,k,k,1,0.7953366000147071,759.8649686999852,None,None,0,,,,,,,,,,,,,,106,29,Female,2022-04-29_19h03.46.910,Parachute,2022.1.1,59.88300058791508,
positive,yellow,2,None,k,,,,,,,,,0,224,224,224,,,,,,,,,,,,,,,,,,,,,,,,,,,,,,,,,,,,,,main,None,None,1,1.5023042000248097,761.6626256000018,None,None,1,,,,,,,,,,,,,,106,29,Female,2022-04-29_19h03.46.910,Parachute,2022.1.1,59.88300058791508,
negative,yellow,2,k,None,,,,,,,,,0,225,225,225,,,,,,,,,,,,,,,,,,,,,,,,,,,,,,,,,,,,,,main,k,k,1,0.8200441999942996,764.1656168999907,None,None,0,,,,,,,,,,,,,,106,29,Female,2022-04-29_19h03.46.910,Parachute,2022.1.1,59.88300058791508,
negative,blue,2,None,k,,,,,,,,,0,226,226,226,,,,,,,,,,,,,,,,,,,,,,,,,,,,,,,,,,,,,,main,None,None,1,1.4935456999810413,765.984487699985,None,None,1,,,,,,,,,,,,,,106,29,Female,2022-04-29_19h03.46.910,Parachute,2022.1.1,59.88300058791508,
positive,red,2,None,None,,,,,,,,,0,227,227,227,,,,,,,,,,,,,,,,,,,,,,,,,,,,,,,,,,,,,,main,None,None,1,1.498654000024544,768.4810503999761,None,None,1,,,,,,,,,,,,,,106,29,Female,2022-04-29_19h03.46.910,Parachute,2022.1.1,59.88300058791508,
positive,blue,2,k,None,,,,,,,,,0,228,228,228,,,,,,,,,,,,,,,,,,,,,,,,,,,,,,,,,,,,,,main,k,k,1,1.0038100999954622,770.9826358999999,None,None,0,,,,,,,,,,,,,,106,29,Female,2022-04-29_19h03.46.910,Parachute,2022.1.1,59.88300058791508,
negative,blue,1,None,k,,,,,,,,,0,229,229,229,,,,,,,,,,,,,,,,,,,,,,,,,,,,,,,,,,,,,,main,None,None,1,1.4934407999971882,772.9843971999944,None,None,1,,,,,,,,,,,,,,106,29,Female,2022-04-29_19h03.46.910,Parachute,2022.1.1,59.88300058791508,
positive,yellow,1,None,k,,,,,,,,,0,230,230,230,,,,,,,,,,,,,,,,,,,,,,,,,,,,,,,,,,,,,,main,None,None,1,1.4987742000084836,775.4821559999837,None,None,1,,,,,,,,,,,,,,106,29,Female,2022-04-29_19h03.46.910,Parachute,2022.1.1,59.88300058791508,
negative,blue,2,None,k,,,,,,,,,0,231,231,231,,,,,,,,,,,,,,,,,,,,,,,,,,,,,,,,,,,,,,main,None,None,1,1.498418800008949,777.9821322999778,None,None,1,,,,,,,,,,,,,,106,29,Female,2022-04-29_19h03.46.910,Parachute,2022.1.1,59.88300058791508,
negative,red,1,None,None,,,,,,,,,0,232,232,232,,,,,,,,,,,,,,,,,,,,,,,,,,,,,,,,,,,,,,main,None,None,1,1.4986578000243753,780.4819413999794,None,None,1,,,,,,,,,,,,,,106,29,Female,2022-04-29_19h03.46.910,Parachute,2022.1.1,59.88300058791508,
positive,blue,2,k,None,,,,,,,,,0,233,233,233,,,,,,,,,,,,,,,,,,,,,,,,,,,,,,,,,,,,,,main,k,k,1,0.8540820000052918,782.9815177999844,None,None,0,,,,,,,,,,,,,,106,29,Female,2022-04-29_19h03.46.910,Parachute,2022.1.1,59.88300058791508,
negative,yellow,1,k,None,,,,,,,,,0,234,234,234,,,,,,,,,,,,,,,,,,,,,,,,,,,,,,,,,,,,,,main,k,k,1,0.881896599981701,784.8344156999956,None,None,0,,,,,,,,,,,,,,106,29,Female,2022-04-29_19h03.46.910,Parachute,2022.1.1,59.88300058791508,
negative,yellow,2,k,None,,,,,,,,,0,235,235,235,,,,,,,,,,,,,,,,,,,,,,,,,,,,,,,,,,,,,,main,k,k,1,4.432467600010568,786.7186987999885,None,None,0,,,,,,,,,,,,,,106,29,Female,2022-04-29_19h03.46.910,Parachute,2022.1.1,59.88300058791508,
positive,red,1,None,None,,,,,,,,,0,236,236,236,,,,,,,,,,,,,,,,,,,,,,,,,,,,,,,,,,,,,,main,None,None,1,1.50222140000551,793.1635058999818,None,None,1,,,,,,,,,,,,,,106,29,Female,2022-04-29_19h03.46.910,Parachute,2022.1.1,59.88300058791508,
negative,red,2,None,None,,,,,,,,,0,237,237,237,,,,,,,,,,,,,,,,,,,,,,,,,,,,,,,,,,,,,,main,None,None,1,1.498011999996379,795.6664807999914,None,None,1,,,,,,,,,,,,,,106,29,Female,2022-04-29_19h03.46.910,Parachute,2022.1.1,59.88300058791508,
negative,blue,1,None,k,,,,,,,,,0,238,238,238,,,,,,,,,,,,,,,,,,,,,,,,,,,,,,,,,,,,,,main,None,None,1,1.4989415999734774,798.1655998999777,None,None,1,,,,,,,,,,,,,,106,29,Female,2022-04-29_19h03.46.910,Parachute,2022.1.1,59.88300058791508,
positive,blue,1,k,None,,,,,,,,,0,239,239,239,,,,,,,,,,,,,,,,,,,,,,,,,,,,,,,,,,,,,,main,k,k,1,0.7040128000080585,800.6663913999801,None,None,0,,,,,,,,,,,,,,106,29,Female,2022-04-29_19h03.46.910,Parachute,2022.1.1,59.88300058791508,
,,,,,,,,,,,,,,,,,,,,,,,,,,,,,,,,,,,,,,,,,,,,,,,,,,,,,,,,,,,,,,,,,,,,,,,,,,802.366311699996,None,,,,,,,,
