distractor,target,set,ans1,ans2,rep_loop4.thisRepN,rep_loop4.thisTrialN,rep_loop4.thisN,rep_loop4.thisIndex,st2_prac_loop.thisRepN,st2_prac_loop.thisTrialN,st2_prac_loop.thisN,st2_prac_loop.thisIndex,st2_main_loop.thisRepN,st2_main_loop.thisTrialN,st2_main_loop.thisN,st2_main_loop.thisIndex,image_4.started,image_4.stopped,mouse_7.x,mouse_7.y,mouse_7.leftButton,mouse_7.midButton,mouse_7.rightButton,sound_2.started,sound_2.stopped,key_resp_3.keys,mouse_5.x,mouse_5.y,mouse_5.leftButton,mouse_5.midButton,mouse_5.rightButton,mouse_5.started,mouse_5.stopped,yes_text2.started,yes_text2.stopped,no_text2.started,no_text2.stopped,mouse_3.x,mouse_3.y,mouse_3.leftButton,mouse_3.midButton,mouse_3.rightButton,mouse_3.started,mouse_3.stopped,st_prac_back.started,st_prac_back.stopped,st_prac_text.started,st_prac_text.stopped,st_fix_back.started,st_fix_back.stopped,st_fix_2.started,st_fix_2.stopped,main_prac,st_ans,st_res,st_corr,st_rt,st_back.started,st_back.stopped,st2_resp.keys,st2_resp.corr,st_main_back.started,st_main_back.stopped,st_main_text.started,st_main_text.stopped,mouse_4.x,mouse_4.y,mouse_4.leftButton,mouse_4.midButton,mouse_4.rightButton,mouse_4.started,mouse_4.stopped,text_2.started,text_2.stopped,id*,age*,gender*,date,expName,psychopyVersion,frameRate,
,,,,,,,,,,,,,,,,,34.70312359998934,None,-0.2787037,-0.11574074,0,0,0,,,,,,,,,,,,,,,,,,,,,,,,,,,,,,,,,,,,,,,,,,,,,,,,,,,,107,23,Female,2022-05-02_09h50.28.059,Parachute,2022.1.1,59.973827417916326,
negative,yellow,1,k,None,,,,,0,0,0,0,,,,,,,,,,,,40.235415090003514,None,None,-0.34351853,-0.28425926,0,0,0,1.0105659500695765,None,117.35572089999914,None,117.35572089999914,None,-0.11111111,-0.072222225,0,0,0,0.013433290005195886,None,118.56924849998904,None,118.56924849998904,None,120.58376880001742,None,120.58376880001742,None,prac,None,None,1,1.510362199973315,122.60292279999703,None,None,1,,,,,,,,,,,,,,107,23,Female,2022-05-02_09h50.28.059,Parachute,2022.1.1,59.973827417916326,
positive,red,2,None,None,,,,,0,1,1,1,,,,,,,,,,,,,,,,,,,,,,,,,,,,,,,,,,,,,,,,,prac,None,None,1,1.498665799968876,125.09535700001288,None,None,1,,,,,,,,,,,,,,107,23,Female,2022-05-02_09h50.28.059,Parachute,2022.1.1,59.973827417916326,
negative,blue,2,None,k,,,,,0,2,2,2,,,,,,,,,,,,,,,,,,,,,,,,,,,,,,,,,,,,,,,,,prac,k,k,1,1.0540216999943368,127.59562740003457,None,None,0,,,,,,,,,,,,,,107,23,Female,2022-05-02_09h50.28.059,Parachute,2022.1.1,59.973827417916326,
positive,yellow,1,None,k,,,,,0,3,3,3,,,,,,,,,,,,,,,,,,,,,,,,,,,,,,,,,,,,,,,,,prac,k,k,1,1.015437700028997,129.649145900039,None,None,0,,,,,,,,,,,,,,107,23,Female,2022-05-02_09h50.28.059,Parachute,2022.1.1,59.973827417916326,
negative,blue,2,None,k,,,,,0,4,4,4,,,,,,,,,,,,,,,,,,,,,,,,,,,,,,,,,,,,,,,,,prac,k,k,1,1.0496210000128485,131.66655750002246,None,None,0,,,,,,,,,,,,,,107,23,Female,2022-05-02_09h50.28.059,Parachute,2022.1.1,59.973827417916326,
negative,blue,1,None,k,,,,,0,5,5,5,,,,,,,,,,,,,,,,,,,,,,,,,,,,,,,,,,,,,,,,,prac,k,k,1,1.0577308000065386,133.71726200002013,None,None,0,,,,,,,,,,,,,,107,23,Female,2022-05-02_09h50.28.059,Parachute,2022.1.1,59.973827417916326,
negative,yellow,2,k,None,,,,,0,6,6,6,,,,,,,,,,,,,,,,,,,,,,,,,,,,,,,,,,,,,,,,,prac,None,None,1,1.499454999982845,135.77181930001825,None,None,1,,,,,,,,,,,,,,107,23,Female,2022-05-02_09h50.28.059,Parachute,2022.1.1,59.973827417916326,
negative,red,1,None,None,,,,,0,7,7,7,,,,,,,,,,,,,,,,,,,,,,,,,,,,,,,,,,,,,,,,,prac,None,None,1,1.4978191000409424,138.2739508000086,None,None,1,,,,,,,,,,,,,,107,23,Female,2022-05-02_09h50.28.059,Parachute,2022.1.1,59.973827417916326,
positive,yellow,2,None,k,,,,,0,8,8,8,,,,,,,,,,,,,,,,,,,,,,,,,,,,,,,,,,,,,,,,,prac,k,k,1,1.1204766999580897,140.77271029999247,None,None,0,,,,,,,,,,,,,,107,23,Female,2022-05-02_09h50.28.059,Parachute,2022.1.1,59.973827417916326,
negative,yellow,1,k,None,,,,,0,9,9,9,,,,,,,,,,,,,,,,,,,,,,,,,,,,,,,,,,,,,,,,,prac,None,None,1,1.4935500000137836,142.8923070000019,None,None,1,,,,,,,,,,,,,,107,23,Female,2022-05-02_09h50.28.059,Parachute,2022.1.1,59.973827417916326,
positive,yellow,2,None,k,,,,,0,10,10,10,,,,,,,,,,,,,,,,,,,,,,,,,,,,,,,,,,,,,,,,,prac,k,k,1,0.8870524000376463,145.3897616000031,None,None,0,,,,,,,,,,,,,,107,23,Female,2022-05-02_09h50.28.059,Parachute,2022.1.1,59.973827417916326,
negative,yellow,2,k,None,,,,,0,11,11,11,,,,,,,,,,,,,,,,,,,,,,,,,,,,,,,,,,,,,,,,,prac,None,None,1,1.4940547000151128,147.27625470003113,None,None,1,,,,,,,,,,,,,,107,23,Female,2022-05-02_09h50.28.059,Parachute,2022.1.1,59.973827417916326,
negative,red,2,None,None,,,,,0,12,12,12,,,,,,,,,,,,,,,,,,,,,,,,,,,,,,,,,,,,,,,,,prac,None,None,1,1.4985638000071049,149.77280410000822,None,None,1,,,,,,,,,,,,,,107,23,Female,2022-05-02_09h50.28.059,Parachute,2022.1.1,59.973827417916326,
positive,red,1,None,None,,,,,0,13,13,13,,,,,,,,,,,,,,,,,,,,,,,,,,,,,,,,,,,,,,,,,prac,None,None,1,1.4981884000007994,152.27851750003174,None,None,1,,,,,,,,,,,,,,107,23,Female,2022-05-02_09h50.28.059,Parachute,2022.1.1,59.973827417916326,
positive,blue,2,k,None,,,,,0,14,14,14,,,,,,,,,,,,,,,,,,,,,,,,,,,,,,,,,,,,,,,,,prac,None,k,0,0.8381893999758177,154.77514049998717,None,None,1,,,,,,,,,,,,,,107,23,Female,2022-05-02_09h50.28.059,Parachute,2022.1.1,59.973827417916326,
positive,blue,1,k,None,,,,,0,15,15,15,,,,,,,,,,,,,,,,,,,,,,,,,,,,,,,,,,,,,,,,,prac,None,None,1,1.5022061000345275,157.6376918000169,None,None,1,,,,,,,,,,,,,,107,23,Female,2022-05-02_09h50.28.059,Parachute,2022.1.1,59.973827417916326,
negative,blue,1,None,k,,,,,0,16,16,16,,,,,,,,,,,,,,,,,,,,,,,,,,,,,,,,,,,,,,,,,prac,k,k,1,0.6701668000314385,160.14066490001278,None,None,0,,,,,,,,,,,,,,107,23,Female,2022-05-02_09h50.28.059,Parachute,2022.1.1,59.973827417916326,
positive,blue,2,k,None,,,,,0,17,17,17,,,,,,,,,,,,,,,,,,,,,,,,,,,,,,,,,,,,,,,,,prac,None,None,1,1.493430700036697,161.8096768000396,None,None,1,,,,,,,,,,,,,,107,23,Female,2022-05-02_09h50.28.059,Parachute,2022.1.1,59.973827417916326,
positive,blue,1,k,None,,,,,0,18,18,18,,,,,,,,,,,,,,,,,,,,,,,,,,,,,,,,,,,,,,,,,prac,None,None,1,1.4986837000469677,164.30667230003746,None,None,1,,,,,,,,,,,,,,107,23,Female,2022-05-02_09h50.28.059,Parachute,2022.1.1,59.973827417916326,
positive,yellow,1,None,k,,,,,0,19,19,19,,,,,,,,,,,,,,,,,,,,,,,,,,,,,,,,,,,,,,,,,prac,k,k,1,1.370593000028748,166.80665759998374,None,None,0,,,,,,,,,,,,,,107,23,Female,2022-05-02_09h50.28.059,Parachute,2022.1.1,59.973827417916326,
negative,yellow,1,k,None,,,,,1,0,20,0,,,,,,,,,,,,,,,,,,,,,,,,,,,,,,,,,,,,,,,,,prac,None,None,1,1.4936578999622725,169.18501449999167,None,None,1,,,,,,,,,,,,,,107,23,Female,2022-05-02_09h50.28.059,Parachute,2022.1.1,59.973827417916326,
positive,red,2,None,None,,,,,1,1,21,1,,,,,,,,,,,,,,,,,,,,,,,,,,,,,,,,,,,,,,,,,prac,None,None,1,1.49849039997207,171.67360710003413,None,None,1,,,,,,,,,,,,,,107,23,Female,2022-05-02_09h50.28.059,Parachute,2022.1.1,59.973827417916326,
negative,blue,2,None,k,,,,,1,2,22,2,,,,,,,,,,,,,,,,,,,,,,,,,,,,,,,,,,,,,,,,,prac,k,k,1,0.7203004999901168,174.17365559999598,None,None,0,,,,,,,,,,,,,,107,23,Female,2022-05-02_09h50.28.059,Parachute,2022.1.1,59.973827417916326,
positive,yellow,1,None,k,,,,,1,3,23,3,,,,,,,,,,,,,,,,,,,,,,,,,,,,,,,,,,,,,,,,,prac,k,k,1,0.8994943999568932,175.89429670001846,None,None,0,,,,,,,,,,,,,,107,23,Female,2022-05-02_09h50.28.059,Parachute,2022.1.1,59.973827417916326,
negative,blue,2,None,k,,,,,1,4,24,4,,,,,,,,,,,,,,,,,,,,,,,,,,,,,,,,,,,,,,,,,prac,k,k,1,1.2814330999972299,177.79378950002138,None,None,0,,,,,,,,,,,,,,107,23,Female,2022-05-02_09h50.28.059,Parachute,2022.1.1,59.973827417916326,
negative,blue,1,None,k,,,,,1,5,25,5,,,,,,,,,,,,,,,,,,,,,,,,,,,,,,,,,,,,,,,,,prac,k,k,1,1.5486644000047818,180.07661029999144,None,None,0,,,,,,,,,,,,,,107,23,Female,2022-05-02_09h50.28.059,Parachute,2022.1.1,59.973827417916326,
negative,yellow,2,k,None,,,,,1,6,26,6,,,,,,,,,,,,,,,,,,,,,,,,,,,,,,,,,,,,,,,,,prac,None,None,1,1.503319300012663,183.63788829999976,None,None,1,,,,,,,,,,,,,,107,23,Female,2022-05-02_09h50.28.059,Parachute,2022.1.1,59.973827417916326,
negative,red,1,None,None,,,,,1,7,27,7,,,,,,,,,,,,,,,,,,,,,,,,,,,,,,,,,,,,,,,,,prac,None,None,1,1.4982083999784663,186.14244160003727,None,None,1,,,,,,,,,,,,,,107,23,Female,2022-05-02_09h50.28.059,Parachute,2022.1.1,59.973827417916326,
positive,yellow,2,None,k,,,,,1,8,28,8,,,,,,,,,,,,,,,,,,,,,,,,,,,,,,,,,,,,,,,,,prac,k,k,1,0.9196258999872953,188.64250120002544,None,None,0,,,,,,,,,,,,,,107,23,Female,2022-05-02_09h50.28.059,Parachute,2022.1.1,59.973827417916326,
negative,yellow,1,k,None,,,,,1,9,29,9,,,,,,,,,,,,,,,,,,,,,,,,,,,,,,,,,,,,,,,,,prac,None,None,1,1.4934377000317909,190.56049970001914,None,None,1,,,,,,,,,,,,,,107,23,Female,2022-05-02_09h50.28.059,Parachute,2022.1.1,59.973827417916326,
positive,yellow,2,None,k,,,,,1,10,30,10,,,,,,,,,,,,,,,,,,,,,,,,,,,,,,,,,,,,,,,,,prac,k,k,1,0.7700800000457093,193.0574207000318,None,None,0,,,,,,,,,,,,,,107,23,Female,2022-05-02_09h50.28.059,Parachute,2022.1.1,59.973827417916326,
negative,yellow,2,k,None,,,,,1,11,31,11,,,,,,,,,,,,,,,,,,,,,,,,,,,,,,,,,,,,,,,,,prac,None,None,1,1.4935798000078648,194.826761000033,None,None,1,,,,,,,,,,,,,,107,23,Female,2022-05-02_09h50.28.059,Parachute,2022.1.1,59.973827417916326,
negative,red,2,None,None,,,,,1,12,32,12,,,,,,,,,,,,,,,,,,,,,,,,,,,,,,,,,,,,,,,,,prac,None,None,1,1.498589099966921,197.3250257000327,None,None,1,,,,,,,,,,,,,,107,23,Female,2022-05-02_09h50.28.059,Parachute,2022.1.1,59.973827417916326,
positive,red,1,None,None,,,,,1,13,33,13,,,,,,,,,,,,,,,,,,,,,,,,,,,,,,,,,,,,,,,,,prac,None,None,1,1.4990752000012435,199.82470870000543,None,None,1,,,,,,,,,,,,,,107,23,Female,2022-05-02_09h50.28.059,Parachute,2022.1.1,59.973827417916326,
positive,blue,2,k,None,,,,,1,14,34,14,,,,,,,,,,,,,,,,,,,,,,,,,,,,,,,,,,,,,,,,,prac,None,k,0,0.7697700999560766,202.32485740003176,None,None,1,,,,,,,,,,,,,,107,23,Female,2022-05-02_09h50.28.059,Parachute,2022.1.1,59.973827417916326,
positive,blue,1,k,None,,,,,1,15,35,15,,,,,,,,,,,,,,,,,,,,,,,,,,,,,,,,,,,,,,,,,prac,None,None,1,1.5016599000082351,205.10515349998605,None,None,1,,,,,,,,,,,,,,107,23,Female,2022-05-02_09h50.28.059,Parachute,2022.1.1,59.973827417916326,
negative,blue,1,None,k,,,,,1,16,36,16,,,,,,,,,,,,,,,,,,,,,,,,,,,,,,,,,,,,,,,,,prac,k,k,1,0.7541311999666505,207.60774280002806,None,None,0,,,,,,,,,,,,,,107,23,Female,2022-05-02_09h50.28.059,Parachute,2022.1.1,59.973827417916326,
positive,blue,2,k,None,,,,,1,17,37,17,,,,,,,,,,,,,,,,,,,,,,,,,,,,,,,,,,,,,,,,,prac,None,None,1,1.4929441999993287,209.36103030003142,None,None,1,,,,,,,,,,,,,,107,23,Female,2022-05-02_09h50.28.059,Parachute,2022.1.1,59.973827417916326,
positive,blue,1,k,None,,,,,1,18,38,18,,,,,,,,,,,,,,,,,,,,,,,,,,,,,,,,,,,,,,,,,prac,None,None,1,1.4989738000440411,211.85697780002374,None,None,1,,,,,,,,,,,,,,107,23,Female,2022-05-02_09h50.28.059,Parachute,2022.1.1,59.973827417916326,
positive,yellow,1,None,k,,,,,1,19,39,19,,,,,,,,,,,,,,,,,,,,,,,,,,,,,,,,,,,,,,,,,prac,k,k,1,0.8372793999733403,214.35725870000897,None,None,0,,,,,,,,,,,,,,107,23,Female,2022-05-02_09h50.28.059,Parachute,2022.1.1,59.973827417916326,
,,,,,,,,,,,,,,,,,,,,,,,,,,,,,,,,,,,,,,,,,,,,,,,,,,,,,,,,,,,,,,216.22677140001906,None,216.22677140001906,None,0.035185184,-0.06759259,0,0,0,0.012730690010357648,None,,,107,23,Female,2022-05-02_09h50.28.059,Parachute,2022.1.1,59.973827417916326,
negative,yellow,2,k,None,,,,,,,,,0,0,0,0,,,,,,,,,,,,,,,,,,,,,,,,,,,,,,,,,217.739757000003,None,217.739757000003,None,main,None,None,1,1.5073060999857262,219.79585090000182,None,None,1,,,,,,,,,,,,,,107,23,Female,2022-05-02_09h50.28.059,Parachute,2022.1.1,59.973827417916326,
positive,red,1,None,None,,,,,,,,,0,1,1,1,,,,,,,,,,,,,,,,,,,,,,,,,,,,,,,,,,,,,main,None,None,1,1.4983072999748401,222.30824520002352,None,None,1,,,,,,,,,,,,,,107,23,Female,2022-05-02_09h50.28.059,Parachute,2022.1.1,59.973827417916326,
positive,blue,2,k,None,,,,,,,,,0,2,2,2,,,,,,,,,,,,,,,,,,,,,,,,,,,,,,,,,,,,,main,None,None,1,1.499340599984862,224.8078158000135,None,None,1,,,,,,,,,,,,,,107,23,Female,2022-05-02_09h50.28.059,Parachute,2022.1.1,59.973827417916326,
positive,blue,1,k,None,,,,,,,,,0,3,3,3,,,,,,,,,,,,,,,,,,,,,,,,,,,,,,,,,,,,,main,None,None,1,1.4982636999920942,227.30845459998818,None,None,1,,,,,,,,,,,,,,107,23,Female,2022-05-02_09h50.28.059,Parachute,2022.1.1,59.973827417916326,
negative,yellow,2,k,None,,,,,,,,,0,4,4,4,,,,,,,,,,,,,,,,,,,,,,,,,,,,,,,,,,,,,main,None,None,1,1.498644899984356,229.80773830000544,None,None,1,,,,,,,,,,,,,,107,23,Female,2022-05-02_09h50.28.059,Parachute,2022.1.1,59.973827417916326,
positive,yellow,2,None,k,,,,,,,,,0,5,5,5,,,,,,,,,,,,,,,,,,,,,,,,,,,,,,,,,,,,,main,k,k,1,0.7713130999472924,232.30749010003638,None,None,0,,,,,,,,,,,,,,107,23,Female,2022-05-02_09h50.28.059,Parachute,2022.1.1,59.973827417916326,
negative,blue,2,None,k,,,,,,,,,0,6,6,6,,,,,,,,,,,,,,,,,,,,,,,,,,,,,,,,,,,,,main,k,k,1,0.9480980000225827,234.0777297000168,None,None,0,,,,,,,,,,,,,,107,23,Female,2022-05-02_09h50.28.059,Parachute,2022.1.1,59.973827417916326,
positive,red,2,None,None,,,,,,,,,0,7,7,7,,,,,,,,,,,,,,,,,,,,,,,,,,,,,,,,,,,,,main,None,None,1,1.493787799961865,236.02792130003218,None,None,1,,,,,,,,,,,,,,107,23,Female,2022-05-02_09h50.28.059,Parachute,2022.1.1,59.973827417916326,
positive,yellow,1,None,k,,,,,,,,,0,8,8,8,,,,,,,,,,,,,,,,,,,,,,,,,,,,,,,,,,,,,main,k,k,1,0.7876359000219963,238.52486820000922,None,None,0,,,,,,,,,,,,,,107,23,Female,2022-05-02_09h50.28.059,Parachute,2022.1.1,59.973827417916326,
negative,red,1,None,None,,,,,,,,,0,9,9,9,,,,,,,,,,,,,,,,,,,,,,,,,,,,,,,,,,,,,main,None,None,1,1.4932757000206038,240.31120629998622,None,None,1,,,,,,,,,,,,,,107,23,Female,2022-05-02_09h50.28.059,Parachute,2022.1.1,59.973827417916326,
positive,yellow,1,None,k,,,,,,,,,0,10,10,10,,,,,,,,,,,,,,,,,,,,,,,,,,,,,,,,,,,,,main,k,k,1,0.7867113999673165,242.80851569998777,None,None,0,,,,,,,,,,,,,,107,23,Female,2022-05-02_09h50.28.059,Parachute,2022.1.1,59.973827417916326,
negative,yellow,1,k,None,,,,,,,,,0,11,11,11,,,,,,,,,,,,,,,,,,,,,,,,,,,,,,,,,,,,,main,None,None,1,1.4936414999538101,244.59508440003265,None,None,1,,,,,,,,,,,,,,107,23,Female,2022-05-02_09h50.28.059,Parachute,2022.1.1,59.973827417916326,
negative,yellow,1,k,None,,,,,,,,,0,12,12,12,,,,,,,,,,,,,,,,,,,,,,,,,,,,,,,,,,,,,main,None,None,1,1.4987795000197366,247.09153670002706,None,None,1,,,,,,,,,,,,,,107,23,Female,2022-05-02_09h50.28.059,Parachute,2022.1.1,59.973827417916326,
negative,red,2,None,None,,,,,,,,,0,13,13,13,,,,,,,,,,,,,,,,,,,,,,,,,,,,,,,,,,,,,main,None,None,1,1.4985513999708928,249.59202360000927,None,None,1,,,,,,,,,,,,,,107,23,Female,2022-05-02_09h50.28.059,Parachute,2022.1.1,59.973827417916326,
positive,yellow,2,None,k,,,,,,,,,0,14,14,14,,,,,,,,,,,,,,,,,,,,,,,,,,,,,,,,,,,,,main,k,k,1,0.7723348999861628,252.09116230002837,None,None,0,,,,,,,,,,,,,,107,23,Female,2022-05-02_09h50.28.059,Parachute,2022.1.1,59.973827417916326,
positive,blue,1,k,None,,,,,,,,,0,15,15,15,,,,,,,,,,,,,,,,,,,,,,,,,,,,,,,,,,,,,main,None,None,1,1.5080694000353105,253.86300070001744,None,None,1,,,,,,,,,,,,,,107,23,Female,2022-05-02_09h50.28.059,Parachute,2022.1.1,59.973827417916326,
negative,blue,1,None,k,,,,,,,,,0,16,16,16,,,,,,,,,,,,,,,,,,,,,,,,,,,,,,,,,,,,,main,k,k,1,1.1708795999875292,256.3747032000101,None,None,0,,,,,,,,,,,,,,107,23,Female,2022-05-02_09h50.28.059,Parachute,2022.1.1,59.973827417916326,
positive,blue,2,k,None,,,,,,,,,0,17,17,17,,,,,,,,,,,,,,,,,,,,,,,,,,,,,,,,,,,,,main,None,None,1,1.493949799973052,258.54477760003647,None,None,1,,,,,,,,,,,,,,107,23,Female,2022-05-02_09h50.28.059,Parachute,2022.1.1,59.973827417916326,
negative,blue,2,None,k,,,,,,,,,0,18,18,18,,,,,,,,,,,,,,,,,,,,,,,,,,,,,,,,,,,,,main,k,k,1,1.0035563000128604,261.0419613000122,None,None,0,,,,,,,,,,,,,,107,23,Female,2022-05-02_09h50.28.059,Parachute,2022.1.1,59.973827417916326,
negative,blue,1,None,k,,,,,,,,,0,19,19,19,,,,,,,,,,,,,,,,,,,,,,,,,,,,,,,,,,,,,main,k,k,1,0.8821214000345208,263.04499680001754,None,None,0,,,,,,,,,,,,,,107,23,Female,2022-05-02_09h50.28.059,Parachute,2022.1.1,59.973827417916326,
negative,blue,1,None,k,,,,,,,,,0,20,20,20,,,,,,,,,,,,,,,,,,,,,,,,,,,,,,,,,,,,,main,k,k,1,0.8650954999611713,264.92878409998957,None,None,0,,,,,,,,,,,,,,107,23,Female,2022-05-02_09h50.28.059,Parachute,2022.1.1,59.973827417916326,
negative,blue,2,None,k,,,,,,,,,0,21,21,21,,,,,,,,,,,,,,,,,,,,,,,,,,,,,,,,,,,,,main,k,k,1,0.932300699991174,266.7952319000033,None,None,0,,,,,,,,,,,,,,107,23,Female,2022-05-02_09h50.28.059,Parachute,2022.1.1,59.973827417916326,
negative,red,1,None,None,,,,,,,,,0,22,22,22,,,,,,,,,,,,,,,,,,,,,,,,,,,,,,,,,,,,,main,None,None,1,1.4926010000053793,268.7284024999826,None,None,1,,,,,,,,,,,,,,107,23,Female,2022-05-02_09h50.28.059,Parachute,2022.1.1,59.973827417916326,
positive,red,2,None,None,,,,,,,,,0,23,23,23,,,,,,,,,,,,,,,,,,,,,,,,,,,,,,,,,,,,,main,None,None,1,1.499195700045675,271.2244351999834,None,None,1,,,,,,,,,,,,,,107,23,Female,2022-05-02_09h50.28.059,Parachute,2022.1.1,59.973827417916326,
negative,red,2,None,None,,,,,,,,,0,24,24,24,,,,,,,,,,,,,,,,,,,,,,,,,,,,,,,,,,,,,main,None,None,1,1.498455599998124,273.7248754000175,None,None,1,,,,,,,,,,,,,,107,23,Female,2022-05-02_09h50.28.059,Parachute,2022.1.1,59.973827417916326,
positive,blue,2,k,None,,,,,,,,,0,25,25,25,,,,,,,,,,,,,,,,,,,,,,,,,,,,,,,,,,,,,main,None,None,1,1.4991462000180036,276.22458179999376,None,None,1,,,,,,,,,,,,,,107,23,Female,2022-05-02_09h50.28.059,Parachute,2022.1.1,59.973827417916326,
negative,yellow,1,k,None,,,,,,,,,0,26,26,26,,,,,,,,,,,,,,,,,,,,,,,,,,,,,,,,,,,,,main,None,None,1,1.4985766999889165,278.7255673999898,None,None,1,,,,,,,,,,,,,,107,23,Female,2022-05-02_09h50.28.059,Parachute,2022.1.1,59.973827417916326,
positive,blue,2,k,None,,,,,,,,,0,27,27,27,,,,,,,,,,,,,,,,,,,,,,,,,,,,,,,,,,,,,main,None,None,1,1.498990899999626,281.2252225999837,None,None,1,,,,,,,,,,,,,,107,23,Female,2022-05-02_09h50.28.059,Parachute,2022.1.1,59.973827417916326,
negative,blue,2,None,k,,,,,,,,,0,28,28,28,,,,,,,,,,,,,,,,,,,,,,,,,,,,,,,,,,,,,main,k,k,1,1.1205393999698572,283.72542060003616,None,None,0,,,,,,,,,,,,,,107,23,Female,2022-05-02_09h50.28.059,Parachute,2022.1.1,59.973827417916326,
positive,red,1,None,None,,,,,,,,,0,29,29,29,,,,,,,,,,,,,,,,,,,,,,,,,,,,,,,,,,,,,main,None,None,1,1.49350380001124,285.84547609998845,None,None,1,,,,,,,,,,,,,,107,23,Female,2022-05-02_09h50.28.059,Parachute,2022.1.1,59.973827417916326,
positive,blue,1,k,None,,,,,,,,,0,30,30,30,,,,,,,,,,,,,,,,,,,,,,,,,,,,,,,,,,,,,main,None,None,1,1.499066499993205,288.3422025000327,None,None,1,,,,,,,,,,,,,,107,23,Female,2022-05-02_09h50.28.059,Parachute,2022.1.1,59.973827417916326,
positive,yellow,1,None,k,,,,,,,,,0,31,31,31,,,,,,,,,,,,,,,,,,,,,,,,,,,,,,,,,,,,,main,k,k,1,1.0209451999980956,290.8424806999974,None,None,0,,,,,,,,,,,,,,107,23,Female,2022-05-02_09h50.28.059,Parachute,2022.1.1,59.973827417916326,
negative,yellow,2,k,None,,,,,,,,,0,32,32,32,,,,,,,,,,,,,,,,,,,,,,,,,,,,,,,,,,,,,main,None,None,1,1.4932193999993615,292.86231629998656,None,None,1,,,,,,,,,,,,,,107,23,Female,2022-05-02_09h50.28.059,Parachute,2022.1.1,59.973827417916326,
negative,blue,1,None,k,,,,,,,,,0,33,33,33,,,,,,,,,,,,,,,,,,,,,,,,,,,,,,,,,,,,,main,k,k,1,0.8371004000073299,295.35918420000235,None,None,0,,,,,,,,,,,,,,107,23,Female,2022-05-02_09h50.28.059,Parachute,2022.1.1,59.973827417916326,
positive,blue,1,k,None,,,,,,,,,0,34,34,34,,,,,,,,,,,,,,,,,,,,,,,,,,,,,,,,,,,,,main,None,None,1,1.4939443999901414,297.19578509998973,None,None,1,,,,,,,,,,,,,,107,23,Female,2022-05-02_09h50.28.059,Parachute,2022.1.1,59.973827417916326,
negative,yellow,1,k,None,,,,,,,,,0,35,35,35,,,,,,,,,,,,,,,,,,,,,,,,,,,,,,,,,,,,,main,None,None,1,1.4991954000433907,299.6933183000074,None,None,1,,,,,,,,,,,,,,107,23,Female,2022-05-02_09h50.28.059,Parachute,2022.1.1,59.973827417916326,
positive,yellow,2,None,k,,,,,,,,,0,36,36,36,,,,,,,,,,,,,,,,,,,,,,,,,,,,,,,,,,,,,main,k,k,1,0.9710349999950267,302.1930719999946,None,None,0,,,,,,,,,,,,,,107,23,Female,2022-05-02_09h50.28.059,Parachute,2022.1.1,59.973827417916326,
positive,yellow,2,None,k,,,,,,,,,0,37,37,37,,,,,,,,,,,,,,,,,,,,,,,,,,,,,,,,,,,,,main,k,k,1,1.163903099950403,304.1642133999849,None,None,0,,,,,,,,,,,,,,107,23,Female,2022-05-02_09h50.28.059,Parachute,2022.1.1,59.973827417916326,
negative,yellow,2,k,None,,,,,,,,,0,38,38,38,,,,,,,,,,,,,,,,,,,,,,,,,,,,,,,,,,,,,main,None,None,1,1.493619500019122,306.32892120000906,None,None,1,,,,,,,,,,,,,,107,23,Female,2022-05-02_09h50.28.059,Parachute,2022.1.1,59.973827417916326,
positive,yellow,1,None,k,,,,,,,,,0,39,39,39,,,,,,,,,,,,,,,,,,,,,,,,,,,,,,,,,,,,,main,k,k,1,0.8385235000168905,308.8259163000039,None,None,0,,,,,,,,,,,,,,107,23,Female,2022-05-02_09h50.28.059,Parachute,2022.1.1,59.973827417916326,
negative,yellow,2,k,None,,,,,,,,,0,40,40,40,,,,,,,,,,,,,,,,,,,,,,,,,,,,,,,,,,,,,main,None,None,1,1.5090867000399157,310.66422480001347,None,None,1,,,,,,,,,,,,,,107,23,Female,2022-05-02_09h50.28.059,Parachute,2022.1.1,59.973827417916326,
positive,blue,2,k,None,,,,,,,,,0,41,41,41,,,,,,,,,,,,,,,,,,,,,,,,,,,,,,,,,,,,,main,None,None,1,1.4981596999568865,313.17607839999255,None,None,1,,,,,,,,,,,,,,107,23,Female,2022-05-02_09h50.28.059,Parachute,2022.1.1,59.973827417916326,
positive,blue,2,k,None,,,,,,,,,0,42,42,42,,,,,,,,,,,,,,,,,,,,,,,,,,,,,,,,,,,,,main,None,None,1,1.4991028999793343,315.6756548000267,None,None,1,,,,,,,,,,,,,,107,23,Female,2022-05-02_09h50.28.059,Parachute,2022.1.1,59.973827417916326,
negative,blue,2,None,k,,,,,,,,,0,43,43,43,,,,,,,,,,,,,,,,,,,,,,,,,,,,,,,,,,,,,main,k,k,1,1.0040662999963388,318.1761212000274,None,None,0,,,,,,,,,,,,,,107,23,Female,2022-05-02_09h50.28.059,Parachute,2022.1.1,59.973827417916326,
negative,red,1,None,None,,,,,,,,,0,44,44,44,,,,,,,,,,,,,,,,,,,,,,,,,,,,,,,,,,,,,main,None,None,1,1.4933224000269547,320.1796481999918,None,None,1,,,,,,,,,,,,,,107,23,Female,2022-05-02_09h50.28.059,Parachute,2022.1.1,59.973827417916326,
negative,yellow,1,k,None,,,,,,,,,0,45,45,45,,,,,,,,,,,,,,,,,,,,,,,,,,,,,,,,,,,,,main,None,None,1,1.4989630000200123,322.6762255000067,None,None,1,,,,,,,,,,,,,,107,23,Female,2022-05-02_09h50.28.059,Parachute,2022.1.1,59.973827417916326,
negative,yellow,1,k,None,,,,,,,,,0,46,46,46,,,,,,,,,,,,,,,,,,,,,,,,,,,,,,,,,,,,,main,None,None,1,1.4983283000183292,325.1766335000284,None,None,1,,,,,,,,,,,,,,107,23,Female,2022-05-02_09h50.28.059,Parachute,2022.1.1,59.973827417916326,
positive,red,1,None,None,,,,,,,,,0,47,47,47,,,,,,,,,,,,,,,,,,,,,,,,,,,,,,,,,,,,,main,None,None,1,1.4987002999987453,327.6761786999996,None,None,1,,,,,,,,,,,,,,107,23,Female,2022-05-02_09h50.28.059,Parachute,2022.1.1,59.973827417916326,
positive,yellow,1,None,k,,,,,,,,,0,48,48,48,,,,,,,,,,,,,,,,,,,,,,,,,,,,,,,,,,,,,main,k,k,1,0.9203640999621712,330.1763254000107,None,None,0,,,,,,,,,,,,,,107,23,Female,2022-05-02_09h50.28.059,Parachute,2022.1.1,59.973827417916326,
negative,blue,1,None,k,,,,,,,,,0,49,49,49,,,,,,,,,,,,,,,,,,,,,,,,,,,,,,,,,,,,,main,k,k,1,0.8821751999785192,332.0961663000053,None,None,0,,,,,,,,,,,,,,107,23,Female,2022-05-02_09h50.28.059,Parachute,2022.1.1,59.973827417916326,
positive,yellow,2,None,k,,,,,,,,,0,50,50,50,,,,,,,,,,,,,,,,,,,,,,,,,,,,,,,,,,,,,main,k,k,1,0.8823751999880187,333.979567900009,None,None,0,,,,,,,,,,,,,,107,23,Female,2022-05-02_09h50.28.059,Parachute,2022.1.1,59.973827417916326,
negative,blue,1,None,k,,,,,,,,,0,51,51,51,,,,,,,,,,,,,,,,,,,,,,,,,,,,,,,,,,,,,main,k,k,1,1.048605400021188,335.8631853000261,None,None,0,,,,,,,,,,,,,,107,23,Female,2022-05-02_09h50.28.059,Parachute,2022.1.1,59.973827417916326,
positive,red,2,None,None,,,,,,,,,0,52,52,52,,,,,,,,,,,,,,,,,,,,,,,,,,,,,,,,,,,,,main,None,None,1,1.4937423000228591,337.91286139999283,None,None,1,,,,,,,,,,,,,,107,23,Female,2022-05-02_09h50.28.059,Parachute,2022.1.1,59.973827417916326,
positive,yellow,2,None,k,,,,,,,,,0,53,53,53,,,,,,,,,,,,,,,,,,,,,,,,,,,,,,,,,,,,,main,k,k,1,0.7367970999912359,340.4106208999874,None,None,0,,,,,,,,,,,,,,107,23,Female,2022-05-02_09h50.28.059,Parachute,2022.1.1,59.973827417916326,
negative,red,2,None,None,,,,,,,,,0,54,54,54,,,,,,,,,,,,,,,,,,,,,,,,,,,,,,,,,,,,,main,None,None,1,1.4941359999938868,342.146210899984,None,None,1,,,,,,,,,,,,,,107,23,Female,2022-05-02_09h50.28.059,Parachute,2022.1.1,59.973827417916326,
positive,yellow,1,None,k,,,,,,,,,0,55,55,55,,,,,,,,,,,,,,,,,,,,,,,,,,,,,,,,,,,,,main,k,k,1,0.7352725000237115,344.6449336000369,None,None,0,,,,,,,,,,,,,,107,23,Female,2022-05-02_09h50.28.059,Parachute,2022.1.1,59.973827417916326,
negative,blue,2,None,k,,,,,,,,,0,56,56,56,,,,,,,,,,,,,,,,,,,,,,,,,,,,,,,,,,,,,main,k,k,1,1.016841900011059,346.3883586000302,None,None,0,,,,,,,,,,,,,,107,23,Female,2022-05-02_09h50.28.059,Parachute,2022.1.1,59.973827417916326,
positive,blue,1,k,None,,,,,,,,,0,57,57,57,,,,,,,,,,,,,,,,,,,,,,,,,,,,,,,,,,,,,main,None,None,1,1.4939457000000402,348.3969548000023,None,None,1,,,,,,,,,,,,,,107,23,Female,2022-05-02_09h50.28.059,Parachute,2022.1.1,59.973827417916326,
positive,blue,1,k,None,,,,,,,,,0,58,58,58,,,,,,,,,,,,,,,,,,,,,,,,,,,,,,,,,,,,,main,None,None,1,1.4982807000051253,350.894009599986,None,None,1,,,,,,,,,,,,,,107,23,Female,2022-05-02_09h50.28.059,Parachute,2022.1.1,59.973827417916326,
negative,yellow,2,k,None,,,,,,,,,0,59,59,59,,,,,,,,,,,,,,,,,,,,,,,,,,,,,,,,,,,,,main,None,None,1,1.4988066999940202,353.3937628000276,None,None,1,,,,,,,,,,,,,,107,23,Female,2022-05-02_09h50.28.059,Parachute,2022.1.1,59.973827417916326,
positive,red,2,None,None,,,,,,,,,0,60,60,60,,,,,,,,,,,,,,,,,,,,,,,,,,,,,,,,,,,,,main,None,None,1,1.4989917000057176,355.8933794000186,None,None,1,,,,,,,,,,,,,,107,23,Female,2022-05-02_09h50.28.059,Parachute,2022.1.1,59.973827417916326,
negative,yellow,1,k,None,,,,,,,,,0,61,61,61,,,,,,,,,,,,,,,,,,,,,,,,,,,,,,,,,,,,,main,None,None,1,1.4980240000295453,358.3942581000156,None,None,1,,,,,,,,,,,,,,107,23,Female,2022-05-02_09h50.28.059,Parachute,2022.1.1,59.973827417916326,
negative,red,1,None,None,,,,,,,,,0,62,62,62,,,,,,,,,,,,,,,,,,,,,,,,,,,,,,,,,,,,,main,None,None,1,1.4993773000314832,360.89350240002386,None,None,1,,,,,,,,,,,,,,107,23,Female,2022-05-02_09h50.28.059,Parachute,2022.1.1,59.973827417916326,
negative,blue,1,None,k,,,,,,,,,0,63,63,63,,,,,,,,,,,,,,,,,,,,,,,,,,,,,,,,,,,,,main,k,k,1,1.0704772000317462,363.39424500003224,None,None,0,,,,,,,,,,,,,,107,23,Female,2022-05-02_09h50.28.059,Parachute,2022.1.1,59.973827417916326,
positive,blue,2,k,None,,,,,,,,,0,64,64,64,,,,,,,,,,,,,,,,,,,,,,,,,,,,,,,,,,,,,main,None,None,1,1.4927443999913521,365.4640771999839,None,None,1,,,,,,,,,,,,,,107,23,Female,2022-05-02_09h50.28.059,Parachute,2022.1.1,59.973827417916326,
negative,yellow,2,k,None,,,,,,,,,0,65,65,65,,,,,,,,,,,,,,,,,,,,,,,,,,,,,,,,,,,,,main,None,None,1,1.499010800034739,367.9602023999905,None,None,1,,,,,,,,,,,,,,107,23,Female,2022-05-02_09h50.28.059,Parachute,2022.1.1,59.973827417916326,
positive,yellow,2,None,k,,,,,,,,,0,66,66,66,,,,,,,,,,,,,,,,,,,,,,,,,,,,,,,,,,,,,main,k,k,1,0.8536232000333257,370.46107860002667,None,None,0,,,,,,,,,,,,,,107,23,Female,2022-05-02_09h50.28.059,Parachute,2022.1.1,59.973827417916326,
positive,yellow,2,None,k,,,,,,,,,0,67,67,67,,,,,,,,,,,,,,,,,,,,,,,,,,,,,,,,,,,,,main,k,k,1,0.7656136999721639,372.3143005000311,None,None,0,,,,,,,,,,,,,,107,23,Female,2022-05-02_09h50.28.059,Parachute,2022.1.1,59.973827417916326,
positive,red,1,None,None,,,,,,,,,0,68,68,68,,,,,,,,,,,,,,,,,,,,,,,,,,,,,,,,,,,,,main,None,None,1,1.4931785999797285,374.08100110001396,None,None,1,,,,,,,,,,,,,,107,23,Female,2022-05-02_09h50.28.059,Parachute,2022.1.1,59.973827417916326,
positive,yellow,1,None,k,,,,,,,,,0,69,69,69,,,,,,,,,,,,,,,,,,,,,,,,,,,,,,,,,,,,,main,k,k,1,0.8710901999729685,376.57742370001506,None,None,0,,,,,,,,,,,,,,107,23,Female,2022-05-02_09h50.28.059,Parachute,2022.1.1,59.973827417916326,
negative,yellow,2,k,None,,,,,,,,,0,70,70,70,,,,,,,,,,,,,,,,,,,,,,,,,,,,,,,,,,,,,main,None,None,1,1.493132899980992,378.4474398000166,None,None,1,,,,,,,,,,,,,,107,23,Female,2022-05-02_09h50.28.059,Parachute,2022.1.1,59.973827417916326,
positive,yellow,1,None,k,,,,,,,,,0,71,71,71,,,,,,,,,,,,,,,,,,,,,,,,,,,,,,,,,,,,,main,k,k,1,0.688163299986627,380.9435324000078,None,None,0,,,,,,,,,,,,,,107,23,Female,2022-05-02_09h50.28.059,Parachute,2022.1.1,59.973827417916326,
negative,blue,1,None,k,,,,,,,,,0,72,72,72,,,,,,,,,,,,,,,,,,,,,,,,,,,,,,,,,,,,,main,k,k,1,0.8996030000271276,382.6316627000342,None,None,0,,,,,,,,,,,,,,107,23,Female,2022-05-02_09h50.28.059,Parachute,2022.1.1,59.973827417916326,
negative,red,2,None,None,,,,,,,,,0,73,73,73,,,,,,,,,,,,,,,,,,,,,,,,,,,,,,,,,,,,,main,None,None,1,1.5086012000101618,384.53238530003,None,None,1,,,,,,,,,,,,,,107,23,Female,2022-05-02_09h50.28.059,Parachute,2022.1.1,59.973827417916326,
positive,blue,2,k,None,,,,,,,,,0,74,74,74,,,,,,,,,,,,,,,,,,,,,,,,,,,,,,,,,,,,,main,None,None,1,1.4986783000058495,387.0443808999844,None,None,1,,,,,,,,,,,,,,107,23,Female,2022-05-02_09h50.28.059,Parachute,2022.1.1,59.973827417916326,
negative,blue,2,None,k,,,,,,,,,0,75,75,75,,,,,,,,,,,,,,,,,,,,,,,,,,,,,,,,,,,,,main,k,k,1,0.903720100002829,389.5440066999872,None,None,0,,,,,,,,,,,,,,107,23,Female,2022-05-02_09h50.28.059,Parachute,2022.1.1,59.973827417916326,
negative,blue,2,None,k,,,,,,,,,0,76,76,76,,,,,,,,,,,,,,,,,,,,,,,,,,,,,,,,,,,,,main,k,k,1,0.8490761000430211,391.44770090002567,None,None,0,,,,,,,,,,,,,,107,23,Female,2022-05-02_09h50.28.059,Parachute,2022.1.1,59.973827417916326,
negative,yellow,1,k,None,,,,,,,,,0,77,77,77,,,,,,,,,,,,,,,,,,,,,,,,,,,,,,,,,,,,,main,None,None,1,1.493299899972044,393.298112199991,None,None,1,,,,,,,,,,,,,,107,23,Female,2022-05-02_09h50.28.059,Parachute,2022.1.1,59.973827417916326,
positive,blue,1,k,None,,,,,,,,,0,78,78,78,,,,,,,,,,,,,,,,,,,,,,,,,,,,,,,,,,,,,main,None,None,1,1.4985347000183538,395.79436470003566,None,None,1,,,,,,,,,,,,,,107,23,Female,2022-05-02_09h50.28.059,Parachute,2022.1.1,59.973827417916326,
positive,blue,1,k,None,,,,,,,,,0,79,79,79,,,,,,,,,,,,,,,,,,,,,,,,,,,,,,,,,,,,,main,None,None,1,1.498898999998346,398.29431560001103,None,None,1,,,,,,,,,,,,,,107,23,Female,2022-05-02_09h50.28.059,Parachute,2022.1.1,59.973827417916326,
positive,red,2,None,None,,,,,,,,,0,80,80,80,,,,,,,,,,,,,,,,,,,,,,,,,,,,,,,,,,,,,main,None,None,1,1.498628599976655,400.7945620000246,None,None,1,,,,,,,,,,,,,,107,23,Female,2022-05-02_09h50.28.059,Parachute,2022.1.1,59.973827417916326,
positive,yellow,2,None,k,,,,,,,,,0,81,81,81,,,,,,,,,,,,,,,,,,,,,,,,,,,,,,,,,,,,,main,k,k,1,1.5044975000200793,403.29438670002855,None,None,0,,,,,,,,,,,,,,107,23,Female,2022-05-02_09h50.28.059,Parachute,2022.1.1,59.973827417916326,
positive,blue,1,k,None,,,,,,,,,0,82,82,82,,,,,,,,,,,,,,,,,,,,,,,,,,,,,,,,,,,,,main,None,None,1,1.501836400013417,406.8092510999995,None,None,1,,,,,,,,,,,,,,107,23,Female,2022-05-02_09h50.28.059,Parachute,2022.1.1,59.973827417916326,
negative,yellow,2,k,None,,,,,,,,,0,83,83,83,,,,,,,,,,,,,,,,,,,,,,,,,,,,,,,,,,,,,main,None,None,1,1.4986012000008486,409.31180570001015,None,None,1,,,,,,,,,,,,,,107,23,Female,2022-05-02_09h50.28.059,Parachute,2022.1.1,59.973827417916326,
positive,blue,2,k,None,,,,,,,,,0,84,84,84,,,,,,,,,,,,,,,,,,,,,,,,,,,,,,,,,,,,,main,None,None,1,1.498073499999009,411.81215680000605,None,None,1,,,,,,,,,,,,,,107,23,Female,2022-05-02_09h50.28.059,Parachute,2022.1.1,59.973827417916326,
positive,yellow,1,None,k,,,,,,,,,0,85,85,85,,,,,,,,,,,,,,,,,,,,,,,,,,,,,,,,,,,,,main,k,k,1,0.904458999983035,414.31171670003096,None,None,0,,,,,,,,,,,,,,107,23,Female,2022-05-02_09h50.28.059,Parachute,2022.1.1,59.973827417916326,
positive,blue,2,k,None,,,,,,,,,0,86,86,86,,,,,,,,,,,,,,,,,,,,,,,,,,,,,,,,,,,,,main,None,None,1,1.492886499967426,416.21531729999697,None,None,1,,,,,,,,,,,,,,107,23,Female,2022-05-02_09h50.28.059,Parachute,2022.1.1,59.973827417916326,
positive,blue,1,k,None,,,,,,,,,0,87,87,87,,,,,,,,,,,,,,,,,,,,,,,,,,,,,,,,,,,,,main,None,None,1,1.4990607999498025,418.71091359999264,None,None,1,,,,,,,,,,,,,,107,23,Female,2022-05-02_09h50.28.059,Parachute,2022.1.1,59.973827417916326,
negative,yellow,2,k,None,,,,,,,,,0,88,88,88,,,,,,,,,,,,,,,,,,,,,,,,,,,,,,,,,,,,,main,None,None,1,1.4987493000226095,421.21162319998257,None,None,1,,,,,,,,,,,,,,107,23,Female,2022-05-02_09h50.28.059,Parachute,2022.1.1,59.973827417916326,
negative,blue,2,None,k,,,,,,,,,0,89,89,89,,,,,,,,,,,,,,,,,,,,,,,,,,,,,,,,,,,,,main,k,k,1,1.552642399969045,423.7115360000171,None,None,0,,,,,,,,,,,,,,107,23,Female,2022-05-02_09h50.28.059,Parachute,2022.1.1,59.973827417916326,
positive,yellow,2,None,k,,,,,,,,,0,90,90,90,,,,,,,,,,,,,,,,,,,,,,,,,,,,,,,,,,,,,main,k,k,1,0.7069305999903008,427.27632430003723,None,None,0,,,,,,,,,,,,,,107,23,Female,2022-05-02_09h50.28.059,Parachute,2022.1.1,59.973827417916326,
negative,yellow,1,k,None,,,,,,,,,0,91,91,91,,,,,,,,,,,,,,,,,,,,,,,,,,,,,,,,,,,,,main,None,None,1,1.4929935000254773,428.9822532000253,None,None,1,,,,,,,,,,,,,,107,23,Female,2022-05-02_09h50.28.059,Parachute,2022.1.1,59.973827417916326,
negative,red,2,None,None,,,,,,,,,0,92,92,92,,,,,,,,,,,,,,,,,,,,,,,,,,,,,,,,,,,,,main,None,None,1,1.4991381000145338,431.4784549000324,None,None,1,,,,,,,,,,,,,,107,23,Female,2022-05-02_09h50.28.059,Parachute,2022.1.1,59.973827417916326,
negative,blue,2,None,k,,,,,,,,,0,93,93,93,,,,,,,,,,,,,,,,,,,,,,,,,,,,,,,,,,,,,main,k,k,1,0.6037316999863833,433.9789343000157,None,None,0,,,,,,,,,,,,,,107,23,Female,2022-05-02_09h50.28.059,Parachute,2022.1.1,59.973827417916326,
negative,blue,1,None,k,,,,,,,,,0,94,94,94,,,,,,,,,,,,,,,,,,,,,,,,,,,,,,,,,,,,,main,k,k,1,0.664645999961067,435.58163219998823,None,None,0,,,,,,,,,,,,,,107,23,Female,2022-05-02_09h50.28.059,Parachute,2022.1.1,59.973827417916326,
negative,blue,1,None,k,,,,,,,,,0,95,95,95,,,,,,,,,,,,,,,,,,,,,,,,,,,,,,,,,,,,,main,k,k,1,0.6325902999960817,437.24830730003305,None,None,0,,,,,,,,,,,,,,107,23,Female,2022-05-02_09h50.28.059,Parachute,2022.1.1,59.973827417916326,
negative,red,1,None,None,,,,,,,,,0,96,96,96,,,,,,,,,,,,,,,,,,,,,,,,,,,,,,,,,,,,,main,None,None,1,1.4939975999877788,438.8820465999888,None,None,1,,,,,,,,,,,,,,107,23,Female,2022-05-02_09h50.28.059,Parachute,2022.1.1,59.973827417916326,
positive,yellow,1,None,k,,,,,,,,,0,97,97,97,,,,,,,,,,,,,,,,,,,,,,,,,,,,,,,,,,,,,main,k,k,1,0.7204687999910675,441.3796551999985,None,None,0,,,,,,,,,,,,,,107,23,Female,2022-05-02_09h50.28.059,Parachute,2022.1.1,59.973827417916326,
negative,yellow,1,k,None,,,,,,,,,0,98,98,98,,,,,,,,,,,,,,,,,,,,,,,,,,,,,,,,,,,,,main,None,None,1,1.4931554000359029,443.0989258000045,None,None,1,,,,,,,,,,,,,,107,23,Female,2022-05-02_09h50.28.059,Parachute,2022.1.1,59.973827417916326,
positive,red,1,None,None,,,,,,,,,0,99,99,99,,,,,,,,,,,,,,,,,,,,,,,,,,,,,,,,,,,,,main,None,None,1,1.4989735999843106,445.59524170000805,None,None,1,,,,,,,,,,,,,,107,23,Female,2022-05-02_09h50.28.059,Parachute,2022.1.1,59.973827417916326,
positive,blue,1,k,None,,,,,,,,,0,100,100,100,,,,,,,,,,,,,,,,,,,,,,,,,,,,,,,,,,,,,main,None,None,1,1.4988563999650069,448.09551700000884,None,None,1,,,,,,,,,,,,,,107,23,Female,2022-05-02_09h50.28.059,Parachute,2022.1.1,59.973827417916326,
negative,yellow,1,k,None,,,,,,,,,0,101,101,101,,,,,,,,,,,,,,,,,,,,,,,,,,,,,,,,,,,,,main,None,None,1,1.4982337999972515,450.5957694000099,None,None,1,,,,,,,,,,,,,,107,23,Female,2022-05-02_09h50.28.059,Parachute,2022.1.1,59.973827417916326,
negative,blue,2,None,k,,,,,,,,,0,102,102,102,,,,,,,,,,,,,,,,,,,,,,,,,,,,,,,,,,,,,main,k,k,1,0.904079100000672,453.095870500023,None,None,0,,,,,,,,,,,,,,107,23,Female,2022-05-02_09h50.28.059,Parachute,2022.1.1,59.973827417916326,
negative,yellow,2,k,None,,,,,,,,,0,103,103,103,,,,,,,,,,,,,,,,,,,,,,,,,,,,,,,,,,,,,main,None,None,1,1.4931569999898784,454.9985123000224,None,None,1,,,,,,,,,,,,,,107,23,Female,2022-05-02_09h50.28.059,Parachute,2022.1.1,59.973827417916326,
positive,yellow,2,None,k,,,,,,,,,0,104,104,104,,,,,,,,,,,,,,,,,,,,,,,,,,,,,,,,,,,,,main,k,k,1,0.7547733000246808,457.4949209000333,None,None,0,,,,,,,,,,,,,,107,23,Female,2022-05-02_09h50.28.059,Parachute,2022.1.1,59.973827417916326,
positive,blue,1,k,None,,,,,,,,,0,105,105,105,,,,,,,,,,,,,,,,,,,,,,,,,,,,,,,,,,,,,main,None,None,1,1.4928694000118412,459.24943150003674,None,None,1,,,,,,,,,,,,,,107,23,Female,2022-05-02_09h50.28.059,Parachute,2022.1.1,59.973827417916326,
positive,blue,2,k,None,,,,,,,,,0,106,106,106,,,,,,,,,,,,,,,,,,,,,,,,,,,,,,,,,,,,,main,None,None,1,1.498583199980203,461.7453562000301,None,None,1,,,,,,,,,,,,,,107,23,Female,2022-05-02_09h50.28.059,Parachute,2022.1.1,59.973827417916326,
negative,blue,1,None,k,,,,,,,,,0,107,107,107,,,,,,,,,,,,,,,,,,,,,,,,,,,,,,,,,,,,,main,k,k,1,0.6710047000087798,464.2450244000065,None,None,0,,,,,,,,,,,,,,107,23,Female,2022-05-02_09h50.28.059,Parachute,2022.1.1,59.973827417916326,
positive,yellow,2,None,k,,,,,,,,,0,108,108,108,,,,,,,,,,,,,,,,,,,,,,,,,,,,,,,,,,,,,main,k,k,1,0.7984992999699898,465.91553530003875,None,None,0,,,,,,,,,,,,,,107,23,Female,2022-05-02_09h50.28.059,Parachute,2022.1.1,59.973827417916326,
negative,yellow,1,k,None,,,,,,,,,0,109,109,109,,,,,,,,,,,,,,,,,,,,,,,,,,,,,,,,,,,,,main,None,None,1,1.493925400020089,467.7155369000393,None,None,1,,,,,,,,,,,,,,107,23,Female,2022-05-02_09h50.28.059,Parachute,2022.1.1,59.973827417916326,
negative,blue,2,None,k,,,,,,,,,0,110,110,110,,,,,,,,,,,,,,,,,,,,,,,,,,,,,,,,,,,,,main,k,k,1,1.053697299968917,470.21325299999444,None,None,0,,,,,,,,,,,,,,107,23,Female,2022-05-02_09h50.28.059,Parachute,2022.1.1,59.973827417916326,
positive,blue,2,k,None,,,,,,,,,0,111,111,111,,,,,,,,,,,,,,,,,,,,,,,,,,,,,,,,,,,,,main,None,None,1,1.4934630999923684,472.26698060001945,None,None,1,,,,,,,,,,,,,,107,23,Female,2022-05-02_09h50.28.059,Parachute,2022.1.1,59.973827417916326,
negative,blue,1,None,k,,,,,,,,,0,112,112,112,,,,,,,,,,,,,,,,,,,,,,,,,,,,,,,,,,,,,main,k,k,1,0.9539023999823257,474.76397259999067,None,None,0,,,,,,,,,,,,,,107,23,Female,2022-05-02_09h50.28.059,Parachute,2022.1.1,59.973827417916326,
positive,yellow,1,None,k,,,,,,,,,0,113,113,113,,,,,,,,,,,,,,,,,,,,,,,,,,,,,,,,,,,,,main,k,k,1,0.7151858000434004,476.715734300029,None,None,0,,,,,,,,,,,,,,107,23,Female,2022-05-02_09h50.28.059,Parachute,2022.1.1,59.973827417916326,
negative,red,1,None,None,,,,,,,,,0,114,114,114,,,,,,,,,,,,,,,,,,,,,,,,,,,,,,,,,,,,,main,None,None,1,1.493578499997966,478.4323985000374,None,None,1,,,,,,,,,,,,,,107,23,Female,2022-05-02_09h50.28.059,Parachute,2022.1.1,59.973827417916326,
positive,red,1,None,None,,,,,,,,,0,115,115,115,,,,,,,,,,,,,,,,,,,,,,,,,,,,,,,,,,,,,main,None,None,1,1.4990937000256963,480.92991559999064,None,None,1,,,,,,,,,,,,,,107,23,Female,2022-05-02_09h50.28.059,Parachute,2022.1.1,59.973827417916326,
negative,red,2,None,None,,,,,,,,,0,116,116,116,,,,,,,,,,,,,,,,,,,,,,,,,,,,,,,,,,,,,main,None,None,1,1.4982233000337146,483.4297859999933,None,None,1,,,,,,,,,,,,,,107,23,Female,2022-05-02_09h50.28.059,Parachute,2022.1.1,59.973827417916326,
negative,yellow,2,k,None,,,,,,,,,0,117,117,117,,,,,,,,,,,,,,,,,,,,,,,,,,,,,,,,,,,,,main,None,None,1,1.498929199995473,485.9292960999883,None,None,1,,,,,,,,,,,,,,107,23,Female,2022-05-02_09h50.28.059,Parachute,2022.1.1,59.973827417916326,
positive,yellow,1,None,k,,,,,,,,,0,118,118,118,,,,,,,,,,,,,,,,,,,,,,,,,,,,,,,,,,,,,main,k,k,1,0.6208004000363871,488.4298781999969,None,None,0,,,,,,,,,,,,,,107,23,Female,2022-05-02_09h50.28.059,Parachute,2022.1.1,59.973827417916326,
positive,red,2,None,None,,,,,,,,,0,119,119,119,,,,,,,,,,,,,,,,,,,,,,,,,,,,,,,,,,,,,main,None,None,1,1.4930357999983244,490.04934550001053,None,None,1,,,,,,,,,,,,,,107,23,Female,2022-05-02_09h50.28.059,Parachute,2022.1.1,59.973827417916326,
positive,blue,2,k,None,,,,,,,,,0,120,120,120,,,,,,,,,,,,,,,,,,,,,,,,,,,,,,,,,,,,,main,None,None,1,1.4993564000469632,492.5457912000129,None,None,1,,,,,,,,,,,,,,107,23,Female,2022-05-02_09h50.28.059,Parachute,2022.1.1,59.973827417916326,
negative,red,1,None,None,,,,,,,,,0,121,121,121,,,,,,,,,,,,,,,,,,,,,,,,,,,,,,,,,,,,,main,None,None,1,1.4983517000218853,495.04630129999714,None,None,1,,,,,,,,,,,,,,107,23,Female,2022-05-02_09h50.28.059,Parachute,2022.1.1,59.973827417916326,
positive,yellow,2,None,k,,,,,,,,,0,122,122,122,,,,,,,,,,,,,,,,,,,,,,,,,,,,,,,,,,,,,main,k,k,1,0.7125533000216819,497.5462547999923,None,None,0,,,,,,,,,,,,,,107,23,Female,2022-05-02_09h50.28.059,Parachute,2022.1.1,59.973827417916326,
negative,red,2,None,None,,,,,,,,,0,123,123,123,,,,,,,,,,,,,,,,,,,,,,,,,,,,,,,,,,,,,main,None,None,1,1.5017817000043578,499.2611142999958,None,None,1,,,,,,,,,,,,,,107,23,Female,2022-05-02_09h50.28.059,Parachute,2022.1.1,59.973827417916326,
negative,yellow,2,k,None,,,,,,,,,0,124,124,124,,,,,,,,,,,,,,,,,,,,,,,,,,,,,,,,,,,,,main,None,None,1,1.4984164999914356,501.76330719998805,None,None,1,,,,,,,,,,,,,,107,23,Female,2022-05-02_09h50.28.059,Parachute,2022.1.1,59.973827417916326,
positive,red,1,None,None,,,,,,,,,0,125,125,125,,,,,,,,,,,,,,,,,,,,,,,,,,,,,,,,,,,,,main,None,None,1,1.498776699998416,504.2635040000314,None,None,1,,,,,,,,,,,,,,107,23,Female,2022-05-02_09h50.28.059,Parachute,2022.1.1,59.973827417916326,
negative,blue,2,None,k,,,,,,,,,0,126,126,126,,,,,,,,,,,,,,,,,,,,,,,,,,,,,,,,,,,,,main,k,k,1,0.8038841999950819,506.7629637999926,None,None,0,,,,,,,,,,,,,,107,23,Female,2022-05-02_09h50.28.059,Parachute,2022.1.1,59.973827417916326,
negative,blue,1,None,k,,,,,,,,,0,127,127,127,,,,,,,,,,,,,,,,,,,,,,,,,,,,,,,,,,,,,main,k,k,1,1.2484568000072613,508.56644960003905,None,None,0,,,,,,,,,,,,,,107,23,Female,2022-05-02_09h50.28.059,Parachute,2022.1.1,59.973827417916326,
negative,yellow,1,k,None,,,,,,,,,0,128,128,128,,,,,,,,,,,,,,,,,,,,,,,,,,,,,,,,,,,,,main,None,None,1,1.493596499960404,510.8169101999956,None,None,1,,,,,,,,,,,,,,107,23,Female,2022-05-02_09h50.28.059,Parachute,2022.1.1,59.973827417916326,
negative,yellow,1,k,None,,,,,,,,,0,129,129,129,,,,,,,,,,,,,,,,,,,,,,,,,,,,,,,,,,,,,main,None,None,1,1.4990266000386328,513.3134849999915,None,None,1,,,,,,,,,,,,,,107,23,Female,2022-05-02_09h50.28.059,Parachute,2022.1.1,59.973827417916326,
positive,blue,1,k,None,,,,,,,,,0,130,130,130,,,,,,,,,,,,,,,,,,,,,,,,,,,,,,,,,,,,,main,None,None,1,1.498353799979668,515.8136678999872,None,None,1,,,,,,,,,,,,,,107,23,Female,2022-05-02_09h50.28.059,Parachute,2022.1.1,59.973827417916326,
negative,blue,1,None,k,,,,,,,,,0,131,131,131,,,,,,,,,,,,,,,,,,,,,,,,,,,,,,,,,,,,,main,k,k,1,1.570004000037443,518.3140510999947,None,None,0,,,,,,,,,,,,,,107,23,Female,2022-05-02_09h50.28.059,Parachute,2022.1.1,59.973827417916326,
negative,blue,2,None,k,,,,,,,,,0,132,132,132,,,,,,,,,,,,,,,,,,,,,,,,,,,,,,,,,,,,,main,k,k,1,0.6983815999701619,521.8948662999901,None,None,0,,,,,,,,,,,,,,107,23,Female,2022-05-02_09h50.28.059,Parachute,2022.1.1,59.973827417916326,
positive,blue,2,k,None,,,,,,,,,0,133,133,133,,,,,,,,,,,,,,,,,,,,,,,,,,,,,,,,,,,,,main,None,None,1,1.5016781000304036,523.5949670000118,None,None,1,,,,,,,,,,,,,,107,23,Female,2022-05-02_09h50.28.059,Parachute,2022.1.1,59.973827417916326,
positive,red,2,None,None,,,,,,,,,0,134,134,134,,,,,,,,,,,,,,,,,,,,,,,,,,,,,,,,,,,,,main,None,None,1,1.4989590999903157,526.0966972000315,None,None,1,,,,,,,,,,,,,,107,23,Female,2022-05-02_09h50.28.059,Parachute,2022.1.1,59.973827417916326,
negative,yellow,2,k,None,,,,,,,,,0,135,135,135,,,,,,,,,,,,,,,,,,,,,,,,,,,,,,,,,,,,,main,None,None,1,1.4987670999835245,528.5973068000167,None,None,1,,,,,,,,,,,,,,107,23,Female,2022-05-02_09h50.28.059,Parachute,2022.1.1,59.973827417916326,
positive,yellow,2,None,k,,,,,,,,,0,136,136,136,,,,,,,,,,,,,,,,,,,,,,,,,,,,,,,,,,,,,main,k,k,1,0.8038452999899164,531.0970995000098,None,None,0,,,,,,,,,,,,,,107,23,Female,2022-05-02_09h50.28.059,Parachute,2022.1.1,59.973827417916326,
positive,blue,1,k,None,,,,,,,,,0,137,137,137,,,,,,,,,,,,,,,,,,,,,,,,,,,,,,,,,,,,,main,None,None,1,1.4940869000274688,532.9000372000155,None,None,1,,,,,,,,,,,,,,107,23,Female,2022-05-02_09h50.28.059,Parachute,2022.1.1,59.973827417916326,
positive,yellow,1,None,k,,,,,,,,,0,138,138,138,,,,,,,,,,,,,,,,,,,,,,,,,,,,,,,,,,,,,main,k,k,1,0.8702832999988459,535.3981023000088,None,None,0,,,,,,,,,,,,,,107,23,Female,2022-05-02_09h50.28.059,Parachute,2022.1.1,59.973827417916326,
positive,yellow,1,None,k,,,,,,,,,0,139,139,139,,,,,,,,,,,,,,,,,,,,,,,,,,,,,,,,,,,,,main,k,k,1,0.7981548000243492,537.2670020000078,None,None,0,,,,,,,,,,,,,,107,23,Female,2022-05-02_09h50.28.059,Parachute,2022.1.1,59.973827417916326,
positive,yellow,1,None,k,,,,,,,,,0,140,140,140,,,,,,,,,,,,,,,,,,,,,,,,,,,,,,,,,,,,,main,k,k,1,0.7991944999666885,539.0671872000094,None,None,0,,,,,,,,,,,,,,107,23,Female,2022-05-02_09h50.28.059,Parachute,2022.1.1,59.973827417916326,
positive,blue,1,k,None,,,,,,,,,0,141,141,141,,,,,,,,,,,,,,,,,,,,,,,,,,,,,,,,,,,,,main,None,None,1,1.493405100016389,540.8673617999884,None,None,1,,,,,,,,,,,,,,107,23,Female,2022-05-02_09h50.28.059,Parachute,2022.1.1,59.973827417916326,
positive,blue,2,k,None,,,,,,,,,0,142,142,142,,,,,,,,,,,,,,,,,,,,,,,,,,,,,,,,,,,,,main,None,None,1,1.4987361000385135,543.3642450000043,None,None,1,,,,,,,,,,,,,,107,23,Female,2022-05-02_09h50.28.059,Parachute,2022.1.1,59.973827417916326,
positive,yellow,2,None,k,,,,,,,,,0,143,143,143,,,,,,,,,,,,,,,,,,,,,,,,,,,,,,,,,,,,,main,k,k,1,1.2037226000102237,545.8637964000227,None,None,0,,,,,,,,,,,,,,107,23,Female,2022-05-02_09h50.28.059,Parachute,2022.1.1,59.973827417916326,
negative,yellow,2,k,None,,,,,,,,,0,144,144,144,,,,,,,,,,,,,,,,,,,,,,,,,,,,,,,,,,,,,main,None,None,1,1.4935752999735996,548.0674454999971,None,None,1,,,,,,,,,,,,,,107,23,Female,2022-05-02_09h50.28.059,Parachute,2022.1.1,59.973827417916326,
negative,blue,2,None,k,,,,,,,,,0,145,145,145,,,,,,,,,,,,,,,,,,,,,,,,,,,,,,,,,,,,,main,k,k,1,0.7034555000136606,550.5643013000372,None,None,0,,,,,,,,,,,,,,107,23,Female,2022-05-02_09h50.28.059,Parachute,2022.1.1,59.973827417916326,
negative,red,1,None,None,,,,,,,,,0,146,146,146,,,,,,,,,,,,,,,,,,,,,,,,,,,,,,,,,,,,,main,None,None,1,1.4937643999583088,552.267776200024,None,None,1,,,,,,,,,,,,,,107,23,Female,2022-05-02_09h50.28.059,Parachute,2022.1.1,59.973827417916326,
positive,blue,1,k,None,,,,,,,,,0,147,147,147,,,,,,,,,,,,,,,,,,,,,,,,,,,,,,,,,,,,,main,None,None,1,1.4986420999630354,554.7634834999917,None,None,1,,,,,,,,,,,,,,107,23,Female,2022-05-02_09h50.28.059,Parachute,2022.1.1,59.973827417916326,
positive,yellow,1,None,k,,,,,,,,,0,148,148,148,,,,,,,,,,,,,,,,,,,,,,,,,,,,,,,,,,,,,main,k,k,1,0.8379800000111572,557.264295800007,None,None,0,,,,,,,,,,,,,,107,23,Female,2022-05-02_09h50.28.059,Parachute,2022.1.1,59.973827417916326,
negative,red,2,None,None,,,,,,,,,0,149,149,149,,,,,,,,,,,,,,,,,,,,,,,,,,,,,,,,,,,,,main,None,None,1,1.4931998999672942,559.1010543000302,None,None,1,,,,,,,,,,,,,,107,23,Female,2022-05-02_09h50.28.059,Parachute,2022.1.1,59.973827417916326,
negative,blue,1,None,k,,,,,,,,,0,150,150,150,,,,,,,,,,,,,,,,,,,,,,,,,,,,,,,,,,,,,main,k,k,1,0.853995000012219,561.5983164000208,None,None,0,,,,,,,,,,,,,,107,23,Female,2022-05-02_09h50.28.059,Parachute,2022.1.1,59.973827417916326,
negative,yellow,2,k,None,,,,,,,,,0,151,151,151,,,,,,,,,,,,,,,,,,,,,,,,,,,,,,,,,,,,,main,None,None,1,1.4931118999957107,563.4510248000151,None,None,1,,,,,,,,,,,,,,107,23,Female,2022-05-02_09h50.28.059,Parachute,2022.1.1,59.973827417916326,
negative,blue,2,None,k,,,,,,,,,0,152,152,152,,,,,,,,,,,,,,,,,,,,,,,,,,,,,,,,,,,,,main,k,k,1,0.8687886000261642,565.9478754000156,None,None,0,,,,,,,,,,,,,,107,23,Female,2022-05-02_09h50.28.059,Parachute,2022.1.1,59.973827417916326,
negative,yellow,1,k,None,,,,,,,,,0,153,153,153,,,,,,,,,,,,,,,,,,,,,,,,,,,,,,,,,,,,,main,None,None,1,1.4953861000249162,567.8177553000278,None,None,1,,,,,,,,,,,,,,107,23,Female,2022-05-02_09h50.28.059,Parachute,2022.1.1,59.973827417916326,
negative,blue,1,None,k,,,,,,,,,0,154,154,154,,,,,,,,,,,,,,,,,,,,,,,,,,,,,,,,,,,,,main,k,k,1,1.0038142000557855,570.3137865000172,None,None,0,,,,,,,,,,,,,,107,23,Female,2022-05-02_09h50.28.059,Parachute,2022.1.1,59.973827417916326,
positive,yellow,2,None,k,,,,,,,,,0,155,155,155,,,,,,,,,,,,,,,,,,,,,,,,,,,,,,,,,,,,,main,k,k,1,1.0329372999840416,572.3178746000049,None,None,0,,,,,,,,,,,,,,107,23,Female,2022-05-02_09h50.28.059,Parachute,2022.1.1,59.973827417916326,
positive,red,2,None,None,,,,,,,,,0,156,156,156,,,,,,,,,,,,,,,,,,,,,,,,,,,,,,,,,,,,,main,None,None,1,1.4929118000436574,574.3511582000065,None,None,1,,,,,,,,,,,,,,107,23,Female,2022-05-02_09h50.28.059,Parachute,2022.1.1,59.973827417916326,
positive,red,1,None,None,,,,,,,,,0,157,157,157,,,,,,,,,,,,,,,,,,,,,,,,,,,,,,,,,,,,,main,None,None,1,1.4989274999825284,576.8482760000043,None,None,1,,,,,,,,,,,,,,107,23,Female,2022-05-02_09h50.28.059,Parachute,2022.1.1,59.973827417916326,
positive,blue,2,k,None,,,,,,,,,0,158,158,158,,,,,,,,,,,,,,,,,,,,,,,,,,,,,,,,,,,,,main,None,None,1,1.4988505000364967,579.3478790000081,None,None,1,,,,,,,,,,,,,,107,23,Female,2022-05-02_09h50.28.059,Parachute,2022.1.1,59.973827417916326,
negative,yellow,1,k,None,,,,,,,,,0,159,159,159,,,,,,,,,,,,,,,,,,,,,,,,,,,,,,,,,,,,,main,None,None,1,1.498555900005158,581.8483848000178,None,None,1,,,,,,,,,,,,,,107,23,Female,2022-05-02_09h50.28.059,Parachute,2022.1.1,59.973827417916326,
negative,red,2,None,None,,,,,,,,,0,160,160,160,,,,,,,,,,,,,,,,,,,,,,,,,,,,,,,,,,,,,main,None,None,1,1.4985939999460243,584.3482924000127,None,None,1,,,,,,,,,,,,,,107,23,Female,2022-05-02_09h50.28.059,Parachute,2022.1.1,59.973827417916326,
negative,blue,1,None,k,,,,,,,,,0,161,161,161,,,,,,,,,,,,,,,,,,,,,,,,,,,,,,,,,,,,,main,k,k,1,0.953551399987191,586.8480764999986,None,None,0,,,,,,,,,,,,,,107,23,Female,2022-05-02_09h50.28.059,Parachute,2022.1.1,59.973827417916326,
negative,blue,1,None,k,,,,,,,,,0,162,162,162,,,,,,,,,,,,,,,,,,,,,,,,,,,,,,,,,,,,,main,k,k,1,0.8665458000032231,588.800933999999,None,None,0,,,,,,,,,,,,,,107,23,Female,2022-05-02_09h50.28.059,Parachute,2022.1.1,59.973827417916326,
negative,yellow,1,k,None,,,,,,,,,0,163,163,163,,,,,,,,,,,,,,,,,,,,,,,,,,,,,,,,,,,,,main,None,None,1,1.4928369999979623,590.6681837000069,None,None,1,,,,,,,,,,,,,,107,23,Female,2022-05-02_09h50.28.059,Parachute,2022.1.1,59.973827417916326,
negative,yellow,1,k,None,,,,,,,,,0,164,164,164,,,,,,,,,,,,,,,,,,,,,,,,,,,,,,,,,,,,,main,None,None,1,1.4990519999992102,593.1644799000351,None,None,1,,,,,,,,,,,,,,107,23,Female,2022-05-02_09h50.28.059,Parachute,2022.1.1,59.973827417916326,
positive,yellow,1,None,k,,,,,,,,,0,165,165,165,,,,,,,,,,,,,,,,,,,,,,,,,,,,,,,,,,,,,main,k,k,1,0.7019011999946088,595.664993399987,None,None,0,,,,,,,,,,,,,,107,23,Female,2022-05-02_09h50.28.059,Parachute,2022.1.1,59.973827417916326,
negative,red,1,None,None,,,,,,,,,0,166,166,166,,,,,,,,,,,,,,,,,,,,,,,,,,,,,,,,,,,,,main,None,None,1,1.4958113000029698,597.3683156000334,None,None,1,,,,,,,,,,,,,,107,23,Female,2022-05-02_09h50.28.059,Parachute,2022.1.1,59.973827417916326,
negative,yellow,2,k,None,,,,,,,,,0,167,167,167,,,,,,,,,,,,,,,,,,,,,,,,,,,,,,,,,,,,,main,None,None,1,1.498950999986846,599.8665840000031,None,None,1,,,,,,,,,,,,,,107,23,Female,2022-05-02_09h50.28.059,Parachute,2022.1.1,59.973827417916326,
positive,blue,2,k,None,,,,,,,,,0,168,168,168,,,,,,,,,,,,,,,,,,,,,,,,,,,,,,,,,,,,,main,None,None,1,1.4981720999930985,602.3670293000177,None,None,1,,,,,,,,,,,,,,107,23,Female,2022-05-02_09h50.28.059,Parachute,2022.1.1,59.973827417916326,
positive,red,2,None,None,,,,,,,,,0,169,169,169,,,,,,,,,,,,,,,,,,,,,,,,,,,,,,,,,,,,,main,None,None,1,1.4985449999803677,604.8662039000192,None,None,1,,,,,,,,,,,,,,107,23,Female,2022-05-02_09h50.28.059,Parachute,2022.1.1,59.973827417916326,
positive,red,1,None,None,,,,,,,,,0,170,170,170,,,,,,,,,,,,,,,,,,,,,,,,,,,,,,,,,,,,,main,None,None,1,1.4992391999694519,607.3656581999967,None,None,1,,,,,,,,,,,,,,107,23,Female,2022-05-02_09h50.28.059,Parachute,2022.1.1,59.973827417916326,
negative,blue,2,None,k,,,,,,,,,0,171,171,171,,,,,,,,,,,,,,,,,,,,,,,,,,,,,,,,,,,,,main,k,k,1,0.8209303999901749,609.8656911000144,None,None,0,,,,,,,,,,,,,,107,23,Female,2022-05-02_09h50.28.059,Parachute,2022.1.1,59.973827417916326,
positive,blue,2,k,None,,,,,,,,,0,172,172,172,,,,,,,,,,,,,,,,,,,,,,,,,,,,,,,,,,,,,main,None,None,1,1.4933868999942206,611.6853314000182,None,None,1,,,,,,,,,,,,,,107,23,Female,2022-05-02_09h50.28.059,Parachute,2022.1.1,59.973827417916326,
negative,yellow,2,k,None,,,,,,,,,0,173,173,173,,,,,,,,,,,,,,,,,,,,,,,,,,,,,,,,,,,,,main,None,None,1,1.4989113999763504,614.182270099991,None,None,1,,,,,,,,,,,,,,107,23,Female,2022-05-02_09h50.28.059,Parachute,2022.1.1,59.973827417916326,
positive,yellow,2,None,k,,,,,,,,,0,174,174,174,,,,,,,,,,,,,,,,,,,,,,,,,,,,,,,,,,,,,main,k,k,1,1.6374078000080772,616.6820244999835,None,None,0,,,,,,,,,,,,,,107,23,Female,2022-05-02_09h50.28.059,Parachute,2022.1.1,59.973827417916326,
negative,blue,2,None,k,,,,,,,,,0,175,175,175,,,,,,,,,,,,,,,,,,,,,,,,,,,,,,,,,,,,,main,k,k,1,0.8907160999951884,620.3300403000321,None,None,0,,,,,,,,,,,,,,107,23,Female,2022-05-02_09h50.28.059,Parachute,2022.1.1,59.973827417916326,
positive,blue,1,k,None,,,,,,,,,0,176,176,176,,,,,,,,,,,,,,,,,,,,,,,,,,,,,,,,,,,,,main,None,None,1,1.4926471000071615,622.219295900024,None,None,1,,,,,,,,,,,,,,107,23,Female,2022-05-02_09h50.28.059,Parachute,2022.1.1,59.973827417916326,
positive,yellow,1,None,k,,,,,,,,,0,177,177,177,,,,,,,,,,,,,,,,,,,,,,,,,,,,,,,,,,,,,main,k,k,1,0.8044369000126608,624.7154177000048,None,None,0,,,,,,,,,,,,,,107,23,Female,2022-05-02_09h50.28.059,Parachute,2022.1.1,59.973827417916326,
positive,blue,1,k,None,,,,,,,,,0,178,178,178,,,,,,,,,,,,,,,,,,,,,,,,,,,,,,,,,,,,,main,None,None,1,1.49307799997041,626.5191387000377,None,None,1,,,,,,,,,,,,,,107,23,Female,2022-05-02_09h50.28.059,Parachute,2022.1.1,59.973827417916326,
positive,yellow,2,None,k,,,,,,,,,0,179,179,179,,,,,,,,,,,,,,,,,,,,,,,,,,,,,,,,,,,,,main,k,k,1,0.770665799966082,629.0154074000311,None,None,0,,,,,,,,,,,,,,107,23,Female,2022-05-02_09h50.28.059,Parachute,2022.1.1,59.973827417916326,
positive,blue,1,k,None,,,,,,,,,0,180,180,180,,,,,,,,,,,,,,,,,,,,,,,,,,,,,,,,,,,,,main,None,None,1,1.4935992999817245,630.7856596999918,None,None,1,,,,,,,,,,,,,,107,23,Female,2022-05-02_09h50.28.059,Parachute,2022.1.1,59.973827417916326,
negative,red,1,None,None,,,,,,,,,0,181,181,181,,,,,,,,,,,,,,,,,,,,,,,,,,,,,,,,,,,,,main,None,k,0,1.319408600043971,633.2833470000187,None,None,1,,,,,,,,,,,,,,107,23,Female,2022-05-02_09h50.28.059,Parachute,2022.1.1,59.973827417916326,
negative,blue,1,None,k,,,,,,,,,0,182,182,182,,,,,,,,,,,,,,,,,,,,,,,,,,,,,,,,,,,,,main,k,k,1,0.8150622000102885,636.6137836999842,None,None,0,,,,,,,,,,,,,,107,23,Female,2022-05-02_09h50.28.059,Parachute,2022.1.1,59.973827417916326,
negative,yellow,2,k,None,,,,,,,,,0,183,183,183,,,,,,,,,,,,,,,,,,,,,,,,,,,,,,,,,,,,,main,None,None,1,1.5015547999646515,638.4307726999978,None,None,1,,,,,,,,,,,,,,107,23,Female,2022-05-02_09h50.28.059,Parachute,2022.1.1,59.973827417916326,
positive,yellow,2,None,k,,,,,,,,,0,184,184,184,,,,,,,,,,,,,,,,,,,,,,,,,,,,,,,,,,,,,main,k,k,1,0.8205334999947809,640.9326607999974,None,None,0,,,,,,,,,,,,,,107,23,Female,2022-05-02_09h50.28.059,Parachute,2022.1.1,59.973827417916326,
positive,yellow,1,None,k,,,,,,,,,0,185,185,185,,,,,,,,,,,,,,,,,,,,,,,,,,,,,,,,,,,,,main,k,k,1,0.7160316999652423,642.7524877000251,None,None,0,,,,,,,,,,,,,,107,23,Female,2022-05-02_09h50.28.059,Parachute,2022.1.1,59.973827417916326,
positive,red,2,None,None,,,,,,,,,0,186,186,186,,,,,,,,,,,,,,,,,,,,,,,,,,,,,,,,,,,,,main,None,None,1,1.4927544999518432,644.4694021000178,None,None,1,,,,,,,,,,,,,,107,23,Female,2022-05-02_09h50.28.059,Parachute,2022.1.1,59.973827417916326,
positive,blue,1,k,None,,,,,,,,,0,187,187,187,,,,,,,,,,,,,,,,,,,,,,,,,,,,,,,,,,,,,main,None,None,1,1.4987866000155918,646.9659677000018,None,None,1,,,,,,,,,,,,,,107,23,Female,2022-05-02_09h50.28.059,Parachute,2022.1.1,59.973827417916326,
negative,yellow,1,k,None,,,,,,,,,0,188,188,188,,,,,,,,,,,,,,,,,,,,,,,,,,,,,,,,,,,,,main,None,None,1,1.4984007000457495,649.4657353000366,None,None,1,,,,,,,,,,,,,,107,23,Female,2022-05-02_09h50.28.059,Parachute,2022.1.1,59.973827417916326,
positive,yellow,2,None,k,,,,,,,,,0,189,189,189,,,,,,,,,,,,,,,,,,,,,,,,,,,,,,,,,,,,,main,k,k,1,0.7709091000142507,651.9654182000086,None,None,0,,,,,,,,,,,,,,107,23,Female,2022-05-02_09h50.28.059,Parachute,2022.1.1,59.973827417916326,
negative,yellow,2,k,None,,,,,,,,,0,190,190,190,,,,,,,,,,,,,,,,,,,,,,,,,,,,,,,,,,,,,main,None,None,1,1.4936811000225134,653.7359388000332,None,None,1,,,,,,,,,,,,,,107,23,Female,2022-05-02_09h50.28.059,Parachute,2022.1.1,59.973827417916326,
negative,yellow,1,k,None,,,,,,,,,0,191,191,191,,,,,,,,,,,,,,,,,,,,,,,,,,,,,,,,,,,,,main,None,None,1,1.4991695000207983,656.2329388000071,None,None,1,,,,,,,,,,,,,,107,23,Female,2022-05-02_09h50.28.059,Parachute,2022.1.1,59.973827417916326,
positive,blue,2,k,None,,,,,,,,,0,192,192,192,,,,,,,,,,,,,,,,,,,,,,,,,,,,,,,,,,,,,main,None,None,1,1.498307499976363,658.7339874000172,None,None,1,,,,,,,,,,,,,,107,23,Female,2022-05-02_09h50.28.059,Parachute,2022.1.1,59.973827417916326,
positive,yellow,1,None,k,,,,,,,,,0,193,193,193,,,,,,,,,,,,,,,,,,,,,,,,,,,,,,,,,,,,,main,k,k,1,0.9372305000433698,661.2324886000133,None,None,0,,,,,,,,,,,,,,107,23,Female,2022-05-02_09h50.28.059,Parachute,2022.1.1,59.973827417916326,
negative,red,2,None,None,,,,,,,,,0,194,194,194,,,,,,,,,,,,,,,,,,,,,,,,,,,,,,,,,,,,,main,None,None,1,1.493315099971369,663.1697367000161,None,None,1,,,,,,,,,,,,,,107,23,Female,2022-05-02_09h50.28.059,Parachute,2022.1.1,59.973827417916326,
positive,red,1,None,None,,,,,,,,,0,195,195,195,,,,,,,,,,,,,,,,,,,,,,,,,,,,,,,,,,,,,main,None,None,1,1.4989369999966584,665.6659736000001,None,None,1,,,,,,,,,,,,,,107,23,Female,2022-05-02_09h50.28.059,Parachute,2022.1.1,59.973827417916326,
negative,blue,1,None,k,,,,,,,,,0,196,196,196,,,,,,,,,,,,,,,,,,,,,,,,,,,,,,,,,,,,,main,k,k,1,1.1208218000247143,668.1669529000064,None,None,0,,,,,,,,,,,,,,107,23,Female,2022-05-02_09h50.28.059,Parachute,2022.1.1,59.973827417916326,
positive,blue,2,k,None,,,,,,,,,0,197,197,197,,,,,,,,,,,,,,,,,,,,,,,,,,,,,,,,,,,,,main,None,None,1,1.4928949999739416,670.2866770999972,None,None,1,,,,,,,,,,,,,,107,23,Female,2022-05-02_09h50.28.059,Parachute,2022.1.1,59.973827417916326,
negative,blue,2,None,k,,,,,,,,,0,198,198,198,,,,,,,,,,,,,,,,,,,,,,,,,,,,,,,,,,,,,main,k,k,1,1.0377385000465438,672.7827943000011,None,None,0,,,,,,,,,,,,,,107,23,Female,2022-05-02_09h50.28.059,Parachute,2022.1.1,59.973827417916326,
negative,blue,2,None,k,,,,,,,,,0,199,199,199,,,,,,,,,,,,,,,,,,,,,,,,,,,,,,,,,,,,,main,k,k,1,0.74898029997712,674.8193768000347,None,None,0,,,,,,,,,,,,,,107,23,Female,2022-05-02_09h50.28.059,Parachute,2022.1.1,59.973827417916326,
positive,blue,2,k,None,,,,,,,,,0,200,200,200,,,,,,,,,,,,,,,,,,,,,,,,,,,,,,,,,,,,,main,None,None,1,1.493054399965331,676.5697494000196,None,None,1,,,,,,,,,,,,,,107,23,Female,2022-05-02_09h50.28.059,Parachute,2022.1.1,59.973827417916326,
positive,blue,2,k,None,,,,,,,,,0,201,201,201,,,,,,,,,,,,,,,,,,,,,,,,,,,,,,,,,,,,,main,None,None,1,1.4985824000323191,679.06679240003,None,None,1,,,,,,,,,,,,,,107,23,Female,2022-05-02_09h50.28.059,Parachute,2022.1.1,59.973827417916326,
negative,yellow,2,k,None,,,,,,,,,0,202,202,202,,,,,,,,,,,,,,,,,,,,,,,,,,,,,,,,,,,,,main,None,None,1,1.4994148000259884,681.5667848000303,None,None,1,,,,,,,,,,,,,,107,23,Female,2022-05-02_09h50.28.059,Parachute,2022.1.1,59.973827417916326,
positive,red,1,None,None,,,,,,,,,0,203,203,203,,,,,,,,,,,,,,,,,,,,,,,,,,,,,,,,,,,,,main,None,None,1,1.4981247000396252,684.0673686999944,None,None,1,,,,,,,,,,,,,,107,23,Female,2022-05-02_09h50.28.059,Parachute,2022.1.1,59.973827417916326,
negative,blue,2,None,k,,,,,,,,,0,204,204,204,,,,,,,,,,,,,,,,,,,,,,,,,,,,,,,,,,,,,main,k,k,1,0.8542563000228256,686.5678285000031,None,None,0,,,,,,,,,,,,,,107,23,Female,2022-05-02_09h50.28.059,Parachute,2022.1.1,59.973827417916326,
negative,red,1,None,None,,,,,,,,,0,205,205,205,,,,,,,,,,,,,,,,,,,,,,,,,,,,,,,,,,,,,main,None,None,1,1.4937168000033125,688.4202139999834,None,None,1,,,,,,,,,,,,,,107,23,Female,2022-05-02_09h50.28.059,Parachute,2022.1.1,59.973827417916326,
negative,blue,2,None,k,,,,,,,,,0,206,206,206,,,,,,,,,,,,,,,,,,,,,,,,,,,,,,,,,,,,,main,k,k,1,0.9203121999744326,690.9174651000067,None,None,0,,,,,,,,,,,,,,107,23,Female,2022-05-02_09h50.28.059,Parachute,2022.1.1,59.973827417916326,
negative,yellow,2,k,None,,,,,,,,,0,207,207,207,,,,,,,,,,,,,,,,,,,,,,,,,,,,,,,,,,,,,main,None,None,1,1.4930942000355572,692.8373213000013,None,None,1,,,,,,,,,,,,,,107,23,Female,2022-05-02_09h50.28.059,Parachute,2022.1.1,59.973827417916326,
positive,yellow,2,None,k,,,,,,,,,0,208,208,208,,,,,,,,,,,,,,,,,,,,,,,,,,,,,,,,,,,,,main,k,k,1,1.0874748999485746,695.3333644000231,None,None,0,,,,,,,,,,,,,,107,23,Female,2022-05-02_09h50.28.059,Parachute,2022.1.1,59.973827417916326,
negative,yellow,1,k,None,,,,,,,,,0,209,209,209,,,,,,,,,,,,,,,,,,,,,,,,,,,,,,,,,,,,,main,None,None,1,1.493740700010676,697.4204172000173,None,None,1,,,,,,,,,,,,,,107,23,Female,2022-05-02_09h50.28.059,Parachute,2022.1.1,59.973827417916326,
negative,red,2,None,None,,,,,,,,,0,210,210,210,,,,,,,,,,,,,,,,,,,,,,,,,,,,,,,,,,,,,main,None,None,1,1.4990131999948062,699.9176206000266,None,None,1,,,,,,,,,,,,,,107,23,Female,2022-05-02_09h50.28.059,Parachute,2022.1.1,59.973827417916326,
negative,blue,1,None,k,,,,,,,,,0,211,211,211,,,,,,,,,,,,,,,,,,,,,,,,,,,,,,,,,,,,,main,k,k,1,0.9535432000411674,702.4178447999875,None,None,0,,,,,,,,,,,,,,107,23,Female,2022-05-02_09h50.28.059,Parachute,2022.1.1,59.973827417916326,
negative,yellow,1,k,None,,,,,,,,,0,212,212,212,,,,,,,,,,,,,,,,,,,,,,,,,,,,,,,,,,,,,main,None,None,1,1.4933805000036955,704.3705148000154,None,None,1,,,,,,,,,,,,,,107,23,Female,2022-05-02_09h50.28.059,Parachute,2022.1.1,59.973827417916326,
positive,blue,1,k,None,,,,,,,,,0,213,213,213,,,,,,,,,,,,,,,,,,,,,,,,,,,,,,,,,,,,,main,None,None,1,1.4988036999711767,706.867664200021,None,None,1,,,,,,,,,,,,,,107,23,Female,2022-05-02_09h50.28.059,Parachute,2022.1.1,59.973827417916326,
positive,blue,1,k,None,,,,,,,,,0,214,214,214,,,,,,,,,,,,,,,,,,,,,,,,,,,,,,,,,,,,,main,None,None,1,1.498736999987159,709.3672753000283,None,None,1,,,,,,,,,,,,,,107,23,Female,2022-05-02_09h50.28.059,Parachute,2022.1.1,59.973827417916326,
positive,yellow,1,None,k,,,,,,,,,0,215,215,215,,,,,,,,,,,,,,,,,,,,,,,,,,,,,,,,,,,,,main,k,k,1,0.9372747999732383,711.867229800031,None,None,0,,,,,,,,,,,,,,107,23,Female,2022-05-02_09h50.28.059,Parachute,2022.1.1,59.973827417916326,
positive,yellow,1,None,k,,,,,,,,,0,216,216,216,,,,,,,,,,,,,,,,,,,,,,,,,,,,,,,,,,,,,main,k,k,1,0.8994849000009708,713.8042270999867,None,None,0,,,,,,,,,,,,,,107,23,Female,2022-05-02_09h50.28.059,Parachute,2022.1.1,59.973827417916326,
positive,yellow,2,None,k,,,,,,,,,0,217,217,217,,,,,,,,,,,,,,,,,,,,,,,,,,,,,,,,,,,,,main,k,k,1,1.131379799975548,715.7052112999954,None,None,0,,,,,,,,,,,,,,107,23,Female,2022-05-02_09h50.28.059,Parachute,2022.1.1,59.973827417916326,
negative,blue,1,None,k,,,,,,,,,0,218,218,218,,,,,,,,,,,,,,,,,,,,,,,,,,,,,,,,,,,,,main,k,k,1,1.2470772999804467,717.8374295000103,None,None,0,,,,,,,,,,,,,,107,23,Female,2022-05-02_09h50.28.059,Parachute,2022.1.1,59.973827417916326,
positive,red,2,None,None,,,,,,,,,0,219,219,219,,,,,,,,,,,,,,,,,,,,,,,,,,,,,,,,,,,,,main,None,None,1,1.495303400035482,720.0875013000332,None,None,1,,,,,,,,,,,,,,107,23,Female,2022-05-02_09h50.28.059,Parachute,2022.1.1,59.973827417916326,
positive,yellow,1,None,k,,,,,,,,,0,220,220,220,,,,,,,,,,,,,,,,,,,,,,,,,,,,,,,,,,,,,main,k,k,1,0.9307013000361621,722.5846881000325,None,None,0,,,,,,,,,,,,,,107,23,Female,2022-05-02_09h50.28.059,Parachute,2022.1.1,59.973827417916326,
positive,blue,1,k,None,,,,,,,,,0,221,221,221,,,,,,,,,,,,,,,,,,,,,,,,,,,,,,,,,,,,,main,None,None,1,1.4998385999933816,724.5164528000169,None,None,1,,,,,,,,,,,,,,107,23,Female,2022-05-02_09h50.28.059,Parachute,2022.1.1,59.973827417916326,
positive,yellow,2,None,k,,,,,,,,,0,222,222,222,,,,,,,,,,,,,,,,,,,,,,,,,,,,,,,,,,,,,main,k,k,1,0.9877664999803528,727.0179127000156,None,None,0,,,,,,,,,,,,,,107,23,Female,2022-05-02_09h50.28.059,Parachute,2022.1.1,59.973827417916326,
negative,yellow,1,k,None,,,,,,,,,0,223,223,223,,,,,,,,,,,,,,,,,,,,,,,,,,,,,,,,,,,,,main,None,None,1,1.4932373000192456,729.0046503000194,None,None,1,,,,,,,,,,,,,,107,23,Female,2022-05-02_09h50.28.059,Parachute,2022.1.1,59.973827417916326,
positive,yellow,2,None,k,,,,,,,,,0,224,224,224,,,,,,,,,,,,,,,,,,,,,,,,,,,,,,,,,,,,,main,k,k,1,0.9871828000177629,731.5012406000169,None,None,0,,,,,,,,,,,,,,107,23,Female,2022-05-02_09h50.28.059,Parachute,2022.1.1,59.973827417916326,
negative,yellow,2,k,None,,,,,,,,,0,225,225,225,,,,,,,,,,,,,,,,,,,,,,,,,,,,,,,,,,,,,main,None,None,1,1.4936280000256374,733.4879677999998,None,None,1,,,,,,,,,,,,,,107,23,Female,2022-05-02_09h50.28.059,Parachute,2022.1.1,59.973827417916326,
negative,blue,2,None,k,,,,,,,,,0,226,226,226,,,,,,,,,,,,,,,,,,,,,,,,,,,,,,,,,,,,,main,k,k,1,0.720665899978485,735.9861576000112,None,None,0,,,,,,,,,,,,,,107,23,Female,2022-05-02_09h50.28.059,Parachute,2022.1.1,59.973827417916326,
positive,red,2,None,None,,,,,,,,,0,227,227,227,,,,,,,,,,,,,,,,,,,,,,,,,,,,,,,,,,,,,main,None,None,1,1.4938524000463076,737.7151587000117,None,None,1,,,,,,,,,,,,,,107,23,Female,2022-05-02_09h50.28.059,Parachute,2022.1.1,59.973827417916326,
positive,blue,2,k,None,,,,,,,,,0,228,228,228,,,,,,,,,,,,,,,,,,,,,,,,,,,,,,,,,,,,,main,None,None,1,1.498344499967061,740.2017691000365,None,None,1,,,,,,,,,,,,,,107,23,Female,2022-05-02_09h50.28.059,Parachute,2022.1.1,59.973827417916326,
negative,blue,1,None,k,,,,,,,,,0,229,229,229,,,,,,,,,,,,,,,,,,,,,,,,,,,,,,,,,,,,,main,k,k,1,1.270562699995935,742.7018388999859,None,None,0,,,,,,,,,,,,,,107,23,Female,2022-05-02_09h50.28.059,Parachute,2022.1.1,59.973827417916326,
positive,yellow,1,None,k,,,,,,,,,0,230,230,230,,,,,,,,,,,,,,,,,,,,,,,,,,,,,,,,,,,,,main,k,k,1,1.059020699991379,744.9710434000008,None,None,0,,,,,,,,,,,,,,107,23,Female,2022-05-02_09h50.28.059,Parachute,2022.1.1,59.973827417916326,
negative,blue,2,None,k,,,,,,,,,0,231,231,231,,,,,,,,,,,,,,,,,,,,,,,,,,,,,,,,,,,,,main,k,k,1,1.25510629999917,747.0334652999882,None,None,0,,,,,,,,,,,,,,107,23,Female,2022-05-02_09h50.28.059,Parachute,2022.1.1,59.973827417916326,
negative,red,1,None,None,,,,,,,,,0,232,232,232,,,,,,,,,,,,,,,,,,,,,,,,,,,,,,,,,,,,,main,None,None,1,1.4932388000306673,749.2881284999894,None,None,1,,,,,,,,,,,,,,107,23,Female,2022-05-02_09h50.28.059,Parachute,2022.1.1,59.973827417916326,
positive,blue,2,k,None,,,,,,,,,0,233,233,233,,,,,,,,,,,,,,,,,,,,,,,,,,,,,,,,,,,,,main,None,None,1,1.4985128999687731,751.7849800999975,None,None,1,,,,,,,,,,,,,,107,23,Female,2022-05-02_09h50.28.059,Parachute,2022.1.1,59.973827417916326,
negative,yellow,1,k,None,,,,,,,,,0,234,234,234,,,,,,,,,,,,,,,,,,,,,,,,,,,,,,,,,,,,,main,None,None,1,1.498508699995,754.2849450000213,None,None,1,,,,,,,,,,,,,,107,23,Female,2022-05-02_09h50.28.059,Parachute,2022.1.1,59.973827417916326,
negative,yellow,2,k,None,,,,,,,,,0,235,235,235,,,,,,,,,,,,,,,,,,,,,,,,,,,,,,,,,,,,,main,None,None,1,1.4989572000340559,756.784299299994,None,None,1,,,,,,,,,,,,,,107,23,Female,2022-05-02_09h50.28.059,Parachute,2022.1.1,59.973827417916326,
positive,red,1,None,None,,,,,,,,,0,236,236,236,,,,,,,,,,,,,,,,,,,,,,,,,,,,,,,,,,,,,main,None,None,1,1.4986266000196338,759.2848466000287,None,None,1,,,,,,,,,,,,,,107,23,Female,2022-05-02_09h50.28.059,Parachute,2022.1.1,59.973827417916326,
negative,red,2,None,None,,,,,,,,,0,237,237,237,,,,,,,,,,,,,,,,,,,,,,,,,,,,,,,,,,,,,main,None,None,1,1.499361600028351,761.7847236000234,None,None,1,,,,,,,,,,,,,,107,23,Female,2022-05-02_09h50.28.059,Parachute,2022.1.1,59.973827417916326,
negative,blue,1,None,k,,,,,,,,,0,238,238,238,,,,,,,,,,,,,,,,,,,,,,,,,,,,,,,,,,,,,main,k,k,1,1.2709279999835417,764.2854975000373,None,None,0,,,,,,,,,,,,,,107,23,Female,2022-05-02_09h50.28.059,Parachute,2022.1.1,59.973827417916326,
positive,blue,1,k,None,,,,,,,,,0,239,239,239,,,,,,,,,,,,,,,,,,,,,,,,,,,,,,,,,,,,,main,None,None,1,1.4943206000025384,766.5654963999987,None,None,1,,,,,,,,,,,,,,107,23,Female,2022-05-02_09h50.28.059,Parachute,2022.1.1,59.973827417916326,
,,,,,,,,,,,,,,,,,,,,,,,,,,,,,,,,,,,,,,,,,,,,,,,,,,,,,,,,,,,,,,,,,,,,,,,,,769.049551700009,None,,,,,,,,
