distractor,target,set,ans1,ans2,rep_loop4.thisRepN,rep_loop4.thisTrialN,rep_loop4.thisN,rep_loop4.thisIndex,st2_prac_loop.thisRepN,st2_prac_loop.thisTrialN,st2_prac_loop.thisN,st2_prac_loop.thisIndex,st2_main_loop.thisRepN,st2_main_loop.thisTrialN,st2_main_loop.thisN,st2_main_loop.thisIndex,image_4.started,image_4.stopped,mouse_7.x,mouse_7.y,mouse_7.leftButton,mouse_7.midButton,mouse_7.rightButton,sound_2.started,sound_2.stopped,key_resp_3.keys,mouse_5.x,mouse_5.y,mouse_5.leftButton,mouse_5.midButton,mouse_5.rightButton,mouse_5.started,mouse_5.stopped,yes_text2.started,yes_text2.stopped,no_text2.started,no_text2.stopped,mouse_3.x,mouse_3.y,mouse_3.leftButton,mouse_3.midButton,mouse_3.rightButton,mouse_3.started,mouse_3.stopped,st_prac_back.started,st_prac_back.stopped,st_prac_text.started,st_prac_text.stopped,st_fix_back.started,st_fix_back.stopped,st_fix_2.started,st_fix_2.stopped,main_prac,st_ans,st_res,st_corr,st_rt,st_back.started,st_back.stopped,st2_resp.keys,st2_resp.corr,st_main_back.started,st_main_back.stopped,st_main_text.started,st_main_text.stopped,mouse_4.x,mouse_4.y,mouse_4.leftButton,mouse_4.midButton,mouse_4.rightButton,mouse_4.started,mouse_4.stopped,text_2.started,text_2.stopped,id*,age*,gender*,date,expName,psychopyVersion,frameRate,
,,,,,,,,,,,,,,,,,32.979538700019475,None,-0.13518518,-0.27407408,0,0,0,,,,,,,,,,,,,,,,,,,,,,,,,,,,,,,,,,,,,,,,,,,,,,,,,,,,108,26,Male,2022-05-02_13h03.00.660,Parachute,2022.1.1,60.00708083356939,
negative,yellow,1,k,None,,,,,0,0,0,0,,,,,,,,,,,,37.866361310024516,None,None,0.07685185,-0.2074074,0,0,0,1.004811460035853,None,92.70056110003497,None,92.70056110003497,None,-0.09166667,-0.06574074,0,0,0,0.013513710000552237,None,104.3216270999983,None,104.3216270999983,None,106.33446050004568,None,106.33446050004568,None,prac,k,k,1,1.9136461999733,108.35068230004981,None,None,0,,,,,,,,,,,,,,108,26,Male,2022-05-02_13h03.00.660,Parachute,2022.1.1,60.00708083356939,
positive,red,2,None,None,,,,,0,1,1,1,,,,,,,,,,,,,,,,,,,,,,,,,,,,,,,,,,,,,,,,,prac,None,None,1,1.5011351999710314,112.28441920003388,None,None,1,,,,,,,,,,,,,,108,26,Male,2022-05-02_13h03.00.660,Parachute,2022.1.1,60.00708083356939,
negative,blue,2,None,k,,,,,0,2,2,2,,,,,,,,,,,,,,,,,,,,,,,,,,,,,,,,,,,,,,,,,prac,None,None,1,1.4982253999914974,114.78674850001698,None,None,1,,,,,,,,,,,,,,108,26,Male,2022-05-02_13h03.00.660,Parachute,2022.1.1,60.00708083356939,
positive,yellow,1,None,k,,,,,0,3,3,3,,,,,,,,,,,,,,,,,,,,,,,,,,,,,,,,,,,,,,,,,prac,None,None,1,1.4990865999716334,117.28648810001323,None,None,1,,,,,,,,,,,,,,108,26,Male,2022-05-02_13h03.00.660,Parachute,2022.1.1,60.00708083356939,
negative,blue,2,None,k,,,,,0,4,4,4,,,,,,,,,,,,,,,,,,,,,,,,,,,,,,,,,,,,,,,,,prac,None,None,1,1.4986510999733582,119.78697220003232,None,None,1,,,,,,,,,,,,,,108,26,Male,2022-05-02_13h03.00.660,Parachute,2022.1.1,60.00708083356939,
negative,blue,1,None,k,,,,,0,5,5,5,,,,,,,,,,,,,,,,,,,,,,,,,,,,,,,,,,,,,,,,,prac,None,None,1,1.4983449999708682,122.2869055000483,None,None,1,,,,,,,,,,,,,,108,26,Male,2022-05-02_13h03.00.660,Parachute,2022.1.1,60.00708083356939,
negative,yellow,2,k,None,,,,,0,6,6,6,,,,,,,,,,,,,,,,,,,,,,,,,,,,,,,,,,,,,,,,,prac,k,k,1,0.8544057999970391,124.78656480001519,None,None,0,,,,,,,,,,,,,,108,26,Male,2022-05-02_13h03.00.660,Parachute,2022.1.1,60.00708083356939,
negative,red,1,None,None,,,,,0,7,7,7,,,,,,,,,,,,,,,,,,,,,,,,,,,,,,,,,,,,,,,,,prac,None,None,1,1.4932503000018187,126.64009580004495,None,None,1,,,,,,,,,,,,,,108,26,Male,2022-05-02_13h03.00.660,Parachute,2022.1.1,60.00708083356939,
positive,yellow,2,None,k,,,,,0,8,8,8,,,,,,,,,,,,,,,,,,,,,,,,,,,,,,,,,,,,,,,,,prac,None,None,1,1.4985429999651387,129.13650980003877,None,None,1,,,,,,,,,,,,,,108,26,Male,2022-05-02_13h03.00.660,Parachute,2022.1.1,60.00708083356939,
negative,yellow,1,k,None,,,,,0,9,9,9,,,,,,,,,,,,,,,,,,,,,,,,,,,,,,,,,,,,,,,,,prac,k,k,1,1.0978071999852546,131.63692590000574,None,None,0,,,,,,,,,,,,,,108,26,Male,2022-05-02_13h03.00.660,Parachute,2022.1.1,60.00708083356939,
positive,yellow,2,None,k,,,,,0,10,10,10,,,,,,,,,,,,,,,,,,,,,,,,,,,,,,,,,,,,,,,,,prac,None,None,1,1.498943299986422,133.73587970004883,None,None,1,,,,,,,,,,,,,,108,26,Male,2022-05-02_13h03.00.660,Parachute,2022.1.1,60.00708083356939,
negative,yellow,2,k,None,,,,,0,11,11,11,,,,,,,,,,,,,,,,,,,,,,,,,,,,,,,,,,,,,,,,,prac,k,k,1,0.9380068000173196,136.23596120002912,None,None,0,,,,,,,,,,,,,,108,26,Male,2022-05-02_13h03.00.660,Parachute,2022.1.1,60.00708083356939,
negative,red,2,None,None,,,,,0,12,12,12,,,,,,,,,,,,,,,,,,,,,,,,,,,,,,,,,,,,,,,,,prac,None,None,1,1.4933369000209495,138.17364090000046,None,None,1,,,,,,,,,,,,,,108,26,Male,2022-05-02_13h03.00.660,Parachute,2022.1.1,60.00708083356939,
positive,red,1,None,None,,,,,0,13,13,13,,,,,,,,,,,,,,,,,,,,,,,,,,,,,,,,,,,,,,,,,prac,None,None,1,1.4986918999929912,140.67158070002915,None,None,1,,,,,,,,,,,,,,108,26,Male,2022-05-02_13h03.00.660,Parachute,2022.1.1,60.00708083356939,
positive,blue,2,k,None,,,,,0,14,14,14,,,,,,,,,,,,,,,,,,,,,,,,,,,,,,,,,,,,,,,,,prac,k,k,1,0.8861416999716312,143.17136730003403,None,None,0,,,,,,,,,,,,,,108,26,Male,2022-05-02_13h03.00.660,Parachute,2022.1.1,60.00708083356939,
positive,blue,1,k,None,,,,,0,15,15,15,,,,,,,,,,,,,,,,,,,,,,,,,,,,,,,,,,,,,,,,,prac,k,k,1,0.9488416000385769,145.05677900003502,None,None,0,,,,,,,,,,,,,,108,26,Male,2022-05-02_13h03.00.660,Parachute,2022.1.1,60.00708083356939,
negative,blue,1,None,k,,,,,0,16,16,16,,,,,,,,,,,,,,,,,,,,,,,,,,,,,,,,,,,,,,,,,prac,None,None,1,1.4931429999996908,147.00759920000564,None,None,1,,,,,,,,,,,,,,108,26,Male,2022-05-02_13h03.00.660,Parachute,2022.1.1,60.00708083356939,
positive,blue,2,k,None,,,,,0,17,17,17,,,,,,,,,,,,,,,,,,,,,,,,,,,,,,,,,,,,,,,,,prac,k,k,1,1.0542358999955468,149.50393570004962,None,None,0,,,,,,,,,,,,,,108,26,Male,2022-05-02_13h03.00.660,Parachute,2022.1.1,60.00708083356939,
positive,blue,1,k,None,,,,,0,18,18,18,,,,,,,,,,,,,,,,,,,,,,,,,,,,,,,,,,,,,,,,,prac,k,k,1,0.8320214000414126,151.55758560000686,None,None,0,,,,,,,,,,,,,,108,26,Male,2022-05-02_13h03.00.660,Parachute,2022.1.1,60.00708083356939,
positive,yellow,1,None,k,,,,,0,19,19,19,,,,,,,,,,,,,,,,,,,,,,,,,,,,,,,,,,,,,,,,,prac,None,None,1,1.4930582000524737,153.39055760001065,None,None,1,,,,,,,,,,,,,,108,26,Male,2022-05-02_13h03.00.660,Parachute,2022.1.1,60.00708083356939,
negative,yellow,1,k,None,,,,,1,0,20,0,,,,,,,,,,,,,,,,,,,,,,,,,,,,,,,,,,,,,,,,,prac,k,k,1,0.820865900022909,155.8875837000087,None,None,0,,,,,,,,,,,,,,108,26,Male,2022-05-02_13h03.00.660,Parachute,2022.1.1,60.00708083356939,
positive,red,2,None,None,,,,,1,1,21,1,,,,,,,,,,,,,,,,,,,,,,,,,,,,,,,,,,,,,,,,,prac,None,None,1,1.4929646999808028,157.70739290001802,None,None,1,,,,,,,,,,,,,,108,26,Male,2022-05-02_13h03.00.660,Parachute,2022.1.1,60.00708083356939,
negative,blue,2,None,k,,,,,1,2,22,2,,,,,,,,,,,,,,,,,,,,,,,,,,,,,,,,,,,,,,,,,prac,None,None,1,1.4985622999956831,160.2041304000304,None,None,1,,,,,,,,,,,,,,108,26,Male,2022-05-02_13h03.00.660,Parachute,2022.1.1,60.00708083356939,
positive,yellow,1,None,k,,,,,1,3,23,3,,,,,,,,,,,,,,,,,,,,,,,,,,,,,,,,,,,,,,,,,prac,None,None,1,1.4988995000021532,162.70364990003873,None,None,1,,,,,,,,,,,,,,108,26,Male,2022-05-02_13h03.00.660,Parachute,2022.1.1,60.00708083356939,
negative,blue,2,None,k,,,,,1,4,24,4,,,,,,,,,,,,,,,,,,,,,,,,,,,,,,,,,,,,,,,,,prac,None,None,1,1.4986337999580428,165.20374530000845,None,None,1,,,,,,,,,,,,,,108,26,Male,2022-05-02_13h03.00.660,Parachute,2022.1.1,60.00708083356939,
negative,blue,1,None,k,,,,,1,5,25,5,,,,,,,,,,,,,,,,,,,,,,,,,,,,,,,,,,,,,,,,,prac,None,None,1,1.4990250000264496,167.70423090003897,None,None,1,,,,,,,,,,,,,,108,26,Male,2022-05-02_13h03.00.660,Parachute,2022.1.1,60.00708083356939,
negative,yellow,2,k,None,,,,,1,6,26,6,,,,,,,,,,,,,,,,,,,,,,,,,,,,,,,,,,,,,,,,,prac,k,k,1,0.9044650999712758,170.20467410003766,None,None,0,,,,,,,,,,,,,,108,26,Male,2022-05-02_13h03.00.660,Parachute,2022.1.1,60.00708083356939,
negative,red,1,None,None,,,,,1,7,27,7,,,,,,,,,,,,,,,,,,,,,,,,,,,,,,,,,,,,,,,,,prac,None,None,1,1.4925833999877796,172.1082599000074,None,None,1,,,,,,,,,,,,,,108,26,Male,2022-05-02_13h03.00.660,Parachute,2022.1.1,60.00708083356939,
positive,yellow,2,None,k,,,,,1,8,28,8,,,,,,,,,,,,,,,,,,,,,,,,,,,,,,,,,,,,,,,,,prac,None,None,1,1.4986947999568656,174.6045857000281,None,None,1,,,,,,,,,,,,,,108,26,Male,2022-05-02_13h03.00.660,Parachute,2022.1.1,60.00708083356939,
negative,yellow,1,k,None,,,,,1,9,29,9,,,,,,,,,,,,,,,,,,,,,,,,,,,,,,,,,,,,,,,,,prac,k,k,1,1.0207989999908023,177.10422259999905,None,None,0,,,,,,,,,,,,,,108,26,Male,2022-05-02_13h03.00.660,Parachute,2022.1.1,60.00708083356939,
positive,yellow,2,None,k,,,,,1,10,30,10,,,,,,,,,,,,,,,,,,,,,,,,,,,,,,,,,,,,,,,,,prac,None,None,1,1.4937164000002667,179.12467340001604,None,None,1,,,,,,,,,,,,,,108,26,Male,2022-05-02_13h03.00.660,Parachute,2022.1.1,60.00708083356939,
negative,yellow,2,k,None,,,,,1,11,31,11,,,,,,,,,,,,,,,,,,,,,,,,,,,,,,,,,,,,,,,,,prac,k,k,1,0.8037285999744199,181.6213631000137,None,None,0,,,,,,,,,,,,,,108,26,Male,2022-05-02_13h03.00.660,Parachute,2022.1.1,60.00708083356939,
negative,red,2,None,None,,,,,1,12,32,12,,,,,,,,,,,,,,,,,,,,,,,,,,,,,,,,,,,,,,,,,prac,None,None,1,1.4931502000545152,183.42443680000724,None,None,1,,,,,,,,,,,,,,108,26,Male,2022-05-02_13h03.00.660,Parachute,2022.1.1,60.00708083356939,
positive,red,1,None,None,,,,,1,13,33,13,,,,,,,,,,,,,,,,,,,,,,,,,,,,,,,,,,,,,,,,,prac,None,None,1,1.4984930999926291,185.92099910002435,None,None,1,,,,,,,,,,,,,,108,26,Male,2022-05-02_13h03.00.660,Parachute,2022.1.1,60.00708083356939,
positive,blue,2,k,None,,,,,1,14,34,14,,,,,,,,,,,,,,,,,,,,,,,,,,,,,,,,,,,,,,,,,prac,k,k,1,0.8207712000003085,188.42072930000722,None,None,0,,,,,,,,,,,,,,108,26,Male,2022-05-02_13h03.00.660,Parachute,2022.1.1,60.00708083356939,
positive,blue,1,k,None,,,,,1,15,35,15,,,,,,,,,,,,,,,,,,,,,,,,,,,,,,,,,,,,,,,,,prac,k,k,1,0.7655091999913566,190.24138120003045,None,None,0,,,,,,,,,,,,,,108,26,Male,2022-05-02_13h03.00.660,Parachute,2022.1.1,60.00708083356939,
negative,blue,1,None,k,,,,,1,16,36,16,,,,,,,,,,,,,,,,,,,,,,,,,,,,,,,,,,,,,,,,,prac,None,None,1,1.4931231000227854,192.0079573999974,None,None,1,,,,,,,,,,,,,,108,26,Male,2022-05-02_13h03.00.660,Parachute,2022.1.1,60.00708083356939,
positive,blue,2,k,None,,,,,1,17,37,17,,,,,,,,,,,,,,,,,,,,,,,,,,,,,,,,,,,,,,,,,prac,k,k,1,0.8046676000230946,194.50463920005132,None,None,0,,,,,,,,,,,,,,108,26,Male,2022-05-02_13h03.00.660,Parachute,2022.1.1,60.00708083356939,
positive,blue,1,k,None,,,,,1,18,38,18,,,,,,,,,,,,,,,,,,,,,,,,,,,,,,,,,,,,,,,,,prac,k,k,1,0.94886410003528,196.30834930000128,None,None,0,,,,,,,,,,,,,,108,26,Male,2022-05-02_13h03.00.660,Parachute,2022.1.1,60.00708083356939,
positive,yellow,1,None,k,,,,,1,19,39,19,,,,,,,,,,,,,,,,,,,,,,,,,,,,,,,,,,,,,,,,,prac,None,None,1,1.4927088000113145,198.25858570000855,None,None,1,,,,,,,,,,,,,,108,26,Male,2022-05-02_13h03.00.660,Parachute,2022.1.1,60.00708083356939,
,,,,,,,,,,,,,,,,,,,,,,,,,,,,,,,,,,,,,,,,,,,,,,,,,,,,,,,,,,,,,,200.77316500002053,None,200.77316500002053,None,0.06944445,-0.22777778,0,0,0,0.012825109995901585,None,,,108,26,Male,2022-05-02_13h03.00.660,Parachute,2022.1.1,60.00708083356939,
negative,yellow,2,k,None,,,,,,,,,0,0,0,0,,,,,,,,,,,,,,,,,,,,,,,,,,,,,,,,,207.61960070003988,None,207.61960070003988,None,main,k,k,1,0.8714853000128642,209.6510871000355,None,None,0,,,,,,,,,,,,,,108,26,Male,2022-05-02_13h03.00.660,Parachute,2022.1.1,60.00708083356939,
positive,red,1,None,None,,,,,,,,,0,1,1,1,,,,,,,,,,,,,,,,,,,,,,,,,,,,,,,,,,,,,main,None,k,0,1.4931588000035845,211.52683390001766,None,None,1,,,,,,,,,,,,,,108,26,Male,2022-05-02_13h03.00.660,Parachute,2022.1.1,60.00708083356939,
positive,blue,2,k,None,,,,,,,,,0,2,2,2,,,,,,,,,,,,,,,,,,,,,,,,,,,,,,,,,,,,,main,k,k,1,0.888951700006146,215.0360297000152,None,None,0,,,,,,,,,,,,,,108,26,Male,2022-05-02_13h03.00.660,Parachute,2022.1.1,60.00708083356939,
positive,blue,1,k,None,,,,,,,,,0,3,3,3,,,,,,,,,,,,,,,,,,,,,,,,,,,,,,,,,,,,,main,k,k,1,0.7166385999880731,216.92449990002206,None,None,0,,,,,,,,,,,,,,108,26,Male,2022-05-02_13h03.00.660,Parachute,2022.1.1,60.00708083356939,
negative,yellow,2,k,None,,,,,,,,,0,4,4,4,,,,,,,,,,,,,,,,,,,,,,,,,,,,,,,,,,,,,main,k,k,1,0.898159799980931,218.6422009000089,None,None,0,,,,,,,,,,,,,,108,26,Male,2022-05-02_13h03.00.660,Parachute,2022.1.1,60.00708083356939,
positive,yellow,2,None,k,,,,,,,,,0,5,5,5,,,,,,,,,,,,,,,,,,,,,,,,,,,,,,,,,,,,,main,None,None,1,1.4935930999927223,220.54103150003357,None,None,1,,,,,,,,,,,,,,108,26,Male,2022-05-02_13h03.00.660,Parachute,2022.1.1,60.00708083356939,
negative,blue,2,None,k,,,,,,,,,0,6,6,6,,,,,,,,,,,,,,,,,,,,,,,,,,,,,,,,,,,,,main,None,None,1,1.4986277000280097,223.0379875000217,None,None,1,,,,,,,,,,,,,,108,26,Male,2022-05-02_13h03.00.660,Parachute,2022.1.1,60.00708083356939,
positive,red,2,None,None,,,,,,,,,0,7,7,7,,,,,,,,,,,,,,,,,,,,,,,,,,,,,,,,,,,,,main,None,None,1,1.4986445999820717,225.53829789999872,None,None,1,,,,,,,,,,,,,,108,26,Male,2022-05-02_13h03.00.660,Parachute,2022.1.1,60.00708083356939,
positive,yellow,1,None,k,,,,,,,,,0,8,8,8,,,,,,,,,,,,,,,,,,,,,,,,,,,,,,,,,,,,,main,None,None,1,1.4989283000468276,228.03842150000855,None,None,1,,,,,,,,,,,,,,108,26,Male,2022-05-02_13h03.00.660,Parachute,2022.1.1,60.00708083356939,
negative,red,1,None,None,,,,,,,,,0,9,9,9,,,,,,,,,,,,,,,,,,,,,,,,,,,,,,,,,,,,,main,None,None,1,1.4985115999588743,230.5391502000275,None,None,1,,,,,,,,,,,,,,108,26,Male,2022-05-02_13h03.00.660,Parachute,2022.1.1,60.00708083356939,
positive,yellow,1,None,k,,,,,,,,,0,10,10,10,,,,,,,,,,,,,,,,,,,,,,,,,,,,,,,,,,,,,main,None,None,1,1.4993854999775067,233.03870710002957,None,None,1,,,,,,,,,,,,,,108,26,Male,2022-05-02_13h03.00.660,Parachute,2022.1.1,60.00708083356939,
negative,yellow,1,k,None,,,,,,,,,0,11,11,11,,,,,,,,,,,,,,,,,,,,,,,,,,,,,,,,,,,,,main,k,k,1,0.936784399964381,235.54109140002402,None,None,0,,,,,,,,,,,,,,108,26,Male,2022-05-02_13h03.00.660,Parachute,2022.1.1,60.00708083356939,
negative,yellow,1,k,None,,,,,,,,,0,12,12,12,,,,,,,,,,,,,,,,,,,,,,,,,,,,,,,,,,,,,main,k,k,1,0.9144706000224687,237.47754069999792,None,None,0,,,,,,,,,,,,,,108,26,Male,2022-05-02_13h03.00.660,Parachute,2022.1.1,60.00708083356939,
negative,red,2,None,None,,,,,,,,,0,13,13,13,,,,,,,,,,,,,,,,,,,,,,,,,,,,,,,,,,,,,main,None,None,1,1.509103100048378,239.39305559999775,None,None,1,,,,,,,,,,,,,,108,26,Male,2022-05-02_13h03.00.660,Parachute,2022.1.1,60.00708083356939,
positive,yellow,2,None,k,,,,,,,,,0,14,14,14,,,,,,,,,,,,,,,,,,,,,,,,,,,,,,,,,,,,,main,None,None,1,1.4988324000150897,241.90564230002929,None,None,1,,,,,,,,,,,,,,108,26,Male,2022-05-02_13h03.00.660,Parachute,2022.1.1,60.00708083356939,
positive,blue,1,k,None,,,,,,,,,0,15,15,15,,,,,,,,,,,,,,,,,,,,,,,,,,,,,,,,,,,,,main,k,k,1,0.9704477000050247,244.40584090002812,None,None,0,,,,,,,,,,,,,,108,26,Male,2022-05-02_13h03.00.660,Parachute,2022.1.1,60.00708083356939,
negative,blue,1,None,k,,,,,,,,,0,16,16,16,,,,,,,,,,,,,,,,,,,,,,,,,,,,,,,,,,,,,main,None,None,1,1.4932772999745794,246.37500510003883,None,None,1,,,,,,,,,,,,,,108,26,Male,2022-05-02_13h03.00.660,Parachute,2022.1.1,60.00708083356939,
positive,blue,2,k,None,,,,,,,,,0,17,17,17,,,,,,,,,,,,,,,,,,,,,,,,,,,,,,,,,,,,,main,k,k,1,0.8541673999861814,248.87228330003563,None,None,0,,,,,,,,,,,,,,108,26,Male,2022-05-02_13h03.00.660,Parachute,2022.1.1,60.00708083356939,
negative,blue,2,None,k,,,,,,,,,0,18,18,18,,,,,,,,,,,,,,,,,,,,,,,,,,,,,,,,,,,,,main,None,None,1,1.493248599988874,250.72544030001154,None,None,1,,,,,,,,,,,,,,108,26,Male,2022-05-02_13h03.00.660,Parachute,2022.1.1,60.00708083356939,
negative,blue,1,None,k,,,,,,,,,0,19,19,19,,,,,,,,,,,,,,,,,,,,,,,,,,,,,,,,,,,,,main,None,None,1,1.498985999962315,253.22209590004059,None,None,1,,,,,,,,,,,,,,108,26,Male,2022-05-02_13h03.00.660,Parachute,2022.1.1,60.00708083356939,
negative,blue,1,None,k,,,,,,,,,0,20,20,20,,,,,,,,,,,,,,,,,,,,,,,,,,,,,,,,,,,,,main,None,None,1,1.4983489000005648,255.7217776000034,None,None,1,,,,,,,,,,,,,,108,26,Male,2022-05-02_13h03.00.660,Parachute,2022.1.1,60.00708083356939,
negative,blue,2,None,k,,,,,,,,,0,21,21,21,,,,,,,,,,,,,,,,,,,,,,,,,,,,,,,,,,,,,main,None,None,1,1.4983423000085168,258.22247400000924,None,None,1,,,,,,,,,,,,,,108,26,Male,2022-05-02_13h03.00.660,Parachute,2022.1.1,60.00708083356939,
negative,red,1,None,None,,,,,,,,,0,22,22,22,,,,,,,,,,,,,,,,,,,,,,,,,,,,,,,,,,,,,main,None,None,1,1.4985244999988936,260.7216226000455,None,None,1,,,,,,,,,,,,,,108,26,Male,2022-05-02_13h03.00.660,Parachute,2022.1.1,60.00708083356939,
positive,red,2,None,None,,,,,,,,,0,23,23,23,,,,,,,,,,,,,,,,,,,,,,,,,,,,,,,,,,,,,main,None,None,1,1.498597699974198,263.2217411000165,None,None,1,,,,,,,,,,,,,,108,26,Male,2022-05-02_13h03.00.660,Parachute,2022.1.1,60.00708083356939,
negative,red,2,None,None,,,,,,,,,0,24,24,24,,,,,,,,,,,,,,,,,,,,,,,,,,,,,,,,,,,,,main,None,None,1,1.4985001999884844,265.721672100015,None,None,1,,,,,,,,,,,,,,108,26,Male,2022-05-02_13h03.00.660,Parachute,2022.1.1,60.00708083356939,
positive,blue,2,k,None,,,,,,,,,0,25,25,25,,,,,,,,,,,,,,,,,,,,,,,,,,,,,,,,,,,,,main,k,k,1,0.8712776000029407,268.22195110004395,None,None,0,,,,,,,,,,,,,,108,26,Male,2022-05-02_13h03.00.660,Parachute,2022.1.1,60.00708083356939,
negative,yellow,1,k,None,,,,,,,,,0,26,26,26,,,,,,,,,,,,,,,,,,,,,,,,,,,,,,,,,,,,,main,k,k,1,1.3477798999520019,270.093219100032,None,None,0,,,,,,,,,,,,,,108,26,Male,2022-05-02_13h03.00.660,Parachute,2022.1.1,60.00708083356939,
positive,blue,2,k,None,,,,,,,,,0,27,27,27,,,,,,,,,,,,,,,,,,,,,,,,,,,,,,,,,,,,,main,k,k,1,0.9165775000001304,272.4425653000362,None,None,0,,,,,,,,,,,,,,108,26,Male,2022-05-02_13h03.00.660,Parachute,2022.1.1,60.00708083356939,
negative,blue,2,None,k,,,,,,,,,0,28,28,28,,,,,,,,,,,,,,,,,,,,,,,,,,,,,,,,,,,,,main,None,None,1,1.4936813000240363,274.35940850002225,None,None,1,,,,,,,,,,,,,,108,26,Male,2022-05-02_13h03.00.660,Parachute,2022.1.1,60.00708083356939,
positive,red,1,None,None,,,,,,,,,0,29,29,29,,,,,,,,,,,,,,,,,,,,,,,,,,,,,,,,,,,,,main,None,None,1,1.4985164999961853,276.8565557000111,None,None,1,,,,,,,,,,,,,,108,26,Male,2022-05-02_13h03.00.660,Parachute,2022.1.1,60.00708083356939,
positive,blue,1,k,None,,,,,,,,,0,30,30,30,,,,,,,,,,,,,,,,,,,,,,,,,,,,,,,,,,,,,main,k,k,1,0.9205987000023015,279.35672400001204,None,None,0,,,,,,,,,,,,,,108,26,Male,2022-05-02_13h03.00.660,Parachute,2022.1.1,60.00708083356939,
positive,yellow,1,None,k,,,,,,,,,0,31,31,31,,,,,,,,,,,,,,,,,,,,,,,,,,,,,,,,,,,,,main,None,None,1,1.4934619000414386,281.2760649000411,None,None,1,,,,,,,,,,,,,,108,26,Male,2022-05-02_13h03.00.660,Parachute,2022.1.1,60.00708083356939,
negative,yellow,2,k,None,,,,,,,,,0,32,32,32,,,,,,,,,,,,,,,,,,,,,,,,,,,,,,,,,,,,,main,k,k,1,0.8707723999978043,283.773010600009,None,None,0,,,,,,,,,,,,,,108,26,Male,2022-05-02_13h03.00.660,Parachute,2022.1.1,60.00708083356939,
negative,blue,1,None,k,,,,,,,,,0,33,33,33,,,,,,,,,,,,,,,,,,,,,,,,,,,,,,,,,,,,,main,None,None,1,1.4933092999854125,285.6426487000426,None,None,1,,,,,,,,,,,,,,108,26,Male,2022-05-02_13h03.00.660,Parachute,2022.1.1,60.00708083356939,
positive,blue,1,k,None,,,,,,,,,0,34,34,34,,,,,,,,,,,,,,,,,,,,,,,,,,,,,,,,,,,,,main,k,k,1,0.7704906000290066,288.14004070003284,None,None,0,,,,,,,,,,,,,,108,26,Male,2022-05-02_13h03.00.660,Parachute,2022.1.1,60.00708083356939,
negative,yellow,1,k,None,,,,,,,,,0,35,35,35,,,,,,,,,,,,,,,,,,,,,,,,,,,,,,,,,,,,,main,k,k,1,0.9325684999930672,289.9092543000006,None,None,0,,,,,,,,,,,,,,108,26,Male,2022-05-02_13h03.00.660,Parachute,2022.1.1,60.00708083356939,
positive,yellow,2,None,k,,,,,,,,,0,36,36,36,,,,,,,,,,,,,,,,,,,,,,,,,,,,,,,,,,,,,main,None,None,1,1.4929623000207357,291.8437722000526,None,None,1,,,,,,,,,,,,,,108,26,Male,2022-05-02_13h03.00.660,Parachute,2022.1.1,60.00708083356939,
positive,yellow,2,None,k,,,,,,,,,0,37,37,37,,,,,,,,,,,,,,,,,,,,,,,,,,,,,,,,,,,,,main,None,None,1,1.4987848000018857,294.3398265000433,None,None,1,,,,,,,,,,,,,,108,26,Male,2022-05-02_13h03.00.660,Parachute,2022.1.1,60.00708083356939,
negative,yellow,2,k,None,,,,,,,,,0,38,38,38,,,,,,,,,,,,,,,,,,,,,,,,,,,,,,,,,,,,,main,k,k,1,1.0378972999751568,296.8398847000208,None,None,0,,,,,,,,,,,,,,108,26,Male,2022-05-02_13h03.00.660,Parachute,2022.1.1,60.00708083356939,
positive,yellow,1,None,k,,,,,,,,,0,39,39,39,,,,,,,,,,,,,,,,,,,,,,,,,,,,,,,,,,,,,main,None,None,1,1.4928781000198796,298.8774522000458,None,None,1,,,,,,,,,,,,,,108,26,Male,2022-05-02_13h03.00.660,Parachute,2022.1.1,60.00708083356939,
negative,yellow,2,k,None,,,,,,,,,0,40,40,40,,,,,,,,,,,,,,,,,,,,,,,,,,,,,,,,,,,,,main,k,k,1,0.8208523000357673,301.3748093000031,None,None,0,,,,,,,,,,,,,,108,26,Male,2022-05-02_13h03.00.660,Parachute,2022.1.1,60.00708083356939,
positive,blue,2,k,None,,,,,,,,,0,41,41,41,,,,,,,,,,,,,,,,,,,,,,,,,,,,,,,,,,,,,main,k,k,1,0.8814561999752186,303.19304390001344,None,None,0,,,,,,,,,,,,,,108,26,Male,2022-05-02_13h03.00.660,Parachute,2022.1.1,60.00708083356939,
positive,blue,2,k,None,,,,,,,,,0,42,42,42,,,,,,,,,,,,,,,,,,,,,,,,,,,,,,,,,,,,,main,k,k,1,0.699525999953039,305.0762190000387,None,None,0,,,,,,,,,,,,,,108,26,Male,2022-05-02_13h03.00.660,Parachute,2022.1.1,60.00708083356939,
negative,blue,2,None,k,,,,,,,,,0,43,43,43,,,,,,,,,,,,,,,,,,,,,,,,,,,,,,,,,,,,,main,None,None,1,1.4929859999683686,306.7772737000487,None,None,1,,,,,,,,,,,,,,108,26,Male,2022-05-02_13h03.00.660,Parachute,2022.1.1,60.00708083356939,
negative,red,1,None,None,,,,,,,,,0,44,44,44,,,,,,,,,,,,,,,,,,,,,,,,,,,,,,,,,,,,,main,None,None,1,1.4990803000400774,309.27337629999965,None,None,1,,,,,,,,,,,,,,108,26,Male,2022-05-02_13h03.00.660,Parachute,2022.1.1,60.00708083356939,
negative,yellow,1,k,None,,,,,,,,,0,45,45,45,,,,,,,,,,,,,,,,,,,,,,,,,,,,,,,,,,,,,main,k,k,1,0.9531523999758065,311.7741278000176,None,None,0,,,,,,,,,,,,,,108,26,Male,2022-05-02_13h03.00.660,Parachute,2022.1.1,60.00708083356939,
negative,yellow,1,k,None,,,,,,,,,0,46,46,46,,,,,,,,,,,,,,,,,,,,,,,,,,,,,,,,,,,,,main,k,k,1,0.7144598999875598,313.7263374000322,None,None,0,,,,,,,,,,,,,,108,26,Male,2022-05-02_13h03.00.660,Parachute,2022.1.1,60.00708083356939,
positive,red,1,None,None,,,,,,,,,0,47,47,47,,,,,,,,,,,,,,,,,,,,,,,,,,,,,,,,,,,,,main,None,None,1,1.4947633999981917,315.44318360002944,None,None,1,,,,,,,,,,,,,,108,26,Male,2022-05-02_13h03.00.660,Parachute,2022.1.1,60.00708083356939,
positive,yellow,1,None,k,,,,,,,,,0,48,48,48,,,,,,,,,,,,,,,,,,,,,,,,,,,,,,,,,,,,,main,None,None,1,1.4988269000314176,317.9410066000419,None,None,1,,,,,,,,,,,,,,108,26,Male,2022-05-02_13h03.00.660,Parachute,2022.1.1,60.00708083356939,
negative,blue,1,None,k,,,,,,,,,0,49,49,49,,,,,,,,,,,,,,,,,,,,,,,,,,,,,,,,,,,,,main,None,None,1,1.4983510000165552,320.4404368000105,None,None,1,,,,,,,,,,,,,,108,26,Male,2022-05-02_13h03.00.660,Parachute,2022.1.1,60.00708083356939,
positive,yellow,2,None,k,,,,,,,,,0,50,50,50,,,,,,,,,,,,,,,,,,,,,,,,,,,,,,,,,,,,,main,None,None,1,1.498824100010097,322.9399070000509,None,None,1,,,,,,,,,,,,,,108,26,Male,2022-05-02_13h03.00.660,Parachute,2022.1.1,60.00708083356939,
negative,blue,1,None,k,,,,,,,,,0,51,51,51,,,,,,,,,,,,,,,,,,,,,,,,,,,,,,,,,,,,,main,None,None,1,1.4986236999975517,325.4403980000061,None,None,1,,,,,,,,,,,,,,108,26,Male,2022-05-02_13h03.00.660,Parachute,2022.1.1,60.00708083356939,
positive,red,2,None,None,,,,,,,,,0,52,52,52,,,,,,,,,,,,,,,,,,,,,,,,,,,,,,,,,,,,,main,None,None,1,1.4989225000026636,327.94050810002955,None,None,1,,,,,,,,,,,,,,108,26,Male,2022-05-02_13h03.00.660,Parachute,2022.1.1,60.00708083356939,
positive,yellow,2,None,k,,,,,,,,,0,53,53,53,,,,,,,,,,,,,,,,,,,,,,,,,,,,,,,,,,,,,main,None,None,1,1.4985761999851093,330.44087440002477,None,None,1,,,,,,,,,,,,,,108,26,Male,2022-05-02_13h03.00.660,Parachute,2022.1.1,60.00708083356939,
negative,red,2,None,None,,,,,,,,,0,54,54,54,,,,,,,,,,,,,,,,,,,,,,,,,,,,,,,,,,,,,main,None,None,1,1.4990036999806762,332.94068610004615,None,None,1,,,,,,,,,,,,,,108,26,Male,2022-05-02_13h03.00.660,Parachute,2022.1.1,60.00708083356939,
positive,yellow,1,None,k,,,,,,,,,0,55,55,55,,,,,,,,,,,,,,,,,,,,,,,,,,,,,,,,,,,,,main,None,None,1,1.498388400010299,335.4408101000008,None,None,1,,,,,,,,,,,,,,108,26,Male,2022-05-02_13h03.00.660,Parachute,2022.1.1,60.00708083356939,
negative,blue,2,None,k,,,,,,,,,0,56,56,56,,,,,,,,,,,,,,,,,,,,,,,,,,,,,,,,,,,,,main,None,None,1,1.499089199991431,337.94091200002003,None,None,1,,,,,,,,,,,,,,108,26,Male,2022-05-02_13h03.00.660,Parachute,2022.1.1,60.00708083356939,
positive,blue,1,k,None,,,,,,,,,0,57,57,57,,,,,,,,,,,,,,,,,,,,,,,,,,,,,,,,,,,,,main,k,k,1,1.1877439999952912,340.44083410000894,None,None,0,,,,,,,,,,,,,,108,26,Male,2022-05-02_13h03.00.660,Parachute,2022.1.1,60.00708083356939,
positive,blue,1,k,None,,,,,,,,,0,58,58,58,,,,,,,,,,,,,,,,,,,,,,,,,,,,,,,,,,,,,main,k,k,1,0.7315602999879047,342.62769190000836,None,None,0,,,,,,,,,,,,,,108,26,Male,2022-05-02_13h03.00.660,Parachute,2022.1.1,60.00708083356939,
negative,yellow,2,k,None,,,,,,,,,0,59,59,59,,,,,,,,,,,,,,,,,,,,,,,,,,,,,,,,,,,,,main,k,k,1,0.7234856000286527,344.36033990001306,None,None,0,,,,,,,,,,,,,,108,26,Male,2022-05-02_13h03.00.660,Parachute,2022.1.1,60.00708083356939,
positive,red,2,None,None,,,,,,,,,0,60,60,60,,,,,,,,,,,,,,,,,,,,,,,,,,,,,,,,,,,,,main,None,None,1,1.5019457999733277,346.0886927000247,None,None,1,,,,,,,,,,,,,,108,26,Male,2022-05-02_13h03.00.660,Parachute,2022.1.1,60.00708083356939,
negative,yellow,1,k,None,,,,,,,,,0,61,61,61,,,,,,,,,,,,,,,,,,,,,,,,,,,,,,,,,,,,,main,k,k,1,0.9042094000033103,348.59100690000923,None,None,0,,,,,,,,,,,,,,108,26,Male,2022-05-02_13h03.00.660,Parachute,2022.1.1,60.00708083356939,
negative,red,1,None,None,,,,,,,,,0,62,62,62,,,,,,,,,,,,,,,,,,,,,,,,,,,,,,,,,,,,,main,None,None,1,1.492852800001856,350.4942315000226,None,None,1,,,,,,,,,,,,,,108,26,Male,2022-05-02_13h03.00.660,Parachute,2022.1.1,60.00708083356939,
negative,blue,1,None,k,,,,,,,,,0,63,63,63,,,,,,,,,,,,,,,,,,,,,,,,,,,,,,,,,,,,,main,None,None,1,1.4991946999798529,352.9905032000388,None,None,1,,,,,,,,,,,,,,108,26,Male,2022-05-02_13h03.00.660,Parachute,2022.1.1,60.00708083356939,
positive,blue,2,k,None,,,,,,,,,0,64,64,64,,,,,,,,,,,,,,,,,,,,,,,,,,,,,,,,,,,,,main,k,k,1,0.7042550999904051,355.49132040003315,None,None,0,,,,,,,,,,,,,,108,26,Male,2022-05-02_13h03.00.660,Parachute,2022.1.1,60.00708083356939,
negative,yellow,2,k,None,,,,,,,,,0,65,65,65,,,,,,,,,,,,,,,,,,,,,,,,,,,,,,,,,,,,,main,k,k,1,0.7482078000321053,357.19467180001084,None,None,0,,,,,,,,,,,,,,108,26,Male,2022-05-02_13h03.00.660,Parachute,2022.1.1,60.00708083356939,
positive,yellow,2,None,k,,,,,,,,,0,66,66,66,,,,,,,,,,,,,,,,,,,,,,,,,,,,,,,,,,,,,main,None,None,1,1.4938583999755792,358.94369770004414,None,None,1,,,,,,,,,,,,,,108,26,Male,2022-05-02_13h03.00.660,Parachute,2022.1.1,60.00708083356939,
positive,yellow,2,None,k,,,,,,,,,0,67,67,67,,,,,,,,,,,,,,,,,,,,,,,,,,,,,,,,,,,,,main,None,None,1,1.4987792000174522,361.44166200002655,None,None,1,,,,,,,,,,,,,,108,26,Male,2022-05-02_13h03.00.660,Parachute,2022.1.1,60.00708083356939,
positive,red,1,None,None,,,,,,,,,0,68,68,68,,,,,,,,,,,,,,,,,,,,,,,,,,,,,,,,,,,,,main,None,None,1,1.498888700036332,363.94133830000646,None,None,1,,,,,,,,,,,,,,108,26,Male,2022-05-02_13h03.00.660,Parachute,2022.1.1,60.00708083356939,
positive,yellow,1,None,k,,,,,,,,,0,69,69,69,,,,,,,,,,,,,,,,,,,,,,,,,,,,,,,,,,,,,main,None,None,1,1.4981238000327721,366.441767900018,None,None,1,,,,,,,,,,,,,,108,26,Male,2022-05-02_13h03.00.660,Parachute,2022.1.1,60.00708083356939,
negative,yellow,2,k,None,,,,,,,,,0,70,70,70,,,,,,,,,,,,,,,,,,,,,,,,,,,,,,,,,,,,,main,k,k,1,0.887754799972754,368.9412855000119,None,None,0,,,,,,,,,,,,,,108,26,Male,2022-05-02_13h03.00.660,Parachute,2022.1.1,60.00708083356939,
positive,yellow,1,None,k,,,,,,,,,0,71,71,71,,,,,,,,,,,,,,,,,,,,,,,,,,,,,,,,,,,,,main,None,None,1,1.49304500001017,370.82856630004244,None,None,1,,,,,,,,,,,,,,108,26,Male,2022-05-02_13h03.00.660,Parachute,2022.1.1,60.00708083356939,
negative,blue,1,None,k,,,,,,,,,0,72,72,72,,,,,,,,,,,,,,,,,,,,,,,,,,,,,,,,,,,,,main,None,None,1,1.498888199974317,373.32494880002923,None,None,1,,,,,,,,,,,,,,108,26,Male,2022-05-02_13h03.00.660,Parachute,2022.1.1,60.00708083356939,
negative,red,2,None,None,,,,,,,,,0,73,73,73,,,,,,,,,,,,,,,,,,,,,,,,,,,,,,,,,,,,,main,None,None,1,1.49855880002724,375.82500540005276,None,None,1,,,,,,,,,,,,,,108,26,Male,2022-05-02_13h03.00.660,Parachute,2022.1.1,60.00708083356939,
positive,blue,2,k,None,,,,,,,,,0,74,74,74,,,,,,,,,,,,,,,,,,,,,,,,,,,,,,,,,,,,,main,k,k,1,0.9366363000008278,378.3246286000358,None,None,0,,,,,,,,,,,,,,108,26,Male,2022-05-02_13h03.00.660,Parachute,2022.1.1,60.00708083356939,
negative,blue,2,None,k,,,,,,,,,0,75,75,75,,,,,,,,,,,,,,,,,,,,,,,,,,,,,,,,,,,,,main,None,None,1,1.4944488999899477,380.2610466000042,None,None,1,,,,,,,,,,,,,,108,26,Male,2022-05-02_13h03.00.660,Parachute,2022.1.1,60.00708083356939,
negative,blue,2,None,k,,,,,,,,,0,76,76,76,,,,,,,,,,,,,,,,,,,,,,,,,,,,,,,,,,,,,main,None,None,1,1.498353799979668,382.75848580000456,None,None,1,,,,,,,,,,,,,,108,26,Male,2022-05-02_13h03.00.660,Parachute,2022.1.1,60.00708083356939,
negative,yellow,1,k,None,,,,,,,,,0,77,77,77,,,,,,,,,,,,,,,,,,,,,,,,,,,,,,,,,,,,,main,k,k,1,1.0040263999835588,385.2587344000349,None,None,0,,,,,,,,,,,,,,108,26,Male,2022-05-02_13h03.00.660,Parachute,2022.1.1,60.00708083356939,
positive,blue,1,k,None,,,,,,,,,0,78,78,78,,,,,,,,,,,,,,,,,,,,,,,,,,,,,,,,,,,,,main,k,k,1,0.981676299998071,387.2616879999987,None,None,0,,,,,,,,,,,,,,108,26,Male,2022-05-02_13h03.00.660,Parachute,2022.1.1,60.00708083356939,
positive,blue,1,k,None,,,,,,,,,0,79,79,79,,,,,,,,,,,,,,,,,,,,,,,,,,,,,,,,,,,,,main,k,k,1,0.7490266999811865,389.244370600034,None,None,0,,,,,,,,,,,,,,108,26,Male,2022-05-02_13h03.00.660,Parachute,2022.1.1,60.00708083356939,
positive,red,2,None,None,,,,,,,,,0,80,80,80,,,,,,,,,,,,,,,,,,,,,,,,,,,,,,,,,,,,,main,None,None,1,1.4933116000029258,390.99514020001516,None,None,1,,,,,,,,,,,,,,108,26,Male,2022-05-02_13h03.00.660,Parachute,2022.1.1,60.00708083356939,
positive,yellow,2,None,k,,,,,,,,,0,81,81,81,,,,,,,,,,,,,,,,,,,,,,,,,,,,,,,,,,,,,main,None,None,1,1.4984446999733336,393.4916509000468,None,None,1,,,,,,,,,,,,,,108,26,Male,2022-05-02_13h03.00.660,Parachute,2022.1.1,60.00708083356939,
positive,blue,1,k,None,,,,,,,,,0,82,82,82,,,,,,,,,,,,,,,,,,,,,,,,,,,,,,,,,,,,,main,k,k,1,0.8372640000307001,395.99217470001895,None,None,0,,,,,,,,,,,,,,108,26,Male,2022-05-02_13h03.00.660,Parachute,2022.1.1,60.00708083356939,
negative,yellow,2,k,None,,,,,,,,,0,83,83,83,,,,,,,,,,,,,,,,,,,,,,,,,,,,,,,,,,,,,main,k,k,1,0.9653555999975652,397.82947029999923,None,None,0,,,,,,,,,,,,,,108,26,Male,2022-05-02_13h03.00.660,Parachute,2022.1.1,60.00708083356939,
positive,blue,2,k,None,,,,,,,,,0,84,84,84,,,,,,,,,,,,,,,,,,,,,,,,,,,,,,,,,,,,,main,k,k,1,0.7987296999781393,399.7952585000312,None,None,0,,,,,,,,,,,,,,108,26,Male,2022-05-02_13h03.00.660,Parachute,2022.1.1,60.00708083356939,
positive,yellow,1,None,k,,,,,,,,,0,85,85,85,,,,,,,,,,,,,,,,,,,,,,,,,,,,,,,,,,,,,main,None,None,1,1.4934778999886476,401.5952781000524,None,None,1,,,,,,,,,,,,,,108,26,Male,2022-05-02_13h03.00.660,Parachute,2022.1.1,60.00708083356939,
positive,blue,2,k,None,,,,,,,,,0,86,86,86,,,,,,,,,,,,,,,,,,,,,,,,,,,,,,,,,,,,,main,k,k,1,0.7705583999631926,404.09254160005366,None,None,0,,,,,,,,,,,,,,108,26,Male,2022-05-02_13h03.00.660,Parachute,2022.1.1,60.00708083356939,
positive,blue,1,k,None,,,,,,,,,0,87,87,87,,,,,,,,,,,,,,,,,,,,,,,,,,,,,,,,,,,,,main,k,k,1,1.0819986999849789,405.86206040001707,None,None,0,,,,,,,,,,,,,,108,26,Male,2022-05-02_13h03.00.660,Parachute,2022.1.1,60.00708083356939,
negative,yellow,2,k,None,,,,,,,,,0,88,88,88,,,,,,,,,,,,,,,,,,,,,,,,,,,,,,,,,,,,,main,k,k,1,0.8319585000281222,407.9450968000456,None,None,0,,,,,,,,,,,,,,108,26,Male,2022-05-02_13h03.00.660,Parachute,2022.1.1,60.00708083356939,
negative,blue,2,None,k,,,,,,,,,0,89,89,89,,,,,,,,,,,,,,,,,,,,,,,,,,,,,,,,,,,,,main,None,None,1,1.4932055999524891,409.7783269000356,None,None,1,,,,,,,,,,,,,,108,26,Male,2022-05-02_13h03.00.660,Parachute,2022.1.1,60.00708083356939,
positive,yellow,2,None,k,,,,,,,,,0,90,90,90,,,,,,,,,,,,,,,,,,,,,,,,,,,,,,,,,,,,,main,None,None,1,1.4992271999944933,412.2757526000496,None,None,1,,,,,,,,,,,,,,108,26,Male,2022-05-02_13h03.00.660,Parachute,2022.1.1,60.00708083356939,
negative,yellow,1,k,None,,,,,,,,,0,91,91,91,,,,,,,,,,,,,,,,,,,,,,,,,,,,,,,,,,,,,main,k,k,1,0.8371622000122443,414.7759639000287,None,None,0,,,,,,,,,,,,,,108,26,Male,2022-05-02_13h03.00.660,Parachute,2022.1.1,60.00708083356939,
negative,red,2,None,None,,,,,,,,,0,92,92,92,,,,,,,,,,,,,,,,,,,,,,,,,,,,,,,,,,,,,main,None,None,1,1.4932329999865033,416.61247340001864,None,None,1,,,,,,,,,,,,,,108,26,Male,2022-05-02_13h03.00.660,Parachute,2022.1.1,60.00708083356939,
negative,blue,2,None,k,,,,,,,,,0,93,93,93,,,,,,,,,,,,,,,,,,,,,,,,,,,,,,,,,,,,,main,None,None,1,1.4990590999950655,419.1091443000478,None,None,1,,,,,,,,,,,,,,108,26,Male,2022-05-02_13h03.00.660,Parachute,2022.1.1,60.00708083356939,
negative,blue,1,None,k,,,,,,,,,0,94,94,94,,,,,,,,,,,,,,,,,,,,,,,,,,,,,,,,,,,,,main,None,None,1,1.4987362999818288,421.6086698000436,None,None,1,,,,,,,,,,,,,,108,26,Male,2022-05-02_13h03.00.660,Parachute,2022.1.1,60.00708083356939,
negative,blue,1,None,k,,,,,,,,,0,95,95,95,,,,,,,,,,,,,,,,,,,,,,,,,,,,,,,,,,,,,main,None,None,1,1.4984703000518493,424.109496100049,None,None,1,,,,,,,,,,,,,,108,26,Male,2022-05-02_13h03.00.660,Parachute,2022.1.1,60.00708083356939,
negative,red,1,None,None,,,,,,,,,0,96,96,96,,,,,,,,,,,,,,,,,,,,,,,,,,,,,,,,,,,,,main,None,None,1,1.5036493999650702,426.609289700049,None,None,1,,,,,,,,,,,,,,108,26,Male,2022-05-02_13h03.00.660,Parachute,2022.1.1,60.00708083356939,
positive,yellow,1,None,k,,,,,,,,,0,97,97,97,,,,,,,,,,,,,,,,,,,,,,,,,,,,,,,,,,,,,main,None,None,1,1.4939187000272796,429.11307000002125,None,None,1,,,,,,,,,,,,,,108,26,Male,2022-05-02_13h03.00.660,Parachute,2022.1.1,60.00708083356939,
negative,yellow,1,k,None,,,,,,,,,0,98,98,98,,,,,,,,,,,,,,,,,,,,,,,,,,,,,,,,,,,,,main,k,k,1,0.9703888999647461,431.60969520005165,None,None,0,,,,,,,,,,,,,,108,26,Male,2022-05-02_13h03.00.660,Parachute,2022.1.1,60.00708083356939,
positive,red,1,None,None,,,,,,,,,0,99,99,99,,,,,,,,,,,,,,,,,,,,,,,,,,,,,,,,,,,,,main,None,None,1,1.5093712999951094,433.5804571000044,None,None,1,,,,,,,,,,,,,,108,26,Male,2022-05-02_13h03.00.660,Parachute,2022.1.1,60.00708083356939,
positive,blue,1,k,None,,,,,,,,,0,100,100,100,,,,,,,,,,,,,,,,,,,,,,,,,,,,,,,,,,,,,main,k,k,1,0.8869784999988042,436.09356440004194,None,None,0,,,,,,,,,,,,,,108,26,Male,2022-05-02_13h03.00.660,Parachute,2022.1.1,60.00708083356939,
negative,yellow,1,k,None,,,,,,,,,0,101,101,101,,,,,,,,,,,,,,,,,,,,,,,,,,,,,,,,,,,,,main,k,k,1,0.8823197999736294,437.97897060000105,None,None,0,,,,,,,,,,,,,,108,26,Male,2022-05-02_13h03.00.660,Parachute,2022.1.1,60.00708083356939,
negative,blue,2,None,k,,,,,,,,,0,102,102,102,,,,,,,,,,,,,,,,,,,,,,,,,,,,,,,,,,,,,main,None,None,1,1.4932847000309266,439.8637993000448,None,None,1,,,,,,,,,,,,,,108,26,Male,2022-05-02_13h03.00.660,Parachute,2022.1.1,60.00708083356939,
negative,yellow,2,k,None,,,,,,,,,0,103,103,103,,,,,,,,,,,,,,,,,,,,,,,,,,,,,,,,,,,,,main,k,k,1,1.0515012000105344,442.35984190000454,None,None,0,,,,,,,,,,,,,,108,26,Male,2022-05-02_13h03.00.660,Parachute,2022.1.1,60.00708083356939,
positive,yellow,2,None,k,,,,,,,,,0,104,104,104,,,,,,,,,,,,,,,,,,,,,,,,,,,,,,,,,,,,,main,None,None,1,1.4957167000393383,444.4123194999993,None,None,1,,,,,,,,,,,,,,108,26,Male,2022-05-02_13h03.00.660,Parachute,2022.1.1,60.00708083356939,
positive,blue,1,k,None,,,,,,,,,0,105,105,105,,,,,,,,,,,,,,,,,,,,,,,,,,,,,,,,,,,,,main,k,k,1,0.9037342999945395,446.909655400028,None,None,0,,,,,,,,,,,,,,108,26,Male,2022-05-02_13h03.00.660,Parachute,2022.1.1,60.00708083356939,
positive,blue,2,k,None,,,,,,,,,0,106,106,106,,,,,,,,,,,,,,,,,,,,,,,,,,,,,,,,,,,,,main,k,k,1,0.7656534000416286,448.812829100003,None,None,0,,,,,,,,,,,,,,108,26,Male,2022-05-02_13h03.00.660,Parachute,2022.1.1,60.00708083356939,
negative,blue,1,None,k,,,,,,,,,0,107,107,107,,,,,,,,,,,,,,,,,,,,,,,,,,,,,,,,,,,,,main,None,None,1,1.493257399997674,450.5796957000275,None,None,1,,,,,,,,,,,,,,108,26,Male,2022-05-02_13h03.00.660,Parachute,2022.1.1,60.00708083356939,
positive,yellow,2,None,k,,,,,,,,,0,108,108,108,,,,,,,,,,,,,,,,,,,,,,,,,,,,,,,,,,,,,main,None,None,1,1.4992517000064254,453.07696810003836,None,None,1,,,,,,,,,,,,,,108,26,Male,2022-05-02_13h03.00.660,Parachute,2022.1.1,60.00708083356939,
negative,yellow,1,k,None,,,,,,,,,0,109,109,109,,,,,,,,,,,,,,,,,,,,,,,,,,,,,,,,,,,,,main,k,k,1,0.8038065999862738,455.5772459,None,None,0,,,,,,,,,,,,,,108,26,Male,2022-05-02_13h03.00.660,Parachute,2022.1.1,60.00708083356939,
negative,blue,2,None,k,,,,,,,,,0,110,110,110,,,,,,,,,,,,,,,,,,,,,,,,,,,,,,,,,,,,,main,None,None,1,1.4932530999649316,457.3800359000452,None,None,1,,,,,,,,,,,,,,108,26,Male,2022-05-02_13h03.00.660,Parachute,2022.1.1,60.00708083356939,
positive,blue,2,k,None,,,,,,,,,0,111,111,111,,,,,,,,,,,,,,,,,,,,,,,,,,,,,,,,,,,,,main,k,k,1,0.7699318999657407,459.8769236000371,None,None,0,,,,,,,,,,,,,,108,26,Male,2022-05-02_13h03.00.660,Parachute,2022.1.1,60.00708083356939,
negative,blue,1,None,k,,,,,,,,,0,112,112,112,,,,,,,,,,,,,,,,,,,,,,,,,,,,,,,,,,,,,main,None,None,1,1.4925969000323676,461.6471499000327,None,None,1,,,,,,,,,,,,,,108,26,Male,2022-05-02_13h03.00.660,Parachute,2022.1.1,60.00708083356939,
positive,yellow,1,None,k,,,,,,,,,0,113,113,113,,,,,,,,,,,,,,,,,,,,,,,,,,,,,,,,,,,,,main,None,None,1,1.497304799966514,464.14441700000316,None,None,1,,,,,,,,,,,,,,108,26,Male,2022-05-02_13h03.00.660,Parachute,2022.1.1,60.00708083356939,
negative,red,1,None,None,,,,,,,,,0,114,114,114,,,,,,,,,,,,,,,,,,,,,,,,,,,,,,,,,,,,,main,None,None,1,1.498410900007002,466.6438462000224,None,None,1,,,,,,,,,,,,,,108,26,Male,2022-05-02_13h03.00.660,Parachute,2022.1.1,60.00708083356939,
positive,red,1,None,None,,,,,,,,,0,115,115,115,,,,,,,,,,,,,,,,,,,,,,,,,,,,,,,,,,,,,main,None,None,1,1.4974832000443712,469.14502840000205,None,None,1,,,,,,,,,,,,,,108,26,Male,2022-05-02_13h03.00.660,Parachute,2022.1.1,60.00708083356939,
negative,red,2,None,None,,,,,,,,,0,116,116,116,,,,,,,,,,,,,,,,,,,,,,,,,,,,,,,,,,,,,main,None,None,1,1.497594099957496,471.64546850003535,None,None,1,,,,,,,,,,,,,,108,26,Male,2022-05-02_13h03.00.660,Parachute,2022.1.1,60.00708083356939,
negative,yellow,2,k,None,,,,,,,,,0,117,117,117,,,,,,,,,,,,,,,,,,,,,,,,,,,,,,,,,,,,,main,k,k,1,0.8869640000048093,474.14468950004084,None,None,0,,,,,,,,,,,,,,108,26,Male,2022-05-02_13h03.00.660,Parachute,2022.1.1,60.00708083356939,
positive,yellow,1,None,k,,,,,,,,,0,118,118,118,,,,,,,,,,,,,,,,,,,,,,,,,,,,,,,,,,,,,main,None,None,1,1.509838199999649,476.0302394000464,None,None,1,,,,,,,,,,,,,,108,26,Male,2022-05-02_13h03.00.660,Parachute,2022.1.1,60.00708083356939,
positive,red,2,None,None,,,,,,,,,0,119,119,119,,,,,,,,,,,,,,,,,,,,,,,,,,,,,,,,,,,,,main,None,None,1,1.4989919000072405,478.5438549000537,None,None,1,,,,,,,,,,,,,,108,26,Male,2022-05-02_13h03.00.660,Parachute,2022.1.1,60.00708083356939,
positive,blue,2,k,None,,,,,,,,,0,120,120,120,,,,,,,,,,,,,,,,,,,,,,,,,,,,,,,,,,,,,main,k,k,1,0.8709781999932602,481.0448994000326,None,None,0,,,,,,,,,,,,,,108,26,Male,2022-05-02_13h03.00.660,Parachute,2022.1.1,60.00708083356939,
negative,red,1,None,None,,,,,,,,,0,121,121,121,,,,,,,,,,,,,,,,,,,,,,,,,,,,,,,,,,,,,main,None,None,1,1.4929101000307128,482.9142887000344,None,None,1,,,,,,,,,,,,,,108,26,Male,2022-05-02_13h03.00.660,Parachute,2022.1.1,60.00708083356939,
positive,yellow,2,None,k,,,,,,,,,0,122,122,122,,,,,,,,,,,,,,,,,,,,,,,,,,,,,,,,,,,,,main,None,None,1,1.4983619000413455,485.4108548000222,None,None,1,,,,,,,,,,,,,,108,26,Male,2022-05-02_13h03.00.660,Parachute,2022.1.1,60.00708083356939,
negative,red,2,None,None,,,,,,,,,0,123,123,123,,,,,,,,,,,,,,,,,,,,,,,,,,,,,,,,,,,,,main,None,None,1,1.49935739999637,487.91086040000664,None,None,1,,,,,,,,,,,,,,108,26,Male,2022-05-02_13h03.00.660,Parachute,2022.1.1,60.00708083356939,
negative,yellow,2,k,None,,,,,,,,,0,124,124,124,,,,,,,,,,,,,,,,,,,,,,,,,,,,,,,,,,,,,main,k,k,1,1.0204116000095382,490.4106931000133,None,None,0,,,,,,,,,,,,,,108,26,Male,2022-05-02_13h03.00.660,Parachute,2022.1.1,60.00708083356939,
positive,red,1,None,None,,,,,,,,,0,125,125,125,,,,,,,,,,,,,,,,,,,,,,,,,,,,,,,,,,,,,main,None,None,1,1.493216399976518,492.4299455000437,None,None,1,,,,,,,,,,,,,,108,26,Male,2022-05-02_13h03.00.660,Parachute,2022.1.1,60.00708083356939,
negative,blue,2,None,k,,,,,,,,,0,126,126,126,,,,,,,,,,,,,,,,,,,,,,,,,,,,,,,,,,,,,main,None,None,1,1.498313300020527,494.9277074999991,None,None,1,,,,,,,,,,,,,,108,26,Male,2022-05-02_13h03.00.660,Parachute,2022.1.1,60.00708083356939,
negative,blue,1,None,k,,,,,,,,,0,127,127,127,,,,,,,,,,,,,,,,,,,,,,,,,,,,,,,,,,,,,main,None,None,1,1.498994000023231,497.427009200037,None,None,1,,,,,,,,,,,,,,108,26,Male,2022-05-02_13h03.00.660,Parachute,2022.1.1,60.00708083356939,
negative,yellow,1,k,None,,,,,,,,,0,128,128,128,,,,,,,,,,,,,,,,,,,,,,,,,,,,,,,,,,,,,main,k,k,1,1.0211096000275575,499.9274084000499,None,None,0,,,,,,,,,,,,,,108,26,Male,2022-05-02_13h03.00.660,Parachute,2022.1.1,60.00708083356939,
negative,yellow,1,k,None,,,,,,,,,0,129,129,129,,,,,,,,,,,,,,,,,,,,,,,,,,,,,,,,,,,,,main,k,k,1,0.7652379000210203,501.94751910003833,None,None,0,,,,,,,,,,,,,,108,26,Male,2022-05-02_13h03.00.660,Parachute,2022.1.1,60.00708083356939,
positive,blue,1,k,None,,,,,,,,,0,130,130,130,,,,,,,,,,,,,,,,,,,,,,,,,,,,,,,,,,,,,main,k,k,1,0.7654493000009097,503.7140290000243,None,None,0,,,,,,,,,,,,,,108,26,Male,2022-05-02_13h03.00.660,Parachute,2022.1.1,60.00708083356939,
negative,blue,1,None,k,,,,,,,,,0,131,131,131,,,,,,,,,,,,,,,,,,,,,,,,,,,,,,,,,,,,,main,None,None,1,1.4928706999635324,505.4809875000501,None,None,1,,,,,,,,,,,,,,108,26,Male,2022-05-02_13h03.00.660,Parachute,2022.1.1,60.00708083356939,
negative,blue,2,None,k,,,,,,,,,0,132,132,132,,,,,,,,,,,,,,,,,,,,,,,,,,,,,,,,,,,,,main,None,None,1,1.4990897999959998,507.97733720002,None,None,1,,,,,,,,,,,,,,108,26,Male,2022-05-02_13h03.00.660,Parachute,2022.1.1,60.00708083356939,
positive,blue,2,k,None,,,,,,,,,0,133,133,133,,,,,,,,,,,,,,,,,,,,,,,,,,,,,,,,,,,,,main,k,k,1,0.7557468999875709,510.4776861999999,None,None,0,,,,,,,,,,,,,,108,26,Male,2022-05-02_13h03.00.660,Parachute,2022.1.1,60.00708083356939,
positive,red,2,None,None,,,,,,,,,0,134,134,134,,,,,,,,,,,,,,,,,,,,,,,,,,,,,,,,,,,,,main,None,None,1,1.50886519998312,512.2325925000478,None,None,1,,,,,,,,,,,,,,108,26,Male,2022-05-02_13h03.00.660,Parachute,2022.1.1,60.00708083356939,
negative,yellow,2,k,None,,,,,,,,,0,135,135,135,,,,,,,,,,,,,,,,,,,,,,,,,,,,,,,,,,,,,main,k,k,1,0.8043972000014037,514.7451419000281,None,None,0,,,,,,,,,,,,,,108,26,Male,2022-05-02_13h03.00.660,Parachute,2022.1.1,60.00708083356939,
positive,yellow,2,None,k,,,,,,,,,0,136,136,136,,,,,,,,,,,,,,,,,,,,,,,,,,,,,,,,,,,,,main,None,None,1,1.4921036000014283,516.555479600036,None,None,1,,,,,,,,,,,,,,108,26,Male,2022-05-02_13h03.00.660,Parachute,2022.1.1,60.00708083356939,
positive,blue,1,k,None,,,,,,,,,0,137,137,137,,,,,,,,,,,,,,,,,,,,,,,,,,,,,,,,,,,,,main,k,k,1,0.8213283999939449,519.0439084999962,None,None,0,,,,,,,,,,,,,,108,26,Male,2022-05-02_13h03.00.660,Parachute,2022.1.1,60.00708083356939,
positive,yellow,1,None,k,,,,,,,,,0,138,138,138,,,,,,,,,,,,,,,,,,,,,,,,,,,,,,,,,,,,,main,None,None,1,1.49279970000498,520.8644359000027,None,None,1,,,,,,,,,,,,,,108,26,Male,2022-05-02_13h03.00.660,Parachute,2022.1.1,60.00708083356939,
positive,yellow,1,None,k,,,,,,,,,0,139,139,139,,,,,,,,,,,,,,,,,,,,,,,,,,,,,,,,,,,,,main,None,None,1,1.4988624000106938,523.3607568000443,None,None,1,,,,,,,,,,,,,,108,26,Male,2022-05-02_13h03.00.660,Parachute,2022.1.1,60.00708083356939,
positive,yellow,1,None,k,,,,,,,,,0,140,140,140,,,,,,,,,,,,,,,,,,,,,,,,,,,,,,,,,,,,,main,None,None,1,1.4983896999619901,525.8607622000272,None,None,1,,,,,,,,,,,,,,108,26,Male,2022-05-02_13h03.00.660,Parachute,2022.1.1,60.00708083356939,
positive,blue,1,k,None,,,,,,,,,0,141,141,141,,,,,,,,,,,,,,,,,,,,,,,,,,,,,,,,,,,,,main,k,k,1,0.9869994000182487,528.3602709000115,None,None,0,,,,,,,,,,,,,,108,26,Male,2022-05-02_13h03.00.660,Parachute,2022.1.1,60.00708083356939,
positive,blue,2,k,None,,,,,,,,,0,142,142,142,,,,,,,,,,,,,,,,,,,,,,,,,,,,,,,,,,,,,main,k,k,1,0.8506700999569148,530.34747410001,None,None,0,,,,,,,,,,,,,,108,26,Male,2022-05-02_13h03.00.660,Parachute,2022.1.1,60.00708083356939,
positive,yellow,2,None,k,,,,,,,,,0,143,143,143,,,,,,,,,,,,,,,,,,,,,,,,,,,,,,,,,,,,,main,None,None,1,1.4928908000001684,532.1987965000444,None,None,1,,,,,,,,,,,,,,108,26,Male,2022-05-02_13h03.00.660,Parachute,2022.1.1,60.00708083356939,
negative,yellow,2,k,None,,,,,,,,,0,144,144,144,,,,,,,,,,,,,,,,,,,,,,,,,,,,,,,,,,,,,main,k,k,1,0.7804579000221565,534.6951145000057,None,None,0,,,,,,,,,,,,,,108,26,Male,2022-05-02_13h03.00.660,Parachute,2022.1.1,60.00708083356939,
negative,blue,2,None,k,,,,,,,,,0,145,145,145,,,,,,,,,,,,,,,,,,,,,,,,,,,,,,,,,,,,,main,None,None,1,1.5001356999855489,536.4771273000515,None,None,1,,,,,,,,,,,,,,108,26,Male,2022-05-02_13h03.00.660,Parachute,2022.1.1,60.00708083356939,
negative,red,1,None,None,,,,,,,,,0,146,146,146,,,,,,,,,,,,,,,,,,,,,,,,,,,,,,,,,,,,,main,None,None,1,1.4984245999949053,538.9782717000344,None,None,1,,,,,,,,,,,,,,108,26,Male,2022-05-02_13h03.00.660,Parachute,2022.1.1,60.00708083356939,
positive,blue,1,k,None,,,,,,,,,0,147,147,147,,,,,,,,,,,,,,,,,,,,,,,,,,,,,,,,,,,,,main,k,k,1,0.9034486999735236,541.4782888000482,None,None,0,,,,,,,,,,,,,,108,26,Male,2022-05-02_13h03.00.660,Parachute,2022.1.1,60.00708083356939,
positive,yellow,1,None,k,,,,,,,,,0,148,148,148,,,,,,,,,,,,,,,,,,,,,,,,,,,,,,,,,,,,,main,None,None,1,1.4936991999857128,543.3813335000305,None,None,1,,,,,,,,,,,,,,108,26,Male,2022-05-02_13h03.00.660,Parachute,2022.1.1,60.00708083356939,
negative,red,2,None,None,,,,,,,,,0,149,149,149,,,,,,,,,,,,,,,,,,,,,,,,,,,,,,,,,,,,,main,None,None,1,1.4987955000251532,545.8791723000468,None,None,1,,,,,,,,,,,,,,108,26,Male,2022-05-02_13h03.00.660,Parachute,2022.1.1,60.00708083356939,
negative,blue,1,None,k,,,,,,,,,0,150,150,150,,,,,,,,,,,,,,,,,,,,,,,,,,,,,,,,,,,,,main,None,None,1,1.4980657999985851,548.3800929000136,None,None,1,,,,,,,,,,,,,,108,26,Male,2022-05-02_13h03.00.660,Parachute,2022.1.1,60.00708083356939,
negative,yellow,2,k,None,,,,,,,,,0,151,151,151,,,,,,,,,,,,,,,,,,,,,,,,,,,,,,,,,,,,,main,k,k,1,0.8211484999628738,550.8789209999959,None,None,0,,,,,,,,,,,,,,108,26,Male,2022-05-02_13h03.00.660,Parachute,2022.1.1,60.00708083356939,
negative,blue,2,None,k,,,,,,,,,0,152,152,152,,,,,,,,,,,,,,,,,,,,,,,,,,,,,,,,,,,,,main,None,None,1,1.4930535999592394,552.6978028000449,None,None,1,,,,,,,,,,,,,,108,26,Male,2022-05-02_13h03.00.660,Parachute,2022.1.1,60.00708083356939,
negative,yellow,1,k,None,,,,,,,,,0,153,153,153,,,,,,,,,,,,,,,,,,,,,,,,,,,,,,,,,,,,,main,k,k,1,0.787575900030788,555.1952275000513,None,None,0,,,,,,,,,,,,,,108,26,Male,2022-05-02_13h03.00.660,Parachute,2022.1.1,60.00708083356939,
negative,blue,1,None,k,,,,,,,,,0,154,154,154,,,,,,,,,,,,,,,,,,,,,,,,,,,,,,,,,,,,,main,None,None,1,1.4938321000081487,556.9816517000436,None,None,1,,,,,,,,,,,,,,108,26,Male,2022-05-02_13h03.00.660,Parachute,2022.1.1,60.00708083356939,
positive,yellow,2,None,k,,,,,,,,,0,155,155,155,,,,,,,,,,,,,,,,,,,,,,,,,,,,,,,,,,,,,main,None,None,1,1.4979953999863937,559.4797486000462,None,None,1,,,,,,,,,,,,,,108,26,Male,2022-05-02_13h03.00.660,Parachute,2022.1.1,60.00708083356939,
positive,red,2,None,None,,,,,,,,,0,156,156,156,,,,,,,,,,,,,,,,,,,,,,,,,,,,,,,,,,,,,main,None,None,1,1.498752899991814,561.9781283000484,None,None,1,,,,,,,,,,,,,,108,26,Male,2022-05-02_13h03.00.660,Parachute,2022.1.1,60.00708083356939,
positive,red,1,None,None,,,,,,,,,0,157,157,157,,,,,,,,,,,,,,,,,,,,,,,,,,,,,,,,,,,,,main,None,None,1,1.4987749000429176,564.4783256000374,None,None,1,,,,,,,,,,,,,,108,26,Male,2022-05-02_13h03.00.660,Parachute,2022.1.1,60.00708083356939,
positive,blue,2,k,None,,,,,,,,,0,158,158,158,,,,,,,,,,,,,,,,,,,,,,,,,,,,,,,,,,,,,main,k,k,1,0.7710306000080891,566.978622900031,None,None,0,,,,,,,,,,,,,,108,26,Male,2022-05-02_13h03.00.660,Parachute,2022.1.1,60.00708083356939,
negative,yellow,1,k,None,,,,,,,,,0,159,159,159,,,,,,,,,,,,,,,,,,,,,,,,,,,,,,,,,,,,,main,k,k,1,0.8731673000147566,568.7491573000443,None,None,0,,,,,,,,,,,,,,108,26,Male,2022-05-02_13h03.00.660,Parachute,2022.1.1,60.00708083356939,
negative,red,2,None,None,,,,,,,,,0,160,160,160,,,,,,,,,,,,,,,,,,,,,,,,,,,,,,,,,,,,,main,None,None,1,1.5013320000143722,570.6262566000223,None,None,1,,,,,,,,,,,,,,108,26,Male,2022-05-02_13h03.00.660,Parachute,2022.1.1,60.00708083356939,
negative,blue,1,None,k,,,,,,,,,0,161,161,161,,,,,,,,,,,,,,,,,,,,,,,,,,,,,,,,,,,,,main,None,None,1,1.4994215999613516,573.1288946000277,None,None,1,,,,,,,,,,,,,,108,26,Male,2022-05-02_13h03.00.660,Parachute,2022.1.1,60.00708083356939,
negative,blue,1,None,k,,,,,,,,,0,162,162,162,,,,,,,,,,,,,,,,,,,,,,,,,,,,,,,,,,,,,main,None,None,1,1.4986353000276722,575.6292263000505,None,None,1,,,,,,,,,,,,,,108,26,Male,2022-05-02_13h03.00.660,Parachute,2022.1.1,60.00708083356939,
negative,yellow,1,k,None,,,,,,,,,0,163,163,163,,,,,,,,,,,,,,,,,,,,,,,,,,,,,,,,,,,,,main,k,k,1,0.8205214999616146,578.1289838000084,None,None,0,,,,,,,,,,,,,,108,26,Male,2022-05-02_13h03.00.660,Parachute,2022.1.1,60.00708083356939,
negative,yellow,1,k,None,,,,,,,,,0,164,164,164,,,,,,,,,,,,,,,,,,,,,,,,,,,,,,,,,,,,,main,k,k,1,0.798720599967055,579.9484676000429,None,None,0,,,,,,,,,,,,,,108,26,Male,2022-05-02_13h03.00.660,Parachute,2022.1.1,60.00708083356939,
positive,yellow,1,None,k,,,,,,,,,0,165,165,165,,,,,,,,,,,,,,,,,,,,,,,,,,,,,,,,,,,,,main,None,None,1,1.4935494000092149,581.7488662000396,None,None,1,,,,,,,,,,,,,,108,26,Male,2022-05-02_13h03.00.660,Parachute,2022.1.1,60.00708083356939,
negative,red,1,None,None,,,,,,,,,0,166,166,166,,,,,,,,,,,,,,,,,,,,,,,,,,,,,,,,,,,,,main,None,None,1,1.4984700999921188,584.2458774000406,None,None,1,,,,,,,,,,,,,,108,26,Male,2022-05-02_13h03.00.660,Parachute,2022.1.1,60.00708083356939,
negative,yellow,2,k,None,,,,,,,,,0,167,167,167,,,,,,,,,,,,,,,,,,,,,,,,,,,,,,,,,,,,,main,k,k,1,0.7536391000030562,586.7458454000298,None,None,0,,,,,,,,,,,,,,108,26,Male,2022-05-02_13h03.00.660,Parachute,2022.1.1,60.00708083356939,
positive,blue,2,k,None,,,,,,,,,0,168,168,168,,,,,,,,,,,,,,,,,,,,,,,,,,,,,,,,,,,,,main,k,k,1,0.6489722999976948,588.4988537000027,None,None,0,,,,,,,,,,,,,,108,26,Male,2022-05-02_13h03.00.660,Parachute,2022.1.1,60.00708083356939,
positive,red,2,None,None,,,,,,,,,0,169,169,169,,,,,,,,,,,,,,,,,,,,,,,,,,,,,,,,,,,,,main,None,None,1,1.4934663000167347,590.1489538000314,None,None,1,,,,,,,,,,,,,,108,26,Male,2022-05-02_13h03.00.660,Parachute,2022.1.1,60.00708083356939,
positive,red,1,None,None,,,,,,,,,0,170,170,170,,,,,,,,,,,,,,,,,,,,,,,,,,,,,,,,,,,,,main,None,None,1,1.499050399987027,592.6456414000131,None,None,1,,,,,,,,,,,,,,108,26,Male,2022-05-02_13h03.00.660,Parachute,2022.1.1,60.00708083356939,
negative,blue,2,None,k,,,,,,,,,0,171,171,171,,,,,,,,,,,,,,,,,,,,,,,,,,,,,,,,,,,,,main,None,None,1,1.498589799972251,595.1464552000398,None,None,1,,,,,,,,,,,,,,108,26,Male,2022-05-02_13h03.00.660,Parachute,2022.1.1,60.00708083356939,
positive,blue,2,k,None,,,,,,,,,0,172,172,172,,,,,,,,,,,,,,,,,,,,,,,,,,,,,,,,,,,,,main,k,k,1,0.5695354999625124,597.6460611000075,None,None,0,,,,,,,,,,,,,,108,26,Male,2022-05-02_13h03.00.660,Parachute,2022.1.1,60.00708083356939,
negative,yellow,2,k,None,,,,,,,,,0,173,173,173,,,,,,,,,,,,,,,,,,,,,,,,,,,,,,,,,,,,,main,k,k,1,1.049679499992635,599.2159257000312,None,None,0,,,,,,,,,,,,,,108,26,Male,2022-05-02_13h03.00.660,Parachute,2022.1.1,60.00708083356939,
positive,yellow,2,None,k,,,,,,,,,0,174,174,174,,,,,,,,,,,,,,,,,,,,,,,,,,,,,,,,,,,,,main,None,None,1,1.493694200005848,601.2657068000408,None,None,1,,,,,,,,,,,,,,108,26,Male,2022-05-02_13h03.00.660,Parachute,2022.1.1,60.00708083356939,
negative,blue,2,None,k,,,,,,,,,0,175,175,175,,,,,,,,,,,,,,,,,,,,,,,,,,,,,,,,,,,,,main,None,None,1,1.4988336999667808,603.7624589000479,None,None,1,,,,,,,,,,,,,,108,26,Male,2022-05-02_13h03.00.660,Parachute,2022.1.1,60.00708083356939,
positive,blue,1,k,None,,,,,,,,,0,176,176,176,,,,,,,,,,,,,,,,,,,,,,,,,,,,,,,,,,,,,main,k,k,1,0.9209016999811865,606.2624441000517,None,None,0,,,,,,,,,,,,,,108,26,Male,2022-05-02_13h03.00.660,Parachute,2022.1.1,60.00708083356939,
positive,yellow,1,None,k,,,,,,,,,0,177,177,177,,,,,,,,,,,,,,,,,,,,,,,,,,,,,,,,,,,,,main,None,None,1,1.493355300044641,608.1824725000188,None,None,1,,,,,,,,,,,,,,108,26,Male,2022-05-02_13h03.00.660,Parachute,2022.1.1,60.00708083356939,
positive,blue,1,k,None,,,,,,,,,0,178,178,178,,,,,,,,,,,,,,,,,,,,,,,,,,,,,,,,,,,,,main,k,k,1,0.8539629000006244,610.6798883000156,None,None,0,,,,,,,,,,,,,,108,26,Male,2022-05-02_13h03.00.660,Parachute,2022.1.1,60.00708083356939,
positive,yellow,2,None,k,,,,,,,,,0,179,179,179,,,,,,,,,,,,,,,,,,,,,,,,,,,,,,,,,,,,,main,None,None,1,1.4930586999980733,612.5331221000524,None,None,1,,,,,,,,,,,,,,108,26,Male,2022-05-02_13h03.00.660,Parachute,2022.1.1,60.00708083356939,
positive,blue,1,k,None,,,,,,,,,0,180,180,180,,,,,,,,,,,,,,,,,,,,,,,,,,,,,,,,,,,,,main,k,k,1,0.9373373999842443,615.0295452999999,None,None,0,,,,,,,,,,,,,,108,26,Male,2022-05-02_13h03.00.660,Parachute,2022.1.1,60.00708083356939,
negative,red,1,None,None,,,,,,,,,0,181,181,181,,,,,,,,,,,,,,,,,,,,,,,,,,,,,,,,,,,,,main,None,None,1,1.4931023000390269,616.9659396000206,None,None,1,,,,,,,,,,,,,,108,26,Male,2022-05-02_13h03.00.660,Parachute,2022.1.1,60.00708083356939,
negative,blue,1,None,k,,,,,,,,,0,182,182,182,,,,,,,,,,,,,,,,,,,,,,,,,,,,,,,,,,,,,main,None,None,1,1.499127099988982,619.4641146000358,None,None,1,,,,,,,,,,,,,,108,26,Male,2022-05-02_13h03.00.660,Parachute,2022.1.1,60.00708083356939,
negative,yellow,2,k,None,,,,,,,,,0,183,183,183,,,,,,,,,,,,,,,,,,,,,,,,,,,,,,,,,,,,,main,k,k,1,1.1709268999984488,621.9641081000445,None,None,0,,,,,,,,,,,,,,108,26,Male,2022-05-02_13h03.00.660,Parachute,2022.1.1,60.00708083356939,
positive,yellow,2,None,k,,,,,,,,,0,184,184,184,,,,,,,,,,,,,,,,,,,,,,,,,,,,,,,,,,,,,main,None,None,1,1.4935530999791808,624.132839500031,None,None,1,,,,,,,,,,,,,,108,26,Male,2022-05-02_13h03.00.660,Parachute,2022.1.1,60.00708083356939,
positive,yellow,1,None,k,,,,,,,,,0,185,185,185,,,,,,,,,,,,,,,,,,,,,,,,,,,,,,,,,,,,,main,None,None,1,1.4980969000025652,626.6305163000361,None,None,1,,,,,,,,,,,,,,108,26,Male,2022-05-02_13h03.00.660,Parachute,2022.1.1,60.00708083356939,
positive,red,2,None,None,,,,,,,,,0,186,186,186,,,,,,,,,,,,,,,,,,,,,,,,,,,,,,,,,,,,,main,None,None,1,1.4989807999809273,629.1293627000414,None,None,1,,,,,,,,,,,,,,108,26,Male,2022-05-02_13h03.00.660,Parachute,2022.1.1,60.00708083356939,
positive,blue,1,k,None,,,,,,,,,0,187,187,187,,,,,,,,,,,,,,,,,,,,,,,,,,,,,,,,,,,,,main,k,k,1,0.737546399992425,631.6298523000441,None,None,0,,,,,,,,,,,,,,108,26,Male,2022-05-02_13h03.00.660,Parachute,2022.1.1,60.00708083356939,
negative,yellow,1,k,None,,,,,,,,,0,188,188,188,,,,,,,,,,,,,,,,,,,,,,,,,,,,,,,,,,,,,main,k,k,1,1.0991800000192598,633.366818700044,None,None,0,,,,,,,,,,,,,,108,26,Male,2022-05-02_13h03.00.660,Parachute,2022.1.1,60.00708083356939,
positive,yellow,2,None,k,,,,,,,,,0,189,189,189,,,,,,,,,,,,,,,,,,,,,,,,,,,,,,,,,,,,,main,None,None,1,1.4929856000235304,635.4668897000374,None,None,1,,,,,,,,,,,,,,108,26,Male,2022-05-02_13h03.00.660,Parachute,2022.1.1,60.00708083356939,
negative,yellow,2,k,None,,,,,,,,,0,190,190,190,,,,,,,,,,,,,,,,,,,,,,,,,,,,,,,,,,,,,main,k,k,1,0.787617499998305,637.9633781000157,None,None,0,,,,,,,,,,,,,,108,26,Male,2022-05-02_13h03.00.660,Parachute,2022.1.1,60.00708083356939,
negative,yellow,1,k,None,,,,,,,,,0,191,191,191,,,,,,,,,,,,,,,,,,,,,,,,,,,,,,,,,,,,,main,k,k,1,0.9651256000506692,639.7511493000202,None,None,0,,,,,,,,,,,,,,108,26,Male,2022-05-02_13h03.00.660,Parachute,2022.1.1,60.00708083356939,
positive,blue,2,k,None,,,,,,,,,0,192,192,192,,,,,,,,,,,,,,,,,,,,,,,,,,,,,,,,,,,,,main,k,k,1,0.6151927000028081,641.7167251000064,None,None,0,,,,,,,,,,,,,,108,26,Male,2022-05-02_13h03.00.660,Parachute,2022.1.1,60.00708083356939,
positive,yellow,1,None,k,,,,,,,,,0,193,193,193,,,,,,,,,,,,,,,,,,,,,,,,,,,,,,,,,,,,,main,None,None,1,1.4931719999876805,643.3332092000055,None,None,1,,,,,,,,,,,,,,108,26,Male,2022-05-02_13h03.00.660,Parachute,2022.1.1,60.00708083356939,
negative,red,2,None,None,,,,,,,,,0,194,194,194,,,,,,,,,,,,,,,,,,,,,,,,,,,,,,,,,,,,,main,None,None,1,1.4991925999638624,645.8300446000067,None,None,1,,,,,,,,,,,,,,108,26,Male,2022-05-02_13h03.00.660,Parachute,2022.1.1,60.00708083356939,
positive,red,1,None,None,,,,,,,,,0,195,195,195,,,,,,,,,,,,,,,,,,,,,,,,,,,,,,,,,,,,,main,None,None,1,1.4988287999876775,648.3302250000415,None,None,1,,,,,,,,,,,,,,108,26,Male,2022-05-02_13h03.00.660,Parachute,2022.1.1,60.00708083356939,
negative,blue,1,None,k,,,,,,,,,0,196,196,196,,,,,,,,,,,,,,,,,,,,,,,,,,,,,,,,,,,,,main,None,None,1,1.4986645999597386,650.830997800047,None,None,1,,,,,,,,,,,,,,108,26,Male,2022-05-02_13h03.00.660,Parachute,2022.1.1,60.00708083356939,
positive,blue,2,k,None,,,,,,,,,0,197,197,197,,,,,,,,,,,,,,,,,,,,,,,,,,,,,,,,,,,,,main,k,k,1,0.9368070000200532,653.3305881000124,None,None,0,,,,,,,,,,,,,,108,26,Male,2022-05-02_13h03.00.660,Parachute,2022.1.1,60.00708083356939,
negative,blue,2,None,k,,,,,,,,,0,198,198,198,,,,,,,,,,,,,,,,,,,,,,,,,,,,,,,,,,,,,main,None,None,1,1.4933521999628283,655.2663212000043,None,None,1,,,,,,,,,,,,,,108,26,Male,2022-05-02_13h03.00.660,Parachute,2022.1.1,60.00708083356939,
negative,blue,2,None,k,,,,,,,,,0,199,199,199,,,,,,,,,,,,,,,,,,,,,,,,,,,,,,,,,,,,,main,None,None,1,1.498775000043679,657.7634852000047,None,None,1,,,,,,,,,,,,,,108,26,Male,2022-05-02_13h03.00.660,Parachute,2022.1.1,60.00708083356939,
positive,blue,2,k,None,,,,,,,,,0,200,200,200,,,,,,,,,,,,,,,,,,,,,,,,,,,,,,,,,,,,,main,k,k,1,0.9534661000361666,660.2637733000447,None,None,0,,,,,,,,,,,,,,108,26,Male,2022-05-02_13h03.00.660,Parachute,2022.1.1,60.00708083356939,
positive,blue,2,k,None,,,,,,,,,0,201,201,201,,,,,,,,,,,,,,,,,,,,,,,,,,,,,,,,,,,,,main,k,k,1,0.8325477000325918,662.2167829000391,None,None,0,,,,,,,,,,,,,,108,26,Male,2022-05-02_13h03.00.660,Parachute,2022.1.1,60.00708083356939,
negative,yellow,2,k,None,,,,,,,,,0,202,202,202,,,,,,,,,,,,,,,,,,,,,,,,,,,,,,,,,,,,,main,k,k,1,0.7148081999621354,664.0503766000038,None,None,0,,,,,,,,,,,,,,108,26,Male,2022-05-02_13h03.00.660,Parachute,2022.1.1,60.00708083356939,
positive,red,1,None,None,,,,,,,,,0,203,203,203,,,,,,,,,,,,,,,,,,,,,,,,,,,,,,,,,,,,,main,None,None,1,1.4940497999778017,665.76682910003,None,None,1,,,,,,,,,,,,,,108,26,Male,2022-05-02_13h03.00.660,Parachute,2022.1.1,60.00708083356939,
negative,blue,2,None,k,,,,,,,,,0,204,204,204,,,,,,,,,,,,,,,,,,,,,,,,,,,,,,,,,,,,,main,None,None,1,1.4997819000273012,668.2635428000358,None,None,1,,,,,,,,,,,,,,108,26,Male,2022-05-02_13h03.00.660,Parachute,2022.1.1,60.00708083356939,
negative,red,1,None,None,,,,,,,,,0,205,205,205,,,,,,,,,,,,,,,,,,,,,,,,,,,,,,,,,,,,,main,None,None,1,1.497564799967222,670.7664466000278,None,None,1,,,,,,,,,,,,,,108,26,Male,2022-05-02_13h03.00.660,Parachute,2022.1.1,60.00708083356939,
negative,blue,2,None,k,,,,,,,,,0,206,206,206,,,,,,,,,,,,,,,,,,,,,,,,,,,,,,,,,,,,,main,None,None,1,1.498632299946621,673.2645244000014,None,None,1,,,,,,,,,,,,,,108,26,Male,2022-05-02_13h03.00.660,Parachute,2022.1.1,60.00708083356939,
negative,yellow,2,k,None,,,,,,,,,0,207,207,207,,,,,,,,,,,,,,,,,,,,,,,,,,,,,,,,,,,,,main,k,k,1,0.9211508999578655,675.7639848000254,None,None,0,,,,,,,,,,,,,,108,26,Male,2022-05-02_13h03.00.660,Parachute,2022.1.1,60.00708083356939,
positive,yellow,2,None,k,,,,,,,,,0,208,208,208,,,,,,,,,,,,,,,,,,,,,,,,,,,,,,,,,,,,,main,None,None,1,1.4932370000169612,677.6838270000299,None,None,1,,,,,,,,,,,,,,108,26,Male,2022-05-02_13h03.00.660,Parachute,2022.1.1,60.00708083356939,
negative,yellow,1,k,None,,,,,,,,,0,209,209,209,,,,,,,,,,,,,,,,,,,,,,,,,,,,,,,,,,,,,main,k,k,1,0.7707149000489153,680.1810014000512,None,None,0,,,,,,,,,,,,,,108,26,Male,2022-05-02_13h03.00.660,Parachute,2022.1.1,60.00708083356939,
negative,red,2,None,None,,,,,,,,,0,210,210,210,,,,,,,,,,,,,,,,,,,,,,,,,,,,,,,,,,,,,main,None,None,1,1.4937411000137217,681.9510310000041,None,None,1,,,,,,,,,,,,,,108,26,Male,2022-05-02_13h03.00.660,Parachute,2022.1.1,60.00708083356939,
negative,blue,1,None,k,,,,,,,,,0,211,211,211,,,,,,,,,,,,,,,,,,,,,,,,,,,,,,,,,,,,,main,None,None,1,1.498176000022795,684.4484793000156,None,None,1,,,,,,,,,,,,,,108,26,Male,2022-05-02_13h03.00.660,Parachute,2022.1.1,60.00708083356939,
negative,yellow,1,k,None,,,,,,,,,0,212,212,212,,,,,,,,,,,,,,,,,,,,,,,,,,,,,,,,,,,,,main,k,k,1,0.8029498000396416,686.9473447000491,None,None,0,,,,,,,,,,,,,,108,26,Male,2022-05-02_13h03.00.660,Parachute,2022.1.1,60.00708083356939,
positive,blue,1,k,None,,,,,,,,,0,213,213,213,,,,,,,,,,,,,,,,,,,,,,,,,,,,,,,,,,,,,main,k,k,1,0.8656921000219882,688.7510952000157,None,None,0,,,,,,,,,,,,,,108,26,Male,2022-05-02_13h03.00.660,Parachute,2022.1.1,60.00708083356939,
positive,blue,1,k,None,,,,,,,,,0,214,214,214,,,,,,,,,,,,,,,,,,,,,,,,,,,,,,,,,,,,,main,k,k,1,0.7965604999917559,690.6197771000443,None,None,0,,,,,,,,,,,,,,108,26,Male,2022-05-02_13h03.00.660,Parachute,2022.1.1,60.00708083356939,
positive,yellow,1,None,k,,,,,,,,,0,215,215,215,,,,,,,,,,,,,,,,,,,,,,,,,,,,,,,,,,,,,main,None,None,1,1.4945061999605969,692.4172234000289,None,None,1,,,,,,,,,,,,,,108,26,Male,2022-05-02_13h03.00.660,Parachute,2022.1.1,60.00708083356939,
positive,yellow,1,None,k,,,,,,,,,0,216,216,216,,,,,,,,,,,,,,,,,,,,,,,,,,,,,,,,,,,,,main,None,None,1,1.4980171999777667,694.9157378000091,None,None,1,,,,,,,,,,,,,,108,26,Male,2022-05-02_13h03.00.660,Parachute,2022.1.1,60.00708083356939,
positive,yellow,2,None,k,,,,,,,,,0,217,217,217,,,,,,,,,,,,,,,,,,,,,,,,,,,,,,,,,,,,,main,None,None,1,1.498270699987188,697.4150226000347,None,None,1,,,,,,,,,,,,,,108,26,Male,2022-05-02_13h03.00.660,Parachute,2022.1.1,60.00708083356939,
negative,blue,1,None,k,,,,,,,,,0,218,218,218,,,,,,,,,,,,,,,,,,,,,,,,,,,,,,,,,,,,,main,None,None,1,1.4991465999628417,699.914220900042,None,None,1,,,,,,,,,,,,,,108,26,Male,2022-05-02_13h03.00.660,Parachute,2022.1.1,60.00708083356939,
positive,red,2,None,None,,,,,,,,,0,219,219,219,,,,,,,,,,,,,,,,,,,,,,,,,,,,,,,,,,,,,main,None,None,1,1.4981878999969922,702.4161734000081,None,None,1,,,,,,,,,,,,,,108,26,Male,2022-05-02_13h03.00.660,Parachute,2022.1.1,60.00708083356939,
positive,yellow,1,None,k,,,,,,,,,0,220,220,220,,,,,,,,,,,,,,,,,,,,,,,,,,,,,,,,,,,,,main,None,None,1,1.4988834999967366,704.9147650000523,None,None,1,,,,,,,,,,,,,,108,26,Male,2022-05-02_13h03.00.660,Parachute,2022.1.1,60.00708083356939,
positive,blue,1,k,None,,,,,,,,,0,221,221,221,,,,,,,,,,,,,,,,,,,,,,,,,,,,,,,,,,,,,main,k,k,1,0.6545187999727204,707.415083000029,None,None,0,,,,,,,,,,,,,,108,26,Male,2022-05-02_13h03.00.660,Parachute,2022.1.1,60.00708083356939,
positive,yellow,2,None,k,,,,,,,,,0,222,222,222,,,,,,,,,,,,,,,,,,,,,,,,,,,,,,,,,,,,,main,None,None,1,1.4929099000291899,709.0685142000439,None,None,1,,,,,,,,,,,,,,108,26,Male,2022-05-02_13h03.00.660,Parachute,2022.1.1,60.00708083356939,
negative,yellow,1,k,None,,,,,,,,,0,223,223,223,,,,,,,,,,,,,,,,,,,,,,,,,,,,,,,,,,,,,main,k,k,1,0.9534797999658622,711.5652840000112,None,None,0,,,,,,,,,,,,,,108,26,Male,2022-05-02_13h03.00.660,Parachute,2022.1.1,60.00708083356939,
positive,yellow,2,None,k,,,,,,,,,0,224,224,224,,,,,,,,,,,,,,,,,,,,,,,,,,,,,,,,,,,,,main,None,None,1,1.494011299975682,713.5172994000022,None,None,1,,,,,,,,,,,,,,108,26,Male,2022-05-02_13h03.00.660,Parachute,2022.1.1,60.00708083356939,
negative,yellow,2,k,None,,,,,,,,,0,225,225,225,,,,,,,,,,,,,,,,,,,,,,,,,,,,,,,,,,,,,main,k,k,1,0.8540056000347249,716.0154180999962,None,None,0,,,,,,,,,,,,,,108,26,Male,2022-05-02_13h03.00.660,Parachute,2022.1.1,60.00708083356939,
negative,blue,2,None,k,,,,,,,,,0,226,226,226,,,,,,,,,,,,,,,,,,,,,,,,,,,,,,,,,,,,,main,None,None,1,1.4930250000325032,717.8682223000214,None,None,1,,,,,,,,,,,,,,108,26,Male,2022-05-02_13h03.00.660,Parachute,2022.1.1,60.00708083356939,
positive,red,2,None,None,,,,,,,,,0,227,227,227,,,,,,,,,,,,,,,,,,,,,,,,,,,,,,,,,,,,,main,None,None,1,1.4983289999654517,720.3652567000245,None,None,1,,,,,,,,,,,,,,108,26,Male,2022-05-02_13h03.00.660,Parachute,2022.1.1,60.00708083356939,
positive,blue,2,k,None,,,,,,,,,0,228,228,228,,,,,,,,,,,,,,,,,,,,,,,,,,,,,,,,,,,,,main,k,k,1,0.8369838999933563,722.8645747000119,None,None,0,,,,,,,,,,,,,,108,26,Male,2022-05-02_13h03.00.660,Parachute,2022.1.1,60.00708083356939,
negative,blue,1,None,k,,,,,,,,,0,229,229,229,,,,,,,,,,,,,,,,,,,,,,,,,,,,,,,,,,,,,main,None,None,1,1.4941378000075929,724.7009128000354,None,None,1,,,,,,,,,,,,,,108,26,Male,2022-05-02_13h03.00.660,Parachute,2022.1.1,60.00708083356939,
positive,yellow,1,None,k,,,,,,,,,0,230,230,230,,,,,,,,,,,,,,,,,,,,,,,,,,,,,,,,,,,,,main,None,None,1,1.4989668999915011,727.1982626999961,None,None,1,,,,,,,,,,,,,,108,26,Male,2022-05-02_13h03.00.660,Parachute,2022.1.1,60.00708083356939,
negative,blue,2,None,k,,,,,,,,,0,231,231,231,,,,,,,,,,,,,,,,,,,,,,,,,,,,,,,,,,,,,main,None,None,1,1.4990501999855042,729.6992165000411,None,None,1,,,,,,,,,,,,,,108,26,Male,2022-05-02_13h03.00.660,Parachute,2022.1.1,60.00708083356939,
negative,red,1,None,None,,,,,,,,,0,232,232,232,,,,,,,,,,,,,,,,,,,,,,,,,,,,,,,,,,,,,main,None,None,1,1.4984461999847554,732.1991444000159,None,None,1,,,,,,,,,,,,,,108,26,Male,2022-05-02_13h03.00.660,Parachute,2022.1.1,60.00708083356939,
positive,blue,2,k,None,,,,,,,,,0,233,233,233,,,,,,,,,,,,,,,,,,,,,,,,,,,,,,,,,,,,,main,k,k,1,0.8450145999668166,734.6987810000428,None,None,0,,,,,,,,,,,,,,108,26,Male,2022-05-02_13h03.00.660,Parachute,2022.1.1,60.00708083356939,
negative,yellow,1,k,None,,,,,,,,,0,234,234,234,,,,,,,,,,,,,,,,,,,,,,,,,,,,,,,,,,,,,main,k,k,1,0.8242866999935359,736.5465477000107,None,None,0,,,,,,,,,,,,,,108,26,Male,2022-05-02_13h03.00.660,Parachute,2022.1.1,60.00708083356939,
negative,yellow,2,k,None,,,,,,,,,0,235,235,235,,,,,,,,,,,,,,,,,,,,,,,,,,,,,,,,,,,,,main,k,k,1,0.9986796000157483,738.3683747000177,None,None,0,,,,,,,,,,,,,,108,26,Male,2022-05-02_13h03.00.660,Parachute,2022.1.1,60.00708083356939,
positive,red,1,None,None,,,,,,,,,0,236,236,236,,,,,,,,,,,,,,,,,,,,,,,,,,,,,,,,,,,,,main,None,None,1,1.493194599985145,740.3686530000414,None,None,1,,,,,,,,,,,,,,108,26,Male,2022-05-02_13h03.00.660,Parachute,2022.1.1,60.00708083356939,
negative,red,2,None,None,,,,,,,,,0,237,237,237,,,,,,,,,,,,,,,,,,,,,,,,,,,,,,,,,,,,,main,None,None,1,1.4989117999793962,742.8658013000386,None,None,1,,,,,,,,,,,,,,108,26,Male,2022-05-02_13h03.00.660,Parachute,2022.1.1,60.00708083356939,
negative,blue,1,None,k,,,,,,,,,0,238,238,238,,,,,,,,,,,,,,,,,,,,,,,,,,,,,,,,,,,,,main,None,None,1,1.4980394000303932,745.3661972000264,None,None,1,,,,,,,,,,,,,,108,26,Male,2022-05-02_13h03.00.660,Parachute,2022.1.1,60.00708083356939,
positive,blue,1,k,None,,,,,,,,,0,239,239,239,,,,,,,,,,,,,,,,,,,,,,,,,,,,,,,,,,,,,main,k,k,1,0.9870197999989614,747.8654378000065,None,None,0,,,,,,,,,,,,,,108,26,Male,2022-05-02_13h03.00.660,Parachute,2022.1.1,60.00708083356939,
,,,,,,,,,,,,,,,,,,,,,,,,,,,,,,,,,,,,,,,,,,,,,,,,,,,,,,,,,,,,,,,,,,,,,,,,,749.8598120000097,None,,,,,,,,
