distractor,target,set,ans1,ans2,rep_loop4.thisRepN,rep_loop4.thisTrialN,rep_loop4.thisN,rep_loop4.thisIndex,st2_prac_loop.thisRepN,st2_prac_loop.thisTrialN,st2_prac_loop.thisN,st2_prac_loop.thisIndex,st2_main_loop.thisRepN,st2_main_loop.thisTrialN,st2_main_loop.thisN,st2_main_loop.thisIndex,image_4.started,image_4.stopped,mouse_7.x,mouse_7.y,mouse_7.leftButton,mouse_7.midButton,mouse_7.rightButton,sound_2.started,sound_2.stopped,key_resp_3.keys,mouse_5.x,mouse_5.y,mouse_5.leftButton,mouse_5.midButton,mouse_5.rightButton,mouse_5.started,mouse_5.stopped,yes_text2.started,yes_text2.stopped,no_text2.started,no_text2.stopped,mouse_3.x,mouse_3.y,mouse_3.leftButton,mouse_3.midButton,mouse_3.rightButton,mouse_3.started,mouse_3.stopped,st_prac_back.started,st_prac_back.stopped,st_prac_text.started,st_prac_text.stopped,st_fix_back.started,st_fix_back.stopped,st_fix_2.started,st_fix_2.stopped,main_prac,st_ans,st_res,st_corr,st_rt,st_back.started,st_back.stopped,st2_resp.keys,st2_resp.corr,st_main_back.started,st_main_back.stopped,st_main_text.started,st_main_text.stopped,mouse_4.x,mouse_4.y,mouse_4.leftButton,mouse_4.midButton,mouse_4.rightButton,mouse_4.started,mouse_4.stopped,text_2.started,text_2.stopped,id*,age*,gender*,date,expName,psychopyVersion,frameRate,
,,,,,,,,,,,,,,,,,46.90176919999067,None,0.48240742,0.31574073,0,0,0,,,,,,,,,,,,,,,,,,,,,,,,,,,,,,,,,,,,,,,,,,,,,,,,,,,,109,24,Female,2022-05-02_15h42.39.608,Parachute,2022.1.1,59.90653383254286,
negative,yellow,1,k,None,,,,,0,0,0,0,,,,,,,,,,,,51.589671609963986,None,None,0.22592592,-0.41944444,0,0,0,1.0060035500209779,None,124.17631750000874,None,124.17631750000874,None,-0.096296296,-0.09537037,0,0,0,0.013846310030203313,None,125.87760629999684,None,125.87760629999684,None,127.88946929998929,None,127.88946929998929,None,prac,None,None,1,1.5098432999802753,129.90645060001407,None,None,1,,,,,,,,,,,,,,109,24,Female,2022-05-02_15h42.39.608,Parachute,2022.1.1,59.90653383254286,
positive,red,2,None,None,,,,,0,1,1,1,,,,,,,,,,,,,,,,,,,,,,,,,,,,,,,,,,,,,,,,,prac,None,None,1,1.49907910003094,132.39371149998624,None,None,1,,,,,,,,,,,,,,109,24,Female,2022-05-02_15h42.39.608,Parachute,2022.1.1,59.90653383254286,
negative,blue,2,None,k,,,,,0,2,2,2,,,,,,,,,,,,,,,,,,,,,,,,,,,,,,,,,,,,,,,,,prac,k,k,1,0.9198314999812283,134.89375109999673,None,None,0,,,,,,,,,,,,,,109,24,Female,2022-05-02_15h42.39.608,Parachute,2022.1.1,59.90653383254286,
positive,yellow,1,None,k,,,,,0,3,3,3,,,,,,,,,,,,,,,,,,,,,,,,,,,,,,,,,,,,,,,,,prac,k,k,1,1.0819163999985904,136.81244770000922,None,None,0,,,,,,,,,,,,,,109,24,Female,2022-05-02_15h42.39.608,Parachute,2022.1.1,59.90653383254286,
negative,blue,2,None,k,,,,,0,4,4,4,,,,,,,,,,,,,,,,,,,,,,,,,,,,,,,,,,,,,,,,,prac,k,k,1,0.9473251000163145,138.89585430000443,None,None,0,,,,,,,,,,,,,,109,24,Female,2022-05-02_15h42.39.608,Parachute,2022.1.1,59.90653383254286,
negative,blue,1,None,k,,,,,0,5,5,5,,,,,,,,,,,,,,,,,,,,,,,,,,,,,,,,,,,,,,,,,prac,k,k,1,0.9333562000538222,140.85491080000065,None,None,0,,,,,,,,,,,,,,109,24,Female,2022-05-02_15h42.39.608,Parachute,2022.1.1,59.90653383254286,
negative,yellow,2,k,None,,,,,0,6,6,6,,,,,,,,,,,,,,,,,,,,,,,,,,,,,,,,,,,,,,,,,prac,None,None,1,1.4938575999694876,142.77927970001474,None,None,1,,,,,,,,,,,,,,109,24,Female,2022-05-02_15h42.39.608,Parachute,2022.1.1,59.90653383254286,
negative,red,1,None,None,,,,,0,7,7,7,,,,,,,,,,,,,,,,,,,,,,,,,,,,,,,,,,,,,,,,,prac,None,None,1,1.4978367000003345,145.27729220001493,None,None,1,,,,,,,,,,,,,,109,24,Female,2022-05-02_15h42.39.608,Parachute,2022.1.1,59.90653383254286,
positive,yellow,2,None,k,,,,,0,8,8,8,,,,,,,,,,,,,,,,,,,,,,,,,,,,,,,,,,,,,,,,,prac,k,k,1,1.1205831000115722,147.77685249998467,None,None,0,,,,,,,,,,,,,,109,24,Female,2022-05-02_15h42.39.608,Parachute,2022.1.1,59.90653383254286,
negative,yellow,1,k,None,,,,,0,9,9,9,,,,,,,,,,,,,,,,,,,,,,,,,,,,,,,,,,,,,,,,,prac,None,None,1,1.4941962999873795,149.8966492000036,None,None,1,,,,,,,,,,,,,,109,24,Female,2022-05-02_15h42.39.608,Parachute,2022.1.1,59.90653383254286,
positive,yellow,2,None,k,,,,,0,10,10,10,,,,,,,,,,,,,,,,,,,,,,,,,,,,,,,,,,,,,,,,,prac,k,k,1,1.0206862000050023,152.39427180000348,None,None,0,,,,,,,,,,,,,,109,24,Female,2022-05-02_15h42.39.608,Parachute,2022.1.1,59.90653383254286,
negative,yellow,2,k,None,,,,,0,11,11,11,,,,,,,,,,,,,,,,,,,,,,,,,,,,,,,,,,,,,,,,,prac,None,None,1,1.4932645999942906,154.4138030000031,None,None,1,,,,,,,,,,,,,,109,24,Female,2022-05-02_15h42.39.608,Parachute,2022.1.1,59.90653383254286,
negative,red,2,None,None,,,,,0,12,12,12,,,,,,,,,,,,,,,,,,,,,,,,,,,,,,,,,,,,,,,,,prac,None,None,1,1.4983722000033595,156.91088929999387,None,None,1,,,,,,,,,,,,,,109,24,Female,2022-05-02_15h42.39.608,Parachute,2022.1.1,59.90653383254286,
positive,red,1,None,None,,,,,0,13,13,13,,,,,,,,,,,,,,,,,,,,,,,,,,,,,,,,,,,,,,,,,prac,None,None,1,1.498712400032673,159.41024150000885,None,None,1,,,,,,,,,,,,,,109,24,Female,2022-05-02_15h42.39.608,Parachute,2022.1.1,59.90653383254286,
positive,blue,2,k,None,,,,,0,14,14,14,,,,,,,,,,,,,,,,,,,,,,,,,,,,,,,,,,,,,,,,,prac,None,None,1,1.49835599999642,161.91044090001378,None,None,1,,,,,,,,,,,,,,109,24,Female,2022-05-02_15h42.39.608,Parachute,2022.1.1,59.90653383254286,
positive,blue,1,k,None,,,,,0,15,15,15,,,,,,,,,,,,,,,,,,,,,,,,,,,,,,,,,,,,,,,,,prac,None,None,1,1.4989673000527546,164.4103375999839,None,None,1,,,,,,,,,,,,,,109,24,Female,2022-05-02_15h42.39.608,Parachute,2022.1.1,59.90653383254286,
negative,blue,1,None,k,,,,,0,16,16,16,,,,,,,,,,,,,,,,,,,,,,,,,,,,,,,,,,,,,,,,,prac,k,k,1,1.0043488999945112,166.91045979998307,None,None,0,,,,,,,,,,,,,,109,24,Female,2022-05-02_15h42.39.608,Parachute,2022.1.1,59.90653383254286,
positive,blue,2,k,None,,,,,0,17,17,17,,,,,,,,,,,,,,,,,,,,,,,,,,,,,,,,,,,,,,,,,prac,None,None,1,1.4928605000022799,168.9141043999698,None,None,1,,,,,,,,,,,,,,109,24,Female,2022-05-02_15h42.39.608,Parachute,2022.1.1,59.90653383254286,
positive,blue,1,k,None,,,,,0,18,18,18,,,,,,,,,,,,,,,,,,,,,,,,,,,,,,,,,,,,,,,,,prac,None,None,1,1.498684000049252,171.41068129998166,None,None,1,,,,,,,,,,,,,,109,24,Female,2022-05-02_15h42.39.608,Parachute,2022.1.1,59.90653383254286,
positive,yellow,1,None,k,,,,,0,19,19,19,,,,,,,,,,,,,,,,,,,,,,,,,,,,,,,,,,,,,,,,,prac,k,k,1,1.1881658000056632,173.91186579997884,None,None,0,,,,,,,,,,,,,,109,24,Female,2022-05-02_15h42.39.608,Parachute,2022.1.1,59.90653383254286,
negative,yellow,1,k,None,,,,,1,0,20,0,,,,,,,,,,,,,,,,,,,,,,,,,,,,,,,,,,,,,,,,,prac,None,None,1,1.5088243000209332,176.0982526000007,None,None,1,,,,,,,,,,,,,,109,24,Female,2022-05-02_15h42.39.608,Parachute,2022.1.1,59.90653383254286,
positive,red,2,None,None,,,,,1,1,21,1,,,,,,,,,,,,,,,,,,,,,,,,,,,,,,,,,,,,,,,,,prac,None,None,1,1.498784199997317,178.6106284999987,None,None,1,,,,,,,,,,,,,,109,24,Female,2022-05-02_15h42.39.608,Parachute,2022.1.1,59.90653383254286,
negative,blue,2,None,k,,,,,1,2,22,2,,,,,,,,,,,,,,,,,,,,,,,,,,,,,,,,,,,,,,,,,prac,k,k,1,0.9039286999613978,181.11053140001604,None,None,0,,,,,,,,,,,,,,109,24,Female,2022-05-02_15h42.39.608,Parachute,2022.1.1,59.90653383254286,
positive,yellow,1,None,k,,,,,1,3,23,3,,,,,,,,,,,,,,,,,,,,,,,,,,,,,,,,,,,,,,,,,prac,k,k,1,1.182743199984543,183.01393969997298,None,None,0,,,,,,,,,,,,,,109,24,Female,2022-05-02_15h42.39.608,Parachute,2022.1.1,59.90653383254286,
negative,blue,2,None,k,,,,,1,4,24,4,,,,,,,,,,,,,,,,,,,,,,,,,,,,,,,,,,,,,,,,,prac,k,k,1,1.0147665000404231,185.19823679997353,None,None,0,,,,,,,,,,,,,,109,24,Female,2022-05-02_15h42.39.608,Parachute,2022.1.1,59.90653383254286,
negative,blue,1,None,k,,,,,1,5,25,5,,,,,,,,,,,,,,,,,,,,,,,,,,,,,,,,,,,,,,,,,prac,k,k,1,1.0647987999836914,187.21348999999464,None,None,0,,,,,,,,,,,,,,109,24,Female,2022-05-02_15h42.39.608,Parachute,2022.1.1,59.90653383254286,
negative,yellow,2,k,None,,,,,1,6,26,6,,,,,,,,,,,,,,,,,,,,,,,,,,,,,,,,,,,,,,,,,prac,None,None,1,1.493950699979905,189.28038899996318,None,None,1,,,,,,,,,,,,,,109,24,Female,2022-05-02_15h42.39.608,Parachute,2022.1.1,59.90653383254286,
negative,red,1,None,None,,,,,1,7,27,7,,,,,,,,,,,,,,,,,,,,,,,,,,,,,,,,,,,,,,,,,prac,None,None,1,1.49908169999253,191.77733720000833,None,None,1,,,,,,,,,,,,,,109,24,Female,2022-05-02_15h42.39.608,Parachute,2022.1.1,59.90653383254286,
positive,yellow,2,None,k,,,,,1,8,28,8,,,,,,,,,,,,,,,,,,,,,,,,,,,,,,,,,,,,,,,,,prac,k,k,1,0.9031896000378765,194.27870580001036,None,None,0,,,,,,,,,,,,,,109,24,Female,2022-05-02_15h42.39.608,Parachute,2022.1.1,59.90653383254286,
negative,yellow,1,k,None,,,,,1,9,29,9,,,,,,,,,,,,,,,,,,,,,,,,,,,,,,,,,,,,,,,,,prac,None,None,1,1.493318699998781,196.18066000001272,None,None,1,,,,,,,,,,,,,,109,24,Female,2022-05-02_15h42.39.608,Parachute,2022.1.1,59.90653383254286,
positive,yellow,2,None,k,,,,,1,10,30,10,,,,,,,,,,,,,,,,,,,,,,,,,,,,,,,,,,,,,,,,,prac,k,k,1,1.0378018000046723,198.67733989999397,None,None,0,,,,,,,,,,,,,,109,24,Female,2022-05-02_15h42.39.608,Parachute,2022.1.1,59.90653383254286,
negative,yellow,2,k,None,,,,,1,11,31,11,,,,,,,,,,,,,,,,,,,,,,,,,,,,,,,,,,,,,,,,,prac,None,None,1,1.4924910999834538,200.71516730001895,None,None,1,,,,,,,,,,,,,,109,24,Female,2022-05-02_15h42.39.608,Parachute,2022.1.1,59.90653383254286,
negative,red,2,None,None,,,,,1,12,32,12,,,,,,,,,,,,,,,,,,,,,,,,,,,,,,,,,,,,,,,,,prac,None,None,1,1.4988221999956295,203.21091690001776,None,None,1,,,,,,,,,,,,,,109,24,Female,2022-05-02_15h42.39.608,Parachute,2022.1.1,59.90653383254286,
positive,red,1,None,None,,,,,1,13,33,13,,,,,,,,,,,,,,,,,,,,,,,,,,,,,,,,,,,,,,,,,prac,None,None,1,1.499007900012657,205.71119459997863,None,None,1,,,,,,,,,,,,,,109,24,Female,2022-05-02_15h42.39.608,Parachute,2022.1.1,59.90653383254286,
positive,blue,2,k,None,,,,,1,14,34,14,,,,,,,,,,,,,,,,,,,,,,,,,,,,,,,,,,,,,,,,,prac,None,None,1,1.4983962000114843,208.21156919997884,None,None,1,,,,,,,,,,,,,,109,24,Female,2022-05-02_15h42.39.608,Parachute,2022.1.1,59.90653383254286,
positive,blue,1,k,None,,,,,1,15,35,15,,,,,,,,,,,,,,,,,,,,,,,,,,,,,,,,,,,,,,,,,prac,None,None,1,1.498750500031747,210.71101440000348,None,None,1,,,,,,,,,,,,,,109,24,Female,2022-05-02_15h42.39.608,Parachute,2022.1.1,59.90653383254286,
negative,blue,1,None,k,,,,,1,16,36,16,,,,,,,,,,,,,,,,,,,,,,,,,,,,,,,,,,,,,,,,,prac,k,k,1,1.0707868000026792,213.21152030001394,None,None,0,,,,,,,,,,,,,,109,24,Female,2022-05-02_15h42.39.608,Parachute,2022.1.1,59.90653383254286,
positive,blue,2,k,None,,,,,1,17,37,17,,,,,,,,,,,,,,,,,,,,,,,,,,,,,,,,,,,,,,,,,prac,None,None,1,1.4932783000404015,215.28186019998975,None,None,1,,,,,,,,,,,,,,109,24,Female,2022-05-02_15h42.39.608,Parachute,2022.1.1,59.90653383254286,
positive,blue,1,k,None,,,,,1,18,38,18,,,,,,,,,,,,,,,,,,,,,,,,,,,,,,,,,,,,,,,,,prac,None,None,1,1.4985264000133611,217.77739719999954,None,None,1,,,,,,,,,,,,,,109,24,Female,2022-05-02_15h42.39.608,Parachute,2022.1.1,59.90653383254286,
positive,yellow,1,None,k,,,,,1,19,39,19,,,,,,,,,,,,,,,,,,,,,,,,,,,,,,,,,,,,,,,,,prac,k,k,1,1.3212018000194803,220.27777240000432,None,None,0,,,,,,,,,,,,,,109,24,Female,2022-05-02_15h42.39.608,Parachute,2022.1.1,59.90653383254286,
,,,,,,,,,,,,,,,,,,,,,,,,,,,,,,,,,,,,,,,,,,,,,,,,,,,,,,,,,,,,,,222.62007999996422,None,222.62007999996422,None,0.13703704,-0.06574074,0,0,0,0.012333710037637502,None,,,109,24,Female,2022-05-02_15h42.39.608,Parachute,2022.1.1,59.90653383254286,
negative,yellow,2,k,None,,,,,,,,,0,0,0,0,,,,,,,,,,,,,,,,,,,,,,,,,,,,,,,,,234.19349430000875,None,234.19349430000875,None,main,None,None,1,1.4990268999827094,236.22608559997752,None,None,1,,,,,,,,,,,,,,109,24,Female,2022-05-02_15h42.39.608,Parachute,2022.1.1,59.90653383254286,
positive,red,1,None,None,,,,,,,,,0,1,1,1,,,,,,,,,,,,,,,,,,,,,,,,,,,,,,,,,,,,,main,None,None,1,1.4980856999754906,238.72970149997855,None,None,1,,,,,,,,,,,,,,109,24,Female,2022-05-02_15h42.39.608,Parachute,2022.1.1,59.90653383254286,
positive,blue,2,k,None,,,,,,,,,0,2,2,2,,,,,,,,,,,,,,,,,,,,,,,,,,,,,,,,,,,,,main,None,None,1,1.4991312000202015,241.22861559997546,None,None,1,,,,,,,,,,,,,,109,24,Female,2022-05-02_15h42.39.608,Parachute,2022.1.1,59.90653383254286,
positive,blue,1,k,None,,,,,,,,,0,3,3,3,,,,,,,,,,,,,,,,,,,,,,,,,,,,,,,,,,,,,main,None,None,1,1.4981465000309981,243.7294707999681,None,None,1,,,,,,,,,,,,,,109,24,Female,2022-05-02_15h42.39.608,Parachute,2022.1.1,59.90653383254286,
negative,yellow,2,k,None,,,,,,,,,0,4,4,4,,,,,,,,,,,,,,,,,,,,,,,,,,,,,,,,,,,,,main,None,None,1,1.4992744000046514,246.22887310001533,None,None,1,,,,,,,,,,,,,,109,24,Female,2022-05-02_15h42.39.608,Parachute,2022.1.1,59.90653383254286,
positive,yellow,2,None,k,,,,,,,,,0,5,5,5,,,,,,,,,,,,,,,,,,,,,,,,,,,,,,,,,,,,,main,k,k,1,0.8695787999895401,248.73001050000312,None,None,0,,,,,,,,,,,,,,109,24,Female,2022-05-02_15h42.39.608,Parachute,2022.1.1,59.90653383254286,
negative,blue,2,None,k,,,,,,,,,0,6,6,6,,,,,,,,,,,,,,,,,,,,,,,,,,,,,,,,,,,,,main,k,k,1,0.8824763000011444,250.5981286999886,None,None,0,,,,,,,,,,,,,,109,24,Female,2022-05-02_15h42.39.608,Parachute,2022.1.1,59.90653383254286,
positive,red,2,None,None,,,,,,,,,0,7,7,7,,,,,,,,,,,,,,,,,,,,,,,,,,,,,,,,,,,,,main,None,None,1,1.493722599989269,252.48206449998543,None,None,1,,,,,,,,,,,,,,109,24,Female,2022-05-02_15h42.39.608,Parachute,2022.1.1,59.90653383254286,
positive,yellow,1,None,k,,,,,,,,,0,8,8,8,,,,,,,,,,,,,,,,,,,,,,,,,,,,,,,,,,,,,main,k,k,1,1.2040843000286259,254.97915349999676,None,None,0,,,,,,,,,,,,,,109,24,Female,2022-05-02_15h42.39.608,Parachute,2022.1.1,59.90653383254286,
negative,red,1,None,None,,,,,,,,,0,9,9,9,,,,,,,,,,,,,,,,,,,,,,,,,,,,,,,,,,,,,main,None,None,1,1.493169500026852,257.1836074999883,None,None,1,,,,,,,,,,,,,,109,24,Female,2022-05-02_15h42.39.608,Parachute,2022.1.1,59.90653383254286,
positive,yellow,1,None,k,,,,,,,,,0,10,10,10,,,,,,,,,,,,,,,,,,,,,,,,,,,,,,,,,,,,,main,k,k,1,0.9705391000024974,259.67926770000486,None,None,0,,,,,,,,,,,,,,109,24,Female,2022-05-02_15h42.39.608,Parachute,2022.1.1,59.90653383254286,
negative,yellow,1,k,None,,,,,,,,,0,11,11,11,,,,,,,,,,,,,,,,,,,,,,,,,,,,,,,,,,,,,main,None,None,1,1.4935086999903433,261.6486242999672,None,None,1,,,,,,,,,,,,,,109,24,Female,2022-05-02_15h42.39.608,Parachute,2022.1.1,59.90653383254286,
negative,yellow,1,k,None,,,,,,,,,0,12,12,12,,,,,,,,,,,,,,,,,,,,,,,,,,,,,,,,,,,,,main,None,None,1,1.4984881999553181,264.14608169998974,None,None,1,,,,,,,,,,,,,,109,24,Female,2022-05-02_15h42.39.608,Parachute,2022.1.1,59.90653383254286,
negative,red,2,None,None,,,,,,,,,0,13,13,13,,,,,,,,,,,,,,,,,,,,,,,,,,,,,,,,,,,,,main,None,None,1,1.4989005999523215,266.6458261999651,None,None,1,,,,,,,,,,,,,,109,24,Female,2022-05-02_15h42.39.608,Parachute,2022.1.1,59.90653383254286,
positive,yellow,2,None,k,,,,,,,,,0,14,14,14,,,,,,,,,,,,,,,,,,,,,,,,,,,,,,,,,,,,,main,k,k,1,1.08713150001131,269.1457630000077,None,None,0,,,,,,,,,,,,,,109,24,Female,2022-05-02_15h42.39.608,Parachute,2022.1.1,59.90653383254286,
positive,blue,1,k,None,,,,,,,,,0,15,15,15,,,,,,,,,,,,,,,,,,,,,,,,,,,,,,,,,,,,,main,None,None,1,1.4933144999668002,271.2324645000044,None,None,1,,,,,,,,,,,,,,109,24,Female,2022-05-02_15h42.39.608,Parachute,2022.1.1,59.90653383254286,
negative,blue,1,None,k,,,,,,,,,0,16,16,16,,,,,,,,,,,,,,,,,,,,,,,,,,,,,,,,,,,,,main,k,k,1,0.785859800002072,273.72935069998493,None,None,0,,,,,,,,,,,,,,109,24,Female,2022-05-02_15h42.39.608,Parachute,2022.1.1,59.90653383254286,
positive,blue,2,k,None,,,,,,,,,0,17,17,17,,,,,,,,,,,,,,,,,,,,,,,,,,,,,,,,,,,,,main,None,None,1,1.4949516000342555,275.5155605999753,None,None,1,,,,,,,,,,,,,,109,24,Female,2022-05-02_15h42.39.608,Parachute,2022.1.1,59.90653383254286,
negative,blue,2,None,k,,,,,,,,,0,18,18,18,,,,,,,,,,,,,,,,,,,,,,,,,,,,,,,,,,,,,main,k,k,1,0.8347807000391185,278.01301300001796,None,None,0,,,,,,,,,,,,,,109,24,Female,2022-05-02_15h42.39.608,Parachute,2022.1.1,59.90653383254286,
negative,blue,1,None,k,,,,,,,,,0,19,19,19,,,,,,,,,,,,,,,,,,,,,,,,,,,,,,,,,,,,,main,k,k,1,0.8171937000006437,279.85898550000275,None,None,0,,,,,,,,,,,,,,109,24,Female,2022-05-02_15h42.39.608,Parachute,2022.1.1,59.90653383254286,
negative,blue,1,None,k,,,,,,,,,0,20,20,20,,,,,,,,,,,,,,,,,,,,,,,,,,,,,,,,,,,,,main,k,k,1,0.7968465000158176,281.66683130001184,None,None,0,,,,,,,,,,,,,,109,24,Female,2022-05-02_15h42.39.608,Parachute,2022.1.1,59.90653383254286,
negative,blue,2,None,k,,,,,,,,,0,21,21,21,,,,,,,,,,,,,,,,,,,,,,,,,,,,,,,,,,,,,main,k,k,1,0.8341673000250012,283.47389229998225,None,None,0,,,,,,,,,,,,,,109,24,Female,2022-05-02_15h42.39.608,Parachute,2022.1.1,59.90653383254286,
negative,red,1,None,None,,,,,,,,,0,22,22,22,,,,,,,,,,,,,,,,,,,,,,,,,,,,,,,,,,,,,main,None,None,1,1.4930639999802224,285.30017599998973,None,None,1,,,,,,,,,,,,,,109,24,Female,2022-05-02_15h42.39.608,Parachute,2022.1.1,59.90653383254286,
positive,red,2,None,None,,,,,,,,,0,23,23,23,,,,,,,,,,,,,,,,,,,,,,,,,,,,,,,,,,,,,main,None,None,1,1.4987394000054337,287.79634549998445,None,None,1,,,,,,,,,,,,,,109,24,Female,2022-05-02_15h42.39.608,Parachute,2022.1.1,59.90653383254286,
negative,red,2,None,None,,,,,,,,,0,24,24,24,,,,,,,,,,,,,,,,,,,,,,,,,,,,,,,,,,,,,main,None,None,1,1.4981847000308335,290.2966876999708,None,None,1,,,,,,,,,,,,,,109,24,Female,2022-05-02_15h42.39.608,Parachute,2022.1.1,59.90653383254286,
positive,blue,2,k,None,,,,,,,,,0,25,25,25,,,,,,,,,,,,,,,,,,,,,,,,,,,,,,,,,,,,,main,None,None,1,1.4987146999919787,292.7963413000107,None,None,1,,,,,,,,,,,,,,109,24,Female,2022-05-02_15h42.39.608,Parachute,2022.1.1,59.90653383254286,
negative,yellow,1,k,None,,,,,,,,,0,26,26,26,,,,,,,,,,,,,,,,,,,,,,,,,,,,,,,,,,,,,main,None,None,1,1.4987317000050098,295.2973928999854,None,None,1,,,,,,,,,,,,,,109,24,Female,2022-05-02_15h42.39.608,Parachute,2022.1.1,59.90653383254286,
positive,blue,2,k,None,,,,,,,,,0,27,27,27,,,,,,,,,,,,,,,,,,,,,,,,,,,,,,,,,,,,,main,None,None,1,1.4985076000448316,297.79697209998267,None,None,1,,,,,,,,,,,,,,109,24,Female,2022-05-02_15h42.39.608,Parachute,2022.1.1,59.90653383254286,
negative,blue,2,None,k,,,,,,,,,0,28,28,28,,,,,,,,,,,,,,,,,,,,,,,,,,,,,,,,,,,,,main,k,k,1,1.0869174000108615,300.2966490999679,None,None,0,,,,,,,,,,,,,,109,24,Female,2022-05-02_15h42.39.608,Parachute,2022.1.1,59.90653383254286,
positive,red,1,None,None,,,,,,,,,0,29,29,29,,,,,,,,,,,,,,,,,,,,,,,,,,,,,,,,,,,,,main,None,None,1,1.4940928000141867,302.38265430001775,None,None,1,,,,,,,,,,,,,,109,24,Female,2022-05-02_15h42.39.608,Parachute,2022.1.1,59.90653383254286,
positive,blue,1,k,None,,,,,,,,,0,30,30,30,,,,,,,,,,,,,,,,,,,,,,,,,,,,,,,,,,,,,main,None,None,1,1.4983157000388019,304.8804808999994,None,None,1,,,,,,,,,,,,,,109,24,Female,2022-05-02_15h42.39.608,Parachute,2022.1.1,59.90653383254286,
positive,yellow,1,None,k,,,,,,,,,0,31,31,31,,,,,,,,,,,,,,,,,,,,,,,,,,,,,,,,,,,,,main,k,k,1,0.9873355000163428,307.38112340000225,None,None,0,,,,,,,,,,,,,,109,24,Female,2022-05-02_15h42.39.608,Parachute,2022.1.1,59.90653383254286,
negative,yellow,2,k,None,,,,,,,,,0,32,32,32,,,,,,,,,,,,,,,,,,,,,,,,,,,,,,,,,,,,,main,None,None,1,1.4928938000230119,309.36681460001273,None,None,1,,,,,,,,,,,,,,109,24,Female,2022-05-02_15h42.39.608,Parachute,2022.1.1,59.90653383254286,
negative,blue,1,None,k,,,,,,,,,0,33,33,33,,,,,,,,,,,,,,,,,,,,,,,,,,,,,,,,,,,,,main,k,k,1,1.0041586000006646,311.86361100000795,None,None,0,,,,,,,,,,,,,,109,24,Female,2022-05-02_15h42.39.608,Parachute,2022.1.1,59.90653383254286,
positive,blue,1,k,None,,,,,,,,,0,34,34,34,,,,,,,,,,,,,,,,,,,,,,,,,,,,,,,,,,,,,main,None,None,1,1.493655400001444,313.86727089999476,None,None,1,,,,,,,,,,,,,,109,24,Female,2022-05-02_15h42.39.608,Parachute,2022.1.1,59.90653383254286,
negative,yellow,1,k,None,,,,,,,,,0,35,35,35,,,,,,,,,,,,,,,,,,,,,,,,,,,,,,,,,,,,,main,None,None,1,1.498125699989032,316.3639748999849,None,None,1,,,,,,,,,,,,,,109,24,Female,2022-05-02_15h42.39.608,Parachute,2022.1.1,59.90653383254286,
positive,yellow,2,None,k,,,,,,,,,0,36,36,36,,,,,,,,,,,,,,,,,,,,,,,,,,,,,,,,,,,,,main,k,k,1,0.7360304999747314,318.8630261999788,None,None,0,,,,,,,,,,,,,,109,24,Female,2022-05-02_15h42.39.608,Parachute,2022.1.1,59.90653383254286,
positive,yellow,2,None,k,,,,,,,,,0,37,37,37,,,,,,,,,,,,,,,,,,,,,,,,,,,,,,,,,,,,,main,k,k,1,0.8000287999748252,320.60783290001564,None,None,0,,,,,,,,,,,,,,109,24,Female,2022-05-02_15h42.39.608,Parachute,2022.1.1,59.90653383254286,
negative,yellow,2,k,None,,,,,,,,,0,38,38,38,,,,,,,,,,,,,,,,,,,,,,,,,,,,,,,,,,,,,main,None,None,1,1.4931639999849722,322.3999928999692,None,None,1,,,,,,,,,,,,,,109,24,Female,2022-05-02_15h42.39.608,Parachute,2022.1.1,59.90653383254286,
positive,yellow,1,None,k,,,,,,,,,0,39,39,39,,,,,,,,,,,,,,,,,,,,,,,,,,,,,,,,,,,,,main,k,k,1,0.94820250000339,324.89635379996616,None,None,0,,,,,,,,,,,,,,109,24,Female,2022-05-02_15h42.39.608,Parachute,2022.1.1,59.90653383254286,
negative,yellow,2,k,None,,,,,,,,,0,40,40,40,,,,,,,,,,,,,,,,,,,,,,,,,,,,,,,,,,,,,main,None,None,1,1.5001410000259057,326.84707580000395,None,None,1,,,,,,,,,,,,,,109,24,Female,2022-05-02_15h42.39.608,Parachute,2022.1.1,59.90653383254286,
positive,blue,2,k,None,,,,,,,,,0,41,41,41,,,,,,,,,,,,,,,,,,,,,,,,,,,,,,,,,,,,,main,None,None,1,1.4975833999924362,329.348204799986,None,None,1,,,,,,,,,,,,,,109,24,Female,2022-05-02_15h42.39.608,Parachute,2022.1.1,59.90653383254286,
positive,blue,2,k,None,,,,,,,,,0,42,42,42,,,,,,,,,,,,,,,,,,,,,,,,,,,,,,,,,,,,,main,None,None,1,1.4983894999604672,331.84711299999617,None,None,1,,,,,,,,,,,,,,109,24,Female,2022-05-02_15h42.39.608,Parachute,2022.1.1,59.90653383254286,
negative,blue,2,None,k,,,,,,,,,0,43,43,43,,,,,,,,,,,,,,,,,,,,,,,,,,,,,,,,,,,,,main,k,k,1,0.8046535000321455,334.3469536000048,None,None,0,,,,,,,,,,,,,,109,24,Female,2022-05-02_15h42.39.608,Parachute,2022.1.1,59.90653383254286,
negative,red,1,None,None,,,,,,,,,0,44,44,44,,,,,,,,,,,,,,,,,,,,,,,,,,,,,,,,,,,,,main,None,None,1,1.4933686999720521,336.15024789999006,None,None,1,,,,,,,,,,,,,,109,24,Female,2022-05-02_15h42.39.608,Parachute,2022.1.1,59.90653383254286,
negative,yellow,1,k,None,,,,,,,,,0,45,45,45,,,,,,,,,,,,,,,,,,,,,,,,,,,,,,,,,,,,,main,None,None,1,1.4980205000028946,338.64757089997875,None,None,1,,,,,,,,,,,,,,109,24,Female,2022-05-02_15h42.39.608,Parachute,2022.1.1,59.90653383254286,
negative,yellow,1,k,None,,,,,,,,,0,46,46,46,,,,,,,,,,,,,,,,,,,,,,,,,,,,,,,,,,,,,main,None,None,1,1.4989251000224613,341.1469539999962,None,None,1,,,,,,,,,,,,,,109,24,Female,2022-05-02_15h42.39.608,Parachute,2022.1.1,59.90653383254286,
positive,red,1,None,None,,,,,,,,,0,47,47,47,,,,,,,,,,,,,,,,,,,,,,,,,,,,,,,,,,,,,main,None,None,1,1.498895899974741,343.6475219000131,None,None,1,,,,,,,,,,,,,,109,24,Female,2022-05-02_15h42.39.608,Parachute,2022.1.1,59.90653383254286,
positive,yellow,1,None,k,,,,,,,,,0,48,48,48,,,,,,,,,,,,,,,,,,,,,,,,,,,,,,,,,,,,,main,k,k,1,0.8038034000201151,346.1475064000115,None,None,0,,,,,,,,,,,,,,109,24,Female,2022-05-02_15h42.39.608,Parachute,2022.1.1,59.90653383254286,
negative,blue,1,None,k,,,,,,,,,0,49,49,49,,,,,,,,,,,,,,,,,,,,,,,,,,,,,,,,,,,,,main,k,k,1,0.9483448999817483,347.95065169996815,None,None,0,,,,,,,,,,,,,,109,24,Female,2022-05-02_15h42.39.608,Parachute,2022.1.1,59.90653383254286,
positive,yellow,2,None,k,,,,,,,,,0,50,50,50,,,,,,,,,,,,,,,,,,,,,,,,,,,,,,,,,,,,,main,k,k,1,0.8655904000042938,349.9000164999743,None,None,0,,,,,,,,,,,,,,109,24,Female,2022-05-02_15h42.39.608,Parachute,2022.1.1,59.90653383254286,
negative,blue,1,None,k,,,,,,,,,0,51,51,51,,,,,,,,,,,,,,,,,,,,,,,,,,,,,,,,,,,,,main,k,k,1,0.6989535000175238,351.7671936000115,None,None,0,,,,,,,,,,,,,,109,24,Female,2022-05-02_15h42.39.608,Parachute,2022.1.1,59.90653383254286,
positive,red,2,None,None,,,,,,,,,0,52,52,52,,,,,,,,,,,,,,,,,,,,,,,,,,,,,,,,,,,,,main,None,None,1,1.49336249998305,353.4671585999895,None,None,1,,,,,,,,,,,,,,109,24,Female,2022-05-02_15h42.39.608,Parachute,2022.1.1,59.90653383254286,
positive,yellow,2,None,k,,,,,,,,,0,53,53,53,,,,,,,,,,,,,,,,,,,,,,,,,,,,,,,,,,,,,main,k,k,1,0.7875517000211403,355.9650773999747,None,None,0,,,,,,,,,,,,,,109,24,Female,2022-05-02_15h42.39.608,Parachute,2022.1.1,59.90653383254286,
negative,red,2,None,None,,,,,,,,,0,54,54,54,,,,,,,,,,,,,,,,,,,,,,,,,,,,,,,,,,,,,main,None,None,1,1.493583299976308,357.7516663999995,None,None,1,,,,,,,,,,,,,,109,24,Female,2022-05-02_15h42.39.608,Parachute,2022.1.1,59.90653383254286,
positive,yellow,1,None,k,,,,,,,,,0,55,55,55,,,,,,,,,,,,,,,,,,,,,,,,,,,,,,,,,,,,,main,k,k,1,0.7860959999961779,360.2493882999988,None,None,0,,,,,,,,,,,,,,109,24,Female,2022-05-02_15h42.39.608,Parachute,2022.1.1,59.90653383254286,
negative,blue,2,None,k,,,,,,,,,0,56,56,56,,,,,,,,,,,,,,,,,,,,,,,,,,,,,,,,,,,,,main,k,k,1,0.6824159999960102,362.03522099996917,None,None,0,,,,,,,,,,,,,,109,24,Female,2022-05-02_15h42.39.608,Parachute,2022.1.1,59.90653383254286,
positive,blue,1,k,None,,,,,,,,,0,57,57,57,,,,,,,,,,,,,,,,,,,,,,,,,,,,,,,,,,,,,main,None,None,1,1.4931093999766745,363.7178802000126,None,None,1,,,,,,,,,,,,,,109,24,Female,2022-05-02_15h42.39.608,Parachute,2022.1.1,59.90653383254286,
positive,blue,1,k,None,,,,,,,,,0,58,58,58,,,,,,,,,,,,,,,,,,,,,,,,,,,,,,,,,,,,,main,None,None,1,1.4984493000083603,366.21479890000774,None,None,1,,,,,,,,,,,,,,109,24,Female,2022-05-02_15h42.39.608,Parachute,2022.1.1,59.90653383254286,
negative,yellow,2,k,None,,,,,,,,,0,59,59,59,,,,,,,,,,,,,,,,,,,,,,,,,,,,,,,,,,,,,main,None,None,1,1.498840799962636,368.71459190000314,None,None,1,,,,,,,,,,,,,,109,24,Female,2022-05-02_15h42.39.608,Parachute,2022.1.1,59.90653383254286,
positive,red,2,None,None,,,,,,,,,0,60,60,60,,,,,,,,,,,,,,,,,,,,,,,,,,,,,,,,,,,,,main,None,None,1,1.4992445000098087,371.2148178999778,None,None,1,,,,,,,,,,,,,,109,24,Female,2022-05-02_15h42.39.608,Parachute,2022.1.1,59.90653383254286,
negative,yellow,1,k,None,,,,,,,,,0,61,61,61,,,,,,,,,,,,,,,,,,,,,,,,,,,,,,,,,,,,,main,None,None,1,1.4983121000113897,373.71535800001584,None,None,1,,,,,,,,,,,,,,109,24,Female,2022-05-02_15h42.39.608,Parachute,2022.1.1,59.90653383254286,
negative,red,1,None,None,,,,,,,,,0,62,62,62,,,,,,,,,,,,,,,,,,,,,,,,,,,,,,,,,,,,,main,None,None,1,1.4986100999522023,376.2152680999716,None,None,1,,,,,,,,,,,,,,109,24,Female,2022-05-02_15h42.39.608,Parachute,2022.1.1,59.90653383254286,
negative,blue,1,None,k,,,,,,,,,0,63,63,63,,,,,,,,,,,,,,,,,,,,,,,,,,,,,,,,,,,,,main,k,k,1,1.2203954000142403,378.7153736000182,None,None,0,,,,,,,,,,,,,,109,24,Female,2022-05-02_15h42.39.608,Parachute,2022.1.1,59.90653383254286,
positive,blue,2,k,None,,,,,,,,,0,64,64,64,,,,,,,,,,,,,,,,,,,,,,,,,,,,,,,,,,,,,main,None,None,1,1.4935884000151418,380.9341975999996,None,None,1,,,,,,,,,,,,,,109,24,Female,2022-05-02_15h42.39.608,Parachute,2022.1.1,59.90653383254286,
negative,yellow,2,k,None,,,,,,,,,0,65,65,65,,,,,,,,,,,,,,,,,,,,,,,,,,,,,,,,,,,,,main,None,None,1,1.498803099966608,383.43064899998717,None,None,1,,,,,,,,,,,,,,109,24,Female,2022-05-02_15h42.39.608,Parachute,2022.1.1,59.90653383254286,
positive,yellow,2,None,k,,,,,,,,,0,66,66,66,,,,,,,,,,,,,,,,,,,,,,,,,,,,,,,,,,,,,main,k,k,1,0.8207173999981023,385.93155119998846,None,None,0,,,,,,,,,,,,,,109,24,Female,2022-05-02_15h42.39.608,Parachute,2022.1.1,59.90653383254286,
positive,yellow,2,None,k,,,,,,,,,0,67,67,67,,,,,,,,,,,,,,,,,,,,,,,,,,,,,,,,,,,,,main,k,k,1,0.7481231999699958,387.7518464999739,None,None,0,,,,,,,,,,,,,,109,24,Female,2022-05-02_15h42.39.608,Parachute,2022.1.1,59.90653383254286,
positive,red,1,None,None,,,,,,,,,0,68,68,68,,,,,,,,,,,,,,,,,,,,,,,,,,,,,,,,,,,,,main,None,None,1,1.5108877000166103,389.50293919997057,None,None,1,,,,,,,,,,,,,,109,24,Female,2022-05-02_15h42.39.608,Parachute,2022.1.1,59.90653383254286,
positive,yellow,1,None,k,,,,,,,,,0,69,69,69,,,,,,,,,,,,,,,,,,,,,,,,,,,,,,,,,,,,,main,k,k,1,1.0123671000474133,392.0174267999828,None,None,0,,,,,,,,,,,,,,109,24,Female,2022-05-02_15h42.39.608,Parachute,2022.1.1,59.90653383254286,
negative,yellow,2,k,None,,,,,,,,,0,70,70,70,,,,,,,,,,,,,,,,,,,,,,,,,,,,,,,,,,,,,main,None,None,1,1.5001054999884218,394.0300561999902,None,None,1,,,,,,,,,,,,,,109,24,Female,2022-05-02_15h42.39.608,Parachute,2022.1.1,59.90653383254286,
positive,yellow,1,None,k,,,,,,,,,0,71,71,71,,,,,,,,,,,,,,,,,,,,,,,,,,,,,,,,,,,,,main,k,k,1,0.9373931000009179,396.5319526999956,None,None,0,,,,,,,,,,,,,,109,24,Female,2022-05-02_15h42.39.608,Parachute,2022.1.1,59.90653383254286,
negative,blue,1,None,k,,,,,,,,,0,72,72,72,,,,,,,,,,,,,,,,,,,,,,,,,,,,,,,,,,,,,main,k,k,1,0.8319246000028215,398.4682625000132,None,None,0,,,,,,,,,,,,,,109,24,Female,2022-05-02_15h42.39.608,Parachute,2022.1.1,59.90653383254286,
negative,red,2,None,None,,,,,,,,,0,73,73,73,,,,,,,,,,,,,,,,,,,,,,,,,,,,,,,,,,,,,main,None,None,1,1.493612599966582,400.3013059999794,None,None,1,,,,,,,,,,,,,,109,24,Female,2022-05-02_15h42.39.608,Parachute,2022.1.1,59.90653383254286,
positive,blue,2,k,None,,,,,,,,,0,74,74,74,,,,,,,,,,,,,,,,,,,,,,,,,,,,,,,,,,,,,main,None,None,1,1.4992249999777414,402.7988255000091,None,None,1,,,,,,,,,,,,,,109,24,Female,2022-05-02_15h42.39.608,Parachute,2022.1.1,59.90653383254286,
negative,blue,2,None,k,,,,,,,,,0,75,75,75,,,,,,,,,,,,,,,,,,,,,,,,,,,,,,,,,,,,,main,k,k,1,0.8530897999880835,405.299182799994,None,None,0,,,,,,,,,,,,,,109,24,Female,2022-05-02_15h42.39.608,Parachute,2022.1.1,59.90653383254286,
negative,blue,2,None,k,,,,,,,,,0,76,76,76,,,,,,,,,,,,,,,,,,,,,,,,,,,,,,,,,,,,,main,k,k,1,0.6988238000194542,407.15152660000604,None,None,0,,,,,,,,,,,,,,109,24,Female,2022-05-02_15h42.39.608,Parachute,2022.1.1,59.90653383254286,
negative,yellow,1,k,None,,,,,,,,,0,77,77,77,,,,,,,,,,,,,,,,,,,,,,,,,,,,,,,,,,,,,main,None,None,1,1.4927524999948218,408.8528651999659,None,None,1,,,,,,,,,,,,,,109,24,Female,2022-05-02_15h42.39.608,Parachute,2022.1.1,59.90653383254286,
positive,blue,1,k,None,,,,,,,,,0,78,78,78,,,,,,,,,,,,,,,,,,,,,,,,,,,,,,,,,,,,,main,None,None,1,1.497905499942135,411.39673420001054,None,None,1,,,,,,,,,,,,,,109,24,Female,2022-05-02_15h42.39.608,Parachute,2022.1.1,59.90653383254286,
positive,blue,1,k,None,,,,,,,,,0,79,79,79,,,,,,,,,,,,,,,,,,,,,,,,,,,,,,,,,,,,,main,None,None,1,1.4983588000177406,413.8991065999726,None,None,1,,,,,,,,,,,,,,109,24,Female,2022-05-02_15h42.39.608,Parachute,2022.1.1,59.90653383254286,
positive,red,2,None,None,,,,,,,,,0,80,80,80,,,,,,,,,,,,,,,,,,,,,,,,,,,,,,,,,,,,,main,None,None,1,1.4990377000067383,416.39862599998014,None,None,1,,,,,,,,,,,,,,109,24,Female,2022-05-02_15h42.39.608,Parachute,2022.1.1,59.90653383254286,
positive,yellow,2,None,k,,,,,,,,,0,81,81,81,,,,,,,,,,,,,,,,,,,,,,,,,,,,,,,,,,,,,main,k,k,1,0.8368152999901213,418.89920169999823,None,None,0,,,,,,,,,,,,,,109,24,Female,2022-05-02_15h42.39.608,Parachute,2022.1.1,59.90653383254286,
positive,blue,1,k,None,,,,,,,,,0,82,82,82,,,,,,,,,,,,,,,,,,,,,,,,,,,,,,,,,,,,,main,None,None,1,1.49407350004185,420.7347970000119,None,None,1,,,,,,,,,,,,,,109,24,Female,2022-05-02_15h42.39.608,Parachute,2022.1.1,59.90653383254286,
negative,yellow,2,k,None,,,,,,,,,0,83,83,83,,,,,,,,,,,,,,,,,,,,,,,,,,,,,,,,,,,,,main,None,None,1,1.4981138999573886,423.23277160001453,None,None,1,,,,,,,,,,,,,,109,24,Female,2022-05-02_15h42.39.608,Parachute,2022.1.1,59.90653383254286,
positive,blue,2,k,None,,,,,,,,,0,84,84,84,,,,,,,,,,,,,,,,,,,,,,,,,,,,,,,,,,,,,main,None,None,1,1.4987546000047587,425.73202310001943,None,None,1,,,,,,,,,,,,,,109,24,Female,2022-05-02_15h42.39.608,Parachute,2022.1.1,59.90653383254286,
positive,yellow,1,None,k,,,,,,,,,0,85,85,85,,,,,,,,,,,,,,,,,,,,,,,,,,,,,,,,,,,,,main,k,k,1,1.004030000010971,428.2317820999888,None,None,0,,,,,,,,,,,,,,109,24,Female,2022-05-02_15h42.39.608,Parachute,2022.1.1,59.90653383254286,
positive,blue,2,k,None,,,,,,,,,0,86,86,86,,,,,,,,,,,,,,,,,,,,,,,,,,,,,,,,,,,,,main,None,None,1,1.4937217999831773,430.23525949998293,None,None,1,,,,,,,,,,,,,,109,24,Female,2022-05-02_15h42.39.608,Parachute,2022.1.1,59.90653383254286,
positive,blue,1,k,None,,,,,,,,,0,87,87,87,,,,,,,,,,,,,,,,,,,,,,,,,,,,,,,,,,,,,main,None,None,1,1.498859099985566,432.73210640001344,None,None,1,,,,,,,,,,,,,,109,24,Female,2022-05-02_15h42.39.608,Parachute,2022.1.1,59.90653383254286,
negative,yellow,2,k,None,,,,,,,,,0,88,88,88,,,,,,,,,,,,,,,,,,,,,,,,,,,,,,,,,,,,,main,None,None,1,1.4982429000083357,435.2330004000105,None,None,1,,,,,,,,,,,,,,109,24,Female,2022-05-02_15h42.39.608,Parachute,2022.1.1,59.90653383254286,
negative,blue,2,None,k,,,,,,,,,0,89,89,89,,,,,,,,,,,,,,,,,,,,,,,,,,,,,,,,,,,,,main,k,k,1,0.9371264000074007,437.7321152999648,None,None,0,,,,,,,,,,,,,,109,24,Female,2022-05-02_15h42.39.608,Parachute,2022.1.1,59.90653383254286,
positive,yellow,2,None,k,,,,,,,,,0,90,90,90,,,,,,,,,,,,,,,,,,,,,,,,,,,,,,,,,,,,,main,k,k,1,0.8491053999750875,439.6687088999897,None,None,0,,,,,,,,,,,,,,109,24,Female,2022-05-02_15h42.39.608,Parachute,2022.1.1,59.90653383254286,
negative,yellow,1,k,None,,,,,,,,,0,91,91,91,,,,,,,,,,,,,,,,,,,,,,,,,,,,,,,,,,,,,main,None,None,1,1.4936282999697141,441.5199535000138,None,None,1,,,,,,,,,,,,,,109,24,Female,2022-05-02_15h42.39.608,Parachute,2022.1.1,59.90653383254286,
negative,red,2,None,None,,,,,,,,,0,92,92,92,,,,,,,,,,,,,,,,,,,,,,,,,,,,,,,,,,,,,main,None,None,1,1.498052100010682,444.01657229999546,None,None,1,,,,,,,,,,,,,,109,24,Female,2022-05-02_15h42.39.608,Parachute,2022.1.1,59.90653383254286,
negative,blue,2,None,k,,,,,,,,,0,93,93,93,,,,,,,,,,,,,,,,,,,,,,,,,,,,,,,,,,,,,main,k,k,1,0.9040548999910243,446.5162904000026,None,None,0,,,,,,,,,,,,,,109,24,Female,2022-05-02_15h42.39.608,Parachute,2022.1.1,59.90653383254286,
negative,blue,1,None,k,,,,,,,,,0,94,94,94,,,,,,,,,,,,,,,,,,,,,,,,,,,,,,,,,,,,,main,k,k,1,0.7651041999924928,448.419433699979,None,None,0,,,,,,,,,,,,,,109,24,Female,2022-05-02_15h42.39.608,Parachute,2022.1.1,59.90653383254286,
negative,blue,1,None,k,,,,,,,,,0,95,95,95,,,,,,,,,,,,,,,,,,,,,,,,,,,,,,,,,,,,,main,k,k,1,1.2488446000497788,450.18598040001234,None,None,0,,,,,,,,,,,,,,109,24,Female,2022-05-02_15h42.39.608,Parachute,2022.1.1,59.90653383254286,
negative,red,1,None,None,,,,,,,,,0,96,96,96,,,,,,,,,,,,,,,,,,,,,,,,,,,,,,,,,,,,,main,None,None,1,1.4930738999973983,452.4363023000187,None,None,1,,,,,,,,,,,,,,109,24,Female,2022-05-02_15h42.39.608,Parachute,2022.1.1,59.90653383254286,
positive,yellow,1,None,k,,,,,,,,,0,97,97,97,,,,,,,,,,,,,,,,,,,,,,,,,,,,,,,,,,,,,main,k,k,1,0.7542492999928072,454.93324769998435,None,None,0,,,,,,,,,,,,,,109,24,Female,2022-05-02_15h42.39.608,Parachute,2022.1.1,59.90653383254286,
negative,yellow,1,k,None,,,,,,,,,0,98,98,98,,,,,,,,,,,,,,,,,,,,,,,,,,,,,,,,,,,,,main,None,None,1,1.4934525999706239,456.6858326999936,None,None,1,,,,,,,,,,,,,,109,24,Female,2022-05-02_15h42.39.608,Parachute,2022.1.1,59.90653383254286,
positive,red,1,None,None,,,,,,,,,0,99,99,99,,,,,,,,,,,,,,,,,,,,,,,,,,,,,,,,,,,,,main,None,None,1,1.4987285999814048,459.182561499998,None,None,1,,,,,,,,,,,,,,109,24,Female,2022-05-02_15h42.39.608,Parachute,2022.1.1,59.90653383254286,
positive,blue,1,k,None,,,,,,,,,0,100,100,100,,,,,,,,,,,,,,,,,,,,,,,,,,,,,,,,,,,,,main,None,k,0,0.9376967999851331,461.6824043999659,None,None,1,,,,,,,,,,,,,,109,24,Female,2022-05-02_15h42.39.608,Parachute,2022.1.1,59.90653383254286,
negative,yellow,1,k,None,,,,,,,,,0,101,101,101,,,,,,,,,,,,,,,,,,,,,,,,,,,,,,,,,,,,,main,None,None,1,1.5020817999611609,464.6644712999696,None,None,1,,,,,,,,,,,,,,109,24,Female,2022-05-02_15h42.39.608,Parachute,2022.1.1,59.90653383254286,
negative,blue,2,None,k,,,,,,,,,0,102,102,102,,,,,,,,,,,,,,,,,,,,,,,,,,,,,,,,,,,,,main,k,k,1,0.9539837000193074,467.16663130000234,None,None,0,,,,,,,,,,,,,,109,24,Female,2022-05-02_15h42.39.608,Parachute,2022.1.1,59.90653383254286,
negative,yellow,2,k,None,,,,,,,,,0,103,103,103,,,,,,,,,,,,,,,,,,,,,,,,,,,,,,,,,,,,,main,None,None,1,1.4933182999957353,469.1196378999739,None,None,1,,,,,,,,,,,,,,109,24,Female,2022-05-02_15h42.39.608,Parachute,2022.1.1,59.90653383254286,
positive,yellow,2,None,k,,,,,,,,,0,104,104,104,,,,,,,,,,,,,,,,,,,,,,,,,,,,,,,,,,,,,main,k,k,1,0.9142211999860592,471.61698039999465,None,None,0,,,,,,,,,,,,,,109,24,Female,2022-05-02_15h42.39.608,Parachute,2022.1.1,59.90653383254286,
positive,blue,1,k,None,,,,,,,,,0,105,105,105,,,,,,,,,,,,,,,,,,,,,,,,,,,,,,,,,,,,,main,None,None,1,1.4994810000061989,473.5321280999924,None,None,1,,,,,,,,,,,,,,109,24,Female,2022-05-02_15h42.39.608,Parachute,2022.1.1,59.90653383254286,
positive,blue,2,k,None,,,,,,,,,0,106,106,106,,,,,,,,,,,,,,,,,,,,,,,,,,,,,,,,,,,,,main,None,None,1,1.4987924000015482,476.0332704000175,None,None,1,,,,,,,,,,,,,,109,24,Female,2022-05-02_15h42.39.608,Parachute,2022.1.1,59.90653383254286,
negative,blue,1,None,k,,,,,,,,,0,107,107,107,,,,,,,,,,,,,,,,,,,,,,,,,,,,,,,,,,,,,main,k,k,1,0.8206534999771975,478.53295899997465,None,None,0,,,,,,,,,,,,,,109,24,Female,2022-05-02_15h42.39.608,Parachute,2022.1.1,59.90653383254286,
positive,yellow,2,None,k,,,,,,,,,0,108,108,108,,,,,,,,,,,,,,,,,,,,,,,,,,,,,,,,,,,,,main,k,k,1,1.031380599946715,480.35277479997603,None,None,0,,,,,,,,,,,,,,109,24,Female,2022-05-02_15h42.39.608,Parachute,2022.1.1,59.90653383254286,
negative,yellow,1,k,None,,,,,,,,,0,109,109,109,,,,,,,,,,,,,,,,,,,,,,,,,,,,,,,,,,,,,main,None,None,1,1.4940223000012338,482.3868954000063,None,None,1,,,,,,,,,,,,,,109,24,Female,2022-05-02_15h42.39.608,Parachute,2022.1.1,59.90653383254286,
negative,blue,2,None,k,,,,,,,,,0,110,110,110,,,,,,,,,,,,,,,,,,,,,,,,,,,,,,,,,,,,,main,k,k,1,1.0872002000105567,484.88354609999806,None,None,0,,,,,,,,,,,,,,109,24,Female,2022-05-02_15h42.39.608,Parachute,2022.1.1,59.90653383254286,
positive,blue,2,k,None,,,,,,,,,0,111,111,111,,,,,,,,,,,,,,,,,,,,,,,,,,,,,,,,,,,,,main,None,None,1,1.4937069999868982,486.9699446000159,None,None,1,,,,,,,,,,,,,,109,24,Female,2022-05-02_15h42.39.608,Parachute,2022.1.1,59.90653383254286,
negative,blue,1,None,k,,,,,,,,,0,112,112,112,,,,,,,,,,,,,,,,,,,,,,,,,,,,,,,,,,,,,main,k,k,1,0.7532664000173099,489.4673082999652,None,None,0,,,,,,,,,,,,,,109,24,Female,2022-05-02_15h42.39.608,Parachute,2022.1.1,59.90653383254286,
positive,yellow,1,None,k,,,,,,,,,0,113,113,113,,,,,,,,,,,,,,,,,,,,,,,,,,,,,,,,,,,,,main,k,k,1,1.0663232000079006,491.2196773000178,None,None,0,,,,,,,,,,,,,,109,24,Female,2022-05-02_15h42.39.608,Parachute,2022.1.1,59.90653383254286,
negative,red,1,None,None,,,,,,,,,0,114,114,114,,,,,,,,,,,,,,,,,,,,,,,,,,,,,,,,,,,,,main,None,None,1,1.5096743000322022,493.287406599964,None,None,1,,,,,,,,,,,,,,109,24,Female,2022-05-02_15h42.39.608,Parachute,2022.1.1,59.90653383254286,
positive,red,1,None,None,,,,,,,,,0,115,115,115,,,,,,,,,,,,,,,,,,,,,,,,,,,,,,,,,,,,,main,None,None,1,1.4983955000061542,495.8008514000103,None,None,1,,,,,,,,,,,,,,109,24,Female,2022-05-02_15h42.39.608,Parachute,2022.1.1,59.90653383254286,
negative,red,2,None,None,,,,,,,,,0,116,116,116,,,,,,,,,,,,,,,,,,,,,,,,,,,,,,,,,,,,,main,None,None,1,1.4990614000125788,498.3000761999865,None,None,1,,,,,,,,,,,,,,109,24,Female,2022-05-02_15h42.39.608,Parachute,2022.1.1,59.90653383254286,
negative,yellow,2,k,None,,,,,,,,,0,117,117,117,,,,,,,,,,,,,,,,,,,,,,,,,,,,,,,,,,,,,main,None,None,1,1.4986303999903612,500.80024499999126,None,None,1,,,,,,,,,,,,,,109,24,Female,2022-05-02_15h42.39.608,Parachute,2022.1.1,59.90653383254286,
positive,yellow,1,None,k,,,,,,,,,0,118,118,118,,,,,,,,,,,,,,,,,,,,,,,,,,,,,,,,,,,,,main,k,k,1,1.0193801000132225,503.299934700015,None,None,0,,,,,,,,,,,,,,109,24,Female,2022-05-02_15h42.39.608,Parachute,2022.1.1,59.90653383254286,
positive,red,2,None,None,,,,,,,,,0,119,119,119,,,,,,,,,,,,,,,,,,,,,,,,,,,,,,,,,,,,,main,None,None,1,1.495059700042475,505.33052640000824,None,None,1,,,,,,,,,,,,,,109,24,Female,2022-05-02_15h42.39.608,Parachute,2022.1.1,59.90653383254286,
positive,blue,2,k,None,,,,,,,,,0,120,120,120,,,,,,,,,,,,,,,,,,,,,,,,,,,,,,,,,,,,,main,None,None,1,1.4987712999572977,507.8178692999645,None,None,1,,,,,,,,,,,,,,109,24,Female,2022-05-02_15h42.39.608,Parachute,2022.1.1,59.90653383254286,
negative,red,1,None,None,,,,,,,,,0,121,121,121,,,,,,,,,,,,,,,,,,,,,,,,,,,,,,,,,,,,,main,None,None,1,1.497885300021153,510.3179554999806,None,None,1,,,,,,,,,,,,,,109,24,Female,2022-05-02_15h42.39.608,Parachute,2022.1.1,59.90653383254286,
positive,yellow,2,None,k,,,,,,,,,0,122,122,122,,,,,,,,,,,,,,,,,,,,,,,,,,,,,,,,,,,,,main,k,k,1,0.9201969000278041,512.8168905999628,None,None,0,,,,,,,,,,,,,,109,24,Female,2022-05-02_15h42.39.608,Parachute,2022.1.1,59.90653383254286,
negative,red,2,None,None,,,,,,,,,0,123,123,123,,,,,,,,,,,,,,,,,,,,,,,,,,,,,,,,,,,,,main,None,None,1,1.4947667999658734,514.7477966999868,None,None,1,,,,,,,,,,,,,,109,24,Female,2022-05-02_15h42.39.608,Parachute,2022.1.1,59.90653383254286,
negative,yellow,2,k,None,,,,,,,,,0,124,124,124,,,,,,,,,,,,,,,,,,,,,,,,,,,,,,,,,,,,,main,None,None,1,1.4981562999892049,517.2349422000116,None,None,1,,,,,,,,,,,,,,109,24,Female,2022-05-02_15h42.39.608,Parachute,2022.1.1,59.90653383254286,
positive,red,1,None,None,,,,,,,,,0,125,125,125,,,,,,,,,,,,,,,,,,,,,,,,,,,,,,,,,,,,,main,None,None,1,1.4992734999977984,519.7340473000077,None,None,1,,,,,,,,,,,,,,109,24,Female,2022-05-02_15h42.39.608,Parachute,2022.1.1,59.90653383254286,
negative,blue,2,None,k,,,,,,,,,0,126,126,126,,,,,,,,,,,,,,,,,,,,,,,,,,,,,,,,,,,,,main,k,k,1,0.8368688999908045,522.2348849999835,None,None,0,,,,,,,,,,,,,,109,24,Female,2022-05-02_15h42.39.608,Parachute,2022.1.1,59.90653383254286,
negative,blue,1,None,k,,,,,,,,,0,127,127,127,,,,,,,,,,,,,,,,,,,,,,,,,,,,,,,,,,,,,main,k,k,1,0.7166680000373162,524.070689300017,None,None,0,,,,,,,,,,,,,,109,24,Female,2022-05-02_15h42.39.608,Parachute,2022.1.1,59.90653383254286,
negative,yellow,1,k,None,,,,,,,,,0,128,128,128,,,,,,,,,,,,,,,,,,,,,,,,,,,,,,,,,,,,,main,None,None,1,1.5084153999923728,525.7888766999822,None,None,1,,,,,,,,,,,,,,109,24,Female,2022-05-02_15h42.39.608,Parachute,2022.1.1,59.90653383254286,
negative,yellow,1,k,None,,,,,,,,,0,129,129,129,,,,,,,,,,,,,,,,,,,,,,,,,,,,,,,,,,,,,main,None,None,1,1.4987421999685466,528.3007565999869,None,None,1,,,,,,,,,,,,,,109,24,Female,2022-05-02_15h42.39.608,Parachute,2022.1.1,59.90653383254286,
positive,blue,1,k,None,,,,,,,,,0,130,130,130,,,,,,,,,,,,,,,,,,,,,,,,,,,,,,,,,,,,,main,None,None,1,1.4988060999894515,530.8015832999954,None,None,1,,,,,,,,,,,,,,109,24,Female,2022-05-02_15h42.39.608,Parachute,2022.1.1,59.90653383254286,
negative,blue,1,None,k,,,,,,,,,0,131,131,131,,,,,,,,,,,,,,,,,,,,,,,,,,,,,,,,,,,,,main,k,k,1,0.7214770999853499,533.3006331999786,None,None,0,,,,,,,,,,,,,,109,24,Female,2022-05-02_15h42.39.608,Parachute,2022.1.1,59.90653383254286,
negative,blue,2,None,k,,,,,,,,,0,132,132,132,,,,,,,,,,,,,,,,,,,,,,,,,,,,,,,,,,,,,main,k,k,1,0.7478482999722473,535.0212610000162,None,None,0,,,,,,,,,,,,,,109,24,Female,2022-05-02_15h42.39.608,Parachute,2022.1.1,59.90653383254286,
positive,blue,2,k,None,,,,,,,,,0,133,133,133,,,,,,,,,,,,,,,,,,,,,,,,,,,,,,,,,,,,,main,None,None,1,1.4937456999905407,536.7710929000168,None,None,1,,,,,,,,,,,,,,109,24,Female,2022-05-02_15h42.39.608,Parachute,2022.1.1,59.90653383254286,
positive,red,2,None,None,,,,,,,,,0,134,134,134,,,,,,,,,,,,,,,,,,,,,,,,,,,,,,,,,,,,,main,None,None,1,1.4989773000124842,539.2682179000112,None,None,1,,,,,,,,,,,,,,109,24,Female,2022-05-02_15h42.39.608,Parachute,2022.1.1,59.90653383254286,
negative,yellow,2,k,None,,,,,,,,,0,135,135,135,,,,,,,,,,,,,,,,,,,,,,,,,,,,,,,,,,,,,main,None,None,1,1.498057599994354,541.7685817999882,None,None,1,,,,,,,,,,,,,,109,24,Female,2022-05-02_15h42.39.608,Parachute,2022.1.1,59.90653383254286,
positive,yellow,2,None,k,,,,,,,,,0,136,136,136,,,,,,,,,,,,,,,,,,,,,,,,,,,,,,,,,,,,,main,k,k,1,0.8868307000375353,544.2687436999986,None,None,0,,,,,,,,,,,,,,109,24,Female,2022-05-02_15h42.39.608,Parachute,2022.1.1,59.90653383254286,
positive,blue,1,k,None,,,,,,,,,0,137,137,137,,,,,,,,,,,,,,,,,,,,,,,,,,,,,,,,,,,,,main,None,None,1,1.4941307000117376,546.1540191000095,None,None,1,,,,,,,,,,,,,,109,24,Female,2022-05-02_15h42.39.608,Parachute,2022.1.1,59.90653383254286,
positive,yellow,1,None,k,,,,,,,,,0,138,138,138,,,,,,,,,,,,,,,,,,,,,,,,,,,,,,,,,,,,,main,k,k,1,1.0881151999928989,548.6514681999688,None,None,0,,,,,,,,,,,,,,109,24,Female,2022-05-02_15h42.39.608,Parachute,2022.1.1,59.90653383254286,
positive,yellow,1,None,k,,,,,,,,,0,139,139,139,,,,,,,,,,,,,,,,,,,,,,,,,,,,,,,,,,,,,main,k,k,1,0.7637088999617845,550.7395031999913,None,None,0,,,,,,,,,,,,,,109,24,Female,2022-05-02_15h42.39.608,Parachute,2022.1.1,59.90653383254286,
positive,yellow,1,None,k,,,,,,,,,0,140,140,140,,,,,,,,,,,,,,,,,,,,,,,,,,,,,,,,,,,,,main,k,k,1,0.7332973000011407,552.5045252999989,None,None,0,,,,,,,,,,,,,,109,24,Female,2022-05-02_15h42.39.608,Parachute,2022.1.1,59.90653383254286,
positive,blue,1,k,None,,,,,,,,,0,141,141,141,,,,,,,,,,,,,,,,,,,,,,,,,,,,,,,,,,,,,main,None,None,1,1.4928220000001602,554.2390258999658,None,None,1,,,,,,,,,,,,,,109,24,Female,2022-05-02_15h42.39.608,Parachute,2022.1.1,59.90653383254286,
positive,blue,2,k,None,,,,,,,,,0,142,142,142,,,,,,,,,,,,,,,,,,,,,,,,,,,,,,,,,,,,,main,None,None,1,1.4987045000307262,556.7353098000167,None,None,1,,,,,,,,,,,,,,109,24,Female,2022-05-02_15h42.39.608,Parachute,2022.1.1,59.90653383254286,
positive,yellow,2,None,k,,,,,,,,,0,143,143,143,,,,,,,,,,,,,,,,,,,,,,,,,,,,,,,,,,,,,main,k,k,1,1.0538003999972716,559.2356662999955,None,None,0,,,,,,,,,,,,,,109,24,Female,2022-05-02_15h42.39.608,Parachute,2022.1.1,59.90653383254286,
negative,yellow,2,k,None,,,,,,,,,0,144,144,144,,,,,,,,,,,,,,,,,,,,,,,,,,,,,,,,,,,,,main,None,None,1,1.4936669999733567,561.288862299989,None,None,1,,,,,,,,,,,,,,109,24,Female,2022-05-02_15h42.39.608,Parachute,2022.1.1,59.90653383254286,
negative,blue,2,None,k,,,,,,,,,0,145,145,145,,,,,,,,,,,,,,,,,,,,,,,,,,,,,,,,,,,,,main,k,k,1,0.8037352999672294,563.7863929999876,None,None,0,,,,,,,,,,,,,,109,24,Female,2022-05-02_15h42.39.608,Parachute,2022.1.1,59.90653383254286,
negative,red,1,None,None,,,,,,,,,0,146,146,146,,,,,,,,,,,,,,,,,,,,,,,,,,,,,,,,,,,,,main,None,None,1,1.4940308000077493,565.5883487999672,None,None,1,,,,,,,,,,,,,,109,24,Female,2022-05-02_15h42.39.608,Parachute,2022.1.1,59.90653383254286,
positive,blue,1,k,None,,,,,,,,,0,147,147,147,,,,,,,,,,,,,,,,,,,,,,,,,,,,,,,,,,,,,main,None,None,1,1.4980267000501044,568.0855802000151,None,None,1,,,,,,,,,,,,,,109,24,Female,2022-05-02_15h42.39.608,Parachute,2022.1.1,59.90653383254286,
positive,yellow,1,None,k,,,,,,,,,0,148,148,148,,,,,,,,,,,,,,,,,,,,,,,,,,,,,,,,,,,,,main,k,k,1,0.7214617000427097,570.5848111999803,None,None,0,,,,,,,,,,,,,,109,24,Female,2022-05-02_15h42.39.608,Parachute,2022.1.1,59.90653383254286,
negative,red,2,None,None,,,,,,,,,0,149,149,149,,,,,,,,,,,,,,,,,,,,,,,,,,,,,,,,,,,,,main,None,None,1,1.4929578000446782,572.3056154999649,None,None,1,,,,,,,,,,,,,,109,24,Female,2022-05-02_15h42.39.608,Parachute,2022.1.1,59.90653383254286,
negative,blue,1,None,k,,,,,,,,,0,150,150,150,,,,,,,,,,,,,,,,,,,,,,,,,,,,,,,,,,,,,main,k,k,1,0.8382163000060245,574.8019080999657,None,None,0,,,,,,,,,,,,,,109,24,Female,2022-05-02_15h42.39.608,Parachute,2022.1.1,59.90653383254286,
negative,yellow,2,k,None,,,,,,,,,0,151,151,151,,,,,,,,,,,,,,,,,,,,,,,,,,,,,,,,,,,,,main,None,None,1,1.5085552000091411,576.6401614999631,None,None,1,,,,,,,,,,,,,,109,24,Female,2022-05-02_15h42.39.608,Parachute,2022.1.1,59.90653383254286,
negative,blue,2,None,k,,,,,,,,,0,152,152,152,,,,,,,,,,,,,,,,,,,,,,,,,,,,,,,,,,,,,main,k,k,1,0.8124548999476247,579.1514897000161,None,None,0,,,,,,,,,,,,,,109,24,Female,2022-05-02_15h42.39.608,Parachute,2022.1.1,59.90653383254286,
negative,yellow,1,k,None,,,,,,,,,0,153,153,153,,,,,,,,,,,,,,,,,,,,,,,,,,,,,,,,,,,,,main,None,None,1,1.5018588999519125,580.966259400011,None,None,1,,,,,,,,,,,,,,109,24,Female,2022-05-02_15h42.39.608,Parachute,2022.1.1,59.90653383254286,
negative,blue,1,None,k,,,,,,,,,0,154,154,154,,,,,,,,,,,,,,,,,,,,,,,,,,,,,,,,,,,,,main,k,k,1,0.8809971999726258,583.468345900008,None,None,0,,,,,,,,,,,,,,109,24,Female,2022-05-02_15h42.39.608,Parachute,2022.1.1,59.90653383254286,
positive,yellow,2,None,k,,,,,,,,,0,155,155,155,,,,,,,,,,,,,,,,,,,,,,,,,,,,,,,,,,,,,main,k,k,1,0.7049452000064775,585.3513521999703,None,None,0,,,,,,,,,,,,,,109,24,Female,2022-05-02_15h42.39.608,Parachute,2022.1.1,59.90653383254286,
positive,red,2,None,None,,,,,,,,,0,156,156,156,,,,,,,,,,,,,,,,,,,,,,,,,,,,,,,,,,,,,main,None,None,1,1.4934608999756165,587.0556563999853,None,None,1,,,,,,,,,,,,,,109,24,Female,2022-05-02_15h42.39.608,Parachute,2022.1.1,59.90653383254286,
positive,red,1,None,None,,,,,,,,,0,157,157,157,,,,,,,,,,,,,,,,,,,,,,,,,,,,,,,,,,,,,main,None,None,1,1.498555199999828,589.5518229000154,None,None,1,,,,,,,,,,,,,,109,24,Female,2022-05-02_15h42.39.608,Parachute,2022.1.1,59.90653383254286,
positive,blue,2,k,None,,,,,,,,,0,158,158,158,,,,,,,,,,,,,,,,,,,,,,,,,,,,,,,,,,,,,main,None,None,1,1.4986334000132047,592.0524483000045,None,None,1,,,,,,,,,,,,,,109,24,Female,2022-05-02_15h42.39.608,Parachute,2022.1.1,59.90653383254286,
negative,yellow,1,k,None,,,,,,,,,0,159,159,159,,,,,,,,,,,,,,,,,,,,,,,,,,,,,,,,,,,,,main,None,None,1,1.4991618999629281,594.5518722999841,None,None,1,,,,,,,,,,,,,,109,24,Female,2022-05-02_15h42.39.608,Parachute,2022.1.1,59.90653383254286,
negative,red,2,None,None,,,,,,,,,0,160,160,160,,,,,,,,,,,,,,,,,,,,,,,,,,,,,,,,,,,,,main,None,None,1,1.498783800052479,597.0530327999732,None,None,1,,,,,,,,,,,,,,109,24,Female,2022-05-02_15h42.39.608,Parachute,2022.1.1,59.90653383254286,
negative,blue,1,None,k,,,,,,,,,0,161,161,161,,,,,,,,,,,,,,,,,,,,,,,,,,,,,,,,,,,,,main,k,k,1,0.7862697999808006,599.552697999985,None,None,0,,,,,,,,,,,,,,109,24,Female,2022-05-02_15h42.39.608,Parachute,2022.1.1,59.90653383254286,
negative,blue,1,None,k,,,,,,,,,0,162,162,162,,,,,,,,,,,,,,,,,,,,,,,,,,,,,,,,,,,,,main,k,k,1,0.8001033999607898,601.3382790000178,None,None,0,,,,,,,,,,,,,,109,24,Female,2022-05-02_15h42.39.608,Parachute,2022.1.1,59.90653383254286,
negative,yellow,1,k,None,,,,,,,,,0,163,163,163,,,,,,,,,,,,,,,,,,,,,,,,,,,,,,,,,,,,,main,None,None,1,1.4940099999657832,603.1401713999803,None,None,1,,,,,,,,,,,,,,109,24,Female,2022-05-02_15h42.39.608,Parachute,2022.1.1,59.90653383254286,
negative,yellow,1,k,None,,,,,,,,,0,164,164,164,,,,,,,,,,,,,,,,,,,,,,,,,,,,,,,,,,,,,main,None,None,1,1.4985900000319816,605.6377377000172,None,None,1,,,,,,,,,,,,,,109,24,Female,2022-05-02_15h42.39.608,Parachute,2022.1.1,59.90653383254286,
positive,yellow,1,None,k,,,,,,,,,0,165,165,165,,,,,,,,,,,,,,,,,,,,,,,,,,,,,,,,,,,,,main,k,k,1,0.7030549999908544,608.137661100016,None,None,0,,,,,,,,,,,,,,109,24,Female,2022-05-02_15h42.39.608,Parachute,2022.1.1,59.90653383254286,
negative,red,1,None,None,,,,,,,,,0,166,166,166,,,,,,,,,,,,,,,,,,,,,,,,,,,,,,,,,,,,,main,None,None,1,1.4929312000167556,609.8389930999838,None,None,1,,,,,,,,,,,,,,109,24,Female,2022-05-02_15h42.39.608,Parachute,2022.1.1,59.90653383254286,
negative,yellow,2,k,None,,,,,,,,,0,167,167,167,,,,,,,,,,,,,,,,,,,,,,,,,,,,,,,,,,,,,main,None,None,1,1.4983871000004,612.336408299976,None,None,1,,,,,,,,,,,,,,109,24,Female,2022-05-02_15h42.39.608,Parachute,2022.1.1,59.90653383254286,
positive,blue,2,k,None,,,,,,,,,0,168,168,168,,,,,,,,,,,,,,,,,,,,,,,,,,,,,,,,,,,,,main,None,None,1,1.4991202999954112,614.8352247999865,None,None,1,,,,,,,,,,,,,,109,24,Female,2022-05-02_15h42.39.608,Parachute,2022.1.1,59.90653383254286,
positive,red,2,None,None,,,,,,,,,0,169,169,169,,,,,,,,,,,,,,,,,,,,,,,,,,,,,,,,,,,,,main,None,None,1,1.4982482999912463,617.3364983999636,None,None,1,,,,,,,,,,,,,,109,24,Female,2022-05-02_15h42.39.608,Parachute,2022.1.1,59.90653383254286,
positive,red,1,None,None,,,,,,,,,0,170,170,170,,,,,,,,,,,,,,,,,,,,,,,,,,,,,,,,,,,,,main,None,None,1,1.4987317000050098,619.8356140999822,None,None,1,,,,,,,,,,,,,,109,24,Female,2022-05-02_15h42.39.608,Parachute,2022.1.1,59.90653383254286,
negative,blue,2,None,k,,,,,,,,,0,171,171,171,,,,,,,,,,,,,,,,,,,,,,,,,,,,,,,,,,,,,main,k,k,1,1.0372062000096776,622.3355413000099,None,None,0,,,,,,,,,,,,,,109,24,Female,2022-05-02_15h42.39.608,Parachute,2022.1.1,59.90653383254286,
positive,blue,2,k,None,,,,,,,,,0,172,172,172,,,,,,,,,,,,,,,,,,,,,,,,,,,,,,,,,,,,,main,None,None,1,1.4938513999804854,624.372200999991,None,None,1,,,,,,,,,,,,,,109,24,Female,2022-05-02_15h42.39.608,Parachute,2022.1.1,59.90653383254286,
negative,yellow,2,k,None,,,,,,,,,0,173,173,173,,,,,,,,,,,,,,,,,,,,,,,,,,,,,,,,,,,,,main,None,None,1,1.4987772000022233,626.8695506000076,None,None,1,,,,,,,,,,,,,,109,24,Female,2022-05-02_15h42.39.608,Parachute,2022.1.1,59.90653383254286,
positive,yellow,2,None,k,,,,,,,,,0,174,174,174,,,,,,,,,,,,,,,,,,,,,,,,,,,,,,,,,,,,,main,k,k,1,0.8041275999858044,629.3700998999993,None,None,0,,,,,,,,,,,,,,109,24,Female,2022-05-02_15h42.39.608,Parachute,2022.1.1,59.90653383254286,
negative,blue,2,None,k,,,,,,,,,0,175,175,175,,,,,,,,,,,,,,,,,,,,,,,,,,,,,,,,,,,,,main,k,k,1,0.8647783999913372,631.1732416999876,None,None,0,,,,,,,,,,,,,,109,24,Female,2022-05-02_15h42.39.608,Parachute,2022.1.1,59.90653383254286,
positive,blue,1,k,None,,,,,,,,,0,176,176,176,,,,,,,,,,,,,,,,,,,,,,,,,,,,,,,,,,,,,main,None,None,1,1.4931497999932617,633.0406169999624,None,None,1,,,,,,,,,,,,,,109,24,Female,2022-05-02_15h42.39.608,Parachute,2022.1.1,59.90653383254286,
positive,yellow,1,None,k,,,,,,,,,0,177,177,177,,,,,,,,,,,,,,,,,,,,,,,,,,,,,,,,,,,,,main,k,k,1,0.8874467000132427,635.5371662999969,None,None,0,,,,,,,,,,,,,,109,24,Female,2022-05-02_15h42.39.608,Parachute,2022.1.1,59.90653383254286,
positive,blue,1,k,None,,,,,,,,,0,178,178,178,,,,,,,,,,,,,,,,,,,,,,,,,,,,,,,,,,,,,main,None,None,1,1.5097273000283167,637.4244753000094,None,None,1,,,,,,,,,,,,,,109,24,Female,2022-05-02_15h42.39.608,Parachute,2022.1.1,59.90653383254286,
positive,yellow,2,None,k,,,,,,,,,0,179,179,179,,,,,,,,,,,,,,,,,,,,,,,,,,,,,,,,,,,,,main,k,k,1,1.3031401000334881,639.9379442000063,None,None,0,,,,,,,,,,,,,,109,24,Female,2022-05-02_15h42.39.608,Parachute,2022.1.1,59.90653383254286,
positive,blue,1,k,None,,,,,,,,,0,180,180,180,,,,,,,,,,,,,,,,,,,,,,,,,,,,,,,,,,,,,main,None,None,1,1.4933766999747604,642.2394957999932,None,None,1,,,,,,,,,,,,,,109,24,Female,2022-05-02_15h42.39.608,Parachute,2022.1.1,59.90653383254286,
negative,red,1,None,None,,,,,,,,,0,181,181,181,,,,,,,,,,,,,,,,,,,,,,,,,,,,,,,,,,,,,main,None,None,1,1.4986940000089817,644.7368284999975,None,None,1,,,,,,,,,,,,,,109,24,Female,2022-05-02_15h42.39.608,Parachute,2022.1.1,59.90653383254286,
negative,blue,1,None,k,,,,,,,,,0,182,182,182,,,,,,,,,,,,,,,,,,,,,,,,,,,,,,,,,,,,,main,k,k,1,0.8367191999568604,647.236859800003,None,None,0,,,,,,,,,,,,,,109,24,Female,2022-05-02_15h42.39.608,Parachute,2022.1.1,59.90653383254286,
negative,yellow,2,k,None,,,,,,,,,0,183,183,183,,,,,,,,,,,,,,,,,,,,,,,,,,,,,,,,,,,,,main,None,None,1,1.4938776000053622,649.072543199989,None,None,1,,,,,,,,,,,,,,109,24,Female,2022-05-02_15h42.39.608,Parachute,2022.1.1,59.90653383254286,
positive,yellow,2,None,k,,,,,,,,,0,184,184,184,,,,,,,,,,,,,,,,,,,,,,,,,,,,,,,,,,,,,main,k,k,1,0.8043969999998808,651.5699809999787,None,None,0,,,,,,,,,,,,,,109,24,Female,2022-05-02_15h42.39.608,Parachute,2022.1.1,59.90653383254286,
positive,yellow,1,None,k,,,,,,,,,0,185,185,185,,,,,,,,,,,,,,,,,,,,,,,,,,,,,,,,,,,,,main,k,k,1,1.7145154000027105,653.3741513999994,None,None,0,,,,,,,,,,,,,,109,24,Female,2022-05-02_15h42.39.608,Parachute,2022.1.1,59.90653383254286,
positive,red,2,None,None,,,,,,,,,0,186,186,186,,,,,,,,,,,,,,,,,,,,,,,,,,,,,,,,,,,,,main,None,None,1,1.5019210000173189,657.1011672000168,None,None,1,,,,,,,,,,,,,,109,24,Female,2022-05-02_15h42.39.608,Parachute,2022.1.1,59.90653383254286,
positive,blue,1,k,None,,,,,,,,,0,187,187,187,,,,,,,,,,,,,,,,,,,,,,,,,,,,,,,,,,,,,main,None,None,1,1.4986134999780916,659.6039525999804,None,None,1,,,,,,,,,,,,,,109,24,Female,2022-05-02_15h42.39.608,Parachute,2022.1.1,59.90653383254286,
negative,yellow,1,k,None,,,,,,,,,0,188,188,188,,,,,,,,,,,,,,,,,,,,,,,,,,,,,,,,,,,,,main,None,None,1,1.4990759999491274,662.1039571000147,None,None,1,,,,,,,,,,,,,,109,24,Female,2022-05-02_15h42.39.608,Parachute,2022.1.1,59.90653383254286,
positive,yellow,2,None,k,,,,,,,,,0,189,189,189,,,,,,,,,,,,,,,,,,,,,,,,,,,,,,,,,,,,,main,k,k,1,0.9037081000278704,664.6039288999746,None,None,0,,,,,,,,,,,,,,109,24,Female,2022-05-02_15h42.39.608,Parachute,2022.1.1,59.90653383254286,
negative,yellow,2,k,None,,,,,,,,,0,190,190,190,,,,,,,,,,,,,,,,,,,,,,,,,,,,,,,,,,,,,main,None,None,1,1.4933762999717146,666.5066508000018,None,None,1,,,,,,,,,,,,,,109,24,Female,2022-05-02_15h42.39.608,Parachute,2022.1.1,59.90653383254286,
negative,yellow,1,k,None,,,,,,,,,0,191,191,191,,,,,,,,,,,,,,,,,,,,,,,,,,,,,,,,,,,,,main,None,None,1,1.4987403000122868,669.0039883999852,None,None,1,,,,,,,,,,,,,,109,24,Female,2022-05-02_15h42.39.608,Parachute,2022.1.1,59.90653383254286,
positive,blue,2,k,None,,,,,,,,,0,192,192,192,,,,,,,,,,,,,,,,,,,,,,,,,,,,,,,,,,,,,main,None,None,1,1.4986189000192098,671.5041410999838,None,None,1,,,,,,,,,,,,,,109,24,Female,2022-05-02_15h42.39.608,Parachute,2022.1.1,59.90653383254286,
positive,yellow,1,None,k,,,,,,,,,0,193,193,193,,,,,,,,,,,,,,,,,,,,,,,,,,,,,,,,,,,,,main,k,k,1,0.8712860000086948,674.0039606000064,None,None,0,,,,,,,,,,,,,,109,24,Female,2022-05-02_15h42.39.608,Parachute,2022.1.1,59.90653383254286,
negative,red,2,None,None,,,,,,,,,0,194,194,194,,,,,,,,,,,,,,,,,,,,,,,,,,,,,,,,,,,,,main,None,None,1,1.492496500024572,675.8746494000079,None,None,1,,,,,,,,,,,,,,109,24,Female,2022-05-02_15h42.39.608,Parachute,2022.1.1,59.90653383254286,
positive,red,1,None,None,,,,,,,,,0,195,195,195,,,,,,,,,,,,,,,,,,,,,,,,,,,,,,,,,,,,,main,None,None,1,1.4990452000056393,678.3701106999652,None,None,1,,,,,,,,,,,,,,109,24,Female,2022-05-02_15h42.39.608,Parachute,2022.1.1,59.90653383254286,
negative,blue,1,None,k,,,,,,,,,0,196,196,196,,,,,,,,,,,,,,,,,,,,,,,,,,,,,,,,,,,,,main,k,k,1,0.6372805999708362,680.8704763000133,None,None,0,,,,,,,,,,,,,,109,24,Female,2022-05-02_15h42.39.608,Parachute,2022.1.1,59.90653383254286,
positive,blue,2,k,None,,,,,,,,,0,197,197,197,,,,,,,,,,,,,,,,,,,,,,,,,,,,,,,,,,,,,main,None,None,1,1.4934721000026911,682.5070874000085,None,None,1,,,,,,,,,,,,,,109,24,Female,2022-05-02_15h42.39.608,Parachute,2022.1.1,59.90653383254286,
negative,blue,2,None,k,,,,,,,,,0,198,198,198,,,,,,,,,,,,,,,,,,,,,,,,,,,,,,,,,,,,,main,k,k,1,1.3212370999972336,685.0041296000127,None,None,0,,,,,,,,,,,,,,109,24,Female,2022-05-02_15h42.39.608,Parachute,2022.1.1,59.90653383254286,
negative,blue,2,None,k,,,,,,,,,0,199,199,199,,,,,,,,,,,,,,,,,,,,,,,,,,,,,,,,,,,,,main,k,k,1,0.7482590000145137,687.3244354999624,None,None,0,,,,,,,,,,,,,,109,24,Female,2022-05-02_15h42.39.608,Parachute,2022.1.1,59.90653383254286,
positive,blue,2,k,None,,,,,,,,,0,200,200,200,,,,,,,,,,,,,,,,,,,,,,,,,,,,,,,,,,,,,main,None,None,1,1.4928686000057496,689.0737126999884,None,None,1,,,,,,,,,,,,,,109,24,Female,2022-05-02_15h42.39.608,Parachute,2022.1.1,59.90653383254286,
positive,blue,2,k,None,,,,,,,,,0,201,201,201,,,,,,,,,,,,,,,,,,,,,,,,,,,,,,,,,,,,,main,None,None,1,1.4993631999823265,691.5705556999892,None,None,1,,,,,,,,,,,,,,109,24,Female,2022-05-02_15h42.39.608,Parachute,2022.1.1,59.90653383254286,
negative,yellow,2,k,None,,,,,,,,,0,202,202,202,,,,,,,,,,,,,,,,,,,,,,,,,,,,,,,,,,,,,main,None,None,1,1.498831800010521,694.0709601999843,None,None,1,,,,,,,,,,,,,,109,24,Female,2022-05-02_15h42.39.608,Parachute,2022.1.1,59.90653383254286,
positive,red,1,None,None,,,,,,,,,0,203,203,203,,,,,,,,,,,,,,,,,,,,,,,,,,,,,,,,,,,,,main,None,None,1,1.4984930000500754,696.571139800013,None,None,1,,,,,,,,,,,,,,109,24,Female,2022-05-02_15h42.39.608,Parachute,2022.1.1,59.90653383254286,
negative,blue,2,None,k,,,,,,,,,0,204,204,204,,,,,,,,,,,,,,,,,,,,,,,,,,,,,,,,,,,,,main,k,k,1,1.0865060000214726,699.0710358999786,None,None,0,,,,,,,,,,,,,,109,24,Female,2022-05-02_15h42.39.608,Parachute,2022.1.1,59.90653383254286,
negative,red,1,None,None,,,,,,,,,0,205,205,205,,,,,,,,,,,,,,,,,,,,,,,,,,,,,,,,,,,,,main,None,None,1,1.4941362999961711,701.1572352999938,None,None,1,,,,,,,,,,,,,,109,24,Female,2022-05-02_15h42.39.608,Parachute,2022.1.1,59.90653383254286,
negative,blue,2,None,k,,,,,,,,,0,206,206,206,,,,,,,,,,,,,,,,,,,,,,,,,,,,,,,,,,,,,main,k,k,1,0.7875696999835782,703.6551286000176,None,None,0,,,,,,,,,,,,,,109,24,Female,2022-05-02_15h42.39.608,Parachute,2022.1.1,59.90653383254286,
negative,yellow,2,k,None,,,,,,,,,0,207,207,207,,,,,,,,,,,,,,,,,,,,,,,,,,,,,,,,,,,,,main,None,None,1,1.4929472000221722,705.4412835999974,None,None,1,,,,,,,,,,,,,,109,24,Female,2022-05-02_15h42.39.608,Parachute,2022.1.1,59.90653383254286,
positive,yellow,2,None,k,,,,,,,,,0,208,208,208,,,,,,,,,,,,,,,,,,,,,,,,,,,,,,,,,,,,,main,k,k,1,0.7882121999864466,707.9376701000147,None,None,0,,,,,,,,,,,,,,109,24,Female,2022-05-02_15h42.39.608,Parachute,2022.1.1,59.90653383254286,
negative,yellow,1,k,None,,,,,,,,,0,209,209,209,,,,,,,,,,,,,,,,,,,,,,,,,,,,,,,,,,,,,main,None,None,1,1.4923956000129692,709.7254721999634,None,None,1,,,,,,,,,,,,,,109,24,Female,2022-05-02_15h42.39.608,Parachute,2022.1.1,59.90653383254286,
negative,red,2,None,None,,,,,,,,,0,210,210,210,,,,,,,,,,,,,,,,,,,,,,,,,,,,,,,,,,,,,main,None,None,1,1.499296099995263,712.221071899985,None,None,1,,,,,,,,,,,,,,109,24,Female,2022-05-02_15h42.39.608,Parachute,2022.1.1,59.90653383254286,
negative,blue,1,None,k,,,,,,,,,0,211,211,211,,,,,,,,,,,,,,,,,,,,,,,,,,,,,,,,,,,,,main,k,k,1,0.8204877999960445,714.7219098999631,None,None,0,,,,,,,,,,,,,,109,24,Female,2022-05-02_15h42.39.608,Parachute,2022.1.1,59.90653383254286,
negative,yellow,1,k,None,,,,,,,,,0,212,212,212,,,,,,,,,,,,,,,,,,,,,,,,,,,,,,,,,,,,,main,None,None,1,1.4932881999993697,716.5412751999684,None,None,1,,,,,,,,,,,,,,109,24,Female,2022-05-02_15h42.39.608,Parachute,2022.1.1,59.90653383254286,
positive,blue,1,k,None,,,,,,,,,0,213,213,213,,,,,,,,,,,,,,,,,,,,,,,,,,,,,,,,,,,,,main,None,None,1,1.4988351999782026,719.0384350999957,None,None,1,,,,,,,,,,,,,,109,24,Female,2022-05-02_15h42.39.608,Parachute,2022.1.1,59.90653383254286,
positive,blue,1,k,None,,,,,,,,,0,214,214,214,,,,,,,,,,,,,,,,,,,,,,,,,,,,,,,,,,,,,main,None,None,1,1.49869579996448,721.5385811000015,None,None,1,,,,,,,,,,,,,,109,24,Female,2022-05-02_15h42.39.608,Parachute,2022.1.1,59.90653383254286,
positive,yellow,1,None,k,,,,,,,,,0,215,215,215,,,,,,,,,,,,,,,,,,,,,,,,,,,,,,,,,,,,,main,k,k,1,0.8710517999716103,724.0387854999863,None,None,0,,,,,,,,,,,,,,109,24,Female,2022-05-02_15h42.39.608,Parachute,2022.1.1,59.90653383254286,
positive,yellow,1,None,k,,,,,,,,,0,216,216,216,,,,,,,,,,,,,,,,,,,,,,,,,,,,,,,,,,,,,main,k,k,1,0.9316704000229947,725.9085983000114,None,None,0,,,,,,,,,,,,,,109,24,Female,2022-05-02_15h42.39.608,Parachute,2022.1.1,59.90653383254286,
positive,yellow,2,None,k,,,,,,,,,0,217,217,217,,,,,,,,,,,,,,,,,,,,,,,,,,,,,,,,,,,,,main,k,k,1,0.7988130000303499,727.8412326999824,None,None,0,,,,,,,,,,,,,,109,24,Female,2022-05-02_15h42.39.608,Parachute,2022.1.1,59.90653383254286,
negative,blue,1,None,k,,,,,,,,,0,218,218,218,,,,,,,,,,,,,,,,,,,,,,,,,,,,,,,,,,,,,main,k,k,1,0.9146896000020206,729.6415954999975,None,None,0,,,,,,,,,,,,,,109,24,Female,2022-05-02_15h42.39.608,Parachute,2022.1.1,59.90653383254286,
positive,red,2,None,None,,,,,,,,,0,219,219,219,,,,,,,,,,,,,,,,,,,,,,,,,,,,,,,,,,,,,main,None,None,1,1.4943524000118487,731.5582229999709,None,None,1,,,,,,,,,,,,,,109,24,Female,2022-05-02_15h42.39.608,Parachute,2022.1.1,59.90653383254286,
positive,yellow,1,None,k,,,,,,,,,0,220,220,220,,,,,,,,,,,,,,,,,,,,,,,,,,,,,,,,,,,,,main,k,k,1,0.7213116000057198,734.0556789999828,None,None,0,,,,,,,,,,,,,,109,24,Female,2022-05-02_15h42.39.608,Parachute,2022.1.1,59.90653383254286,
positive,blue,1,k,None,,,,,,,,,0,221,221,221,,,,,,,,,,,,,,,,,,,,,,,,,,,,,,,,,,,,,main,None,None,1,1.5090106999850832,735.7760810999898,None,None,1,,,,,,,,,,,,,,109,24,Female,2022-05-02_15h42.39.608,Parachute,2022.1.1,59.90653383254286,
positive,yellow,2,None,k,,,,,,,,,0,222,222,222,,,,,,,,,,,,,,,,,,,,,,,,,,,,,,,,,,,,,main,k,k,1,0.8542108999681659,738.2884713999811,None,None,0,,,,,,,,,,,,,,109,24,Female,2022-05-02_15h42.39.608,Parachute,2022.1.1,59.90653383254286,
negative,yellow,1,k,None,,,,,,,,,0,223,223,223,,,,,,,,,,,,,,,,,,,,,,,,,,,,,,,,,,,,,main,None,None,1,1.493342700006906,740.1424516999978,None,None,1,,,,,,,,,,,,,,109,24,Female,2022-05-02_15h42.39.608,Parachute,2022.1.1,59.90653383254286,
positive,yellow,2,None,k,,,,,,,,,0,224,224,224,,,,,,,,,,,,,,,,,,,,,,,,,,,,,,,,,,,,,main,k,k,1,0.7341585999820381,742.6388340999838,None,None,0,,,,,,,,,,,,,,109,24,Female,2022-05-02_15h42.39.608,Parachute,2022.1.1,59.90653383254286,
negative,yellow,2,k,None,,,,,,,,,0,225,225,225,,,,,,,,,,,,,,,,,,,,,,,,,,,,,,,,,,,,,main,None,None,1,1.4953605000046082,744.3854750000173,None,None,1,,,,,,,,,,,,,,109,24,Female,2022-05-02_15h42.39.608,Parachute,2022.1.1,59.90653383254286,
negative,blue,2,None,k,,,,,,,,,0,226,226,226,,,,,,,,,,,,,,,,,,,,,,,,,,,,,,,,,,,,,main,k,k,1,0.9053317999932915,746.8729546999675,None,None,0,,,,,,,,,,,,,,109,24,Female,2022-05-02_15h42.39.608,Parachute,2022.1.1,59.90653383254286,
positive,red,2,None,None,,,,,,,,,0,227,227,227,,,,,,,,,,,,,,,,,,,,,,,,,,,,,,,,,,,,,main,None,None,1,1.5088153000106104,748.7766690999852,None,None,1,,,,,,,,,,,,,,109,24,Female,2022-05-02_15h42.39.608,Parachute,2022.1.1,59.90653383254286,
positive,blue,2,k,None,,,,,,,,,0,228,228,228,,,,,,,,,,,,,,,,,,,,,,,,,,,,,,,,,,,,,main,None,None,1,1.4990292000002228,751.2892987999949,None,None,1,,,,,,,,,,,,,,109,24,Female,2022-05-02_15h42.39.608,Parachute,2022.1.1,59.90653383254286,
negative,blue,1,None,k,,,,,,,,,0,229,229,229,,,,,,,,,,,,,,,,,,,,,,,,,,,,,,,,,,,,,main,k,k,1,1.253947600023821,753.788947699999,None,None,0,,,,,,,,,,,,,,109,24,Female,2022-05-02_15h42.39.608,Parachute,2022.1.1,59.90653383254286,
positive,yellow,1,None,k,,,,,,,,,0,230,230,230,,,,,,,,,,,,,,,,,,,,,,,,,,,,,,,,,,,,,main,k,k,1,0.7819469000096433,756.0417879999732,None,None,0,,,,,,,,,,,,,,109,24,Female,2022-05-02_15h42.39.608,Parachute,2022.1.1,59.90653383254286,
negative,blue,2,None,k,,,,,,,,,0,231,231,231,,,,,,,,,,,,,,,,,,,,,,,,,,,,,,,,,,,,,main,k,k,1,0.6808508000103757,757.825367500016,None,None,0,,,,,,,,,,,,,,109,24,Female,2022-05-02_15h42.39.608,Parachute,2022.1.1,59.90653383254286,
negative,red,1,None,None,,,,,,,,,0,232,232,232,,,,,,,,,,,,,,,,,,,,,,,,,,,,,,,,,,,,,main,None,None,1,1.4942369000054896,759.5083296999801,None,None,1,,,,,,,,,,,,,,109,24,Female,2022-05-02_15h42.39.608,Parachute,2022.1.1,59.90653383254286,
positive,blue,2,k,None,,,,,,,,,0,233,233,233,,,,,,,,,,,,,,,,,,,,,,,,,,,,,,,,,,,,,main,None,None,1,1.4986337999580428,762.0059284999734,None,None,1,,,,,,,,,,,,,,109,24,Female,2022-05-02_15h42.39.608,Parachute,2022.1.1,59.90653383254286,
negative,yellow,1,k,None,,,,,,,,,0,234,234,234,,,,,,,,,,,,,,,,,,,,,,,,,,,,,,,,,,,,,main,None,None,1,1.498642100021243,764.5063529000035,None,None,1,,,,,,,,,,,,,,109,24,Female,2022-05-02_15h42.39.608,Parachute,2022.1.1,59.90653383254286,
negative,yellow,2,k,None,,,,,,,,,0,235,235,235,,,,,,,,,,,,,,,,,,,,,,,,,,,,,,,,,,,,,main,None,None,1,1.4981972000095993,767.0059616999933,None,None,1,,,,,,,,,,,,,,109,24,Female,2022-05-02_15h42.39.608,Parachute,2022.1.1,59.90653383254286,
positive,red,1,None,None,,,,,,,,,0,236,236,236,,,,,,,,,,,,,,,,,,,,,,,,,,,,,,,,,,,,,main,None,None,1,1.498427799961064,769.5060845999978,None,None,1,,,,,,,,,,,,,,109,24,Female,2022-05-02_15h42.39.608,Parachute,2022.1.1,59.90653383254286,
negative,red,2,None,None,,,,,,,,,0,237,237,237,,,,,,,,,,,,,,,,,,,,,,,,,,,,,,,,,,,,,main,None,None,1,1.4987189999665134,772.0053293000092,None,None,1,,,,,,,,,,,,,,109,24,Female,2022-05-02_15h42.39.608,Parachute,2022.1.1,59.90653383254286,
negative,blue,1,None,k,,,,,,,,,0,238,238,238,,,,,,,,,,,,,,,,,,,,,,,,,,,,,,,,,,,,,main,k,k,1,0.8206006000400521,774.5053117999923,None,None,0,,,,,,,,,,,,,,109,24,Female,2022-05-02_15h42.39.608,Parachute,2022.1.1,59.90653383254286,
positive,blue,1,k,None,,,,,,,,,0,239,239,239,,,,,,,,,,,,,,,,,,,,,,,,,,,,,,,,,,,,,main,None,None,1,1.4935314999893308,776.3254857999855,None,None,1,,,,,,,,,,,,,,109,24,Female,2022-05-02_15h42.39.608,Parachute,2022.1.1,59.90653383254286,
,,,,,,,,,,,,,,,,,,,,,,,,,,,,,,,,,,,,,,,,,,,,,,,,,,,,,,,,,,,,,,,,,,,,,,,,,778.820777099987,None,,,,,,,,
